Timestamp,GyroX,GyroY,GyroZ,AccX,AccY,AccZ
1764767370.644104,-3.61662,0.93086,-0.47306,-0.91943124,0.3393546,0.12011688
1764767370.644104,-3.61662,0.93086,-0.47306,-0.91943124,0.3393546,0.12011688
1764767370.644104,-3.61662,0.93086,-0.47306,-0.91943124,0.3393546,0.12011688
1764767370.644104,-3.61662,0.93086,-0.47306,-0.91943124,0.3393546,0.12011688
1764767370.644104,-3.61662,0.93086,-0.47306,-0.91943124,0.3393546,0.12011688
1764767370.644104,-2.85362,0.9919,-0.03052,-0.919126065,0.339537705,0.120299985
1764767370.644104,-2.85362,0.9919,-0.03052,-0.919126065,0.339537705,0.120299985
1764767370.644104,-2.85362,0.9919,-0.03052,-0.919126065,0.339537705,0.120299985
1764767370.6446292,-2.85362,0.9919,-0.03052,-0.919126065,0.339537705,0.120299985
1764767370.6446292,-2.85362,0.9919,-0.03052,-0.919126065,0.339537705,0.120299985
1764767370.6446292,-2.85362,0.9919,-0.03052,-0.919126065,0.339537705,0.120299985
1764767370.6446292,-2.85362,0.9919,-0.03052,-0.919126065,0.339537705,0.120299985
1764767370.6446292,-2.85362,0.9919,-0.03052,-0.919126065,0.339537705,0.120299985
1764767370.6446292,-2.85362,0.9919,-0.03052,-0.919126065,0.339537705,0.120299985
1764767370.6446292,-2.85362,0.9919,-0.03052,-0.919126065,0.339537705,0.120299985
1764767370.6446292,-2.92992,0.763,-0.4578,-0.91857675,0.340636335,0.12109344
1764767370.6446292,-2.92992,0.763,-0.4578,-0.91857675,0.340636335,0.12109344
1764767370.6446292,-2.92992,0.763,-0.4578,-0.91857675,0.340636335,0.12109344
1764767370.6446292,-2.92992,0.763,-0.4578,-0.91857675,0.340636335,0.12109344
1764767370.6446292,-2.92992,0.763,-0.4578,-0.91857675,0.340636335,0.12109344
1764767370.6446292,-2.92992,0.763,-0.4578,-0.91857675,0.340636335,0.12109344
1764767370.6446292,-2.92992,0.763,-0.4578,-0.91857675,0.340636335,0.12109344
1764767370.6446292,-2.92992,0.763,-0.4578,-0.91857675,0.340636335,0.12109344
1764767370.6903522,-2.92992,0.763,-0.4578,-0.91857675,0.340636335,0.12109344
1764767370.6903522,-2.92992,0.763,-0.4578,-0.91857675,0.340636335,0.12109344
1764767370.6903522,-3.03674,0.96138,-0.13734,-0.91808847,0.342223245,0.12207
1764767370.6903522,-3.03674,0.96138,-0.13734,-0.91808847,0.342223245,0.12207
1764767370.6903522,-3.03674,0.96138,-0.13734,-0.91808847,0.342223245,0.12207
1764767370.6903522,-3.03674,0.96138,-0.13734,-0.91808847,0.342223245,0.12207
1764767370.6908596,-3.03674,0.96138,-0.13734,-0.91808847,0.342223245,0.12207
1764767370.6908596,-3.03674,0.96138,-0.13734,-0.91808847,0.342223245,0.12207
1764767370.6908596,-3.03674,0.96138,-0.13734,-0.91808847,0.342223245,0.12207
1764767370.6908596,-3.03674,0.96138,-0.13734,-0.91808847,0.342223245,0.12207
1764767370.6908596,-3.03674,0.96138,-0.13734,-0.91808847,0.342223245,0.12207
1764767370.6908596,-3.03674,0.96138,-0.13734,-0.91808847,0.342223245,0.12207
1764767370.6908596,-4.21176,0.97664,-0.41202,-0.916928805,0.34313877,0.12133758
1764767370.6908596,-4.21176,0.97664,-0.41202,-0.916928805,0.34313877,0.12133758
1764767370.6908596,-4.21176,0.97664,-0.41202,-0.916928805,0.34313877,0.12133758
1764767370.6908596,-4.21176,0.97664,-0.41202,-0.916928805,0.34313877,0.12133758
1764767370.6908596,-4.21176,0.97664,-0.41202,-0.916928805,0.34313877,0.12133758
1764767370.6908596,-4.21176,0.97664,-0.41202,-0.916928805,0.34313877,0.12133758
1764767370.6908596,-4.21176,0.97664,-0.41202,-0.916928805,0.34313877,0.12133758
1764767370.6908596,-4.21176,0.97664,-0.41202,-0.916928805,0.34313877,0.12133758
1764767370.6908596,-4.21176,0.97664,-0.41202,-0.916928805,0.34313877,0.12133758
1764767370.6908596,-4.21176,0.97664,-0.41202,-0.916928805,0.34313877,0.12133758
1764767370.6908596,-4.48644,1.02242,-0.79352,-0.91515879,0.342955665,0.120299985
1764767370.6908596,-4.48644,1.02242,-0.79352,-0.91515879,0.342955665,0.120299985
1764767370.7369611,-4.48644,1.02242,-0.79352,-0.91515879,0.342955665,0.120299985
1764767370.7369611,-4.48644,1.02242,-0.79352,-0.91515879,0.342955665,0.120299985
1764767370.7369611,-4.48644,1.02242,-0.79352,-0.91515879,0.342955665,0.120299985
1764767370.7369611,-4.48644,1.02242,-0.79352,-0.91515879,0.342955665,0.120299985
1764767370.7369611,-4.48644,1.02242,-0.79352,-0.91515879,0.342955665,0.120299985
1764767370.7369611,-4.48644,1.02242,-0.79352,-0.91515879,0.342955665,0.120299985
1764767370.7369611,-4.48644,1.02242,-0.79352,-0.91515879,0.342955665,0.120299985
1764767370.7369611,-4.48644,1.02242,-0.79352,-0.91515879,0.342955665,0.120299985
1764767370.7369611,-5.44782,1.26658,-0.3815,-0.914975685,0.344176365,0.11865204
1764767370.7369611,-5.44782,1.26658,-0.3815,-0.914975685,0.344176365,0.11865204
1764767370.7369611,-5.44782,1.26658,-0.3815,-0.914975685,0.344176365,0.11865204
1764767370.7369611,-5.44782,1.26658,-0.3815,-0.914975685,0.344176365,0.11865204
1764767370.7369611,-5.44782,1.26658,-0.3815,-0.914975685,0.344176365,0.11865204
1764767370.7369611,-5.44782,1.26658,-0.3815,-0.914975685,0.344176365,0.11865204
1764767370.7369611,-5.44782,1.26658,-0.3815,-0.914975685,0.344176365,0.11865204
1764767370.7369611,-5.44782,1.26658,-0.3815,-0.914975685,0.344176365,0.11865204
1764767370.737983,-5.44782,1.26658,-0.3815,-0.914975685,0.344176365,0.11865204
1764767370.737983,-5.44782,1.26658,-0.3815,-0.914975685,0.344176365,0.11865204
1764767370.737983,-7.00434,1.96854,-0.5341,-0.91662363,0.34496982,0.11828583
1764767370.737983,-7.00434,1.96854,-0.5341,-0.91662363,0.34496982,0.11828583
1764767370.737983,-7.00434,1.96854,-0.5341,-0.91662363,0.34496982,0.11828583
1764767370.737983,-7.00434,1.96854,-0.5341,-0.91662363,0.34496982,0.11828583
1764767370.737983,-7.00434,1.96854,-0.5341,-0.91662363,0.34496982,0.11828583
1764767370.737983,-7.00434,1.96854,-0.5341,-0.91662363,0.34496982,0.11828583
1764767370.7847266,-7.00434,1.96854,-0.5341,-0.91662363,0.34496982,0.11828583
1764767370.7847266,-7.00434,1.96854,-0.5341,-0.91662363,0.34496982,0.11828583
1764767370.7847266,-7.00434,1.96854,-0.5341,-0.91662363,0.34496982,0.11828583
1764767370.7847266,-7.00434,1.96854,-0.5341,-0.91662363,0.34496982,0.11828583
1764767370.7847266,-7.370579999999999,1.9838,-0.59514,-0.917905365,0.34252842,0.118713075
1764767370.7847266,-7.370579999999999,1.9838,-0.59514,-0.917905365,0.34252842,0.118713075
1764767370.7847266,-7.370579999999999,1.9838,-0.59514,-0.917905365,0.34252842,0.118713075
1764767370.7847266,-7.370579999999999,1.9838,-0.59514,-0.917905365,0.34252842,0.118713075
1764767370.7847266,-7.370579999999999,1.9838,-0.59514,-0.917905365,0.34252842,0.118713075
1764767370.7847266,-7.370579999999999,1.9838,-0.59514,-0.917905365,0.34252842,0.118713075
1764767370.7847266,-7.370579999999999,1.9838,-0.59514,-0.917905365,0.34252842,0.118713075
1764767370.7847266,-7.370579999999999,1.9838,-0.59514,-0.917905365,0.34252842,0.118713075
1764767370.7847266,-7.370579999999999,1.9838,-0.59514,-0.917905365,0.34252842,0.118713075
1764767370.7847266,-7.370579999999999,1.9838,-0.59514,-0.917905365,0.34252842,0.118713075
1764767370.7847266,-6.42446,2.4416,0.06104,-0.91772226,0.33911046,0.119811705
1764767370.7847266,-6.42446,2.4416,0.06104,-0.91772226,0.33911046,0.119811705
1764767370.7847266,-6.42446,2.4416,0.06104,-0.91772226,0.33911046,0.119811705
1764767370.7847266,-6.42446,2.4416,0.06104,-0.91772226,0.33911046,0.119811705
1764767370.7847266,-6.42446,2.4416,0.06104,-0.91772226,0.33911046,0.119811705
1764767370.7847266,-6.42446,2.4416,0.06104,-0.91772226,0.33911046,0.119811705
1764767370.8306026,-6.42446,2.4416,0.06104,-0.91772226,0.33911046,0.119811705
1764767370.8306026,-6.42446,2.4416,0.06104,-0.91772226,0.33911046,0.119811705
1764767370.8306026,-6.42446,2.4416,0.06104,-0.91772226,0.33911046,0.119811705
1764767370.8306026,-6.42446,2.4416,0.06104,-0.91772226,0.33911046,0.119811705
1764767370.8306026,-6.08874,2.16692,0.73248,-0.91857675,0.33727941,0.120544125
1764767370.8306026,-6.08874,2.16692,0.73248,-0.91857675,0.33727941,0.120544125
1764767370.8306026,-6.08874,2.16692,0.73248,-0.91857675,0.33727941,0.120544125
1764767370.8306026,-6.08874,2.16692,0.73248,-0.91857675,0.33727941,0.120544125
1764767370.8306026,-6.08874,2.16692,0.73248,-0.91857675,0.33727941,0.120544125
1764767370.8316128,-6.08874,2.16692,0.73248,-0.91857675,0.33727941,0.120544125
1764767370.8316128,-6.08874,2.16692,0.73248,-0.91857675,0.33727941,0.120544125
1764767370.8316128,-6.08874,2.16692,0.73248,-0.91857675,0.33727941,0.120544125
1764767370.8316128,-6.08874,2.16692,0.73248,-0.91857675,0.33727941,0.120544125
1764767370.8316128,-6.08874,2.16692,0.73248,-0.91857675,0.33727941,0.120544125
1764767370.8316128,-5.478339999999999,1.34288,0.47306,-0.919248135,0.335753535,0.120299985
1764767370.8316128,-5.478339999999999,1.34288,0.47306,-0.919248135,0.335753535,0.120299985
1764767370.8316128,-5.478339999999999,1.34288,0.47306,-0.919248135,0.335753535,0.120299985
1764767370.8316128,-5.478339999999999,1.34288,0.47306,-0.919248135,0.335753535,0.120299985
1764767370.8316128,-5.478339999999999,1.34288,0.47306,-0.919248135,0.335753535,0.120299985
1764767370.8316128,-5.478339999999999,1.34288,0.47306,-0.919248135,0.335753535,0.120299985
1764767370.8316128,-5.478339999999999,1.34288,0.47306,-0.919248135,0.335753535,0.120299985
1764767370.8316128,-5.478339999999999,1.34288,0.47306,-0.919248135,0.335753535,0.120299985
1764767370.8316128,-5.478339999999999,1.34288,0.47306,-0.919248135,0.335753535,0.120299985
1764767370.8316128,-5.478339999999999,1.34288,0.47306,-0.919248135,0.335753535,0.120299985
1764767370.8797696,-5.27996,1.54126,-0.04578,-0.91991952,0.33557043,0.120910335
1764767370.8797696,-5.27996,1.54126,-0.04578,-0.91991952,0.33557043,0.120910335
1764767370.880274,-5.27996,1.54126,-0.04578,-0.91991952,0.33557043,0.120910335
1764767370.880274,-5.27996,1.54126,-0.04578,-0.91991952,0.33557043,0.120910335
1764767370.880274,-5.27996,1.54126,-0.04578,-0.91991952,0.33557043,0.120910335
1764767370.880274,-5.27996,1.54126,-0.04578,-0.91991952,0.33557043,0.120910335
1764767370.880274,-5.27996,1.54126,-0.04578,-0.91991952,0.33557043,0.120910335
1764767370.880274,-5.27996,1.54126,-0.04578,-0.91991952,0.33557043,0.120910335
1764767370.880274,-5.27996,1.54126,-0.04578,-0.91991952,0.33557043,0.120910335
1764767370.880274,-5.27996,1.54126,-0.04578,-0.91991952,0.33557043,0.120910335
1764767370.880274,-4.8832,1.86172,0.24416,-0.92028573,0.335997675,0.120422055
1764767370.880274,-4.8832,1.86172,0.24416,-0.92028573,0.335997675,0.120422055
1764767370.880274,-4.8832,1.86172,0.24416,-0.92028573,0.335997675,0.120422055
1764767370.880274,-4.8832,1.86172,0.24416,-0.92028573,0.335997675,0.120422055
1764767370.880274,-4.8832,1.86172,0.24416,-0.92028573,0.335997675,0.120422055
1764767370.880274,-4.8832,1.86172,0.24416,-0.92028573,0.335997675,0.120422055
1764767370.880274,-4.8832,1.86172,0.24416,-0.92028573,0.335997675,0.120422055
1764767370.880274,-4.8832,1.86172,0.24416,-0.92028573,0.335997675,0.120422055
1764767370.880274,-4.8832,1.86172,0.24416,-0.92028573,0.335997675,0.120422055
1764767370.880274,-4.8832,1.86172,0.24416,-0.92028573,0.335997675,0.120422055
1764767370.880274,-4.6543,1.4039199999999998,0.27468,-0.92052987,0.337462515,0.12011688
1764767370.880274,-4.6543,1.4039199999999998,0.27468,-0.92052987,0.337462515,0.12011688
1764767370.880274,-4.6543,1.4039199999999998,0.27468,-0.92052987,0.337462515,0.12011688
1764767370.880274,-4.6543,1.4039199999999998,0.27468,-0.92052987,0.337462515,0.12011688
1764767370.9231975,-4.6543,1.4039199999999998,0.27468,-0.92052987,0.337462515,0.12011688
1764767370.9231975,-4.6543,1.4039199999999998,0.27468,-0.92052987,0.337462515,0.12011688
1764767370.9231975,-4.6543,1.4039199999999998,0.27468,-0.92052987,0.337462515,0.12011688
1764767370.9231975,-4.6543,1.4039199999999998,0.27468,-0.92052987,0.337462515,0.12011688
1764767370.9231975,-4.6543,1.4039199999999998,0.27468,-0.92052987,0.337462515,0.12011688
1764767370.9231975,-4.6543,1.4039199999999998,0.27468,-0.92052987,0.337462515,0.12011688
1764767370.9231975,-4.41014,1.38866,0.03052,-0.92004159,0.338561145,0.118957215
1764767370.9231975,-4.41014,1.38866,0.03052,-0.92004159,0.338561145,0.118957215
1764767370.9231975,-4.41014,1.38866,0.03052,-0.92004159,0.338561145,0.118957215
1764767370.9231975,-4.41014,1.38866,0.03052,-0.92004159,0.338561145,0.118957215
1764767370.9244556,-4.41014,1.38866,0.03052,-0.92004159,0.338561145,0.118957215
1764767370.9244556,-4.41014,1.38866,0.03052,-0.92004159,0.338561145,0.118957215
1764767370.9244556,-4.41014,1.38866,0.03052,-0.92004159,0.338561145,0.118957215
1764767370.9244556,-4.41014,1.38866,0.03052,-0.92004159,0.338561145,0.118957215
1764767370.9244556,-4.41014,1.38866,0.03052,-0.92004159,0.338561145,0.118957215
1764767370.9244556,-4.41014,1.38866,0.03052,-0.92004159,0.338561145,0.118957215
1764767370.9244556,-4.822159999999999,1.63282,-0.13734,-0.9191871,0.33862218,0.11767548
1764767370.9244556,-4.822159999999999,1.63282,-0.13734,-0.9191871,0.33862218,0.11767548
1764767370.9249616,-4.822159999999999,1.63282,-0.13734,-0.9191871,0.33862218,0.11767548
1764767370.9249616,-4.822159999999999,1.63282,-0.13734,-0.9191871,0.33862218,0.11767548
1764767370.9249616,-4.822159999999999,1.63282,-0.13734,-0.9191871,0.33862218,0.11767548
1764767370.9249616,-4.822159999999999,1.63282,-0.13734,-0.9191871,0.33862218,0.11767548
1764767370.9249616,-4.822159999999999,1.63282,-0.13734,-0.9191871,0.33862218,0.11767548
1764767370.9249616,-4.822159999999999,1.63282,-0.13734,-0.9191871,0.33862218,0.11767548
1764767370.9702842,-4.822159999999999,1.63282,-0.13734,-0.9191871,0.33862218,0.11767548
1764767370.9702842,-4.822159999999999,1.63282,-0.13734,-0.9191871,0.33862218,0.11767548
1764767370.9702842,-4.47118,1.43444,-0.01526,-0.918393645,0.33923253,0.11791962
1764767370.9702842,-4.47118,1.43444,-0.01526,-0.918393645,0.33923253,0.11791962
1764767370.9702842,-4.47118,1.43444,-0.01526,-0.918393645,0.33923253,0.11791962
1764767370.9702842,-4.47118,1.43444,-0.01526,-0.918393645,0.33923253,0.11791962
1764767370.9702842,-4.47118,1.43444,-0.01526,-0.918393645,0.33923253,0.11791962
1764767370.9702842,-4.47118,1.43444,-0.01526,-0.918393645,0.33923253,0.11791962
1764767370.9702842,-4.47118,1.43444,-0.01526,-0.918393645,0.33923253,0.11791962
1764767370.9712956,-4.47118,1.43444,-0.01526,-0.918393645,0.33923253,0.11791962
1764767370.9712956,-4.47118,1.43444,-0.01526,-0.918393645,0.33923253,0.11791962
1764767370.9712956,-4.47118,1.43444,-0.01526,-0.918393645,0.33923253,0.11791962
1764767370.9712956,-4.62378,1.7549,-0.21364,-0.91735605,0.34008702,0.119323425
1764767370.9712956,-4.62378,1.7549,-0.21364,-0.91735605,0.34008702,0.119323425
1764767370.9712956,-4.62378,1.7549,-0.21364,-0.91735605,0.34008702,0.119323425
1764767370.9712956,-4.62378,1.7549,-0.21364,-0.91735605,0.34008702,0.119323425
1764767370.9712956,-4.62378,1.7549,-0.21364,-0.91735605,0.34008702,0.119323425
1764767370.9712956,-4.62378,1.7549,-0.21364,-0.91735605,0.34008702,0.119323425
1764767370.9712956,-4.62378,1.7549,-0.21364,-0.91735605,0.34008702,0.119323425
1764767370.9712956,-4.62378,1.7549,-0.21364,-0.91735605,0.34008702,0.119323425
1764767370.9712956,-4.62378,1.7549,-0.21364,-0.91735605,0.34008702,0.119323425
1764767370.9712956,-4.62378,1.7549,-0.21364,-0.91735605,0.34008702,0.119323425
1764767371.0178344,-4.959499999999999,1.23606,-0.09156,-0.91723398,0.339293565,0.12048309
1764767371.018374,-4.959499999999999,1.23606,-0.09156,-0.91723398,0.339293565,0.12048309
1764767371.018374,-4.959499999999999,1.23606,-0.09156,-0.91723398,0.339293565,0.12048309
1764767371.018374,-4.959499999999999,1.23606,-0.09156,-0.91723398,0.339293565,0.12048309
1764767371.018374,-4.959499999999999,1.23606,-0.09156,-0.91723398,0.339293565,0.12048309
1764767371.018374,-4.959499999999999,1.23606,-0.09156,-0.91723398,0.339293565,0.12048309
1764767371.018374,-4.959499999999999,1.23606,-0.09156,-0.91723398,0.339293565,0.12048309
1764767371.018374,-4.959499999999999,1.23606,-0.09156,-0.91723398,0.339293565,0.12048309
1764767371.018374,-4.959499999999999,1.23606,-0.09156,-0.91723398,0.339293565,0.12048309
1764767371.018374,-4.959499999999999,1.23606,-0.09156,-0.91723398,0.339293565,0.12048309
1764767371.018374,-4.97476,1.12924,-0.1525999999999999,-0.91711191,0.338439075,0.12133758
1764767371.018374,-4.97476,1.12924,-0.1525999999999999,-0.91711191,0.338439075,0.12133758
1764767371.018374,-4.97476,1.12924,-0.1525999999999999,-0.91711191,0.338439075,0.12133758
1764767371.018374,-4.97476,1.12924,-0.1525999999999999,-0.91711191,0.338439075,0.12133758
1764767371.018374,-4.97476,1.12924,-0.1525999999999999,-0.91711191,0.338439075,0.12133758
1764767371.018374,-4.97476,1.12924,-0.1525999999999999,-0.91711191,0.338439075,0.12133758
1764767371.018374,-4.97476,1.12924,-0.1525999999999999,-0.91711191,0.338439075,0.12133758
1764767371.018374,-4.97476,1.12924,-0.1525999999999999,-0.91711191,0.338439075,0.12133758
1764767371.018374,-4.97476,1.12924,-0.1525999999999999,-0.91711191,0.338439075,0.12133758
1764767371.018374,-4.97476,1.12924,-0.1525999999999999,-0.91711191,0.338439075,0.12133758
1764767371.018374,-4.8069,1.02242,-0.1525999999999999,-0.91784433,0.33788976,0.12182586
1764767371.018374,-4.8069,1.02242,-0.1525999999999999,-0.91784433,0.33788976,0.12182586
1764767371.018374,-4.8069,1.02242,-0.1525999999999999,-0.91784433,0.33788976,0.12182586
1764767371.018374,-4.8069,1.02242,-0.1525999999999999,-0.91784433,0.33788976,0.12182586
1764767371.061937,-4.8069,1.02242,-0.1525999999999999,-0.91784433,0.33788976,0.12182586
1764767371.061937,-4.8069,1.02242,-0.1525999999999999,-0.91784433,0.33788976,0.12182586
1764767371.061937,-4.8069,1.02242,-0.1525999999999999,-0.91784433,0.33788976,0.12182586
1764767371.061937,-4.8069,1.02242,-0.1525999999999999,-0.91784433,0.33788976,0.12182586
1764767371.061937,-4.8069,1.02242,-0.1525999999999999,-0.91784433,0.33788976,0.12182586
1764767371.061937,-4.8069,1.02242,-0.1525999999999999,-0.91784433,0.33788976,0.12182586
1764767371.061937,-5.02054,0.94612,-0.6103999999999999,-0.919370205,0.3381339,0.120544125
1764767371.061937,-5.02054,0.94612,-0.6103999999999999,-0.919370205,0.3381339,0.120544125
1764767371.061937,-5.02054,0.94612,-0.6103999999999999,-0.919370205,0.3381339,0.120544125
1764767371.062467,-5.02054,0.94612,-0.6103999999999999,-0.919370205,0.3381339,0.120544125
1764767371.062467,-5.02054,0.94612,-0.6103999999999999,-0.919370205,0.3381339,0.120544125
1764767371.062467,-5.02054,0.94612,-0.6103999999999999,-0.919370205,0.3381339,0.120544125
1764767371.062467,-5.02054,0.94612,-0.6103999999999999,-0.919370205,0.3381339,0.120544125
1764767371.062467,-5.02054,0.94612,-0.6103999999999999,-0.919370205,0.3381339,0.120544125
1764767371.062467,-5.02054,0.94612,-0.6103999999999999,-0.919370205,0.3381339,0.120544125
1764767371.062467,-5.02054,0.94612,-0.6103999999999999,-0.919370205,0.3381339,0.120544125
1764767371.062467,-4.77638,0.82404,-0.3357199999999999,-0.91967538,0.33886632,0.12097137
1764767371.062467,-4.77638,0.82404,-0.3357199999999999,-0.91967538,0.33886632,0.12097137
1764767371.062467,-4.77638,0.82404,-0.3357199999999999,-0.91967538,0.33886632,0.12097137
1764767371.062467,-4.77638,0.82404,-0.3357199999999999,-0.91967538,0.33886632,0.12097137
1764767371.062467,-4.77638,0.82404,-0.3357199999999999,-0.91967538,0.33886632,0.12097137
1764767371.062467,-4.77638,0.82404,-0.3357199999999999,-0.91967538,0.33886632,0.12097137
1764767371.1083674,-4.77638,0.82404,-0.3357199999999999,-0.91967538,0.33886632,0.12097137
1764767371.1083674,-4.77638,0.82404,-0.3357199999999999,-0.91967538,0.33886632,0.12097137
1764767371.1083674,-4.77638,0.82404,-0.3357199999999999,-0.91967538,0.33886632,0.12097137
1764767371.1083674,-4.77638,0.82404,-0.3357199999999999,-0.91967538,0.33886632,0.12097137
1764767371.1083674,-4.577999999999999,1.11398,-0.5341,-0.919736415,0.338072865,0.120666195
1764767371.1083674,-4.577999999999999,1.11398,-0.5341,-0.919736415,0.338072865,0.120666195
1764767371.1083674,-4.577999999999999,1.11398,-0.5341,-0.919736415,0.338072865,0.120666195
1764767371.1083674,-4.577999999999999,1.11398,-0.5341,-0.919736415,0.338072865,0.120666195
1764767371.1083674,-4.577999999999999,1.11398,-0.5341,-0.919736415,0.338072865,0.120666195
1764767371.108893,-4.577999999999999,1.11398,-0.5341,-0.919736415,0.338072865,0.120666195
1764767371.108893,-4.577999999999999,1.11398,-0.5341,-0.919736415,0.338072865,0.120666195
1764767371.108893,-4.577999999999999,1.11398,-0.5341,-0.919736415,0.338072865,0.120666195
1764767371.108893,-4.577999999999999,1.11398,-0.5341,-0.919736415,0.338072865,0.120666195
1764767371.108893,-4.577999999999999,1.11398,-0.5341,-0.919736415,0.338072865,0.120666195
1764767371.108893,-4.54748,1.2971,-0.3357199999999999,-0.919614345,0.337950795,0.1196286
1764767371.108893,-4.54748,1.2971,-0.3357199999999999,-0.919614345,0.337950795,0.1196286
1764767371.108893,-4.54748,1.2971,-0.3357199999999999,-0.919614345,0.337950795,0.1196286
1764767371.108893,-4.54748,1.2971,-0.3357199999999999,-0.919614345,0.337950795,0.1196286
1764767371.108893,-4.54748,1.2971,-0.3357199999999999,-0.919614345,0.337950795,0.1196286
1764767371.108893,-4.54748,1.2971,-0.3357199999999999,-0.919614345,0.337950795,0.1196286
1764767371.108893,-4.54748,1.2971,-0.3357199999999999,-0.919614345,0.337950795,0.1196286
1764767371.108893,-4.54748,1.2971,-0.3357199999999999,-0.919614345,0.337950795,0.1196286
1764767371.108893,-4.54748,1.2971,-0.3357199999999999,-0.919614345,0.337950795,0.1196286
1764767371.108893,-4.54748,1.2971,-0.3357199999999999,-0.919614345,0.337950795,0.1196286
1764767371.155278,-4.21176,0.96138,-0.24416,-0.9191871,0.33727941,0.11999481
1764767371.155278,-4.21176,0.96138,-0.24416,-0.9191871,0.33727941,0.11999481
1764767371.155278,-4.21176,0.96138,-0.24416,-0.9191871,0.33727941,0.11999481
1764767371.155278,-4.21176,0.96138,-0.24416,-0.9191871,0.33727941,0.11999481
1764767371.155278,-4.21176,0.96138,-0.24416,-0.9191871,0.33727941,0.11999481
1764767371.155278,-4.21176,0.96138,-0.24416,-0.9191871,0.33727941,0.11999481
1764767371.155278,-4.21176,0.96138,-0.24416,-0.9191871,0.33727941,0.11999481
1764767371.155278,-4.21176,0.96138,-0.24416,-0.9191871,0.33727941,0.11999481
1764767371.155278,-4.21176,0.96138,-0.24416,-0.9191871,0.33727941,0.11999481
1764767371.155278,-4.21176,0.96138,-0.24416,-0.9191871,0.33727941,0.11999481
1764767371.155278,-4.53222,0.73248,-0.21364,-0.919126065,0.337462515,0.11999481
1764767371.155278,-4.53222,0.73248,-0.21364,-0.919126065,0.337462515,0.11999481
1764767371.155278,-4.53222,0.73248,-0.21364,-0.919126065,0.337462515,0.11999481
1764767371.155278,-4.53222,0.73248,-0.21364,-0.919126065,0.337462515,0.11999481
1764767371.155278,-4.53222,0.73248,-0.21364,-0.919126065,0.337462515,0.11999481
1764767371.155278,-4.53222,0.73248,-0.21364,-0.919126065,0.337462515,0.11999481
1764767371.155278,-4.53222,0.73248,-0.21364,-0.919126065,0.337462515,0.11999481
1764767371.155278,-4.53222,0.73248,-0.21364,-0.919126065,0.337462515,0.11999481
1764767371.155278,-4.53222,0.73248,-0.21364,-0.919126065,0.337462515,0.11999481
1764767371.155278,-4.53222,0.73248,-0.21364,-0.919126065,0.337462515,0.11999481
1764767371.155278,-4.37962,1.15976,-0.0762999999999999,-0.91894296,0.336608025,0.119323425
1764767371.155278,-4.37962,1.15976,-0.0762999999999999,-0.91894296,0.336608025,0.119323425
1764767371.155278,-4.37962,1.15976,-0.0762999999999999,-0.91894296,0.336608025,0.119323425
1764767371.155278,-4.37962,1.15976,-0.0762999999999999,-0.91894296,0.336608025,0.119323425
1764767371.202354,-4.37962,1.15976,-0.0762999999999999,-0.91894296,0.336608025,0.119323425
1764767371.202354,-4.37962,1.15976,-0.0762999999999999,-0.91894296,0.336608025,0.119323425
1764767371.202354,-4.37962,1.15976,-0.0762999999999999,-0.91894296,0.336608025,0.119323425
1764767371.202354,-4.37962,1.15976,-0.0762999999999999,-0.91894296,0.336608025,0.119323425
1764767371.202354,-4.37962,1.15976,-0.0762999999999999,-0.91894296,0.336608025,0.119323425
1764767371.202354,-4.37962,1.15976,-0.0762999999999999,-0.91894296,0.336608025,0.119323425
1764767371.202354,-4.21176,1.03768,0.01526,-0.918881925,0.336241815,0.12011688
1764767371.202354,-4.21176,1.03768,0.01526,-0.918881925,0.336241815,0.12011688
1764767371.202354,-4.21176,1.03768,0.01526,-0.918881925,0.336241815,0.12011688
1764767371.202354,-4.21176,1.03768,0.01526,-0.918881925,0.336241815,0.12011688
1764767371.202354,-4.21176,1.03768,0.01526,-0.918881925,0.336241815,0.12011688
1764767371.202354,-4.21176,1.03768,0.01526,-0.918881925,0.336241815,0.12011688
1764767371.202354,-4.21176,1.03768,0.01526,-0.918881925,0.336241815,0.12011688
1764767371.202354,-4.21176,1.03768,0.01526,-0.918881925,0.336241815,0.12011688
1764767371.202354,-4.21176,1.03768,0.01526,-0.918881925,0.336241815,0.12011688
1764767371.202354,-4.21176,1.03768,0.01526,-0.918881925,0.336241815,0.12011688
1764767371.202354,-4.33384,1.03768,0.01526,-0.91808847,0.336852165,0.119323425
1764767371.202354,-4.33384,1.03768,0.01526,-0.91808847,0.336852165,0.119323425
1764767371.202354,-4.33384,1.03768,0.01526,-0.91808847,0.336852165,0.119323425
1764767371.202354,-4.33384,1.03768,0.01526,-0.91808847,0.336852165,0.119323425
1764767371.202354,-4.33384,1.03768,0.01526,-0.91808847,0.336852165,0.119323425
1764767371.202354,-4.33384,1.03768,0.01526,-0.91808847,0.336852165,0.119323425
1764767371.2494004,-4.33384,1.03768,0.01526,-0.91808847,0.336852165,0.119323425
1764767371.2494004,-4.33384,1.03768,0.01526,-0.91808847,0.336852165,0.119323425
1764767371.2494004,-4.33384,1.03768,0.01526,-0.91808847,0.336852165,0.119323425
1764767371.2494004,-4.33384,1.03768,0.01526,-0.91808847,0.336852165,0.119323425
1764767371.2494004,-4.39488,1.2971,0.3051999999999999,-0.91857675,0.337950795,0.1196286
1764767371.2494004,-4.39488,1.2971,0.3051999999999999,-0.91857675,0.337950795,0.1196286
1764767371.2494004,-4.39488,1.2971,0.3051999999999999,-0.91857675,0.337950795,0.1196286
1764767371.2494004,-4.39488,1.2971,0.3051999999999999,-0.91857675,0.337950795,0.1196286
1764767371.2494004,-4.39488,1.2971,0.3051999999999999,-0.91857675,0.337950795,0.1196286
1764767371.2494004,-4.39488,1.2971,0.3051999999999999,-0.91857675,0.337950795,0.1196286
1764767371.2494004,-4.39488,1.2971,0.3051999999999999,-0.91857675,0.337950795,0.1196286
1764767371.2494004,-4.39488,1.2971,0.3051999999999999,-0.91857675,0.337950795,0.1196286
1764767371.2494004,-4.39488,1.2971,0.3051999999999999,-0.91857675,0.337950795,0.1196286
1764767371.2494004,-4.39488,1.2971,0.3051999999999999,-0.91857675,0.337950795,0.1196286
1764767371.2494004,-4.70008,1.32762,0.3815,-0.918149505,0.339171495,0.119323425
1764767371.2494004,-4.70008,1.32762,0.3815,-0.918149505,0.339171495,0.119323425
1764767371.2494004,-4.70008,1.32762,0.3815,-0.918149505,0.339171495,0.119323425
1764767371.2494004,-4.70008,1.32762,0.3815,-0.918149505,0.339171495,0.119323425
1764767371.2494004,-4.70008,1.32762,0.3815,-0.918149505,0.339171495,0.119323425
1764767371.2494004,-4.70008,1.32762,0.3815,-0.918149505,0.339171495,0.119323425
1764767371.2494004,-4.70008,1.32762,0.3815,-0.918149505,0.339171495,0.119323425
1764767371.2494004,-4.70008,1.32762,0.3815,-0.918149505,0.339171495,0.119323425
1764767371.2494004,-4.70008,1.32762,0.3815,-0.918149505,0.339171495,0.119323425
1764767371.2494004,-4.70008,1.32762,0.3815,-0.918149505,0.339171495,0.119323425
1764767371.2947066,-4.6543,1.11398,0.2289,-0.91906503,0.337096305,0.11987274
1764767371.2947066,-4.6543,1.11398,0.2289,-0.91906503,0.337096305,0.11987274
1764767371.2947066,-4.6543,1.11398,0.2289,-0.91906503,0.337096305,0.11987274
1764767371.2947066,-4.6543,1.11398,0.2289,-0.91906503,0.337096305,0.11987274
1764767371.2947066,-4.6543,1.11398,0.2289,-0.91906503,0.337096305,0.11987274
1764767371.2947066,-4.6543,1.11398,0.2289,-0.91906503,0.337096305,0.11987274
1764767371.295223,-4.6543,1.11398,0.2289,-0.91906503,0.337096305,0.11987274
1764767371.295223,-4.6543,1.11398,0.2289,-0.91906503,0.337096305,0.11987274
1764767371.295223,-4.6543,1.11398,0.2289,-0.91906503,0.337096305,0.11987274
1764767371.295223,-4.6543,1.11398,0.2289,-0.91906503,0.337096305,0.11987274
1764767371.295223,-4.577999999999999,1.38866,0.27468,-0.91943124,0.337096305,0.120055845
1764767371.295223,-4.577999999999999,1.38866,0.27468,-0.91943124,0.337096305,0.120055845
1764767371.295223,-4.577999999999999,1.38866,0.27468,-0.91943124,0.337096305,0.120055845
1764767371.295223,-4.577999999999999,1.38866,0.27468,-0.91943124,0.337096305,0.120055845
1764767371.295223,-4.577999999999999,1.38866,0.27468,-0.91943124,0.337096305,0.120055845
1764767371.295223,-4.577999999999999,1.38866,0.27468,-0.91943124,0.337096305,0.120055845
1764767371.295223,-4.577999999999999,1.38866,0.27468,-0.91943124,0.337096305,0.120055845
1764767371.295223,-4.577999999999999,1.38866,0.27468,-0.91943124,0.337096305,0.120055845
1764767371.295223,-4.577999999999999,1.38866,0.27468,-0.91943124,0.337096305,0.120055845
1764767371.295223,-4.577999999999999,1.38866,0.27468,-0.91943124,0.337096305,0.120055845
1764767371.295223,-5.02054,1.2055399999999998,0.0762999999999999,-0.91845468,0.3381339,0.120299985
1764767371.295223,-5.02054,1.2055399999999998,0.0762999999999999,-0.91845468,0.3381339,0.120299985
1764767371.342048,-5.02054,1.2055399999999998,0.0762999999999999,-0.91845468,0.3381339,0.120299985
1764767371.342048,-5.02054,1.2055399999999998,0.0762999999999999,-0.91845468,0.3381339,0.120299985
1764767371.342048,-5.02054,1.2055399999999998,0.0762999999999999,-0.91845468,0.3381339,0.120299985
1764767371.342048,-5.02054,1.2055399999999998,0.0762999999999999,-0.91845468,0.3381339,0.120299985
1764767371.342048,-5.02054,1.2055399999999998,0.0762999999999999,-0.91845468,0.3381339,0.120299985
1764767371.342048,-5.02054,1.2055399999999998,0.0762999999999999,-0.91845468,0.3381339,0.120299985
1764767371.342048,-5.02054,1.2055399999999998,0.0762999999999999,-0.91845468,0.3381339,0.120299985
1764767371.342048,-5.02054,1.2055399999999998,0.0762999999999999,-0.91845468,0.3381339,0.120299985
1764767371.342048,-5.1121,1.12924,0.06104,-0.918393645,0.33752355,0.119811705
1764767371.342048,-5.1121,1.12924,0.06104,-0.918393645,0.33752355,0.119811705
1764767371.342048,-5.1121,1.12924,0.06104,-0.918393645,0.33752355,0.119811705
1764767371.342048,-5.1121,1.12924,0.06104,-0.918393645,0.33752355,0.119811705
1764767371.342048,-5.1121,1.12924,0.06104,-0.918393645,0.33752355,0.119811705
1764767371.342048,-5.1121,1.12924,0.06104,-0.918393645,0.33752355,0.119811705
1764767371.342048,-5.1121,1.12924,0.06104,-0.918393645,0.33752355,0.119811705
1764767371.342048,-5.1121,1.12924,0.06104,-0.918393645,0.33752355,0.119811705
1764767371.342048,-5.1121,1.12924,0.06104,-0.918393645,0.33752355,0.119811705
1764767371.342048,-5.1121,1.12924,0.06104,-0.918393645,0.33752355,0.119811705
1764767371.342048,-4.83742,1.63282,0.19838,-0.918515715,0.336363885,0.119689635
1764767371.342048,-4.83742,1.63282,0.19838,-0.918515715,0.336363885,0.119689635
1764767371.342048,-4.83742,1.63282,0.19838,-0.918515715,0.336363885,0.119689635
1764767371.342048,-4.83742,1.63282,0.19838,-0.918515715,0.336363885,0.119689635
1764767371.342048,-4.83742,1.63282,0.19838,-0.918515715,0.336363885,0.119689635
1764767371.342048,-4.83742,1.63282,0.19838,-0.918515715,0.336363885,0.119689635
1764767371.3849497,-4.83742,1.63282,0.19838,-0.918515715,0.336363885,0.119689635
1764767371.3849497,-4.83742,1.63282,0.19838,-0.918515715,0.336363885,0.119689635
1764767371.3849497,-4.83742,1.63282,0.19838,-0.918515715,0.336363885,0.119689635
1764767371.3849497,-4.83742,1.63282,0.19838,-0.918515715,0.336363885,0.119689635
1764767371.3849497,-4.36436,1.19028,0.1525999999999999,-0.918637785,0.33581457,0.11950653
1764767371.3849497,-4.36436,1.19028,0.1525999999999999,-0.918637785,0.33581457,0.11950653
1764767371.3849497,-4.36436,1.19028,0.1525999999999999,-0.918637785,0.33581457,0.11950653
1764767371.3849497,-4.36436,1.19028,0.1525999999999999,-0.918637785,0.33581457,0.11950653
1764767371.3849497,-4.36436,1.19028,0.1525999999999999,-0.918637785,0.33581457,0.11950653
1764767371.3849497,-4.36436,1.19028,0.1525999999999999,-0.918637785,0.33581457,0.11950653
1764767371.3849497,-4.36436,1.19028,0.1525999999999999,-0.918637785,0.33581457,0.11950653
1764767371.3849497,-4.36436,1.19028,0.1525999999999999,-0.918637785,0.33581457,0.11950653
1764767371.3849497,-4.36436,1.19028,0.1525999999999999,-0.918637785,0.33581457,0.11950653
1764767371.3849497,-4.36436,1.19028,0.1525999999999999,-0.918637785,0.33581457,0.11950653
1764767371.3849497,-4.24228,1.31236,0.12208,-0.91906503,0.336241815,0.11901825
1764767371.3849497,-4.24228,1.31236,0.12208,-0.91906503,0.336241815,0.11901825
1764767371.3849497,-4.24228,1.31236,0.12208,-0.91906503,0.336241815,0.11901825
1764767371.3849497,-4.24228,1.31236,0.12208,-0.91906503,0.336241815,0.11901825
1764767371.3849497,-4.24228,1.31236,0.12208,-0.91906503,0.336241815,0.11901825
1764767371.3849497,-4.24228,1.31236,0.12208,-0.91906503,0.336241815,0.11901825
1764767371.3849497,-4.24228,1.31236,0.12208,-0.91906503,0.336241815,0.11901825
1764767371.3849497,-4.24228,1.31236,0.12208,-0.91906503,0.336241815,0.11901825
1764767371.4318311,-4.24228,1.31236,0.12208,-0.91906503,0.336241815,0.11901825
1764767371.4318311,-4.24228,1.31236,0.12208,-0.91906503,0.336241815,0.11901825
1764767371.4318311,-4.66956,1.69386,-0.28994,-0.919614345,0.33740148,0.11938446
1764767371.4318311,-4.66956,1.69386,-0.28994,-0.919614345,0.33740148,0.11938446
1764767371.4318311,-4.66956,1.69386,-0.28994,-0.919614345,0.33740148,0.11938446
1764767371.4318311,-4.66956,1.69386,-0.28994,-0.919614345,0.33740148,0.11938446
1764767371.4318311,-4.66956,1.69386,-0.28994,-0.919614345,0.33740148,0.11938446
1764767371.4318311,-4.66956,1.69386,-0.28994,-0.919614345,0.33740148,0.11938446
1764767371.4318311,-4.66956,1.69386,-0.28994,-0.919614345,0.33740148,0.11938446
1764767371.4318311,-4.66956,1.69386,-0.28994,-0.919614345,0.33740148,0.11938446
1764767371.4318311,-4.66956,1.69386,-0.28994,-0.919614345,0.33740148,0.11938446
1764767371.4318311,-4.66956,1.69386,-0.28994,-0.919614345,0.33740148,0.11938446
1764767371.4318311,-4.56274,1.25132,0.18312,-0.919980555,0.338194935,0.11987274
1764767371.4318311,-4.56274,1.25132,0.18312,-0.919980555,0.338194935,0.11987274
1764767371.4318311,-4.56274,1.25132,0.18312,-0.919980555,0.338194935,0.11987274
1764767371.4318311,-4.56274,1.25132,0.18312,-0.919980555,0.338194935,0.11987274
1764767371.4318311,-4.56274,1.25132,0.18312,-0.919980555,0.338194935,0.11987274
1764767371.4318311,-4.56274,1.25132,0.18312,-0.919980555,0.338194935,0.11987274
1764767371.4318311,-4.56274,1.25132,0.18312,-0.919980555,0.338194935,0.11987274
1764767371.4318311,-4.56274,1.25132,0.18312,-0.919980555,0.338194935,0.11987274
1764767371.4318311,-4.56274,1.25132,0.18312,-0.919980555,0.338194935,0.11987274
1764767371.4318311,-4.56274,1.25132,0.18312,-0.919980555,0.338194935,0.11987274
1764767371.4318311,-4.77638,1.0682,0.03052,-0.92028573,0.33727941,0.119323425
1764767371.4318311,-4.77638,1.0682,0.03052,-0.92028573,0.33727941,0.119323425
1764767371.4819355,-4.77638,1.0682,0.03052,-0.92028573,0.33727941,0.119323425
1764767371.4819355,-4.77638,1.0682,0.03052,-0.92028573,0.33727941,0.119323425
1764767371.4819355,-4.77638,1.0682,0.03052,-0.92028573,0.33727941,0.119323425
1764767371.4819355,-4.77638,1.0682,0.03052,-0.92028573,0.33727941,0.119323425
1764767371.4819355,-4.77638,1.0682,0.03052,-0.92028573,0.33727941,0.119323425
1764767371.4819355,-4.77638,1.0682,0.03052,-0.92028573,0.33727941,0.119323425
1764767371.4819355,-4.77638,1.0682,0.03052,-0.92028573,0.33727941,0.119323425
1764767371.4819355,-4.77638,1.0682,0.03052,-0.92028573,0.33727941,0.119323425
1764767371.4819355,-4.41014,1.31236,0.06104,-0.92004159,0.336852165,0.1196286
1764767371.4819355,-4.41014,1.31236,0.06104,-0.92004159,0.336852165,0.1196286
1764767371.4819355,-4.41014,1.31236,0.06104,-0.92004159,0.336852165,0.1196286
1764767371.4819355,-4.41014,1.31236,0.06104,-0.92004159,0.336852165,0.1196286
1764767371.4819355,-4.41014,1.31236,0.06104,-0.92004159,0.336852165,0.1196286
1764767371.4819355,-4.41014,1.31236,0.06104,-0.92004159,0.336852165,0.1196286
1764767371.4819355,-4.41014,1.31236,0.06104,-0.92004159,0.336852165,0.1196286
1764767371.4819355,-4.41014,1.31236,0.06104,-0.92004159,0.336852165,0.1196286
1764767371.4819355,-4.41014,1.31236,0.06104,-0.92004159,0.336852165,0.1196286
1764767371.4819355,-4.41014,1.31236,0.06104,-0.92004159,0.336852165,0.1196286
1764767371.4819355,-4.01338,1.11398,-0.0762999999999999,-0.91967538,0.335997675,0.11877411
1764767371.4819355,-4.01338,1.11398,-0.0762999999999999,-0.91967538,0.335997675,0.11877411
1764767371.4819355,-4.01338,1.11398,-0.0762999999999999,-0.91967538,0.335997675,0.11877411
1764767371.4819355,-4.01338,1.11398,-0.0762999999999999,-0.91967538,0.335997675,0.11877411
1764767371.4819355,-4.01338,1.11398,-0.0762999999999999,-0.91967538,0.335997675,0.11877411
1764767371.4819355,-4.01338,1.11398,-0.0762999999999999,-0.91967538,0.335997675,0.11877411
1764767371.5250142,-4.01338,1.11398,-0.0762999999999999,-0.91967538,0.335997675,0.11877411
1764767371.5250142,-4.01338,1.11398,-0.0762999999999999,-0.91967538,0.335997675,0.11877411
1764767371.5250142,-4.01338,1.11398,-0.0762999999999999,-0.91967538,0.335997675,0.11877411
1764767371.5250142,-4.01338,1.11398,-0.0762999999999999,-0.91967538,0.335997675,0.11877411
1764767371.5250142,-4.39488,1.02242,0.2289,-0.919492275,0.33618078,0.119445495
1764767371.5250142,-4.39488,1.02242,0.2289,-0.919492275,0.33618078,0.119445495
1764767371.5250142,-4.39488,1.02242,0.2289,-0.919492275,0.33618078,0.119445495
1764767371.5260336,-4.39488,1.02242,0.2289,-0.919492275,0.33618078,0.119445495
1764767371.5260336,-4.39488,1.02242,0.2289,-0.919492275,0.33618078,0.119445495
1764767371.5260336,-4.39488,1.02242,0.2289,-0.919492275,0.33618078,0.119445495
1764767371.5260336,-4.39488,1.02242,0.2289,-0.919492275,0.33618078,0.119445495
1764767371.5260336,-4.39488,1.02242,0.2289,-0.919492275,0.33618078,0.119445495
1764767371.5260336,-4.39488,1.02242,0.2289,-0.919492275,0.33618078,0.119445495
1764767371.5260336,-4.39488,1.02242,0.2289,-0.919492275,0.33618078,0.119445495
1764767371.5260336,-4.13546,1.09872,0.41202,-0.919126065,0.33679113,0.11901825
1764767371.5260336,-4.13546,1.09872,0.41202,-0.919126065,0.33679113,0.11901825
1764767371.5260336,-4.13546,1.09872,0.41202,-0.919126065,0.33679113,0.11901825
1764767371.5260336,-4.13546,1.09872,0.41202,-0.919126065,0.33679113,0.11901825
1764767371.5260336,-4.13546,1.09872,0.41202,-0.919126065,0.33679113,0.11901825
1764767371.5260336,-4.13546,1.09872,0.41202,-0.919126065,0.33679113,0.11901825
1764767371.5260336,-4.13546,1.09872,0.41202,-0.919126065,0.33679113,0.11901825
1764767371.5260336,-4.13546,1.09872,0.41202,-0.919126065,0.33679113,0.11901825
1764767371.5729089,-4.13546,1.09872,0.41202,-0.919126065,0.33679113,0.11901825
1764767371.5729089,-4.13546,1.09872,0.41202,-0.919126065,0.33679113,0.11901825
1764767371.5729089,-4.07442,0.9919,0.6103999999999999,-0.919248135,0.33703527,0.11938446
1764767371.5729089,-4.07442,0.9919,0.6103999999999999,-0.919248135,0.33703527,0.11938446
1764767371.5729089,-4.07442,0.9919,0.6103999999999999,-0.919248135,0.33703527,0.11938446
1764767371.5729089,-4.07442,0.9919,0.6103999999999999,-0.919248135,0.33703527,0.11938446
1764767371.5729089,-4.07442,0.9919,0.6103999999999999,-0.919248135,0.33703527,0.11938446
1764767371.5729089,-4.07442,0.9919,0.6103999999999999,-0.919248135,0.33703527,0.11938446
1764767371.5729089,-4.07442,0.9919,0.6103999999999999,-0.919248135,0.33703527,0.11938446
1764767371.5729089,-4.07442,0.9919,0.6103999999999999,-0.919248135,0.33703527,0.11938446
1764767371.5729089,-4.07442,0.9919,0.6103999999999999,-0.919248135,0.33703527,0.11938446
1764767371.5729089,-4.07442,0.9919,0.6103999999999999,-0.919248135,0.33703527,0.11938446
1764767371.5729089,-4.45592,1.03768,0.3509799999999999,-0.920224695,0.337096305,0.119323425
1764767371.5729089,-4.45592,1.03768,0.3509799999999999,-0.920224695,0.337096305,0.119323425
1764767371.5729089,-4.45592,1.03768,0.3509799999999999,-0.920224695,0.337096305,0.119323425
1764767371.5729089,-4.45592,1.03768,0.3509799999999999,-0.920224695,0.337096305,0.119323425
1764767371.5729089,-4.45592,1.03768,0.3509799999999999,-0.920224695,0.337096305,0.119323425
1764767371.5729089,-4.45592,1.03768,0.3509799999999999,-0.920224695,0.337096305,0.119323425
1764767371.5729089,-4.45592,1.03768,0.3509799999999999,-0.920224695,0.337096305,0.119323425
1764767371.5729089,-4.45592,1.03768,0.3509799999999999,-0.920224695,0.337096305,0.119323425
1764767371.5739236,-4.45592,1.03768,0.3509799999999999,-0.920224695,0.337096305,0.119323425
1764767371.5739236,-4.45592,1.03768,0.3509799999999999,-0.920224695,0.337096305,0.119323425
1764767371.5739236,-4.37962,0.7019599999999999,0.41202,-0.920102625,0.336485955,0.1196286
1764767371.5739236,-4.37962,0.7019599999999999,0.41202,-0.920102625,0.336485955,0.1196286
1764767371.6198113,-4.37962,0.7019599999999999,0.41202,-0.920102625,0.336485955,0.1196286
1764767371.6198113,-4.37962,0.7019599999999999,0.41202,-0.920102625,0.336485955,0.1196286
1764767371.6198113,-4.37962,0.7019599999999999,0.41202,-0.920102625,0.336485955,0.1196286
1764767371.6198113,-4.37962,0.7019599999999999,0.41202,-0.920102625,0.336485955,0.1196286
1764767371.6198113,-4.37962,0.7019599999999999,0.41202,-0.920102625,0.336485955,0.1196286
1764767371.6203456,-4.37962,0.7019599999999999,0.41202,-0.920102625,0.336485955,0.1196286
1764767371.6203456,-4.37962,0.7019599999999999,0.41202,-0.920102625,0.336485955,0.1196286
1764767371.6203456,-4.37962,0.7019599999999999,0.41202,-0.920102625,0.336485955,0.1196286
1764767371.6203456,-4.56274,1.46496,0.3204599999999999,-0.919736415,0.336363885,0.11865204
1764767371.6203456,-4.56274,1.46496,0.3204599999999999,-0.919736415,0.336363885,0.11865204
1764767371.6203456,-4.56274,1.46496,0.3204599999999999,-0.919736415,0.336363885,0.11865204
1764767371.6203456,-4.56274,1.46496,0.3204599999999999,-0.919736415,0.336363885,0.11865204
1764767371.6203456,-4.56274,1.46496,0.3204599999999999,-0.919736415,0.336363885,0.11865204
1764767371.6203456,-4.56274,1.46496,0.3204599999999999,-0.919736415,0.336363885,0.11865204
1764767371.6203456,-4.56274,1.46496,0.3204599999999999,-0.919736415,0.336363885,0.11865204
1764767371.6203456,-4.56274,1.46496,0.3204599999999999,-0.919736415,0.336363885,0.11865204
1764767371.6203456,-4.56274,1.46496,0.3204599999999999,-0.919736415,0.336363885,0.11865204
1764767371.6203456,-4.56274,1.46496,0.3204599999999999,-0.919736415,0.336363885,0.11865204
1764767371.6203456,-4.45592,0.763,0.5341,-0.920835045,0.336608025,0.118468935
1764767371.6203456,-4.45592,0.763,0.5341,-0.920835045,0.336608025,0.118468935
1764767371.6203456,-4.45592,0.763,0.5341,-0.920835045,0.336608025,0.118468935
1764767371.6203456,-4.45592,0.763,0.5341,-0.920835045,0.336608025,0.118468935
1764767371.666417,-4.45592,0.763,0.5341,-0.920835045,0.336608025,0.118468935
1764767371.666417,-4.45592,0.763,0.5341,-0.920835045,0.336608025,0.118468935
1764767371.666417,-4.45592,0.763,0.5341,-0.920835045,0.336608025,0.118468935
1764767371.666417,-4.45592,0.763,0.5341,-0.920835045,0.336608025,0.118468935
1764767371.666417,-4.45592,0.763,0.5341,-0.920835045,0.336608025,0.118468935
1764767371.666417,-4.45592,0.763,0.5341,-0.920835045,0.336608025,0.118468935
1764767371.666417,-4.16598,1.2055399999999998,0.47306,-0.92089608,0.336363885,0.11865204
1764767371.666417,-4.16598,1.2055399999999998,0.47306,-0.92089608,0.336363885,0.11865204
1764767371.666417,-4.16598,1.2055399999999998,0.47306,-0.92089608,0.336363885,0.11865204
1764767371.666417,-4.16598,1.2055399999999998,0.47306,-0.92089608,0.336363885,0.11865204
1764767371.666417,-4.16598,1.2055399999999998,0.47306,-0.92089608,0.336363885,0.11865204
1764767371.666417,-4.16598,1.2055399999999998,0.47306,-0.92089608,0.336363885,0.11865204
1764767371.666417,-4.16598,1.2055399999999998,0.47306,-0.92089608,0.336363885,0.11865204
1764767371.666417,-4.16598,1.2055399999999998,0.47306,-0.92089608,0.336363885,0.11865204
1764767371.666417,-4.16598,1.2055399999999998,0.47306,-0.92089608,0.336363885,0.11865204
1764767371.666417,-4.16598,1.2055399999999998,0.47306,-0.92089608,0.336363885,0.11865204
1764767371.666417,-3.92182,1.31236,0.13734,-0.92052987,0.3356925,0.119201355
1764767371.666417,-3.92182,1.31236,0.13734,-0.92052987,0.3356925,0.119201355
1764767371.666417,-3.92182,1.31236,0.13734,-0.92052987,0.3356925,0.119201355
1764767371.666417,-3.92182,1.31236,0.13734,-0.92052987,0.3356925,0.119201355
1764767371.666417,-3.92182,1.31236,0.13734,-0.92052987,0.3356925,0.119201355
1764767371.666417,-3.92182,1.31236,0.13734,-0.92052987,0.3356925,0.119201355
1764767371.666417,-3.92182,1.31236,0.13734,-0.92052987,0.3356925,0.119201355
1764767371.666417,-3.92182,1.31236,0.13734,-0.92052987,0.3356925,0.119201355
1764767371.7135005,-3.92182,1.31236,0.13734,-0.92052987,0.3356925,0.119201355
1764767371.7135005,-3.92182,1.31236,0.13734,-0.92052987,0.3356925,0.119201355
1764767371.7135005,-3.92182,1.09872,0.0,-0.920346765,0.33508215,0.120788265
1764767371.7135005,-3.92182,1.09872,0.0,-0.920346765,0.33508215,0.120788265
1764767371.7135005,-3.92182,1.09872,0.0,-0.920346765,0.33508215,0.120788265
1764767371.7135005,-3.92182,1.09872,0.0,-0.920346765,0.33508215,0.120788265
1764767371.7135005,-3.92182,1.09872,0.0,-0.920346765,0.33508215,0.120788265
1764767371.7135005,-3.92182,1.09872,0.0,-0.920346765,0.33508215,0.120788265
1764767371.7135005,-3.92182,1.09872,0.0,-0.920346765,0.33508215,0.120788265
1764767371.7135005,-3.92182,1.09872,0.0,-0.920346765,0.33508215,0.120788265
1764767371.7135005,-3.92182,1.09872,0.0,-0.920346765,0.33508215,0.120788265
1764767371.7135005,-3.92182,1.09872,0.0,-0.920346765,0.33508215,0.120788265
1764767371.7135005,-3.8913,1.03768,0.0762999999999999,-0.919370205,0.335387325,0.120788265
1764767371.7135005,-3.8913,1.03768,0.0762999999999999,-0.919370205,0.335387325,0.120788265
1764767371.7135005,-3.8913,1.03768,0.0762999999999999,-0.919370205,0.335387325,0.120788265
1764767371.7135005,-3.8913,1.03768,0.0762999999999999,-0.919370205,0.335387325,0.120788265
1764767371.7135005,-3.8913,1.03768,0.0762999999999999,-0.919370205,0.335387325,0.120788265
1764767371.7135005,-3.8913,1.03768,0.0762999999999999,-0.919370205,0.335387325,0.120788265
1764767371.7135005,-3.8913,1.03768,0.0762999999999999,-0.919370205,0.335387325,0.120788265
1764767371.7135005,-3.8913,1.03768,0.0762999999999999,-0.919370205,0.335387325,0.120788265
1764767371.7135005,-3.8913,1.03768,0.0762999999999999,-0.919370205,0.335387325,0.120788265
1764767371.7135005,-3.8913,1.03768,0.0762999999999999,-0.919370205,0.335387325,0.120788265
1764767371.7135005,-3.83026,1.43444,0.25942,-0.917539155,0.33532629,0.12023895
1764767371.7135005,-3.83026,1.43444,0.25942,-0.917539155,0.33532629,0.12023895
1764767371.7605343,-3.83026,1.43444,0.25942,-0.917539155,0.33532629,0.12023895
1764767371.7605343,-3.83026,1.43444,0.25942,-0.917539155,0.33532629,0.12023895
1764767371.7605343,-3.83026,1.43444,0.25942,-0.917539155,0.33532629,0.12023895
1764767371.7605343,-3.83026,1.43444,0.25942,-0.917539155,0.33532629,0.12023895
1764767371.7605343,-3.83026,1.43444,0.25942,-0.917539155,0.33532629,0.12023895
1764767371.7605343,-3.83026,1.43444,0.25942,-0.917539155,0.33532629,0.12023895
1764767371.7605343,-3.83026,1.43444,0.25942,-0.917539155,0.33532629,0.12023895
1764767371.7605343,-3.83026,1.43444,0.25942,-0.917539155,0.33532629,0.12023895
1764767371.7605343,-4.10494,1.34288,0.7019599999999999,-0.9179664,0.337096305,0.118346865
1764767371.7605343,-4.10494,1.34288,0.7019599999999999,-0.9179664,0.337096305,0.118346865
1764767371.7605343,-4.10494,1.34288,0.7019599999999999,-0.9179664,0.337096305,0.118346865
1764767371.7605343,-4.10494,1.34288,0.7019599999999999,-0.9179664,0.337096305,0.118346865
1764767371.7605343,-4.10494,1.34288,0.7019599999999999,-0.9179664,0.337096305,0.118346865
1764767371.7605343,-4.10494,1.34288,0.7019599999999999,-0.9179664,0.337096305,0.118346865
1764767371.7605343,-4.10494,1.34288,0.7019599999999999,-0.9179664,0.337096305,0.118346865
1764767371.7605343,-4.10494,1.34288,0.7019599999999999,-0.9179664,0.337096305,0.118346865
1764767371.7605343,-4.10494,1.34288,0.7019599999999999,-0.9179664,0.337096305,0.118346865
1764767371.7605343,-4.10494,1.34288,0.7019599999999999,-0.9179664,0.337096305,0.118346865
1764767371.7605343,-5.646199999999999,1.26658,-0.01526,-0.919980555,0.338561145,0.116759955
1764767371.7605343,-5.646199999999999,1.26658,-0.01526,-0.919980555,0.338561145,0.116759955
1764767371.7605343,-5.646199999999999,1.26658,-0.01526,-0.919980555,0.338561145,0.116759955
1764767371.7605343,-5.646199999999999,1.26658,-0.01526,-0.919980555,0.338561145,0.116759955
1764767371.8076923,-5.646199999999999,1.26658,-0.01526,-0.919980555,0.338561145,0.116759955
1764767371.8076923,-5.646199999999999,1.26658,-0.01526,-0.919980555,0.338561145,0.116759955
1764767371.8076923,-5.646199999999999,1.26658,-0.01526,-0.919980555,0.338561145,0.116759955
1764767371.8076923,-5.646199999999999,1.26658,-0.01526,-0.919980555,0.338561145,0.116759955
1764767371.8076923,-5.646199999999999,1.26658,-0.01526,-0.919980555,0.338561145,0.116759955
1764767371.8076923,-5.646199999999999,1.26658,-0.01526,-0.919980555,0.338561145,0.116759955
1764767371.8076923,-5.93614,1.77016,-0.41202,-0.920224695,0.33727941,0.116515815
1764767371.8076923,-5.93614,1.77016,-0.41202,-0.920224695,0.33727941,0.116515815
1764767371.8076923,-5.93614,1.77016,-0.41202,-0.920224695,0.33727941,0.116515815
1764767371.8076923,-5.93614,1.77016,-0.41202,-0.920224695,0.33727941,0.116515815
1764767371.8076923,-5.93614,1.77016,-0.41202,-0.920224695,0.33727941,0.116515815
1764767371.8076923,-5.93614,1.77016,-0.41202,-0.920224695,0.33727941,0.116515815
1764767371.8076923,-5.93614,1.77016,-0.41202,-0.920224695,0.33727941,0.116515815
1764767371.8076923,-5.93614,1.77016,-0.41202,-0.920224695,0.33727941,0.116515815
1764767371.8076923,-5.93614,1.77016,-0.41202,-0.920224695,0.33727941,0.116515815
1764767371.8076923,-5.93614,1.77016,-0.41202,-0.920224695,0.33727941,0.116515815
1764767371.8076923,-5.46308,2.1364,-0.44254,-0.91869882,0.335387325,0.117858585
1764767371.8076923,-5.46308,2.1364,-0.44254,-0.91869882,0.335387325,0.117858585
1764767371.8076923,-5.46308,2.1364,-0.44254,-0.91869882,0.335387325,0.117858585
1764767371.8076923,-5.46308,2.1364,-0.44254,-0.91869882,0.335387325,0.117858585
1764767371.808358,-5.46308,2.1364,-0.44254,-0.91869882,0.335387325,0.117858585
1764767371.808358,-5.46308,2.1364,-0.44254,-0.91869882,0.335387325,0.117858585
1764767371.808358,-5.46308,2.1364,-0.44254,-0.91869882,0.335387325,0.117858585
1764767371.808358,-5.46308,2.1364,-0.44254,-0.91869882,0.335387325,0.117858585
1764767371.851959,-5.46308,2.1364,-0.44254,-0.91869882,0.335387325,0.117858585
1764767371.851959,-5.46308,2.1364,-0.44254,-0.91869882,0.335387325,0.117858585
1764767371.851959,-5.08158,1.6633399999999998,0.09156,-0.919492275,0.334166625,0.119201355
1764767371.851959,-5.08158,1.6633399999999998,0.09156,-0.919492275,0.334166625,0.119201355
1764767371.851959,-5.08158,1.6633399999999998,0.09156,-0.919492275,0.334166625,0.119201355
1764767371.851959,-5.08158,1.6633399999999998,0.09156,-0.919492275,0.334166625,0.119201355
1764767371.851959,-5.08158,1.6633399999999998,0.09156,-0.919492275,0.334166625,0.119201355
1764767371.851959,-5.08158,1.6633399999999998,0.09156,-0.919492275,0.334166625,0.119201355
1764767371.851959,-5.08158,1.6633399999999998,0.09156,-0.919492275,0.334166625,0.119201355
1764767371.851959,-5.08158,1.6633399999999998,0.09156,-0.919492275,0.334166625,0.119201355
1764767371.851959,-5.08158,1.6633399999999998,0.09156,-0.919492275,0.334166625,0.119201355
1764767371.851959,-5.08158,1.6633399999999998,0.09156,-0.919492275,0.334166625,0.119201355
1764767371.851959,-4.53222,1.38866,0.2289,-0.92028573,0.333678345,0.119811705
1764767371.851959,-4.53222,1.38866,0.2289,-0.92028573,0.333678345,0.119811705
1764767371.851959,-4.53222,1.38866,0.2289,-0.92028573,0.333678345,0.119811705
1764767371.851959,-4.53222,1.38866,0.2289,-0.92028573,0.333678345,0.119811705
1764767371.851959,-4.53222,1.38866,0.2289,-0.92028573,0.333678345,0.119811705
1764767371.851959,-4.53222,1.38866,0.2289,-0.92028573,0.333678345,0.119811705
1764767371.851959,-4.53222,1.38866,0.2289,-0.92028573,0.333678345,0.119811705
1764767371.851959,-4.53222,1.38866,0.2289,-0.92028573,0.333678345,0.119811705
1764767371.851959,-4.53222,1.38866,0.2289,-0.92028573,0.333678345,0.119811705
1764767371.851959,-4.53222,1.38866,0.2289,-0.92028573,0.333678345,0.119811705
1764767371.851959,-3.79974,0.8087799999999999,0.57988,-0.92028573,0.33215247,0.120055845
1764767371.851959,-3.79974,0.8087799999999999,0.57988,-0.92028573,0.33215247,0.120055845
1764767371.899033,-3.79974,0.8087799999999999,0.57988,-0.92028573,0.33215247,0.120055845
1764767371.899033,-3.79974,0.8087799999999999,0.57988,-0.92028573,0.33215247,0.120055845
1764767371.899033,-3.79974,0.8087799999999999,0.57988,-0.92028573,0.33215247,0.120055845
1764767371.899033,-3.79974,0.8087799999999999,0.57988,-0.92028573,0.33215247,0.120055845
1764767371.899033,-3.79974,0.8087799999999999,0.57988,-0.92028573,0.33215247,0.120055845
1764767371.899033,-3.79974,0.8087799999999999,0.57988,-0.92028573,0.33215247,0.120055845
1764767371.899033,-3.79974,0.8087799999999999,0.57988,-0.92028573,0.33215247,0.120055845
1764767371.899033,-3.79974,0.8087799999999999,0.57988,-0.92028573,0.33215247,0.120055845
1764767371.899033,-3.34194,0.9003399999999999,0.2289,-0.919980555,0.33312903,0.120422055
1764767371.899033,-3.34194,0.9003399999999999,0.2289,-0.919980555,0.33312903,0.120422055
1764767371.899033,-3.34194,0.9003399999999999,0.2289,-0.919980555,0.33312903,0.120422055
1764767371.899033,-3.34194,0.9003399999999999,0.2289,-0.919980555,0.33312903,0.120422055
1764767371.899033,-3.34194,0.9003399999999999,0.2289,-0.919980555,0.33312903,0.120422055
1764767371.899033,-3.34194,0.9003399999999999,0.2289,-0.919980555,0.33312903,0.120422055
1764767371.899033,-3.34194,0.9003399999999999,0.2289,-0.919980555,0.33312903,0.120422055
1764767371.899033,-3.34194,0.9003399999999999,0.2289,-0.919980555,0.33312903,0.120422055
1764767371.899033,-3.34194,0.9003399999999999,0.2289,-0.919980555,0.33312903,0.120422055
1764767371.899033,-3.34194,0.9003399999999999,0.2289,-0.919980555,0.33312903,0.120422055
1764767371.899033,-3.44876,0.9919,0.0,-0.92089608,0.3344718,0.120177915
1764767371.899033,-3.44876,0.9919,0.0,-0.92089608,0.3344718,0.120177915
1764767371.9000502,-3.44876,0.9919,0.0,-0.92089608,0.3344718,0.120177915
1764767371.9000502,-3.44876,0.9919,0.0,-0.92089608,0.3344718,0.120177915
1764767371.945967,-3.44876,0.9919,0.0,-0.92089608,0.3344718,0.120177915
1764767371.945967,-3.44876,0.9919,0.0,-0.92089608,0.3344718,0.120177915
1764767371.945967,-3.44876,0.9919,0.0,-0.92089608,0.3344718,0.120177915
1764767371.945967,-3.44876,0.9919,0.0,-0.92089608,0.3344718,0.120177915
1764767371.945967,-3.44876,0.9919,0.0,-0.92089608,0.3344718,0.120177915
1764767371.945967,-3.44876,0.9919,0.0,-0.92089608,0.3344718,0.120177915
1764767371.945967,-3.98286,0.59514,-0.10682,-0.92028573,0.33642492,0.119689635
1764767371.945967,-3.98286,0.59514,-0.10682,-0.92028573,0.33642492,0.119689635
1764767371.945967,-3.98286,0.59514,-0.10682,-0.92028573,0.33642492,0.119689635
1764767371.945967,-3.98286,0.59514,-0.10682,-0.92028573,0.33642492,0.119689635
1764767371.945967,-3.98286,0.59514,-0.10682,-0.92028573,0.33642492,0.119689635
1764767371.945967,-3.98286,0.59514,-0.10682,-0.92028573,0.33642492,0.119689635
1764767371.945967,-3.98286,0.59514,-0.10682,-0.92028573,0.33642492,0.119689635
1764767371.945967,-3.98286,0.59514,-0.10682,-0.92028573,0.33642492,0.119689635
1764767371.945967,-3.98286,0.59514,-0.10682,-0.92028573,0.33642492,0.119689635
1764767371.945967,-3.98286,0.59514,-0.10682,-0.92028573,0.33642492,0.119689635
1764767371.945967,-4.47118,0.73248,0.1678599999999999,-0.9204078,0.337828725,0.118468935
1764767371.945967,-4.47118,0.73248,0.1678599999999999,-0.9204078,0.337828725,0.118468935
1764767371.945967,-4.47118,0.73248,0.1678599999999999,-0.9204078,0.337828725,0.118468935
1764767371.945967,-4.47118,0.73248,0.1678599999999999,-0.9204078,0.337828725,0.118468935
1764767371.945967,-4.47118,0.73248,0.1678599999999999,-0.9204078,0.337828725,0.118468935
1764767371.945967,-4.47118,0.73248,0.1678599999999999,-0.9204078,0.337828725,0.118468935
1764767371.993258,-4.47118,0.73248,0.1678599999999999,-0.9204078,0.337828725,0.118468935
1764767371.993258,-4.47118,0.73248,0.1678599999999999,-0.9204078,0.337828725,0.118468935
1764767371.993258,-4.47118,0.73248,0.1678599999999999,-0.9204078,0.337828725,0.118468935
1764767371.993258,-4.47118,0.73248,0.1678599999999999,-0.9204078,0.337828725,0.118468935
1764767371.993258,-4.959499999999999,1.00716,0.13734,-0.920712975,0.33850011,0.11816376
1764767371.993258,-4.959499999999999,1.00716,0.13734,-0.920712975,0.33850011,0.11816376
1764767371.993258,-4.959499999999999,1.00716,0.13734,-0.920712975,0.33850011,0.11816376
1764767371.993258,-4.959499999999999,1.00716,0.13734,-0.920712975,0.33850011,0.11816376
1764767371.993258,-4.959499999999999,1.00716,0.13734,-0.920712975,0.33850011,0.11816376
1764767371.993258,-4.959499999999999,1.00716,0.13734,-0.920712975,0.33850011,0.11816376
1764767371.993258,-4.959499999999999,1.00716,0.13734,-0.920712975,0.33850011,0.11816376
1764767371.993258,-4.959499999999999,1.00716,0.13734,-0.920712975,0.33850011,0.11816376
1764767371.993258,-4.959499999999999,1.00716,0.13734,-0.920712975,0.33850011,0.11816376
1764767371.993258,-4.959499999999999,1.00716,0.13734,-0.920712975,0.33850011,0.11816376
1764767371.993258,-4.8069,0.85456,0.19838,-0.920346765,0.33801183,0.118102725
1764767371.993258,-4.8069,0.85456,0.19838,-0.920346765,0.33801183,0.118102725
1764767371.993258,-4.8069,0.85456,0.19838,-0.920346765,0.33801183,0.118102725
1764767371.993258,-4.8069,0.85456,0.19838,-0.920346765,0.33801183,0.118102725
1764767371.993258,-4.8069,0.85456,0.19838,-0.920346765,0.33801183,0.118102725
1764767371.993258,-4.8069,0.85456,0.19838,-0.920346765,0.33801183,0.118102725
1764767371.993258,-4.8069,0.85456,0.19838,-0.920346765,0.33801183,0.118102725
1764767371.993258,-4.8069,0.85456,0.19838,-0.920346765,0.33801183,0.118102725
1764767371.993258,-4.8069,0.85456,0.19838,-0.920346765,0.33801183,0.118102725
1764767371.993258,-4.8069,0.85456,0.19838,-0.920346765,0.33801183,0.118102725
1764767371.993258,-5.21892,1.31236,-0.04578,-0.919736415,0.335143185,0.119079285
1764767371.993258,-5.21892,1.31236,-0.04578,-0.919736415,0.335143185,0.119079285
1764767372.0358737,-5.21892,1.31236,-0.04578,-0.919736415,0.335143185,0.119079285
1764767372.0358737,-5.21892,1.31236,-0.04578,-0.919736415,0.335143185,0.119079285
1764767372.0358737,-5.21892,1.31236,-0.04578,-0.919736415,0.335143185,0.119079285
1764767372.0358737,-5.21892,1.31236,-0.04578,-0.919736415,0.335143185,0.119079285
1764767372.0363955,-5.21892,1.31236,-0.04578,-0.919736415,0.335143185,0.119079285
1764767372.0363955,-5.21892,1.31236,-0.04578,-0.919736415,0.335143185,0.119079285
1764767372.0363955,-5.21892,1.31236,-0.04578,-0.919736415,0.335143185,0.119079285
1764767372.0363955,-5.21892,1.31236,-0.04578,-0.919736415,0.335143185,0.119079285
1764767372.0363955,-3.52506,0.7019599999999999,0.06104,-0.918393645,0.333434205,0.11987274
1764767372.0363955,-3.52506,0.7019599999999999,0.06104,-0.918393645,0.333434205,0.11987274
1764767372.0363955,-3.52506,0.7019599999999999,0.06104,-0.918393645,0.333434205,0.11987274
1764767372.0363955,-3.52506,0.7019599999999999,0.06104,-0.918393645,0.333434205,0.11987274
1764767372.0363955,-3.52506,0.7019599999999999,0.06104,-0.918393645,0.333434205,0.11987274
1764767372.0363955,-3.52506,0.7019599999999999,0.06104,-0.918393645,0.333434205,0.11987274
1764767372.0363955,-3.52506,0.7019599999999999,0.06104,-0.918393645,0.333434205,0.11987274
1764767372.0363955,-3.52506,0.7019599999999999,0.06104,-0.918393645,0.333434205,0.11987274
1764767372.0363955,-3.52506,0.7019599999999999,0.06104,-0.918393645,0.333434205,0.11987274
1764767372.0363955,-3.52506,0.7019599999999999,0.06104,-0.918393645,0.333434205,0.11987274
1764767372.0363955,-3.25038,0.28994,0.54936,-0.91894296,0.334288695,0.119201355
1764767372.0363955,-3.25038,0.28994,0.54936,-0.91894296,0.334288695,0.119201355
1764767372.0363955,-3.25038,0.28994,0.54936,-0.91894296,0.334288695,0.119201355
1764767372.0363955,-3.25038,0.28994,0.54936,-0.91894296,0.334288695,0.119201355
1764767372.0836742,-3.25038,0.28994,0.54936,-0.91894296,0.334288695,0.119201355
1764767372.0836742,-3.25038,0.28994,0.54936,-0.91894296,0.334288695,0.119201355
1764767372.0836742,-3.25038,0.28994,0.54936,-0.91894296,0.334288695,0.119201355
1764767372.0836742,-3.25038,0.28994,0.54936,-0.91894296,0.334288695,0.119201355
1764767372.0836742,-3.25038,0.28994,0.54936,-0.91894296,0.334288695,0.119201355
1764767372.0836742,-3.25038,0.28994,0.54936,-0.91894296,0.334288695,0.119201355
1764767372.0836742,-3.69292,0.47306,0.06104,-0.92016366,0.33630285,0.118835145
1764767372.0836742,-3.69292,0.47306,0.06104,-0.92016366,0.33630285,0.118835145
1764767372.0836742,-3.69292,0.47306,0.06104,-0.92016366,0.33630285,0.118835145
1764767372.0836742,-3.69292,0.47306,0.06104,-0.92016366,0.33630285,0.118835145
1764767372.0836742,-3.69292,0.47306,0.06104,-0.92016366,0.33630285,0.118835145
1764767372.0836742,-3.69292,0.47306,0.06104,-0.92016366,0.33630285,0.118835145
1764767372.0836742,-3.69292,0.47306,0.06104,-0.92016366,0.33630285,0.118835145
1764767372.0836742,-3.69292,0.47306,0.06104,-0.92016366,0.33630285,0.118835145
1764767372.0836742,-3.69292,0.47306,0.06104,-0.92016366,0.33630285,0.118835145
1764767372.0836742,-3.69292,0.47306,0.06104,-0.92016366,0.33630285,0.118835145
1764767372.0836742,-4.2728,0.62566,0.28994,-0.92052987,0.33752355,0.118591005
1764767372.0836742,-4.2728,0.62566,0.28994,-0.92052987,0.33752355,0.118591005
1764767372.0836742,-4.2728,0.62566,0.28994,-0.92052987,0.33752355,0.118591005
1764767372.0836742,-4.2728,0.62566,0.28994,-0.92052987,0.33752355,0.118591005
1764767372.0836742,-4.2728,0.62566,0.28994,-0.92052987,0.33752355,0.118591005
1764767372.0836742,-4.2728,0.62566,0.28994,-0.92052987,0.33752355,0.118591005
1764767372.1300907,-4.2728,0.62566,0.28994,-0.92052987,0.33752355,0.118591005
1764767372.1300907,-4.2728,0.62566,0.28994,-0.92052987,0.33752355,0.118591005
1764767372.1300907,-4.2728,0.62566,0.28994,-0.92052987,0.33752355,0.118591005
1764767372.1300907,-4.2728,0.62566,0.28994,-0.92052987,0.33752355,0.118591005
1764767372.1305945,-5.1121,1.1445,-0.12208,-0.92077401,0.33776769,0.11779755
1764767372.1305945,-5.1121,1.1445,-0.12208,-0.92077401,0.33776769,0.11779755
1764767372.1305945,-5.1121,1.1445,-0.12208,-0.92077401,0.33776769,0.11779755
1764767372.1305945,-5.1121,1.1445,-0.12208,-0.92077401,0.33776769,0.11779755
1764767372.1305945,-5.1121,1.1445,-0.12208,-0.92077401,0.33776769,0.11779755
1764767372.1305945,-5.1121,1.1445,-0.12208,-0.92077401,0.33776769,0.11779755
1764767372.1305945,-5.1121,1.1445,-0.12208,-0.92077401,0.33776769,0.11779755
1764767372.1305945,-5.1121,1.1445,-0.12208,-0.92077401,0.33776769,0.11779755
1764767372.1305945,-5.1121,1.1445,-0.12208,-0.92077401,0.33776769,0.11779755
1764767372.1305945,-5.1121,1.1445,-0.12208,-0.92077401,0.33776769,0.11779755
1764767372.1305945,-5.32574,1.09872,-0.1525999999999999,-0.92052987,0.337462515,0.11804169
1764767372.1305945,-5.32574,1.09872,-0.1525999999999999,-0.92052987,0.337462515,0.11804169
1764767372.1305945,-5.32574,1.09872,-0.1525999999999999,-0.92052987,0.337462515,0.11804169
1764767372.1305945,-5.32574,1.09872,-0.1525999999999999,-0.92052987,0.337462515,0.11804169
1764767372.1305945,-5.32574,1.09872,-0.1525999999999999,-0.92052987,0.337462515,0.11804169
1764767372.1305945,-5.32574,1.09872,-0.1525999999999999,-0.92052987,0.337462515,0.11804169
1764767372.1305945,-5.32574,1.09872,-0.1525999999999999,-0.92052987,0.337462515,0.11804169
1764767372.1305945,-5.32574,1.09872,-0.1525999999999999,-0.92052987,0.337462515,0.11804169
1764767372.1305945,-5.32574,1.09872,-0.1525999999999999,-0.92052987,0.337462515,0.11804169
1764767372.1305945,-5.32574,1.09872,-0.1525999999999999,-0.92052987,0.337462515,0.11804169
1764767372.177667,-4.7306,0.8392999999999999,-0.12208,-0.919858485,0.335631465,0.11852997
1764767372.177667,-4.7306,0.8392999999999999,-0.12208,-0.919858485,0.335631465,0.11852997
1764767372.177667,-4.7306,0.8392999999999999,-0.12208,-0.919858485,0.335631465,0.11852997
1764767372.177667,-4.7306,0.8392999999999999,-0.12208,-0.919858485,0.335631465,0.11852997
1764767372.177667,-4.7306,0.8392999999999999,-0.12208,-0.919858485,0.335631465,0.11852997
1764767372.177667,-4.7306,0.8392999999999999,-0.12208,-0.919858485,0.335631465,0.11852997
1764767372.177667,-4.7306,0.8392999999999999,-0.12208,-0.919858485,0.335631465,0.11852997
1764767372.177667,-4.7306,0.8392999999999999,-0.12208,-0.919858485,0.335631465,0.11852997
1764767372.177667,-4.7306,0.8392999999999999,-0.12208,-0.919858485,0.335631465,0.11852997
1764767372.177667,-4.7306,0.8392999999999999,-0.12208,-0.919858485,0.335631465,0.11852997
1764767372.177667,-4.2728,0.8087799999999999,0.1678599999999999,-0.920224695,0.33373938,0.11914032
1764767372.177667,-4.2728,0.8087799999999999,0.1678599999999999,-0.920224695,0.33373938,0.11914032
1764767372.177667,-4.2728,0.8087799999999999,0.1678599999999999,-0.920224695,0.33373938,0.11914032
1764767372.177667,-4.2728,0.8087799999999999,0.1678599999999999,-0.920224695,0.33373938,0.11914032
1764767372.177667,-4.2728,0.8087799999999999,0.1678599999999999,-0.920224695,0.33373938,0.11914032
1764767372.177667,-4.2728,0.8087799999999999,0.1678599999999999,-0.920224695,0.33373938,0.11914032
1764767372.177667,-4.2728,0.8087799999999999,0.1678599999999999,-0.920224695,0.33373938,0.11914032
1764767372.177667,-4.2728,0.8087799999999999,0.1678599999999999,-0.920224695,0.33373938,0.11914032
1764767372.1786797,-4.2728,0.8087799999999999,0.1678599999999999,-0.920224695,0.33373938,0.11914032
1764767372.1786797,-4.2728,0.8087799999999999,0.1678599999999999,-0.920224695,0.33373938,0.11914032
1764767372.1786797,-3.08252,0.93086,0.8087799999999999,-0.92077401,0.33288489,0.119079285
1764767372.1786797,-3.08252,0.93086,0.8087799999999999,-0.92077401,0.33288489,0.119079285
1764767372.1786797,-3.08252,0.93086,0.8087799999999999,-0.92077401,0.33288489,0.119079285
1764767372.1786797,-3.08252,0.93086,0.8087799999999999,-0.92077401,0.33288489,0.119079285
1764767372.2246306,-3.08252,0.93086,0.8087799999999999,-0.92077401,0.33288489,0.119079285
1764767372.2246306,-3.08252,0.93086,0.8087799999999999,-0.92077401,0.33288489,0.119079285
1764767372.2246306,-3.08252,0.93086,0.8087799999999999,-0.92077401,0.33288489,0.119079285
1764767372.2246306,-3.08252,0.93086,0.8087799999999999,-0.92077401,0.33288489,0.119079285
1764767372.2246306,-3.08252,0.93086,0.8087799999999999,-0.92077401,0.33288489,0.119079285
1764767372.2246306,-3.08252,0.93086,0.8087799999999999,-0.92077401,0.33288489,0.119079285
1764767372.2246306,-2.1364,0.3815,0.85456,-0.921201255,0.333312135,0.118713075
1764767372.2246306,-2.1364,0.3815,0.85456,-0.921201255,0.333312135,0.118713075
1764767372.2246306,-2.1364,0.3815,0.85456,-0.921201255,0.333312135,0.118713075
1764767372.2246306,-2.1364,0.3815,0.85456,-0.921201255,0.333312135,0.118713075
1764767372.2246306,-2.1364,0.3815,0.85456,-0.921201255,0.333312135,0.118713075
1764767372.2246306,-2.1364,0.3815,0.85456,-0.921201255,0.333312135,0.118713075
1764767372.2251494,-2.1364,0.3815,0.85456,-0.921201255,0.333312135,0.118713075
1764767372.2251494,-2.1364,0.3815,0.85456,-0.921201255,0.333312135,0.118713075
1764767372.2251494,-2.1364,0.3815,0.85456,-0.921201255,0.333312135,0.118713075
1764767372.2251494,-2.1364,0.3815,0.85456,-0.921201255,0.333312135,0.118713075
1764767372.2251494,-1.55652,0.54936,0.8698199999999999,-0.92199471,0.333312135,0.11889618
1764767372.2251494,-1.55652,0.54936,0.8698199999999999,-0.92199471,0.333312135,0.11889618
1764767372.2251494,-1.55652,0.54936,0.8698199999999999,-0.92199471,0.333312135,0.11889618
1764767372.2251494,-1.55652,0.54936,0.8698199999999999,-0.92199471,0.333312135,0.11889618
1764767372.2251494,-1.55652,0.54936,0.8698199999999999,-0.92199471,0.333312135,0.11889618
1764767372.2251494,-1.55652,0.54936,0.8698199999999999,-0.92199471,0.333312135,0.11889618
1764767372.2251494,-1.55652,0.54936,0.8698199999999999,-0.92199471,0.333312135,0.11889618
1764767372.2251494,-1.55652,0.54936,0.8698199999999999,-0.92199471,0.333312135,0.11889618
1764767372.2713315,-1.55652,0.54936,0.8698199999999999,-0.92199471,0.333312135,0.11889618
1764767372.2713315,-1.55652,0.54936,0.8698199999999999,-0.92199471,0.333312135,0.11889618
1764767372.2713315,-1.8006799999999998,0.7019599999999999,1.26658,-0.921445395,0.33520422,0.119201355
1764767372.2713315,-1.8006799999999998,0.7019599999999999,1.26658,-0.921445395,0.33520422,0.119201355
1764767372.2718651,-1.8006799999999998,0.7019599999999999,1.26658,-0.921445395,0.33520422,0.119201355
1764767372.2718651,-1.8006799999999998,0.7019599999999999,1.26658,-0.921445395,0.33520422,0.119201355
1764767372.2718651,-1.8006799999999998,0.7019599999999999,1.26658,-0.921445395,0.33520422,0.119201355
1764767372.2718651,-1.8006799999999998,0.7019599999999999,1.26658,-0.921445395,0.33520422,0.119201355
1764767372.2718651,-1.8006799999999998,0.7019599999999999,1.26658,-0.921445395,0.33520422,0.119201355
1764767372.2718651,-1.8006799999999998,0.7019599999999999,1.26658,-0.921445395,0.33520422,0.119201355
1764767372.2718651,-1.8006799999999998,0.7019599999999999,1.26658,-0.921445395,0.33520422,0.119201355
1764767372.2718651,-1.8006799999999998,0.7019599999999999,1.26658,-0.921445395,0.33520422,0.119201355
1764767372.2718651,-2.0601,0.41202,1.63282,-0.921689535,0.338317005,0.12036102
1764767372.2718651,-2.0601,0.41202,1.63282,-0.921689535,0.338317005,0.12036102
1764767372.2718651,-2.0601,0.41202,1.63282,-0.921689535,0.338317005,0.12036102
1764767372.2718651,-2.0601,0.41202,1.63282,-0.921689535,0.338317005,0.12036102
1764767372.2718651,-2.0601,0.41202,1.63282,-0.921689535,0.338317005,0.12036102
1764767372.2718651,-2.0601,0.41202,1.63282,-0.921689535,0.338317005,0.12036102
1764767372.2718651,-2.0601,0.41202,1.63282,-0.921689535,0.338317005,0.12036102
1764767372.2718651,-2.0601,0.41202,1.63282,-0.921689535,0.338317005,0.12036102
1764767372.2718651,-2.0601,0.41202,1.63282,-0.921689535,0.338317005,0.12036102
1764767372.2718651,-2.0601,0.41202,1.63282,-0.921689535,0.338317005,0.12036102
1764767372.317835,-2.289,0.48832,1.58704,-0.921323325,0.33850011,0.12036102
1764767372.317835,-2.289,0.48832,1.58704,-0.921323325,0.33850011,0.12036102
1764767372.317835,-2.289,0.48832,1.58704,-0.921323325,0.33850011,0.12036102
1764767372.317835,-2.289,0.48832,1.58704,-0.921323325,0.33850011,0.12036102
1764767372.317835,-2.289,0.48832,1.58704,-0.921323325,0.33850011,0.12036102
1764767372.317835,-2.289,0.48832,1.58704,-0.921323325,0.33850011,0.12036102
1764767372.3183477,-2.289,0.48832,1.58704,-0.921323325,0.33850011,0.12036102
1764767372.3183477,-2.289,0.48832,1.58704,-0.921323325,0.33850011,0.12036102
1764767372.3183477,-2.289,0.48832,1.58704,-0.921323325,0.33850011,0.12036102
1764767372.3183477,-2.289,0.48832,1.58704,-0.921323325,0.33850011,0.12036102
1764767372.3183477,-2.35004,-0.10682,1.8312,-0.9216285,0.33825597,0.120544125
1764767372.3183477,-2.35004,-0.10682,1.8312,-0.9216285,0.33825597,0.120544125
1764767372.3183477,-2.35004,-0.10682,1.8312,-0.9216285,0.33825597,0.120544125
1764767372.3183477,-2.35004,-0.10682,1.8312,-0.9216285,0.33825597,0.120544125
1764767372.3183477,-2.35004,-0.10682,1.8312,-0.9216285,0.33825597,0.120544125
1764767372.3183477,-2.35004,-0.10682,1.8312,-0.9216285,0.33825597,0.120544125
1764767372.3183477,-2.35004,-0.10682,1.8312,-0.9216285,0.33825597,0.120544125
1764767372.3183477,-2.35004,-0.10682,1.8312,-0.9216285,0.33825597,0.120544125
1764767372.3183477,-2.35004,-0.10682,1.8312,-0.9216285,0.33825597,0.120544125
1764767372.3183477,-2.35004,-0.10682,1.8312,-0.9216285,0.33825597,0.120544125
1764767372.3183477,-1.9075,-0.47306,1.55652,-0.92052987,0.337950795,0.11938446
1764767372.3183477,-1.9075,-0.47306,1.55652,-0.92052987,0.337950795,0.11938446
1764767372.3183477,-1.9075,-0.47306,1.55652,-0.92052987,0.337950795,0.11938446
1764767372.3183477,-1.9075,-0.47306,1.55652,-0.92052987,0.337950795,0.11938446
1764767372.364162,-1.9075,-0.47306,1.55652,-0.92052987,0.337950795,0.11938446
1764767372.364162,-1.9075,-0.47306,1.55652,-0.92052987,0.337950795,0.11938446
1764767372.364162,-1.9075,-0.47306,1.55652,-0.92052987,0.337950795,0.11938446
1764767372.364162,-1.9075,-0.47306,1.55652,-0.92052987,0.337950795,0.11938446
1764767372.364162,-1.9075,-0.47306,1.55652,-0.92052987,0.337950795,0.11938446
1764767372.364162,-1.9075,-0.47306,1.55652,-0.92052987,0.337950795,0.11938446
1764767372.364162,-2.62472,-0.50358,2.02958,-0.91967538,0.339293565,0.11889618
1764767372.364162,-2.62472,-0.50358,2.02958,-0.91967538,0.339293565,0.11889618
1764767372.364162,-2.62472,-0.50358,2.02958,-0.91967538,0.339293565,0.11889618
1764767372.364162,-2.62472,-0.50358,2.02958,-0.91967538,0.339293565,0.11889618
1764767372.364162,-2.62472,-0.50358,2.02958,-0.91967538,0.339293565,0.11889618
1764767372.364162,-2.62472,-0.50358,2.02958,-0.91967538,0.339293565,0.11889618
1764767372.364162,-2.62472,-0.50358,2.02958,-0.91967538,0.339293565,0.11889618
1764767372.364162,-2.62472,-0.50358,2.02958,-0.91967538,0.339293565,0.11889618
1764767372.364162,-2.62472,-0.50358,2.02958,-0.91967538,0.339293565,0.11889618
1764767372.364162,-2.62472,-0.50358,2.02958,-0.91967538,0.339293565,0.11889618
1764767372.364162,-3.34194,-0.18312,2.38056,-0.91845468,0.340392195,0.118957215
1764767372.3651688,-3.34194,-0.18312,2.38056,-0.91845468,0.340392195,0.118957215
1764767372.3651688,-3.34194,-0.18312,2.38056,-0.91845468,0.340392195,0.118957215
1764767372.3651688,-3.34194,-0.18312,2.38056,-0.91845468,0.340392195,0.118957215
1764767372.3651688,-3.34194,-0.18312,2.38056,-0.91845468,0.340392195,0.118957215
1764767372.3651688,-3.34194,-0.18312,2.38056,-0.91845468,0.340392195,0.118957215
1764767372.41125,-3.34194,-0.18312,2.38056,-0.91845468,0.340392195,0.118957215
1764767372.41125,-3.34194,-0.18312,2.38056,-0.91845468,0.340392195,0.118957215
1764767372.41125,-3.34194,-0.18312,2.38056,-0.91845468,0.340392195,0.118957215
1764767372.41125,-3.34194,-0.18312,2.38056,-0.91845468,0.340392195,0.118957215
1764767372.41125,-3.9676,-0.24416,2.94518,-0.9179664,0.340025985,0.118835145
1764767372.41125,-3.9676,-0.24416,2.94518,-0.9179664,0.340025985,0.118835145
1764767372.41125,-3.9676,-0.24416,2.94518,-0.9179664,0.340025985,0.118835145
1764767372.41125,-3.9676,-0.24416,2.94518,-0.9179664,0.340025985,0.118835145
1764767372.41125,-3.9676,-0.24416,2.94518,-0.9179664,0.340025985,0.118835145
1764767372.41125,-3.9676,-0.24416,2.94518,-0.9179664,0.340025985,0.118835145
1764767372.41125,-3.9676,-0.24416,2.94518,-0.9179664,0.340025985,0.118835145
1764767372.41125,-3.9676,-0.24416,2.94518,-0.9179664,0.340025985,0.118835145
1764767372.41125,-3.9676,-0.24416,2.94518,-0.9179664,0.340025985,0.118835145
1764767372.41125,-3.9676,-0.24416,2.94518,-0.9179664,0.340025985,0.118835145
1764767372.41125,-4.1202,-0.3509799999999999,2.38056,-0.918027435,0.339415635,0.119079285
1764767372.41125,-4.1202,-0.3509799999999999,2.38056,-0.918027435,0.339415635,0.119079285
1764767372.41125,-4.1202,-0.3509799999999999,2.38056,-0.918027435,0.339415635,0.119079285
1764767372.41125,-4.1202,-0.3509799999999999,2.38056,-0.918027435,0.339415635,0.119079285
1764767372.41125,-4.1202,-0.3509799999999999,2.38056,-0.918027435,0.339415635,0.119079285
1764767372.41125,-4.1202,-0.3509799999999999,2.38056,-0.918027435,0.339415635,0.119079285
1764767372.41125,-4.1202,-0.3509799999999999,2.38056,-0.918027435,0.339415635,0.119079285
1764767372.41125,-4.1202,-0.3509799999999999,2.38056,-0.918027435,0.339415635,0.119079285
1764767372.4576454,-4.1202,-0.3509799999999999,2.38056,-0.918027435,0.339415635,0.119079285
1764767372.4576454,-4.1202,-0.3509799999999999,2.38056,-0.918027435,0.339415635,0.119079285
1764767372.4586627,-4.4254,-0.06104,2.5942,-0.91930917,0.3393546,0.11975067
1764767372.4586627,-4.4254,-0.06104,2.5942,-0.91930917,0.3393546,0.11975067
1764767372.4586627,-4.4254,-0.06104,2.5942,-0.91930917,0.3393546,0.11975067
1764767372.4586627,-4.4254,-0.06104,2.5942,-0.91930917,0.3393546,0.11975067
1764767372.4586627,-4.4254,-0.06104,2.5942,-0.91930917,0.3393546,0.11975067
1764767372.4586627,-4.4254,-0.06104,2.5942,-0.91930917,0.3393546,0.11975067
1764767372.4586627,-4.4254,-0.06104,2.5942,-0.91930917,0.3393546,0.11975067
1764767372.4586627,-4.4254,-0.06104,2.5942,-0.91930917,0.3393546,0.11975067
1764767372.4586627,-4.4254,-0.06104,2.5942,-0.91930917,0.3393546,0.11975067
1764767372.4586627,-4.4254,-0.06104,2.5942,-0.91930917,0.3393546,0.11975067
1764767372.4586627,-4.83742,0.03052,2.62472,-0.919736415,0.339171495,0.119933775
1764767372.4586627,-4.83742,0.03052,2.62472,-0.919736415,0.339171495,0.119933775
1764767372.4586627,-4.83742,0.03052,2.62472,-0.919736415,0.339171495,0.119933775
1764767372.4586627,-4.83742,0.03052,2.62472,-0.919736415,0.339171495,0.119933775
1764767372.4586627,-4.83742,0.03052,2.62472,-0.919736415,0.339171495,0.119933775
1764767372.4586627,-4.83742,0.03052,2.62472,-0.919736415,0.339171495,0.119933775
1764767372.4586627,-4.83742,0.03052,2.62472,-0.919736415,0.339171495,0.119933775
1764767372.4586627,-4.83742,0.03052,2.62472,-0.919736415,0.339171495,0.119933775
1764767372.4586627,-4.83742,0.03052,2.62472,-0.919736415,0.339171495,0.119933775
1764767372.4586627,-4.83742,0.03052,2.62472,-0.919736415,0.339171495,0.119933775
1764767372.4586627,-4.53222,0.06104,1.99906,-0.919858485,0.33911046,0.12048309
1764767372.4586627,-4.53222,0.06104,1.99906,-0.919858485,0.33911046,0.12048309
1764767372.4586627,-4.53222,0.06104,1.99906,-0.919858485,0.33911046,0.12048309
1764767372.4586627,-4.53222,0.06104,1.99906,-0.919858485,0.33911046,0.12048309
1764767372.5057304,-4.53222,0.06104,1.99906,-0.919858485,0.33911046,0.12048309
1764767372.5057304,-4.53222,0.06104,1.99906,-0.919858485,0.33911046,0.12048309
1764767372.5057304,-4.53222,0.06104,1.99906,-0.919858485,0.33911046,0.12048309
1764767372.5057304,-4.53222,0.06104,1.99906,-0.919858485,0.33911046,0.12048309
1764767372.5057304,-4.53222,0.06104,1.99906,-0.919858485,0.33911046,0.12048309
1764767372.5057304,-4.53222,0.06104,1.99906,-0.919858485,0.33911046,0.12048309
1764767372.5057304,-4.852679999999999,0.3051999999999999,1.99906,-0.91882089,0.338805285,0.12060516
1764767372.5057304,-4.852679999999999,0.3051999999999999,1.99906,-0.91882089,0.338805285,0.12060516
1764767372.5057304,-4.852679999999999,0.3051999999999999,1.99906,-0.91882089,0.338805285,0.12060516
1764767372.5057304,-4.852679999999999,0.3051999999999999,1.99906,-0.91882089,0.338805285,0.12060516
1764767372.5057304,-4.852679999999999,0.3051999999999999,1.99906,-0.91882089,0.338805285,0.12060516
1764767372.5057304,-4.852679999999999,0.3051999999999999,1.99906,-0.91882089,0.338805285,0.12060516
1764767372.5057304,-4.852679999999999,0.3051999999999999,1.99906,-0.91882089,0.338805285,0.12060516
1764767372.5057304,-4.852679999999999,0.3051999999999999,1.99906,-0.91882089,0.338805285,0.12060516
1764767372.5057304,-4.852679999999999,0.3051999999999999,1.99906,-0.91882089,0.338805285,0.12060516
1764767372.5057304,-4.852679999999999,0.3051999999999999,1.99906,-0.91882089,0.338805285,0.12060516
1764767372.5057304,-4.39488,0.3357199999999999,1.96854,-0.91833261,0.3381339,0.11975067
1764767372.5057304,-4.39488,0.3357199999999999,1.96854,-0.91833261,0.3381339,0.11975067
1764767372.5057304,-4.39488,0.3357199999999999,1.96854,-0.91833261,0.3381339,0.11975067
1764767372.5057304,-4.39488,0.3357199999999999,1.96854,-0.91833261,0.3381339,0.11975067
1764767372.5057304,-4.39488,0.3357199999999999,1.96854,-0.91833261,0.3381339,0.11975067
1764767372.5057304,-4.39488,0.3357199999999999,1.96854,-0.91833261,0.3381339,0.11975067
1764767372.5057304,-4.39488,0.3357199999999999,1.96854,-0.91833261,0.3381339,0.11975067
1764767372.5057304,-4.39488,0.3357199999999999,1.96854,-0.91833261,0.3381339,0.11975067
1764767372.5498106,-4.39488,0.3357199999999999,1.96854,-0.91833261,0.3381339,0.11975067
1764767372.5498106,-4.39488,0.3357199999999999,1.96854,-0.91833261,0.3381339,0.11975067
1764767372.5498106,-4.059159999999999,0.27468,2.27374,-0.91760019,0.338194935,0.11889618
1764767372.5498106,-4.059159999999999,0.27468,2.27374,-0.91760019,0.338194935,0.11889618
1764767372.5498106,-4.059159999999999,0.27468,2.27374,-0.91760019,0.338194935,0.11889618
1764767372.5498106,-4.059159999999999,0.27468,2.27374,-0.91760019,0.338194935,0.11889618
1764767372.5498106,-4.059159999999999,0.27468,2.27374,-0.91760019,0.338194935,0.11889618
1764767372.5498106,-4.059159999999999,0.27468,2.27374,-0.91760019,0.338194935,0.11889618
1764767372.5498106,-4.059159999999999,0.27468,2.27374,-0.91760019,0.338194935,0.11889618
1764767372.5498106,-4.059159999999999,0.27468,2.27374,-0.91760019,0.338194935,0.11889618
1764767372.5498106,-4.059159999999999,0.27468,2.27374,-0.91760019,0.338194935,0.11889618
1764767372.5498106,-4.059159999999999,0.27468,2.27374,-0.91760019,0.338194935,0.11889618
1764767372.5503223,-3.72344,0.0,1.51074,-0.917539155,0.338927355,0.118346865
1764767372.5503223,-3.72344,0.0,1.51074,-0.917539155,0.338927355,0.118346865
1764767372.5503223,-3.72344,0.0,1.51074,-0.917539155,0.338927355,0.118346865
1764767372.5503223,-3.72344,0.0,1.51074,-0.917539155,0.338927355,0.118346865
1764767372.5503223,-3.72344,0.0,1.51074,-0.917539155,0.338927355,0.118346865
1764767372.5503223,-3.72344,0.0,1.51074,-0.917539155,0.338927355,0.118346865
1764767372.5503223,-3.72344,0.0,1.51074,-0.917539155,0.338927355,0.118346865
1764767372.5503223,-3.72344,0.0,1.51074,-0.917539155,0.338927355,0.118346865
1764767372.5503223,-3.72344,0.0,1.51074,-0.917539155,0.338927355,0.118346865
1764767372.5503223,-3.72344,0.0,1.51074,-0.917539155,0.338927355,0.118346865
1764767372.5961995,-3.63188,0.50358,1.64808,-0.916562595,0.33886632,0.11804169
1764767372.5961995,-3.63188,0.50358,1.64808,-0.916562595,0.33886632,0.11804169
1764767372.5961995,-3.63188,0.50358,1.64808,-0.916562595,0.33886632,0.11804169
1764767372.5961995,-3.63188,0.50358,1.64808,-0.916562595,0.33886632,0.11804169
1764767372.5961995,-3.63188,0.50358,1.64808,-0.916562595,0.33886632,0.11804169
1764767372.5961995,-3.63188,0.50358,1.64808,-0.916562595,0.33886632,0.11804169
1764767372.5961995,-3.63188,0.50358,1.64808,-0.916562595,0.33886632,0.11804169
1764767372.5967083,-3.63188,0.50358,1.64808,-0.916562595,0.33886632,0.11804169
1764767372.5967083,-3.63188,0.50358,1.64808,-0.916562595,0.33886632,0.11804169
1764767372.5967083,-3.63188,0.50358,1.64808,-0.916562595,0.33886632,0.11804169
1764767372.5967083,-3.15882,0.7019599999999999,1.63282,-0.916806735,0.338439075,0.118591005
1764767372.5967083,-3.15882,0.7019599999999999,1.63282,-0.916806735,0.338439075,0.118591005
1764767372.5967083,-3.15882,0.7019599999999999,1.63282,-0.916806735,0.338439075,0.118591005
1764767372.5967083,-3.15882,0.7019599999999999,1.63282,-0.916806735,0.338439075,0.118591005
1764767372.5967083,-3.15882,0.7019599999999999,1.63282,-0.916806735,0.338439075,0.118591005
1764767372.5967083,-3.15882,0.7019599999999999,1.63282,-0.916806735,0.338439075,0.118591005
1764767372.5967083,-3.15882,0.7019599999999999,1.63282,-0.916806735,0.338439075,0.118591005
1764767372.5967083,-3.15882,0.7019599999999999,1.63282,-0.916806735,0.338439075,0.118591005
1764767372.5967083,-3.15882,0.7019599999999999,1.63282,-0.916806735,0.338439075,0.118591005
1764767372.5967083,-3.15882,0.7019599999999999,1.63282,-0.916806735,0.338439075,0.118591005
1764767372.5967083,-2.94518,0.24416,1.34288,-0.917050875,0.33898839,0.11975067
1764767372.5967083,-2.94518,0.24416,1.34288,-0.917050875,0.33898839,0.11975067
1764767372.5967083,-2.94518,0.24416,1.34288,-0.917050875,0.33898839,0.11975067
1764767372.5967083,-2.94518,0.24416,1.34288,-0.917050875,0.33898839,0.11975067
1764767372.6428902,-2.94518,0.24416,1.34288,-0.917050875,0.33898839,0.11975067
1764767372.6428902,-2.94518,0.24416,1.34288,-0.917050875,0.33898839,0.11975067
1764767372.6428902,-2.94518,0.24416,1.34288,-0.917050875,0.33898839,0.11975067
1764767372.6428902,-2.94518,0.24416,1.34288,-0.917050875,0.33898839,0.11975067
1764767372.6428902,-2.94518,0.24416,1.34288,-0.917050875,0.33898839,0.11975067
1764767372.6428902,-2.94518,0.24416,1.34288,-0.917050875,0.33898839,0.11975067
1764767372.6428902,-3.2809,0.42728,1.41918,-0.91711191,0.339293565,0.12060516
1764767372.643396,-3.2809,0.42728,1.41918,-0.91711191,0.339293565,0.12060516
1764767372.643396,-3.2809,0.42728,1.41918,-0.91711191,0.339293565,0.12060516
1764767372.643396,-3.2809,0.42728,1.41918,-0.91711191,0.339293565,0.12060516
1764767372.643396,-3.2809,0.42728,1.41918,-0.91711191,0.339293565,0.12060516
1764767372.643396,-3.2809,0.42728,1.41918,-0.91711191,0.339293565,0.12060516
1764767372.643396,-3.2809,0.42728,1.41918,-0.91711191,0.339293565,0.12060516
1764767372.643396,-3.2809,0.42728,1.41918,-0.91711191,0.339293565,0.12060516
1764767372.643396,-3.2809,0.42728,1.41918,-0.91711191,0.339293565,0.12060516
1764767372.643396,-3.2809,0.42728,1.41918,-0.91711191,0.339293565,0.12060516
1764767372.643396,-3.44876,0.18312,1.26658,-0.917295015,0.3393546,0.120422055
1764767372.643396,-3.44876,0.18312,1.26658,-0.917295015,0.3393546,0.120422055
1764767372.643396,-3.44876,0.18312,1.26658,-0.917295015,0.3393546,0.120422055
1764767372.643396,-3.44876,0.18312,1.26658,-0.917295015,0.3393546,0.120422055
1764767372.643396,-3.44876,0.18312,1.26658,-0.917295015,0.3393546,0.120422055
1764767372.643396,-3.44876,0.18312,1.26658,-0.917295015,0.3393546,0.120422055
1764767372.689462,-3.44876,0.18312,1.26658,-0.917295015,0.3393546,0.120422055
1764767372.689462,-3.44876,0.18312,1.26658,-0.917295015,0.3393546,0.120422055
1764767372.689462,-3.44876,0.18312,1.26658,-0.917295015,0.3393546,0.120422055
1764767372.689462,-3.44876,0.18312,1.26658,-0.917295015,0.3393546,0.120422055
1764767372.689462,-3.46402,0.57988,1.1445,-0.918027435,0.33898839,0.11975067
1764767372.689462,-3.46402,0.57988,1.1445,-0.918027435,0.33898839,0.11975067
1764767372.689462,-3.46402,0.57988,1.1445,-0.918027435,0.33898839,0.11975067
1764767372.689462,-3.46402,0.57988,1.1445,-0.918027435,0.33898839,0.11975067
1764767372.689462,-3.46402,0.57988,1.1445,-0.918027435,0.33898839,0.11975067
1764767372.689462,-3.46402,0.57988,1.1445,-0.918027435,0.33898839,0.11975067
1764767372.689462,-3.46402,0.57988,1.1445,-0.918027435,0.33898839,0.11975067
1764767372.689462,-3.46402,0.57988,1.1445,-0.918027435,0.33898839,0.11975067
1764767372.689462,-3.46402,0.57988,1.1445,-0.918027435,0.33898839,0.11975067
1764767372.689462,-3.46402,0.57988,1.1445,-0.918027435,0.33898839,0.11975067
1764767372.689462,-3.31142,0.3204599999999999,1.63282,-0.9179664,0.33850011,0.119445495
1764767372.689462,-3.31142,0.3204599999999999,1.63282,-0.9179664,0.33850011,0.119445495
1764767372.689462,-3.31142,0.3204599999999999,1.63282,-0.9179664,0.33850011,0.119445495
1764767372.689462,-3.31142,0.3204599999999999,1.63282,-0.9179664,0.33850011,0.119445495
1764767372.689462,-3.31142,0.3204599999999999,1.63282,-0.9179664,0.33850011,0.119445495
1764767372.689462,-3.31142,0.3204599999999999,1.63282,-0.9179664,0.33850011,0.119445495
1764767372.689462,-3.31142,0.3204599999999999,1.63282,-0.9179664,0.33850011,0.119445495
1764767372.689462,-3.31142,0.3204599999999999,1.63282,-0.9179664,0.33850011,0.119445495
1764767372.689462,-3.31142,0.3204599999999999,1.63282,-0.9179664,0.33850011,0.119445495
1764767372.689462,-3.31142,0.3204599999999999,1.63282,-0.9179664,0.33850011,0.119445495
1764767372.7367427,-3.37246,0.59514,1.02242,-0.917050875,0.3393546,0.119811705
1764767372.7367427,-3.37246,0.59514,1.02242,-0.917050875,0.3393546,0.119811705
1764767372.7367427,-3.37246,0.59514,1.02242,-0.917050875,0.3393546,0.119811705
1764767372.7367427,-3.37246,0.59514,1.02242,-0.917050875,0.3393546,0.119811705
1764767372.7367427,-3.37246,0.59514,1.02242,-0.917050875,0.3393546,0.119811705
1764767372.7367427,-3.37246,0.59514,1.02242,-0.917050875,0.3393546,0.119811705
1764767372.7367427,-3.37246,0.59514,1.02242,-0.917050875,0.3393546,0.119811705
1764767372.7367427,-3.37246,0.59514,1.02242,-0.917050875,0.3393546,0.119811705
1764767372.7367427,-3.37246,0.59514,1.02242,-0.917050875,0.3393546,0.119811705
1764767372.7367427,-3.37246,0.59514,1.02242,-0.917050875,0.3393546,0.119811705
1764767372.7367427,-2.65524,0.3204599999999999,1.26658,-0.91723398,0.33984288,0.12133758
1764767372.7367427,-2.65524,0.3204599999999999,1.26658,-0.91723398,0.33984288,0.12133758
1764767372.7367427,-2.65524,0.3204599999999999,1.26658,-0.91723398,0.33984288,0.12133758
1764767372.7367427,-2.65524,0.3204599999999999,1.26658,-0.91723398,0.33984288,0.12133758
1764767372.7367427,-2.65524,0.3204599999999999,1.26658,-0.91723398,0.33984288,0.12133758
1764767372.7367427,-2.65524,0.3204599999999999,1.26658,-0.91723398,0.33984288,0.12133758
1764767372.7367427,-2.65524,0.3204599999999999,1.26658,-0.91723398,0.33984288,0.12133758
1764767372.7367427,-2.65524,0.3204599999999999,1.26658,-0.91723398,0.33984288,0.12133758
1764767372.7367427,-2.65524,0.3204599999999999,1.26658,-0.91723398,0.33984288,0.12133758
1764767372.7367427,-2.65524,0.3204599999999999,1.26658,-0.91723398,0.33984288,0.12133758
1764767372.7367427,-2.94518,0.06104,1.25132,-0.917417085,0.34118565,0.12231414
1764767372.7367427,-2.94518,0.06104,1.25132,-0.917417085,0.34118565,0.12231414
1764767372.782873,-2.94518,0.06104,1.25132,-0.917417085,0.34118565,0.12231414
1764767372.782873,-2.94518,0.06104,1.25132,-0.917417085,0.34118565,0.12231414
1764767372.782873,-2.94518,0.06104,1.25132,-0.917417085,0.34118565,0.12231414
1764767372.782873,-2.94518,0.06104,1.25132,-0.917417085,0.34118565,0.12231414
1764767372.782873,-2.94518,0.06104,1.25132,-0.917417085,0.34118565,0.12231414
1764767372.782873,-2.94518,0.06104,1.25132,-0.917417085,0.34118565,0.12231414
1764767372.782873,-2.94518,0.06104,1.25132,-0.917417085,0.34118565,0.12231414
1764767372.782873,-2.94518,0.06104,1.25132,-0.917417085,0.34118565,0.12231414
1764767372.782873,-2.83836,0.01526,0.97664,-0.915708105,0.34240635,0.12268035
1764767372.782873,-2.83836,0.01526,0.97664,-0.915708105,0.34240635,0.12268035
1764767372.782873,-2.83836,0.01526,0.97664,-0.915708105,0.34240635,0.12268035
1764767372.782873,-2.83836,0.01526,0.97664,-0.915708105,0.34240635,0.12268035
1764767372.782873,-2.83836,0.01526,0.97664,-0.915708105,0.34240635,0.12268035
1764767372.782873,-2.83836,0.01526,0.97664,-0.915708105,0.34240635,0.12268035
1764767372.782873,-2.83836,0.01526,0.97664,-0.915708105,0.34240635,0.12268035
1764767372.782873,-2.83836,0.01526,0.97664,-0.915708105,0.34240635,0.12268035
1764767372.782873,-2.83836,0.01526,0.97664,-0.915708105,0.34240635,0.12268035
1764767372.782873,-2.83836,0.01526,0.97664,-0.915708105,0.34240635,0.12268035
1764767372.782873,-3.98286,-0.13734,0.85456,-0.914609475,0.343321875,0.121642755
1764767372.782873,-3.98286,-0.13734,0.85456,-0.914609475,0.343321875,0.121642755
1764767372.782873,-3.98286,-0.13734,0.85456,-0.914609475,0.343321875,0.121642755
1764767372.782873,-3.98286,-0.13734,0.85456,-0.914609475,0.343321875,0.121642755
1764767372.782873,-3.98286,-0.13734,0.85456,-0.914609475,0.343321875,0.121642755
1764767372.782873,-3.98286,-0.13734,0.85456,-0.914609475,0.343321875,0.121642755
1764767372.8304226,-3.98286,-0.13734,0.85456,-0.914609475,0.343321875,0.121642755
1764767372.8304226,-3.98286,-0.13734,0.85456,-0.914609475,0.343321875,0.121642755
1764767372.8304226,-3.98286,-0.13734,0.85456,-0.914609475,0.343321875,0.121642755
1764767372.8304226,-3.98286,-0.13734,0.85456,-0.914609475,0.343321875,0.121642755
1764767372.8304226,-4.63904,0.12208,1.17502,-0.915830175,0.34521396,0.119201355
1764767372.8304226,-4.63904,0.12208,1.17502,-0.915830175,0.34521396,0.119201355
1764767372.8304226,-4.63904,0.12208,1.17502,-0.915830175,0.34521396,0.119201355
1764767372.8304226,-4.63904,0.12208,1.17502,-0.915830175,0.34521396,0.119201355
1764767372.8304226,-4.63904,0.12208,1.17502,-0.915830175,0.34521396,0.119201355
1764767372.8304226,-4.63904,0.12208,1.17502,-0.915830175,0.34521396,0.119201355
1764767372.8304226,-4.63904,0.12208,1.17502,-0.915830175,0.34521396,0.119201355
1764767372.8304226,-4.63904,0.12208,1.17502,-0.915830175,0.34521396,0.119201355
1764767372.8304226,-4.63904,0.12208,1.17502,-0.915830175,0.34521396,0.119201355
1764767372.8304226,-4.63904,0.12208,1.17502,-0.915830175,0.34521396,0.119201355
1764767372.8304226,-4.97476,0.36624,1.6786,-0.917783295,0.34460361,0.11804169
1764767372.8304226,-4.97476,0.36624,1.6786,-0.917783295,0.34460361,0.11804169
1764767372.8304226,-4.97476,0.36624,1.6786,-0.917783295,0.34460361,0.11804169
1764767372.8304226,-4.97476,0.36624,1.6786,-0.917783295,0.34460361,0.11804169
1764767372.8304226,-4.97476,0.36624,1.6786,-0.917783295,0.34460361,0.11804169
1764767372.8304226,-4.97476,0.36624,1.6786,-0.917783295,0.34460361,0.11804169
1764767372.8304226,-4.97476,0.36624,1.6786,-0.917783295,0.34460361,0.11804169
1764767372.8304226,-4.97476,0.36624,1.6786,-0.917783295,0.34460361,0.11804169
1764767372.8737416,-4.97476,0.36624,1.6786,-0.917783295,0.34460361,0.11804169
1764767372.8737416,-4.97476,0.36624,1.6786,-0.917783295,0.34460361,0.11804169
1764767372.8737416,-4.059159999999999,0.6867,1.19028,-0.91747812,0.34142979,0.1184079
1764767372.8737416,-4.059159999999999,0.6867,1.19028,-0.91747812,0.34142979,0.1184079
1764767372.8737416,-4.059159999999999,0.6867,1.19028,-0.91747812,0.34142979,0.1184079
1764767372.8737416,-4.059159999999999,0.6867,1.19028,-0.91747812,0.34142979,0.1184079
1764767372.8737416,-4.059159999999999,0.6867,1.19028,-0.91747812,0.34142979,0.1184079
1764767372.8737416,-4.059159999999999,0.6867,1.19028,-0.91747812,0.34142979,0.1184079
1764767372.8737416,-4.059159999999999,0.6867,1.19028,-0.91747812,0.34142979,0.1184079
1764767372.8737416,-4.059159999999999,0.6867,1.19028,-0.91747812,0.34142979,0.1184079
1764767372.8737416,-4.059159999999999,0.6867,1.19028,-0.91747812,0.34142979,0.1184079
1764767372.8737416,-4.059159999999999,0.6867,1.19028,-0.91747812,0.34142979,0.1184079
1764767372.8737416,-3.64714,0.71722,1.6786,-0.916074315,0.33923253,0.120910335
1764767372.8737416,-3.64714,0.71722,1.6786,-0.916074315,0.33923253,0.120910335
1764767372.8737416,-3.64714,0.71722,1.6786,-0.916074315,0.33923253,0.120910335
1764767372.8737416,-3.64714,0.71722,1.6786,-0.916074315,0.33923253,0.120910335
1764767372.8737416,-3.64714,0.71722,1.6786,-0.916074315,0.33923253,0.120910335
1764767372.8737416,-3.64714,0.71722,1.6786,-0.916074315,0.33923253,0.120910335
1764767372.8737416,-3.64714,0.71722,1.6786,-0.916074315,0.33923253,0.120910335
1764767372.8737416,-3.64714,0.71722,1.6786,-0.916074315,0.33923253,0.120910335
1764767372.8737416,-3.64714,0.71722,1.6786,-0.916074315,0.33923253,0.120910335
1764767372.8737416,-3.64714,0.71722,1.6786,-0.916074315,0.33923253,0.120910335
1764767372.8737416,-3.25038,0.71722,1.86172,-0.915586035,0.33886632,0.122497245
1764767372.8737416,-3.25038,0.71722,1.86172,-0.915586035,0.33886632,0.122497245
1764767372.920562,-3.25038,0.71722,1.86172,-0.915586035,0.33886632,0.122497245
1764767372.920562,-3.25038,0.71722,1.86172,-0.915586035,0.33886632,0.122497245
1764767372.920562,-3.25038,0.71722,1.86172,-0.915586035,0.33886632,0.122497245
1764767372.920562,-3.25038,0.71722,1.86172,-0.915586035,0.33886632,0.122497245
1764767372.920562,-3.25038,0.71722,1.86172,-0.915586035,0.33886632,0.122497245
1764767372.920562,-3.25038,0.71722,1.86172,-0.915586035,0.33886632,0.122497245
1764767372.920562,-3.25038,0.71722,1.86172,-0.915586035,0.33886632,0.122497245
1764767372.920562,-3.25038,0.71722,1.86172,-0.915586035,0.33886632,0.122497245
1764767372.920562,-3.4335,-0.01526,1.86172,-0.917172945,0.339903915,0.122863455
1764767372.920562,-3.4335,-0.01526,1.86172,-0.917172945,0.339903915,0.122863455
1764767372.920562,-3.4335,-0.01526,1.86172,-0.917172945,0.339903915,0.122863455
1764767372.920562,-3.4335,-0.01526,1.86172,-0.917172945,0.339903915,0.122863455
1764767372.920562,-3.4335,-0.01526,1.86172,-0.917172945,0.339903915,0.122863455
1764767372.920562,-3.4335,-0.01526,1.86172,-0.917172945,0.339903915,0.122863455
1764767372.920562,-3.4335,-0.01526,1.86172,-0.917172945,0.339903915,0.122863455
1764767372.920562,-3.4335,-0.01526,1.86172,-0.917172945,0.339903915,0.122863455
1764767372.920562,-3.4335,-0.01526,1.86172,-0.917172945,0.339903915,0.122863455
1764767372.920562,-3.4335,-0.01526,1.86172,-0.917172945,0.339903915,0.122863455
1764767372.920562,-3.5861,0.44254,1.9838,-0.917539155,0.34118565,0.12268035
1764767372.920562,-3.5861,0.44254,1.9838,-0.917539155,0.34118565,0.12268035
1764767372.920562,-3.5861,0.44254,1.9838,-0.917539155,0.34118565,0.12268035
1764767372.9215791,-3.5861,0.44254,1.9838,-0.917539155,0.34118565,0.12268035
1764767372.9678495,-3.5861,0.44254,1.9838,-0.917539155,0.34118565,0.12268035
1764767372.9678495,-3.5861,0.44254,1.9838,-0.917539155,0.34118565,0.12268035
1764767372.9678495,-3.5861,0.44254,1.9838,-0.917539155,0.34118565,0.12268035
1764767372.9678495,-3.5861,0.44254,1.9838,-0.917539155,0.34118565,0.12268035
1764767372.9678495,-3.5861,0.44254,1.9838,-0.917539155,0.34118565,0.12268035
1764767372.9678495,-3.5861,0.44254,1.9838,-0.917539155,0.34118565,0.12268035
1764767372.9678495,-3.5861,0.59514,1.89224,-0.91735605,0.3430167,0.12133758
1764767372.9678495,-3.5861,0.59514,1.89224,-0.91735605,0.3430167,0.12133758
1764767372.9678495,-3.5861,0.59514,1.89224,-0.91735605,0.3430167,0.12133758
1764767372.9678495,-3.5861,0.59514,1.89224,-0.91735605,0.3430167,0.12133758
1764767372.9678495,-3.5861,0.59514,1.89224,-0.91735605,0.3430167,0.12133758
1764767372.9678495,-3.5861,0.59514,1.89224,-0.91735605,0.3430167,0.12133758
1764767372.9678495,-3.5861,0.59514,1.89224,-0.91735605,0.3430167,0.12133758
1764767372.9678495,-3.5861,0.59514,1.89224,-0.91735605,0.3430167,0.12133758
1764767372.9678495,-3.5861,0.59514,1.89224,-0.91735605,0.3430167,0.12133758
1764767372.9678495,-3.5861,0.59514,1.89224,-0.91735605,0.3430167,0.12133758
1764767372.9678495,-3.64714,0.57988,1.25132,-0.917417085,0.344054295,0.12011688
1764767372.9678495,-3.64714,0.57988,1.25132,-0.917417085,0.344054295,0.12011688
1764767372.9678495,-3.64714,0.57988,1.25132,-0.917417085,0.344054295,0.12011688
1764767372.9678495,-3.64714,0.57988,1.25132,-0.917417085,0.344054295,0.12011688
1764767372.9678495,-3.64714,0.57988,1.25132,-0.917417085,0.344054295,0.12011688
1764767372.9678495,-3.64714,0.57988,1.25132,-0.917417085,0.344054295,0.12011688
1764767372.9678495,-3.64714,0.57988,1.25132,-0.917417085,0.344054295,0.12011688
1764767372.9678495,-3.64714,0.57988,1.25132,-0.917417085,0.344054295,0.12011688
1764767373.01432,-3.64714,0.57988,1.25132,-0.917417085,0.344054295,0.12011688
1764767373.01432,-3.64714,0.57988,1.25132,-0.917417085,0.344054295,0.12011688
1764767373.01432,-4.02864,0.50358,1.41918,-0.917295015,0.34496982,0.1196286
1764767373.01432,-4.02864,0.50358,1.41918,-0.917295015,0.34496982,0.1196286
1764767373.01432,-4.02864,0.50358,1.41918,-0.917295015,0.34496982,0.1196286
1764767373.01432,-4.02864,0.50358,1.41918,-0.917295015,0.34496982,0.1196286
1764767373.01432,-4.02864,0.50358,1.41918,-0.917295015,0.34496982,0.1196286
1764767373.01432,-4.02864,0.50358,1.41918,-0.917295015,0.34496982,0.1196286
1764767373.01432,-4.02864,0.50358,1.41918,-0.917295015,0.34496982,0.1196286
1764767373.01432,-4.02864,0.50358,1.41918,-0.917295015,0.34496982,0.1196286
1764767373.01432,-4.02864,0.50358,1.41918,-0.917295015,0.34496982,0.1196286
1764767373.01432,-4.02864,0.50358,1.41918,-0.917295015,0.34496982,0.1196286
1764767373.01432,-4.21176,0.6409199999999999,1.48022,-0.916318455,0.345152925,0.119933775
1764767373.01432,-4.21176,0.6409199999999999,1.48022,-0.916318455,0.345152925,0.119933775
1764767373.01432,-4.21176,0.6409199999999999,1.48022,-0.916318455,0.345152925,0.119933775
1764767373.01432,-4.21176,0.6409199999999999,1.48022,-0.916318455,0.345152925,0.119933775
1764767373.01432,-4.21176,0.6409199999999999,1.48022,-0.916318455,0.345152925,0.119933775
1764767373.01432,-4.21176,0.6409199999999999,1.48022,-0.916318455,0.345152925,0.119933775
1764767373.01432,-4.21176,0.6409199999999999,1.48022,-0.916318455,0.345152925,0.119933775
1764767373.01432,-4.21176,0.6409199999999999,1.48022,-0.916318455,0.345152925,0.119933775
1764767373.01432,-4.21176,0.6409199999999999,1.48022,-0.916318455,0.345152925,0.119933775
1764767373.01432,-4.21176,0.6409199999999999,1.48022,-0.916318455,0.345152925,0.119933775
1764767373.01432,-4.16598,0.7019599999999999,1.41918,-0.91564707,0.34448154,0.12048309
1764767373.01432,-4.16598,0.7019599999999999,1.41918,-0.91564707,0.34448154,0.12048309
1764767373.0617816,-4.16598,0.7019599999999999,1.41918,-0.91564707,0.34448154,0.12048309
1764767373.0617816,-4.16598,0.7019599999999999,1.41918,-0.91564707,0.34448154,0.12048309
1764767373.0617816,-4.16598,0.7019599999999999,1.41918,-0.91564707,0.34448154,0.12048309
1764767373.0617816,-4.16598,0.7019599999999999,1.41918,-0.91564707,0.34448154,0.12048309
1764767373.0622902,-4.16598,0.7019599999999999,1.41918,-0.91564707,0.34448154,0.12048309
1764767373.0622902,-4.16598,0.7019599999999999,1.41918,-0.91564707,0.34448154,0.12048309
1764767373.0622902,-4.16598,0.7019599999999999,1.41918,-0.91564707,0.34448154,0.12048309
1764767373.0622902,-4.16598,0.7019599999999999,1.41918,-0.91564707,0.34448154,0.12048309
1764767373.0622902,-4.5017,0.8698199999999999,1.0682,-0.91564707,0.34411533,0.12145965
1764767373.0622902,-4.5017,0.8698199999999999,1.0682,-0.91564707,0.34411533,0.12145965
1764767373.0622902,-4.5017,0.8698199999999999,1.0682,-0.91564707,0.34411533,0.12145965
1764767373.0622902,-4.5017,0.8698199999999999,1.0682,-0.91564707,0.34411533,0.12145965
1764767373.0622902,-4.5017,0.8698199999999999,1.0682,-0.91564707,0.34411533,0.12145965
1764767373.0622902,-4.5017,0.8698199999999999,1.0682,-0.91564707,0.34411533,0.12145965
1764767373.0622902,-4.5017,0.8698199999999999,1.0682,-0.91564707,0.34411533,0.12145965
1764767373.0622902,-4.5017,0.8698199999999999,1.0682,-0.91564707,0.34411533,0.12145965
1764767373.0622902,-4.5017,0.8698199999999999,1.0682,-0.91564707,0.34411533,0.12145965
1764767373.0622902,-4.5017,0.8698199999999999,1.0682,-0.91564707,0.34411533,0.12145965
1764767373.0622902,-4.37962,0.5341,0.6103999999999999,-0.91515879,0.342345315,0.122008965
1764767373.0622902,-4.37962,0.5341,0.6103999999999999,-0.91515879,0.342345315,0.122008965
1764767373.0622902,-4.37962,0.5341,0.6103999999999999,-0.91515879,0.342345315,0.122008965
1764767373.0622902,-4.37962,0.5341,0.6103999999999999,-0.91515879,0.342345315,0.122008965
1764767373.1087613,-4.37962,0.5341,0.6103999999999999,-0.91515879,0.342345315,0.122008965
1764767373.1087613,-4.37962,0.5341,0.6103999999999999,-0.91515879,0.342345315,0.122008965
1764767373.1087613,-4.37962,0.5341,0.6103999999999999,-0.91515879,0.342345315,0.122008965
1764767373.1087613,-4.37962,0.5341,0.6103999999999999,-0.91515879,0.342345315,0.122008965
1764767373.1087613,-4.37962,0.5341,0.6103999999999999,-0.91515879,0.342345315,0.122008965
1764767373.1087613,-4.37962,0.5341,0.6103999999999999,-0.91515879,0.342345315,0.122008965
1764767373.1087613,-4.15072,0.44254,0.77826,-0.915341895,0.34277256,0.122253105
1764767373.1087613,-4.15072,0.44254,0.77826,-0.915341895,0.34277256,0.122253105
1764767373.1087613,-4.15072,0.44254,0.77826,-0.915341895,0.34277256,0.122253105
1764767373.1087613,-4.15072,0.44254,0.77826,-0.915341895,0.34277256,0.122253105
1764767373.1087613,-4.15072,0.44254,0.77826,-0.915341895,0.34277256,0.122253105
1764767373.1087613,-4.15072,0.44254,0.77826,-0.915341895,0.34277256,0.122253105
1764767373.1087613,-4.15072,0.44254,0.77826,-0.915341895,0.34277256,0.122253105
1764767373.1087613,-4.15072,0.44254,0.77826,-0.915341895,0.34277256,0.122253105
1764767373.1087613,-4.15072,0.44254,0.77826,-0.915341895,0.34277256,0.122253105
1764767373.1087613,-4.15072,0.44254,0.77826,-0.915341895,0.34277256,0.122253105
1764767373.1087613,-4.4254,0.59514,0.65618,-0.91613535,0.3442374,0.120910335
1764767373.1087613,-4.4254,0.59514,0.65618,-0.91613535,0.3442374,0.120910335
1764767373.1087613,-4.4254,0.59514,0.65618,-0.91613535,0.3442374,0.120910335
1764767373.1087613,-4.4254,0.59514,0.65618,-0.91613535,0.3442374,0.120910335
1764767373.109274,-4.4254,0.59514,0.65618,-0.91613535,0.3442374,0.120910335
1764767373.109274,-4.4254,0.59514,0.65618,-0.91613535,0.3442374,0.120910335
1764767373.109274,-4.4254,0.59514,0.65618,-0.91613535,0.3442374,0.120910335
1764767373.109274,-4.4254,0.59514,0.65618,-0.91613535,0.3442374,0.120910335
1764767373.1557384,-4.4254,0.59514,0.65618,-0.91613535,0.3442374,0.120910335
1764767373.1557384,-4.4254,0.59514,0.65618,-0.91613535,0.3442374,0.120910335
1764767373.156252,-4.10494,0.56462,0.47306,-0.9167457,0.34460361,0.120422055
1764767373.156252,-4.10494,0.56462,0.47306,-0.9167457,0.34460361,0.120422055
1764767373.156252,-4.10494,0.56462,0.47306,-0.9167457,0.34460361,0.120422055
1764767373.156252,-4.10494,0.56462,0.47306,-0.9167457,0.34460361,0.120422055
1764767373.156252,-4.10494,0.56462,0.47306,-0.9167457,0.34460361,0.120422055
1764767373.156252,-4.10494,0.56462,0.47306,-0.9167457,0.34460361,0.120422055
1764767373.156252,-4.10494,0.56462,0.47306,-0.9167457,0.34460361,0.120422055
1764767373.156252,-4.10494,0.56462,0.47306,-0.9167457,0.34460361,0.120422055
1764767373.156252,-4.10494,0.56462,0.47306,-0.9167457,0.34460361,0.120422055
1764767373.156252,-4.10494,0.56462,0.47306,-0.9167457,0.34460361,0.120422055
1764767373.156252,-3.93708,0.28994,0.1678599999999999,-0.9167457,0.343688085,0.119933775
1764767373.156252,-3.93708,0.28994,0.1678599999999999,-0.9167457,0.343688085,0.119933775
1764767373.156252,-3.93708,0.28994,0.1678599999999999,-0.9167457,0.343688085,0.119933775
1764767373.156252,-3.93708,0.28994,0.1678599999999999,-0.9167457,0.343688085,0.119933775
1764767373.156252,-3.93708,0.28994,0.1678599999999999,-0.9167457,0.343688085,0.119933775
1764767373.156252,-3.93708,0.28994,0.1678599999999999,-0.9167457,0.343688085,0.119933775
1764767373.156252,-3.93708,0.28994,0.1678599999999999,-0.9167457,0.343688085,0.119933775
1764767373.156252,-3.93708,0.28994,0.1678599999999999,-0.9167457,0.343688085,0.119933775
1764767373.156252,-3.93708,0.28994,0.1678599999999999,-0.9167457,0.343688085,0.119933775
1764767373.156252,-3.93708,0.28994,0.1678599999999999,-0.9167457,0.343688085,0.119933775
1764767373.156252,-4.33384,0.93086,-0.1678599999999999,-0.91637949,0.343566015,0.119567565
1764767373.156252,-4.33384,0.93086,-0.1678599999999999,-0.91637949,0.343566015,0.119567565
1764767373.198367,-4.33384,0.93086,-0.1678599999999999,-0.91637949,0.343566015,0.119567565
1764767373.198367,-4.33384,0.93086,-0.1678599999999999,-0.91637949,0.343566015,0.119567565
1764767373.198367,-4.33384,0.93086,-0.1678599999999999,-0.91637949,0.343566015,0.119567565
1764767373.198885,-4.33384,0.93086,-0.1678599999999999,-0.91637949,0.343566015,0.119567565
1764767373.198885,-4.33384,0.93086,-0.1678599999999999,-0.91637949,0.343566015,0.119567565
1764767373.198885,-4.33384,0.93086,-0.1678599999999999,-0.91637949,0.343566015,0.119567565
1764767373.198885,-4.33384,0.93086,-0.1678599999999999,-0.91637949,0.343566015,0.119567565
1764767373.198885,-4.33384,0.93086,-0.1678599999999999,-0.91637949,0.343566015,0.119567565
1764767373.198885,-4.21176,0.7019599999999999,-0.1678599999999999,-0.91589121,0.343566015,0.119933775
1764767373.198885,-4.21176,0.7019599999999999,-0.1678599999999999,-0.91589121,0.343566015,0.119933775
1764767373.198885,-4.21176,0.7019599999999999,-0.1678599999999999,-0.91589121,0.343566015,0.119933775
1764767373.198885,-4.21176,0.7019599999999999,-0.1678599999999999,-0.91589121,0.343566015,0.119933775
1764767373.198885,-4.21176,0.7019599999999999,-0.1678599999999999,-0.91589121,0.343566015,0.119933775
1764767373.198885,-4.21176,0.7019599999999999,-0.1678599999999999,-0.91589121,0.343566015,0.119933775
1764767373.198885,-4.21176,0.7019599999999999,-0.1678599999999999,-0.91589121,0.343566015,0.119933775
1764767373.198885,-4.21176,0.7019599999999999,-0.1678599999999999,-0.91589121,0.343566015,0.119933775
1764767373.198885,-4.21176,0.7019599999999999,-0.1678599999999999,-0.91589121,0.343566015,0.119933775
1764767373.198885,-4.21176,0.7019599999999999,-0.1678599999999999,-0.91589121,0.343566015,0.119933775
1764767373.198885,-4.91372,1.00716,-0.01526,-0.914853615,0.34387119,0.119689635
1764767373.198885,-4.91372,1.00716,-0.01526,-0.914853615,0.34387119,0.119689635
1764767373.198885,-4.91372,1.00716,-0.01526,-0.914853615,0.34387119,0.119689635
1764767373.198885,-4.91372,1.00716,-0.01526,-0.914853615,0.34387119,0.119689635
1764767373.2485518,-4.91372,1.00716,-0.01526,-0.914853615,0.34387119,0.119689635
1764767373.2485518,-4.91372,1.00716,-0.01526,-0.914853615,0.34387119,0.119689635
1764767373.2485518,-4.91372,1.00716,-0.01526,-0.914853615,0.34387119,0.119689635
1764767373.2485518,-4.91372,1.00716,-0.01526,-0.914853615,0.34387119,0.119689635
1764767373.2485518,-4.91372,1.00716,-0.01526,-0.914853615,0.34387119,0.119689635
1764767373.2485518,-4.91372,1.00716,-0.01526,-0.914853615,0.34387119,0.119689635
1764767373.2485518,-4.56274,0.9919,-0.01526,-0.91491465,0.34435947,0.12023895
1764767373.2485518,-4.56274,0.9919,-0.01526,-0.91491465,0.34435947,0.12023895
1764767373.2485518,-4.56274,0.9919,-0.01526,-0.91491465,0.34435947,0.12023895
1764767373.2485518,-4.56274,0.9919,-0.01526,-0.91491465,0.34435947,0.12023895
1764767373.2485518,-4.56274,0.9919,-0.01526,-0.91491465,0.34435947,0.12023895
1764767373.2485518,-4.56274,0.9919,-0.01526,-0.91491465,0.34435947,0.12023895
1764767373.2485518,-4.56274,0.9919,-0.01526,-0.91491465,0.34435947,0.12023895
1764767373.2485518,-4.56274,0.9919,-0.01526,-0.91491465,0.34435947,0.12023895
1764767373.2485518,-4.56274,0.9919,-0.01526,-0.91491465,0.34435947,0.12023895
1764767373.2485518,-4.56274,0.9919,-0.01526,-0.91491465,0.34435947,0.12023895
1764767373.2485518,-4.89846,1.15976,-0.42728,-0.91491465,0.34338291,0.120177915
1764767373.2485518,-4.89846,1.15976,-0.42728,-0.91491465,0.34338291,0.120177915
1764767373.2485518,-4.89846,1.15976,-0.42728,-0.91491465,0.34338291,0.120177915
1764767373.2485518,-4.89846,1.15976,-0.42728,-0.91491465,0.34338291,0.120177915
1764767373.2485518,-4.89846,1.15976,-0.42728,-0.91491465,0.34338291,0.120177915
1764767373.2485518,-4.89846,1.15976,-0.42728,-0.91491465,0.34338291,0.120177915
1764767373.2495673,-4.89846,1.15976,-0.42728,-0.91491465,0.34338291,0.120177915
1764767373.2495673,-4.89846,1.15976,-0.42728,-0.91491465,0.34338291,0.120177915
1764767373.2924705,-4.89846,1.15976,-0.42728,-0.91491465,0.34338291,0.120177915
1764767373.2924705,-4.89846,1.15976,-0.42728,-0.91491465,0.34338291,0.120177915
1764767373.2924705,-5.08158,1.72438,-0.27468,-0.91528086,0.343688085,0.120788265
1764767373.2924705,-5.08158,1.72438,-0.27468,-0.91528086,0.343688085,0.120788265
1764767373.2924705,-5.08158,1.72438,-0.27468,-0.91528086,0.343688085,0.120788265
1764767373.2924705,-5.08158,1.72438,-0.27468,-0.91528086,0.343688085,0.120788265
1764767373.2924705,-5.08158,1.72438,-0.27468,-0.91528086,0.343688085,0.120788265
1764767373.2924705,-5.08158,1.72438,-0.27468,-0.91528086,0.343688085,0.120788265
1764767373.2924705,-5.08158,1.72438,-0.27468,-0.91528086,0.343688085,0.120788265
1764767373.2924705,-5.08158,1.72438,-0.27468,-0.91528086,0.343688085,0.120788265
1764767373.2924705,-5.08158,1.72438,-0.27468,-0.91528086,0.343688085,0.120788265
1764767373.2924705,-5.08158,1.72438,-0.27468,-0.91528086,0.343688085,0.120788265
1764767373.2924705,-4.822159999999999,1.4497,-0.48832,-0.91540293,0.342955665,0.12145965
1764767373.2924705,-4.822159999999999,1.4497,-0.48832,-0.91540293,0.342955665,0.12145965
1764767373.2924705,-4.822159999999999,1.4497,-0.48832,-0.91540293,0.342955665,0.12145965
1764767373.2924705,-4.822159999999999,1.4497,-0.48832,-0.91540293,0.342955665,0.12145965
1764767373.2924705,-4.822159999999999,1.4497,-0.48832,-0.91540293,0.342955665,0.12145965
1764767373.2924705,-4.822159999999999,1.4497,-0.48832,-0.91540293,0.342955665,0.12145965
1764767373.2924705,-4.822159999999999,1.4497,-0.48832,-0.91540293,0.342955665,0.12145965
1764767373.2924705,-4.822159999999999,1.4497,-0.48832,-0.91540293,0.342955665,0.12145965
1764767373.2924705,-4.822159999999999,1.4497,-0.48832,-0.91540293,0.342955665,0.12145965
1764767373.2924705,-4.822159999999999,1.4497,-0.48832,-0.91540293,0.342955665,0.12145965
1764767373.2924705,-4.51696,1.96854,-0.09156,-0.916196385,0.342345315,0.121642755
1764767373.2924705,-4.51696,1.96854,-0.09156,-0.916196385,0.342345315,0.121642755
1764767373.343017,-4.51696,1.96854,-0.09156,-0.916196385,0.342345315,0.121642755
1764767373.343017,-4.51696,1.96854,-0.09156,-0.916196385,0.342345315,0.121642755
1764767373.343017,-4.51696,1.96854,-0.09156,-0.916196385,0.342345315,0.121642755
1764767373.343017,-4.51696,1.96854,-0.09156,-0.916196385,0.342345315,0.121642755
1764767373.343017,-4.51696,1.96854,-0.09156,-0.916196385,0.342345315,0.121642755
1764767373.343017,-4.51696,1.96854,-0.09156,-0.916196385,0.342345315,0.121642755
1764767373.343017,-4.51696,1.96854,-0.09156,-0.916196385,0.342345315,0.121642755
1764767373.343017,-4.51696,1.96854,-0.09156,-0.916196385,0.342345315,0.121642755
1764767373.343017,-4.715339999999999,1.84646,-0.2289,-0.91662363,0.342711525,0.120910335
1764767373.343017,-4.715339999999999,1.84646,-0.2289,-0.91662363,0.342711525,0.120910335
1764767373.343017,-4.715339999999999,1.84646,-0.2289,-0.91662363,0.342711525,0.120910335
1764767373.343017,-4.715339999999999,1.84646,-0.2289,-0.91662363,0.342711525,0.120910335
1764767373.343017,-4.715339999999999,1.84646,-0.2289,-0.91662363,0.342711525,0.120910335
1764767373.343017,-4.715339999999999,1.84646,-0.2289,-0.91662363,0.342711525,0.120910335
1764767373.343017,-4.715339999999999,1.84646,-0.2289,-0.91662363,0.342711525,0.120910335
1764767373.343017,-4.715339999999999,1.84646,-0.2289,-0.91662363,0.342711525,0.120910335
1764767373.343017,-4.715339999999999,1.84646,-0.2289,-0.91662363,0.342711525,0.120910335
1764767373.343017,-4.715339999999999,1.84646,-0.2289,-0.91662363,0.342711525,0.120910335
1764767373.343017,-4.86794,1.84646,-0.25942,-0.916074315,0.34252842,0.119689635
1764767373.343017,-4.86794,1.84646,-0.25942,-0.916074315,0.34252842,0.119689635
1764767373.343017,-4.86794,1.84646,-0.25942,-0.916074315,0.34252842,0.119689635
1764767373.343017,-4.86794,1.84646,-0.25942,-0.916074315,0.34252842,0.119689635
1764767373.3874035,-4.86794,1.84646,-0.25942,-0.916074315,0.34252842,0.119689635
1764767373.3874035,-4.86794,1.84646,-0.25942,-0.916074315,0.34252842,0.119689635
1764767373.3874035,-4.86794,1.84646,-0.25942,-0.916074315,0.34252842,0.119689635
1764767373.3874035,-4.86794,1.84646,-0.25942,-0.916074315,0.34252842,0.119689635
1764767373.3874035,-4.86794,1.84646,-0.25942,-0.916074315,0.34252842,0.119689635
1764767373.3874035,-4.86794,1.84646,-0.25942,-0.916074315,0.34252842,0.119689635
1764767373.3874035,-5.14262,1.6633399999999998,-0.51884,-0.91601328,0.342223245,0.120299985
1764767373.3874035,-5.14262,1.6633399999999998,-0.51884,-0.91601328,0.342223245,0.120299985
1764767373.3874035,-5.14262,1.6633399999999998,-0.51884,-0.91601328,0.342223245,0.120299985
1764767373.3874035,-5.14262,1.6633399999999998,-0.51884,-0.91601328,0.342223245,0.120299985
1764767373.3874035,-5.14262,1.6633399999999998,-0.51884,-0.91601328,0.342223245,0.120299985
1764767373.3874035,-5.14262,1.6633399999999998,-0.51884,-0.91601328,0.342223245,0.120299985
1764767373.3874035,-5.14262,1.6633399999999998,-0.51884,-0.91601328,0.342223245,0.120299985
1764767373.3874035,-5.14262,1.6633399999999998,-0.51884,-0.91601328,0.342223245,0.120299985
1764767373.3874035,-5.14262,1.6633399999999998,-0.51884,-0.91601328,0.342223245,0.120299985
1764767373.3874035,-5.14262,1.6633399999999998,-0.51884,-0.91601328,0.342223245,0.120299985
1764767373.3874035,-4.94424,2.02958,-0.7019599999999999,-0.916196385,0.34265049,0.12133758
1764767373.3874035,-4.94424,2.02958,-0.7019599999999999,-0.916196385,0.34265049,0.12133758
1764767373.3874035,-4.94424,2.02958,-0.7019599999999999,-0.916196385,0.34265049,0.12133758
1764767373.3874035,-4.94424,2.02958,-0.7019599999999999,-0.916196385,0.34265049,0.12133758
1764767373.3874035,-4.94424,2.02958,-0.7019599999999999,-0.916196385,0.34265049,0.12133758
1764767373.3874035,-4.94424,2.02958,-0.7019599999999999,-0.916196385,0.34265049,0.12133758
1764767373.4339335,-4.94424,2.02958,-0.7019599999999999,-0.916196385,0.34265049,0.12133758
1764767373.4339335,-4.94424,2.02958,-0.7019599999999999,-0.916196385,0.34265049,0.12133758
1764767373.4339335,-4.94424,2.02958,-0.7019599999999999,-0.916196385,0.34265049,0.12133758
1764767373.4339335,-4.94424,2.02958,-0.7019599999999999,-0.916196385,0.34265049,0.12133758
1764767373.4339335,-4.89846,1.8006799999999998,-0.50358,-0.916562595,0.342711525,0.122497245
1764767373.4339335,-4.89846,1.8006799999999998,-0.50358,-0.916562595,0.342711525,0.122497245
1764767373.4349954,-4.89846,1.8006799999999998,-0.50358,-0.916562595,0.342711525,0.122497245
1764767373.4349954,-4.89846,1.8006799999999998,-0.50358,-0.916562595,0.342711525,0.122497245
1764767373.4349954,-4.89846,1.8006799999999998,-0.50358,-0.916562595,0.342711525,0.122497245
1764767373.4349954,-4.89846,1.8006799999999998,-0.50358,-0.916562595,0.342711525,0.122497245
1764767373.4349954,-4.89846,1.8006799999999998,-0.50358,-0.916562595,0.342711525,0.122497245
1764767373.4349954,-4.89846,1.8006799999999998,-0.50358,-0.916562595,0.342711525,0.122497245
1764767373.4349954,-4.89846,1.8006799999999998,-0.50358,-0.916562595,0.342711525,0.122497245
1764767373.4349954,-4.89846,1.8006799999999998,-0.50358,-0.916562595,0.342711525,0.122497245
1764767373.4349954,-4.68482,1.95328,-0.51884,-0.91723398,0.34240635,0.12231414
1764767373.4349954,-4.68482,1.95328,-0.51884,-0.91723398,0.34240635,0.12231414
1764767373.4349954,-4.68482,1.95328,-0.51884,-0.91723398,0.34240635,0.12231414
1764767373.4349954,-4.68482,1.95328,-0.51884,-0.91723398,0.34240635,0.12231414
1764767373.4349954,-4.68482,1.95328,-0.51884,-0.91723398,0.34240635,0.12231414
1764767373.4349954,-4.68482,1.95328,-0.51884,-0.91723398,0.34240635,0.12231414
1764767373.4349954,-4.68482,1.95328,-0.51884,-0.91723398,0.34240635,0.12231414
1764767373.4349954,-4.68482,1.95328,-0.51884,-0.91723398,0.34240635,0.12231414
1764767373.4349954,-4.68482,1.95328,-0.51884,-0.91723398,0.34240635,0.12231414
1764767373.4349954,-4.68482,1.95328,-0.51884,-0.91723398,0.34240635,0.12231414
1764767373.4807265,-4.94424,1.4497,-0.65618,-0.91845468,0.34289463,0.121886895
1764767373.4807265,-4.94424,1.4497,-0.65618,-0.91845468,0.34289463,0.121886895
1764767373.4807265,-4.94424,1.4497,-0.65618,-0.91845468,0.34289463,0.121886895
1764767373.4807265,-4.94424,1.4497,-0.65618,-0.91845468,0.34289463,0.121886895
1764767373.4807265,-4.94424,1.4497,-0.65618,-0.91845468,0.34289463,0.121886895
1764767373.4807265,-4.94424,1.4497,-0.65618,-0.91845468,0.34289463,0.121886895
1764767373.4807265,-4.94424,1.4497,-0.65618,-0.91845468,0.34289463,0.121886895
1764767373.4807265,-4.94424,1.4497,-0.65618,-0.91845468,0.34289463,0.121886895
1764767373.4807265,-4.94424,1.4497,-0.65618,-0.91845468,0.34289463,0.121886895
1764767373.4817464,-4.94424,1.4497,-0.65618,-0.91845468,0.34289463,0.121886895
1764767373.4817464,-4.59326,1.3734,-0.57988,-0.916928805,0.342223245,0.12145965
1764767373.4817464,-4.59326,1.3734,-0.57988,-0.916928805,0.342223245,0.12145965
1764767373.4817464,-4.59326,1.3734,-0.57988,-0.916928805,0.342223245,0.12145965
1764767373.4817464,-4.59326,1.3734,-0.57988,-0.916928805,0.342223245,0.12145965
1764767373.4817464,-4.59326,1.3734,-0.57988,-0.916928805,0.342223245,0.12145965
1764767373.4817464,-4.59326,1.3734,-0.57988,-0.916928805,0.342223245,0.12145965
1764767373.4817464,-4.59326,1.3734,-0.57988,-0.916928805,0.342223245,0.12145965
1764767373.4817464,-4.59326,1.3734,-0.57988,-0.916928805,0.342223245,0.12145965
1764767373.4817464,-4.59326,1.3734,-0.57988,-0.916928805,0.342223245,0.12145965
1764767373.4817464,-4.59326,1.3734,-0.57988,-0.916928805,0.342223245,0.12145965
1764767373.4817464,-4.41014,1.32762,-0.1678599999999999,-0.916562595,0.342101175,0.121276545
1764767373.4817464,-4.41014,1.32762,-0.1678599999999999,-0.916562595,0.342101175,0.121276545
