Timestamp,GyroX,GyroY,GyroZ,AccX,AccY,AccZ
1764767838.6890595,-2.8231,0.3051999999999999,1.09872,0.9741186,-0.04504383,0.14941368
1764767838.6890595,-2.8231,0.3051999999999999,1.09872,0.9741186,-0.04504383,0.14941368
1764767838.6890595,-2.8231,0.3051999999999999,1.09872,0.9741186,-0.04504383,0.14941368
1764767838.6890595,-2.48738,0.48832,0.2289,0.97582758,-0.044738655,0.14965782
1764767838.6890595,-2.48738,0.48832,0.2289,0.97582758,-0.044738655,0.14965782
1764767838.6890595,-2.48738,0.48832,0.2289,0.97582758,-0.044738655,0.14965782
1764767838.6890595,-2.48738,0.48832,0.2289,0.97582758,-0.044738655,0.14965782
1764767838.6890595,-2.48738,0.48832,0.2289,0.97582758,-0.044738655,0.14965782
1764767838.6890595,-2.48738,0.48832,0.2289,0.97582758,-0.044738655,0.14965782
1764767838.6890595,-2.48738,0.48832,0.2289,0.97582758,-0.044738655,0.14965782
1764767838.6890595,-2.48738,0.48832,0.2289,0.97582758,-0.044738655,0.14965782
1764767838.6890595,-2.48738,0.48832,0.2289,0.97582758,-0.044738655,0.14965782
1764767838.6890595,-2.48738,0.48832,0.2289,0.97582758,-0.044738655,0.14965782
1764767838.6890595,-2.8994,1.26658,-0.1678599999999999,0.97546137,-0.043884165,0.149962995
1764767838.6890595,-2.8994,1.26658,-0.1678599999999999,0.97546137,-0.043884165,0.149962995
1764767838.6890595,-2.8994,1.26658,-0.1678599999999999,0.97546137,-0.043884165,0.149962995
1764767838.6890595,-2.8994,1.26658,-0.1678599999999999,0.97546137,-0.043884165,0.149962995
1764767838.6890595,-2.8994,1.26658,-0.1678599999999999,0.97546137,-0.043884165,0.149962995
1764767838.6890595,-2.8994,1.26658,-0.1678599999999999,0.97546137,-0.043884165,0.149962995
1764767838.6890595,-2.8994,1.26658,-0.1678599999999999,0.97546137,-0.043884165,0.149962995
1764767838.6890595,-2.8994,1.26658,-0.1678599999999999,0.97546137,-0.043884165,0.149962995
1764767838.6890595,-2.8994,1.26658,-0.1678599999999999,0.97546137,-0.043884165,0.149962995
1764767838.6890595,-2.8994,1.26658,-0.1678599999999999,0.97546137,-0.043884165,0.149962995
1764767838.7330773,-2.70102,1.77016,-0.56462,0.974545845,-0.043029675,0.1501461
1764767838.7330773,-2.70102,1.77016,-0.56462,0.974545845,-0.043029675,0.1501461
1764767838.7330773,-2.70102,1.77016,-0.56462,0.974545845,-0.043029675,0.1501461
1764767838.7330773,-2.70102,1.77016,-0.56462,0.974545845,-0.043029675,0.1501461
1764767838.7330773,-2.70102,1.77016,-0.56462,0.974545845,-0.043029675,0.1501461
1764767838.7330773,-2.70102,1.77016,-0.56462,0.974545845,-0.043029675,0.1501461
1764767838.7330773,-2.70102,1.77016,-0.56462,0.974545845,-0.043029675,0.1501461
1764767838.7330773,-2.70102,1.77016,-0.56462,0.974545845,-0.043029675,0.1501461
1764767838.73411,-2.70102,1.77016,-0.56462,0.974545845,-0.043029675,0.1501461
1764767838.73411,-2.70102,1.77016,-0.56462,0.974545845,-0.043029675,0.1501461
1764767838.73411,-3.52506,1.526,-1.48022,0.97338618,-0.04199208,0.15063438
1764767838.73411,-3.52506,1.526,-1.48022,0.97338618,-0.04199208,0.15063438
1764767838.73411,-3.52506,1.526,-1.48022,0.97338618,-0.04199208,0.15063438
1764767838.73411,-3.52506,1.526,-1.48022,0.97338618,-0.04199208,0.15063438
1764767838.73411,-3.52506,1.526,-1.48022,0.97338618,-0.04199208,0.15063438
1764767838.73411,-3.52506,1.526,-1.48022,0.97338618,-0.04199208,0.15063438
1764767838.73411,-3.52506,1.526,-1.48022,0.97338618,-0.04199208,0.15063438
1764767838.73411,-3.52506,1.526,-1.48022,0.97338618,-0.04199208,0.15063438
1764767838.73411,-3.52506,1.526,-1.48022,0.97338618,-0.04199208,0.15063438
1764767838.73411,-3.52506,1.526,-1.48022,0.97338618,-0.04199208,0.15063438
1764767838.73411,-4.1965,1.46496,-1.35814,0.972714795,-0.04077138,0.1513668
1764767838.73411,-4.1965,1.46496,-1.35814,0.972714795,-0.04077138,0.1513668
1764767838.73411,-4.1965,1.46496,-1.35814,0.972714795,-0.04077138,0.1513668
1764767838.73411,-4.1965,1.46496,-1.35814,0.972714795,-0.04077138,0.1513668
1764767838.7818542,-4.1965,1.46496,-1.35814,0.972714795,-0.04077138,0.1513668
1764767838.7818542,-4.1965,1.46496,-1.35814,0.972714795,-0.04077138,0.1513668
1764767838.7818542,-4.1965,1.46496,-1.35814,0.972714795,-0.04077138,0.1513668
1764767838.7818542,-4.1965,1.46496,-1.35814,0.972714795,-0.04077138,0.1513668
1764767838.7818542,-4.1965,1.46496,-1.35814,0.972714795,-0.04077138,0.1513668
1764767838.7818542,-4.1965,1.46496,-1.35814,0.972714795,-0.04077138,0.1513668
1764767838.7818542,-4.2728,1.08346,-1.19028,0.972836865,-0.03991689,0.15161094
1764767838.7818542,-4.2728,1.08346,-1.19028,0.972836865,-0.03991689,0.15161094
1764767838.7818542,-4.2728,1.08346,-1.19028,0.972836865,-0.03991689,0.15161094
1764767838.7818542,-4.2728,1.08346,-1.19028,0.972836865,-0.03991689,0.15161094
1764767838.7818542,-4.2728,1.08346,-1.19028,0.972836865,-0.03991689,0.15161094
1764767838.7818542,-4.2728,1.08346,-1.19028,0.972836865,-0.03991689,0.15161094
1764767838.7818542,-4.2728,1.08346,-1.19028,0.972836865,-0.03991689,0.15161094
1764767838.7818542,-4.2728,1.08346,-1.19028,0.972836865,-0.03991689,0.15161094
1764767838.7818542,-4.2728,1.08346,-1.19028,0.972836865,-0.03991689,0.15161094
1764767838.7818542,-4.2728,1.08346,-1.19028,0.972836865,-0.03991689,0.15161094
1764767838.7818542,-4.3491,1.25132,-0.94612,0.973325145,-0.039001365,0.15222129
1764767838.7818542,-4.3491,1.25132,-0.94612,0.973325145,-0.039001365,0.15222129
1764767838.7818542,-4.3491,1.25132,-0.94612,0.973325145,-0.039001365,0.15222129
1764767838.7818542,-4.3491,1.25132,-0.94612,0.973325145,-0.039001365,0.15222129
1764767838.7818542,-4.3491,1.25132,-0.94612,0.973325145,-0.039001365,0.15222129
1764767838.7818542,-4.3491,1.25132,-0.94612,0.973325145,-0.039001365,0.15222129
1764767838.7818542,-4.3491,1.25132,-0.94612,0.973325145,-0.039001365,0.15222129
1764767838.7818542,-4.3491,1.25132,-0.94612,0.973325145,-0.039001365,0.15222129
1764767838.8291533,-4.3491,1.25132,-0.94612,0.973325145,-0.039001365,0.15222129
1764767838.8291533,-4.3491,1.25132,-0.94612,0.973325145,-0.039001365,0.15222129
1764767838.8291533,-4.22702,0.54936,-0.48832,0.97314204,-0.038635155,0.152404395
1764767838.8291533,-4.22702,0.54936,-0.48832,0.97314204,-0.038635155,0.152404395
1764767838.8291533,-4.22702,0.54936,-0.48832,0.97314204,-0.038635155,0.152404395
1764767838.8291533,-4.22702,0.54936,-0.48832,0.97314204,-0.038635155,0.152404395
1764767838.8291533,-4.22702,0.54936,-0.48832,0.97314204,-0.038635155,0.152404395
1764767838.8291533,-4.22702,0.54936,-0.48832,0.97314204,-0.038635155,0.152404395
1764767838.8291533,-4.22702,0.54936,-0.48832,0.97314204,-0.038635155,0.152404395
1764767838.8291533,-4.22702,0.54936,-0.48832,0.97314204,-0.038635155,0.152404395
1764767838.8291533,-4.22702,0.54936,-0.48832,0.97314204,-0.038635155,0.152404395
1764767838.8291533,-4.22702,0.54936,-0.48832,0.97314204,-0.038635155,0.152404395
1764767838.8291533,-4.59326,0.10682,-0.03052,0.973081005,-0.037780665,0.15173301
1764767838.8291533,-4.59326,0.10682,-0.03052,0.973081005,-0.037780665,0.15173301
1764767838.8291533,-4.59326,0.10682,-0.03052,0.973081005,-0.037780665,0.15173301
1764767838.8291533,-4.59326,0.10682,-0.03052,0.973081005,-0.037780665,0.15173301
1764767838.8291533,-4.59326,0.10682,-0.03052,0.973081005,-0.037780665,0.15173301
1764767838.8291533,-4.59326,0.10682,-0.03052,0.973081005,-0.037780665,0.15173301
1764767838.8291533,-4.59326,0.10682,-0.03052,0.973081005,-0.037780665,0.15173301
1764767838.8291533,-4.59326,0.10682,-0.03052,0.973081005,-0.037780665,0.15173301
1764767838.8291533,-4.59326,0.10682,-0.03052,0.973081005,-0.037780665,0.15173301
1764767838.8291533,-4.59326,0.10682,-0.03052,0.973081005,-0.037780665,0.15173301
1764767838.8758054,-4.45592,-0.04578,-0.1525999999999999,0.973325145,-0.037414455,0.15173301
1764767838.8758054,-4.45592,-0.04578,-0.1525999999999999,0.973325145,-0.037414455,0.15173301
1764767838.8758054,-4.45592,-0.04578,-0.1525999999999999,0.973325145,-0.037414455,0.15173301
1764767838.8758054,-4.45592,-0.04578,-0.1525999999999999,0.973325145,-0.037414455,0.15173301
1764767838.8758054,-4.45592,-0.04578,-0.1525999999999999,0.973325145,-0.037414455,0.15173301
1764767838.8758054,-4.45592,-0.04578,-0.1525999999999999,0.973325145,-0.037414455,0.15173301
1764767838.8758054,-4.45592,-0.04578,-0.1525999999999999,0.973325145,-0.037414455,0.15173301
1764767838.8758054,-4.45592,-0.04578,-0.1525999999999999,0.973325145,-0.037414455,0.15173301
1764767838.8758054,-4.45592,-0.04578,-0.1525999999999999,0.973325145,-0.037414455,0.15173301
1764767838.8758054,-4.45592,-0.04578,-0.1525999999999999,0.973325145,-0.037414455,0.15173301
1764767838.8758054,-4.02864,-0.0762999999999999,0.19838,0.973569285,-0.037780665,0.150573345
1764767838.8758054,-4.02864,-0.0762999999999999,0.19838,0.973569285,-0.037780665,0.150573345
1764767838.8758054,-4.02864,-0.0762999999999999,0.19838,0.973569285,-0.037780665,0.150573345
1764767838.8758054,-4.02864,-0.0762999999999999,0.19838,0.973569285,-0.037780665,0.150573345
1764767838.8758054,-4.02864,-0.0762999999999999,0.19838,0.973569285,-0.037780665,0.150573345
1764767838.8758054,-4.02864,-0.0762999999999999,0.19838,0.973569285,-0.037780665,0.150573345
1764767838.8758054,-4.02864,-0.0762999999999999,0.19838,0.973569285,-0.037780665,0.150573345
1764767838.8758054,-4.02864,-0.0762999999999999,0.19838,0.973569285,-0.037780665,0.150573345
1764767838.8758054,-4.02864,-0.0762999999999999,0.19838,0.973569285,-0.037780665,0.150573345
1764767838.8758054,-4.02864,-0.0762999999999999,0.19838,0.973569285,-0.037780665,0.150573345
1764767838.8758054,-3.9676,0.42728,0.41202,0.973935495,-0.037292385,0.149474715
1764767838.8758054,-3.9676,0.42728,0.41202,0.973935495,-0.037292385,0.149474715
1764767838.8758054,-3.9676,0.42728,0.41202,0.973935495,-0.037292385,0.149474715
1764767838.8758054,-3.9676,0.42728,0.41202,0.973935495,-0.037292385,0.149474715
1764767838.924453,-3.9676,0.42728,0.41202,0.973935495,-0.037292385,0.149474715
1764767838.924453,-3.9676,0.42728,0.41202,0.973935495,-0.037292385,0.149474715
1764767838.924453,-3.9676,0.42728,0.41202,0.973935495,-0.037292385,0.149474715
1764767838.924453,-3.9676,0.42728,0.41202,0.973935495,-0.037292385,0.149474715
1764767838.924453,-3.9676,0.42728,0.41202,0.973935495,-0.037292385,0.149474715
1764767838.924453,-3.9676,0.42728,0.41202,0.973935495,-0.037292385,0.149474715
1764767838.924965,-3.84552,0.3815,1.2971,0.97363032,-0.03832998,0.148742295
1764767838.924965,-3.84552,0.3815,1.2971,0.97363032,-0.03832998,0.148742295
1764767838.924965,-3.84552,0.3815,1.2971,0.97363032,-0.03832998,0.148742295
1764767838.924965,-3.84552,0.3815,1.2971,0.97363032,-0.03832998,0.148742295
1764767838.924965,-3.84552,0.3815,1.2971,0.97363032,-0.03832998,0.148742295
1764767838.924965,-3.84552,0.3815,1.2971,0.97363032,-0.03832998,0.148742295
1764767838.924965,-3.84552,0.3815,1.2971,0.97363032,-0.03832998,0.148742295
1764767838.924965,-3.84552,0.3815,1.2971,0.97363032,-0.03832998,0.148742295
1764767838.924965,-3.84552,0.3815,1.2971,0.97363032,-0.03832998,0.148742295
1764767838.924965,-3.84552,0.3815,1.2971,0.97363032,-0.03832998,0.148742295
1764767838.924965,-3.63188,0.39676,1.57178,0.974545845,-0.03894033,0.147521595
1764767838.924965,-3.63188,0.39676,1.57178,0.974545845,-0.03894033,0.147521595
1764767838.924965,-3.63188,0.39676,1.57178,0.974545845,-0.03894033,0.147521595
1764767838.924965,-3.63188,0.39676,1.57178,0.974545845,-0.03894033,0.147521595
1764767838.924965,-3.63188,0.39676,1.57178,0.974545845,-0.03894033,0.147521595
1764767838.924965,-3.63188,0.39676,1.57178,0.974545845,-0.03894033,0.147521595
1764767838.9707515,-3.63188,0.39676,1.57178,0.974545845,-0.03894033,0.147521595
1764767838.9707515,-3.63188,0.39676,1.57178,0.974545845,-0.03894033,0.147521595
1764767838.9707515,-3.63188,0.39676,1.57178,0.974545845,-0.03894033,0.147521595
1764767838.971768,-3.63188,0.39676,1.57178,0.974545845,-0.03894033,0.147521595
1764767838.971768,-3.06726,0.3815,1.46496,0.97448481,-0.04052724,0.1477047
1764767838.971768,-3.06726,0.3815,1.46496,0.97448481,-0.04052724,0.1477047
1764767838.971768,-3.06726,0.3815,1.46496,0.97448481,-0.04052724,0.1477047
1764767838.971768,-3.06726,0.3815,1.46496,0.97448481,-0.04052724,0.1477047
1764767838.971768,-3.06726,0.3815,1.46496,0.97448481,-0.04052724,0.1477047
1764767838.971768,-3.06726,0.3815,1.46496,0.97448481,-0.04052724,0.1477047
1764767838.971768,-3.06726,0.3815,1.46496,0.97448481,-0.04052724,0.1477047
1764767838.971768,-3.06726,0.3815,1.46496,0.97448481,-0.04052724,0.1477047
1764767838.971768,-3.06726,0.3815,1.46496,0.97448481,-0.04052724,0.1477047
1764767838.971768,-3.06726,0.3815,1.46496,0.97448481,-0.04052724,0.1477047
1764767838.971768,-2.60946,0.57988,1.86172,0.97436274,-0.04174794,0.146911245
1764767838.971768,-2.60946,0.57988,1.86172,0.97436274,-0.04174794,0.146911245
1764767838.971768,-2.60946,0.57988,1.86172,0.97436274,-0.04174794,0.146911245
1764767838.971768,-2.60946,0.57988,1.86172,0.97436274,-0.04174794,0.146911245
1764767838.971768,-2.60946,0.57988,1.86172,0.97436274,-0.04174794,0.146911245
1764767838.971768,-2.60946,0.57988,1.86172,0.97436274,-0.04174794,0.146911245
1764767838.971768,-2.60946,0.57988,1.86172,0.97436274,-0.04174794,0.146911245
1764767838.971768,-2.60946,0.57988,1.86172,0.97436274,-0.04174794,0.146911245
1764767839.016373,-2.60946,0.57988,1.86172,0.97436274,-0.04174794,0.146911245
1764767839.016373,-2.60946,0.57988,1.86172,0.97436274,-0.04174794,0.146911245
1764767839.016373,-2.7468,1.02242,1.4497,0.975156195,-0.04260243,0.14611779
1764767839.016373,-2.7468,1.02242,1.4497,0.975156195,-0.04260243,0.14611779
1764767839.016373,-2.7468,1.02242,1.4497,0.975156195,-0.04260243,0.14611779
1764767839.016373,-2.7468,1.02242,1.4497,0.975156195,-0.04260243,0.14611779
1764767839.016373,-2.7468,1.02242,1.4497,0.975156195,-0.04260243,0.14611779
1764767839.016373,-2.7468,1.02242,1.4497,0.975156195,-0.04260243,0.14611779
1764767839.016373,-2.7468,1.02242,1.4497,0.975156195,-0.04260243,0.14611779
1764767839.016373,-2.7468,1.02242,1.4497,0.975156195,-0.04260243,0.14611779
1764767839.016373,-2.7468,1.02242,1.4497,0.975156195,-0.04260243,0.14611779
1764767839.016373,-2.7468,1.02242,1.4497,0.975156195,-0.04260243,0.14611779
1764767839.016373,-3.052,1.48022,0.9919,0.975156195,-0.042175185,0.14562951
1764767839.016373,-3.052,1.48022,0.9919,0.975156195,-0.042175185,0.14562951
1764767839.016373,-3.052,1.48022,0.9919,0.975156195,-0.042175185,0.14562951
1764767839.016373,-3.052,1.48022,0.9919,0.975156195,-0.042175185,0.14562951
1764767839.016373,-3.052,1.48022,0.9919,0.975156195,-0.042175185,0.14562951
1764767839.016373,-3.052,1.48022,0.9919,0.975156195,-0.042175185,0.14562951
1764767839.016373,-3.052,1.48022,0.9919,0.975156195,-0.042175185,0.14562951
1764767839.016373,-3.052,1.48022,0.9919,0.975156195,-0.042175185,0.14562951
1764767839.016373,-3.052,1.48022,0.9919,0.975156195,-0.042175185,0.14562951
1764767839.016373,-3.052,1.48022,0.9919,0.975156195,-0.042175185,0.14562951
1764767839.016373,-3.08252,1.8312,0.12208,0.976743105,-0.04089345,0.146545035
1764767839.016373,-3.08252,1.8312,0.12208,0.976743105,-0.04089345,0.146545035
1764767839.0173714,-3.08252,1.8312,0.12208,0.976743105,-0.04089345,0.146545035
1764767839.0173714,-3.08252,1.8312,0.12208,0.976743105,-0.04089345,0.146545035
1764767839.063383,-3.08252,1.8312,0.12208,0.976743105,-0.04089345,0.146545035
1764767839.063383,-3.08252,1.8312,0.12208,0.976743105,-0.04089345,0.146545035
1764767839.063383,-3.08252,1.8312,0.12208,0.976743105,-0.04089345,0.146545035
1764767839.063383,-3.08252,1.8312,0.12208,0.976743105,-0.04089345,0.146545035
1764767839.063383,-3.08252,1.8312,0.12208,0.976743105,-0.04089345,0.146545035
1764767839.063383,-3.08252,1.8312,0.12208,0.976743105,-0.04089345,0.146545035
1764767839.063383,-3.69292,2.0601,-0.24416,0.97656,-0.039489645,0.14697228
1764767839.063383,-3.69292,2.0601,-0.24416,0.97656,-0.039489645,0.14697228
1764767839.063383,-3.69292,2.0601,-0.24416,0.97656,-0.039489645,0.14697228
1764767839.063383,-3.69292,2.0601,-0.24416,0.97656,-0.039489645,0.14697228
1764767839.063383,-3.69292,2.0601,-0.24416,0.97656,-0.039489645,0.14697228
1764767839.063383,-3.69292,2.0601,-0.24416,0.97656,-0.039489645,0.14697228
1764767839.063383,-3.69292,2.0601,-0.24416,0.97656,-0.039489645,0.14697228
1764767839.063383,-3.69292,2.0601,-0.24416,0.97656,-0.039489645,0.14697228
1764767839.063383,-3.69292,2.0601,-0.24416,0.97656,-0.039489645,0.14697228
1764767839.063383,-3.69292,2.0601,-0.24416,0.97656,-0.039489645,0.14697228
1764767839.063383,-4.3491,2.0601,-0.24416,0.97546137,-0.03869619,0.147277455
1764767839.063383,-4.3491,2.0601,-0.24416,0.97546137,-0.03869619,0.147277455
1764767839.063383,-4.3491,2.0601,-0.24416,0.97546137,-0.03869619,0.147277455
1764767839.063383,-4.3491,2.0601,-0.24416,0.97546137,-0.03869619,0.147277455
1764767839.063383,-4.3491,2.0601,-0.24416,0.97546137,-0.03869619,0.147277455
1764767839.063383,-4.3491,2.0601,-0.24416,0.97546137,-0.03869619,0.147277455
1764767839.063383,-4.3491,2.0601,-0.24416,0.97546137,-0.03869619,0.147277455
1764767839.063383,-4.3491,2.0601,-0.24416,0.97546137,-0.03869619,0.147277455
1764767839.110604,-4.3491,2.0601,-0.24416,0.97546137,-0.03869619,0.147277455
1764767839.110604,-4.3491,2.0601,-0.24416,0.97546137,-0.03869619,0.147277455
1764767839.111122,-3.61662,1.7549,-0.03052,0.97387446,-0.039123435,0.14819298
1764767839.111122,-3.61662,1.7549,-0.03052,0.97387446,-0.039123435,0.14819298
1764767839.111122,-3.61662,1.7549,-0.03052,0.97387446,-0.039123435,0.14819298
1764767839.111122,-3.61662,1.7549,-0.03052,0.97387446,-0.039123435,0.14819298
1764767839.111122,-3.61662,1.7549,-0.03052,0.97387446,-0.039123435,0.14819298
1764767839.111122,-3.61662,1.7549,-0.03052,0.97387446,-0.039123435,0.14819298
1764767839.111122,-3.61662,1.7549,-0.03052,0.97387446,-0.039123435,0.14819298
1764767839.111122,-3.61662,1.7549,-0.03052,0.97387446,-0.039123435,0.14819298
1764767839.111122,-3.61662,1.7549,-0.03052,0.97387446,-0.039123435,0.14819298
1764767839.111122,-3.61662,1.7549,-0.03052,0.97387446,-0.039123435,0.14819298
1764767839.111122,-3.41824,1.51074,0.18312,0.973203075,-0.039489645,0.1489254
1764767839.111122,-3.41824,1.51074,0.18312,0.973203075,-0.039489645,0.1489254
1764767839.111122,-3.41824,1.51074,0.18312,0.973203075,-0.039489645,0.1489254
1764767839.111122,-3.41824,1.51074,0.18312,0.973203075,-0.039489645,0.1489254
1764767839.111122,-3.41824,1.51074,0.18312,0.973203075,-0.039489645,0.1489254
1764767839.111122,-3.41824,1.51074,0.18312,0.973203075,-0.039489645,0.1489254
1764767839.111122,-3.41824,1.51074,0.18312,0.973203075,-0.039489645,0.1489254
1764767839.111122,-3.41824,1.51074,0.18312,0.973203075,-0.039489645,0.1489254
1764767839.111122,-3.41824,1.51074,0.18312,0.973203075,-0.039489645,0.1489254
1764767839.111122,-3.41824,1.51074,0.18312,0.973203075,-0.039489645,0.1489254
1764767839.1565776,-3.54032,1.31236,0.25942,0.97387446,-0.039977925,0.14965782
1764767839.1565776,-3.54032,1.31236,0.25942,0.97387446,-0.039977925,0.14965782
1764767839.1565776,-3.54032,1.31236,0.25942,0.97387446,-0.039977925,0.14965782
1764767839.1565776,-3.54032,1.31236,0.25942,0.97387446,-0.039977925,0.14965782
1764767839.1565776,-3.54032,1.31236,0.25942,0.97387446,-0.039977925,0.14965782
1764767839.1565776,-3.54032,1.31236,0.25942,0.97387446,-0.039977925,0.14965782
1764767839.1565776,-3.54032,1.31236,0.25942,0.97387446,-0.039977925,0.14965782
1764767839.1565776,-3.54032,1.31236,0.25942,0.97387446,-0.039977925,0.14965782
1764767839.1565776,-3.54032,1.31236,0.25942,0.97387446,-0.039977925,0.14965782
1764767839.1565776,-3.54032,1.31236,0.25942,0.97387446,-0.039977925,0.14965782
1764767839.1565776,-3.02148,1.34288,-0.10682,0.97436274,-0.03991689,0.150207135
1764767839.1565776,-3.02148,1.34288,-0.10682,0.97436274,-0.03991689,0.150207135
1764767839.1565776,-3.02148,1.34288,-0.10682,0.97436274,-0.03991689,0.150207135
1764767839.1565776,-3.02148,1.34288,-0.10682,0.97436274,-0.03991689,0.150207135
1764767839.1565776,-3.02148,1.34288,-0.10682,0.97436274,-0.03991689,0.150207135
1764767839.1565776,-3.02148,1.34288,-0.10682,0.97436274,-0.03991689,0.150207135
1764767839.1565776,-3.02148,1.34288,-0.10682,0.97436274,-0.03991689,0.150207135
1764767839.1565776,-3.02148,1.34288,-0.10682,0.97436274,-0.03991689,0.150207135
1764767839.1565776,-3.02148,1.34288,-0.10682,0.97436274,-0.03991689,0.150207135
1764767839.1565776,-3.02148,1.34288,-0.10682,0.97436274,-0.03991689,0.150207135
1764767839.1565776,-3.2046,1.23606,0.24416,0.97387446,-0.04003896,0.150573345
1764767839.1565776,-3.2046,1.23606,0.24416,0.97387446,-0.04003896,0.150573345
1764767839.2005646,-3.2046,1.23606,0.24416,0.97387446,-0.04003896,0.150573345
1764767839.2005646,-3.2046,1.23606,0.24416,0.97387446,-0.04003896,0.150573345
1764767839.2005646,-3.2046,1.23606,0.24416,0.97387446,-0.04003896,0.150573345
1764767839.2005646,-3.2046,1.23606,0.24416,0.97387446,-0.04003896,0.150573345
1764767839.2005646,-3.2046,1.23606,0.24416,0.97387446,-0.04003896,0.150573345
1764767839.2005646,-3.2046,1.23606,0.24416,0.97387446,-0.04003896,0.150573345
1764767839.2005646,-3.2046,1.23606,0.24416,0.97387446,-0.04003896,0.150573345
1764767839.2005646,-3.2046,1.23606,0.24416,0.97387446,-0.04003896,0.150573345
1764767839.2005646,-3.31142,1.61756,0.50358,0.974057565,-0.039489645,0.149840925
1764767839.2005646,-3.31142,1.61756,0.50358,0.974057565,-0.039489645,0.149840925
1764767839.2005646,-3.31142,1.61756,0.50358,0.974057565,-0.039489645,0.149840925
1764767839.2005646,-3.31142,1.61756,0.50358,0.974057565,-0.039489645,0.149840925
1764767839.2005646,-3.31142,1.61756,0.50358,0.974057565,-0.039489645,0.149840925
1764767839.2005646,-3.31142,1.61756,0.50358,0.974057565,-0.039489645,0.149840925
1764767839.2005646,-3.31142,1.61756,0.50358,0.974057565,-0.039489645,0.149840925
1764767839.2005646,-3.31142,1.61756,0.50358,0.974057565,-0.039489645,0.149840925
1764767839.2005646,-3.31142,1.61756,0.50358,0.974057565,-0.039489645,0.149840925
1764767839.2005646,-3.31142,1.61756,0.50358,0.974057565,-0.039489645,0.149840925
1764767839.2005646,-3.5861,1.49548,0.6867,0.974667915,-0.03955068,0.149962995
1764767839.2005646,-3.5861,1.49548,0.6867,0.974667915,-0.03955068,0.149962995
1764767839.2005646,-3.5861,1.49548,0.6867,0.974667915,-0.03955068,0.149962995
1764767839.2005646,-3.5861,1.49548,0.6867,0.974667915,-0.03955068,0.149962995
1764767839.2005646,-3.5861,1.49548,0.6867,0.974667915,-0.03955068,0.149962995
1764767839.2005646,-3.5861,1.49548,0.6867,0.974667915,-0.03955068,0.149962995
1764767839.2475555,-3.5861,1.49548,0.6867,0.974667915,-0.03955068,0.149962995
1764767839.2475555,-3.5861,1.49548,0.6867,0.974667915,-0.03955068,0.149962995
1764767839.2475555,-3.5861,1.49548,0.6867,0.974667915,-0.03955068,0.149962995
1764767839.2475555,-3.5861,1.49548,0.6867,0.974667915,-0.03955068,0.149962995
1764767839.2475555,-3.40298,1.55652,0.7019599999999999,0.97485102,-0.039367575,0.150329205
1764767839.2475555,-3.40298,1.55652,0.7019599999999999,0.97485102,-0.039367575,0.150329205
1764767839.2475555,-3.40298,1.55652,0.7019599999999999,0.97485102,-0.039367575,0.150329205
1764767839.2475555,-3.40298,1.55652,0.7019599999999999,0.97485102,-0.039367575,0.150329205
1764767839.2475555,-3.40298,1.55652,0.7019599999999999,0.97485102,-0.039367575,0.150329205
1764767839.2475555,-3.40298,1.55652,0.7019599999999999,0.97485102,-0.039367575,0.150329205
1764767839.2475555,-3.40298,1.55652,0.7019599999999999,0.97485102,-0.039367575,0.150329205
1764767839.2475555,-3.40298,1.55652,0.7019599999999999,0.97485102,-0.039367575,0.150329205
1764767839.2475555,-3.40298,1.55652,0.7019599999999999,0.97485102,-0.039367575,0.150329205
1764767839.2475555,-3.40298,1.55652,0.7019599999999999,0.97485102,-0.039367575,0.150329205
1764767839.2475555,-3.67766,1.51074,0.8087799999999999,0.974301705,-0.0390624,0.150573345
1764767839.2475555,-3.67766,1.51074,0.8087799999999999,0.974301705,-0.0390624,0.150573345
1764767839.2475555,-3.67766,1.51074,0.8087799999999999,0.974301705,-0.0390624,0.150573345
1764767839.2475555,-3.67766,1.51074,0.8087799999999999,0.974301705,-0.0390624,0.150573345
1764767839.2475555,-3.67766,1.51074,0.8087799999999999,0.974301705,-0.0390624,0.150573345
1764767839.2475555,-3.67766,1.51074,0.8087799999999999,0.974301705,-0.0390624,0.150573345
1764767839.2475555,-3.67766,1.51074,0.8087799999999999,0.974301705,-0.0390624,0.150573345
1764767839.2475555,-3.67766,1.51074,0.8087799999999999,0.974301705,-0.0390624,0.150573345
1764767839.2485693,-3.67766,1.51074,0.8087799999999999,0.974301705,-0.0390624,0.150573345
1764767839.2485693,-3.67766,1.51074,0.8087799999999999,0.974301705,-0.0390624,0.150573345
1764767839.295389,-3.55558,1.51074,1.12924,0.97350825,-0.03955068,0.15075645
1764767839.295389,-3.55558,1.51074,1.12924,0.97350825,-0.03955068,0.15075645
1764767839.295389,-3.55558,1.51074,1.12924,0.97350825,-0.03955068,0.15075645
1764767839.295389,-3.55558,1.51074,1.12924,0.97350825,-0.03955068,0.15075645
1764767839.295389,-3.55558,1.51074,1.12924,0.97350825,-0.03955068,0.15075645
1764767839.295389,-3.55558,1.51074,1.12924,0.97350825,-0.03955068,0.15075645
1764767839.295389,-3.55558,1.51074,1.12924,0.97350825,-0.03955068,0.15075645
1764767839.295389,-3.55558,1.51074,1.12924,0.97350825,-0.03955068,0.15075645
1764767839.295389,-3.55558,1.51074,1.12924,0.97350825,-0.03955068,0.15075645
1764767839.295389,-3.55558,1.51074,1.12924,0.97350825,-0.03955068,0.15075645
1764767839.295389,-2.96044,1.2971,0.97664,0.974057565,-0.03942861,0.151061625
1764767839.295389,-2.96044,1.2971,0.97664,0.974057565,-0.03942861,0.151061625
1764767839.295389,-2.96044,1.2971,0.97664,0.974057565,-0.03942861,0.151061625
1764767839.295389,-2.96044,1.2971,0.97664,0.974057565,-0.03942861,0.151061625
1764767839.295389,-2.96044,1.2971,0.97664,0.974057565,-0.03942861,0.151061625
1764767839.295389,-2.96044,1.2971,0.97664,0.974057565,-0.03942861,0.151061625
1764767839.295389,-2.96044,1.2971,0.97664,0.974057565,-0.03942861,0.151061625
1764767839.295389,-2.96044,1.2971,0.97664,0.974057565,-0.03942861,0.151061625
1764767839.296406,-2.96044,1.2971,0.97664,0.974057565,-0.03942861,0.151061625
1764767839.296406,-2.96044,1.2971,0.97664,0.974057565,-0.03942861,0.151061625
1764767839.296406,-3.29616,1.15976,1.43444,0.97350825,-0.03942861,0.151305765
1764767839.296406,-3.29616,1.15976,1.43444,0.97350825,-0.03942861,0.151305765
1764767839.338731,-3.29616,1.15976,1.43444,0.97350825,-0.03942861,0.151305765
1764767839.338731,-3.29616,1.15976,1.43444,0.97350825,-0.03942861,0.151305765
1764767839.338731,-3.29616,1.15976,1.43444,0.97350825,-0.03942861,0.151305765
1764767839.338731,-3.29616,1.15976,1.43444,0.97350825,-0.03942861,0.151305765
1764767839.338731,-3.29616,1.15976,1.43444,0.97350825,-0.03942861,0.151305765
1764767839.338731,-3.29616,1.15976,1.43444,0.97350825,-0.03942861,0.151305765
1764767839.338731,-3.29616,1.15976,1.43444,0.97350825,-0.03942861,0.151305765
1764767839.338731,-3.29616,1.15976,1.43444,0.97350825,-0.03942861,0.151305765
1764767839.338731,-3.21986,1.51074,1.4497,0.973813425,-0.039855855,0.151549905
1764767839.338731,-3.21986,1.51074,1.4497,0.973813425,-0.039855855,0.151549905
1764767839.338731,-3.21986,1.51074,1.4497,0.973813425,-0.039855855,0.151549905
1764767839.338731,-3.21986,1.51074,1.4497,0.973813425,-0.039855855,0.151549905
1764767839.338731,-3.21986,1.51074,1.4497,0.973813425,-0.039855855,0.151549905
1764767839.338731,-3.21986,1.51074,1.4497,0.973813425,-0.039855855,0.151549905
1764767839.338731,-3.21986,1.51074,1.4497,0.973813425,-0.039855855,0.151549905
1764767839.338731,-3.21986,1.51074,1.4497,0.973813425,-0.039855855,0.151549905
1764767839.338731,-3.21986,1.51074,1.4497,0.973813425,-0.039855855,0.151549905
1764767839.338731,-3.21986,1.51074,1.4497,0.973813425,-0.039855855,0.151549905
1764767839.338731,-3.52506,0.9156,1.02242,0.973081005,-0.039367575,0.151549905
1764767839.338731,-3.52506,0.9156,1.02242,0.973081005,-0.039367575,0.151549905
1764767839.338731,-3.52506,0.9156,1.02242,0.973081005,-0.039367575,0.151549905
1764767839.338731,-3.52506,0.9156,1.02242,0.973081005,-0.039367575,0.151549905
1764767839.338731,-3.52506,0.9156,1.02242,0.973081005,-0.039367575,0.151549905
1764767839.338731,-3.52506,0.9156,1.02242,0.973081005,-0.039367575,0.151549905
1764767839.3847115,-3.52506,0.9156,1.02242,0.973081005,-0.039367575,0.151549905
1764767839.3847115,-3.52506,0.9156,1.02242,0.973081005,-0.039367575,0.151549905
1764767839.3847115,-3.52506,0.9156,1.02242,0.973081005,-0.039367575,0.151549905
1764767839.3847115,-3.52506,0.9156,1.02242,0.973081005,-0.039367575,0.151549905
1764767839.3847115,-3.46402,0.51884,1.6022999999999998,0.97277583,-0.039123435,0.15124473
1764767839.3847115,-3.46402,0.51884,1.6022999999999998,0.97277583,-0.039123435,0.15124473
1764767839.3847115,-3.46402,0.51884,1.6022999999999998,0.97277583,-0.039123435,0.15124473
1764767839.3847115,-3.46402,0.51884,1.6022999999999998,0.97277583,-0.039123435,0.15124473
1764767839.3847115,-3.46402,0.51884,1.6022999999999998,0.97277583,-0.039123435,0.15124473
1764767839.3847115,-3.46402,0.51884,1.6022999999999998,0.97277583,-0.039123435,0.15124473
1764767839.3847115,-3.46402,0.51884,1.6022999999999998,0.97277583,-0.039123435,0.15124473
1764767839.3847115,-3.46402,0.51884,1.6022999999999998,0.97277583,-0.039123435,0.15124473
1764767839.3847115,-3.46402,0.51884,1.6022999999999998,0.97277583,-0.039123435,0.15124473
1764767839.3847115,-3.46402,0.51884,1.6022999999999998,0.97277583,-0.039123435,0.15124473
1764767839.3847115,-3.69292,1.00716,1.8312,0.973203075,-0.0402831,0.15185508
1764767839.3847115,-3.69292,1.00716,1.8312,0.973203075,-0.0402831,0.15185508
1764767839.3847115,-3.69292,1.00716,1.8312,0.973203075,-0.0402831,0.15185508
1764767839.3847115,-3.69292,1.00716,1.8312,0.973203075,-0.0402831,0.15185508
1764767839.3847115,-3.69292,1.00716,1.8312,0.973203075,-0.0402831,0.15185508
1764767839.3847115,-3.69292,1.00716,1.8312,0.973203075,-0.0402831,0.15185508
1764767839.3847115,-3.69292,1.00716,1.8312,0.973203075,-0.0402831,0.15185508
1764767839.3847115,-3.69292,1.00716,1.8312,0.973203075,-0.0402831,0.15185508
1764767839.434451,-3.69292,1.00716,1.8312,0.973203075,-0.0402831,0.15185508
1764767839.434451,-3.69292,1.00716,1.8312,0.973203075,-0.0402831,0.15185508
1764767839.434451,-3.49454,1.02242,1.23606,0.974179635,-0.039855855,0.15148887
1764767839.434451,-3.49454,1.02242,1.23606,0.974179635,-0.039855855,0.15148887
1764767839.434451,-3.49454,1.02242,1.23606,0.974179635,-0.039855855,0.15148887
1764767839.434451,-3.49454,1.02242,1.23606,0.974179635,-0.039855855,0.15148887
1764767839.434451,-3.49454,1.02242,1.23606,0.974179635,-0.039855855,0.15148887
1764767839.434451,-3.49454,1.02242,1.23606,0.974179635,-0.039855855,0.15148887
1764767839.434451,-3.49454,1.02242,1.23606,0.974179635,-0.039855855,0.15148887
1764767839.434451,-3.49454,1.02242,1.23606,0.974179635,-0.039855855,0.15148887
1764767839.434451,-3.49454,1.02242,1.23606,0.974179635,-0.039855855,0.15148887
1764767839.434451,-3.49454,1.02242,1.23606,0.974179635,-0.039855855,0.15148887
1764767839.434451,-3.8913,0.97664,1.2208,0.97472895,-0.03979482,0.150817485
1764767839.434451,-3.8913,0.97664,1.2208,0.97472895,-0.03979482,0.150817485
1764767839.434451,-3.8913,0.97664,1.2208,0.97472895,-0.03979482,0.150817485
1764767839.434451,-3.8913,0.97664,1.2208,0.97472895,-0.03979482,0.150817485
1764767839.434451,-3.8913,0.97664,1.2208,0.97472895,-0.03979482,0.150817485
1764767839.434451,-3.8913,0.97664,1.2208,0.97472895,-0.03979482,0.150817485
1764767839.434451,-3.8913,0.97664,1.2208,0.97472895,-0.03979482,0.150817485
1764767839.434451,-3.8913,0.97664,1.2208,0.97472895,-0.03979482,0.150817485
1764767839.434451,-3.8913,0.97664,1.2208,0.97472895,-0.03979482,0.150817485
1764767839.434451,-3.8913,0.97664,1.2208,0.97472895,-0.03979482,0.150817485
1764767839.434451,-4.08968,1.23606,1.08346,0.973325145,-0.04064931,0.15087852
1764767839.4354675,-4.08968,1.23606,1.08346,0.973325145,-0.04064931,0.15087852
1764767839.481433,-4.08968,1.23606,1.08346,0.973325145,-0.04064931,0.15087852
1764767839.481954,-4.08968,1.23606,1.08346,0.973325145,-0.04064931,0.15087852
1764767839.481954,-4.08968,1.23606,1.08346,0.973325145,-0.04064931,0.15087852
1764767839.481954,-4.08968,1.23606,1.08346,0.973325145,-0.04064931,0.15087852
1764767839.481954,-4.08968,1.23606,1.08346,0.973325145,-0.04064931,0.15087852
1764767839.481954,-4.08968,1.23606,1.08346,0.973325145,-0.04064931,0.15087852
1764767839.481954,-4.08968,1.23606,1.08346,0.973325145,-0.04064931,0.15087852
1764767839.481954,-4.08968,1.23606,1.08346,0.973325145,-0.04064931,0.15087852
1764767839.481954,-4.0439,0.96138,0.9919,0.97363032,-0.04125966,0.15124473
1764767839.481954,-4.0439,0.96138,0.9919,0.97363032,-0.04125966,0.15124473
1764767839.481954,-4.0439,0.96138,0.9919,0.97363032,-0.04125966,0.15124473
1764767839.481954,-4.0439,0.96138,0.9919,0.97363032,-0.04125966,0.15124473
1764767839.481954,-4.0439,0.96138,0.9919,0.97363032,-0.04125966,0.15124473
1764767839.481954,-4.0439,0.96138,0.9919,0.97363032,-0.04125966,0.15124473
1764767839.481954,-4.0439,0.96138,0.9919,0.97363032,-0.04125966,0.15124473
1764767839.481954,-4.0439,0.96138,0.9919,0.97363032,-0.04125966,0.15124473
1764767839.481954,-4.0439,0.96138,0.9919,0.97363032,-0.04125966,0.15124473
1764767839.481954,-4.0439,0.96138,0.9919,0.97363032,-0.04125966,0.15124473
1764767839.481954,-3.63188,1.11398,0.8087799999999999,0.97326411,-0.04101552,0.150939555
1764767839.481954,-3.63188,1.11398,0.8087799999999999,0.97326411,-0.04101552,0.150939555
1764767839.481954,-3.63188,1.11398,0.8087799999999999,0.97326411,-0.04101552,0.150939555
1764767839.481954,-3.63188,1.11398,0.8087799999999999,0.97326411,-0.04101552,0.150939555
1764767839.481954,-3.63188,1.11398,0.8087799999999999,0.97326411,-0.04101552,0.150939555
1764767839.481954,-3.63188,1.11398,0.8087799999999999,0.97326411,-0.04101552,0.150939555
1764767839.528292,-3.63188,1.11398,0.8087799999999999,0.97326411,-0.04101552,0.150939555
1764767839.528292,-3.63188,1.11398,0.8087799999999999,0.97326411,-0.04101552,0.150939555
1764767839.528292,-3.63188,1.11398,0.8087799999999999,0.97326411,-0.04101552,0.150939555
1764767839.528292,-3.63188,1.11398,0.8087799999999999,0.97326411,-0.04101552,0.150939555
1764767839.528292,-3.70818,1.05294,1.00716,0.97363032,-0.04174794,0.151061625
1764767839.528292,-3.70818,1.05294,1.00716,0.97363032,-0.04174794,0.151061625
1764767839.528292,-3.70818,1.05294,1.00716,0.97363032,-0.04174794,0.151061625
1764767839.528292,-3.70818,1.05294,1.00716,0.97363032,-0.04174794,0.151061625
1764767839.528292,-3.70818,1.05294,1.00716,0.97363032,-0.04174794,0.151061625
1764767839.528292,-3.70818,1.05294,1.00716,0.97363032,-0.04174794,0.151061625
1764767839.528292,-3.70818,1.05294,1.00716,0.97363032,-0.04174794,0.151061625
1764767839.528292,-3.70818,1.05294,1.00716,0.97363032,-0.04174794,0.151061625
1764767839.528292,-3.70818,1.05294,1.00716,0.97363032,-0.04174794,0.151061625
1764767839.528292,-3.70818,1.05294,1.00716,0.97363032,-0.04174794,0.151061625
1764767839.528292,-3.75396,0.94612,0.54936,0.973935495,-0.04248036,0.15112266
1764767839.528292,-3.75396,0.94612,0.54936,0.973935495,-0.04248036,0.15112266
1764767839.528292,-3.75396,0.94612,0.54936,0.973935495,-0.04248036,0.15112266
1764767839.528292,-3.75396,0.94612,0.54936,0.973935495,-0.04248036,0.15112266
1764767839.528292,-3.75396,0.94612,0.54936,0.973935495,-0.04248036,0.15112266
1764767839.528292,-3.75396,0.94612,0.54936,0.973935495,-0.04248036,0.15112266
1764767839.528292,-3.75396,0.94612,0.54936,0.973935495,-0.04248036,0.15112266
1764767839.528292,-3.75396,0.94612,0.54936,0.973935495,-0.04248036,0.15112266
1764767839.528292,-3.75396,0.94612,0.54936,0.973935495,-0.04248036,0.15112266
1764767839.528292,-3.75396,0.94612,0.54936,0.973935495,-0.04248036,0.15112266
1764767839.5747497,-3.60136,0.44254,0.47306,0.972714795,-0.04345692,0.151061625
1764767839.5747497,-3.60136,0.44254,0.47306,0.972714795,-0.04345692,0.151061625
1764767839.5747497,-3.60136,0.44254,0.47306,0.972714795,-0.04345692,0.151061625
1764767839.5747497,-3.60136,0.44254,0.47306,0.972714795,-0.04345692,0.151061625
1764767839.5752535,-3.60136,0.44254,0.47306,0.972714795,-0.04345692,0.151061625
1764767839.5752535,-3.60136,0.44254,0.47306,0.972714795,-0.04345692,0.151061625
1764767839.5752535,-3.60136,0.44254,0.47306,0.972714795,-0.04345692,0.151061625
1764767839.5752535,-3.60136,0.44254,0.47306,0.972714795,-0.04345692,0.151061625
1764767839.5752535,-3.60136,0.44254,0.47306,0.972714795,-0.04345692,0.151061625
1764767839.5752535,-3.60136,0.44254,0.47306,0.972714795,-0.04345692,0.151061625
1764767839.5752535,-2.99096,-0.18312,0.93086,0.97240962,-0.04431141,0.15100059
1764767839.5752535,-2.99096,-0.18312,0.93086,0.97240962,-0.04431141,0.15100059
1764767839.5752535,-2.99096,-0.18312,0.93086,0.97240962,-0.04431141,0.15100059
1764767839.5752535,-2.99096,-0.18312,0.93086,0.97240962,-0.04431141,0.15100059
1764767839.5752535,-2.99096,-0.18312,0.93086,0.97240962,-0.04431141,0.15100059
1764767839.5752535,-2.99096,-0.18312,0.93086,0.97240962,-0.04431141,0.15100059
1764767839.5752535,-2.99096,-0.18312,0.93086,0.97240962,-0.04431141,0.15100059
1764767839.5752535,-2.99096,-0.18312,0.93086,0.97240962,-0.04431141,0.15100059
1764767839.5752535,-2.99096,-0.18312,0.93086,0.97240962,-0.04431141,0.15100059
1764767839.5752535,-2.99096,-0.18312,0.93086,0.97240962,-0.04431141,0.15100059
1764767839.5752535,-3.17408,-0.06104,0.25942,0.97375239,-0.042785535,0.15124473
1764767839.5752535,-3.17408,-0.06104,0.25942,0.97375239,-0.042785535,0.15124473
1764767839.6211565,-3.17408,-0.06104,0.25942,0.97375239,-0.042785535,0.15124473
1764767839.6211565,-3.17408,-0.06104,0.25942,0.97375239,-0.042785535,0.15124473
1764767839.6211565,-3.17408,-0.06104,0.25942,0.97375239,-0.042785535,0.15124473
1764767839.6211565,-3.17408,-0.06104,0.25942,0.97375239,-0.042785535,0.15124473
1764767839.6211565,-3.17408,-0.06104,0.25942,0.97375239,-0.042785535,0.15124473
1764767839.6211565,-3.17408,-0.06104,0.25942,0.97375239,-0.042785535,0.15124473
1764767839.6211565,-3.17408,-0.06104,0.25942,0.97375239,-0.042785535,0.15124473
1764767839.6211565,-3.17408,-0.06104,0.25942,0.97375239,-0.042785535,0.15124473
1764767839.6211565,-3.5861,0.48832,-0.10682,0.97521723,-0.041076555,0.150939555
1764767839.6211565,-3.5861,0.48832,-0.10682,0.97521723,-0.041076555,0.150939555
1764767839.6216683,-3.5861,0.48832,-0.10682,0.97521723,-0.041076555,0.150939555
1764767839.6216683,-3.5861,0.48832,-0.10682,0.97521723,-0.041076555,0.150939555
1764767839.6216683,-3.5861,0.48832,-0.10682,0.97521723,-0.041076555,0.150939555
1764767839.6216683,-3.5861,0.48832,-0.10682,0.97521723,-0.041076555,0.150939555
1764767839.6216683,-3.5861,0.48832,-0.10682,0.97521723,-0.041076555,0.150939555
1764767839.6216683,-3.5861,0.48832,-0.10682,0.97521723,-0.041076555,0.150939555
1764767839.6216683,-3.5861,0.48832,-0.10682,0.97521723,-0.041076555,0.150939555
1764767839.6216683,-3.5861,0.48832,-0.10682,0.97521723,-0.041076555,0.150939555
1764767839.6216683,-3.84552,0.79352,-0.39676,0.974912055,-0.03918447,0.151061625
1764767839.6216683,-3.84552,0.79352,-0.39676,0.974912055,-0.03918447,0.151061625
1764767839.6216683,-3.84552,0.79352,-0.39676,0.974912055,-0.03918447,0.151061625
1764767839.6216683,-3.84552,0.79352,-0.39676,0.974912055,-0.03918447,0.151061625
1764767839.6216683,-3.84552,0.79352,-0.39676,0.974912055,-0.03918447,0.151061625
1764767839.6216683,-3.84552,0.79352,-0.39676,0.974912055,-0.03918447,0.151061625
1764767839.6693552,-3.84552,0.79352,-0.39676,0.974912055,-0.03918447,0.151061625
1764767839.6693552,-3.84552,0.79352,-0.39676,0.974912055,-0.03918447,0.151061625
1764767839.6693552,-3.84552,0.79352,-0.39676,0.974912055,-0.03918447,0.151061625
1764767839.6693552,-3.84552,0.79352,-0.39676,0.974912055,-0.03918447,0.151061625
1764767839.6693552,-4.4254,1.25132,-0.85456,0.97375239,-0.0378417,0.15039024
1764767839.6693552,-4.4254,1.25132,-0.85456,0.97375239,-0.0378417,0.15039024
1764767839.6693552,-4.4254,1.25132,-0.85456,0.97375239,-0.0378417,0.15039024
1764767839.6693552,-4.4254,1.25132,-0.85456,0.97375239,-0.0378417,0.15039024
1764767839.6693552,-4.4254,1.25132,-0.85456,0.97375239,-0.0378417,0.15039024
1764767839.6693552,-4.4254,1.25132,-0.85456,0.97375239,-0.0378417,0.15039024
1764767839.6693552,-4.4254,1.25132,-0.85456,0.97375239,-0.0378417,0.15039024
1764767839.6693552,-4.4254,1.25132,-0.85456,0.97375239,-0.0378417,0.15039024
1764767839.6693552,-4.4254,1.25132,-0.85456,0.97375239,-0.0378417,0.15039024
1764767839.6693552,-4.4254,1.25132,-0.85456,0.97375239,-0.0378417,0.15039024
1764767839.6693552,-4.74586,1.31236,-0.50358,0.97375239,-0.03735342,0.149352645
1764767839.6693552,-4.74586,1.31236,-0.50358,0.97375239,-0.03735342,0.149352645
1764767839.6693552,-4.74586,1.31236,-0.50358,0.97375239,-0.03735342,0.149352645
1764767839.6693552,-4.74586,1.31236,-0.50358,0.97375239,-0.03735342,0.149352645
1764767839.6693552,-4.74586,1.31236,-0.50358,0.97375239,-0.03735342,0.149352645
1764767839.6693552,-4.74586,1.31236,-0.50358,0.97375239,-0.03735342,0.149352645
1764767839.6693552,-4.74586,1.31236,-0.50358,0.97375239,-0.03735342,0.149352645
1764767839.6693552,-4.74586,1.31236,-0.50358,0.97375239,-0.03735342,0.149352645
1764767839.6693552,-4.74586,1.31236,-0.50358,0.97375239,-0.03735342,0.149352645
1764767839.6693552,-4.74586,1.31236,-0.50358,0.97375239,-0.03735342,0.149352645
1764767839.7153952,-4.440659999999999,1.15976,-0.03052,0.97399653,-0.0378417,0.14977989
1764767839.7153952,-4.440659999999999,1.15976,-0.03052,0.97399653,-0.0378417,0.14977989
1764767839.7153952,-4.440659999999999,1.15976,-0.03052,0.97399653,-0.0378417,0.14977989
1764767839.7153952,-4.440659999999999,1.15976,-0.03052,0.97399653,-0.0378417,0.14977989
1764767839.7153952,-4.440659999999999,1.15976,-0.03052,0.97399653,-0.0378417,0.14977989
1764767839.7153952,-4.440659999999999,1.15976,-0.03052,0.97399653,-0.0378417,0.14977989
1764767839.7153952,-4.440659999999999,1.15976,-0.03052,0.97399653,-0.0378417,0.14977989
1764767839.7153952,-4.440659999999999,1.15976,-0.03052,0.97399653,-0.0378417,0.14977989
1764767839.7153952,-4.440659999999999,1.15976,-0.03052,0.97399653,-0.0378417,0.14977989
1764767839.7153952,-4.440659999999999,1.15976,-0.03052,0.97399653,-0.0378417,0.14977989
1764767839.7153952,-4.66956,0.77826,0.47306,0.974423775,-0.038879295,0.14990196
1764767839.7153952,-4.66956,0.77826,0.47306,0.974423775,-0.038879295,0.14990196
1764767839.7153952,-4.66956,0.77826,0.47306,0.974423775,-0.038879295,0.14990196
1764767839.7153952,-4.66956,0.77826,0.47306,0.974423775,-0.038879295,0.14990196
1764767839.7153952,-4.66956,0.77826,0.47306,0.974423775,-0.038879295,0.14990196
1764767839.7153952,-4.66956,0.77826,0.47306,0.974423775,-0.038879295,0.14990196
1764767839.7153952,-4.66956,0.77826,0.47306,0.974423775,-0.038879295,0.14990196
1764767839.7168558,-4.66956,0.77826,0.47306,0.974423775,-0.038879295,0.14990196
1764767839.7168558,-4.66956,0.77826,0.47306,0.974423775,-0.038879295,0.14990196
1764767839.7168558,-4.66956,0.77826,0.47306,0.974423775,-0.038879295,0.14990196
1764767839.7168558,-4.15072,0.6867,0.0762999999999999,0.975278265,-0.03955068,0.15039024
1764767839.7168558,-4.15072,0.6867,0.0762999999999999,0.975278265,-0.03955068,0.15039024
1764767839.7632408,-4.15072,0.6867,0.0762999999999999,0.975278265,-0.03955068,0.15039024
1764767839.7632408,-4.15072,0.6867,0.0762999999999999,0.975278265,-0.03955068,0.15039024
1764767839.7632408,-4.15072,0.6867,0.0762999999999999,0.975278265,-0.03955068,0.15039024
1764767839.7632408,-4.15072,0.6867,0.0762999999999999,0.975278265,-0.03955068,0.15039024
1764767839.7632408,-4.15072,0.6867,0.0762999999999999,0.975278265,-0.03955068,0.15039024
1764767839.7632408,-4.15072,0.6867,0.0762999999999999,0.975278265,-0.03955068,0.15039024
1764767839.7632408,-4.15072,0.6867,0.0762999999999999,0.975278265,-0.03955068,0.15039024
1764767839.7632408,-4.15072,0.6867,0.0762999999999999,0.975278265,-0.03955068,0.15039024
1764767839.7632408,-3.83026,0.7019599999999999,0.94612,0.975522405,-0.040099995,0.15112266
1764767839.7632408,-3.83026,0.7019599999999999,0.94612,0.975522405,-0.040099995,0.15112266
1764767839.7632408,-3.83026,0.7019599999999999,0.94612,0.975522405,-0.040099995,0.15112266
1764767839.7632408,-3.83026,0.7019599999999999,0.94612,0.975522405,-0.040099995,0.15112266
1764767839.7632408,-3.83026,0.7019599999999999,0.94612,0.975522405,-0.040099995,0.15112266
1764767839.7632408,-3.83026,0.7019599999999999,0.94612,0.975522405,-0.040099995,0.15112266
1764767839.7632408,-3.83026,0.7019599999999999,0.94612,0.975522405,-0.040099995,0.15112266
1764767839.7632408,-3.83026,0.7019599999999999,0.94612,0.975522405,-0.040099995,0.15112266
1764767839.7632408,-3.83026,0.7019599999999999,0.94612,0.975522405,-0.040099995,0.15112266
1764767839.7632408,-3.83026,0.7019599999999999,0.94612,0.975522405,-0.040099995,0.15112266
1764767839.7632408,-3.34194,0.8698199999999999,0.6714399999999999,0.975278265,-0.03955068,0.15112266
1764767839.7632408,-3.34194,0.8698199999999999,0.6714399999999999,0.975278265,-0.03955068,0.15112266
1764767839.7648704,-3.34194,0.8698199999999999,0.6714399999999999,0.975278265,-0.03955068,0.15112266
1764767839.7648704,-3.34194,0.8698199999999999,0.6714399999999999,0.975278265,-0.03955068,0.15112266
1764767839.7648704,-3.34194,0.8698199999999999,0.6714399999999999,0.975278265,-0.03955068,0.15112266
1764767839.7648704,-3.34194,0.8698199999999999,0.6714399999999999,0.975278265,-0.03955068,0.15112266
1764767839.7648704,-3.34194,0.8698199999999999,0.6714399999999999,0.975278265,-0.03955068,0.15112266
1764767839.7648704,-3.34194,0.8698199999999999,0.6714399999999999,0.975278265,-0.03955068,0.15112266
1764767839.808148,-3.34194,0.8698199999999999,0.6714399999999999,0.975278265,-0.03955068,0.15112266
1764767839.808148,-3.34194,0.8698199999999999,0.6714399999999999,0.975278265,-0.03955068,0.15112266
1764767839.808148,-3.79974,0.7019599999999999,0.4578,0.97472895,-0.038635155,0.150695415
1764767839.808148,-3.79974,0.7019599999999999,0.4578,0.97472895,-0.038635155,0.150695415
1764767839.808148,-3.79974,0.7019599999999999,0.4578,0.97472895,-0.038635155,0.150695415
1764767839.808148,-3.79974,0.7019599999999999,0.4578,0.97472895,-0.038635155,0.150695415
1764767839.808148,-3.79974,0.7019599999999999,0.4578,0.97472895,-0.038635155,0.150695415
1764767839.808148,-3.79974,0.7019599999999999,0.4578,0.97472895,-0.038635155,0.150695415
1764767839.808148,-3.79974,0.7019599999999999,0.4578,0.97472895,-0.038635155,0.150695415
1764767839.808148,-3.79974,0.7019599999999999,0.4578,0.97472895,-0.038635155,0.150695415
1764767839.808148,-3.79974,0.7019599999999999,0.4578,0.97472895,-0.038635155,0.150695415
1764767839.808148,-3.79974,0.7019599999999999,0.4578,0.97472895,-0.038635155,0.150695415
1764767839.808148,-3.98286,0.8087799999999999,0.6103999999999999,0.97387446,-0.038513085,0.149962995
1764767839.808148,-3.98286,0.8087799999999999,0.6103999999999999,0.97387446,-0.038513085,0.149962995
1764767839.808148,-3.98286,0.8087799999999999,0.6103999999999999,0.97387446,-0.038513085,0.149962995
1764767839.808148,-3.98286,0.8087799999999999,0.6103999999999999,0.97387446,-0.038513085,0.149962995
1764767839.808148,-3.98286,0.8087799999999999,0.6103999999999999,0.97387446,-0.038513085,0.149962995
1764767839.808148,-3.98286,0.8087799999999999,0.6103999999999999,0.97387446,-0.038513085,0.149962995
1764767839.808148,-3.98286,0.8087799999999999,0.6103999999999999,0.97387446,-0.038513085,0.149962995
1764767839.808148,-3.98286,0.8087799999999999,0.6103999999999999,0.97387446,-0.038513085,0.149962995
1764767839.808148,-3.98286,0.8087799999999999,0.6103999999999999,0.97387446,-0.038513085,0.149962995
1764767839.808148,-3.98286,0.8087799999999999,0.6103999999999999,0.97387446,-0.038513085,0.149962995
1764767839.854782,-4.07442,0.6409199999999999,0.94612,0.97375239,-0.03820791,0.149718855
1764767839.854782,-4.07442,0.6409199999999999,0.94612,0.97375239,-0.03820791,0.149718855
1764767839.854782,-4.07442,0.6409199999999999,0.94612,0.97375239,-0.03820791,0.149718855
1764767839.854782,-4.07442,0.6409199999999999,0.94612,0.97375239,-0.03820791,0.149718855
1764767839.854782,-4.07442,0.6409199999999999,0.94612,0.97375239,-0.03820791,0.149718855
1764767839.854782,-4.07442,0.6409199999999999,0.94612,0.97375239,-0.03820791,0.149718855
1764767839.854782,-4.07442,0.6409199999999999,0.94612,0.97375239,-0.03820791,0.149718855
1764767839.854782,-4.07442,0.6409199999999999,0.94612,0.97375239,-0.03820791,0.149718855
1764767839.854782,-4.07442,0.6409199999999999,0.94612,0.97375239,-0.03820791,0.149718855
1764767839.854782,-4.07442,0.6409199999999999,0.94612,0.97375239,-0.03820791,0.149718855
1764767839.854782,-3.72344,0.9156,1.41918,0.973325145,-0.03894033,0.149352645
1764767839.854782,-3.72344,0.9156,1.41918,0.973325145,-0.03894033,0.149352645
1764767839.854782,-3.72344,0.9156,1.41918,0.973325145,-0.03894033,0.149352645
1764767839.854782,-3.72344,0.9156,1.41918,0.973325145,-0.03894033,0.149352645
1764767839.854782,-3.72344,0.9156,1.41918,0.973325145,-0.03894033,0.149352645
1764767839.854782,-3.72344,0.9156,1.41918,0.973325145,-0.03894033,0.149352645
1764767839.854782,-3.72344,0.9156,1.41918,0.973325145,-0.03894033,0.149352645
1764767839.854782,-3.72344,0.9156,1.41918,0.973325145,-0.03894033,0.149352645
1764767839.854782,-3.72344,0.9156,1.41918,0.973325145,-0.03894033,0.149352645
1764767839.854782,-3.72344,0.9156,1.41918,0.973325145,-0.03894033,0.149352645
1764767839.854782,-3.815,0.73248,1.4039199999999998,0.97301997,-0.039733785,0.14868126
1764767839.854782,-3.815,0.73248,1.4039199999999998,0.97301997,-0.039733785,0.14868126
1764767839.854782,-3.815,0.73248,1.4039199999999998,0.97301997,-0.039733785,0.14868126
1764767839.854782,-3.815,0.73248,1.4039199999999998,0.97301997,-0.039733785,0.14868126
1764767839.9029944,-3.815,0.73248,1.4039199999999998,0.97301997,-0.039733785,0.14868126
1764767839.9029944,-3.815,0.73248,1.4039199999999998,0.97301997,-0.039733785,0.14868126
1764767839.9029944,-3.815,0.73248,1.4039199999999998,0.97301997,-0.039733785,0.14868126
1764767839.9029944,-3.815,0.73248,1.4039199999999998,0.97301997,-0.039733785,0.14868126
1764767839.9029944,-3.815,0.73248,1.4039199999999998,0.97301997,-0.039733785,0.14868126
1764767839.9029944,-3.815,0.73248,1.4039199999999998,0.97301997,-0.039733785,0.14868126
1764767839.9029944,-3.54032,0.57988,1.6022999999999998,0.973691355,-0.04101552,0.14916954
1764767839.9029944,-3.54032,0.57988,1.6022999999999998,0.973691355,-0.04101552,0.14916954
1764767839.9029944,-3.54032,0.57988,1.6022999999999998,0.973691355,-0.04101552,0.14916954
1764767839.9029944,-3.54032,0.57988,1.6022999999999998,0.973691355,-0.04101552,0.14916954
1764767839.9029944,-3.54032,0.57988,1.6022999999999998,0.973691355,-0.04101552,0.14916954
1764767839.9029944,-3.54032,0.57988,1.6022999999999998,0.973691355,-0.04101552,0.14916954
1764767839.9029944,-3.54032,0.57988,1.6022999999999998,0.973691355,-0.04101552,0.14916954
1764767839.9029944,-3.54032,0.57988,1.6022999999999998,0.973691355,-0.04101552,0.14916954
1764767839.9029944,-3.54032,0.57988,1.6022999999999998,0.973691355,-0.04101552,0.14916954
1764767839.9029944,-3.54032,0.57988,1.6022999999999998,0.973691355,-0.04101552,0.14916954
1764767839.9029944,-3.09778,0.88508,0.9919,0.973203075,-0.042053115,0.149962995
1764767839.9029944,-3.09778,0.88508,0.9919,0.973203075,-0.042053115,0.149962995
1764767839.9029944,-3.09778,0.88508,0.9919,0.973203075,-0.042053115,0.149962995
1764767839.9029944,-3.09778,0.88508,0.9919,0.973203075,-0.042053115,0.149962995
1764767839.9029944,-3.09778,0.88508,0.9919,0.973203075,-0.042053115,0.149962995
1764767839.9029944,-3.09778,0.88508,0.9919,0.973203075,-0.042053115,0.149962995
1764767839.95004,-3.09778,0.88508,0.9919,0.973203075,-0.042053115,0.149962995
1764767839.95004,-3.09778,0.88508,0.9919,0.973203075,-0.042053115,0.149962995
1764767839.95004,-3.09778,0.88508,0.9919,0.973203075,-0.042053115,0.149962995
1764767839.95004,-3.09778,0.88508,0.9919,0.973203075,-0.042053115,0.149962995
1764767839.95004,-3.32668,1.25132,0.21364,0.97436274,-0.042053115,0.14941368
1764767839.95004,-3.32668,1.25132,0.21364,0.97436274,-0.042053115,0.14941368
1764767839.95004,-3.32668,1.25132,0.21364,0.97436274,-0.042053115,0.14941368
1764767839.95004,-3.32668,1.25132,0.21364,0.97436274,-0.042053115,0.14941368
1764767839.95004,-3.32668,1.25132,0.21364,0.97436274,-0.042053115,0.14941368
1764767839.95004,-3.32668,1.25132,0.21364,0.97436274,-0.042053115,0.14941368
1764767839.95004,-3.32668,1.25132,0.21364,0.97436274,-0.042053115,0.14941368
1764767839.95004,-3.32668,1.25132,0.21364,0.97436274,-0.042053115,0.14941368
1764767839.95004,-3.32668,1.25132,0.21364,0.97436274,-0.042053115,0.14941368
1764767839.95004,-3.32668,1.25132,0.21364,0.97436274,-0.042053115,0.14941368
1764767839.95004,-3.5098,1.63282,0.18312,0.975644475,-0.04138173,0.148864365
1764767839.95004,-3.5098,1.63282,0.18312,0.975644475,-0.04138173,0.148864365
1764767839.95004,-3.5098,1.63282,0.18312,0.975644475,-0.04138173,0.148864365
1764767839.95004,-3.5098,1.63282,0.18312,0.975644475,-0.04138173,0.148864365
1764767839.95004,-3.5098,1.63282,0.18312,0.975644475,-0.04138173,0.148864365
1764767839.95004,-3.5098,1.63282,0.18312,0.975644475,-0.04138173,0.148864365
1764767839.95004,-3.5098,1.63282,0.18312,0.975644475,-0.04138173,0.148864365
1764767839.95004,-3.5098,1.63282,0.18312,0.975644475,-0.04138173,0.148864365
1764767839.95004,-3.5098,1.63282,0.18312,0.975644475,-0.04138173,0.148864365
1764767839.95004,-3.5098,1.63282,0.18312,0.975644475,-0.04138173,0.148864365
1764767839.9936347,-4.2728,2.27374,-0.0762999999999999,0.976498965,-0.040099995,0.149230575
1764767839.9936347,-4.2728,2.27374,-0.0762999999999999,0.976498965,-0.040099995,0.149230575
1764767839.9936347,-4.2728,2.27374,-0.0762999999999999,0.976498965,-0.040099995,0.149230575
1764767839.9936347,-4.2728,2.27374,-0.0762999999999999,0.976498965,-0.040099995,0.149230575
1764767839.9936347,-4.2728,2.27374,-0.0762999999999999,0.976498965,-0.040099995,0.149230575
1764767839.9936347,-4.2728,2.27374,-0.0762999999999999,0.976498965,-0.040099995,0.149230575
1764767839.9936347,-4.2728,2.27374,-0.0762999999999999,0.976498965,-0.040099995,0.149230575
1764767839.9936347,-4.2728,2.27374,-0.0762999999999999,0.976498965,-0.040099995,0.149230575
1764767839.9936347,-4.2728,2.27374,-0.0762999999999999,0.976498965,-0.040099995,0.149230575
1764767839.9936347,-4.2728,2.27374,-0.0762999999999999,0.976498965,-0.040099995,0.149230575
1764767839.9936347,-4.37962,2.1364,-0.36624,0.975278265,-0.03869619,0.149596785
1764767839.9936347,-4.37962,2.1364,-0.36624,0.975278265,-0.03869619,0.149596785
1764767839.9936347,-4.37962,2.1364,-0.36624,0.975278265,-0.03869619,0.149596785
1764767839.9936347,-4.37962,2.1364,-0.36624,0.975278265,-0.03869619,0.149596785
1764767839.9936347,-4.37962,2.1364,-0.36624,0.975278265,-0.03869619,0.149596785
1764767839.9936347,-4.37962,2.1364,-0.36624,0.975278265,-0.03869619,0.149596785
1764767839.9936347,-4.37962,2.1364,-0.36624,0.975278265,-0.03869619,0.149596785
1764767839.9936347,-4.37962,2.1364,-0.36624,0.975278265,-0.03869619,0.149596785
1764767839.9936347,-4.37962,2.1364,-0.36624,0.975278265,-0.03869619,0.149596785
1764767839.9936347,-4.37962,2.1364,-0.36624,0.975278265,-0.03869619,0.149596785
1764767839.9936347,-4.77638,1.73964,0.04578,0.973691355,-0.038146875,0.150695415
1764767839.9936347,-4.77638,1.73964,0.04578,0.973691355,-0.038146875,0.150695415
1764767840.0402277,-4.77638,1.73964,0.04578,0.973691355,-0.038146875,0.150695415
1764767840.0407553,-4.77638,1.73964,0.04578,0.973691355,-0.038146875,0.150695415
1764767840.0407553,-4.77638,1.73964,0.04578,0.973691355,-0.038146875,0.150695415
1764767840.0407553,-4.77638,1.73964,0.04578,0.973691355,-0.038146875,0.150695415
1764767840.0407553,-4.77638,1.73964,0.04578,0.973691355,-0.038146875,0.150695415
1764767840.0407553,-4.77638,1.73964,0.04578,0.973691355,-0.038146875,0.150695415
1764767840.0407553,-4.77638,1.73964,0.04578,0.973691355,-0.038146875,0.150695415
1764767840.0407553,-4.77638,1.73964,0.04578,0.973691355,-0.038146875,0.150695415
1764767840.0407553,-4.89846,0.9003399999999999,0.56462,0.972470655,-0.038513085,0.151916115
1764767840.0407553,-4.89846,0.9003399999999999,0.56462,0.972470655,-0.038513085,0.151916115
1764767840.0407553,-4.89846,0.9003399999999999,0.56462,0.972470655,-0.038513085,0.151916115
1764767840.0407553,-4.89846,0.9003399999999999,0.56462,0.972470655,-0.038513085,0.151916115
1764767840.0407553,-4.89846,0.9003399999999999,0.56462,0.972470655,-0.038513085,0.151916115
1764767840.0407553,-4.89846,0.9003399999999999,0.56462,0.972470655,-0.038513085,0.151916115
1764767840.0407553,-4.89846,0.9003399999999999,0.56462,0.972470655,-0.038513085,0.151916115
1764767840.0407553,-4.89846,0.9003399999999999,0.56462,0.972470655,-0.038513085,0.151916115
1764767840.0407553,-4.89846,0.9003399999999999,0.56462,0.972470655,-0.038513085,0.151916115
1764767840.0407553,-4.89846,0.9003399999999999,0.56462,0.972470655,-0.038513085,0.151916115
1764767840.0407553,-4.41014,0.39676,0.3509799999999999,0.97179927,-0.038879295,0.151794045
1764767840.0407553,-4.41014,0.39676,0.3509799999999999,0.97179927,-0.038879295,0.151794045
1764767840.0407553,-4.41014,0.39676,0.3509799999999999,0.97179927,-0.038879295,0.151794045
1764767840.0407553,-4.41014,0.39676,0.3509799999999999,0.97179927,-0.038879295,0.151794045
1764767840.0407553,-4.41014,0.39676,0.3509799999999999,0.97179927,-0.038879295,0.151794045
1764767840.0407553,-4.41014,0.39676,0.3509799999999999,0.97179927,-0.038879295,0.151794045
1764767840.0869849,-4.41014,0.39676,0.3509799999999999,0.97179927,-0.038879295,0.151794045
1764767840.0869849,-4.41014,0.39676,0.3509799999999999,0.97179927,-0.038879295,0.151794045
1764767840.0869849,-4.41014,0.39676,0.3509799999999999,0.97179927,-0.038879295,0.151794045
1764767840.0869849,-4.41014,0.39676,0.3509799999999999,0.97179927,-0.038879295,0.151794045
1764767840.0869849,-4.15072,0.6714399999999999,0.41202,0.971616165,-0.03930654,0.15209922
1764767840.0869849,-4.15072,0.6714399999999999,0.41202,0.971616165,-0.03930654,0.15209922
1764767840.0869849,-4.15072,0.6714399999999999,0.41202,0.971616165,-0.03930654,0.15209922
1764767840.0869849,-4.15072,0.6714399999999999,0.41202,0.971616165,-0.03930654,0.15209922
1764767840.0869849,-4.15072,0.6714399999999999,0.41202,0.971616165,-0.03930654,0.15209922
1764767840.0869849,-4.15072,0.6714399999999999,0.41202,0.971616165,-0.03930654,0.15209922
1764767840.0869849,-4.15072,0.6714399999999999,0.41202,0.971616165,-0.03930654,0.15209922
1764767840.0869849,-4.15072,0.6714399999999999,0.41202,0.971616165,-0.03930654,0.15209922
1764767840.0869849,-4.15072,0.6714399999999999,0.41202,0.971616165,-0.03930654,0.15209922
1764767840.0869849,-4.15072,0.6714399999999999,0.41202,0.971616165,-0.03930654,0.15209922
1764767840.0869849,-3.46402,0.2289,0.6867,0.97240962,-0.03979482,0.152282325
1764767840.0869849,-3.46402,0.2289,0.6867,0.97240962,-0.03979482,0.152282325
1764767840.0869849,-3.46402,0.2289,0.6867,0.97240962,-0.03979482,0.152282325
1764767840.0869849,-3.46402,0.2289,0.6867,0.97240962,-0.03979482,0.152282325
1764767840.0880024,-3.46402,0.2289,0.6867,0.97240962,-0.03979482,0.152282325
1764767840.0880024,-3.46402,0.2289,0.6867,0.97240962,-0.03979482,0.152282325
1764767840.0880024,-3.46402,0.2289,0.6867,0.97240962,-0.03979482,0.152282325
1764767840.0880024,-3.46402,0.2289,0.6867,0.97240962,-0.03979482,0.152282325
1764767840.1340137,-3.46402,0.2289,0.6867,0.97240962,-0.03979482,0.152282325
1764767840.1340137,-3.46402,0.2289,0.6867,0.97240962,-0.03979482,0.152282325
1764767840.1340137,-3.54032,0.47306,0.62566,0.973569285,-0.039855855,0.152160255
1764767840.1340137,-3.54032,0.47306,0.62566,0.973569285,-0.039855855,0.152160255
1764767840.1340137,-3.54032,0.47306,0.62566,0.973569285,-0.039855855,0.152160255
1764767840.1340137,-3.54032,0.47306,0.62566,0.973569285,-0.039855855,0.152160255
1764767840.1340137,-3.54032,0.47306,0.62566,0.973569285,-0.039855855,0.152160255
1764767840.1345432,-3.54032,0.47306,0.62566,0.973569285,-0.039855855,0.152160255
1764767840.1345432,-3.54032,0.47306,0.62566,0.973569285,-0.039855855,0.152160255
1764767840.1345432,-3.54032,0.47306,0.62566,0.973569285,-0.039855855,0.152160255
1764767840.1345432,-3.54032,0.47306,0.62566,0.973569285,-0.039855855,0.152160255
1764767840.1345432,-3.54032,0.47306,0.62566,0.973569285,-0.039855855,0.152160255
1764767840.1345432,-3.49454,0.4578,0.96138,0.97350825,-0.03930654,0.151183695
1764767840.1345432,-3.49454,0.4578,0.96138,0.97350825,-0.03930654,0.151183695
1764767840.1345432,-3.49454,0.4578,0.96138,0.97350825,-0.03930654,0.151183695
1764767840.1345432,-3.49454,0.4578,0.96138,0.97350825,-0.03930654,0.151183695
1764767840.1345432,-3.49454,0.4578,0.96138,0.97350825,-0.03930654,0.151183695
1764767840.1345432,-3.49454,0.4578,0.96138,0.97350825,-0.03930654,0.151183695
1764767840.1345432,-3.49454,0.4578,0.96138,0.97350825,-0.03930654,0.151183695
1764767840.1345432,-3.49454,0.4578,0.96138,0.97350825,-0.03930654,0.151183695
1764767840.1345432,-3.49454,0.4578,0.96138,0.97350825,-0.03930654,0.151183695
1764767840.1345432,-3.49454,0.4578,0.96138,0.97350825,-0.03930654,0.151183695
1764767840.1345432,-3.76922,0.79352,0.74774,0.974179635,-0.039855855,0.15063438
1764767840.1345432,-3.76922,0.79352,0.74774,0.974179635,-0.039855855,0.15063438
1764767840.1801229,-3.76922,0.79352,0.74774,0.974179635,-0.039855855,0.15063438
1764767840.1801229,-3.76922,0.79352,0.74774,0.974179635,-0.039855855,0.15063438
1764767840.1801229,-3.76922,0.79352,0.74774,0.974179635,-0.039855855,0.15063438
1764767840.1801229,-3.76922,0.79352,0.74774,0.974179635,-0.039855855,0.15063438
1764767840.1801229,-3.76922,0.79352,0.74774,0.974179635,-0.039855855,0.15063438
1764767840.1801229,-3.76922,0.79352,0.74774,0.974179635,-0.039855855,0.15063438
1764767840.1801229,-3.76922,0.79352,0.74774,0.974179635,-0.039855855,0.15063438
1764767840.1801229,-3.76922,0.79352,0.74774,0.974179635,-0.039855855,0.15063438
1764767840.1801229,-3.5098,1.23606,1.0682,0.97350825,-0.0402831,0.150451275
1764767840.1801229,-3.5098,1.23606,1.0682,0.97350825,-0.0402831,0.150451275
1764767840.1801229,-3.5098,1.23606,1.0682,0.97350825,-0.0402831,0.150451275
1764767840.1801229,-3.5098,1.23606,1.0682,0.97350825,-0.0402831,0.150451275
1764767840.1801229,-3.5098,1.23606,1.0682,0.97350825,-0.0402831,0.150451275
1764767840.1801229,-3.5098,1.23606,1.0682,0.97350825,-0.0402831,0.150451275
1764767840.1801229,-3.5098,1.23606,1.0682,0.97350825,-0.0402831,0.150451275
1764767840.1801229,-3.5098,1.23606,1.0682,0.97350825,-0.0402831,0.150451275
1764767840.1801229,-3.5098,1.23606,1.0682,0.97350825,-0.0402831,0.150451275
1764767840.1801229,-3.5098,1.23606,1.0682,0.97350825,-0.0402831,0.150451275
1764767840.1801229,-3.26564,0.88508,0.54936,0.973813425,-0.040099995,0.15039024
1764767840.1801229,-3.26564,0.88508,0.54936,0.973813425,-0.040099995,0.15039024
1764767840.1801229,-3.26564,0.88508,0.54936,0.973813425,-0.040099995,0.15039024
1764767840.1801229,-3.26564,0.88508,0.54936,0.973813425,-0.040099995,0.15039024
1764767840.1801229,-3.26564,0.88508,0.54936,0.973813425,-0.040099995,0.15039024
1764767840.1801229,-3.26564,0.88508,0.54936,0.973813425,-0.040099995,0.15039024
1764767840.2271752,-3.26564,0.88508,0.54936,0.973813425,-0.040099995,0.15039024
1764767840.2271752,-3.26564,0.88508,0.54936,0.973813425,-0.040099995,0.15039024
1764767840.2271752,-3.26564,0.88508,0.54936,0.973813425,-0.040099995,0.15039024
1764767840.2271752,-3.26564,0.88508,0.54936,0.973813425,-0.040099995,0.15039024
1764767840.2271752,-3.52506,1.2971,0.41202,0.973813425,-0.040832415,0.15063438
1764767840.2271752,-3.52506,1.2971,0.41202,0.973813425,-0.040832415,0.15063438
1764767840.2271752,-3.52506,1.2971,0.41202,0.973813425,-0.040832415,0.15063438
1764767840.2276964,-3.52506,1.2971,0.41202,0.973813425,-0.040832415,0.15063438
1764767840.2276964,-3.52506,1.2971,0.41202,0.973813425,-0.040832415,0.15063438
1764767840.2276964,-3.52506,1.2971,0.41202,0.973813425,-0.040832415,0.15063438
1764767840.2276964,-3.52506,1.2971,0.41202,0.973813425,-0.040832415,0.15063438
1764767840.2276964,-3.52506,1.2971,0.41202,0.973813425,-0.040832415,0.15063438
1764767840.2276964,-3.52506,1.2971,0.41202,0.973813425,-0.040832415,0.15063438
1764767840.2276964,-3.52506,1.2971,0.41202,0.973813425,-0.040832415,0.15063438
1764767840.2276964,-3.34194,1.28184,0.62566,0.973081005,-0.04016103,0.150817485
1764767840.2276964,-3.34194,1.28184,0.62566,0.973081005,-0.04016103,0.150817485
1764767840.2276964,-3.34194,1.28184,0.62566,0.973081005,-0.04016103,0.150817485
1764767840.2276964,-3.34194,1.28184,0.62566,0.973081005,-0.04016103,0.150817485
1764767840.2276964,-3.34194,1.28184,0.62566,0.973081005,-0.04016103,0.150817485
1764767840.2276964,-3.34194,1.28184,0.62566,0.973081005,-0.04016103,0.150817485
1764767840.2276964,-3.34194,1.28184,0.62566,0.973081005,-0.04016103,0.150817485
1764767840.2276964,-3.34194,1.28184,0.62566,0.973081005,-0.04016103,0.150817485
1764767840.2734425,-3.34194,1.28184,0.62566,0.973081005,-0.04016103,0.150817485
1764767840.2734425,-3.34194,1.28184,0.62566,0.973081005,-0.04016103,0.150817485
1764767840.2734425,-3.72344,1.35814,0.36624,0.97326411,-0.04003896,0.150695415
1764767840.2734425,-3.72344,1.35814,0.36624,0.97326411,-0.04003896,0.150695415
1764767840.2734425,-3.72344,1.35814,0.36624,0.97326411,-0.04003896,0.150695415
1764767840.2734425,-3.72344,1.35814,0.36624,0.97326411,-0.04003896,0.150695415
1764767840.2734425,-3.72344,1.35814,0.36624,0.97326411,-0.04003896,0.150695415
1764767840.2734425,-3.72344,1.35814,0.36624,0.97326411,-0.04003896,0.150695415
1764767840.2739463,-3.72344,1.35814,0.36624,0.97326411,-0.04003896,0.150695415
1764767840.2739463,-3.72344,1.35814,0.36624,0.97326411,-0.04003896,0.150695415
1764767840.2739463,-3.72344,1.35814,0.36624,0.97326411,-0.04003896,0.150695415
1764767840.2739463,-3.72344,1.35814,0.36624,0.97326411,-0.04003896,0.150695415
1764767840.2739463,-4.02864,1.11398,1.08346,0.972958935,-0.03845205,0.15075645
1764767840.2739463,-4.02864,1.11398,1.08346,0.972958935,-0.03845205,0.15075645
1764767840.2739463,-4.02864,1.11398,1.08346,0.972958935,-0.03845205,0.15075645
1764767840.2739463,-4.02864,1.11398,1.08346,0.972958935,-0.03845205,0.15075645
1764767840.2739463,-4.02864,1.11398,1.08346,0.972958935,-0.03845205,0.15075645
1764767840.2739463,-4.02864,1.11398,1.08346,0.972958935,-0.03845205,0.15075645
1764767840.2739463,-4.02864,1.11398,1.08346,0.972958935,-0.03845205,0.15075645
1764767840.2739463,-4.02864,1.11398,1.08346,0.972958935,-0.03845205,0.15075645
1764767840.2739463,-4.02864,1.11398,1.08346,0.972958935,-0.03845205,0.15075645
1764767840.2739463,-4.02864,1.11398,1.08346,0.972958935,-0.03845205,0.15075645
1764767840.2739463,-4.08968,1.12924,0.39676,0.973325145,-0.03881826,0.150451275
1764767840.2739463,-4.08968,1.12924,0.39676,0.973325145,-0.03881826,0.150451275
1764767840.3201764,-4.08968,1.12924,0.39676,0.973325145,-0.03881826,0.150451275
1764767840.3201764,-4.08968,1.12924,0.39676,0.973325145,-0.03881826,0.150451275
1764767840.3201764,-4.08968,1.12924,0.39676,0.973325145,-0.03881826,0.150451275
1764767840.3201764,-4.08968,1.12924,0.39676,0.973325145,-0.03881826,0.150451275
1764767840.3201764,-4.08968,1.12924,0.39676,0.973325145,-0.03881826,0.150451275
1764767840.3201764,-4.08968,1.12924,0.39676,0.973325145,-0.03881826,0.150451275
1764767840.3201764,-4.08968,1.12924,0.39676,0.973325145,-0.03881826,0.150451275
1764767840.3201764,-4.08968,1.12924,0.39676,0.973325145,-0.03881826,0.150451275
1764767840.3201764,-3.8913,0.4578,0.73248,0.97326411,-0.03894033,0.15100059
1764767840.3201764,-3.8913,0.4578,0.73248,0.97326411,-0.03894033,0.15100059
1764767840.3201764,-3.8913,0.4578,0.73248,0.97326411,-0.03894033,0.15100059
1764767840.3201764,-3.8913,0.4578,0.73248,0.97326411,-0.03894033,0.15100059
1764767840.3201764,-3.8913,0.4578,0.73248,0.97326411,-0.03894033,0.15100059
1764767840.3201764,-3.8913,0.4578,0.73248,0.97326411,-0.03894033,0.15100059
1764767840.3201764,-3.8913,0.4578,0.73248,0.97326411,-0.03894033,0.15100059
1764767840.3201764,-3.8913,0.4578,0.73248,0.97326411,-0.03894033,0.15100059
1764767840.3201764,-3.8913,0.4578,0.73248,0.97326411,-0.03894033,0.15100059
1764767840.3201764,-3.8913,0.4578,0.73248,0.97326411,-0.03894033,0.15100059
1764767840.3201764,-4.36436,0.27468,0.10682,0.973569285,-0.03894033,0.15124473
1764767840.3201764,-4.36436,0.27468,0.10682,0.973569285,-0.03894033,0.15124473
1764767840.3201764,-4.36436,0.27468,0.10682,0.973569285,-0.03894033,0.15124473
1764767840.3201764,-4.36436,0.27468,0.10682,0.973569285,-0.03894033,0.15124473
1764767840.3201764,-4.36436,0.27468,0.10682,0.973569285,-0.03894033,0.15124473
1764767840.3201764,-4.36436,0.27468,0.10682,0.973569285,-0.03894033,0.15124473
1764767840.3673613,-4.36436,0.27468,0.10682,0.973569285,-0.03894033,0.15124473
1764767840.3673613,-4.36436,0.27468,0.10682,0.973569285,-0.03894033,0.15124473
1764767840.3673613,-4.36436,0.27468,0.10682,0.973569285,-0.03894033,0.15124473
1764767840.3673613,-4.36436,0.27468,0.10682,0.973569285,-0.03894033,0.15124473
1764767840.3673613,-4.36436,0.6409199999999999,0.763,0.973813425,-0.038757225,0.15100059
1764767840.3673613,-4.36436,0.6409199999999999,0.763,0.973813425,-0.038757225,0.15100059
1764767840.3673613,-4.36436,0.6409199999999999,0.763,0.973813425,-0.038757225,0.15100059
1764767840.3673613,-4.36436,0.6409199999999999,0.763,0.973813425,-0.038757225,0.15100059
1764767840.3673613,-4.36436,0.6409199999999999,0.763,0.973813425,-0.038757225,0.15100059
1764767840.3673613,-4.36436,0.6409199999999999,0.763,0.973813425,-0.038757225,0.15100059
1764767840.3673613,-4.36436,0.6409199999999999,0.763,0.973813425,-0.038757225,0.15100059
1764767840.3673613,-4.36436,0.6409199999999999,0.763,0.973813425,-0.038757225,0.15100059
1764767840.3673613,-4.36436,0.6409199999999999,0.763,0.973813425,-0.038757225,0.15100059
1764767840.3673613,-4.36436,0.6409199999999999,0.763,0.973813425,-0.038757225,0.15100059
1764767840.3673613,-4.1202,0.41202,0.71722,0.973691355,-0.038757225,0.1513668
1764767840.3673613,-4.1202,0.41202,0.71722,0.973691355,-0.038757225,0.1513668
1764767840.3673613,-4.1202,0.41202,0.71722,0.973691355,-0.038757225,0.1513668
1764767840.3673613,-4.1202,0.41202,0.71722,0.973691355,-0.038757225,0.1513668
1764767840.3673613,-4.1202,0.41202,0.71722,0.973691355,-0.038757225,0.1513668
1764767840.3673613,-4.1202,0.41202,0.71722,0.973691355,-0.038757225,0.1513668
1764767840.3673613,-4.1202,0.41202,0.71722,0.973691355,-0.038757225,0.1513668
1764767840.3673613,-4.1202,0.41202,0.71722,0.973691355,-0.038757225,0.1513668
1764767840.3673613,-4.1202,0.41202,0.71722,0.973691355,-0.038757225,0.1513668
1764767840.3673613,-4.1202,0.41202,0.71722,0.973691355,-0.038757225,0.1513668
1764767840.4137404,-3.76922,0.51884,0.57988,0.973813425,-0.038879295,0.150817485
1764767840.4137404,-3.76922,0.51884,0.57988,0.973813425,-0.038879295,0.150817485
1764767840.4137404,-3.76922,0.51884,0.57988,0.973813425,-0.038879295,0.150817485
1764767840.4137404,-3.76922,0.51884,0.57988,0.973813425,-0.038879295,0.150817485
1764767840.4137404,-3.76922,0.51884,0.57988,0.973813425,-0.038879295,0.150817485
1764767840.4137404,-3.76922,0.51884,0.57988,0.973813425,-0.038879295,0.150817485
1764767840.4137404,-3.76922,0.51884,0.57988,0.973813425,-0.038879295,0.150817485
1764767840.4137404,-3.76922,0.51884,0.57988,0.973813425,-0.038879295,0.150817485
1764767840.4137404,-3.76922,0.51884,0.57988,0.973813425,-0.038879295,0.150817485
1764767840.4137404,-3.76922,0.51884,0.57988,0.973813425,-0.038879295,0.150817485
1764767840.4137404,-3.72344,0.73248,0.9003399999999999,0.9728979,-0.03930654,0.15063438
1764767840.4137404,-3.72344,0.73248,0.9003399999999999,0.9728979,-0.03930654,0.15063438
1764767840.4137404,-3.72344,0.73248,0.9003399999999999,0.9728979,-0.03930654,0.15063438
1764767840.4137404,-3.72344,0.73248,0.9003399999999999,0.9728979,-0.03930654,0.15063438
1764767840.4137404,-3.72344,0.73248,0.9003399999999999,0.9728979,-0.03930654,0.15063438
1764767840.4137404,-3.72344,0.73248,0.9003399999999999,0.9728979,-0.03930654,0.15063438
1764767840.4137404,-3.72344,0.73248,0.9003399999999999,0.9728979,-0.03930654,0.15063438
1764767840.4137404,-3.72344,0.73248,0.9003399999999999,0.9728979,-0.03930654,0.15063438
1764767840.4137404,-3.72344,0.73248,0.9003399999999999,0.9728979,-0.03930654,0.15063438
1764767840.4137404,-3.72344,0.73248,0.9003399999999999,0.9728979,-0.03930654,0.15063438
1764767840.4137404,-3.54032,1.02242,0.74774,0.974301705,-0.03991689,0.15075645
1764767840.4137404,-3.54032,1.02242,0.74774,0.974301705,-0.03991689,0.15075645
1764767840.461151,-3.54032,1.02242,0.74774,0.974301705,-0.03991689,0.15075645
1764767840.461151,-3.54032,1.02242,0.74774,0.974301705,-0.03991689,0.15075645
1764767840.461151,-3.54032,1.02242,0.74774,0.974301705,-0.03991689,0.15075645
1764767840.461151,-3.54032,1.02242,0.74774,0.974301705,-0.03991689,0.15075645
1764767840.461151,-3.54032,1.02242,0.74774,0.974301705,-0.03991689,0.15075645
1764767840.461151,-3.54032,1.02242,0.74774,0.974301705,-0.03991689,0.15075645
1764767840.461151,-3.54032,1.02242,0.74774,0.974301705,-0.03991689,0.15075645
1764767840.461151,-3.54032,1.02242,0.74774,0.974301705,-0.03991689,0.15075645
1764767840.461151,-3.09778,1.34288,0.04578,0.97570551,-0.039855855,0.150329205
1764767840.461151,-3.09778,1.34288,0.04578,0.97570551,-0.039855855,0.150329205
1764767840.461151,-3.09778,1.34288,0.04578,0.97570551,-0.039855855,0.150329205
1764767840.461151,-3.09778,1.34288,0.04578,0.97570551,-0.039855855,0.150329205
1764767840.461151,-3.09778,1.34288,0.04578,0.97570551,-0.039855855,0.150329205
1764767840.461151,-3.09778,1.34288,0.04578,0.97570551,-0.039855855,0.150329205
1764767840.461151,-3.09778,1.34288,0.04578,0.97570551,-0.039855855,0.150329205
1764767840.461151,-3.09778,1.34288,0.04578,0.97570551,-0.039855855,0.150329205
1764767840.461151,-3.09778,1.34288,0.04578,0.97570551,-0.039855855,0.150329205
1764767840.461151,-3.09778,1.34288,0.04578,0.97570551,-0.039855855,0.150329205
1764767840.461151,-3.86078,1.41918,0.13734,0.97546137,-0.037658595,0.150573345
1764767840.462156,-3.86078,1.41918,0.13734,0.97546137,-0.037658595,0.150573345
1764767840.462156,-3.86078,1.41918,0.13734,0.97546137,-0.037658595,0.150573345
1764767840.462156,-3.86078,1.41918,0.13734,0.97546137,-0.037658595,0.150573345
1764767840.508555,-3.86078,1.41918,0.13734,0.97546137,-0.037658595,0.150573345
1764767840.508555,-3.86078,1.41918,0.13734,0.97546137,-0.037658595,0.150573345
1764767840.508555,-3.86078,1.41918,0.13734,0.97546137,-0.037658595,0.150573345
1764767840.508555,-3.86078,1.41918,0.13734,0.97546137,-0.037658595,0.150573345
1764767840.508555,-3.86078,1.41918,0.13734,0.97546137,-0.037658595,0.150573345
1764767840.508555,-3.86078,1.41918,0.13734,0.97546137,-0.037658595,0.150573345
1764767840.508555,-4.303319999999999,0.79352,0.09156,0.97448481,-0.037414455,0.150695415
1764767840.508555,-4.303319999999999,0.79352,0.09156,0.97448481,-0.037414455,0.150695415
1764767840.508555,-4.303319999999999,0.79352,0.09156,0.97448481,-0.037414455,0.150695415
1764767840.508555,-4.303319999999999,0.79352,0.09156,0.97448481,-0.037414455,0.150695415
1764767840.508555,-4.303319999999999,0.79352,0.09156,0.97448481,-0.037414455,0.150695415
1764767840.508555,-4.303319999999999,0.79352,0.09156,0.97448481,-0.037414455,0.150695415
1764767840.508555,-4.303319999999999,0.79352,0.09156,0.97448481,-0.037414455,0.150695415
1764767840.508555,-4.303319999999999,0.79352,0.09156,0.97448481,-0.037414455,0.150695415
1764767840.508555,-4.303319999999999,0.79352,0.09156,0.97448481,-0.037414455,0.150695415
1764767840.508555,-4.303319999999999,0.79352,0.09156,0.97448481,-0.037414455,0.150695415
1764767840.508555,-4.1965,1.3734,0.56462,0.974057565,-0.038024805,0.15100059
1764767840.508555,-4.1965,1.3734,0.56462,0.974057565,-0.038024805,0.15100059
1764767840.508555,-4.1965,1.3734,0.56462,0.974057565,-0.038024805,0.15100059
1764767840.508555,-4.1965,1.3734,0.56462,0.974057565,-0.038024805,0.15100059
1764767840.508555,-4.1965,1.3734,0.56462,0.974057565,-0.038024805,0.15100059
1764767840.508555,-4.1965,1.3734,0.56462,0.974057565,-0.038024805,0.15100059
1764767840.508555,-4.1965,1.3734,0.56462,0.974057565,-0.038024805,0.15100059
1764767840.508555,-4.1965,1.3734,0.56462,0.974057565,-0.038024805,0.15100059
1764767840.5551376,-4.1965,1.3734,0.56462,0.974057565,-0.038024805,0.15100059
1764767840.5551376,-4.1965,1.3734,0.56462,0.974057565,-0.038024805,0.15100059
1764767840.5551376,-4.37962,0.93086,1.0682,0.97301997,-0.03759756,0.151671975
1764767840.5551376,-4.37962,0.93086,1.0682,0.97301997,-0.03759756,0.151671975
1764767840.5551376,-4.37962,0.93086,1.0682,0.97301997,-0.03759756,0.151671975
1764767840.5551376,-4.37962,0.93086,1.0682,0.97301997,-0.03759756,0.151671975
1764767840.5551376,-4.37962,0.93086,1.0682,0.97301997,-0.03759756,0.151671975
1764767840.5551376,-4.37962,0.93086,1.0682,0.97301997,-0.03759756,0.151671975
1764767840.5551376,-4.37962,0.93086,1.0682,0.97301997,-0.03759756,0.151671975
1764767840.5551376,-4.37962,0.93086,1.0682,0.97301997,-0.03759756,0.151671975
1764767840.5551376,-4.37962,0.93086,1.0682,0.97301997,-0.03759756,0.151671975
1764767840.5551376,-4.37962,0.93086,1.0682,0.97301997,-0.03759756,0.151671975
1764767840.5551376,-4.41014,0.8087799999999999,0.77826,0.973447215,-0.0378417,0.151794045
1764767840.5551376,-4.41014,0.8087799999999999,0.77826,0.973447215,-0.0378417,0.151794045
1764767840.5551376,-4.41014,0.8087799999999999,0.77826,0.973447215,-0.0378417,0.151794045
1764767840.5551376,-4.41014,0.8087799999999999,0.77826,0.973447215,-0.0378417,0.151794045
1764767840.5551376,-4.41014,0.8087799999999999,0.77826,0.973447215,-0.0378417,0.151794045
1764767840.5551376,-4.41014,0.8087799999999999,0.77826,0.973447215,-0.0378417,0.151794045
1764767840.5551376,-4.41014,0.8087799999999999,0.77826,0.973447215,-0.0378417,0.151794045
1764767840.5551376,-4.41014,0.8087799999999999,0.77826,0.973447215,-0.0378417,0.151794045
1764767840.5551376,-4.41014,0.8087799999999999,0.77826,0.973447215,-0.0378417,0.151794045
1764767840.5551376,-4.41014,0.8087799999999999,0.77826,0.973447215,-0.0378417,0.151794045
1764767840.5551376,-3.8913,0.42728,0.8087799999999999,0.973935495,-0.03955068,0.152160255
1764767840.5551376,-3.8913,0.42728,0.8087799999999999,0.973935495,-0.03955068,0.152160255
1764767840.6013706,-3.8913,0.42728,0.8087799999999999,0.973935495,-0.03955068,0.152160255
1764767840.6013706,-3.8913,0.42728,0.8087799999999999,0.973935495,-0.03955068,0.152160255
1764767840.6013706,-3.8913,0.42728,0.8087799999999999,0.973935495,-0.03955068,0.152160255
1764767840.6013706,-3.8913,0.42728,0.8087799999999999,0.973935495,-0.03955068,0.152160255
1764767840.6013706,-3.8913,0.42728,0.8087799999999999,0.973935495,-0.03955068,0.152160255
1764767840.6013706,-3.8913,0.42728,0.8087799999999999,0.973935495,-0.03955068,0.152160255
1764767840.6013706,-3.8913,0.42728,0.8087799999999999,0.973935495,-0.03955068,0.152160255
1764767840.6013706,-3.8913,0.42728,0.8087799999999999,0.973935495,-0.03955068,0.152160255
1764767840.6013706,-3.49454,-0.19838,1.12924,0.97192134,-0.040954485,0.15209922
1764767840.6013706,-3.49454,-0.19838,1.12924,0.97192134,-0.040954485,0.15209922
1764767840.6013706,-3.49454,-0.19838,1.12924,0.97192134,-0.040954485,0.15209922
1764767840.6013706,-3.49454,-0.19838,1.12924,0.97192134,-0.040954485,0.15209922
1764767840.6013706,-3.49454,-0.19838,1.12924,0.97192134,-0.040954485,0.15209922
1764767840.6013706,-3.49454,-0.19838,1.12924,0.97192134,-0.040954485,0.15209922
1764767840.6013706,-3.49454,-0.19838,1.12924,0.97192134,-0.040954485,0.15209922
1764767840.6013706,-3.49454,-0.19838,1.12924,0.97192134,-0.040954485,0.15209922
1764767840.6013706,-3.49454,-0.19838,1.12924,0.97192134,-0.040954485,0.15209922
1764767840.6013706,-3.49454,-0.19838,1.12924,0.97192134,-0.040954485,0.15209922
1764767840.6013706,-3.2046,-0.93086,1.48022,0.971494095,-0.041442765,0.152404395
1764767840.6013706,-3.2046,-0.93086,1.48022,0.971494095,-0.041442765,0.152404395
1764767840.6013706,-3.2046,-0.93086,1.48022,0.971494095,-0.041442765,0.152404395
1764767840.6013706,-3.2046,-0.93086,1.48022,0.971494095,-0.041442765,0.152404395
1764767840.6013706,-3.2046,-0.93086,1.48022,0.971494095,-0.041442765,0.152404395
1764767840.6013706,-3.2046,-0.93086,1.48022,0.971494095,-0.041442765,0.152404395
1764767840.6490052,-3.2046,-0.93086,1.48022,0.971494095,-0.041442765,0.152404395
1764767840.6490052,-3.2046,-0.93086,1.48022,0.971494095,-0.041442765,0.152404395
1764767840.6490052,-3.2046,-0.93086,1.48022,0.971494095,-0.041442765,0.152404395
1764767840.6490052,-3.2046,-0.93086,1.48022,0.971494095,-0.041442765,0.152404395
1764767840.6490052,-3.11304,-0.57988,0.54936,0.974912055,-0.04016103,0.1513668
1764767840.6490052,-3.11304,-0.57988,0.54936,0.974912055,-0.04016103,0.1513668
1764767840.6490052,-3.11304,-0.57988,0.54936,0.974912055,-0.04016103,0.1513668
1764767840.6490052,-3.11304,-0.57988,0.54936,0.974912055,-0.04016103,0.1513668
1764767840.6490052,-3.11304,-0.57988,0.54936,0.974912055,-0.04016103,0.1513668
1764767840.6490052,-3.11304,-0.57988,0.54936,0.974912055,-0.04016103,0.1513668
1764767840.6490052,-3.11304,-0.57988,0.54936,0.974912055,-0.04016103,0.1513668
1764767840.6490052,-3.11304,-0.57988,0.54936,0.974912055,-0.04016103,0.1513668
1764767840.6490052,-3.11304,-0.57988,0.54936,0.974912055,-0.04016103,0.1513668
1764767840.6490052,-3.11304,-0.57988,0.54936,0.974912055,-0.04016103,0.1513668
1764767840.6490052,-3.21986,0.47306,0.85456,0.97619379,-0.039489645,0.150085065
1764767840.6490052,-3.21986,0.47306,0.85456,0.97619379,-0.039489645,0.150085065
1764767840.6490052,-3.21986,0.47306,0.85456,0.97619379,-0.039489645,0.150085065
1764767840.6490052,-3.21986,0.47306,0.85456,0.97619379,-0.039489645,0.150085065
1764767840.6490052,-3.21986,0.47306,0.85456,0.97619379,-0.039489645,0.150085065
1764767840.6500144,-3.21986,0.47306,0.85456,0.97619379,-0.039489645,0.150085065
1764767840.6500144,-3.21986,0.47306,0.85456,0.97619379,-0.039489645,0.150085065
1764767840.6500144,-3.21986,0.47306,0.85456,0.97619379,-0.039489645,0.150085065
1764767840.6923275,-3.21986,0.47306,0.85456,0.97619379,-0.039489645,0.150085065
1764767840.6923275,-3.21986,0.47306,0.85456,0.97619379,-0.039489645,0.150085065
1764767840.6928363,-4.3491,0.7019599999999999,0.42728,0.974179635,-0.03735342,0.14953575
1764767840.6928363,-4.3491,0.7019599999999999,0.42728,0.974179635,-0.03735342,0.14953575
1764767840.6928363,-4.3491,0.7019599999999999,0.42728,0.974179635,-0.03735342,0.14953575
1764767840.6928363,-4.3491,0.7019599999999999,0.42728,0.974179635,-0.03735342,0.14953575
1764767840.6928363,-4.3491,0.7019599999999999,0.42728,0.974179635,-0.03735342,0.14953575
1764767840.6928363,-4.3491,0.7019599999999999,0.42728,0.974179635,-0.03735342,0.14953575
1764767840.6928363,-4.3491,0.7019599999999999,0.42728,0.974179635,-0.03735342,0.14953575
1764767840.6928363,-4.3491,0.7019599999999999,0.42728,0.974179635,-0.03735342,0.14953575
1764767840.6928363,-4.3491,0.7019599999999999,0.42728,0.974179635,-0.03735342,0.14953575
1764767840.6928363,-4.3491,0.7019599999999999,0.42728,0.974179635,-0.03735342,0.14953575
1764767840.6928363,-5.0358,0.6103999999999999,0.13734,0.973325145,-0.03588858,0.148864365
1764767840.6928363,-5.0358,0.6103999999999999,0.13734,0.973325145,-0.03588858,0.148864365
1764767840.6928363,-5.0358,0.6103999999999999,0.13734,0.973325145,-0.03588858,0.148864365
1764767840.6928363,-5.0358,0.6103999999999999,0.13734,0.973325145,-0.03588858,0.148864365
1764767840.6928363,-5.0358,0.6103999999999999,0.13734,0.973325145,-0.03588858,0.148864365
1764767840.6928363,-5.0358,0.6103999999999999,0.13734,0.973325145,-0.03588858,0.148864365
1764767840.6928363,-5.0358,0.6103999999999999,0.13734,0.973325145,-0.03588858,0.148864365
1764767840.6928363,-5.0358,0.6103999999999999,0.13734,0.973325145,-0.03588858,0.148864365
1764767840.6928363,-5.0358,0.6103999999999999,0.13734,0.973325145,-0.03588858,0.148864365
1764767840.6928363,-5.0358,0.6103999999999999,0.13734,0.973325145,-0.03588858,0.148864365
1764767840.6928363,-5.53938,0.6714399999999999,0.59514,0.973813425,-0.036559965,0.148498155
1764767840.6928363,-5.53938,0.6714399999999999,0.59514,0.973813425,-0.036559965,0.148498155
1764767840.7388985,-5.53938,0.6714399999999999,0.59514,0.973813425,-0.036559965,0.148498155
1764767840.7388985,-5.53938,0.6714399999999999,0.59514,0.973813425,-0.036559965,0.148498155
1764767840.7388985,-5.53938,0.6714399999999999,0.59514,0.973813425,-0.036559965,0.148498155
1764767840.7388985,-5.53938,0.6714399999999999,0.59514,0.973813425,-0.036559965,0.148498155
1764767840.7388985,-5.53938,0.6714399999999999,0.59514,0.973813425,-0.036559965,0.148498155
1764767840.7388985,-5.53938,0.6714399999999999,0.59514,0.973813425,-0.036559965,0.148498155
1764767840.7388985,-5.53938,0.6714399999999999,0.59514,0.973813425,-0.036559965,0.148498155
1764767840.7388985,-5.53938,0.6714399999999999,0.59514,0.973813425,-0.036559965,0.148498155
1764767840.7388985,-4.92898,0.42728,1.48022,0.97448481,-0.038146875,0.148742295
1764767840.7388985,-4.92898,0.42728,1.48022,0.97448481,-0.038146875,0.148742295
1764767840.7388985,-4.92898,0.42728,1.48022,0.97448481,-0.038146875,0.148742295
1764767840.7388985,-4.92898,0.42728,1.48022,0.97448481,-0.038146875,0.148742295
1764767840.7388985,-4.92898,0.42728,1.48022,0.97448481,-0.038146875,0.148742295
1764767840.7394078,-4.92898,0.42728,1.48022,0.97448481,-0.038146875,0.148742295
1764767840.7394078,-4.92898,0.42728,1.48022,0.97448481,-0.038146875,0.148742295
1764767840.7394078,-4.92898,0.42728,1.48022,0.97448481,-0.038146875,0.148742295
1764767840.7394078,-4.92898,0.42728,1.48022,0.97448481,-0.038146875,0.148742295
1764767840.7394078,-4.92898,0.42728,1.48022,0.97448481,-0.038146875,0.148742295
1764767840.7394078,-4.440659999999999,0.4578,1.35814,0.975278265,-0.03955068,0.14904747
1764767840.7394078,-4.440659999999999,0.4578,1.35814,0.975278265,-0.03955068,0.14904747
1764767840.7394078,-4.440659999999999,0.4578,1.35814,0.975278265,-0.03955068,0.14904747
1764767840.7394078,-4.440659999999999,0.4578,1.35814,0.975278265,-0.03955068,0.14904747
1764767840.7848208,-4.440659999999999,0.4578,1.35814,0.975278265,-0.03955068,0.14904747
1764767840.7848208,-4.440659999999999,0.4578,1.35814,0.975278265,-0.03955068,0.14904747
1764767840.7848208,-4.440659999999999,0.4578,1.35814,0.975278265,-0.03955068,0.14904747
1764767840.7848208,-4.440659999999999,0.4578,1.35814,0.975278265,-0.03955068,0.14904747
1764767840.7848208,-4.440659999999999,0.4578,1.35814,0.975278265,-0.03955068,0.14904747
1764767840.7848208,-4.440659999999999,0.4578,1.35814,0.975278265,-0.03955068,0.14904747
1764767840.7848208,-3.84552,0.28994,1.00716,0.97521723,-0.04052724,0.14990196
1764767840.7848208,-3.84552,0.28994,1.00716,0.97521723,-0.04052724,0.14990196
1764767840.7848208,-3.84552,0.28994,1.00716,0.97521723,-0.04052724,0.14990196
1764767840.7848208,-3.84552,0.28994,1.00716,0.97521723,-0.04052724,0.14990196
1764767840.7848208,-3.84552,0.28994,1.00716,0.97521723,-0.04052724,0.14990196
1764767840.7848208,-3.84552,0.28994,1.00716,0.97521723,-0.04052724,0.14990196
1764767840.7848208,-3.84552,0.28994,1.00716,0.97521723,-0.04052724,0.14990196
1764767840.7848208,-3.84552,0.28994,1.00716,0.97521723,-0.04052724,0.14990196
1764767840.7858477,-3.84552,0.28994,1.00716,0.97521723,-0.04052724,0.14990196
1764767840.7858477,-3.84552,0.28994,1.00716,0.97521723,-0.04052724,0.14990196
1764767840.7858477,-3.40298,0.19838,0.9003399999999999,0.975522405,-0.040588275,0.1501461
1764767840.7858477,-3.40298,0.19838,0.9003399999999999,0.975522405,-0.040588275,0.1501461
1764767840.7858477,-3.40298,0.19838,0.9003399999999999,0.975522405,-0.040588275,0.1501461
1764767840.7858477,-3.40298,0.19838,0.9003399999999999,0.975522405,-0.040588275,0.1501461
1764767840.7858477,-3.40298,0.19838,0.9003399999999999,0.975522405,-0.040588275,0.1501461
1764767840.7858477,-3.40298,0.19838,0.9003399999999999,0.975522405,-0.040588275,0.1501461
1764767840.8318183,-3.40298,0.19838,0.9003399999999999,0.975522405,-0.040588275,0.1501461
1764767840.8318183,-3.40298,0.19838,0.9003399999999999,0.975522405,-0.040588275,0.1501461
1764767840.8318183,-3.40298,0.19838,0.9003399999999999,0.975522405,-0.040588275,0.1501461
1764767840.8318183,-3.40298,0.19838,0.9003399999999999,0.975522405,-0.040588275,0.1501461
1764767840.8318183,-3.72344,0.21364,0.88508,0.974423775,-0.03918447,0.14953575
1764767840.8318183,-3.72344,0.21364,0.88508,0.974423775,-0.03918447,0.14953575
1764767840.8318183,-3.72344,0.21364,0.88508,0.974423775,-0.03918447,0.14953575
1764767840.8318183,-3.72344,0.21364,0.88508,0.974423775,-0.03918447,0.14953575
1764767840.8318183,-3.72344,0.21364,0.88508,0.974423775,-0.03918447,0.14953575
1764767840.8318183,-3.72344,0.21364,0.88508,0.974423775,-0.03918447,0.14953575
1764767840.8318183,-3.72344,0.21364,0.88508,0.974423775,-0.03918447,0.14953575
1764767840.8318183,-3.72344,0.21364,0.88508,0.974423775,-0.03918447,0.14953575
1764767840.8318183,-3.72344,0.21364,0.88508,0.974423775,-0.03918447,0.14953575
1764767840.8318183,-3.72344,0.21364,0.88508,0.974423775,-0.03918447,0.14953575
1764767840.8318183,-3.99812,-0.0762999999999999,1.63282,0.97399653,-0.03759756,0.14843712
1764767840.8318183,-3.99812,-0.0762999999999999,1.63282,0.97399653,-0.03759756,0.14843712
1764767840.8318183,-3.99812,-0.0762999999999999,1.63282,0.97399653,-0.03759756,0.14843712
1764767840.8318183,-3.99812,-0.0762999999999999,1.63282,0.97399653,-0.03759756,0.14843712
1764767840.8318183,-3.99812,-0.0762999999999999,1.63282,0.97399653,-0.03759756,0.14843712
1764767840.8318183,-3.99812,-0.0762999999999999,1.63282,0.97399653,-0.03759756,0.14843712
1764767840.8318183,-3.99812,-0.0762999999999999,1.63282,0.97399653,-0.03759756,0.14843712
1764767840.8318183,-3.99812,-0.0762999999999999,1.63282,0.97399653,-0.03759756,0.14843712
1764767840.8318183,-3.99812,-0.0762999999999999,1.63282,0.97399653,-0.03759756,0.14843712
1764767840.8318183,-3.99812,-0.0762999999999999,1.63282,0.97399653,-0.03759756,0.14843712
1764767840.8318183,-4.31858,0.3204599999999999,1.99906,0.974057565,-0.036559965,0.147887805
1764767840.8318183,-4.31858,0.3204599999999999,1.99906,0.974057565,-0.036559965,0.147887805
1764767840.879453,-4.31858,0.3204599999999999,1.99906,0.974057565,-0.036559965,0.147887805
1764767840.879453,-4.31858,0.3204599999999999,1.99906,0.974057565,-0.036559965,0.147887805
1764767840.879453,-4.31858,0.3204599999999999,1.99906,0.974057565,-0.036559965,0.147887805
1764767840.879453,-4.31858,0.3204599999999999,1.99906,0.974057565,-0.036559965,0.147887805
1764767840.879453,-4.31858,0.3204599999999999,1.99906,0.974057565,-0.036559965,0.147887805
1764767840.879453,-4.31858,0.3204599999999999,1.99906,0.974057565,-0.036559965,0.147887805
1764767840.879453,-4.31858,0.3204599999999999,1.99906,0.974057565,-0.036559965,0.147887805
1764767840.879453,-4.31858,0.3204599999999999,1.99906,0.974057565,-0.036559965,0.147887805
1764767840.8799574,-4.54748,0.51884,2.63998,0.97350825,-0.03723135,0.14746056
1764767840.8799574,-4.54748,0.51884,2.63998,0.97350825,-0.03723135,0.14746056
1764767840.8799574,-4.54748,0.51884,2.63998,0.97350825,-0.03723135,0.14746056
1764767840.8799574,-4.54748,0.51884,2.63998,0.97350825,-0.03723135,0.14746056
1764767840.8799574,-4.54748,0.51884,2.63998,0.97350825,-0.03723135,0.14746056
1764767840.8799574,-4.54748,0.51884,2.63998,0.97350825,-0.03723135,0.14746056
1764767840.8799574,-4.54748,0.51884,2.63998,0.97350825,-0.03723135,0.14746056
1764767840.8799574,-4.54748,0.51884,2.63998,0.97350825,-0.03723135,0.14746056
1764767840.8799574,-4.54748,0.51884,2.63998,0.97350825,-0.03723135,0.14746056
1764767840.8799574,-4.54748,0.51884,2.63998,0.97350825,-0.03723135,0.14746056
1764767840.8799574,-4.07442,0.6409199999999999,2.42634,0.973935495,-0.03979482,0.146911245
1764767840.8799574,-4.07442,0.6409199999999999,2.42634,0.973935495,-0.03979482,0.146911245
1764767840.8799574,-4.07442,0.6409199999999999,2.42634,0.973935495,-0.03979482,0.146911245
1764767840.8799574,-4.07442,0.6409199999999999,2.42634,0.973935495,-0.03979482,0.146911245
1764767840.9260266,-4.07442,0.6409199999999999,2.42634,0.973935495,-0.03979482,0.146911245
1764767840.9260266,-4.07442,0.6409199999999999,2.42634,0.973935495,-0.03979482,0.146911245
1764767840.9260266,-4.07442,0.6409199999999999,2.42634,0.973935495,-0.03979482,0.146911245
1764767840.9260266,-4.07442,0.6409199999999999,2.42634,0.973935495,-0.03979482,0.146911245
1764767840.9260266,-4.07442,0.6409199999999999,2.42634,0.973935495,-0.03979482,0.146911245
1764767840.9260266,-4.07442,0.6409199999999999,2.42634,0.973935495,-0.03979482,0.146911245
1764767840.9260266,-3.2809,0.73248,2.10588,0.974301705,-0.042175185,0.14697228
1764767840.9260266,-3.2809,0.73248,2.10588,0.974301705,-0.042175185,0.14697228
1764767840.9260266,-3.2809,0.73248,2.10588,0.974301705,-0.042175185,0.14697228
1764767840.9260266,-3.2809,0.73248,2.10588,0.974301705,-0.042175185,0.14697228
1764767840.9260266,-3.2809,0.73248,2.10588,0.974301705,-0.042175185,0.14697228
1764767840.9260266,-3.2809,0.73248,2.10588,0.974301705,-0.042175185,0.14697228
1764767840.9260266,-3.2809,0.73248,2.10588,0.974301705,-0.042175185,0.14697228
1764767840.9260266,-3.2809,0.73248,2.10588,0.974301705,-0.042175185,0.14697228
1764767840.9260266,-3.2809,0.73248,2.10588,0.974301705,-0.042175185,0.14697228
1764767840.9260266,-3.2809,0.73248,2.10588,0.974301705,-0.042175185,0.14697228
1764767840.9260266,-2.7468,1.2208,1.9838,0.975888615,-0.04333485,0.147277455
1764767840.9260266,-2.7468,1.2208,1.9838,0.975888615,-0.04333485,0.147277455
1764767840.9260266,-2.7468,1.2208,1.9838,0.975888615,-0.04333485,0.147277455
1764767840.9260266,-2.7468,1.2208,1.9838,0.975888615,-0.04333485,0.147277455
1764767840.9260266,-2.7468,1.2208,1.9838,0.975888615,-0.04333485,0.147277455
1764767840.9260266,-2.7468,1.2208,1.9838,0.975888615,-0.04333485,0.147277455
1764767840.972283,-2.7468,1.2208,1.9838,0.975888615,-0.04333485,0.147277455
1764767840.972283,-2.7468,1.2208,1.9838,0.975888615,-0.04333485,0.147277455
1764767840.972283,-2.7468,1.2208,1.9838,0.975888615,-0.04333485,0.147277455
1764767840.972283,-2.7468,1.2208,1.9838,0.975888615,-0.04333485,0.147277455
1764767840.972283,-2.31952,1.51074,1.03768,0.97631586,-0.04443348,0.147887805
1764767840.972283,-2.31952,1.51074,1.03768,0.97631586,-0.04443348,0.147887805
1764767840.972283,-2.31952,1.51074,1.03768,0.97631586,-0.04443348,0.147887805
1764767840.972283,-2.31952,1.51074,1.03768,0.97631586,-0.04443348,0.147887805
1764767840.972283,-2.31952,1.51074,1.03768,0.97631586,-0.04443348,0.147887805
1764767840.972283,-2.31952,1.51074,1.03768,0.97631586,-0.04443348,0.147887805
1764767840.972283,-2.31952,1.51074,1.03768,0.97631586,-0.04443348,0.147887805
1764767840.972283,-2.31952,1.51074,1.03768,0.97631586,-0.04443348,0.147887805
1764767840.972283,-2.31952,1.51074,1.03768,0.97631586,-0.04443348,0.147887805
1764767840.972283,-2.31952,1.51074,1.03768,0.97631586,-0.04443348,0.147887805
1764767840.972283,-2.8231,2.02958,0.59514,0.97643793,-0.044006235,0.147765735
1764767840.972283,-2.8231,2.02958,0.59514,0.97643793,-0.044006235,0.147765735
1764767840.972283,-2.8231,2.02958,0.59514,0.97643793,-0.044006235,0.147765735
1764767840.972283,-2.8231,2.02958,0.59514,0.97643793,-0.044006235,0.147765735
1764767840.972283,-2.8231,2.02958,0.59514,0.97643793,-0.044006235,0.147765735
1764767840.972283,-2.8231,2.02958,0.59514,0.97643793,-0.044006235,0.147765735
1764767840.972283,-2.8231,2.02958,0.59514,0.97643793,-0.044006235,0.147765735
1764767840.972283,-2.8231,2.02958,0.59514,0.97643793,-0.044006235,0.147765735
1764767840.972283,-2.8231,2.02958,0.59514,0.97643793,-0.044006235,0.147765735
1764767840.9732893,-2.8231,2.02958,0.59514,0.97643793,-0.044006235,0.147765735
1764767841.0190787,-2.96044,1.64808,0.03052,0.975644475,-0.043029675,0.148498155
1764767841.0190787,-2.96044,1.64808,0.03052,0.975644475,-0.043029675,0.148498155
1764767841.0190787,-2.96044,1.64808,0.03052,0.975644475,-0.043029675,0.148498155
1764767841.0190787,-2.96044,1.64808,0.03052,0.975644475,-0.043029675,0.148498155
1764767841.0195932,-2.96044,1.64808,0.03052,0.975644475,-0.043029675,0.148498155
1764767841.0195932,-2.96044,1.64808,0.03052,0.975644475,-0.043029675,0.148498155
1764767841.0195932,-2.96044,1.64808,0.03052,0.975644475,-0.043029675,0.148498155
1764767841.0195932,-2.96044,1.64808,0.03052,0.975644475,-0.043029675,0.148498155
1764767841.0195932,-2.96044,1.64808,0.03052,0.975644475,-0.043029675,0.148498155
1764767841.0195932,-2.96044,1.64808,0.03052,0.975644475,-0.043029675,0.148498155
1764767841.0195932,-3.76922,1.41918,-0.01526,0.974912055,-0.04052724,0.148986435
1764767841.0195932,-3.76922,1.41918,-0.01526,0.974912055,-0.04052724,0.148986435
1764767841.0195932,-3.76922,1.41918,-0.01526,0.974912055,-0.04052724,0.148986435
1764767841.0195932,-3.76922,1.41918,-0.01526,0.974912055,-0.04052724,0.148986435
1764767841.0195932,-3.76922,1.41918,-0.01526,0.974912055,-0.04052724,0.148986435
1764767841.0195932,-3.76922,1.41918,-0.01526,0.974912055,-0.04052724,0.148986435
1764767841.0195932,-3.76922,1.41918,-0.01526,0.974912055,-0.04052724,0.148986435
1764767841.0195932,-3.76922,1.41918,-0.01526,0.974912055,-0.04052724,0.148986435
1764767841.0195932,-3.76922,1.41918,-0.01526,0.974912055,-0.04052724,0.148986435
1764767841.0195932,-3.76922,1.41918,-0.01526,0.974912055,-0.04052724,0.148986435
1764767841.0195932,-4.25754,1.35814,0.04578,0.97399653,-0.039489645,0.149718855
1764767841.0195932,-4.25754,1.35814,0.04578,0.97399653,-0.039489645,0.149718855
1764767841.0195932,-4.25754,1.35814,0.04578,0.97399653,-0.039489645,0.149718855
1764767841.0195932,-4.25754,1.35814,0.04578,0.97399653,-0.039489645,0.149718855
1764767841.0631838,-4.25754,1.35814,0.04578,0.97399653,-0.039489645,0.149718855
1764767841.0631838,-4.25754,1.35814,0.04578,0.97399653,-0.039489645,0.149718855
1764767841.0631838,-4.25754,1.35814,0.04578,0.97399653,-0.039489645,0.149718855
1764767841.0631838,-4.25754,1.35814,0.04578,0.97399653,-0.039489645,0.149718855
1764767841.0631838,-4.25754,1.35814,0.04578,0.97399653,-0.039489645,0.149718855
1764767841.0631838,-4.25754,1.35814,0.04578,0.97399653,-0.039489645,0.149718855
1764767841.0631838,-4.577999999999999,1.1445,0.42728,0.9741186,-0.039001365,0.14977989
1764767841.0631838,-4.577999999999999,1.1445,0.42728,0.9741186,-0.039001365,0.14977989
1764767841.063689,-4.577999999999999,1.1445,0.42728,0.9741186,-0.039001365,0.14977989
1764767841.063689,-4.577999999999999,1.1445,0.42728,0.9741186,-0.039001365,0.14977989
1764767841.063689,-4.577999999999999,1.1445,0.42728,0.9741186,-0.039001365,0.14977989
1764767841.063689,-4.577999999999999,1.1445,0.42728,0.9741186,-0.039001365,0.14977989
1764767841.063689,-4.577999999999999,1.1445,0.42728,0.9741186,-0.039001365,0.14977989
1764767841.063689,-4.577999999999999,1.1445,0.42728,0.9741186,-0.039001365,0.14977989
1764767841.063689,-4.577999999999999,1.1445,0.42728,0.9741186,-0.039001365,0.14977989
1764767841.063689,-4.577999999999999,1.1445,0.42728,0.9741186,-0.039001365,0.14977989
1764767841.063689,-4.53222,1.17502,0.9003399999999999,0.97326411,-0.0390624,0.14965782
1764767841.063689,-4.53222,1.17502,0.9003399999999999,0.97326411,-0.0390624,0.14965782
1764767841.063689,-4.53222,1.17502,0.9003399999999999,0.97326411,-0.0390624,0.14965782
1764767841.063689,-4.53222,1.17502,0.9003399999999999,0.97326411,-0.0390624,0.14965782
1764767841.063689,-4.53222,1.17502,0.9003399999999999,0.97326411,-0.0390624,0.14965782
1764767841.063689,-4.53222,1.17502,0.9003399999999999,0.97326411,-0.0390624,0.14965782
1764767841.063689,-4.53222,1.17502,0.9003399999999999,0.97326411,-0.0390624,0.14965782
1764767841.063689,-4.53222,1.17502,0.9003399999999999,0.97326411,-0.0390624,0.14965782
1764767841.1095076,-4.53222,1.17502,0.9003399999999999,0.97326411,-0.0390624,0.14965782
1764767841.1095076,-4.53222,1.17502,0.9003399999999999,0.97326411,-0.0390624,0.14965782
1764767841.1095076,-3.9676,0.24416,0.74774,0.972958935,-0.039977925,0.15002403
1764767841.1095076,-3.9676,0.24416,0.74774,0.972958935,-0.039977925,0.15002403
1764767841.1100268,-3.9676,0.24416,0.74774,0.972958935,-0.039977925,0.15002403
1764767841.1100268,-3.9676,0.24416,0.74774,0.972958935,-0.039977925,0.15002403
1764767841.1100268,-3.9676,0.24416,0.74774,0.972958935,-0.039977925,0.15002403
1764767841.1100268,-3.9676,0.24416,0.74774,0.972958935,-0.039977925,0.15002403
1764767841.1100268,-3.9676,0.24416,0.74774,0.972958935,-0.039977925,0.15002403
1764767841.1100268,-3.9676,0.24416,0.74774,0.972958935,-0.039977925,0.15002403
1764767841.1100268,-3.9676,0.24416,0.74774,0.972958935,-0.039977925,0.15002403
1764767841.1100268,-3.9676,0.24416,0.74774,0.972958935,-0.039977925,0.15002403
1764767841.1100268,-4.07442,0.21364,1.11398,0.973447215,-0.040466205,0.14965782
1764767841.1100268,-4.07442,0.21364,1.11398,0.973447215,-0.040466205,0.14965782
1764767841.1100268,-4.07442,0.21364,1.11398,0.973447215,-0.040466205,0.14965782
1764767841.1100268,-4.07442,0.21364,1.11398,0.973447215,-0.040466205,0.14965782
1764767841.1100268,-4.07442,0.21364,1.11398,0.973447215,-0.040466205,0.14965782
1764767841.1100268,-4.07442,0.21364,1.11398,0.973447215,-0.040466205,0.14965782
1764767841.1100268,-4.07442,0.21364,1.11398,0.973447215,-0.040466205,0.14965782
1764767841.1100268,-4.07442,0.21364,1.11398,0.973447215,-0.040466205,0.14965782
1764767841.1100268,-4.07442,0.21364,1.11398,0.973447215,-0.040466205,0.14965782
1764767841.1100268,-4.07442,0.21364,1.11398,0.973447215,-0.040466205,0.14965782
1764767841.1568484,-3.38772,0.6714399999999999,1.28184,0.97436274,-0.040832415,0.14904747
1764767841.1573522,-3.38772,0.6714399999999999,1.28184,0.97436274,-0.040832415,0.14904747
1764767841.1573522,-3.38772,0.6714399999999999,1.28184,0.97436274,-0.040832415,0.14904747
1764767841.1573522,-3.38772,0.6714399999999999,1.28184,0.97436274,-0.040832415,0.14904747
1764767841.1573522,-3.38772,0.6714399999999999,1.28184,0.97436274,-0.040832415,0.14904747
1764767841.1573522,-3.38772,0.6714399999999999,1.28184,0.97436274,-0.040832415,0.14904747
1764767841.1573522,-3.38772,0.6714399999999999,1.28184,0.97436274,-0.040832415,0.14904747
1764767841.1573522,-3.38772,0.6714399999999999,1.28184,0.97436274,-0.040832415,0.14904747
1764767841.1573522,-3.38772,0.6714399999999999,1.28184,0.97436274,-0.040832415,0.14904747
1764767841.1573522,-3.38772,0.6714399999999999,1.28184,0.97436274,-0.040832415,0.14904747
1764767841.1573522,-3.21986,0.763,1.6022999999999998,0.97436274,-0.040099995,0.14904747
1764767841.1573522,-3.21986,0.763,1.6022999999999998,0.97436274,-0.040099995,0.14904747
1764767841.1573522,-3.21986,0.763,1.6022999999999998,0.97436274,-0.040099995,0.14904747
1764767841.1573522,-3.21986,0.763,1.6022999999999998,0.97436274,-0.040099995,0.14904747
1764767841.1573522,-3.21986,0.763,1.6022999999999998,0.97436274,-0.040099995,0.14904747
1764767841.1573522,-3.21986,0.763,1.6022999999999998,0.97436274,-0.040099995,0.14904747
1764767841.1573522,-3.21986,0.763,1.6022999999999998,0.97436274,-0.040099995,0.14904747
1764767841.1573522,-3.21986,0.763,1.6022999999999998,0.97436274,-0.040099995,0.14904747
1764767841.1573522,-3.21986,0.763,1.6022999999999998,0.97436274,-0.040099995,0.14904747
1764767841.1573522,-3.21986,0.763,1.6022999999999998,0.97436274,-0.040099995,0.14904747
1764767841.1573522,-3.26564,1.1445,1.55652,0.97448481,-0.0402831,0.149840925
1764767841.1573522,-3.26564,1.1445,1.55652,0.97448481,-0.0402831,0.149840925
1764767841.2039092,-3.26564,1.1445,1.55652,0.97448481,-0.0402831,0.149840925
1764767841.2039092,-3.26564,1.1445,1.55652,0.97448481,-0.0402831,0.149840925
1764767841.2039092,-3.26564,1.1445,1.55652,0.97448481,-0.0402831,0.149840925
1764767841.2039092,-3.26564,1.1445,1.55652,0.97448481,-0.0402831,0.149840925
1764767841.2039092,-3.26564,1.1445,1.55652,0.97448481,-0.0402831,0.149840925
1764767841.2039092,-3.26564,1.1445,1.55652,0.97448481,-0.0402831,0.149840925
1764767841.2039092,-3.26564,1.1445,1.55652,0.97448481,-0.0402831,0.149840925
1764767841.204422,-3.26564,1.1445,1.55652,0.97448481,-0.0402831,0.149840925
1764767841.204422,-3.1283,1.28184,2.04484,0.97424067,-0.041442765,0.149474715
1764767841.204422,-3.1283,1.28184,2.04484,0.97424067,-0.041442765,0.149474715
1764767841.204422,-3.1283,1.28184,2.04484,0.97424067,-0.041442765,0.149474715
1764767841.204422,-3.1283,1.28184,2.04484,0.97424067,-0.041442765,0.149474715
1764767841.204422,-3.1283,1.28184,2.04484,0.97424067,-0.041442765,0.149474715
1764767841.204422,-3.1283,1.28184,2.04484,0.97424067,-0.041442765,0.149474715
1764767841.204422,-3.1283,1.28184,2.04484,0.97424067,-0.041442765,0.149474715
1764767841.204422,-3.1283,1.28184,2.04484,0.97424067,-0.041442765,0.149474715
1764767841.204422,-3.1283,1.28184,2.04484,0.97424067,-0.041442765,0.149474715
1764767841.204422,-3.1283,1.28184,2.04484,0.97424067,-0.041442765,0.149474715
1764767841.204422,-2.86888,1.51074,1.55652,0.97448481,-0.04199208,0.14929161
1764767841.204422,-2.86888,1.51074,1.55652,0.97448481,-0.04199208,0.14929161
1764767841.204422,-2.86888,1.51074,1.55652,0.97448481,-0.04199208,0.14929161
1764767841.204422,-2.86888,1.51074,1.55652,0.97448481,-0.04199208,0.14929161
1764767841.204422,-2.86888,1.51074,1.55652,0.97448481,-0.04199208,0.14929161
1764767841.204422,-2.86888,1.51074,1.55652,0.97448481,-0.04199208,0.14929161
1764767841.250227,-2.86888,1.51074,1.55652,0.97448481,-0.04199208,0.14929161
1764767841.250227,-2.86888,1.51074,1.55652,0.97448481,-0.04199208,0.14929161
1764767841.250227,-2.86888,1.51074,1.55652,0.97448481,-0.04199208,0.14929161
1764767841.250227,-2.86888,1.51074,1.55652,0.97448481,-0.04199208,0.14929161
1764767841.250227,-3.23512,1.2208,1.2055399999999998,0.97424067,-0.04284657,0.149474715
1764767841.250227,-3.23512,1.2208,1.2055399999999998,0.97424067,-0.04284657,0.149474715
1764767841.2507305,-3.23512,1.2208,1.2055399999999998,0.97424067,-0.04284657,0.149474715
1764767841.2507305,-3.23512,1.2208,1.2055399999999998,0.97424067,-0.04284657,0.149474715
1764767841.2507305,-3.23512,1.2208,1.2055399999999998,0.97424067,-0.04284657,0.149474715
1764767841.2507305,-3.23512,1.2208,1.2055399999999998,0.97424067,-0.04284657,0.149474715
1764767841.2507305,-3.23512,1.2208,1.2055399999999998,0.97424067,-0.04284657,0.149474715
1764767841.2507305,-3.23512,1.2208,1.2055399999999998,0.97424067,-0.04284657,0.149474715
1764767841.2507305,-3.23512,1.2208,1.2055399999999998,0.97424067,-0.04284657,0.149474715
1764767841.2507305,-3.23512,1.2208,1.2055399999999998,0.97424067,-0.04284657,0.149474715
1764767841.2507305,-3.1283,1.11398,0.47306,0.974179635,-0.043762095,0.148864365
1764767841.2507305,-3.1283,1.11398,0.47306,0.974179635,-0.043762095,0.148864365
1764767841.2507305,-3.1283,1.11398,0.47306,0.974179635,-0.043762095,0.148864365
1764767841.2507305,-3.1283,1.11398,0.47306,0.974179635,-0.043762095,0.148864365
1764767841.2507305,-3.1283,1.11398,0.47306,0.974179635,-0.043762095,0.148864365
1764767841.2507305,-3.1283,1.11398,0.47306,0.974179635,-0.043762095,0.148864365
1764767841.2507305,-3.1283,1.11398,0.47306,0.974179635,-0.043762095,0.148864365
1764767841.2507305,-3.1283,1.11398,0.47306,0.974179635,-0.043762095,0.148864365
1764767841.2507305,-3.1283,1.11398,0.47306,0.974179635,-0.043762095,0.148864365
1764767841.2507305,-3.1283,1.11398,0.47306,0.974179635,-0.043762095,0.148864365
1764767841.2978303,-3.02148,1.08346,0.5341,0.973813425,-0.04321278,0.1489254
1764767841.2978303,-3.02148,1.08346,0.5341,0.973813425,-0.04321278,0.1489254
1764767841.2978303,-3.02148,1.08346,0.5341,0.973813425,-0.04321278,0.1489254
1764767841.2978303,-3.02148,1.08346,0.5341,0.973813425,-0.04321278,0.1489254
1764767841.2978303,-3.02148,1.08346,0.5341,0.973813425,-0.04321278,0.1489254
1764767841.2978303,-3.02148,1.08346,0.5341,0.973813425,-0.04321278,0.1489254
1764767841.2978303,-3.02148,1.08346,0.5341,0.973813425,-0.04321278,0.1489254
1764767841.2978303,-3.02148,1.08346,0.5341,0.973813425,-0.04321278,0.1489254
1764767841.2978303,-3.02148,1.08346,0.5341,0.973813425,-0.04321278,0.1489254
1764767841.2978303,-3.02148,1.08346,0.5341,0.973813425,-0.04321278,0.1489254
1764767841.2978303,-3.41824,0.82404,0.56462,0.97326411,-0.042785535,0.14916954
1764767841.2978303,-3.41824,0.82404,0.56462,0.97326411,-0.042785535,0.14916954
1764767841.2978303,-3.41824,0.82404,0.56462,0.97326411,-0.042785535,0.14916954
1764767841.2978303,-3.41824,0.82404,0.56462,0.97326411,-0.042785535,0.14916954
1764767841.2978303,-3.41824,0.82404,0.56462,0.97326411,-0.042785535,0.14916954
1764767841.2978303,-3.41824,0.82404,0.56462,0.97326411,-0.042785535,0.14916954
1764767841.2978303,-3.41824,0.82404,0.56462,0.97326411,-0.042785535,0.14916954
1764767841.2978303,-3.41824,0.82404,0.56462,0.97326411,-0.042785535,0.14916954
1764767841.2978303,-3.41824,0.82404,0.56462,0.97326411,-0.042785535,0.14916954
1764767841.2978303,-3.41824,0.82404,0.56462,0.97326411,-0.042785535,0.14916954
1764767841.2978303,-3.76922,1.0682,0.3051999999999999,0.973691355,-0.0427245,0.148986435
1764767841.2978303,-3.76922,1.0682,0.3051999999999999,0.973691355,-0.0427245,0.148986435
1764767841.2978303,-3.76922,1.0682,0.3051999999999999,0.973691355,-0.0427245,0.148986435
1764767841.2978303,-3.76922,1.0682,0.3051999999999999,0.973691355,-0.0427245,0.148986435
1764767841.3409977,-3.76922,1.0682,0.3051999999999999,0.973691355,-0.0427245,0.148986435
1764767841.3409977,-3.76922,1.0682,0.3051999999999999,0.973691355,-0.0427245,0.148986435
1764767841.3409977,-3.76922,1.0682,0.3051999999999999,0.973691355,-0.0427245,0.148986435
1764767841.3409977,-3.76922,1.0682,0.3051999999999999,0.973691355,-0.0427245,0.148986435
1764767841.3409977,-3.76922,1.0682,0.3051999999999999,0.973691355,-0.0427245,0.148986435
1764767841.3409977,-3.76922,1.0682,0.3051999999999999,0.973691355,-0.0427245,0.148986435
1764767841.3409977,-3.61662,0.9156,0.04578,0.974423775,-0.041808975,0.148986435
1764767841.3409977,-3.61662,0.9156,0.04578,0.974423775,-0.041808975,0.148986435
1764767841.3409977,-3.61662,0.9156,0.04578,0.974423775,-0.041808975,0.148986435
1764767841.3409977,-3.61662,0.9156,0.04578,0.974423775,-0.041808975,0.148986435
1764767841.3409977,-3.61662,0.9156,0.04578,0.974423775,-0.041808975,0.148986435
1764767841.3409977,-3.61662,0.9156,0.04578,0.974423775,-0.041808975,0.148986435
1764767841.3409977,-3.61662,0.9156,0.04578,0.974423775,-0.041808975,0.148986435
1764767841.3409977,-3.61662,0.9156,0.04578,0.974423775,-0.041808975,0.148986435
1764767841.3409977,-3.61662,0.9156,0.04578,0.974423775,-0.041808975,0.148986435
1764767841.3409977,-3.61662,0.9156,0.04578,0.974423775,-0.041808975,0.148986435
1764767841.3409977,-3.86078,0.85456,0.3204599999999999,0.97460688,-0.04138173,0.14904747
1764767841.3409977,-3.86078,0.85456,0.3204599999999999,0.97460688,-0.04138173,0.14904747
1764767841.3409977,-3.86078,0.85456,0.3204599999999999,0.97460688,-0.04138173,0.14904747
1764767841.3409977,-3.86078,0.85456,0.3204599999999999,0.97460688,-0.04138173,0.14904747
1764767841.3409977,-3.86078,0.85456,0.3204599999999999,0.97460688,-0.04138173,0.14904747
1764767841.3409977,-3.86078,0.85456,0.3204599999999999,0.97460688,-0.04138173,0.14904747
1764767841.387803,-3.86078,0.85456,0.3204599999999999,0.97460688,-0.04138173,0.14904747
1764767841.387803,-3.86078,0.85456,0.3204599999999999,0.97460688,-0.04138173,0.14904747
1764767841.387803,-3.86078,0.85456,0.3204599999999999,0.97460688,-0.04138173,0.14904747
1764767841.387803,-3.86078,0.85456,0.3204599999999999,0.97460688,-0.04138173,0.14904747
1764767841.387803,-3.72344,0.93086,0.06104,0.973325145,-0.042053115,0.14904747
1764767841.387803,-3.72344,0.93086,0.06104,0.973325145,-0.042053115,0.14904747
1764767841.387803,-3.72344,0.93086,0.06104,0.973325145,-0.042053115,0.14904747
1764767841.387803,-3.72344,0.93086,0.06104,0.973325145,-0.042053115,0.14904747
1764767841.387803,-3.72344,0.93086,0.06104,0.973325145,-0.042053115,0.14904747
1764767841.387803,-3.72344,0.93086,0.06104,0.973325145,-0.042053115,0.14904747
1764767841.387803,-3.72344,0.93086,0.06104,0.973325145,-0.042053115,0.14904747
1764767841.387803,-3.72344,0.93086,0.06104,0.973325145,-0.042053115,0.14904747
1764767841.387803,-3.72344,0.93086,0.06104,0.973325145,-0.042053115,0.14904747
1764767841.387803,-3.72344,0.93086,0.06104,0.973325145,-0.042053115,0.14904747
1764767841.387803,-4.02864,0.763,0.59514,0.973569285,-0.04223622,0.148498155
1764767841.387803,-4.02864,0.763,0.59514,0.973569285,-0.04223622,0.148498155
1764767841.388939,-4.02864,0.763,0.59514,0.973569285,-0.04223622,0.148498155
1764767841.388939,-4.02864,0.763,0.59514,0.973569285,-0.04223622,0.148498155
1764767841.388939,-4.02864,0.763,0.59514,0.973569285,-0.04223622,0.148498155
1764767841.388939,-4.02864,0.763,0.59514,0.973569285,-0.04223622,0.148498155
1764767841.388939,-4.02864,0.763,0.59514,0.973569285,-0.04223622,0.148498155
1764767841.388939,-4.02864,0.763,0.59514,0.973569285,-0.04223622,0.148498155
1764767841.388939,-4.02864,0.763,0.59514,0.973569285,-0.04223622,0.148498155
1764767841.388939,-4.02864,0.763,0.59514,0.973569285,-0.04223622,0.148498155
1764767841.4358828,-3.90656,0.85456,0.2289,0.97436274,-0.04235829,0.14880333
1764767841.4358828,-3.90656,0.85456,0.2289,0.97436274,-0.04235829,0.14880333
1764767841.4358828,-3.90656,0.85456,0.2289,0.97436274,-0.04235829,0.14880333
1764767841.4358828,-3.90656,0.85456,0.2289,0.97436274,-0.04235829,0.14880333
1764767841.4358828,-3.90656,0.85456,0.2289,0.97436274,-0.04235829,0.14880333
1764767841.4358828,-3.90656,0.85456,0.2289,0.97436274,-0.04235829,0.14880333
1764767841.4358828,-3.90656,0.85456,0.2289,0.97436274,-0.04235829,0.14880333
1764767841.4358828,-3.90656,0.85456,0.2289,0.97436274,-0.04235829,0.14880333
1764767841.4358828,-3.90656,0.85456,0.2289,0.97436274,-0.04235829,0.14880333
1764767841.4358828,-3.90656,0.85456,0.2289,0.97436274,-0.04235829,0.14880333
1764767841.436422,-3.67766,0.88508,0.1678599999999999,0.974423775,-0.04187001,0.14904747
1764767841.436422,-3.67766,0.88508,0.1678599999999999,0.974423775,-0.04187001,0.14904747
1764767841.436422,-3.67766,0.88508,0.1678599999999999,0.974423775,-0.04187001,0.14904747
1764767841.436422,-3.67766,0.88508,0.1678599999999999,0.974423775,-0.04187001,0.14904747
1764767841.436422,-3.67766,0.88508,0.1678599999999999,0.974423775,-0.04187001,0.14904747
1764767841.436422,-3.67766,0.88508,0.1678599999999999,0.974423775,-0.04187001,0.14904747
1764767841.436422,-3.67766,0.88508,0.1678599999999999,0.974423775,-0.04187001,0.14904747
1764767841.436422,-3.67766,0.88508,0.1678599999999999,0.974423775,-0.04187001,0.14904747
1764767841.436422,-3.67766,0.88508,0.1678599999999999,0.974423775,-0.04187001,0.14904747
1764767841.436422,-3.67766,0.88508,0.1678599999999999,0.974423775,-0.04187001,0.14904747
1764767841.436422,-4.1202,0.41202,0.04578,0.974057565,-0.041320695,0.148864365
1764767841.436422,-4.1202,0.41202,0.04578,0.974057565,-0.041320695,0.148864365
1764767841.436422,-4.1202,0.41202,0.04578,0.974057565,-0.041320695,0.148864365
1764767841.436422,-4.1202,0.41202,0.04578,0.974057565,-0.041320695,0.148864365
1764767841.4823773,-4.1202,0.41202,0.04578,0.974057565,-0.041320695,0.148864365
1764767841.4823773,-4.1202,0.41202,0.04578,0.974057565,-0.041320695,0.148864365
1764767841.4823773,-4.1202,0.41202,0.04578,0.974057565,-0.041320695,0.148864365
1764767841.4823773,-4.1202,0.41202,0.04578,0.974057565,-0.041320695,0.148864365
1764767841.4823773,-4.1202,0.41202,0.04578,0.974057565,-0.041320695,0.148864365
1764767841.4823773,-4.1202,0.41202,0.04578,0.974057565,-0.041320695,0.148864365
1764767841.4823773,-3.98286,1.28184,0.3815,0.975888615,-0.04162587,0.148864365
1764767841.4823773,-3.98286,1.28184,0.3815,0.975888615,-0.04162587,0.148864365
1764767841.4823773,-3.98286,1.28184,0.3815,0.975888615,-0.04162587,0.148864365
1764767841.4823773,-3.98286,1.28184,0.3815,0.975888615,-0.04162587,0.148864365
1764767841.4823773,-3.98286,1.28184,0.3815,0.975888615,-0.04162587,0.148864365
1764767841.4823773,-3.98286,1.28184,0.3815,0.975888615,-0.04162587,0.148864365
1764767841.4823773,-3.98286,1.28184,0.3815,0.975888615,-0.04162587,0.148864365
1764767841.4823773,-3.98286,1.28184,0.3815,0.975888615,-0.04162587,0.148864365
1764767841.4823773,-3.98286,1.28184,0.3815,0.975888615,-0.04162587,0.148864365
1764767841.4823773,-3.98286,1.28184,0.3815,0.975888615,-0.04162587,0.148864365
1764767841.4823773,-3.79974,0.73248,0.82404,0.973325145,-0.042297255,0.14855919
1764767841.4823773,-3.79974,0.73248,0.82404,0.973325145,-0.042297255,0.14855919
1764767841.4823773,-3.79974,0.73248,0.82404,0.973325145,-0.042297255,0.14855919
1764767841.4823773,-3.79974,0.73248,0.82404,0.973325145,-0.042297255,0.14855919
1764767841.4823773,-3.79974,0.73248,0.82404,0.973325145,-0.042297255,0.14855919
1764767841.4823773,-3.79974,0.73248,0.82404,0.973325145,-0.042297255,0.14855919
1764767841.5297267,-3.79974,0.73248,0.82404,0.973325145,-0.042297255,0.14855919
1764767841.5297267,-3.79974,0.73248,0.82404,0.973325145,-0.042297255,0.14855919
1764767841.5297267,-3.79974,0.73248,0.82404,0.973325145,-0.042297255,0.14855919
1764767841.5297267,-3.79974,0.73248,0.82404,0.973325145,-0.042297255,0.14855919
1764767841.5297267,-3.46402,0.82404,0.6867,0.974179635,-0.042663465,0.148009875
1764767841.5297267,-3.46402,0.82404,0.6867,0.974179635,-0.042663465,0.148009875
1764767841.5297267,-3.46402,0.82404,0.6867,0.974179635,-0.042663465,0.148009875
1764767841.5297267,-3.46402,0.82404,0.6867,0.974179635,-0.042663465,0.148009875
1764767841.5297267,-3.46402,0.82404,0.6867,0.974179635,-0.042663465,0.148009875
1764767841.5297267,-3.46402,0.82404,0.6867,0.974179635,-0.042663465,0.148009875
1764767841.5297267,-3.46402,0.82404,0.6867,0.974179635,-0.042663465,0.148009875
1764767841.5297267,-3.46402,0.82404,0.6867,0.974179635,-0.042663465,0.148009875
1764767841.5297267,-3.46402,0.82404,0.6867,0.974179635,-0.042663465,0.148009875
1764767841.5297267,-3.46402,0.82404,0.6867,0.974179635,-0.042663465,0.148009875
1764767841.5297267,-2.85362,1.02242,-0.3357199999999999,0.976254825,-0.04235829,0.14819298
1764767841.5297267,-2.85362,1.02242,-0.3357199999999999,0.976254825,-0.04235829,0.14819298
1764767841.5297267,-2.85362,1.02242,-0.3357199999999999,0.976254825,-0.04235829,0.14819298
1764767841.5297267,-2.85362,1.02242,-0.3357199999999999,0.976254825,-0.04235829,0.14819298
1764767841.5297267,-2.85362,1.02242,-0.3357199999999999,0.976254825,-0.04235829,0.14819298
1764767841.5297267,-2.85362,1.02242,-0.3357199999999999,0.976254825,-0.04235829,0.14819298
1764767841.5297267,-2.85362,1.02242,-0.3357199999999999,0.976254825,-0.04235829,0.14819298
1764767841.5297267,-2.85362,1.02242,-0.3357199999999999,0.976254825,-0.04235829,0.14819298
1764767841.5297267,-2.85362,1.02242,-0.3357199999999999,0.976254825,-0.04235829,0.14819298
1764767841.5297267,-2.85362,1.02242,-0.3357199999999999,0.976254825,-0.04235829,0.14819298
1764767841.576236,-3.08252,1.70912,-0.2289,0.97594965,-0.040710345,0.148498155
1764767841.576236,-3.08252,1.70912,-0.2289,0.97594965,-0.040710345,0.148498155
1764767841.576236,-3.08252,1.70912,-0.2289,0.97594965,-0.040710345,0.148498155
1764767841.576236,-3.08252,1.70912,-0.2289,0.97594965,-0.040710345,0.148498155
1764767841.576236,-3.08252,1.70912,-0.2289,0.97594965,-0.040710345,0.148498155
1764767841.576236,-3.08252,1.70912,-0.2289,0.97594965,-0.040710345,0.148498155
1764767841.576236,-3.08252,1.70912,-0.2289,0.97594965,-0.040710345,0.148498155
1764767841.576236,-3.08252,1.70912,-0.2289,0.97594965,-0.040710345,0.148498155
1764767841.576236,-3.08252,1.70912,-0.2289,0.97594965,-0.040710345,0.148498155
1764767841.576236,-3.08252,1.70912,-0.2289,0.97594965,-0.040710345,0.148498155
1764767841.576236,-3.06726,1.4497,0.01526,0.97350825,-0.039977925,0.14929161
1764767841.576236,-3.06726,1.4497,0.01526,0.97350825,-0.039977925,0.14929161
1764767841.576236,-3.06726,1.4497,0.01526,0.97350825,-0.039977925,0.14929161
1764767841.576236,-3.06726,1.4497,0.01526,0.97350825,-0.039977925,0.14929161
1764767841.576236,-3.06726,1.4497,0.01526,0.97350825,-0.039977925,0.14929161
1764767841.576236,-3.06726,1.4497,0.01526,0.97350825,-0.039977925,0.14929161
1764767841.576236,-3.06726,1.4497,0.01526,0.97350825,-0.039977925,0.14929161
1764767841.576236,-3.06726,1.4497,0.01526,0.97350825,-0.039977925,0.14929161
1764767841.576236,-3.06726,1.4497,0.01526,0.97350825,-0.039977925,0.14929161
1764767841.576236,-3.06726,1.4497,0.01526,0.97350825,-0.039977925,0.14929161
