Timestamp,GyroX,GyroY,GyroZ,AccX,AccY,AccZ
1764767292.6343052,-3.41824,1.05294,1.17502,-0.924253005,0.30956952,0.140685675
1764767292.6343052,-3.41824,1.05294,1.17502,-0.924253005,0.30956952,0.140685675
1764767292.6343052,-3.41824,1.05294,1.17502,-0.924253005,0.30956952,0.140685675
1764767292.6343052,-3.41824,1.05294,1.17502,-0.924253005,0.30956952,0.140685675
1764767292.6343052,-3.41824,1.05294,1.17502,-0.924253005,0.30956952,0.140685675
1764767292.6343052,-3.41824,1.05294,1.17502,-0.924253005,0.30956952,0.140685675
1764767292.6343052,-3.41824,1.05294,1.17502,-0.924253005,0.30956952,0.140685675
1764767292.6343052,-3.41824,1.05294,1.17502,-0.924253005,0.30956952,0.140685675
1764767292.6343052,-3.41824,1.05294,1.17502,-0.924253005,0.30956952,0.140685675
1764767292.6343052,-3.40298,1.46496,0.71722,-0.92345955,0.310118835,0.140807745
1764767292.6343052,-3.40298,1.46496,0.71722,-0.92345955,0.310118835,0.140807745
1764767292.6343052,-3.40298,1.46496,0.71722,-0.92345955,0.310118835,0.140807745
1764767292.6343052,-3.40298,1.46496,0.71722,-0.92345955,0.310118835,0.140807745
1764767292.6343052,-3.40298,1.46496,0.71722,-0.92345955,0.310118835,0.140807745
1764767292.6343052,-3.40298,1.46496,0.71722,-0.92345955,0.310118835,0.140807745
1764767292.6343052,-3.40298,1.46496,0.71722,-0.92345955,0.310118835,0.140807745
1764767292.6343052,-3.40298,1.46496,0.71722,-0.92345955,0.310118835,0.140807745
1764767292.6343052,-3.40298,1.46496,0.71722,-0.92345955,0.310118835,0.140807745
1764767292.6343052,-3.40298,1.46496,0.71722,-0.92345955,0.310118835,0.140807745
1764767292.6343052,-3.47928,0.8698199999999999,-0.09156,-0.923520585,0.31103436,0.141418095
1764767292.6343052,-3.47928,0.8698199999999999,-0.09156,-0.923520585,0.31103436,0.141418095
1764767292.6802523,-3.47928,0.8698199999999999,-0.09156,-0.923520585,0.31103436,0.141418095
1764767292.6802523,-3.47928,0.8698199999999999,-0.09156,-0.923520585,0.31103436,0.141418095
1764767292.6802523,-3.47928,0.8698199999999999,-0.09156,-0.923520585,0.31103436,0.141418095
1764767292.6802523,-3.47928,0.8698199999999999,-0.09156,-0.923520585,0.31103436,0.141418095
1764767292.6802523,-3.47928,0.8698199999999999,-0.09156,-0.923520585,0.31103436,0.141418095
1764767292.6802523,-3.47928,0.8698199999999999,-0.09156,-0.923520585,0.31103436,0.141418095
1764767292.6802523,-3.47928,0.8698199999999999,-0.09156,-0.923520585,0.31103436,0.141418095
1764767292.6802523,-3.47928,0.8698199999999999,-0.09156,-0.923520585,0.31103436,0.141418095
1764767292.6802523,-3.34194,0.9156,0.10682,-0.924375075,0.31225506,0.141418095
1764767292.6802523,-3.34194,0.9156,0.10682,-0.924375075,0.31225506,0.141418095
1764767292.6802523,-3.34194,0.9156,0.10682,-0.924375075,0.31225506,0.141418095
1764767292.6802523,-3.34194,0.9156,0.10682,-0.924375075,0.31225506,0.141418095
1764767292.6802523,-3.34194,0.9156,0.10682,-0.924375075,0.31225506,0.141418095
1764767292.6802523,-3.34194,0.9156,0.10682,-0.924375075,0.31225506,0.141418095
1764767292.6812649,-3.34194,0.9156,0.10682,-0.924375075,0.31225506,0.141418095
1764767292.6812649,-3.34194,0.9156,0.10682,-0.924375075,0.31225506,0.141418095
1764767292.6812649,-3.34194,0.9156,0.10682,-0.924375075,0.31225506,0.141418095
1764767292.6812649,-3.34194,0.9156,0.10682,-0.924375075,0.31225506,0.141418095
1764767292.6812649,-3.63188,0.82404,-0.01526,-0.923764725,0.313414725,0.14062464
1764767292.6812649,-3.63188,0.82404,-0.01526,-0.923764725,0.313414725,0.14062464
1764767292.6812649,-3.63188,0.82404,-0.01526,-0.923764725,0.313414725,0.14062464
1764767292.6812649,-3.63188,0.82404,-0.01526,-0.923764725,0.313414725,0.14062464
1764767292.6812649,-3.63188,0.82404,-0.01526,-0.923764725,0.313414725,0.14062464
1764767292.6812649,-3.63188,0.82404,-0.01526,-0.923764725,0.313414725,0.14062464
1764767292.7279594,-3.63188,0.82404,-0.01526,-0.923764725,0.313414725,0.14062464
1764767292.7279594,-3.63188,0.82404,-0.01526,-0.923764725,0.313414725,0.14062464
1764767292.7279594,-3.63188,0.82404,-0.01526,-0.923764725,0.313414725,0.14062464
1764767292.7279594,-3.63188,0.82404,-0.01526,-0.923764725,0.313414725,0.14062464
1764767292.7279594,-3.95234,0.9919,0.0762999999999999,-0.92382576,0.31555095,0.14025843
1764767292.7279594,-3.95234,0.9919,0.0762999999999999,-0.92382576,0.31555095,0.14025843
1764767292.7279594,-3.95234,0.9919,0.0762999999999999,-0.92382576,0.31555095,0.14025843
1764767292.7279594,-3.95234,0.9919,0.0762999999999999,-0.92382576,0.31555095,0.14025843
1764767292.7279594,-3.95234,0.9919,0.0762999999999999,-0.92382576,0.31555095,0.14025843
1764767292.7279594,-3.95234,0.9919,0.0762999999999999,-0.92382576,0.31555095,0.14025843
1764767292.7279594,-3.95234,0.9919,0.0762999999999999,-0.92382576,0.31555095,0.14025843
1764767292.7284794,-3.95234,0.9919,0.0762999999999999,-0.92382576,0.31555095,0.14025843
1764767292.7284794,-3.95234,0.9919,0.0762999999999999,-0.92382576,0.31555095,0.14025843
1764767292.7284794,-3.95234,0.9919,0.0762999999999999,-0.92382576,0.31555095,0.14025843
1764767292.7284794,-4.41014,1.64808,-0.1678599999999999,-0.923276445,0.315245775,0.140319465
1764767292.7284794,-4.41014,1.64808,-0.1678599999999999,-0.923276445,0.315245775,0.140319465
1764767292.7284794,-4.41014,1.64808,-0.1678599999999999,-0.923276445,0.315245775,0.140319465
1764767292.7284794,-4.41014,1.64808,-0.1678599999999999,-0.923276445,0.315245775,0.140319465
1764767292.7284794,-4.41014,1.64808,-0.1678599999999999,-0.923276445,0.315245775,0.140319465
1764767292.7284794,-4.41014,1.64808,-0.1678599999999999,-0.923276445,0.315245775,0.140319465
1764767292.7284794,-4.41014,1.64808,-0.1678599999999999,-0.923276445,0.315245775,0.140319465
1764767292.7284794,-4.41014,1.64808,-0.1678599999999999,-0.923276445,0.315245775,0.140319465
1764767292.7734635,-4.41014,1.64808,-0.1678599999999999,-0.923276445,0.315245775,0.140319465
1764767292.7734635,-4.41014,1.64808,-0.1678599999999999,-0.923276445,0.315245775,0.140319465
1764767292.7734635,-2.85362,1.6633399999999998,0.21364,-0.922788165,0.31262127,0.1416012
1764767292.7734635,-2.85362,1.6633399999999998,0.21364,-0.922788165,0.31262127,0.1416012
1764767292.7734635,-2.85362,1.6633399999999998,0.21364,-0.922788165,0.31262127,0.1416012
1764767292.7734635,-2.85362,1.6633399999999998,0.21364,-0.922788165,0.31262127,0.1416012
1764767292.7734635,-2.85362,1.6633399999999998,0.21364,-0.922788165,0.31262127,0.1416012
1764767292.7734635,-2.85362,1.6633399999999998,0.21364,-0.922788165,0.31262127,0.1416012
1764767292.7734635,-2.85362,1.6633399999999998,0.21364,-0.922788165,0.31262127,0.1416012
1764767292.7734635,-2.85362,1.6633399999999998,0.21364,-0.922788165,0.31262127,0.1416012
1764767292.7734635,-2.85362,1.6633399999999998,0.21364,-0.922788165,0.31262127,0.1416012
1764767292.7734635,-2.85362,1.6633399999999998,0.21364,-0.922788165,0.31262127,0.1416012
1764767292.7734635,-2.80784,1.2208,0.62566,-0.92297127,0.31384197,0.1416012
1764767292.7734635,-2.80784,1.2208,0.62566,-0.92297127,0.31384197,0.1416012
1764767292.7734635,-2.80784,1.2208,0.62566,-0.92297127,0.31384197,0.1416012
1764767292.7734635,-2.80784,1.2208,0.62566,-0.92297127,0.31384197,0.1416012
1764767292.7734635,-2.80784,1.2208,0.62566,-0.92297127,0.31384197,0.1416012
1764767292.7734635,-2.80784,1.2208,0.62566,-0.92297127,0.31384197,0.1416012
1764767292.7734635,-2.80784,1.2208,0.62566,-0.92297127,0.31384197,0.1416012
1764767292.7734635,-2.80784,1.2208,0.62566,-0.92297127,0.31384197,0.1416012
1764767292.7734635,-2.80784,1.2208,0.62566,-0.92297127,0.31384197,0.1416012
1764767292.7734635,-2.80784,1.2208,0.62566,-0.92297127,0.31384197,0.1416012
1764767292.7734635,-4.21176,1.00716,0.4578,-0.92480232,0.31628337,0.139709115
1764767292.7734635,-4.21176,1.00716,0.4578,-0.92480232,0.31628337,0.139709115
1764767292.8203735,-4.21176,1.00716,0.4578,-0.92480232,0.31628337,0.139709115
1764767292.8203735,-4.21176,1.00716,0.4578,-0.92480232,0.31628337,0.139709115
1764767292.8203735,-4.21176,1.00716,0.4578,-0.92480232,0.31628337,0.139709115
1764767292.8203735,-4.21176,1.00716,0.4578,-0.92480232,0.31628337,0.139709115
1764767292.8203735,-4.21176,1.00716,0.4578,-0.92480232,0.31628337,0.139709115
1764767292.8203735,-4.21176,1.00716,0.4578,-0.92480232,0.31628337,0.139709115
1764767292.8203735,-4.21176,1.00716,0.4578,-0.92480232,0.31628337,0.139709115
1764767292.8203735,-4.21176,1.00716,0.4578,-0.92480232,0.31628337,0.139709115
1764767292.8203735,-5.08158,1.17502,0.36624,-0.92590095,0.316588545,0.138854625
1764767292.8203735,-5.08158,1.17502,0.36624,-0.92590095,0.316588545,0.138854625
1764767292.8203735,-5.08158,1.17502,0.36624,-0.92590095,0.316588545,0.138854625
1764767292.8203735,-5.08158,1.17502,0.36624,-0.92590095,0.316588545,0.138854625
1764767292.8203735,-5.08158,1.17502,0.36624,-0.92590095,0.316588545,0.138854625
1764767292.8203735,-5.08158,1.17502,0.36624,-0.92590095,0.316588545,0.138854625
1764767292.8203735,-5.08158,1.17502,0.36624,-0.92590095,0.316588545,0.138854625
1764767292.8203735,-5.08158,1.17502,0.36624,-0.92590095,0.316588545,0.138854625
1764767292.8203735,-5.08158,1.17502,0.36624,-0.92590095,0.316588545,0.138854625
1764767292.8203735,-5.08158,1.17502,0.36624,-0.92590095,0.316588545,0.138854625
1764767292.8675673,-4.70008,1.43444,0.50358,-0.92443611,0.31481853,0.1391598
1764767292.8675673,-4.70008,1.43444,0.50358,-0.92443611,0.31481853,0.1391598
1764767292.8675673,-4.70008,1.43444,0.50358,-0.92443611,0.31481853,0.1391598
1764767292.8675673,-4.70008,1.43444,0.50358,-0.92443611,0.31481853,0.1391598
1764767292.8675673,-4.70008,1.43444,0.50358,-0.92443611,0.31481853,0.1391598
1764767292.8675673,-4.70008,1.43444,0.50358,-0.92443611,0.31481853,0.1391598
1764767292.8675673,-4.70008,1.43444,0.50358,-0.92443611,0.31481853,0.1391598
1764767292.8675673,-4.70008,1.43444,0.50358,-0.92443611,0.31481853,0.1391598
1764767292.8675673,-4.70008,1.43444,0.50358,-0.92443611,0.31481853,0.1391598
1764767292.8675673,-4.70008,1.43444,0.50358,-0.92443611,0.31481853,0.1391598
1764767292.8675673,-4.86794,1.2055399999999998,0.3815,-0.923764725,0.314269215,0.139587045
1764767292.8675673,-4.86794,1.2055399999999998,0.3815,-0.923764725,0.314269215,0.139587045
1764767292.8675673,-4.86794,1.2055399999999998,0.3815,-0.923764725,0.314269215,0.139587045
1764767292.8675673,-4.86794,1.2055399999999998,0.3815,-0.923764725,0.314269215,0.139587045
1764767292.8675673,-4.86794,1.2055399999999998,0.3815,-0.923764725,0.314269215,0.139587045
1764767292.8675673,-4.86794,1.2055399999999998,0.3815,-0.923764725,0.314269215,0.139587045
1764767292.8685818,-4.86794,1.2055399999999998,0.3815,-0.923764725,0.314269215,0.139587045
1764767292.8685818,-4.86794,1.2055399999999998,0.3815,-0.923764725,0.314269215,0.139587045
1764767292.8685818,-4.86794,1.2055399999999998,0.3815,-0.923764725,0.314269215,0.139587045
1764767292.8685818,-4.86794,1.2055399999999998,0.3815,-0.923764725,0.314269215,0.139587045
1764767292.8685818,-5.1121,0.73248,0.3509799999999999,-0.924619215,0.312926445,0.14025843
1764767292.8685818,-5.1121,0.73248,0.3509799999999999,-0.924619215,0.312926445,0.14025843
1764767292.8685818,-5.1121,0.73248,0.3509799999999999,-0.924619215,0.312926445,0.14025843
1764767292.8685818,-5.1121,0.73248,0.3509799999999999,-0.924619215,0.312926445,0.14025843
1764767292.8685818,-5.1121,0.73248,0.3509799999999999,-0.924619215,0.312926445,0.14025843
1764767292.8685818,-5.1121,0.73248,0.3509799999999999,-0.924619215,0.312926445,0.14025843
1764767292.8685818,-5.1121,0.73248,0.3509799999999999,-0.924619215,0.312926445,0.14025843
1764767292.8685818,-5.1121,0.73248,0.3509799999999999,-0.924619215,0.312926445,0.14025843
1764767292.8685818,-5.1121,0.73248,0.3509799999999999,-0.924619215,0.312926445,0.14025843
1764767292.8685818,-5.1121,0.73248,0.3509799999999999,-0.924619215,0.312926445,0.14025843
1764767292.9109173,-4.91372,0.8698199999999999,0.56462,-0.92480232,0.31188885,0.14062464
1764767292.9109173,-4.91372,0.8698199999999999,0.56462,-0.92480232,0.31188885,0.14062464
1764767292.9109173,-4.91372,0.8698199999999999,0.56462,-0.92480232,0.31188885,0.14062464
1764767292.9109173,-4.91372,0.8698199999999999,0.56462,-0.92480232,0.31188885,0.14062464
1764767292.9109173,-4.91372,0.8698199999999999,0.56462,-0.92480232,0.31188885,0.14062464
1764767292.9109173,-4.91372,0.8698199999999999,0.56462,-0.92480232,0.31188885,0.14062464
1764767292.9109173,-4.91372,0.8698199999999999,0.56462,-0.92480232,0.31188885,0.14062464
1764767292.9109173,-4.91372,0.8698199999999999,0.56462,-0.92480232,0.31188885,0.14062464
1764767292.9109173,-4.91372,0.8698199999999999,0.56462,-0.92480232,0.31188885,0.14062464
1764767292.9109173,-4.91372,0.8698199999999999,0.56462,-0.92480232,0.31188885,0.14062464
1764767292.9109173,-4.16598,0.77826,1.02242,-0.92468025,0.310362975,0.14086878
1764767292.9109173,-4.16598,0.77826,1.02242,-0.92468025,0.310362975,0.14086878
1764767292.9109173,-4.16598,0.77826,1.02242,-0.92468025,0.310362975,0.14086878
1764767292.9109173,-4.16598,0.77826,1.02242,-0.92468025,0.310362975,0.14086878
1764767292.9109173,-4.16598,0.77826,1.02242,-0.92468025,0.310362975,0.14086878
1764767292.9109173,-4.16598,0.77826,1.02242,-0.92468025,0.310362975,0.14086878
1764767292.9109173,-4.16598,0.77826,1.02242,-0.92468025,0.310362975,0.14086878
1764767292.9109173,-4.16598,0.77826,1.02242,-0.92468025,0.310362975,0.14086878
1764767292.9109173,-4.16598,0.77826,1.02242,-0.92468025,0.310362975,0.14086878
1764767292.9109173,-4.16598,0.77826,1.02242,-0.92468025,0.310362975,0.14086878
1764767292.9109173,-3.32668,1.00716,0.96138,-0.9252906,0.30993573,0.139464975
1764767292.9109173,-3.32668,1.00716,0.96138,-0.9252906,0.30993573,0.139464975
1764767292.9581406,-3.32668,1.00716,0.96138,-0.9252906,0.30993573,0.139464975
1764767292.9581406,-3.32668,1.00716,0.96138,-0.9252906,0.30993573,0.139464975
1764767292.9581406,-3.32668,1.00716,0.96138,-0.9252906,0.30993573,0.139464975
1764767292.9581406,-3.32668,1.00716,0.96138,-0.9252906,0.30993573,0.139464975
1764767292.9581406,-3.32668,1.00716,0.96138,-0.9252906,0.30993573,0.139464975
1764767292.9581406,-3.32668,1.00716,0.96138,-0.9252906,0.30993573,0.139464975
1764767292.9581406,-3.32668,1.00716,0.96138,-0.9252906,0.30993573,0.139464975
1764767292.9581406,-3.32668,1.00716,0.96138,-0.9252906,0.30993573,0.139464975
1764767292.9581406,-3.61662,1.03768,0.6867,-0.925473705,0.31017987,0.139464975
1764767292.9581406,-3.61662,1.03768,0.6867,-0.925473705,0.31017987,0.139464975
1764767292.9581406,-3.61662,1.03768,0.6867,-0.925473705,0.31017987,0.139464975
1764767292.9581406,-3.61662,1.03768,0.6867,-0.925473705,0.31017987,0.139464975
1764767292.9581406,-3.61662,1.03768,0.6867,-0.925473705,0.31017987,0.139464975
1764767292.9581406,-3.61662,1.03768,0.6867,-0.925473705,0.31017987,0.139464975
1764767292.9581406,-3.61662,1.03768,0.6867,-0.925473705,0.31017987,0.139464975
1764767292.9586666,-3.61662,1.03768,0.6867,-0.925473705,0.31017987,0.139464975
1764767292.9586666,-3.61662,1.03768,0.6867,-0.925473705,0.31017987,0.139464975
1764767292.9586666,-3.61662,1.03768,0.6867,-0.925473705,0.31017987,0.139464975
1764767292.9586666,-4.0439,0.6103999999999999,0.4578,-0.924863355,0.311461605,0.13977015
1764767292.9586666,-4.0439,0.6103999999999999,0.4578,-0.924863355,0.311461605,0.13977015
1764767292.9586666,-4.0439,0.6103999999999999,0.4578,-0.924863355,0.311461605,0.13977015
1764767292.9586666,-4.0439,0.6103999999999999,0.4578,-0.924863355,0.311461605,0.13977015
1764767293.0047116,-4.0439,0.6103999999999999,0.4578,-0.924863355,0.311461605,0.13977015
1764767293.0047116,-4.0439,0.6103999999999999,0.4578,-0.924863355,0.311461605,0.13977015
1764767293.0047116,-4.0439,0.6103999999999999,0.4578,-0.924863355,0.311461605,0.13977015
1764767293.0047116,-4.0439,0.6103999999999999,0.4578,-0.924863355,0.311461605,0.13977015
1764767293.0047116,-4.0439,0.6103999999999999,0.4578,-0.924863355,0.311461605,0.13977015
1764767293.0047116,-4.0439,0.6103999999999999,0.4578,-0.924863355,0.311461605,0.13977015
1764767293.0047116,-3.83026,0.96138,0.1525999999999999,-0.92468025,0.311949885,0.139953255
1764767293.0047116,-3.83026,0.96138,0.1525999999999999,-0.92468025,0.311949885,0.139953255
1764767293.0047116,-3.83026,0.96138,0.1525999999999999,-0.92468025,0.311949885,0.139953255
1764767293.0047116,-3.83026,0.96138,0.1525999999999999,-0.92468025,0.311949885,0.139953255
1764767293.0047116,-3.83026,0.96138,0.1525999999999999,-0.92468025,0.311949885,0.139953255
1764767293.0047116,-3.83026,0.96138,0.1525999999999999,-0.92468025,0.311949885,0.139953255
1764767293.0047116,-3.83026,0.96138,0.1525999999999999,-0.92468025,0.311949885,0.139953255
1764767293.0047116,-3.83026,0.96138,0.1525999999999999,-0.92468025,0.311949885,0.139953255
1764767293.0047116,-3.83026,0.96138,0.1525999999999999,-0.92468025,0.311949885,0.139953255
1764767293.0047116,-3.83026,0.96138,0.1525999999999999,-0.92468025,0.311949885,0.139953255
1764767293.0047116,-3.64714,1.23606,0.6867,-0.92504646,0.311827815,0.14025843
1764767293.0047116,-3.64714,1.23606,0.6867,-0.92504646,0.311827815,0.14025843
1764767293.0047116,-3.64714,1.23606,0.6867,-0.92504646,0.311827815,0.14025843
1764767293.0047116,-3.64714,1.23606,0.6867,-0.92504646,0.311827815,0.14025843
1764767293.0047116,-3.64714,1.23606,0.6867,-0.92504646,0.311827815,0.14025843
1764767293.0047116,-3.64714,1.23606,0.6867,-0.92504646,0.311827815,0.14025843
1764767293.0047116,-3.64714,1.23606,0.6867,-0.92504646,0.311827815,0.14025843
1764767293.0047116,-3.64714,1.23606,0.6867,-0.92504646,0.311827815,0.14025843
1764767293.0484953,-3.64714,1.23606,0.6867,-0.92504646,0.311827815,0.14025843
1764767293.0484953,-3.64714,1.23606,0.6867,-0.92504646,0.311827815,0.14025843
1764767293.0484953,-4.31858,1.02242,0.1525999999999999,-0.924863355,0.31152264,0.14013636
1764767293.0484953,-4.31858,1.02242,0.1525999999999999,-0.924863355,0.31152264,0.14013636
1764767293.0484953,-4.31858,1.02242,0.1525999999999999,-0.924863355,0.31152264,0.14013636
1764767293.0484953,-4.31858,1.02242,0.1525999999999999,-0.924863355,0.31152264,0.14013636
1764767293.0484953,-4.31858,1.02242,0.1525999999999999,-0.924863355,0.31152264,0.14013636
1764767293.0484953,-4.31858,1.02242,0.1525999999999999,-0.924863355,0.31152264,0.14013636
1764767293.0484953,-4.31858,1.02242,0.1525999999999999,-0.924863355,0.31152264,0.14013636
1764767293.0484953,-4.31858,1.02242,0.1525999999999999,-0.924863355,0.31152264,0.14013636
1764767293.0484953,-4.31858,1.02242,0.1525999999999999,-0.924863355,0.31152264,0.14013636
1764767293.0484953,-4.31858,1.02242,0.1525999999999999,-0.924863355,0.31152264,0.14013636
1764767293.0484953,-4.4254,0.96138,0.04578,-0.923642655,0.312560235,0.140319465
1764767293.0484953,-4.4254,0.96138,0.04578,-0.923642655,0.312560235,0.140319465
1764767293.0500216,-4.4254,0.96138,0.04578,-0.923642655,0.312560235,0.140319465
1764767293.0500216,-4.4254,0.96138,0.04578,-0.923642655,0.312560235,0.140319465
1764767293.0500216,-4.4254,0.96138,0.04578,-0.923642655,0.312560235,0.140319465
1764767293.0500216,-4.4254,0.96138,0.04578,-0.923642655,0.312560235,0.140319465
1764767293.0500216,-4.4254,0.96138,0.04578,-0.923642655,0.312560235,0.140319465
1764767293.0500216,-4.4254,0.96138,0.04578,-0.923642655,0.312560235,0.140319465
1764767293.0500216,-4.4254,0.96138,0.04578,-0.923642655,0.312560235,0.140319465
1764767293.0500216,-4.4254,0.96138,0.04578,-0.923642655,0.312560235,0.140319465
1764767293.0500216,-4.53222,1.03768,0.56462,-0.922421955,0.312438165,0.14050257
1764767293.0500216,-4.53222,1.03768,0.56462,-0.922421955,0.312438165,0.14050257
1764767293.0960348,-4.53222,1.03768,0.56462,-0.922421955,0.312438165,0.14050257
1764767293.0960348,-4.53222,1.03768,0.56462,-0.922421955,0.312438165,0.14050257
1764767293.0960348,-4.53222,1.03768,0.56462,-0.922421955,0.312438165,0.14050257
1764767293.0960348,-4.53222,1.03768,0.56462,-0.922421955,0.312438165,0.14050257
1764767293.0960348,-4.53222,1.03768,0.56462,-0.922421955,0.312438165,0.14050257
1764767293.0960348,-4.53222,1.03768,0.56462,-0.922421955,0.312438165,0.14050257
1764767293.0960348,-4.53222,1.03768,0.56462,-0.922421955,0.312438165,0.14050257
1764767293.0960348,-4.53222,1.03768,0.56462,-0.922421955,0.312438165,0.14050257
1764767293.0960348,-4.07442,1.3734,0.48832,-0.9228492,0.3124992,0.140807745
1764767293.0960348,-4.07442,1.3734,0.48832,-0.9228492,0.3124992,0.140807745
1764767293.0960348,-4.07442,1.3734,0.48832,-0.9228492,0.3124992,0.140807745
1764767293.0960348,-4.07442,1.3734,0.48832,-0.9228492,0.3124992,0.140807745
1764767293.0960348,-4.07442,1.3734,0.48832,-0.9228492,0.3124992,0.140807745
1764767293.0960348,-4.07442,1.3734,0.48832,-0.9228492,0.3124992,0.140807745
1764767293.0960348,-4.07442,1.3734,0.48832,-0.9228492,0.3124992,0.140807745
1764767293.0960348,-4.07442,1.3734,0.48832,-0.9228492,0.3124992,0.140807745
1764767293.0960348,-4.07442,1.3734,0.48832,-0.9228492,0.3124992,0.140807745
1764767293.0960348,-4.07442,1.3734,0.48832,-0.9228492,0.3124992,0.140807745
1764767293.0960348,-4.303319999999999,1.02242,0.41202,-0.924008865,0.312926445,0.14123499
1764767293.0960348,-4.303319999999999,1.02242,0.41202,-0.924008865,0.312926445,0.14123499
1764767293.0960348,-4.303319999999999,1.02242,0.41202,-0.924008865,0.312926445,0.14123499
1764767293.0960348,-4.303319999999999,1.02242,0.41202,-0.924008865,0.312926445,0.14123499
1764767293.1423092,-4.303319999999999,1.02242,0.41202,-0.924008865,0.312926445,0.14123499
1764767293.1423092,-4.303319999999999,1.02242,0.41202,-0.924008865,0.312926445,0.14123499
1764767293.1423092,-4.303319999999999,1.02242,0.41202,-0.924008865,0.312926445,0.14123499
1764767293.1423092,-4.303319999999999,1.02242,0.41202,-0.924008865,0.312926445,0.14123499
1764767293.1423092,-4.303319999999999,1.02242,0.41202,-0.924008865,0.312926445,0.14123499
1764767293.1423092,-4.303319999999999,1.02242,0.41202,-0.924008865,0.312926445,0.14123499
1764767293.1423092,-4.303319999999999,0.9156,0.77826,-0.925107495,0.31335369,0.141051885
1764767293.1423092,-4.303319999999999,0.9156,0.77826,-0.925107495,0.31335369,0.141051885
1764767293.1423092,-4.303319999999999,0.9156,0.77826,-0.925107495,0.31335369,0.141051885
1764767293.1423092,-4.303319999999999,0.9156,0.77826,-0.925107495,0.31335369,0.141051885
1764767293.1423092,-4.303319999999999,0.9156,0.77826,-0.925107495,0.31335369,0.141051885
1764767293.1423092,-4.303319999999999,0.9156,0.77826,-0.925107495,0.31335369,0.141051885
1764767293.1423092,-4.303319999999999,0.9156,0.77826,-0.925107495,0.31335369,0.141051885
1764767293.1423092,-4.303319999999999,0.9156,0.77826,-0.925107495,0.31335369,0.141051885
1764767293.1423092,-4.303319999999999,0.9156,0.77826,-0.925107495,0.31335369,0.141051885
1764767293.1423092,-4.303319999999999,0.9156,0.77826,-0.925107495,0.31335369,0.141051885
1764767293.1423092,-4.02864,0.73248,0.77826,-0.92480232,0.31347576,0.140319465
1764767293.1433558,-4.02864,0.73248,0.77826,-0.92480232,0.31347576,0.140319465
1764767293.1433558,-4.02864,0.73248,0.77826,-0.92480232,0.31347576,0.140319465
1764767293.1433558,-4.02864,0.73248,0.77826,-0.92480232,0.31347576,0.140319465
1764767293.1433558,-4.02864,0.73248,0.77826,-0.92480232,0.31347576,0.140319465
1764767293.1433558,-4.02864,0.73248,0.77826,-0.92480232,0.31347576,0.140319465
1764767293.1891809,-4.02864,0.73248,0.77826,-0.92480232,0.31347576,0.140319465
1764767293.1891809,-4.02864,0.73248,0.77826,-0.92480232,0.31347576,0.140319465
1764767293.1891809,-4.02864,0.73248,0.77826,-0.92480232,0.31347576,0.140319465
1764767293.1891809,-4.02864,0.73248,0.77826,-0.92480232,0.31347576,0.140319465
1764767293.1891809,-3.52506,1.09872,0.3815,-0.924741285,0.31335369,0.14074671
1764767293.1891809,-3.52506,1.09872,0.3815,-0.924741285,0.31335369,0.14074671
1764767293.1891809,-3.52506,1.09872,0.3815,-0.924741285,0.31335369,0.14074671
1764767293.1891809,-3.52506,1.09872,0.3815,-0.924741285,0.31335369,0.14074671
1764767293.1891809,-3.52506,1.09872,0.3815,-0.924741285,0.31335369,0.14074671
1764767293.1891809,-3.52506,1.09872,0.3815,-0.924741285,0.31335369,0.14074671
1764767293.1891809,-3.52506,1.09872,0.3815,-0.924741285,0.31335369,0.14074671
1764767293.1891809,-3.52506,1.09872,0.3815,-0.924741285,0.31335369,0.14074671
1764767293.1891809,-3.52506,1.09872,0.3815,-0.924741285,0.31335369,0.14074671
1764767293.1891809,-3.52506,1.09872,0.3815,-0.924741285,0.31335369,0.14074671
1764767293.1891809,-4.440659999999999,0.9156,0.36624,-0.924008865,0.31396404,0.140197395
1764767293.1891809,-4.440659999999999,0.9156,0.36624,-0.924008865,0.31396404,0.140197395
1764767293.1891809,-4.440659999999999,0.9156,0.36624,-0.924008865,0.31396404,0.140197395
1764767293.1891809,-4.440659999999999,0.9156,0.36624,-0.924008865,0.31396404,0.140197395
1764767293.1891809,-4.440659999999999,0.9156,0.36624,-0.924008865,0.31396404,0.140197395
1764767293.1891809,-4.440659999999999,0.9156,0.36624,-0.924008865,0.31396404,0.140197395
1764767293.1891809,-4.440659999999999,0.9156,0.36624,-0.924008865,0.31396404,0.140197395
1764767293.1891809,-4.440659999999999,0.9156,0.36624,-0.924008865,0.31396404,0.140197395
1764767293.1891809,-4.440659999999999,0.9156,0.36624,-0.924008865,0.31396404,0.140197395
1764767293.1891809,-4.440659999999999,0.9156,0.36624,-0.924008865,0.31396404,0.140197395
1764767293.2370677,-4.36436,1.23606,0.48832,-0.92394783,0.313536795,0.13989222
1764767293.2370677,-4.36436,1.23606,0.48832,-0.92394783,0.313536795,0.13989222
1764767293.2370677,-4.36436,1.23606,0.48832,-0.92394783,0.313536795,0.13989222
1764767293.2370677,-4.36436,1.23606,0.48832,-0.92394783,0.313536795,0.13989222
1764767293.2370677,-4.36436,1.23606,0.48832,-0.92394783,0.313536795,0.13989222
1764767293.2370677,-4.36436,1.23606,0.48832,-0.92394783,0.313536795,0.13989222
1764767293.2370677,-4.36436,1.23606,0.48832,-0.92394783,0.313536795,0.13989222
1764767293.2370677,-4.36436,1.23606,0.48832,-0.92394783,0.313536795,0.13989222
1764767293.2370677,-4.36436,1.23606,0.48832,-0.92394783,0.313536795,0.13989222
1764767293.2370677,-4.36436,1.23606,0.48832,-0.92394783,0.313536795,0.13989222
1764767293.2370677,-4.53222,0.74774,0.44254,-0.92394783,0.313048515,0.14050257
1764767293.2370677,-4.53222,0.74774,0.44254,-0.92394783,0.313048515,0.14050257
1764767293.2370677,-4.53222,0.74774,0.44254,-0.92394783,0.313048515,0.14050257
1764767293.2370677,-4.53222,0.74774,0.44254,-0.92394783,0.313048515,0.14050257
1764767293.2370677,-4.53222,0.74774,0.44254,-0.92394783,0.313048515,0.14050257
1764767293.2370677,-4.53222,0.74774,0.44254,-0.92394783,0.313048515,0.14050257
1764767293.2370677,-4.53222,0.74774,0.44254,-0.92394783,0.313048515,0.14050257
1764767293.2370677,-4.53222,0.74774,0.44254,-0.92394783,0.313048515,0.14050257
1764767293.2370677,-4.53222,0.74774,0.44254,-0.92394783,0.313048515,0.14050257
1764767293.2370677,-4.53222,0.74774,0.44254,-0.92394783,0.313048515,0.14050257
1764767293.2370677,-4.51696,1.1445,0.54936,-0.923642655,0.31286541,0.140075325
1764767293.2370677,-4.51696,1.1445,0.54936,-0.923642655,0.31286541,0.140075325
1764767293.2370677,-4.51696,1.1445,0.54936,-0.923642655,0.31286541,0.140075325
1764767293.2370677,-4.51696,1.1445,0.54936,-0.923642655,0.31286541,0.140075325
1764767293.2834115,-4.51696,1.1445,0.54936,-0.923642655,0.31286541,0.140075325
1764767293.2834115,-4.51696,1.1445,0.54936,-0.923642655,0.31286541,0.140075325
1764767293.2834115,-4.51696,1.1445,0.54936,-0.923642655,0.31286541,0.140075325
1764767293.2834115,-4.51696,1.1445,0.54936,-0.923642655,0.31286541,0.140075325
1764767293.2834115,-4.51696,1.1445,0.54936,-0.923642655,0.31286541,0.140075325
1764767293.2834115,-4.51696,1.1445,0.54936,-0.923642655,0.31286541,0.140075325
1764767293.2834115,-4.62378,0.9919,0.48832,-0.92431404,0.31225506,0.13989222
1764767293.2834115,-4.62378,0.9919,0.48832,-0.92431404,0.31225506,0.13989222
1764767293.2834115,-4.62378,0.9919,0.48832,-0.92431404,0.31225506,0.13989222
1764767293.2834115,-4.62378,0.9919,0.48832,-0.92431404,0.31225506,0.13989222
1764767293.2834115,-4.62378,0.9919,0.48832,-0.92431404,0.31225506,0.13989222
1764767293.2834115,-4.62378,0.9919,0.48832,-0.92431404,0.31225506,0.13989222
1764767293.2834115,-4.62378,0.9919,0.48832,-0.92431404,0.31225506,0.13989222
1764767293.2834115,-4.62378,0.9919,0.48832,-0.92431404,0.31225506,0.13989222
1764767293.2834115,-4.62378,0.9919,0.48832,-0.92431404,0.31225506,0.13989222
1764767293.2834115,-4.62378,0.9919,0.48832,-0.92431404,0.31225506,0.13989222
1764767293.2834115,-4.41014,1.26658,0.18312,-0.923764725,0.312194025,0.14025843
1764767293.2834115,-4.41014,1.26658,0.18312,-0.923764725,0.312194025,0.14025843
1764767293.2834115,-4.41014,1.26658,0.18312,-0.923764725,0.312194025,0.14025843
1764767293.2834115,-4.41014,1.26658,0.18312,-0.923764725,0.312194025,0.14025843
1764767293.2834115,-4.41014,1.26658,0.18312,-0.923764725,0.312194025,0.14025843
1764767293.2834115,-4.41014,1.26658,0.18312,-0.923764725,0.312194025,0.14025843
1764767293.2834115,-4.41014,1.26658,0.18312,-0.923764725,0.312194025,0.14025843
1764767293.2834115,-4.41014,1.26658,0.18312,-0.923764725,0.312194025,0.14025843
1764767293.3300698,-4.41014,1.26658,0.18312,-0.923764725,0.312194025,0.14025843
1764767293.3300698,-4.41014,1.26658,0.18312,-0.923764725,0.312194025,0.14025843
1764767293.3300698,-4.440659999999999,1.11398,0.57988,-0.92443611,0.311949885,0.140075325
1764767293.3300698,-4.440659999999999,1.11398,0.57988,-0.92443611,0.311949885,0.140075325
1764767293.3300698,-4.440659999999999,1.11398,0.57988,-0.92443611,0.311949885,0.140075325
1764767293.3300698,-4.440659999999999,1.11398,0.57988,-0.92443611,0.311949885,0.140075325
1764767293.3300698,-4.440659999999999,1.11398,0.57988,-0.92443611,0.311949885,0.140075325
1764767293.3300698,-4.440659999999999,1.11398,0.57988,-0.92443611,0.311949885,0.140075325
1764767293.3300698,-4.440659999999999,1.11398,0.57988,-0.92443611,0.311949885,0.140075325
1764767293.3300698,-4.440659999999999,1.11398,0.57988,-0.92443611,0.311949885,0.140075325
1764767293.3300698,-4.440659999999999,1.11398,0.57988,-0.92443611,0.311949885,0.140075325
1764767293.3300698,-4.440659999999999,1.11398,0.57988,-0.92443611,0.311949885,0.140075325
1764767293.3300698,-3.87604,1.2208,0.3357199999999999,-0.924253005,0.31164471,0.139709115
1764767293.3300698,-3.87604,1.2208,0.3357199999999999,-0.924253005,0.31164471,0.139709115
1764767293.3300698,-3.87604,1.2208,0.3357199999999999,-0.924253005,0.31164471,0.139709115
1764767293.3300698,-3.87604,1.2208,0.3357199999999999,-0.924253005,0.31164471,0.139709115
1764767293.3300698,-3.87604,1.2208,0.3357199999999999,-0.924253005,0.31164471,0.139709115
1764767293.3300698,-3.87604,1.2208,0.3357199999999999,-0.924253005,0.31164471,0.139709115
1764767293.3300698,-3.87604,1.2208,0.3357199999999999,-0.924253005,0.31164471,0.139709115
1764767293.3300698,-3.87604,1.2208,0.3357199999999999,-0.924253005,0.31164471,0.139709115
1764767293.3798964,-3.87604,1.2208,0.3357199999999999,-0.924253005,0.31164471,0.139709115
1764767293.3798964,-3.87604,1.2208,0.3357199999999999,-0.924253005,0.31164471,0.139709115
1764767293.3798964,-4.16598,1.12924,0.47306,-0.92382576,0.3112785,0.14001429
1764767293.3798964,-4.16598,1.12924,0.47306,-0.92382576,0.3112785,0.14001429
1764767293.3798964,-4.16598,1.12924,0.47306,-0.92382576,0.3112785,0.14001429
1764767293.3798964,-4.16598,1.12924,0.47306,-0.92382576,0.3112785,0.14001429
1764767293.3798964,-4.16598,1.12924,0.47306,-0.92382576,0.3112785,0.14001429
1764767293.3798964,-4.16598,1.12924,0.47306,-0.92382576,0.3112785,0.14001429
1764767293.3798964,-4.16598,1.12924,0.47306,-0.92382576,0.3112785,0.14001429
1764767293.3798964,-4.16598,1.12924,0.47306,-0.92382576,0.3112785,0.14001429
1764767293.3798964,-4.16598,1.12924,0.47306,-0.92382576,0.3112785,0.14001429
1764767293.3798964,-4.16598,1.12924,0.47306,-0.92382576,0.3112785,0.14001429
1764767293.3798964,-4.1202,1.03768,0.54936,-0.92394783,0.312071955,0.139831185
1764767293.3798964,-4.1202,1.03768,0.54936,-0.92394783,0.312071955,0.139831185
1764767293.3798964,-4.1202,1.03768,0.54936,-0.92394783,0.312071955,0.139831185
1764767293.381033,-4.1202,1.03768,0.54936,-0.92394783,0.312071955,0.139831185
1764767293.381033,-4.1202,1.03768,0.54936,-0.92394783,0.312071955,0.139831185
1764767293.381033,-4.1202,1.03768,0.54936,-0.92394783,0.312071955,0.139831185
1764767293.381033,-4.1202,1.03768,0.54936,-0.92394783,0.312071955,0.139831185
1764767293.381033,-4.1202,1.03768,0.54936,-0.92394783,0.312071955,0.139831185
1764767293.381033,-4.1202,1.03768,0.54936,-0.92394783,0.312071955,0.139831185
1764767293.381033,-4.1202,1.03768,0.54936,-0.92394783,0.312071955,0.139831185
1764767293.381033,-3.78448,1.15976,0.51884,-0.924008865,0.311583675,0.140075325
1764767293.381033,-3.78448,1.15976,0.51884,-0.924008865,0.311583675,0.140075325
1764767293.381033,-3.78448,1.15976,0.51884,-0.924008865,0.311583675,0.140075325
1764767293.381033,-3.78448,1.15976,0.51884,-0.924008865,0.311583675,0.140075325
1764767293.381033,-3.78448,1.15976,0.51884,-0.924008865,0.311583675,0.140075325
1764767293.381033,-3.78448,1.15976,0.51884,-0.924008865,0.311583675,0.140075325
1764767293.4247477,-3.78448,1.15976,0.51884,-0.924008865,0.311583675,0.140075325
1764767293.4247477,-3.78448,1.15976,0.51884,-0.924008865,0.311583675,0.140075325
1764767293.4247477,-3.78448,1.15976,0.51884,-0.924008865,0.311583675,0.140075325
1764767293.4247477,-3.78448,1.15976,0.51884,-0.924008865,0.311583675,0.140075325
1764767293.4247477,-3.61662,1.03768,0.2289,-0.924497145,0.311583675,0.140563605
1764767293.4247477,-3.61662,1.03768,0.2289,-0.924497145,0.311583675,0.140563605
1764767293.4247477,-3.61662,1.03768,0.2289,-0.924497145,0.311583675,0.140563605
1764767293.4247477,-3.61662,1.03768,0.2289,-0.924497145,0.311583675,0.140563605
1764767293.4247477,-3.61662,1.03768,0.2289,-0.924497145,0.311583675,0.140563605
1764767293.4247477,-3.61662,1.03768,0.2289,-0.924497145,0.311583675,0.140563605
1764767293.4247477,-3.61662,1.03768,0.2289,-0.924497145,0.311583675,0.140563605
1764767293.4247477,-3.61662,1.03768,0.2289,-0.924497145,0.311583675,0.140563605
1764767293.4247477,-3.61662,1.03768,0.2289,-0.924497145,0.311583675,0.140563605
1764767293.4247477,-3.61662,1.03768,0.2289,-0.924497145,0.311583675,0.140563605
1764767293.4247477,-3.23512,0.94612,0.3815,-0.924130935,0.311583675,0.141173955
1764767293.4247477,-3.23512,0.94612,0.3815,-0.924130935,0.311583675,0.141173955
1764767293.4247477,-3.23512,0.94612,0.3815,-0.924130935,0.311583675,0.141173955
1764767293.4247477,-3.23512,0.94612,0.3815,-0.924130935,0.311583675,0.141173955
1764767293.4247477,-3.23512,0.94612,0.3815,-0.924130935,0.311583675,0.141173955
1764767293.4247477,-3.23512,0.94612,0.3815,-0.924130935,0.311583675,0.141173955
1764767293.4716303,-3.23512,0.94612,0.3815,-0.924130935,0.311583675,0.141173955
1764767293.4716303,-3.23512,0.94612,0.3815,-0.924130935,0.311583675,0.141173955
1764767293.4716303,-3.23512,0.94612,0.3815,-0.924130935,0.311583675,0.141173955
1764767293.4716303,-3.23512,0.94612,0.3815,-0.924130935,0.311583675,0.141173955
1764767293.4716303,-3.06726,1.2055399999999998,0.50358,-0.92492439,0.312316095,0.140807745
1764767293.4716303,-3.06726,1.2055399999999998,0.50358,-0.92492439,0.312316095,0.140807745
1764767293.4716303,-3.06726,1.2055399999999998,0.50358,-0.92492439,0.312316095,0.140807745
1764767293.4716303,-3.06726,1.2055399999999998,0.50358,-0.92492439,0.312316095,0.140807745
1764767293.4716303,-3.06726,1.2055399999999998,0.50358,-0.92492439,0.312316095,0.140807745
1764767293.4716303,-3.06726,1.2055399999999998,0.50358,-0.92492439,0.312316095,0.140807745
1764767293.4729342,-3.06726,1.2055399999999998,0.50358,-0.92492439,0.312316095,0.140807745
1764767293.4729342,-3.06726,1.2055399999999998,0.50358,-0.92492439,0.312316095,0.140807745
1764767293.4729342,-3.06726,1.2055399999999998,0.50358,-0.92492439,0.312316095,0.140807745
1764767293.4729342,-3.06726,1.2055399999999998,0.50358,-0.92492439,0.312316095,0.140807745
1764767293.4729342,-3.41824,1.03768,0.0762999999999999,-0.92455818,0.313414725,0.14062464
1764767293.4729342,-3.41824,1.03768,0.0762999999999999,-0.92455818,0.313414725,0.14062464
1764767293.4729342,-3.41824,1.03768,0.0762999999999999,-0.92455818,0.313414725,0.14062464
1764767293.4729342,-3.41824,1.03768,0.0762999999999999,-0.92455818,0.313414725,0.14062464
1764767293.4729342,-3.41824,1.03768,0.0762999999999999,-0.92455818,0.313414725,0.14062464
1764767293.4729342,-3.41824,1.03768,0.0762999999999999,-0.92455818,0.313414725,0.14062464
1764767293.4729342,-3.41824,1.03768,0.0762999999999999,-0.92455818,0.313414725,0.14062464
1764767293.4729342,-3.41824,1.03768,0.0762999999999999,-0.92455818,0.313414725,0.14062464
1764767293.4729342,-3.41824,1.03768,0.0762999999999999,-0.92455818,0.313414725,0.14062464
1764767293.4729342,-3.41824,1.03768,0.0762999999999999,-0.92455818,0.313414725,0.14062464
1764767293.5163546,-4.1202,0.9919,0.0,-0.92468025,0.31469646,0.14001429
1764767293.5163546,-4.1202,0.9919,0.0,-0.92468025,0.31469646,0.14001429
1764767293.5163546,-4.1202,0.9919,0.0,-0.92468025,0.31469646,0.14001429
1764767293.5163546,-4.1202,0.9919,0.0,-0.92468025,0.31469646,0.14001429
1764767293.5163546,-4.1202,0.9919,0.0,-0.92468025,0.31469646,0.14001429
1764767293.5163546,-4.1202,0.9919,0.0,-0.92468025,0.31469646,0.14001429
1764767293.5163546,-4.1202,0.9919,0.0,-0.92468025,0.31469646,0.14001429
1764767293.5173688,-4.1202,0.9919,0.0,-0.92468025,0.31469646,0.14001429
1764767293.5173688,-4.1202,0.9919,0.0,-0.92468025,0.31469646,0.14001429
1764767293.5173688,-4.1202,0.9919,0.0,-0.92468025,0.31469646,0.14001429
1764767293.5173688,-4.48644,0.96138,0.77826,-0.92455818,0.315001635,0.13952601
1764767293.5173688,-4.48644,0.96138,0.77826,-0.92455818,0.315001635,0.13952601
1764767293.5173688,-4.48644,0.96138,0.77826,-0.92455818,0.315001635,0.13952601
1764767293.5173688,-4.48644,0.96138,0.77826,-0.92455818,0.315001635,0.13952601
1764767293.5173688,-4.48644,0.96138,0.77826,-0.92455818,0.315001635,0.13952601
1764767293.5173688,-4.48644,0.96138,0.77826,-0.92455818,0.315001635,0.13952601
1764767293.5173688,-4.48644,0.96138,0.77826,-0.92455818,0.315001635,0.13952601
1764767293.5173688,-4.48644,0.96138,0.77826,-0.92455818,0.315001635,0.13952601
1764767293.5173688,-4.48644,0.96138,0.77826,-0.92455818,0.315001635,0.13952601
1764767293.5173688,-4.48644,0.96138,0.77826,-0.92455818,0.315001635,0.13952601
1764767293.5173688,-4.852679999999999,0.8392999999999999,0.71722,-0.924741285,0.314513355,0.13867152
1764767293.5173688,-4.852679999999999,0.8392999999999999,0.71722,-0.924741285,0.314513355,0.13867152
1764767293.5173688,-4.852679999999999,0.8392999999999999,0.71722,-0.924741285,0.314513355,0.13867152
1764767293.5173688,-4.852679999999999,0.8392999999999999,0.71722,-0.924741285,0.314513355,0.13867152
1764767293.5642705,-4.852679999999999,0.8392999999999999,0.71722,-0.924741285,0.314513355,0.13867152
1764767293.5642705,-4.852679999999999,0.8392999999999999,0.71722,-0.924741285,0.314513355,0.13867152
1764767293.5642705,-4.852679999999999,0.8392999999999999,0.71722,-0.924741285,0.314513355,0.13867152
1764767293.5642705,-4.852679999999999,0.8392999999999999,0.71722,-0.924741285,0.314513355,0.13867152
1764767293.5642705,-4.852679999999999,0.8392999999999999,0.71722,-0.924741285,0.314513355,0.13867152
1764767293.5642705,-4.852679999999999,0.8392999999999999,0.71722,-0.924741285,0.314513355,0.13867152
1764767293.5642705,-4.56274,0.8087799999999999,0.54936,-0.924375075,0.313536795,0.13879359
1764767293.5642705,-4.56274,0.8087799999999999,0.54936,-0.924375075,0.313536795,0.13879359
1764767293.5642705,-4.56274,0.8087799999999999,0.54936,-0.924375075,0.313536795,0.13879359
1764767293.5642705,-4.56274,0.8087799999999999,0.54936,-0.924375075,0.313536795,0.13879359
1764767293.5642705,-4.56274,0.8087799999999999,0.54936,-0.924375075,0.313536795,0.13879359
1764767293.5642705,-4.56274,0.8087799999999999,0.54936,-0.924375075,0.313536795,0.13879359
1764767293.5642705,-4.56274,0.8087799999999999,0.54936,-0.924375075,0.313536795,0.13879359
1764767293.5642705,-4.56274,0.8087799999999999,0.54936,-0.924375075,0.313536795,0.13879359
1764767293.5642705,-4.56274,0.8087799999999999,0.54936,-0.924375075,0.313536795,0.13879359
1764767293.5642705,-4.56274,0.8087799999999999,0.54936,-0.924375075,0.313536795,0.13879359
1764767293.5642705,-4.47118,1.43444,0.9156,-0.92455818,0.311949885,0.13952601
1764767293.5642705,-4.47118,1.43444,0.9156,-0.92455818,0.311949885,0.13952601
1764767293.5642705,-4.47118,1.43444,0.9156,-0.92455818,0.311949885,0.13952601
1764767293.5642705,-4.47118,1.43444,0.9156,-0.92455818,0.311949885,0.13952601
1764767293.5642705,-4.47118,1.43444,0.9156,-0.92455818,0.311949885,0.13952601
1764767293.5642705,-4.47118,1.43444,0.9156,-0.92455818,0.311949885,0.13952601
1764767293.6110032,-4.47118,1.43444,0.9156,-0.92455818,0.311949885,0.13952601
1764767293.6110032,-4.47118,1.43444,0.9156,-0.92455818,0.311949885,0.13952601
1764767293.6110032,-4.47118,1.43444,0.9156,-0.92455818,0.311949885,0.13952601
1764767293.6110032,-4.47118,1.43444,0.9156,-0.92455818,0.311949885,0.13952601
1764767293.6115232,-4.60852,1.49548,0.3357199999999999,-0.924863355,0.31066815,0.140685675
1764767293.6115232,-4.60852,1.49548,0.3357199999999999,-0.924863355,0.31066815,0.140685675
1764767293.6115232,-4.60852,1.49548,0.3357199999999999,-0.924863355,0.31066815,0.140685675
1764767293.6115232,-4.60852,1.49548,0.3357199999999999,-0.924863355,0.31066815,0.140685675
1764767293.6115232,-4.60852,1.49548,0.3357199999999999,-0.924863355,0.31066815,0.140685675
1764767293.6115232,-4.60852,1.49548,0.3357199999999999,-0.924863355,0.31066815,0.140685675
1764767293.6115232,-4.60852,1.49548,0.3357199999999999,-0.924863355,0.31066815,0.140685675
1764767293.6115232,-4.60852,1.49548,0.3357199999999999,-0.924863355,0.31066815,0.140685675
1764767293.6115232,-4.60852,1.49548,0.3357199999999999,-0.924863355,0.31066815,0.140685675
1764767293.6115232,-4.60852,1.49548,0.3357199999999999,-0.924863355,0.31066815,0.140685675
1764767293.6115232,-4.48644,1.02242,0.65618,-0.92443611,0.309874695,0.141418095
1764767293.6115232,-4.48644,1.02242,0.65618,-0.92443611,0.309874695,0.141418095
1764767293.6115232,-4.48644,1.02242,0.65618,-0.92443611,0.309874695,0.141418095
1764767293.6115232,-4.48644,1.02242,0.65618,-0.92443611,0.309874695,0.141418095
1764767293.6115232,-4.48644,1.02242,0.65618,-0.92443611,0.309874695,0.141418095
1764767293.6115232,-4.48644,1.02242,0.65618,-0.92443611,0.309874695,0.141418095
1764767293.6115232,-4.48644,1.02242,0.65618,-0.92443611,0.309874695,0.141418095
1764767293.6115232,-4.48644,1.02242,0.65618,-0.92443611,0.309874695,0.141418095
1764767293.6548016,-4.48644,1.02242,0.65618,-0.92443611,0.309874695,0.141418095
1764767293.6548016,-4.48644,1.02242,0.65618,-0.92443611,0.309874695,0.141418095
1764767293.6548016,-3.34194,0.6867,0.4578,-0.923154375,0.309264345,0.141662235
1764767293.6548016,-3.34194,0.6867,0.4578,-0.923154375,0.309264345,0.141662235
1764767293.6548016,-3.34194,0.6867,0.4578,-0.923154375,0.309264345,0.141662235
1764767293.6548016,-3.34194,0.6867,0.4578,-0.923154375,0.309264345,0.141662235
1764767293.6548016,-3.34194,0.6867,0.4578,-0.923154375,0.309264345,0.141662235
1764767293.6548016,-3.34194,0.6867,0.4578,-0.923154375,0.309264345,0.141662235
1764767293.6548016,-3.34194,0.6867,0.4578,-0.923154375,0.309264345,0.141662235
1764767293.6548016,-3.34194,0.6867,0.4578,-0.923154375,0.309264345,0.141662235
1764767293.6548016,-3.34194,0.6867,0.4578,-0.923154375,0.309264345,0.141662235
1764767293.6548016,-3.34194,0.6867,0.4578,-0.923154375,0.309264345,0.141662235
1764767293.6548016,-3.31142,0.74774,0.41202,-0.92394783,0.311705745,0.1403805
1764767293.6548016,-3.31142,0.74774,0.41202,-0.92394783,0.311705745,0.1403805
1764767293.6548016,-3.31142,0.74774,0.41202,-0.92394783,0.311705745,0.1403805
1764767293.6548016,-3.31142,0.74774,0.41202,-0.92394783,0.311705745,0.1403805
1764767293.6548016,-3.31142,0.74774,0.41202,-0.92394783,0.311705745,0.1403805
1764767293.6548016,-3.31142,0.74774,0.41202,-0.92394783,0.311705745,0.1403805
1764767293.6548016,-3.31142,0.74774,0.41202,-0.92394783,0.311705745,0.1403805
1764767293.6548016,-3.31142,0.74774,0.41202,-0.92394783,0.311705745,0.1403805
1764767293.6548016,-3.31142,0.74774,0.41202,-0.92394783,0.311705745,0.1403805
1764767293.6548016,-3.31142,0.74774,0.41202,-0.92394783,0.311705745,0.1403805
1764767293.6559842,-3.9676,0.5341,0.01526,-0.925717845,0.31481853,0.13891566
1764767293.6559842,-3.9676,0.5341,0.01526,-0.925717845,0.31481853,0.13891566
1764767293.702121,-3.9676,0.5341,0.01526,-0.925717845,0.31481853,0.13891566
1764767293.702121,-3.9676,0.5341,0.01526,-0.925717845,0.31481853,0.13891566
1764767293.702121,-3.9676,0.5341,0.01526,-0.925717845,0.31481853,0.13891566
1764767293.702121,-3.9676,0.5341,0.01526,-0.925717845,0.31481853,0.13891566
1764767293.702121,-3.9676,0.5341,0.01526,-0.925717845,0.31481853,0.13891566
1764767293.702121,-3.9676,0.5341,0.01526,-0.925717845,0.31481853,0.13891566
1764767293.702121,-3.9676,0.5341,0.01526,-0.925717845,0.31481853,0.13891566
1764767293.702121,-3.9676,0.5341,0.01526,-0.925717845,0.31481853,0.13891566
1764767293.702121,-4.99002,1.02242,-0.21364,-0.926206125,0.314391285,0.13818324
1764767293.702121,-4.99002,1.02242,-0.21364,-0.926206125,0.314391285,0.13818324
1764767293.702121,-4.99002,1.02242,-0.21364,-0.926206125,0.314391285,0.13818324
1764767293.702121,-4.99002,1.02242,-0.21364,-0.926206125,0.314391285,0.13818324
1764767293.702121,-4.99002,1.02242,-0.21364,-0.926206125,0.314391285,0.13818324
1764767293.702121,-4.99002,1.02242,-0.21364,-0.926206125,0.314391285,0.13818324
1764767293.702121,-4.99002,1.02242,-0.21364,-0.926206125,0.314391285,0.13818324
1764767293.702121,-4.99002,1.02242,-0.21364,-0.926206125,0.314391285,0.13818324
1764767293.702121,-4.99002,1.02242,-0.21364,-0.926206125,0.314391285,0.13818324
1764767293.702121,-4.99002,1.02242,-0.21364,-0.926206125,0.314391285,0.13818324
1764767293.702121,-4.7306,1.32762,0.18312,-0.924619215,0.31323162,0.13928187
1764767293.702121,-4.7306,1.32762,0.18312,-0.924619215,0.31323162,0.13928187
1764767293.7031336,-4.7306,1.32762,0.18312,-0.924619215,0.31323162,0.13928187
1764767293.7031336,-4.7306,1.32762,0.18312,-0.924619215,0.31323162,0.13928187
1764767293.7031336,-4.7306,1.32762,0.18312,-0.924619215,0.31323162,0.13928187
1764767293.7031336,-4.7306,1.32762,0.18312,-0.924619215,0.31323162,0.13928187
1764767293.7031336,-4.7306,1.32762,0.18312,-0.924619215,0.31323162,0.13928187
1764767293.7031336,-4.7306,1.32762,0.18312,-0.924619215,0.31323162,0.13928187
1764767293.7527626,-4.7306,1.32762,0.18312,-0.924619215,0.31323162,0.13928187
1764767293.7527626,-4.7306,1.32762,0.18312,-0.924619215,0.31323162,0.13928187
1764767293.7527626,-4.303319999999999,0.94612,1.09872,-0.92370369,0.31201092,0.13989222
1764767293.7527626,-4.303319999999999,0.94612,1.09872,-0.92370369,0.31201092,0.13989222
1764767293.7527626,-4.303319999999999,0.94612,1.09872,-0.92370369,0.31201092,0.13989222
1764767293.7527626,-4.303319999999999,0.94612,1.09872,-0.92370369,0.31201092,0.13989222
1764767293.7527626,-4.303319999999999,0.94612,1.09872,-0.92370369,0.31201092,0.13989222
1764767293.7527626,-4.303319999999999,0.94612,1.09872,-0.92370369,0.31201092,0.13989222
1764767293.7527626,-4.303319999999999,0.94612,1.09872,-0.92370369,0.31201092,0.13989222
1764767293.7527626,-4.303319999999999,0.94612,1.09872,-0.92370369,0.31201092,0.13989222
1764767293.7527626,-4.303319999999999,0.94612,1.09872,-0.92370369,0.31201092,0.13989222
1764767293.7527626,-4.303319999999999,0.94612,1.09872,-0.92370369,0.31201092,0.13989222
1764767293.7537684,-3.31142,0.9003399999999999,1.81594,-0.92504646,0.31017987,0.14062464
1764767293.7537684,-3.31142,0.9003399999999999,1.81594,-0.92504646,0.31017987,0.14062464
1764767293.7537684,-3.31142,0.9003399999999999,1.81594,-0.92504646,0.31017987,0.14062464
1764767293.7537684,-3.31142,0.9003399999999999,1.81594,-0.92504646,0.31017987,0.14062464
1764767293.7537684,-3.31142,0.9003399999999999,1.81594,-0.92504646,0.31017987,0.14062464
1764767293.7537684,-3.31142,0.9003399999999999,1.81594,-0.92504646,0.31017987,0.14062464
1764767293.7537684,-3.31142,0.9003399999999999,1.81594,-0.92504646,0.31017987,0.14062464
1764767293.7537684,-3.31142,0.9003399999999999,1.81594,-0.92504646,0.31017987,0.14062464
1764767293.7537684,-3.31142,0.9003399999999999,1.81594,-0.92504646,0.31017987,0.14062464
1764767293.7537684,-3.31142,0.9003399999999999,1.81594,-0.92504646,0.31017987,0.14062464
1764767293.796237,-2.45686,0.79352,1.99906,-0.92516853,0.309630555,0.140441535
1764767293.796237,-2.45686,0.79352,1.99906,-0.92516853,0.309630555,0.140441535
1764767293.796237,-2.45686,0.79352,1.99906,-0.92516853,0.309630555,0.140441535
1764767293.796237,-2.45686,0.79352,1.99906,-0.92516853,0.309630555,0.140441535
1764767293.796237,-2.45686,0.79352,1.99906,-0.92516853,0.309630555,0.140441535
1764767293.796237,-2.45686,0.79352,1.99906,-0.92516853,0.309630555,0.140441535
1764767293.796237,-2.45686,0.79352,1.99906,-0.92516853,0.309630555,0.140441535
1764767293.796237,-2.45686,0.79352,1.99906,-0.92516853,0.309630555,0.140441535
1764767293.796237,-2.45686,0.79352,1.99906,-0.92516853,0.309630555,0.140441535
1764767293.796237,-2.45686,0.79352,1.99906,-0.92516853,0.309630555,0.140441535
1764767293.796237,-2.41108,0.50358,1.4039199999999998,-0.92480232,0.31091229,0.141173955
1764767293.796237,-2.41108,0.50358,1.4039199999999998,-0.92480232,0.31091229,0.141173955
1764767293.796237,-2.41108,0.50358,1.4039199999999998,-0.92480232,0.31091229,0.141173955
1764767293.796237,-2.41108,0.50358,1.4039199999999998,-0.92480232,0.31091229,0.141173955
1764767293.7973192,-2.41108,0.50358,1.4039199999999998,-0.92480232,0.31091229,0.141173955
1764767293.7973192,-2.41108,0.50358,1.4039199999999998,-0.92480232,0.31091229,0.141173955
1764767293.7973192,-2.41108,0.50358,1.4039199999999998,-0.92480232,0.31091229,0.141173955
1764767293.7973192,-2.41108,0.50358,1.4039199999999998,-0.92480232,0.31091229,0.141173955
1764767293.7973192,-2.41108,0.50358,1.4039199999999998,-0.92480232,0.31091229,0.141173955
1764767293.7973192,-2.41108,0.50358,1.4039199999999998,-0.92480232,0.31091229,0.141173955
1764767293.7973192,-2.99096,0.13734,1.31236,-0.925595775,0.31323162,0.140685675
1764767293.7973192,-2.99096,0.13734,1.31236,-0.925595775,0.31323162,0.140685675
1764767293.7973192,-2.99096,0.13734,1.31236,-0.925595775,0.31323162,0.140685675
1764767293.7973192,-2.99096,0.13734,1.31236,-0.925595775,0.31323162,0.140685675
1764767293.843559,-2.99096,0.13734,1.31236,-0.925595775,0.31323162,0.140685675
1764767293.843559,-2.99096,0.13734,1.31236,-0.925595775,0.31323162,0.140685675
1764767293.843559,-2.99096,0.13734,1.31236,-0.925595775,0.31323162,0.140685675
1764767293.843559,-2.99096,0.13734,1.31236,-0.925595775,0.31323162,0.140685675
1764767293.843559,-2.99096,0.13734,1.31236,-0.925595775,0.31323162,0.140685675
1764767293.843559,-2.99096,0.13734,1.31236,-0.925595775,0.31323162,0.140685675
1764767293.843559,-3.7387,0.24416,1.2055399999999998,-0.92504646,0.315489915,0.140441535
1764767293.843559,-3.7387,0.24416,1.2055399999999998,-0.92504646,0.315489915,0.140441535
1764767293.843559,-3.7387,0.24416,1.2055399999999998,-0.92504646,0.315489915,0.140441535
1764767293.843559,-3.7387,0.24416,1.2055399999999998,-0.92504646,0.315489915,0.140441535
1764767293.843559,-3.7387,0.24416,1.2055399999999998,-0.92504646,0.315489915,0.140441535
1764767293.843559,-3.7387,0.24416,1.2055399999999998,-0.92504646,0.315489915,0.140441535
1764767293.843559,-3.7387,0.24416,1.2055399999999998,-0.92504646,0.315489915,0.140441535
1764767293.843559,-3.7387,0.24416,1.2055399999999998,-0.92504646,0.315489915,0.140441535
1764767293.843559,-3.7387,0.24416,1.2055399999999998,-0.92504646,0.315489915,0.140441535
1764767293.843559,-3.7387,0.24416,1.2055399999999998,-0.92504646,0.315489915,0.140441535
1764767293.843559,-4.21176,0.44254,0.9003399999999999,-0.924863355,0.316710615,0.14025843
1764767293.843559,-4.21176,0.44254,0.9003399999999999,-0.924863355,0.316710615,0.14025843
1764767293.843559,-4.21176,0.44254,0.9003399999999999,-0.924863355,0.316710615,0.14025843
1764767293.843559,-4.21176,0.44254,0.9003399999999999,-0.924863355,0.316710615,0.14025843
1764767293.843559,-4.21176,0.44254,0.9003399999999999,-0.924863355,0.316710615,0.14025843
1764767293.843559,-4.21176,0.44254,0.9003399999999999,-0.924863355,0.316710615,0.14025843
1764767293.8904114,-4.21176,0.44254,0.9003399999999999,-0.924863355,0.316710615,0.14025843
1764767293.8904114,-4.21176,0.44254,0.9003399999999999,-0.924863355,0.316710615,0.14025843
1764767293.8904114,-4.21176,0.44254,0.9003399999999999,-0.924863355,0.316710615,0.14025843
1764767293.8904114,-4.21176,0.44254,0.9003399999999999,-0.924863355,0.316710615,0.14025843
1764767293.8904114,-4.08968,0.65618,0.85456,-0.92394783,0.31677165,0.14050257
1764767293.8904114,-4.08968,0.65618,0.85456,-0.92394783,0.31677165,0.14050257
1764767293.8904114,-4.08968,0.65618,0.85456,-0.92394783,0.31677165,0.14050257
1764767293.8909185,-4.08968,0.65618,0.85456,-0.92394783,0.31677165,0.14050257
1764767293.8909185,-4.08968,0.65618,0.85456,-0.92394783,0.31677165,0.14050257
1764767293.8909185,-4.08968,0.65618,0.85456,-0.92394783,0.31677165,0.14050257
1764767293.8909185,-4.08968,0.65618,0.85456,-0.92394783,0.31677165,0.14050257
1764767293.8909185,-4.08968,0.65618,0.85456,-0.92394783,0.31677165,0.14050257
1764767293.8909185,-4.08968,0.65618,0.85456,-0.92394783,0.31677165,0.14050257
1764767293.8909185,-4.08968,0.65618,0.85456,-0.92394783,0.31677165,0.14050257
1764767293.8909185,-4.10494,1.09872,0.93086,-0.923154375,0.315123705,0.140563605
1764767293.8909185,-4.10494,1.09872,0.93086,-0.923154375,0.315123705,0.140563605
1764767293.8909185,-4.10494,1.09872,0.93086,-0.923154375,0.315123705,0.140563605
1764767293.8909185,-4.10494,1.09872,0.93086,-0.923154375,0.315123705,0.140563605
1764767293.8909185,-4.10494,1.09872,0.93086,-0.923154375,0.315123705,0.140563605
1764767293.8909185,-4.10494,1.09872,0.93086,-0.923154375,0.315123705,0.140563605
1764767293.8909185,-4.10494,1.09872,0.93086,-0.923154375,0.315123705,0.140563605
1764767293.8909185,-4.10494,1.09872,0.93086,-0.923154375,0.315123705,0.140563605
1764767293.8909185,-4.10494,1.09872,0.93086,-0.923154375,0.315123705,0.140563605
1764767293.8909185,-4.10494,1.09872,0.93086,-0.923154375,0.315123705,0.140563605
1764767293.936468,-3.92182,0.96138,0.6714399999999999,-0.9216285,0.31347576,0.1403805
1764767293.936468,-3.92182,0.96138,0.6714399999999999,-0.9216285,0.31347576,0.1403805
1764767293.936468,-3.92182,0.96138,0.6714399999999999,-0.9216285,0.31347576,0.1403805
1764767293.936468,-3.92182,0.96138,0.6714399999999999,-0.9216285,0.31347576,0.1403805
1764767293.936468,-3.92182,0.96138,0.6714399999999999,-0.9216285,0.31347576,0.1403805
1764767293.9369864,-3.92182,0.96138,0.6714399999999999,-0.9216285,0.31347576,0.1403805
1764767293.9369864,-3.92182,0.96138,0.6714399999999999,-0.9216285,0.31347576,0.1403805
1764767293.9369864,-3.92182,0.96138,0.6714399999999999,-0.9216285,0.31347576,0.1403805
1764767293.9369864,-3.92182,0.96138,0.6714399999999999,-0.9216285,0.31347576,0.1403805
1764767293.9369864,-3.92182,0.96138,0.6714399999999999,-0.9216285,0.31347576,0.1403805
1764767293.9369864,-3.54032,1.09872,0.9156,-0.921811605,0.313048515,0.14025843
1764767293.9369864,-3.54032,1.09872,0.9156,-0.921811605,0.313048515,0.14025843
1764767293.9369864,-3.54032,1.09872,0.9156,-0.921811605,0.313048515,0.14025843
1764767293.9369864,-3.54032,1.09872,0.9156,-0.921811605,0.313048515,0.14025843
1764767293.9369864,-3.54032,1.09872,0.9156,-0.921811605,0.313048515,0.14025843
1764767293.9369864,-3.54032,1.09872,0.9156,-0.921811605,0.313048515,0.14025843
1764767293.9369864,-3.54032,1.09872,0.9156,-0.921811605,0.313048515,0.14025843
1764767293.9369864,-3.54032,1.09872,0.9156,-0.921811605,0.313048515,0.14025843
1764767293.9369864,-3.54032,1.09872,0.9156,-0.921811605,0.313048515,0.14025843
1764767293.9369864,-3.54032,1.09872,0.9156,-0.921811605,0.313048515,0.14025843
1764767293.9369864,-3.6624,0.88508,1.32762,-0.922421955,0.31310955,0.14001429
1764767293.9369864,-3.6624,0.88508,1.32762,-0.922421955,0.31310955,0.14001429
1764767293.9369864,-3.6624,0.88508,1.32762,-0.922421955,0.31310955,0.14001429
1764767293.9369864,-3.6624,0.88508,1.32762,-0.922421955,0.31310955,0.14001429
1764767293.9825768,-3.6624,0.88508,1.32762,-0.922421955,0.31310955,0.14001429
1764767293.9825768,-3.6624,0.88508,1.32762,-0.922421955,0.31310955,0.14001429
1764767293.9825768,-3.6624,0.88508,1.32762,-0.922421955,0.31310955,0.14001429
1764767293.9825768,-3.6624,0.88508,1.32762,-0.922421955,0.31310955,0.14001429
1764767293.9825768,-3.6624,0.88508,1.32762,-0.922421955,0.31310955,0.14001429
1764767293.9825768,-3.6624,0.88508,1.32762,-0.922421955,0.31310955,0.14001429
1764767293.9825768,-3.63188,0.41202,1.12924,-0.924741285,0.313170585,0.139831185
1764767293.9825768,-3.63188,0.41202,1.12924,-0.924741285,0.313170585,0.139831185
1764767293.9825768,-3.63188,0.41202,1.12924,-0.924741285,0.313170585,0.139831185
1764767293.9825768,-3.63188,0.41202,1.12924,-0.924741285,0.313170585,0.139831185
1764767293.9825768,-3.63188,0.41202,1.12924,-0.924741285,0.313170585,0.139831185
1764767293.9825768,-3.63188,0.41202,1.12924,-0.924741285,0.313170585,0.139831185
1764767293.9825768,-3.63188,0.41202,1.12924,-0.924741285,0.313170585,0.139831185
1764767293.9825768,-3.63188,0.41202,1.12924,-0.924741285,0.313170585,0.139831185
1764767293.9825768,-3.63188,0.41202,1.12924,-0.924741285,0.313170585,0.139831185
1764767293.9825768,-3.63188,0.41202,1.12924,-0.924741285,0.313170585,0.139831185
1764767293.9825768,-3.09778,0.41202,1.19028,-0.925595775,0.312804375,0.139587045
1764767293.9830985,-3.09778,0.41202,1.19028,-0.925595775,0.312804375,0.139587045
1764767293.9830985,-3.09778,0.41202,1.19028,-0.925595775,0.312804375,0.139587045
1764767293.9830985,-3.09778,0.41202,1.19028,-0.925595775,0.312804375,0.139587045
1764767293.9830985,-3.09778,0.41202,1.19028,-0.925595775,0.312804375,0.139587045
1764767293.9830985,-3.09778,0.41202,1.19028,-0.925595775,0.312804375,0.139587045
1764767294.0300174,-3.09778,0.41202,1.19028,-0.925595775,0.312804375,0.139587045
1764767294.031031,-3.09778,0.41202,1.19028,-0.925595775,0.312804375,0.139587045
1764767294.031031,-3.09778,0.41202,1.19028,-0.925595775,0.312804375,0.139587045
1764767294.031031,-3.09778,0.41202,1.19028,-0.925595775,0.312804375,0.139587045
1764767294.031031,-2.7468,0.4578,1.02242,-0.92541267,0.31323162,0.139587045
1764767294.031031,-2.7468,0.4578,1.02242,-0.92541267,0.31323162,0.139587045
1764767294.031031,-2.7468,0.4578,1.02242,-0.92541267,0.31323162,0.139587045
1764767294.031031,-2.7468,0.4578,1.02242,-0.92541267,0.31323162,0.139587045
1764767294.031031,-2.7468,0.4578,1.02242,-0.92541267,0.31323162,0.139587045
1764767294.031031,-2.7468,0.4578,1.02242,-0.92541267,0.31323162,0.139587045
1764767294.031031,-2.7468,0.4578,1.02242,-0.92541267,0.31323162,0.139587045
1764767294.031031,-2.7468,0.4578,1.02242,-0.92541267,0.31323162,0.139587045
1764767294.031031,-2.7468,0.4578,1.02242,-0.92541267,0.31323162,0.139587045
1764767294.031031,-2.7468,0.4578,1.02242,-0.92541267,0.31323162,0.139587045
1764767294.031031,-2.60946,0.6714399999999999,0.82404,-0.9252906,0.31347576,0.139098765
1764767294.031031,-2.60946,0.6714399999999999,0.82404,-0.9252906,0.31347576,0.139098765
1764767294.031031,-2.60946,0.6714399999999999,0.82404,-0.9252906,0.31347576,0.139098765
1764767294.031031,-2.60946,0.6714399999999999,0.82404,-0.9252906,0.31347576,0.139098765
1764767294.031031,-2.60946,0.6714399999999999,0.82404,-0.9252906,0.31347576,0.139098765
1764767294.031031,-2.60946,0.6714399999999999,0.82404,-0.9252906,0.31347576,0.139098765
1764767294.031031,-2.60946,0.6714399999999999,0.82404,-0.9252906,0.31347576,0.139098765
1764767294.031031,-2.60946,0.6714399999999999,0.82404,-0.9252906,0.31347576,0.139098765
1764767294.031031,-2.60946,0.6714399999999999,0.82404,-0.9252906,0.31347576,0.139098765
1764767294.031031,-2.60946,0.6714399999999999,0.82404,-0.9252906,0.31347576,0.139098765
1764767294.0772555,-2.77732,0.54936,0.56462,-0.92431404,0.31359783,0.13952601
1764767294.0772555,-2.77732,0.54936,0.56462,-0.92431404,0.31359783,0.13952601
1764767294.078271,-2.77732,0.54936,0.56462,-0.92431404,0.31359783,0.13952601
1764767294.078271,-2.77732,0.54936,0.56462,-0.92431404,0.31359783,0.13952601
1764767294.078271,-2.77732,0.54936,0.56462,-0.92431404,0.31359783,0.13952601
1764767294.078271,-2.77732,0.54936,0.56462,-0.92431404,0.31359783,0.13952601
1764767294.078271,-2.77732,0.54936,0.56462,-0.92431404,0.31359783,0.13952601
1764767294.078271,-2.77732,0.54936,0.56462,-0.92431404,0.31359783,0.13952601
1764767294.078271,-2.77732,0.54936,0.56462,-0.92431404,0.31359783,0.13952601
1764767294.078271,-2.77732,0.54936,0.56462,-0.92431404,0.31359783,0.13952601
1764767294.078271,-2.8994,0.50358,0.96138,-0.92272713,0.314025075,0.139098765
1764767294.078271,-2.8994,0.50358,0.96138,-0.92272713,0.314025075,0.139098765
1764767294.078271,-2.8994,0.50358,0.96138,-0.92272713,0.314025075,0.139098765
1764767294.078271,-2.8994,0.50358,0.96138,-0.92272713,0.314025075,0.139098765
1764767294.078271,-2.8994,0.50358,0.96138,-0.92272713,0.314025075,0.139098765
1764767294.078271,-2.8994,0.50358,0.96138,-0.92272713,0.314025075,0.139098765
1764767294.078271,-2.8994,0.50358,0.96138,-0.92272713,0.314025075,0.139098765
1764767294.078271,-2.8994,0.50358,0.96138,-0.92272713,0.314025075,0.139098765
1764767294.078271,-2.8994,0.50358,0.96138,-0.92272713,0.314025075,0.139098765
1764767294.078271,-2.8994,0.50358,0.96138,-0.92272713,0.314025075,0.139098765
1764767294.078271,-3.84552,0.96138,0.28994,-0.92272713,0.315734055,0.138854625
1764767294.078271,-3.84552,0.96138,0.28994,-0.92272713,0.315734055,0.138854625
1764767294.078271,-3.84552,0.96138,0.28994,-0.92272713,0.315734055,0.138854625
1764767294.078271,-3.84552,0.96138,0.28994,-0.92272713,0.315734055,0.138854625
1764767294.1259854,-3.84552,0.96138,0.28994,-0.92272713,0.315734055,0.138854625
1764767294.1259854,-3.84552,0.96138,0.28994,-0.92272713,0.315734055,0.138854625
1764767294.1259854,-3.84552,0.96138,0.28994,-0.92272713,0.315734055,0.138854625
1764767294.1259854,-3.84552,0.96138,0.28994,-0.92272713,0.315734055,0.138854625
1764767294.1259854,-3.84552,0.96138,0.28994,-0.92272713,0.315734055,0.138854625
1764767294.1259854,-3.84552,0.96138,0.28994,-0.92272713,0.315734055,0.138854625
1764767294.1259854,-3.55558,1.00716,0.9919,-0.923520585,0.31555095,0.138488415
1764767294.1259854,-3.55558,1.00716,0.9919,-0.923520585,0.31555095,0.138488415
1764767294.1259854,-3.55558,1.00716,0.9919,-0.923520585,0.31555095,0.138488415
1764767294.1259854,-3.55558,1.00716,0.9919,-0.923520585,0.31555095,0.138488415
1764767294.1259854,-3.55558,1.00716,0.9919,-0.923520585,0.31555095,0.138488415
1764767294.1265068,-3.55558,1.00716,0.9919,-0.923520585,0.31555095,0.138488415
1764767294.1265068,-3.55558,1.00716,0.9919,-0.923520585,0.31555095,0.138488415
1764767294.1265068,-3.55558,1.00716,0.9919,-0.923520585,0.31555095,0.138488415
1764767294.1265068,-3.55558,1.00716,0.9919,-0.923520585,0.31555095,0.138488415
1764767294.1265068,-3.55558,1.00716,0.9919,-0.923520585,0.31555095,0.138488415
1764767294.1265068,-3.2809,0.6103999999999999,1.2208,-0.92431404,0.31542888,0.1391598
1764767294.1265068,-3.2809,0.6103999999999999,1.2208,-0.92431404,0.31542888,0.1391598
1764767294.1265068,-3.2809,0.6103999999999999,1.2208,-0.92431404,0.31542888,0.1391598
1764767294.1265068,-3.2809,0.6103999999999999,1.2208,-0.92431404,0.31542888,0.1391598
1764767294.1265068,-3.2809,0.6103999999999999,1.2208,-0.92431404,0.31542888,0.1391598
1764767294.1265068,-3.2809,0.6103999999999999,1.2208,-0.92431404,0.31542888,0.1391598
1764767294.1265068,-3.2809,0.6103999999999999,1.2208,-0.92431404,0.31542888,0.1391598
1764767294.1265068,-3.2809,0.6103999999999999,1.2208,-0.92431404,0.31542888,0.1391598
1764767294.170329,-3.2809,0.6103999999999999,1.2208,-0.92431404,0.31542888,0.1391598
1764767294.170329,-3.2809,0.6103999999999999,1.2208,-0.92431404,0.31542888,0.1391598
1764767294.170329,-3.32668,0.4578,1.1445,-0.92480232,0.315611985,0.13891566
1764767294.170329,-3.32668,0.4578,1.1445,-0.92480232,0.315611985,0.13891566
1764767294.170329,-3.32668,0.4578,1.1445,-0.92480232,0.315611985,0.13891566
1764767294.170329,-3.32668,0.4578,1.1445,-0.92480232,0.315611985,0.13891566
1764767294.170329,-3.32668,0.4578,1.1445,-0.92480232,0.315611985,0.13891566
1764767294.170329,-3.32668,0.4578,1.1445,-0.92480232,0.315611985,0.13891566
1764767294.170329,-3.32668,0.4578,1.1445,-0.92480232,0.315611985,0.13891566
1764767294.170329,-3.32668,0.4578,1.1445,-0.92480232,0.315611985,0.13891566
1764767294.170329,-3.32668,0.4578,1.1445,-0.92480232,0.315611985,0.13891566
1764767294.170329,-3.32668,0.4578,1.1445,-0.92480232,0.315611985,0.13891566
1764767294.170329,-3.55558,0.3204599999999999,1.46496,-0.924985425,0.31579509,0.13903773
1764767294.170329,-3.55558,0.3204599999999999,1.46496,-0.924985425,0.31579509,0.13903773
1764767294.170329,-3.55558,0.3204599999999999,1.46496,-0.924985425,0.31579509,0.13903773
1764767294.170329,-3.55558,0.3204599999999999,1.46496,-0.924985425,0.31579509,0.13903773
1764767294.170329,-3.55558,0.3204599999999999,1.46496,-0.924985425,0.31579509,0.13903773
1764767294.170329,-3.55558,0.3204599999999999,1.46496,-0.924985425,0.31579509,0.13903773
1764767294.170329,-3.55558,0.3204599999999999,1.46496,-0.924985425,0.31579509,0.13903773
1764767294.170329,-3.55558,0.3204599999999999,1.46496,-0.924985425,0.31579509,0.13903773
1764767294.2172914,-3.55558,0.3204599999999999,1.46496,-0.924985425,0.31579509,0.13903773
1764767294.2172914,-3.55558,0.3204599999999999,1.46496,-0.924985425,0.31579509,0.13903773
1764767294.2172914,-3.7387,0.36624,1.43444,-0.9240699,0.315489915,0.1391598
1764767294.2172914,-3.7387,0.36624,1.43444,-0.9240699,0.315489915,0.1391598
1764767294.2172914,-3.7387,0.36624,1.43444,-0.9240699,0.315489915,0.1391598
1764767294.2172914,-3.7387,0.36624,1.43444,-0.9240699,0.315489915,0.1391598
1764767294.2172914,-3.7387,0.36624,1.43444,-0.9240699,0.315489915,0.1391598
1764767294.2172914,-3.7387,0.36624,1.43444,-0.9240699,0.315489915,0.1391598
1764767294.2172914,-3.7387,0.36624,1.43444,-0.9240699,0.315489915,0.1391598
1764767294.2172914,-3.7387,0.36624,1.43444,-0.9240699,0.315489915,0.1391598
1764767294.2172914,-3.7387,0.36624,1.43444,-0.9240699,0.315489915,0.1391598
1764767294.2172914,-3.7387,0.36624,1.43444,-0.9240699,0.315489915,0.1391598
1764767294.2172914,-3.67766,0.1678599999999999,1.25132,-0.923886795,0.315856125,0.1391598
1764767294.2172914,-3.67766,0.1678599999999999,1.25132,-0.923886795,0.315856125,0.1391598
1764767294.2172914,-3.67766,0.1678599999999999,1.25132,-0.923886795,0.315856125,0.1391598
1764767294.2172914,-3.67766,0.1678599999999999,1.25132,-0.923886795,0.315856125,0.1391598
1764767294.2172914,-3.67766,0.1678599999999999,1.25132,-0.923886795,0.315856125,0.1391598
1764767294.2172914,-3.67766,0.1678599999999999,1.25132,-0.923886795,0.315856125,0.1391598
1764767294.2172914,-3.67766,0.1678599999999999,1.25132,-0.923886795,0.315856125,0.1391598
1764767294.2172914,-3.67766,0.1678599999999999,1.25132,-0.923886795,0.315856125,0.1391598
1764767294.2172914,-3.67766,0.1678599999999999,1.25132,-0.923886795,0.315856125,0.1391598
1764767294.2183018,-3.67766,0.1678599999999999,1.25132,-0.923886795,0.315856125,0.1391598
1764767294.2183018,-4.440659999999999,0.44254,0.97664,-0.92394783,0.315734055,0.13879359
1764767294.2183018,-4.440659999999999,0.44254,0.97664,-0.92394783,0.315734055,0.13879359
1764767294.2641418,-4.440659999999999,0.44254,0.97664,-0.92394783,0.315734055,0.13879359
1764767294.2641418,-4.440659999999999,0.44254,0.97664,-0.92394783,0.315734055,0.13879359
1764767294.2641418,-4.440659999999999,0.44254,0.97664,-0.92394783,0.315734055,0.13879359
1764767294.2641418,-4.440659999999999,0.44254,0.97664,-0.92394783,0.315734055,0.13879359
1764767294.2641418,-4.440659999999999,0.44254,0.97664,-0.92394783,0.315734055,0.13879359
1764767294.2646527,-4.440659999999999,0.44254,0.97664,-0.92394783,0.315734055,0.13879359
1764767294.2646527,-4.440659999999999,0.44254,0.97664,-0.92394783,0.315734055,0.13879359
1764767294.2646527,-4.440659999999999,0.44254,0.97664,-0.92394783,0.315734055,0.13879359
1764767294.2646527,-3.98286,0.65618,0.7019599999999999,-0.923398515,0.315611985,0.13928187
1764767294.2646527,-3.98286,0.65618,0.7019599999999999,-0.923398515,0.315611985,0.13928187
1764767294.2646527,-3.98286,0.65618,0.7019599999999999,-0.923398515,0.315611985,0.13928187
1764767294.2646527,-3.98286,0.65618,0.7019599999999999,-0.923398515,0.315611985,0.13928187
1764767294.2646527,-3.98286,0.65618,0.7019599999999999,-0.923398515,0.315611985,0.13928187
1764767294.2646527,-3.98286,0.65618,0.7019599999999999,-0.923398515,0.315611985,0.13928187
1764767294.2646527,-3.98286,0.65618,0.7019599999999999,-0.923398515,0.315611985,0.13928187
1764767294.2646527,-3.98286,0.65618,0.7019599999999999,-0.923398515,0.315611985,0.13928187
1764767294.2646527,-3.98286,0.65618,0.7019599999999999,-0.923398515,0.315611985,0.13928187
1764767294.2646527,-3.98286,0.65618,0.7019599999999999,-0.923398515,0.315611985,0.13928187
1764767294.2646527,-3.9676,0.8392999999999999,1.25132,-0.92382576,0.315245775,0.13903773
1764767294.2646527,-3.9676,0.8392999999999999,1.25132,-0.92382576,0.315245775,0.13903773
1764767294.2646527,-3.9676,0.8392999999999999,1.25132,-0.92382576,0.315245775,0.13903773
1764767294.2646527,-3.9676,0.8392999999999999,1.25132,-0.92382576,0.315245775,0.13903773
1764767294.2646527,-3.9676,0.8392999999999999,1.25132,-0.92382576,0.315245775,0.13903773
1764767294.2646527,-3.9676,0.8392999999999999,1.25132,-0.92382576,0.315245775,0.13903773
1764767294.311177,-3.9676,0.8392999999999999,1.25132,-0.92382576,0.315245775,0.13903773
1764767294.311177,-3.9676,0.8392999999999999,1.25132,-0.92382576,0.315245775,0.13903773
1764767294.311177,-3.9676,0.8392999999999999,1.25132,-0.92382576,0.315245775,0.13903773
1764767294.311177,-3.9676,0.8392999999999999,1.25132,-0.92382576,0.315245775,0.13903773
1764767294.311177,-3.76922,0.73248,1.26658,-0.923642655,0.315001635,0.139587045
1764767294.311177,-3.76922,0.73248,1.26658,-0.923642655,0.315001635,0.139587045
1764767294.311177,-3.76922,0.73248,1.26658,-0.923642655,0.315001635,0.139587045
1764767294.311177,-3.76922,0.73248,1.26658,-0.923642655,0.315001635,0.139587045
1764767294.311177,-3.76922,0.73248,1.26658,-0.923642655,0.315001635,0.139587045
1764767294.311177,-3.76922,0.73248,1.26658,-0.923642655,0.315001635,0.139587045
1764767294.311177,-3.76922,0.73248,1.26658,-0.923642655,0.315001635,0.139587045
1764767294.311177,-3.76922,0.73248,1.26658,-0.923642655,0.315001635,0.139587045
1764767294.311177,-3.76922,0.73248,1.26658,-0.923642655,0.315001635,0.139587045
1764767294.311177,-3.76922,0.73248,1.26658,-0.923642655,0.315001635,0.139587045
1764767294.311177,-3.87604,0.6103999999999999,0.4578,-0.922544025,0.3149406,0.138732555
1764767294.311177,-3.87604,0.6103999999999999,0.4578,-0.922544025,0.3149406,0.138732555
1764767294.311177,-3.87604,0.6103999999999999,0.4578,-0.922544025,0.3149406,0.138732555
1764767294.311177,-3.87604,0.6103999999999999,0.4578,-0.922544025,0.3149406,0.138732555
1764767294.311177,-3.87604,0.6103999999999999,0.4578,-0.922544025,0.3149406,0.138732555
1764767294.311177,-3.87604,0.6103999999999999,0.4578,-0.922544025,0.3149406,0.138732555
1764767294.311177,-3.87604,0.6103999999999999,0.4578,-0.922544025,0.3149406,0.138732555
1764767294.311177,-3.87604,0.6103999999999999,0.4578,-0.922544025,0.3149406,0.138732555
1764767294.311177,-3.87604,0.6103999999999999,0.4578,-0.922544025,0.3149406,0.138732555
1764767294.311177,-3.87604,0.6103999999999999,0.4578,-0.922544025,0.3149406,0.138732555
1764767294.35433,-3.6624,0.763,0.44254,-0.923032305,0.314269215,0.13928187
1764767294.35433,-3.6624,0.763,0.44254,-0.923032305,0.314269215,0.13928187
1764767294.35433,-3.6624,0.763,0.44254,-0.923032305,0.314269215,0.13928187
1764767294.35433,-3.6624,0.763,0.44254,-0.923032305,0.314269215,0.13928187
1764767294.35433,-3.6624,0.763,0.44254,-0.923032305,0.314269215,0.13928187
1764767294.35433,-3.6624,0.763,0.44254,-0.923032305,0.314269215,0.13928187
1764767294.35433,-3.6624,0.763,0.44254,-0.923032305,0.314269215,0.13928187
1764767294.35433,-3.6624,0.763,0.44254,-0.923032305,0.314269215,0.13928187
1764767294.35433,-3.6624,0.763,0.44254,-0.923032305,0.314269215,0.13928187
1764767294.35433,-3.6624,0.763,0.44254,-0.923032305,0.314269215,0.13928187
1764767294.35433,-3.21986,0.03052,0.6867,-0.924130935,0.313780935,0.139831185
1764767294.35433,-3.21986,0.03052,0.6867,-0.924130935,0.313780935,0.139831185
1764767294.35433,-3.21986,0.03052,0.6867,-0.924130935,0.313780935,0.139831185
1764767294.35433,-3.21986,0.03052,0.6867,-0.924130935,0.313780935,0.139831185
1764767294.35433,-3.21986,0.03052,0.6867,-0.924130935,0.313780935,0.139831185
1764767294.35433,-3.21986,0.03052,0.6867,-0.924130935,0.313780935,0.139831185
1764767294.35433,-3.21986,0.03052,0.6867,-0.924130935,0.313780935,0.139831185
1764767294.35433,-3.21986,0.03052,0.6867,-0.924130935,0.313780935,0.139831185
1764767294.35433,-3.21986,0.03052,0.6867,-0.924130935,0.313780935,0.139831185
1764767294.35433,-3.21986,0.03052,0.6867,-0.924130935,0.313780935,0.139831185
1764767294.35433,-3.2809,0.6103999999999999,0.54936,-0.92309334,0.315245775,0.139342905
1764767294.35433,-3.2809,0.6103999999999999,0.54936,-0.92309334,0.315245775,0.139342905
1764767294.35433,-3.2809,0.6103999999999999,0.54936,-0.92309334,0.315245775,0.139342905
1764767294.35433,-3.2809,0.6103999999999999,0.54936,-0.92309334,0.315245775,0.139342905
1764767294.4011984,-3.2809,0.6103999999999999,0.54936,-0.92309334,0.315245775,0.139342905
1764767294.4011984,-3.2809,0.6103999999999999,0.54936,-0.92309334,0.315245775,0.139342905
1764767294.4011984,-3.2809,0.6103999999999999,0.54936,-0.92309334,0.315245775,0.139342905
1764767294.4011984,-3.2809,0.6103999999999999,0.54936,-0.92309334,0.315245775,0.139342905
1764767294.4011984,-3.2809,0.6103999999999999,0.54936,-0.92309334,0.315245775,0.139342905
1764767294.4011984,-3.2809,0.6103999999999999,0.54936,-0.92309334,0.315245775,0.139342905
1764767294.4011984,-3.64714,0.24416,0.88508,-0.923154375,0.316588545,0.13940394
1764767294.4011984,-3.64714,0.24416,0.88508,-0.923154375,0.316588545,0.13940394
1764767294.4011984,-3.64714,0.24416,0.88508,-0.923154375,0.316588545,0.13940394
1764767294.4011984,-3.64714,0.24416,0.88508,-0.923154375,0.316588545,0.13940394
1764767294.4011984,-3.64714,0.24416,0.88508,-0.923154375,0.316588545,0.13940394
1764767294.4011984,-3.64714,0.24416,0.88508,-0.923154375,0.316588545,0.13940394
1764767294.4011984,-3.64714,0.24416,0.88508,-0.923154375,0.316588545,0.13940394
1764767294.4011984,-3.64714,0.24416,0.88508,-0.923154375,0.316588545,0.13940394
1764767294.4011984,-3.64714,0.24416,0.88508,-0.923154375,0.316588545,0.13940394
1764767294.4011984,-3.64714,0.24416,0.88508,-0.923154375,0.316588545,0.13940394
1764767294.4011984,-3.5098,0.74774,0.73248,-0.92272713,0.317687175,0.13940394
1764767294.4011984,-3.5098,0.74774,0.73248,-0.92272713,0.317687175,0.13940394
1764767294.4011984,-3.5098,0.74774,0.73248,-0.92272713,0.317687175,0.13940394
1764767294.4011984,-3.5098,0.74774,0.73248,-0.92272713,0.317687175,0.13940394
1764767294.4011984,-3.5098,0.74774,0.73248,-0.92272713,0.317687175,0.13940394
1764767294.4011984,-3.5098,0.74774,0.73248,-0.92272713,0.317687175,0.13940394
1764767294.4011984,-3.5098,0.74774,0.73248,-0.92272713,0.317687175,0.13940394
1764767294.4011984,-3.5098,0.74774,0.73248,-0.92272713,0.317687175,0.13940394
1764767294.447512,-3.5098,0.74774,0.73248,-0.92272713,0.317687175,0.13940394
1764767294.447512,-3.5098,0.74774,0.73248,-0.92272713,0.317687175,0.13940394
1764767294.447512,-4.24228,0.57988,0.71722,-0.923398515,0.31713786,0.139709115
1764767294.447512,-4.24228,0.57988,0.71722,-0.923398515,0.31713786,0.139709115
1764767294.447512,-4.24228,0.57988,0.71722,-0.923398515,0.31713786,0.139709115
1764767294.447512,-4.24228,0.57988,0.71722,-0.923398515,0.31713786,0.139709115
1764767294.447512,-4.24228,0.57988,0.71722,-0.923398515,0.31713786,0.139709115
1764767294.447512,-4.24228,0.57988,0.71722,-0.923398515,0.31713786,0.139709115
1764767294.447512,-4.24228,0.57988,0.71722,-0.923398515,0.31713786,0.139709115
1764767294.447512,-4.24228,0.57988,0.71722,-0.923398515,0.31713786,0.139709115
1764767294.447512,-4.24228,0.57988,0.71722,-0.923398515,0.31713786,0.139709115
1764767294.447512,-4.24228,0.57988,0.71722,-0.923398515,0.31713786,0.139709115
1764767294.447512,-3.83026,0.59514,0.88508,-0.922788165,0.31701579,0.13977015
1764767294.447512,-3.83026,0.59514,0.88508,-0.922788165,0.31701579,0.13977015
1764767294.447512,-3.83026,0.59514,0.88508,-0.922788165,0.31701579,0.13977015
1764767294.447512,-3.83026,0.59514,0.88508,-0.922788165,0.31701579,0.13977015
1764767294.447512,-3.83026,0.59514,0.88508,-0.922788165,0.31701579,0.13977015
1764767294.447512,-3.83026,0.59514,0.88508,-0.922788165,0.31701579,0.13977015
1764767294.447512,-3.83026,0.59514,0.88508,-0.922788165,0.31701579,0.13977015
1764767294.447512,-3.83026,0.59514,0.88508,-0.922788165,0.31701579,0.13977015
1764767294.447512,-3.83026,0.59514,0.88508,-0.922788165,0.31701579,0.13977015
1764767294.447512,-3.83026,0.59514,0.88508,-0.922788165,0.31701579,0.13977015
1764767294.4942975,-3.79974,0.93086,0.88508,-0.922299885,0.31689372,0.139464975
1764767294.4942975,-3.79974,0.93086,0.88508,-0.922299885,0.31689372,0.139464975
1764767294.4942975,-3.79974,0.93086,0.88508,-0.922299885,0.31689372,0.139464975
1764767294.4942975,-3.79974,0.93086,0.88508,-0.922299885,0.31689372,0.139464975
1764767294.4942975,-3.79974,0.93086,0.88508,-0.922299885,0.31689372,0.139464975
1764767294.4942975,-3.79974,0.93086,0.88508,-0.922299885,0.31689372,0.139464975
1764767294.4942975,-3.79974,0.93086,0.88508,-0.922299885,0.31689372,0.139464975
1764767294.4942975,-3.79974,0.93086,0.88508,-0.922299885,0.31689372,0.139464975
1764767294.4942975,-3.79974,0.93086,0.88508,-0.922299885,0.31689372,0.139464975
1764767294.4942975,-3.79974,0.93086,0.88508,-0.922299885,0.31689372,0.139464975
1764767294.4942975,-3.93708,1.25132,0.54936,-0.92223885,0.31579509,0.139831185
1764767294.4942975,-3.93708,1.25132,0.54936,-0.92223885,0.31579509,0.139831185
1764767294.4942975,-3.93708,1.25132,0.54936,-0.92223885,0.31579509,0.139831185
1764767294.4942975,-3.93708,1.25132,0.54936,-0.92223885,0.31579509,0.139831185
1764767294.4942975,-3.93708,1.25132,0.54936,-0.92223885,0.31579509,0.139831185
1764767294.4942975,-3.93708,1.25132,0.54936,-0.92223885,0.31579509,0.139831185
1764767294.4942975,-3.93708,1.25132,0.54936,-0.92223885,0.31579509,0.139831185
1764767294.4942975,-3.93708,1.25132,0.54936,-0.92223885,0.31579509,0.139831185
1764767294.4942975,-3.93708,1.25132,0.54936,-0.92223885,0.31579509,0.139831185
1764767294.4942975,-3.93708,1.25132,0.54936,-0.92223885,0.31579509,0.139831185
1764767294.4942975,-3.92182,0.74774,1.0682,-0.92211678,0.316466475,0.140197395
1764767294.4942975,-3.92182,0.74774,1.0682,-0.92211678,0.316466475,0.140197395
1764767294.5408452,-3.92182,0.74774,1.0682,-0.92211678,0.316466475,0.140197395
1764767294.5413556,-3.92182,0.74774,1.0682,-0.92211678,0.316466475,0.140197395
1764767294.5413556,-3.92182,0.74774,1.0682,-0.92211678,0.316466475,0.140197395
1764767294.5413556,-3.92182,0.74774,1.0682,-0.92211678,0.316466475,0.140197395
1764767294.5413556,-3.92182,0.74774,1.0682,-0.92211678,0.316466475,0.140197395
1764767294.5413556,-3.92182,0.74774,1.0682,-0.92211678,0.316466475,0.140197395
1764767294.5413556,-3.92182,0.74774,1.0682,-0.92211678,0.316466475,0.140197395
1764767294.5413556,-3.92182,0.74774,1.0682,-0.92211678,0.316466475,0.140197395
1764767294.5413556,-4.21176,1.05294,1.11398,-0.92199471,0.316466475,0.13989222
1764767294.5413556,-4.21176,1.05294,1.11398,-0.92199471,0.316466475,0.13989222
1764767294.5413556,-4.21176,1.05294,1.11398,-0.92199471,0.316466475,0.13989222
1764767294.5413556,-4.21176,1.05294,1.11398,-0.92199471,0.316466475,0.13989222
1764767294.5413556,-4.21176,1.05294,1.11398,-0.92199471,0.316466475,0.13989222
1764767294.5413556,-4.21176,1.05294,1.11398,-0.92199471,0.316466475,0.13989222
1764767294.5413556,-4.21176,1.05294,1.11398,-0.92199471,0.316466475,0.13989222
1764767294.5413556,-4.21176,1.05294,1.11398,-0.92199471,0.316466475,0.13989222
1764767294.5413556,-4.21176,1.05294,1.11398,-0.92199471,0.316466475,0.13989222
1764767294.5413556,-4.21176,1.05294,1.11398,-0.92199471,0.316466475,0.13989222
1764767294.5413556,-4.66956,1.19028,1.00716,-0.922055745,0.31603923,0.13964808
1764767294.5413556,-4.66956,1.19028,1.00716,-0.922055745,0.31603923,0.13964808
1764767294.5413556,-4.66956,1.19028,1.00716,-0.922055745,0.31603923,0.13964808
1764767294.5413556,-4.66956,1.19028,1.00716,-0.922055745,0.31603923,0.13964808
1764767294.5413556,-4.66956,1.19028,1.00716,-0.922055745,0.31603923,0.13964808
1764767294.5413556,-4.66956,1.19028,1.00716,-0.922055745,0.31603923,0.13964808
1764767294.587124,-4.66956,1.19028,1.00716,-0.922055745,0.31603923,0.13964808
1764767294.587124,-4.66956,1.19028,1.00716,-0.922055745,0.31603923,0.13964808
1764767294.587124,-4.66956,1.19028,1.00716,-0.922055745,0.31603923,0.13964808
1764767294.587124,-4.66956,1.19028,1.00716,-0.922055745,0.31603923,0.13964808
1764767294.587124,-4.39488,1.31236,0.56462,-0.92199471,0.315489915,0.14086878
1764767294.587124,-4.39488,1.31236,0.56462,-0.92199471,0.315489915,0.14086878
1764767294.587124,-4.39488,1.31236,0.56462,-0.92199471,0.315489915,0.14086878
1764767294.587124,-4.39488,1.31236,0.56462,-0.92199471,0.315489915,0.14086878
1764767294.587124,-4.39488,1.31236,0.56462,-0.92199471,0.315489915,0.14086878
1764767294.587124,-4.39488,1.31236,0.56462,-0.92199471,0.315489915,0.14086878
1764767294.587124,-4.39488,1.31236,0.56462,-0.92199471,0.315489915,0.14086878
1764767294.5876503,-4.39488,1.31236,0.56462,-0.92199471,0.315489915,0.14086878
1764767294.5876503,-4.39488,1.31236,0.56462,-0.92199471,0.315489915,0.14086878
1764767294.5876503,-4.39488,1.31236,0.56462,-0.92199471,0.315489915,0.14086878
1764767294.5876503,-4.24228,0.9156,0.3815,-0.92309334,0.315123705,0.142150515
1764767294.5876503,-4.24228,0.9156,0.3815,-0.92309334,0.315123705,0.142150515
1764767294.5876503,-4.24228,0.9156,0.3815,-0.92309334,0.315123705,0.142150515
1764767294.5876503,-4.24228,0.9156,0.3815,-0.92309334,0.315123705,0.142150515
1764767294.5876503,-4.24228,0.9156,0.3815,-0.92309334,0.315123705,0.142150515
1764767294.5876503,-4.24228,0.9156,0.3815,-0.92309334,0.315123705,0.142150515
1764767294.5876503,-4.24228,0.9156,0.3815,-0.92309334,0.315123705,0.142150515
1764767294.5876503,-4.24228,0.9156,0.3815,-0.92309334,0.315123705,0.142150515
1764767294.5876503,-4.24228,0.9156,0.3815,-0.92309334,0.315123705,0.142150515
1764767294.5876503,-4.24228,0.9156,0.3815,-0.92309334,0.315123705,0.142150515
1764767294.637957,-4.303319999999999,0.9919,0.54936,-0.922421955,0.31469646,0.142150515
1764767294.637957,-4.303319999999999,0.9919,0.54936,-0.922421955,0.31469646,0.142150515
1764767294.637957,-4.303319999999999,0.9919,0.54936,-0.922421955,0.31469646,0.142150515
1764767294.637957,-4.303319999999999,0.9919,0.54936,-0.922421955,0.31469646,0.142150515
1764767294.637957,-4.303319999999999,0.9919,0.54936,-0.922421955,0.31469646,0.142150515
1764767294.637957,-4.303319999999999,0.9919,0.54936,-0.922421955,0.31469646,0.142150515
1764767294.637957,-4.303319999999999,0.9919,0.54936,-0.922421955,0.31469646,0.142150515
1764767294.637957,-4.303319999999999,0.9919,0.54936,-0.922421955,0.31469646,0.142150515
1764767294.637957,-4.303319999999999,0.9919,0.54936,-0.922421955,0.31469646,0.142150515
1764767294.637957,-4.303319999999999,0.9919,0.54936,-0.922421955,0.31469646,0.142150515
1764767294.637957,-4.25754,0.8392999999999999,0.06104,-0.920835045,0.3149406,0.141296025
1764767294.637957,-4.25754,0.8392999999999999,0.06104,-0.920835045,0.3149406,0.141296025
1764767294.637957,-4.25754,0.8392999999999999,0.06104,-0.920835045,0.3149406,0.141296025
1764767294.637957,-4.25754,0.8392999999999999,0.06104,-0.920835045,0.3149406,0.141296025
1764767294.637957,-4.25754,0.8392999999999999,0.06104,-0.920835045,0.3149406,0.141296025
1764767294.637957,-4.25754,0.8392999999999999,0.06104,-0.920835045,0.3149406,0.141296025
1764767294.637957,-4.25754,0.8392999999999999,0.06104,-0.920835045,0.3149406,0.141296025
1764767294.637957,-4.25754,0.8392999999999999,0.06104,-0.920835045,0.3149406,0.141296025
1764767294.637957,-4.25754,0.8392999999999999,0.06104,-0.920835045,0.3149406,0.141296025
1764767294.637957,-4.25754,0.8392999999999999,0.06104,-0.920835045,0.3149406,0.141296025
1764767294.637957,-5.1121,0.7019599999999999,0.01526,-0.921445395,0.31664958,0.13952601
1764767294.637957,-5.1121,0.7019599999999999,0.01526,-0.921445395,0.31664958,0.13952601
1764767294.637957,-5.1121,0.7019599999999999,0.01526,-0.921445395,0.31664958,0.13952601
1764767294.637957,-5.1121,0.7019599999999999,0.01526,-0.921445395,0.31664958,0.13952601
1764767294.6847916,-5.1121,0.7019599999999999,0.01526,-0.921445395,0.31664958,0.13952601
1764767294.6847916,-5.1121,0.7019599999999999,0.01526,-0.921445395,0.31664958,0.13952601
1764767294.6847916,-5.1121,0.7019599999999999,0.01526,-0.921445395,0.31664958,0.13952601
1764767294.6853046,-5.1121,0.7019599999999999,0.01526,-0.921445395,0.31664958,0.13952601
1764767294.6853046,-5.1121,0.7019599999999999,0.01526,-0.921445395,0.31664958,0.13952601
1764767294.6853046,-5.1121,0.7019599999999999,0.01526,-0.921445395,0.31664958,0.13952601
1764767294.6853046,-5.340999999999999,1.4497,0.1525999999999999,-0.923154375,0.31750407,0.138122205
1764767294.6853046,-5.340999999999999,1.4497,0.1525999999999999,-0.923154375,0.31750407,0.138122205
1764767294.6853046,-5.340999999999999,1.4497,0.1525999999999999,-0.923154375,0.31750407,0.138122205
1764767294.6853046,-5.340999999999999,1.4497,0.1525999999999999,-0.923154375,0.31750407,0.138122205
1764767294.6853046,-5.340999999999999,1.4497,0.1525999999999999,-0.923154375,0.31750407,0.138122205
1764767294.6853046,-5.340999999999999,1.4497,0.1525999999999999,-0.923154375,0.31750407,0.138122205
1764767294.6853046,-5.340999999999999,1.4497,0.1525999999999999,-0.923154375,0.31750407,0.138122205
1764767294.6853046,-5.340999999999999,1.4497,0.1525999999999999,-0.923154375,0.31750407,0.138122205
1764767294.6853046,-5.340999999999999,1.4497,0.1525999999999999,-0.923154375,0.31750407,0.138122205
1764767294.6853046,-5.340999999999999,1.4497,0.1525999999999999,-0.923154375,0.31750407,0.138122205
1764767294.6853046,-5.00528,1.03768,-0.41202,-0.92345955,0.315367845,0.138000135
1764767294.6853046,-5.00528,1.03768,-0.41202,-0.92345955,0.315367845,0.138000135
1764767294.6853046,-5.00528,1.03768,-0.41202,-0.92345955,0.315367845,0.138000135
1764767294.6853046,-5.00528,1.03768,-0.41202,-0.92345955,0.315367845,0.138000135
1764767294.6853046,-5.00528,1.03768,-0.41202,-0.92345955,0.315367845,0.138000135
1764767294.6853046,-5.00528,1.03768,-0.41202,-0.92345955,0.315367845,0.138000135
1764767294.7284377,-5.00528,1.03768,-0.41202,-0.92345955,0.315367845,0.138000135
1764767294.7284377,-5.00528,1.03768,-0.41202,-0.92345955,0.315367845,0.138000135
1764767294.7284377,-5.00528,1.03768,-0.41202,-0.92345955,0.315367845,0.138000135
1764767294.7284377,-5.00528,1.03768,-0.41202,-0.92345955,0.315367845,0.138000135
1764767294.7284377,-4.33384,1.7549,-0.01526,-0.923032305,0.313536795,0.13928187
1764767294.7284377,-4.33384,1.7549,-0.01526,-0.923032305,0.313536795,0.13928187
1764767294.7284377,-4.33384,1.7549,-0.01526,-0.923032305,0.313536795,0.13928187
1764767294.7284377,-4.33384,1.7549,-0.01526,-0.923032305,0.313536795,0.13928187
1764767294.7284377,-4.33384,1.7549,-0.01526,-0.923032305,0.313536795,0.13928187
1764767294.7284377,-4.33384,1.7549,-0.01526,-0.923032305,0.313536795,0.13928187
1764767294.7284377,-4.33384,1.7549,-0.01526,-0.923032305,0.313536795,0.13928187
1764767294.7284377,-4.33384,1.7549,-0.01526,-0.923032305,0.313536795,0.13928187
1764767294.7284377,-4.33384,1.7549,-0.01526,-0.923032305,0.313536795,0.13928187
1764767294.7284377,-4.33384,1.7549,-0.01526,-0.923032305,0.313536795,0.13928187
1764767294.7284377,-4.16598,1.05294,0.6103999999999999,-0.92211678,0.313048515,0.140685675
1764767294.7284377,-4.16598,1.05294,0.6103999999999999,-0.92211678,0.313048515,0.140685675
1764767294.7284377,-4.16598,1.05294,0.6103999999999999,-0.92211678,0.313048515,0.140685675
1764767294.7284377,-4.16598,1.05294,0.6103999999999999,-0.92211678,0.313048515,0.140685675
1764767294.7284377,-4.16598,1.05294,0.6103999999999999,-0.92211678,0.313048515,0.140685675
1764767294.7284377,-4.16598,1.05294,0.6103999999999999,-0.92211678,0.313048515,0.140685675
1764767294.7284377,-4.16598,1.05294,0.6103999999999999,-0.92211678,0.313048515,0.140685675
1764767294.7284377,-4.16598,1.05294,0.6103999999999999,-0.92211678,0.313048515,0.140685675
1764767294.7284377,-4.16598,1.05294,0.6103999999999999,-0.92211678,0.313048515,0.140685675
1764767294.7284377,-4.16598,1.05294,0.6103999999999999,-0.92211678,0.313048515,0.140685675
1764767294.7749422,-4.24228,0.96138,0.36624,-0.92236092,0.31323162,0.14001429
1764767294.7749422,-4.24228,0.96138,0.36624,-0.92236092,0.31323162,0.14001429
1764767294.7749422,-4.24228,0.96138,0.36624,-0.92236092,0.31323162,0.14001429
1764767294.7749422,-4.24228,0.96138,0.36624,-0.92236092,0.31323162,0.14001429
1764767294.7749422,-4.24228,0.96138,0.36624,-0.92236092,0.31323162,0.14001429
1764767294.7749422,-4.24228,0.96138,0.36624,-0.92236092,0.31323162,0.14001429
1764767294.7749422,-4.24228,0.96138,0.36624,-0.92236092,0.31323162,0.14001429
1764767294.7749422,-4.24228,0.96138,0.36624,-0.92236092,0.31323162,0.14001429
1764767294.7749422,-4.24228,0.96138,0.36624,-0.92236092,0.31323162,0.14001429
1764767294.7749422,-4.24228,0.96138,0.36624,-0.92236092,0.31323162,0.14001429
1764767294.7749422,-4.440659999999999,0.77826,0.8392999999999999,-0.92321541,0.31359783,0.140075325
1764767294.7749422,-4.440659999999999,0.77826,0.8392999999999999,-0.92321541,0.31359783,0.140075325
1764767294.7749422,-4.440659999999999,0.77826,0.8392999999999999,-0.92321541,0.31359783,0.140075325
1764767294.7749422,-4.440659999999999,0.77826,0.8392999999999999,-0.92321541,0.31359783,0.140075325
1764767294.7749422,-4.440659999999999,0.77826,0.8392999999999999,-0.92321541,0.31359783,0.140075325
1764767294.7749422,-4.440659999999999,0.77826,0.8392999999999999,-0.92321541,0.31359783,0.140075325
1764767294.7749422,-4.440659999999999,0.77826,0.8392999999999999,-0.92321541,0.31359783,0.140075325
1764767294.7749422,-4.440659999999999,0.77826,0.8392999999999999,-0.92321541,0.31359783,0.140075325
1764767294.7749422,-4.440659999999999,0.77826,0.8392999999999999,-0.92321541,0.31359783,0.140075325
1764767294.7749422,-4.440659999999999,0.77826,0.8392999999999999,-0.92321541,0.31359783,0.140075325
1764767294.7749422,-4.07442,0.97664,0.79352,-0.922910235,0.31433025,0.14013636
1764767294.7749422,-4.07442,0.97664,0.79352,-0.922910235,0.31433025,0.14013636
1764767294.8216856,-4.07442,0.97664,0.79352,-0.922910235,0.31433025,0.14013636
1764767294.8216856,-4.07442,0.97664,0.79352,-0.922910235,0.31433025,0.14013636
1764767294.8216856,-4.07442,0.97664,0.79352,-0.922910235,0.31433025,0.14013636
1764767294.8216856,-4.07442,0.97664,0.79352,-0.922910235,0.31433025,0.14013636
1764767294.8216856,-4.07442,0.97664,0.79352,-0.922910235,0.31433025,0.14013636
1764767294.8216856,-4.07442,0.97664,0.79352,-0.922910235,0.31433025,0.14013636
1764767294.8216856,-4.07442,0.97664,0.79352,-0.922910235,0.31433025,0.14013636
1764767294.8216856,-4.07442,0.97664,0.79352,-0.922910235,0.31433025,0.14013636
1764767294.8216856,-3.84552,0.9156,0.18312,-0.923032305,0.31481853,0.140075325
1764767294.8216856,-3.84552,0.9156,0.18312,-0.923032305,0.31481853,0.140075325
1764767294.8216856,-3.84552,0.9156,0.18312,-0.923032305,0.31481853,0.140075325
1764767294.8216856,-3.84552,0.9156,0.18312,-0.923032305,0.31481853,0.140075325
1764767294.8216856,-3.84552,0.9156,0.18312,-0.923032305,0.31481853,0.140075325
1764767294.8216856,-3.84552,0.9156,0.18312,-0.923032305,0.31481853,0.140075325
1764767294.8216856,-3.84552,0.9156,0.18312,-0.923032305,0.31481853,0.140075325
1764767294.8216856,-3.84552,0.9156,0.18312,-0.923032305,0.31481853,0.140075325
1764767294.8216856,-3.84552,0.9156,0.18312,-0.923032305,0.31481853,0.140075325
1764767294.8216856,-3.84552,0.9156,0.18312,-0.923032305,0.31481853,0.140075325
1764767294.8216856,-4.01338,1.00716,-0.3509799999999999,-0.923398515,0.316466475,0.139953255
1764767294.8216856,-4.01338,1.00716,-0.3509799999999999,-0.923398515,0.316466475,0.139953255
1764767294.8216856,-4.01338,1.00716,-0.3509799999999999,-0.923398515,0.316466475,0.139953255
1764767294.8216856,-4.01338,1.00716,-0.3509799999999999,-0.923398515,0.316466475,0.139953255
1764767294.8677828,-4.01338,1.00716,-0.3509799999999999,-0.923398515,0.316466475,0.139953255
1764767294.8677828,-4.01338,1.00716,-0.3509799999999999,-0.923398515,0.316466475,0.139953255
1764767294.8677828,-4.01338,1.00716,-0.3509799999999999,-0.923398515,0.316466475,0.139953255
1764767294.8677828,-4.01338,1.00716,-0.3509799999999999,-0.923398515,0.316466475,0.139953255
1764767294.8677828,-4.01338,1.00716,-0.3509799999999999,-0.923398515,0.316466475,0.139953255
1764767294.8677828,-4.01338,1.00716,-0.3509799999999999,-0.923398515,0.316466475,0.139953255
1764767294.8677828,-4.1202,0.8392999999999999,-0.28994,-0.923276445,0.316832685,0.14062464
1764767294.8677828,-4.1202,0.8392999999999999,-0.28994,-0.923276445,0.316832685,0.14062464
1764767294.8677828,-4.1202,0.8392999999999999,-0.28994,-0.923276445,0.316832685,0.14062464
1764767294.8677828,-4.1202,0.8392999999999999,-0.28994,-0.923276445,0.316832685,0.14062464
1764767294.8677828,-4.1202,0.8392999999999999,-0.28994,-0.923276445,0.316832685,0.14062464
1764767294.8677828,-4.1202,0.8392999999999999,-0.28994,-0.923276445,0.316832685,0.14062464
1764767294.8677828,-4.1202,0.8392999999999999,-0.28994,-0.923276445,0.316832685,0.14062464
1764767294.8677828,-4.1202,0.8392999999999999,-0.28994,-0.923276445,0.316832685,0.14062464
1764767294.8677828,-4.1202,0.8392999999999999,-0.28994,-0.923276445,0.316832685,0.14062464
1764767294.8677828,-4.1202,0.8392999999999999,-0.28994,-0.923276445,0.316832685,0.14062464
1764767294.8677828,-4.07442,1.15976,-0.3509799999999999,-0.922177815,0.317382,0.14013636
1764767294.8677828,-4.07442,1.15976,-0.3509799999999999,-0.922177815,0.317382,0.14013636
1764767294.8677828,-4.07442,1.15976,-0.3509799999999999,-0.922177815,0.317382,0.14013636
1764767294.8677828,-4.07442,1.15976,-0.3509799999999999,-0.922177815,0.317382,0.14013636
1764767294.8677828,-4.07442,1.15976,-0.3509799999999999,-0.922177815,0.317382,0.14013636
1764767294.8677828,-4.07442,1.15976,-0.3509799999999999,-0.922177815,0.317382,0.14013636
1764767294.8677828,-4.07442,1.15976,-0.3509799999999999,-0.922177815,0.317382,0.14013636
1764767294.8677828,-4.07442,1.15976,-0.3509799999999999,-0.922177815,0.317382,0.14013636
1764767294.8677828,-4.07442,1.15976,-0.3509799999999999,-0.922177815,0.317382,0.14013636
1764767294.8677828,-4.07442,1.15976,-0.3509799999999999,-0.922177815,0.317382,0.14013636
1764767294.9183836,-4.83742,1.58704,0.06104,-0.922910235,0.317320965,0.140319465
1764767294.9183836,-4.83742,1.58704,0.06104,-0.922910235,0.317320965,0.140319465
1764767294.9183836,-4.83742,1.58704,0.06104,-0.922910235,0.317320965,0.140319465
1764767294.9183836,-4.83742,1.58704,0.06104,-0.922910235,0.317320965,0.140319465
1764767294.9183836,-4.83742,1.58704,0.06104,-0.922910235,0.317320965,0.140319465
1764767294.9183836,-4.83742,1.58704,0.06104,-0.922910235,0.317320965,0.140319465
1764767294.9183836,-4.83742,1.58704,0.06104,-0.922910235,0.317320965,0.140319465
1764767294.9183836,-4.83742,1.58704,0.06104,-0.922910235,0.317320965,0.140319465
1764767294.9183836,-4.83742,1.58704,0.06104,-0.922910235,0.317320965,0.140319465
1764767294.9183836,-4.83742,1.58704,0.06104,-0.922910235,0.317320965,0.140319465
1764767294.9183836,-4.8069,1.17502,-0.09156,-0.921567465,0.3161613,0.140441535
1764767294.9183836,-4.8069,1.17502,-0.09156,-0.921567465,0.3161613,0.140441535
1764767294.9183836,-4.8069,1.17502,-0.09156,-0.921567465,0.3161613,0.140441535
1764767294.9183836,-4.8069,1.17502,-0.09156,-0.921567465,0.3161613,0.140441535
1764767294.9183836,-4.8069,1.17502,-0.09156,-0.921567465,0.3161613,0.140441535
1764767294.9183836,-4.8069,1.17502,-0.09156,-0.921567465,0.3161613,0.140441535
1764767294.9183836,-4.8069,1.17502,-0.09156,-0.921567465,0.3161613,0.140441535
1764767294.9183836,-4.8069,1.17502,-0.09156,-0.921567465,0.3161613,0.140441535
1764767294.9183836,-4.8069,1.17502,-0.09156,-0.921567465,0.3161613,0.140441535
1764767294.9183836,-4.8069,1.17502,-0.09156,-0.921567465,0.3161613,0.140441535
1764767294.9183836,-4.97476,1.43444,0.48832,-0.922421955,0.31677165,0.14086878
1764767294.9183836,-4.97476,1.43444,0.48832,-0.922421955,0.31677165,0.14086878
1764767294.9619317,-4.97476,1.43444,0.48832,-0.922421955,0.31677165,0.14086878
1764767294.9619317,-4.97476,1.43444,0.48832,-0.922421955,0.31677165,0.14086878
1764767294.9619317,-4.97476,1.43444,0.48832,-0.922421955,0.31677165,0.14086878
1764767294.9619317,-4.97476,1.43444,0.48832,-0.922421955,0.31677165,0.14086878
1764767294.9619317,-4.97476,1.43444,0.48832,-0.922421955,0.31677165,0.14086878
1764767294.9624484,-4.97476,1.43444,0.48832,-0.922421955,0.31677165,0.14086878
1764767294.9624484,-4.97476,1.43444,0.48832,-0.922421955,0.31677165,0.14086878
1764767294.9624484,-4.97476,1.43444,0.48832,-0.922421955,0.31677165,0.14086878
1764767294.9624484,-5.234179999999999,1.58704,0.41202,-0.923642655,0.317076825,0.139709115
1764767294.9624484,-5.234179999999999,1.58704,0.41202,-0.923642655,0.317076825,0.139709115
1764767294.9624484,-5.234179999999999,1.58704,0.41202,-0.923642655,0.317076825,0.139709115
1764767294.9624484,-5.234179999999999,1.58704,0.41202,-0.923642655,0.317076825,0.139709115
1764767294.9624484,-5.234179999999999,1.58704,0.41202,-0.923642655,0.317076825,0.139709115
1764767294.9624484,-5.234179999999999,1.58704,0.41202,-0.923642655,0.317076825,0.139709115
1764767294.9624484,-5.234179999999999,1.58704,0.41202,-0.923642655,0.317076825,0.139709115
1764767294.9624484,-5.234179999999999,1.58704,0.41202,-0.923642655,0.317076825,0.139709115
1764767294.9624484,-5.234179999999999,1.58704,0.41202,-0.923642655,0.317076825,0.139709115
1764767294.9624484,-5.234179999999999,1.58704,0.41202,-0.923642655,0.317076825,0.139709115
1764767294.9624484,-5.12736,1.19028,0.27468,-0.924375075,0.316832685,0.139464975
1764767294.9624484,-5.12736,1.19028,0.27468,-0.924375075,0.316832685,0.139464975
1764767294.9624484,-5.12736,1.19028,0.27468,-0.924375075,0.316832685,0.139464975
1764767294.9624484,-5.12736,1.19028,0.27468,-0.924375075,0.316832685,0.139464975
1764767294.9624484,-5.12736,1.19028,0.27468,-0.924375075,0.316832685,0.139464975
1764767294.9624484,-5.12736,1.19028,0.27468,-0.924375075,0.316832685,0.139464975
1764767295.0103605,-5.12736,1.19028,0.27468,-0.924375075,0.316832685,0.139464975
1764767295.0103605,-5.12736,1.19028,0.27468,-0.924375075,0.316832685,0.139464975
1764767295.0103605,-5.12736,1.19028,0.27468,-0.924375075,0.316832685,0.139464975
1764767295.0103605,-5.12736,1.19028,0.27468,-0.924375075,0.316832685,0.139464975
1764767295.0103605,-5.1121,0.9003399999999999,0.19838,-0.92431404,0.31542888,0.14001429
1764767295.0103605,-5.1121,0.9003399999999999,0.19838,-0.92431404,0.31542888,0.14001429
1764767295.0103605,-5.1121,0.9003399999999999,0.19838,-0.92431404,0.31542888,0.14001429
1764767295.0103605,-5.1121,0.9003399999999999,0.19838,-0.92431404,0.31542888,0.14001429
1764767295.0103605,-5.1121,0.9003399999999999,0.19838,-0.92431404,0.31542888,0.14001429
1764767295.0103605,-5.1121,0.9003399999999999,0.19838,-0.92431404,0.31542888,0.14001429
1764767295.0103605,-5.1121,0.9003399999999999,0.19838,-0.92431404,0.31542888,0.14001429
1764767295.0103605,-5.1121,0.9003399999999999,0.19838,-0.92431404,0.31542888,0.14001429
1764767295.0103605,-5.1121,0.9003399999999999,0.19838,-0.92431404,0.31542888,0.14001429
1764767295.0103605,-5.1121,0.9003399999999999,0.19838,-0.92431404,0.31542888,0.14001429
1764767295.0103605,-4.76112,1.11398,0.04578,-0.924253005,0.314513355,0.140197395
1764767295.0103605,-4.76112,1.11398,0.04578,-0.924253005,0.314513355,0.140197395
1764767295.0103605,-4.76112,1.11398,0.04578,-0.924253005,0.314513355,0.140197395
1764767295.0103605,-4.76112,1.11398,0.04578,-0.924253005,0.314513355,0.140197395
1764767295.0103605,-4.76112,1.11398,0.04578,-0.924253005,0.314513355,0.140197395
1764767295.0103605,-4.76112,1.11398,0.04578,-0.924253005,0.314513355,0.140197395
1764767295.0103605,-4.76112,1.11398,0.04578,-0.924253005,0.314513355,0.140197395
1764767295.0103605,-4.76112,1.11398,0.04578,-0.924253005,0.314513355,0.140197395
1764767295.0103605,-4.76112,1.11398,0.04578,-0.924253005,0.314513355,0.140197395
1764767295.0103605,-4.76112,1.11398,0.04578,-0.924253005,0.314513355,0.140197395
1764767295.0571325,-4.63904,0.8698199999999999,-0.41202,-0.923642655,0.31445232,0.14001429
1764767295.0571325,-4.63904,0.8698199999999999,-0.41202,-0.923642655,0.31445232,0.14001429
1764767295.0571325,-4.63904,0.8698199999999999,-0.41202,-0.923642655,0.31445232,0.14001429
1764767295.0571325,-4.63904,0.8698199999999999,-0.41202,-0.923642655,0.31445232,0.14001429
1764767295.0571325,-4.63904,0.8698199999999999,-0.41202,-0.923642655,0.31445232,0.14001429
1764767295.0571325,-4.63904,0.8698199999999999,-0.41202,-0.923642655,0.31445232,0.14001429
1764767295.0571325,-4.63904,0.8698199999999999,-0.41202,-0.923642655,0.31445232,0.14001429
1764767295.0571325,-4.63904,0.8698199999999999,-0.41202,-0.923642655,0.31445232,0.14001429
1764767295.0571325,-4.63904,0.8698199999999999,-0.41202,-0.923642655,0.31445232,0.14001429
1764767295.0571325,-4.63904,0.8698199999999999,-0.41202,-0.923642655,0.31445232,0.14001429
1764767295.0571325,-4.51696,0.8392999999999999,-0.3204599999999999,-0.923520585,0.314391285,0.139342905
1764767295.0571325,-4.51696,0.8392999999999999,-0.3204599999999999,-0.923520585,0.314391285,0.139342905
1764767295.0571325,-4.51696,0.8392999999999999,-0.3204599999999999,-0.923520585,0.314391285,0.139342905
1764767295.0571325,-4.51696,0.8392999999999999,-0.3204599999999999,-0.923520585,0.314391285,0.139342905
1764767295.0571325,-4.51696,0.8392999999999999,-0.3204599999999999,-0.923520585,0.314391285,0.139342905
1764767295.0571325,-4.51696,0.8392999999999999,-0.3204599999999999,-0.923520585,0.314391285,0.139342905
1764767295.0571325,-4.51696,0.8392999999999999,-0.3204599999999999,-0.923520585,0.314391285,0.139342905
1764767295.0571325,-4.51696,0.8392999999999999,-0.3204599999999999,-0.923520585,0.314391285,0.139342905
1764767295.0571325,-4.51696,0.8392999999999999,-0.3204599999999999,-0.923520585,0.314391285,0.139342905
1764767295.0571325,-4.51696,0.8392999999999999,-0.3204599999999999,-0.923520585,0.314391285,0.139342905
1764767295.0571325,-4.16598,1.1445,0.2289,-0.9228492,0.314391285,0.138244275
1764767295.0581467,-4.16598,1.1445,0.2289,-0.9228492,0.314391285,0.138244275
1764767295.100659,-4.16598,1.1445,0.2289,-0.9228492,0.314391285,0.138244275
1764767295.100659,-4.16598,1.1445,0.2289,-0.9228492,0.314391285,0.138244275
1764767295.100659,-4.16598,1.1445,0.2289,-0.9228492,0.314391285,0.138244275
1764767295.100659,-4.16598,1.1445,0.2289,-0.9228492,0.314391285,0.138244275
1764767295.100659,-4.16598,1.1445,0.2289,-0.9228492,0.314391285,0.138244275
1764767295.100659,-4.16598,1.1445,0.2289,-0.9228492,0.314391285,0.138244275
1764767295.100659,-4.16598,1.1445,0.2289,-0.9228492,0.314391285,0.138244275
1764767295.100659,-4.16598,1.1445,0.2289,-0.9228492,0.314391285,0.138244275
1764767295.100659,-4.059159999999999,1.25132,0.1678599999999999,-0.922055745,0.31408611,0.138122205
1764767295.100659,-4.059159999999999,1.25132,0.1678599999999999,-0.922055745,0.31408611,0.138122205
1764767295.100659,-4.059159999999999,1.25132,0.1678599999999999,-0.922055745,0.31408611,0.138122205
1764767295.100659,-4.059159999999999,1.25132,0.1678599999999999,-0.922055745,0.31408611,0.138122205
1764767295.100659,-4.059159999999999,1.25132,0.1678599999999999,-0.922055745,0.31408611,0.138122205
1764767295.100659,-4.059159999999999,1.25132,0.1678599999999999,-0.922055745,0.31408611,0.138122205
1764767295.100659,-4.059159999999999,1.25132,0.1678599999999999,-0.922055745,0.31408611,0.138122205
1764767295.100659,-4.059159999999999,1.25132,0.1678599999999999,-0.922055745,0.31408611,0.138122205
1764767295.100659,-4.059159999999999,1.25132,0.1678599999999999,-0.922055745,0.31408611,0.138122205
1764767295.100659,-4.059159999999999,1.25132,0.1678599999999999,-0.922055745,0.31408611,0.138122205
1764767295.100659,-4.56274,1.35814,-0.27468,-0.92236092,0.3149406,0.139098765
1764767295.100659,-4.56274,1.35814,-0.27468,-0.92236092,0.3149406,0.139098765
1764767295.100659,-4.56274,1.35814,-0.27468,-0.92236092,0.3149406,0.139098765
1764767295.100659,-4.56274,1.35814,-0.27468,-0.92236092,0.3149406,0.139098765
1764767295.100659,-4.56274,1.35814,-0.27468,-0.92236092,0.3149406,0.139098765
1764767295.100659,-4.56274,1.35814,-0.27468,-0.92236092,0.3149406,0.139098765
1764767295.1481547,-4.56274,1.35814,-0.27468,-0.92236092,0.3149406,0.139098765
1764767295.1481547,-4.56274,1.35814,-0.27468,-0.92236092,0.3149406,0.139098765
1764767295.1481547,-4.56274,1.35814,-0.27468,-0.92236092,0.3149406,0.139098765
1764767295.1481547,-4.56274,1.35814,-0.27468,-0.92236092,0.3149406,0.139098765
1764767295.1481547,-4.86794,1.02242,-0.09156,-0.92358162,0.315734055,0.14001429
1764767295.1481547,-4.86794,1.02242,-0.09156,-0.92358162,0.315734055,0.14001429
1764767295.1481547,-4.86794,1.02242,-0.09156,-0.92358162,0.315734055,0.14001429
1764767295.1481547,-4.86794,1.02242,-0.09156,-0.92358162,0.315734055,0.14001429
1764767295.1481547,-4.86794,1.02242,-0.09156,-0.92358162,0.315734055,0.14001429
1764767295.1481547,-4.86794,1.02242,-0.09156,-0.92358162,0.315734055,0.14001429
1764767295.1481547,-4.86794,1.02242,-0.09156,-0.92358162,0.315734055,0.14001429
1764767295.1481547,-4.86794,1.02242,-0.09156,-0.92358162,0.315734055,0.14001429
1764767295.1481547,-4.86794,1.02242,-0.09156,-0.92358162,0.315734055,0.14001429
1764767295.149176,-4.86794,1.02242,-0.09156,-0.92358162,0.315734055,0.14001429
1764767295.149176,-4.60852,0.82404,0.51884,-0.923764725,0.316222335,0.14050257
1764767295.149176,-4.60852,0.82404,0.51884,-0.923764725,0.316222335,0.14050257
1764767295.149176,-4.60852,0.82404,0.51884,-0.923764725,0.316222335,0.14050257
1764767295.149176,-4.60852,0.82404,0.51884,-0.923764725,0.316222335,0.14050257
1764767295.149176,-4.60852,0.82404,0.51884,-0.923764725,0.316222335,0.14050257
1764767295.149176,-4.60852,0.82404,0.51884,-0.923764725,0.316222335,0.14050257
1764767295.149176,-4.60852,0.82404,0.51884,-0.923764725,0.316222335,0.14050257
1764767295.149176,-4.60852,0.82404,0.51884,-0.923764725,0.316222335,0.14050257
1764767295.149176,-4.60852,0.82404,0.51884,-0.923764725,0.316222335,0.14050257
1764767295.149176,-4.60852,0.82404,0.51884,-0.923764725,0.316222335,0.14050257
1764767295.1950638,-4.8832,0.9919,0.44254,-0.923642655,0.315489915,0.13952601
1764767295.1960683,-4.8832,0.9919,0.44254,-0.923642655,0.315489915,0.13952601
1764767295.1960683,-4.8832,0.9919,0.44254,-0.923642655,0.315489915,0.13952601
1764767295.1960683,-4.8832,0.9919,0.44254,-0.923642655,0.315489915,0.13952601
1764767295.1960683,-4.8832,0.9919,0.44254,-0.923642655,0.315489915,0.13952601
1764767295.1960683,-4.8832,0.9919,0.44254,-0.923642655,0.315489915,0.13952601
1764767295.1960683,-4.8832,0.9919,0.44254,-0.923642655,0.315489915,0.13952601
1764767295.1960683,-4.8832,0.9919,0.44254,-0.923642655,0.315489915,0.13952601
1764767295.1960683,-4.8832,0.9919,0.44254,-0.923642655,0.315489915,0.13952601
1764767295.1960683,-4.8832,0.9919,0.44254,-0.923642655,0.315489915,0.13952601
1764767295.1960683,-4.36436,1.12924,0.36624,-0.92394783,0.314513355,0.13928187
1764767295.1960683,-4.36436,1.12924,0.36624,-0.92394783,0.314513355,0.13928187
1764767295.1960683,-4.36436,1.12924,0.36624,-0.92394783,0.314513355,0.13928187
1764767295.1960683,-4.36436,1.12924,0.36624,-0.92394783,0.314513355,0.13928187
1764767295.1960683,-4.36436,1.12924,0.36624,-0.92394783,0.314513355,0.13928187
1764767295.1960683,-4.36436,1.12924,0.36624,-0.92394783,0.314513355,0.13928187
1764767295.1960683,-4.36436,1.12924,0.36624,-0.92394783,0.314513355,0.13928187
1764767295.1960683,-4.36436,1.12924,0.36624,-0.92394783,0.314513355,0.13928187
1764767295.1960683,-4.36436,1.12924,0.36624,-0.92394783,0.314513355,0.13928187
1764767295.1960683,-4.36436,1.12924,0.36624,-0.92394783,0.314513355,0.13928187
1764767295.1960683,-4.41014,1.05294,0.25942,-0.924008865,0.31420818,0.13952601
1764767295.1960683,-4.41014,1.05294,0.25942,-0.924008865,0.31420818,0.13952601
1764767295.1960683,-4.41014,1.05294,0.25942,-0.924008865,0.31420818,0.13952601
1764767295.1960683,-4.41014,1.05294,0.25942,-0.924008865,0.31420818,0.13952601
1764767295.245436,-4.41014,1.05294,0.25942,-0.924008865,0.31420818,0.13952601
1764767295.245436,-4.41014,1.05294,0.25942,-0.924008865,0.31420818,0.13952601
1764767295.245436,-4.41014,1.05294,0.25942,-0.924008865,0.31420818,0.13952601
1764767295.245436,-4.41014,1.05294,0.25942,-0.924008865,0.31420818,0.13952601
1764767295.245436,-4.41014,1.05294,0.25942,-0.924008865,0.31420818,0.13952601
1764767295.245436,-4.41014,1.05294,0.25942,-0.924008865,0.31420818,0.13952601
1764767295.245436,-4.86794,1.17502,0.50358,-0.92394783,0.31445232,0.139587045
1764767295.245436,-4.86794,1.17502,0.50358,-0.92394783,0.31445232,0.139587045
1764767295.245436,-4.86794,1.17502,0.50358,-0.92394783,0.31445232,0.139587045
1764767295.245436,-4.86794,1.17502,0.50358,-0.92394783,0.31445232,0.139587045
1764767295.245436,-4.86794,1.17502,0.50358,-0.92394783,0.31445232,0.139587045
1764767295.245436,-4.86794,1.17502,0.50358,-0.92394783,0.31445232,0.139587045
1764767295.245436,-4.86794,1.17502,0.50358,-0.92394783,0.31445232,0.139587045
1764767295.245436,-4.86794,1.17502,0.50358,-0.92394783,0.31445232,0.139587045
1764767295.245436,-4.86794,1.17502,0.50358,-0.92394783,0.31445232,0.139587045
1764767295.245436,-4.86794,1.17502,0.50358,-0.92394783,0.31445232,0.139587045
1764767295.245436,-4.79164,1.15976,0.2289,-0.923764725,0.31518474,0.14001429
1764767295.245436,-4.79164,1.15976,0.2289,-0.923764725,0.31518474,0.14001429
1764767295.245436,-4.79164,1.15976,0.2289,-0.923764725,0.31518474,0.14001429
1764767295.245436,-4.79164,1.15976,0.2289,-0.923764725,0.31518474,0.14001429
1764767295.245436,-4.79164,1.15976,0.2289,-0.923764725,0.31518474,0.14001429
1764767295.245436,-4.79164,1.15976,0.2289,-0.923764725,0.31518474,0.14001429
1764767295.2926376,-4.79164,1.15976,0.2289,-0.923764725,0.31518474,0.14001429
1764767295.2926376,-4.79164,1.15976,0.2289,-0.923764725,0.31518474,0.14001429
1764767295.2926376,-4.79164,1.15976,0.2289,-0.923764725,0.31518474,0.14001429
1764767295.2926376,-4.79164,1.15976,0.2289,-0.923764725,0.31518474,0.14001429
1764767295.2926376,-4.70008,1.00716,0.5341,-0.92358162,0.31542888,0.140563605
1764767295.2926376,-4.70008,1.00716,0.5341,-0.92358162,0.31542888,0.140563605
1764767295.2926376,-4.70008,1.00716,0.5341,-0.92358162,0.31542888,0.140563605
1764767295.2926376,-4.70008,1.00716,0.5341,-0.92358162,0.31542888,0.140563605
1764767295.2926376,-4.70008,1.00716,0.5341,-0.92358162,0.31542888,0.140563605
1764767295.2937038,-4.70008,1.00716,0.5341,-0.92358162,0.31542888,0.140563605
1764767295.2937038,-4.70008,1.00716,0.5341,-0.92358162,0.31542888,0.140563605
1764767295.2937038,-4.70008,1.00716,0.5341,-0.92358162,0.31542888,0.140563605
1764767295.2937038,-4.70008,1.00716,0.5341,-0.92358162,0.31542888,0.140563605
1764767295.2937038,-4.70008,1.00716,0.5341,-0.92358162,0.31542888,0.140563605
1764767295.2937038,-4.8069,1.2208,0.27468,-0.92297127,0.31445232,0.140441535
1764767295.2937038,-4.8069,1.2208,0.27468,-0.92297127,0.31445232,0.140441535
1764767295.2937038,-4.8069,1.2208,0.27468,-0.92297127,0.31445232,0.140441535
1764767295.2937038,-4.8069,1.2208,0.27468,-0.92297127,0.31445232,0.140441535
1764767295.2937038,-4.8069,1.2208,0.27468,-0.92297127,0.31445232,0.140441535
1764767295.2937038,-4.8069,1.2208,0.27468,-0.92297127,0.31445232,0.140441535
1764767295.2937038,-4.8069,1.2208,0.27468,-0.92297127,0.31445232,0.140441535
1764767295.2937038,-4.8069,1.2208,0.27468,-0.92297127,0.31445232,0.140441535
1764767295.2937038,-4.8069,1.2208,0.27468,-0.92297127,0.31445232,0.140441535
1764767295.2937038,-4.8069,1.2208,0.27468,-0.92297127,0.31445232,0.140441535
1764767295.2937038,-4.47118,0.9003399999999999,0.39676,-0.92309334,0.313903005,0.140441535
1764767295.2937038,-4.47118,0.9003399999999999,0.39676,-0.92309334,0.313903005,0.140441535
1764767295.340096,-4.47118,0.9003399999999999,0.39676,-0.92309334,0.313903005,0.140441535
1764767295.340096,-4.47118,0.9003399999999999,0.39676,-0.92309334,0.313903005,0.140441535
1764767295.340096,-4.47118,0.9003399999999999,0.39676,-0.92309334,0.313903005,0.140441535
1764767295.340096,-4.47118,0.9003399999999999,0.39676,-0.92309334,0.313903005,0.140441535
1764767295.340096,-4.47118,0.9003399999999999,0.39676,-0.92309334,0.313903005,0.140441535
1764767295.340096,-4.47118,0.9003399999999999,0.39676,-0.92309334,0.313903005,0.140441535
1764767295.340096,-4.47118,0.9003399999999999,0.39676,-0.92309334,0.313903005,0.140441535
1764767295.340096,-4.47118,0.9003399999999999,0.39676,-0.92309334,0.313903005,0.140441535
1764767295.340096,-4.79164,0.9919,0.1678599999999999,-0.92309334,0.31420818,0.14099085
1764767295.340096,-4.79164,0.9919,0.1678599999999999,-0.92309334,0.31420818,0.14099085
1764767295.340096,-4.79164,0.9919,0.1678599999999999,-0.92309334,0.31420818,0.14099085
1764767295.3411157,-4.79164,0.9919,0.1678599999999999,-0.92309334,0.31420818,0.14099085
1764767295.3411157,-4.79164,0.9919,0.1678599999999999,-0.92309334,0.31420818,0.14099085
1764767295.3411157,-4.79164,0.9919,0.1678599999999999,-0.92309334,0.31420818,0.14099085
1764767295.3411157,-4.79164,0.9919,0.1678599999999999,-0.92309334,0.31420818,0.14099085
1764767295.3411157,-4.79164,0.9919,0.1678599999999999,-0.92309334,0.31420818,0.14099085
1764767295.3411157,-4.79164,0.9919,0.1678599999999999,-0.92309334,0.31420818,0.14099085
1764767295.3411157,-4.79164,0.9919,0.1678599999999999,-0.92309334,0.31420818,0.14099085
1764767295.3411157,-4.79164,0.6409199999999999,0.28994,-0.923642655,0.31445232,0.141051885
1764767295.3411157,-4.79164,0.6409199999999999,0.28994,-0.923642655,0.31445232,0.141051885
1764767295.3411157,-4.79164,0.6409199999999999,0.28994,-0.923642655,0.31445232,0.141051885
1764767295.3411157,-4.79164,0.6409199999999999,0.28994,-0.923642655,0.31445232,0.141051885
1764767295.3873675,-4.79164,0.6409199999999999,0.28994,-0.923642655,0.31445232,0.141051885
1764767295.3873675,-4.79164,0.6409199999999999,0.28994,-0.923642655,0.31445232,0.141051885
1764767295.3873675,-4.79164,0.6409199999999999,0.28994,-0.923642655,0.31445232,0.141051885
1764767295.3873675,-4.79164,0.6409199999999999,0.28994,-0.923642655,0.31445232,0.141051885
1764767295.3883798,-4.79164,0.6409199999999999,0.28994,-0.923642655,0.31445232,0.141051885
1764767295.3883798,-4.79164,0.6409199999999999,0.28994,-0.923642655,0.31445232,0.141051885
1764767295.3883798,-4.822159999999999,0.73248,0.41202,-0.924130935,0.31506267,0.14001429
1764767295.3883798,-4.822159999999999,0.73248,0.41202,-0.924130935,0.31506267,0.14001429
1764767295.3883798,-4.822159999999999,0.73248,0.41202,-0.924130935,0.31506267,0.14001429
1764767295.3883798,-4.822159999999999,0.73248,0.41202,-0.924130935,0.31506267,0.14001429
1764767295.3883798,-4.822159999999999,0.73248,0.41202,-0.924130935,0.31506267,0.14001429
1764767295.3883798,-4.822159999999999,0.73248,0.41202,-0.924130935,0.31506267,0.14001429
1764767295.3883798,-4.822159999999999,0.73248,0.41202,-0.924130935,0.31506267,0.14001429
1764767295.3883798,-4.822159999999999,0.73248,0.41202,-0.924130935,0.31506267,0.14001429
1764767295.3883798,-4.822159999999999,0.73248,0.41202,-0.924130935,0.31506267,0.14001429
1764767295.3883798,-4.822159999999999,0.73248,0.41202,-0.924130935,0.31506267,0.14001429
1764767295.3883798,-4.822159999999999,0.88508,0.74774,-0.924008865,0.314025075,0.139709115
1764767295.3883798,-4.822159999999999,0.88508,0.74774,-0.924008865,0.314025075,0.139709115
1764767295.3883798,-4.822159999999999,0.88508,0.74774,-0.924008865,0.314025075,0.139709115
1764767295.3883798,-4.822159999999999,0.88508,0.74774,-0.924008865,0.314025075,0.139709115
1764767295.3883798,-4.822159999999999,0.88508,0.74774,-0.924008865,0.314025075,0.139709115
1764767295.3883798,-4.822159999999999,0.88508,0.74774,-0.924008865,0.314025075,0.139709115
1764767295.3883798,-4.822159999999999,0.88508,0.74774,-0.924008865,0.314025075,0.139709115
1764767295.3883798,-4.822159999999999,0.88508,0.74774,-0.924008865,0.314025075,0.139709115
1764767295.431471,-4.822159999999999,0.88508,0.74774,-0.924008865,0.314025075,0.139709115
1764767295.431471,-4.822159999999999,0.88508,0.74774,-0.924008865,0.314025075,0.139709115
1764767295.431471,-4.07442,0.93086,0.65618,-0.92370369,0.314391285,0.139831185
1764767295.431471,-4.07442,0.93086,0.65618,-0.92370369,0.314391285,0.139831185
1764767295.431471,-4.07442,0.93086,0.65618,-0.92370369,0.314391285,0.139831185
1764767295.431471,-4.07442,0.93086,0.65618,-0.92370369,0.314391285,0.139831185
1764767295.431471,-4.07442,0.93086,0.65618,-0.92370369,0.314391285,0.139831185
1764767295.431471,-4.07442,0.93086,0.65618,-0.92370369,0.314391285,0.139831185
1764767295.431471,-4.07442,0.93086,0.65618,-0.92370369,0.314391285,0.139831185
1764767295.431471,-4.07442,0.93086,0.65618,-0.92370369,0.314391285,0.139831185
1764767295.4332566,-4.07442,0.93086,0.65618,-0.92370369,0.314391285,0.139831185
1764767295.4332566,-4.07442,0.93086,0.65618,-0.92370369,0.314391285,0.139831185
1764767295.4332566,-4.22702,1.34288,0.41202,-0.923520585,0.314147145,0.139587045
1764767295.4332566,-4.22702,1.34288,0.41202,-0.923520585,0.314147145,0.139587045
1764767295.4332566,-4.22702,1.34288,0.41202,-0.923520585,0.314147145,0.139587045
1764767295.4332566,-4.22702,1.34288,0.41202,-0.923520585,0.314147145,0.139587045
1764767295.4332566,-4.22702,1.34288,0.41202,-0.923520585,0.314147145,0.139587045
1764767295.4332566,-4.22702,1.34288,0.41202,-0.923520585,0.314147145,0.139587045
1764767295.4332566,-4.22702,1.34288,0.41202,-0.923520585,0.314147145,0.139587045
1764767295.4332566,-4.22702,1.34288,0.41202,-0.923520585,0.314147145,0.139587045
1764767295.4332566,-4.22702,1.34288,0.41202,-0.923520585,0.314147145,0.139587045
1764767295.4332566,-4.22702,1.34288,0.41202,-0.923520585,0.314147145,0.139587045
1764767295.48014,-4.07442,1.57178,0.0762999999999999,-0.92370369,0.315001635,0.13964808
1764767295.48014,-4.07442,1.57178,0.0762999999999999,-0.92370369,0.315001635,0.13964808
1764767295.48014,-4.07442,1.57178,0.0762999999999999,-0.92370369,0.315001635,0.13964808
1764767295.48014,-4.07442,1.57178,0.0762999999999999,-0.92370369,0.315001635,0.13964808
1764767295.48014,-4.07442,1.57178,0.0762999999999999,-0.92370369,0.315001635,0.13964808
1764767295.48014,-4.07442,1.57178,0.0762999999999999,-0.92370369,0.315001635,0.13964808
1764767295.48014,-4.07442,1.57178,0.0762999999999999,-0.92370369,0.315001635,0.13964808
1764767295.48014,-4.07442,1.57178,0.0762999999999999,-0.92370369,0.315001635,0.13964808
1764767295.48014,-4.07442,1.57178,0.0762999999999999,-0.92370369,0.315001635,0.13964808
1764767295.48014,-4.07442,1.57178,0.0762999999999999,-0.92370369,0.315001635,0.13964808
1764767295.48014,-4.31858,1.11398,0.03052,-0.92321541,0.314757495,0.139709115
1764767295.48014,-4.31858,1.11398,0.03052,-0.92321541,0.314757495,0.139709115
1764767295.48014,-4.31858,1.11398,0.03052,-0.92321541,0.314757495,0.139709115
1764767295.48014,-4.31858,1.11398,0.03052,-0.92321541,0.314757495,0.139709115
1764767295.48014,-4.31858,1.11398,0.03052,-0.92321541,0.314757495,0.139709115
1764767295.48014,-4.31858,1.11398,0.03052,-0.92321541,0.314757495,0.139709115
1764767295.48014,-4.31858,1.11398,0.03052,-0.92321541,0.314757495,0.139709115
1764767295.48014,-4.31858,1.11398,0.03052,-0.92321541,0.314757495,0.139709115
1764767295.48014,-4.31858,1.11398,0.03052,-0.92321541,0.314757495,0.139709115
1764767295.48014,-4.31858,1.11398,0.03052,-0.92321541,0.314757495,0.139709115
1764767295.48014,-4.39488,0.62566,-0.3051999999999999,-0.92321541,0.313903005,0.140075325
