Timestamp,GyroX,GyroY,GyroZ,AccX,AccY,AccZ
1764766980.7240276,-0.8087799999999999,3.815,0.74774,-0.8032206000000001,0.549498105,0.1892085
1764766980.7240276,-0.8087799999999999,3.815,0.74774,-0.8032206000000001,0.549498105,0.1892085
1764766980.7240276,-0.8698199999999999,3.7387,1.15976,-0.80224404,0.548033265,0.19067334
1764766980.7240276,-0.8698199999999999,3.7387,1.15976,-0.80224404,0.548033265,0.19067334
1764766980.7240276,-0.8698199999999999,3.7387,1.15976,-0.80224404,0.548033265,0.19067334
1764766980.7240276,-0.8698199999999999,3.7387,1.15976,-0.80224404,0.548033265,0.19067334
1764766980.7240276,-0.8698199999999999,3.7387,1.15976,-0.80224404,0.548033265,0.19067334
1764766980.7240276,-0.8698199999999999,3.7387,1.15976,-0.80224404,0.548033265,0.19067334
1764766980.7240276,-0.8698199999999999,3.7387,1.15976,-0.80224404,0.548033265,0.19067334
1764766980.7240276,-0.8698199999999999,3.7387,1.15976,-0.80224404,0.548033265,0.19067334
1764766980.7240276,-0.8698199999999999,3.7387,1.15976,-0.80224404,0.548033265,0.19067334
1764766980.7240276,-0.8698199999999999,3.7387,1.15976,-0.80224404,0.548033265,0.19067334
1764766980.7240276,-0.13734,4.3491,0.94612,-0.8019999,0.547422915,0.191344725
1764766980.7240276,-0.13734,4.3491,0.94612,-0.8019999,0.547422915,0.191344725
1764766980.7245352,-0.13734,4.3491,0.94612,-0.8019999,0.547422915,0.191344725
1764766980.7245352,-0.13734,4.3491,0.94612,-0.8019999,0.547422915,0.191344725
1764766980.7245352,-0.13734,4.3491,0.94612,-0.8019999,0.547422915,0.191344725
1764766980.7245352,-0.13734,4.3491,0.94612,-0.8019999,0.547422915,0.191344725
1764766980.7245352,-0.13734,4.3491,0.94612,-0.8019999,0.547422915,0.191344725
1764766980.7245352,-0.13734,4.3491,0.94612,-0.8019999,0.547422915,0.191344725
1764766980.7245352,-0.13734,4.3491,0.94612,-0.8019999,0.547422915,0.191344725
1764766980.7245352,-0.13734,4.3491,0.94612,-0.8019999,0.547422915,0.191344725
1764766980.771533,-0.06104,4.08968,1.31236,-0.80273232,0.548765685,0.19018506
1764766980.771533,-0.06104,4.08968,1.31236,-0.80273232,0.548765685,0.19018506
1764766980.771533,-0.06104,4.08968,1.31236,-0.80273232,0.548765685,0.19018506
1764766980.771533,-0.06104,4.08968,1.31236,-0.80273232,0.548765685,0.19018506
1764766980.771533,-0.06104,4.08968,1.31236,-0.80273232,0.548765685,0.19018506
1764766980.771533,-0.06104,4.08968,1.31236,-0.80273232,0.548765685,0.19018506
1764766980.771533,-0.06104,4.08968,1.31236,-0.80273232,0.548765685,0.19018506
1764766980.771533,-0.06104,4.08968,1.31236,-0.80273232,0.548765685,0.19018506
1764766980.771533,-0.06104,4.08968,1.31236,-0.80273232,0.548765685,0.19018506
1764766980.771533,-0.06104,4.08968,1.31236,-0.80273232,0.548765685,0.19018506
1764766980.771533,-1.03768,3.64714,0.82404,-0.80261025,0.549498105,0.189147465
1764766980.771533,-1.03768,3.64714,0.82404,-0.80261025,0.549498105,0.189147465
1764766980.771533,-1.03768,3.64714,0.82404,-0.80261025,0.549498105,0.189147465
1764766980.771533,-1.03768,3.64714,0.82404,-0.80261025,0.549498105,0.189147465
1764766980.771533,-1.03768,3.64714,0.82404,-0.80261025,0.549498105,0.189147465
1764766980.771533,-1.03768,3.64714,0.82404,-0.80261025,0.549498105,0.189147465
1764766980.771533,-1.03768,3.64714,0.82404,-0.80261025,0.549498105,0.189147465
1764766980.771533,-1.03768,3.64714,0.82404,-0.80261025,0.549498105,0.189147465
1764766980.771533,-1.03768,3.64714,0.82404,-0.80261025,0.549498105,0.189147465
1764766980.771533,-1.03768,3.64714,0.82404,-0.80261025,0.549498105,0.189147465
1764766980.771533,-1.8006799999999998,4.01338,0.4578,-0.800840235,0.550230525,0.18945264
1764766980.771533,-1.8006799999999998,4.01338,0.4578,-0.800840235,0.550230525,0.18945264
1764766980.771533,-1.8006799999999998,4.01338,0.4578,-0.800840235,0.550230525,0.18945264
1764766980.771533,-1.8006799999999998,4.01338,0.4578,-0.800840235,0.550230525,0.18945264
1764766980.8181074,-1.8006799999999998,4.01338,0.4578,-0.800840235,0.550230525,0.18945264
1764766980.8181074,-1.8006799999999998,4.01338,0.4578,-0.800840235,0.550230525,0.18945264
1764766980.8181074,-1.8006799999999998,4.01338,0.4578,-0.800840235,0.550230525,0.18945264
1764766980.8181074,-1.8006799999999998,4.01338,0.4578,-0.800840235,0.550230525,0.18945264
1764766980.8181074,-1.8006799999999998,4.01338,0.4578,-0.800840235,0.550230525,0.18945264
1764766980.8181074,-1.8006799999999998,4.01338,0.4578,-0.800840235,0.550230525,0.18945264
1764766980.8181074,-1.26658,3.29616,0.0762999999999999,-0.80224404,0.54968121,0.18847608
1764766980.8181074,-1.26658,3.29616,0.0762999999999999,-0.80224404,0.54968121,0.18847608
1764766980.8181074,-1.26658,3.29616,0.0762999999999999,-0.80224404,0.54968121,0.18847608
1764766980.8181074,-1.26658,3.29616,0.0762999999999999,-0.80224404,0.54968121,0.18847608
1764766980.8181074,-1.26658,3.29616,0.0762999999999999,-0.80224404,0.54968121,0.18847608
1764766980.8181074,-1.26658,3.29616,0.0762999999999999,-0.80224404,0.54968121,0.18847608
1764766980.8181074,-1.26658,3.29616,0.0762999999999999,-0.80224404,0.54968121,0.18847608
1764766980.8181074,-1.26658,3.29616,0.0762999999999999,-0.80224404,0.54968121,0.18847608
1764766980.8181074,-1.26658,3.29616,0.0762999999999999,-0.80224404,0.54968121,0.18847608
1764766980.8181074,-1.26658,3.29616,0.0762999999999999,-0.80224404,0.54968121,0.18847608
1764766980.8181074,-1.526,3.64714,-0.79352,-0.803647845,0.549253965,0.18859815
1764766980.8181074,-1.526,3.64714,-0.79352,-0.803647845,0.549253965,0.18859815
1764766980.8181074,-1.526,3.64714,-0.79352,-0.803647845,0.549253965,0.18859815
1764766980.8181074,-1.526,3.64714,-0.79352,-0.803647845,0.549253965,0.18859815
1764766980.8181074,-1.526,3.64714,-0.79352,-0.803647845,0.549253965,0.18859815
1764766980.8181074,-1.526,3.64714,-0.79352,-0.803647845,0.549253965,0.18859815
1764766980.8181074,-1.526,3.64714,-0.79352,-0.803647845,0.549253965,0.18859815
1764766980.8181074,-1.526,3.64714,-0.79352,-0.803647845,0.549253965,0.18859815
1764766980.862808,-1.526,3.64714,-0.79352,-0.803647845,0.549253965,0.18859815
1764766980.862808,-1.526,3.64714,-0.79352,-0.803647845,0.549253965,0.18859815
1764766980.862808,-2.38056,3.78448,-0.4578,-0.80407509,0.54968121,0.1904292
1764766980.862808,-2.38056,3.78448,-0.4578,-0.80407509,0.54968121,0.1904292
1764766980.862808,-2.38056,3.78448,-0.4578,-0.80407509,0.54968121,0.1904292
1764766980.862808,-2.38056,3.78448,-0.4578,-0.80407509,0.54968121,0.1904292
1764766980.862808,-2.38056,3.78448,-0.4578,-0.80407509,0.54968121,0.1904292
1764766980.862808,-2.38056,3.78448,-0.4578,-0.80407509,0.54968121,0.1904292
1764766980.862808,-2.38056,3.78448,-0.4578,-0.80407509,0.54968121,0.1904292
1764766980.862808,-2.38056,3.78448,-0.4578,-0.80407509,0.54968121,0.1904292
1764766980.862808,-2.38056,3.78448,-0.4578,-0.80407509,0.54968121,0.1904292
1764766980.862808,-2.38056,3.78448,-0.4578,-0.80407509,0.54968121,0.1904292
1764766980.862808,-2.62472,3.95234,0.09156,-0.803037495,0.548399475,0.190856445
1764766980.862808,-2.62472,3.95234,0.09156,-0.803037495,0.548399475,0.190856445
1764766980.862808,-2.62472,3.95234,0.09156,-0.803037495,0.548399475,0.190856445
1764766980.862808,-2.62472,3.95234,0.09156,-0.803037495,0.548399475,0.190856445
1764766980.862808,-2.62472,3.95234,0.09156,-0.803037495,0.548399475,0.190856445
1764766980.862808,-2.62472,3.95234,0.09156,-0.803037495,0.548399475,0.190856445
1764766980.862808,-2.62472,3.95234,0.09156,-0.803037495,0.548399475,0.190856445
1764766980.862808,-2.62472,3.95234,0.09156,-0.803037495,0.548399475,0.190856445
1764766980.862808,-2.62472,3.95234,0.09156,-0.803037495,0.548399475,0.190856445
1764766980.862808,-2.62472,3.95234,0.09156,-0.803037495,0.548399475,0.190856445
1764766980.909358,-0.8392999999999999,4.6543,0.7019599999999999,-0.80297646,0.54662946,0.19091748
1764766980.909358,-0.8392999999999999,4.6543,0.7019599999999999,-0.80297646,0.54662946,0.19091748
1764766980.909358,-0.8392999999999999,4.6543,0.7019599999999999,-0.80297646,0.54662946,0.19091748
1764766980.909358,-0.8392999999999999,4.6543,0.7019599999999999,-0.80297646,0.54662946,0.19091748
1764766980.909358,-0.8392999999999999,4.6543,0.7019599999999999,-0.80297646,0.54662946,0.19091748
1764766980.909358,-0.8392999999999999,4.6543,0.7019599999999999,-0.80297646,0.54662946,0.19091748
1764766980.909358,-0.8392999999999999,4.6543,0.7019599999999999,-0.80297646,0.54662946,0.19091748
1764766980.909358,-0.8392999999999999,4.6543,0.7019599999999999,-0.80297646,0.54662946,0.19091748
1764766980.909358,-0.8392999999999999,4.6543,0.7019599999999999,-0.80297646,0.54662946,0.19091748
1764766980.909358,-0.8392999999999999,4.6543,0.7019599999999999,-0.80297646,0.54662946,0.19091748
1764766980.909358,-0.28994,4.0439,1.03768,-0.80407509,0.54601911,0.19030713
1764766980.909358,-0.28994,4.0439,1.03768,-0.80407509,0.54601911,0.19030713
1764766980.909358,-0.28994,4.0439,1.03768,-0.80407509,0.54601911,0.19030713
1764766980.909358,-0.28994,4.0439,1.03768,-0.80407509,0.54601911,0.19030713
1764766980.909358,-0.28994,4.0439,1.03768,-0.80407509,0.54601911,0.19030713
1764766980.909358,-0.28994,4.0439,1.03768,-0.80407509,0.54601911,0.19030713
1764766980.909358,-0.28994,4.0439,1.03768,-0.80407509,0.54601911,0.19030713
1764766980.909358,-0.28994,4.0439,1.03768,-0.80407509,0.54601911,0.19030713
1764766980.909358,-0.28994,4.0439,1.03768,-0.80407509,0.54601911,0.19030713
1764766980.909358,-0.28994,4.0439,1.03768,-0.80407509,0.54601911,0.19030713
1764766980.909358,-0.25942,3.95234,0.7019599999999999,-0.80456337,0.547544985,0.18981885
1764766980.909358,-0.25942,3.95234,0.7019599999999999,-0.80456337,0.547544985,0.18981885
1764766980.909358,-0.25942,3.95234,0.7019599999999999,-0.80456337,0.547544985,0.18981885
1764766980.909358,-0.25942,3.95234,0.7019599999999999,-0.80456337,0.547544985,0.18981885
1764766980.957271,-0.25942,3.95234,0.7019599999999999,-0.80456337,0.547544985,0.18981885
1764766980.957271,-0.25942,3.95234,0.7019599999999999,-0.80456337,0.547544985,0.18981885
1764766980.957271,-0.25942,3.95234,0.7019599999999999,-0.80456337,0.547544985,0.18981885
1764766980.957271,-0.25942,3.95234,0.7019599999999999,-0.80456337,0.547544985,0.18981885
1764766980.957271,-0.25942,3.95234,0.7019599999999999,-0.80456337,0.547544985,0.18981885
1764766980.957271,-0.25942,3.95234,0.7019599999999999,-0.80456337,0.547544985,0.18981885
1764766980.957271,-0.39676,3.815,1.05294,-0.80346474,0.54772809,0.190856445
1764766980.957271,-0.39676,3.815,1.05294,-0.80346474,0.54772809,0.190856445
1764766980.957271,-0.39676,3.815,1.05294,-0.80346474,0.54772809,0.190856445
1764766980.957271,-0.39676,3.815,1.05294,-0.80346474,0.54772809,0.190856445
1764766980.957271,-0.39676,3.815,1.05294,-0.80346474,0.54772809,0.190856445
1764766980.957271,-0.39676,3.815,1.05294,-0.80346474,0.54772809,0.190856445
1764766980.957271,-0.39676,3.815,1.05294,-0.80346474,0.54772809,0.190856445
1764766980.957271,-0.39676,3.815,1.05294,-0.80346474,0.54772809,0.190856445
1764766980.957271,-0.39676,3.815,1.05294,-0.80346474,0.54772809,0.190856445
1764766980.957271,-0.39676,3.815,1.05294,-0.80346474,0.54772809,0.190856445
1764766980.957271,-0.3204599999999999,3.76922,0.8392999999999999,-0.80346474,0.54870465,0.191466795
1764766980.957271,-0.3204599999999999,3.76922,0.8392999999999999,-0.80346474,0.54870465,0.191466795
1764766980.957271,-0.3204599999999999,3.76922,0.8392999999999999,-0.80346474,0.54870465,0.191466795
1764766980.957271,-0.3204599999999999,3.76922,0.8392999999999999,-0.80346474,0.54870465,0.191466795
1764766980.957271,-0.3204599999999999,3.76922,0.8392999999999999,-0.80346474,0.54870465,0.191466795
1764766980.957271,-0.3204599999999999,3.76922,0.8392999999999999,-0.80346474,0.54870465,0.191466795
1764766980.957271,-0.3204599999999999,3.76922,0.8392999999999999,-0.80346474,0.54870465,0.191466795
1764766980.957271,-0.3204599999999999,3.76922,0.8392999999999999,-0.80346474,0.54870465,0.191466795
1764766981.0024233,-0.3204599999999999,3.76922,0.8392999999999999,-0.80346474,0.54870465,0.191466795
1764766981.0024233,-0.3204599999999999,3.76922,0.8392999999999999,-0.80346474,0.54870465,0.191466795
1764766981.0024233,-0.6867,3.79974,0.1678599999999999,-0.80370888,0.54882672,0.19091748
1764766981.0024233,-0.6867,3.79974,0.1678599999999999,-0.80370888,0.54882672,0.19091748
1764766981.0024233,-0.6867,3.79974,0.1678599999999999,-0.80370888,0.54882672,0.19091748
1764766981.0024233,-0.6867,3.79974,0.1678599999999999,-0.80370888,0.54882672,0.19091748
1764766981.0024233,-0.6867,3.79974,0.1678599999999999,-0.80370888,0.54882672,0.19091748
1764766981.0024233,-0.6867,3.79974,0.1678599999999999,-0.80370888,0.54882672,0.19091748
1764766981.0024233,-0.6867,3.79974,0.1678599999999999,-0.80370888,0.54882672,0.19091748
1764766981.0024233,-0.6867,3.79974,0.1678599999999999,-0.80370888,0.54882672,0.19091748
1764766981.0024233,-0.6867,3.79974,0.1678599999999999,-0.80370888,0.54882672,0.19091748
1764766981.0024233,-0.6867,3.79974,0.1678599999999999,-0.80370888,0.54882672,0.19091748
1764766981.0024233,-1.28184,3.63188,-0.04578,-0.803159565,0.550108455,0.19103955
1764766981.0024233,-1.28184,3.63188,-0.04578,-0.803159565,0.550108455,0.19103955
1764766981.0024233,-1.28184,3.63188,-0.04578,-0.803159565,0.550108455,0.19103955
1764766981.0024233,-1.28184,3.63188,-0.04578,-0.803159565,0.550108455,0.19103955
1764766981.0024233,-1.28184,3.63188,-0.04578,-0.803159565,0.550108455,0.19103955
1764766981.0035057,-1.28184,3.63188,-0.04578,-0.803159565,0.550108455,0.19103955
1764766981.0035057,-1.28184,3.63188,-0.04578,-0.803159565,0.550108455,0.19103955
1764766981.0035057,-1.28184,3.63188,-0.04578,-0.803159565,0.550108455,0.19103955
1764766981.0035057,-1.28184,3.63188,-0.04578,-0.803159565,0.550108455,0.19103955
1764766981.0035057,-1.28184,3.63188,-0.04578,-0.803159565,0.550108455,0.19103955
1764766981.049574,-1.77016,3.37246,0.01526,-0.80273232,0.5505357,0.19128369
1764766981.049574,-1.77016,3.37246,0.01526,-0.80273232,0.5505357,0.19128369
1764766981.049574,-1.77016,3.37246,0.01526,-0.80273232,0.5505357,0.19128369
1764766981.049574,-1.77016,3.37246,0.01526,-0.80273232,0.5505357,0.19128369
1764766981.050603,-1.77016,3.37246,0.01526,-0.80273232,0.5505357,0.19128369
1764766981.050603,-1.77016,3.37246,0.01526,-0.80273232,0.5505357,0.19128369
1764766981.050603,-1.77016,3.37246,0.01526,-0.80273232,0.5505357,0.19128369
1764766981.050603,-1.77016,3.37246,0.01526,-0.80273232,0.5505357,0.19128369
1764766981.050603,-1.77016,3.37246,0.01526,-0.80273232,0.5505357,0.19128369
1764766981.050603,-1.77016,3.37246,0.01526,-0.80273232,0.5505357,0.19128369
1764766981.050603,-2.1364,3.44876,0.03052,-0.80334267,0.549864315,0.19103955
1764766981.050603,-2.1364,3.44876,0.03052,-0.80334267,0.549864315,0.19103955
1764766981.050603,-2.1364,3.44876,0.03052,-0.80334267,0.549864315,0.19103955
1764766981.050603,-2.1364,3.44876,0.03052,-0.80334267,0.549864315,0.19103955
1764766981.050603,-2.1364,3.44876,0.03052,-0.80334267,0.549864315,0.19103955
1764766981.050603,-2.1364,3.44876,0.03052,-0.80334267,0.549864315,0.19103955
1764766981.050603,-2.1364,3.44876,0.03052,-0.80334267,0.549864315,0.19103955
1764766981.050603,-2.1364,3.44876,0.03052,-0.80334267,0.549864315,0.19103955
1764766981.051636,-2.1364,3.44876,0.03052,-0.80334267,0.549864315,0.19103955
1764766981.051636,-2.1364,3.44876,0.03052,-0.80334267,0.549864315,0.19103955
1764766981.051636,-1.43444,3.34194,0.03052,-0.80334267,0.54858258,0.190368165
1764766981.051636,-1.43444,3.34194,0.03052,-0.80334267,0.54858258,0.190368165
1764766981.051636,-1.43444,3.34194,0.03052,-0.80334267,0.54858258,0.190368165
1764766981.051636,-1.43444,3.34194,0.03052,-0.80334267,0.54858258,0.190368165
1764766981.0979996,-1.43444,3.34194,0.03052,-0.80334267,0.54858258,0.190368165
1764766981.0985062,-1.43444,3.34194,0.03052,-0.80334267,0.54858258,0.190368165
1764766981.0985062,-1.43444,3.34194,0.03052,-0.80334267,0.54858258,0.190368165
1764766981.0985062,-1.43444,3.34194,0.03052,-0.80334267,0.54858258,0.190368165
1764766981.0985062,-1.43444,3.34194,0.03052,-0.80334267,0.54858258,0.190368165
1764766981.0985062,-1.43444,3.34194,0.03052,-0.80334267,0.54858258,0.190368165
1764766981.0985062,-1.23606,3.06726,0.51884,-0.803647845,0.5468736,0.190612305
1764766981.0985062,-1.23606,3.06726,0.51884,-0.803647845,0.5468736,0.190612305
1764766981.0985062,-1.23606,3.06726,0.51884,-0.803647845,0.5468736,0.190612305
1764766981.0985062,-1.23606,3.06726,0.51884,-0.803647845,0.5468736,0.190612305
1764766981.0985062,-1.23606,3.06726,0.51884,-0.803647845,0.5468736,0.190612305
1764766981.0985062,-1.23606,3.06726,0.51884,-0.803647845,0.5468736,0.190612305
1764766981.0985062,-1.23606,3.06726,0.51884,-0.803647845,0.5468736,0.190612305
1764766981.0985062,-1.23606,3.06726,0.51884,-0.803647845,0.5468736,0.190612305
1764766981.0985062,-1.23606,3.06726,0.51884,-0.803647845,0.5468736,0.190612305
1764766981.0985062,-1.23606,3.06726,0.51884,-0.803647845,0.5468736,0.190612305
1764766981.0985062,-0.28994,4.15072,1.4497,-0.802427145,0.545469795,0.18969678
1764766981.0985062,-0.28994,4.15072,1.4497,-0.802427145,0.545469795,0.18969678
1764766981.0985062,-0.28994,4.15072,1.4497,-0.802427145,0.545469795,0.18969678
1764766981.0985062,-0.28994,4.15072,1.4497,-0.802427145,0.545469795,0.18969678
1764766981.0985062,-0.28994,4.15072,1.4497,-0.802427145,0.545469795,0.18969678
1764766981.0985062,-0.28994,4.15072,1.4497,-0.802427145,0.545469795,0.18969678
1764766981.145342,-0.28994,4.15072,1.4497,-0.802427145,0.545469795,0.18969678
1764766981.145342,-0.28994,4.15072,1.4497,-0.802427145,0.545469795,0.18969678
1764766981.145342,-0.28994,4.15072,1.4497,-0.802427145,0.545469795,0.18969678
1764766981.145342,-0.28994,4.15072,1.4497,-0.802427145,0.545469795,0.18969678
1764766981.145342,0.42728,3.95234,1.19028,-0.80358681,0.547544985,0.18908643
1764766981.145342,0.42728,3.95234,1.19028,-0.80358681,0.547544985,0.18908643
1764766981.145342,0.42728,3.95234,1.19028,-0.80358681,0.547544985,0.18908643
1764766981.1463745,0.42728,3.95234,1.19028,-0.80358681,0.547544985,0.18908643
1764766981.1463745,0.42728,3.95234,1.19028,-0.80358681,0.547544985,0.18908643
1764766981.1463745,0.42728,3.95234,1.19028,-0.80358681,0.547544985,0.18908643
1764766981.1463745,0.42728,3.95234,1.19028,-0.80358681,0.547544985,0.18908643
1764766981.1463745,0.42728,3.95234,1.19028,-0.80358681,0.547544985,0.18908643
1764766981.1463745,0.42728,3.95234,1.19028,-0.80358681,0.547544985,0.18908643
1764766981.1463745,0.42728,3.95234,1.19028,-0.80358681,0.547544985,0.18908643
1764766981.1463745,-0.9003399999999999,3.69292,0.25942,-0.804136125,0.550230525,0.18859815
1764766981.1463745,-0.9003399999999999,3.69292,0.25942,-0.804136125,0.550230525,0.18859815
1764766981.1463745,-0.9003399999999999,3.69292,0.25942,-0.804136125,0.550230525,0.18859815
1764766981.1463745,-0.9003399999999999,3.69292,0.25942,-0.804136125,0.550230525,0.18859815
1764766981.1463745,-0.9003399999999999,3.69292,0.25942,-0.804136125,0.550230525,0.18859815
1764766981.1463745,-0.9003399999999999,3.69292,0.25942,-0.804136125,0.550230525,0.18859815
1764766981.1463745,-0.9003399999999999,3.69292,0.25942,-0.804136125,0.550230525,0.18859815
1764766981.1463745,-0.9003399999999999,3.69292,0.25942,-0.804136125,0.550230525,0.18859815
1764766981.1463745,-0.9003399999999999,3.69292,0.25942,-0.804136125,0.550230525,0.18859815
1764766981.1463745,-0.9003399999999999,3.69292,0.25942,-0.804136125,0.550230525,0.18859815
1764766981.192548,-1.6786,4.15072,0.42728,-0.80383095,0.54980328,0.18884229
1764766981.192548,-1.6786,4.15072,0.42728,-0.80383095,0.54980328,0.18884229
1764766981.192548,-1.6786,4.15072,0.42728,-0.80383095,0.54980328,0.18884229
1764766981.192548,-1.6786,4.15072,0.42728,-0.80383095,0.54980328,0.18884229
1764766981.1935594,-1.6786,4.15072,0.42728,-0.80383095,0.54980328,0.18884229
1764766981.1935594,-1.6786,4.15072,0.42728,-0.80383095,0.54980328,0.18884229
1764766981.1935594,-1.6786,4.15072,0.42728,-0.80383095,0.54980328,0.18884229
1764766981.1935594,-1.6786,4.15072,0.42728,-0.80383095,0.54980328,0.18884229
1764766981.1935594,-1.6786,4.15072,0.42728,-0.80383095,0.54980328,0.18884229
1764766981.1935594,-1.6786,4.15072,0.42728,-0.80383095,0.54980328,0.18884229
1764766981.1935594,-1.92276,4.18124,0.47306,-0.8032206000000001,0.54858258,0.188903325
1764766981.1935594,-1.92276,4.18124,0.47306,-0.8032206000000001,0.54858258,0.188903325
1764766981.1935594,-1.92276,4.18124,0.47306,-0.8032206000000001,0.54858258,0.188903325
1764766981.1935594,-1.92276,4.18124,0.47306,-0.8032206000000001,0.54858258,0.188903325
1764766981.1935594,-1.92276,4.18124,0.47306,-0.8032206000000001,0.54858258,0.188903325
1764766981.1935594,-1.92276,4.18124,0.47306,-0.8032206000000001,0.54858258,0.188903325
1764766981.1935594,-1.92276,4.18124,0.47306,-0.8032206000000001,0.54858258,0.188903325
1764766981.1935594,-1.92276,4.18124,0.47306,-0.8032206000000001,0.54858258,0.188903325
1764766981.1935594,-1.92276,4.18124,0.47306,-0.8032206000000001,0.54858258,0.188903325
1764766981.1935594,-1.92276,4.18124,0.47306,-0.8032206000000001,0.54858258,0.188903325
1764766981.1935594,-0.9003399999999999,4.1965,0.3204599999999999,-0.80334267,0.54736188,0.189879885
1764766981.1935594,-0.9003399999999999,4.1965,0.3204599999999999,-0.80334267,0.54736188,0.189879885
1764766981.1935594,-0.9003399999999999,4.1965,0.3204599999999999,-0.80334267,0.54736188,0.189879885
1764766981.1935594,-0.9003399999999999,4.1965,0.3204599999999999,-0.80334267,0.54736188,0.189879885
1764766981.238565,-0.9003399999999999,4.1965,0.3204599999999999,-0.80334267,0.54736188,0.189879885
1764766981.238565,-0.9003399999999999,4.1965,0.3204599999999999,-0.80334267,0.54736188,0.189879885
1764766981.238565,-0.9003399999999999,4.1965,0.3204599999999999,-0.80334267,0.54736188,0.189879885
1764766981.238565,-0.9003399999999999,4.1965,0.3204599999999999,-0.80334267,0.54736188,0.189879885
1764766981.238565,-0.9003399999999999,4.1965,0.3204599999999999,-0.80334267,0.54736188,0.189879885
1764766981.238565,-0.9003399999999999,4.1965,0.3204599999999999,-0.80334267,0.54736188,0.189879885
1764766981.238565,-0.39676,4.3491,0.56462,-0.80419716,0.54711774,0.190856445
1764766981.238565,-0.39676,4.3491,0.56462,-0.80419716,0.54711774,0.190856445
1764766981.238565,-0.39676,4.3491,0.56462,-0.80419716,0.54711774,0.190856445
1764766981.238565,-0.39676,4.3491,0.56462,-0.80419716,0.54711774,0.190856445
1764766981.238565,-0.39676,4.3491,0.56462,-0.80419716,0.54711774,0.190856445
1764766981.238565,-0.39676,4.3491,0.56462,-0.80419716,0.54711774,0.190856445
1764766981.238565,-0.39676,4.3491,0.56462,-0.80419716,0.54711774,0.190856445
1764766981.238565,-0.39676,4.3491,0.56462,-0.80419716,0.54711774,0.190856445
1764766981.238565,-0.39676,4.3491,0.56462,-0.80419716,0.54711774,0.190856445
1764766981.238565,-0.39676,4.3491,0.56462,-0.80419716,0.54711774,0.190856445
1764766981.238565,-0.2289,4.18124,0.42728,-0.804380265,0.5480943,0.190001955
1764766981.238565,-0.2289,4.18124,0.42728,-0.804380265,0.5480943,0.190001955
1764766981.238565,-0.2289,4.18124,0.42728,-0.804380265,0.5480943,0.190001955
1764766981.238565,-0.2289,4.18124,0.42728,-0.804380265,0.5480943,0.190001955
1764766981.238565,-0.2289,4.18124,0.42728,-0.804380265,0.5480943,0.190001955
1764766981.238565,-0.2289,4.18124,0.42728,-0.804380265,0.5480943,0.190001955
1764766981.238565,-0.2289,4.18124,0.42728,-0.804380265,0.5480943,0.190001955
1764766981.238565,-0.2289,4.18124,0.42728,-0.804380265,0.5480943,0.190001955
1764766981.2871602,-0.2289,4.18124,0.42728,-0.804380265,0.5480943,0.190001955
1764766981.2871602,-0.2289,4.18124,0.42728,-0.804380265,0.5480943,0.190001955
1764766981.2871602,-0.4578,3.90656,0.6867,-0.80431923,0.54919293,0.190612305
1764766981.2871602,-0.4578,3.90656,0.6867,-0.80431923,0.54919293,0.190612305
1764766981.2871602,-0.4578,3.90656,0.6867,-0.80431923,0.54919293,0.190612305
1764766981.2871602,-0.4578,3.90656,0.6867,-0.80431923,0.54919293,0.190612305
1764766981.2871602,-0.4578,3.90656,0.6867,-0.80431923,0.54919293,0.190612305
1764766981.2871602,-0.4578,3.90656,0.6867,-0.80431923,0.54919293,0.190612305
1764766981.2871602,-0.4578,3.90656,0.6867,-0.80431923,0.54919293,0.190612305
1764766981.2871602,-0.4578,3.90656,0.6867,-0.80431923,0.54919293,0.190612305
1764766981.2871602,-0.4578,3.90656,0.6867,-0.80431923,0.54919293,0.190612305
1764766981.2871602,-0.4578,3.90656,0.6867,-0.80431923,0.54919293,0.190612305
1764766981.2871602,0.09156,7.782599999999999,0.62566,-0.80517372,0.548887755,0.19079541
1764766981.2871602,0.09156,7.782599999999999,0.62566,-0.80517372,0.548887755,0.19079541
1764766981.2871602,0.09156,7.782599999999999,0.62566,-0.80517372,0.548887755,0.19079541
1764766981.2871602,0.09156,7.782599999999999,0.62566,-0.80517372,0.548887755,0.19079541
1764766981.2871602,0.09156,7.782599999999999,0.62566,-0.80517372,0.548887755,0.19079541
1764766981.2881598,0.09156,7.782599999999999,0.62566,-0.80517372,0.548887755,0.19079541
1764766981.2881598,0.09156,7.782599999999999,0.62566,-0.80517372,0.548887755,0.19079541
1764766981.2881598,0.09156,7.782599999999999,0.62566,-0.80517372,0.548887755,0.19079541
1764766981.2881598,0.09156,7.782599999999999,0.62566,-0.80517372,0.548887755,0.19079541
1764766981.2881598,0.09156,7.782599999999999,0.62566,-0.80517372,0.548887755,0.19079541
1764766981.2881598,-0.0762999999999999,3.40298,0.8392999999999999,-0.80456337,0.54907086,0.19103955
1764766981.2881598,-0.0762999999999999,3.40298,0.8392999999999999,-0.80456337,0.54907086,0.19103955
1764766981.3314714,-0.0762999999999999,3.40298,0.8392999999999999,-0.80456337,0.54907086,0.19103955
1764766981.3314714,-0.0762999999999999,3.40298,0.8392999999999999,-0.80456337,0.54907086,0.19103955
1764766981.3314714,-0.0762999999999999,3.40298,0.8392999999999999,-0.80456337,0.54907086,0.19103955
1764766981.3314714,-0.0762999999999999,3.40298,0.8392999999999999,-0.80456337,0.54907086,0.19103955
1764766981.3314714,-0.0762999999999999,3.40298,0.8392999999999999,-0.80456337,0.54907086,0.19103955
1764766981.3314714,-0.0762999999999999,3.40298,0.8392999999999999,-0.80456337,0.54907086,0.19103955
1764766981.3314714,-0.0762999999999999,3.40298,0.8392999999999999,-0.80456337,0.54907086,0.19103955
1764766981.3314714,-0.0762999999999999,3.40298,0.8392999999999999,-0.80456337,0.54907086,0.19103955
1764766981.3314714,-0.6867,3.26564,0.97664,-0.804380265,0.549986385,0.191466795
1764766981.3314714,-0.6867,3.26564,0.97664,-0.804380265,0.549986385,0.191466795
1764766981.3314714,-0.6867,3.26564,0.97664,-0.804380265,0.549986385,0.191466795
1764766981.3314714,-0.6867,3.26564,0.97664,-0.804380265,0.549986385,0.191466795
1764766981.3314714,-0.6867,3.26564,0.97664,-0.804380265,0.549986385,0.191466795
1764766981.3314714,-0.6867,3.26564,0.97664,-0.804380265,0.549986385,0.191466795
1764766981.3314714,-0.6867,3.26564,0.97664,-0.804380265,0.549986385,0.191466795
1764766981.3314714,-0.6867,3.26564,0.97664,-0.804380265,0.549986385,0.191466795
1764766981.3314714,-0.6867,3.26564,0.97664,-0.804380265,0.549986385,0.191466795
1764766981.3314714,-0.6867,3.26564,0.97664,-0.804380265,0.549986385,0.191466795
1764766981.3314714,-0.3051999999999999,3.06726,0.9919,-0.804014055,0.550108455,0.191344725
1764766981.3314714,-0.3051999999999999,3.06726,0.9919,-0.804014055,0.550108455,0.191344725
1764766981.3314714,-0.3051999999999999,3.06726,0.9919,-0.804014055,0.550108455,0.191344725
1764766981.3314714,-0.3051999999999999,3.06726,0.9919,-0.804014055,0.550108455,0.191344725
1764766981.3788748,-0.3051999999999999,3.06726,0.9919,-0.804014055,0.550108455,0.191344725
1764766981.3788748,-0.3051999999999999,3.06726,0.9919,-0.804014055,0.550108455,0.191344725
1764766981.3788748,-0.3051999999999999,3.06726,0.9919,-0.804014055,0.550108455,0.191344725
1764766981.3788748,-0.3051999999999999,3.06726,0.9919,-0.804014055,0.550108455,0.191344725
1764766981.3788748,-0.3051999999999999,3.06726,0.9919,-0.804014055,0.550108455,0.191344725
1764766981.3788748,-0.3051999999999999,3.06726,0.9919,-0.804014055,0.550108455,0.191344725
1764766981.3788748,-0.6714399999999999,3.3572,0.8698199999999999,-0.803891985,0.54858258,0.191710935
1764766981.3788748,-0.6714399999999999,3.3572,0.8698199999999999,-0.803891985,0.54858258,0.191710935
1764766981.3788748,-0.6714399999999999,3.3572,0.8698199999999999,-0.803891985,0.54858258,0.191710935
1764766981.3788748,-0.6714399999999999,3.3572,0.8698199999999999,-0.803891985,0.54858258,0.191710935
1764766981.3788748,-0.6714399999999999,3.3572,0.8698199999999999,-0.803891985,0.54858258,0.191710935
1764766981.3788748,-0.6714399999999999,3.3572,0.8698199999999999,-0.803891985,0.54858258,0.191710935
1764766981.3788748,-0.6714399999999999,3.3572,0.8698199999999999,-0.803891985,0.54858258,0.191710935
1764766981.3788748,-0.6714399999999999,3.3572,0.8698199999999999,-0.803891985,0.54858258,0.191710935
1764766981.3788748,-0.6714399999999999,3.3572,0.8698199999999999,-0.803891985,0.54858258,0.191710935
1764766981.3788748,-0.6714399999999999,3.3572,0.8698199999999999,-0.803891985,0.54858258,0.191710935
1764766981.3788748,-0.18312,3.40298,0.93086,-0.80334267,0.547911195,0.191955075
1764766981.3788748,-0.18312,3.40298,0.93086,-0.80334267,0.547911195,0.191955075
1764766981.379879,-0.18312,3.40298,0.93086,-0.80334267,0.547911195,0.191955075
1764766981.379879,-0.18312,3.40298,0.93086,-0.80334267,0.547911195,0.191955075
1764766981.379879,-0.18312,3.40298,0.93086,-0.80334267,0.547911195,0.191955075
1764766981.379879,-0.18312,3.40298,0.93086,-0.80334267,0.547911195,0.191955075
1764766981.4262352,-0.18312,3.40298,0.93086,-0.80334267,0.547911195,0.191955075
1764766981.4262352,-0.18312,3.40298,0.93086,-0.80334267,0.547911195,0.191955075
1764766981.4262352,-0.18312,3.40298,0.93086,-0.80334267,0.547911195,0.191955075
1764766981.4262352,-0.18312,3.40298,0.93086,-0.80334267,0.547911195,0.191955075
1764766981.4262352,-0.36624,3.46402,1.2208,-0.803403705,0.54833844,0.19177197
1764766981.4262352,-0.36624,3.46402,1.2208,-0.803403705,0.54833844,0.19177197
1764766981.4262352,-0.36624,3.46402,1.2208,-0.803403705,0.54833844,0.19177197
1764766981.4262352,-0.36624,3.46402,1.2208,-0.803403705,0.54833844,0.19177197
1764766981.4262352,-0.36624,3.46402,1.2208,-0.803403705,0.54833844,0.19177197
1764766981.4262352,-0.36624,3.46402,1.2208,-0.803403705,0.54833844,0.19177197
1764766981.4262352,-0.36624,3.46402,1.2208,-0.803403705,0.54833844,0.19177197
1764766981.4262352,-0.36624,3.46402,1.2208,-0.803403705,0.54833844,0.19177197
1764766981.4262352,-0.36624,3.46402,1.2208,-0.803403705,0.54833844,0.19177197
1764766981.4262352,-0.36624,3.46402,1.2208,-0.803403705,0.54833844,0.19177197
1764766981.4262352,-0.7019599999999999,3.03674,1.26658,-0.80261025,0.54882672,0.192199215
1764766981.4262352,-0.7019599999999999,3.03674,1.26658,-0.80261025,0.54882672,0.192199215
1764766981.4262352,-0.7019599999999999,3.03674,1.26658,-0.80261025,0.54882672,0.192199215
1764766981.4262352,-0.7019599999999999,3.03674,1.26658,-0.80261025,0.54882672,0.192199215
1764766981.4262352,-0.7019599999999999,3.03674,1.26658,-0.80261025,0.54882672,0.192199215
1764766981.4262352,-0.7019599999999999,3.03674,1.26658,-0.80261025,0.54882672,0.192199215
1764766981.4262352,-0.7019599999999999,3.03674,1.26658,-0.80261025,0.54882672,0.192199215
1764766981.4262352,-0.7019599999999999,3.03674,1.26658,-0.80261025,0.54882672,0.192199215
1764766981.4262352,-0.7019599999999999,3.03674,1.26658,-0.80261025,0.54882672,0.192199215
1764766981.4262352,-0.7019599999999999,3.03674,1.26658,-0.80261025,0.54882672,0.192199215
1764766981.4262352,-0.73248,3.46402,0.763,-0.803403705,0.550230525,0.190368165
1764766981.4262352,-0.73248,3.46402,0.763,-0.803403705,0.550230525,0.190368165
1764766981.4741366,-0.73248,3.46402,0.763,-0.803403705,0.550230525,0.190368165
1764766981.4741366,-0.73248,3.46402,0.763,-0.803403705,0.550230525,0.190368165
1764766981.4741366,-0.73248,3.46402,0.763,-0.803403705,0.550230525,0.190368165
1764766981.4741366,-0.73248,3.46402,0.763,-0.803403705,0.550230525,0.190368165
1764766981.4741366,-0.73248,3.46402,0.763,-0.803403705,0.550230525,0.190368165
1764766981.4751637,-0.73248,3.46402,0.763,-0.803403705,0.550230525,0.190368165
1764766981.4751637,-0.73248,3.46402,0.763,-0.803403705,0.550230525,0.190368165
1764766981.4751637,-0.73248,3.46402,0.763,-0.803403705,0.550230525,0.190368165
1764766981.4751637,-1.49548,2.92992,1.08346,-0.804136125,0.550230525,0.18957471
1764766981.4751637,-1.49548,2.92992,1.08346,-0.804136125,0.550230525,0.18957471
1764766981.4751637,-1.49548,2.92992,1.08346,-0.804136125,0.550230525,0.18957471
1764766981.4751637,-1.49548,2.92992,1.08346,-0.804136125,0.550230525,0.18957471
1764766981.4751637,-1.49548,2.92992,1.08346,-0.804136125,0.550230525,0.18957471
1764766981.4751637,-1.49548,2.92992,1.08346,-0.804136125,0.550230525,0.18957471
1764766981.4751637,-1.49548,2.92992,1.08346,-0.804136125,0.550230525,0.18957471
1764766981.4751637,-1.49548,2.92992,1.08346,-0.804136125,0.550230525,0.18957471
1764766981.4751637,-1.49548,2.92992,1.08346,-0.804136125,0.550230525,0.18957471
1764766981.4751637,-1.49548,2.92992,1.08346,-0.804136125,0.550230525,0.18957471
1764766981.4751637,-1.00716,2.9757,1.00716,-0.802915425,0.549498105,0.189757815
1764766981.4751637,-1.00716,2.9757,1.00716,-0.802915425,0.549498105,0.189757815
1764766981.5185828,-1.00716,2.9757,1.00716,-0.802915425,0.549498105,0.189757815
1764766981.5185828,-1.00716,2.9757,1.00716,-0.802915425,0.549498105,0.189757815
1764766981.5185828,-1.00716,2.9757,1.00716,-0.802915425,0.549498105,0.189757815
1764766981.5185828,-1.00716,2.9757,1.00716,-0.802915425,0.549498105,0.189757815
1764766981.5185828,-1.00716,2.9757,1.00716,-0.802915425,0.549498105,0.189757815
1764766981.5201426,-1.00716,2.9757,1.00716,-0.802915425,0.549498105,0.189757815
1764766981.5201426,-1.00716,2.9757,1.00716,-0.802915425,0.549498105,0.189757815
1764766981.5201426,-1.00716,2.9757,1.00716,-0.802915425,0.549498105,0.189757815
1764766981.5201426,-0.3357199999999999,2.88414,1.00716,-0.802427145,0.54858258,0.190001955
1764766981.5201426,-0.3357199999999999,2.88414,1.00716,-0.802427145,0.54858258,0.190001955
1764766981.5201426,-0.3357199999999999,2.88414,1.00716,-0.802427145,0.54858258,0.190001955
1764766981.5201426,-0.3357199999999999,2.88414,1.00716,-0.802427145,0.54858258,0.190001955
1764766981.5201426,-0.3357199999999999,2.88414,1.00716,-0.802427145,0.54858258,0.190001955
1764766981.5201426,-0.3357199999999999,2.88414,1.00716,-0.802427145,0.54858258,0.190001955
1764766981.5201426,-0.3357199999999999,2.88414,1.00716,-0.802427145,0.54858258,0.190001955
1764766981.5201426,-0.3357199999999999,2.88414,1.00716,-0.802427145,0.54858258,0.190001955
1764766981.5201426,-0.3357199999999999,2.88414,1.00716,-0.802427145,0.54858258,0.190001955
1764766981.5201426,-0.3357199999999999,2.88414,1.00716,-0.802427145,0.54858258,0.190001955
1764766981.5201426,-0.06104,3.49454,1.38866,-0.80248818,0.549315,0.190368165
1764766981.5201426,-0.06104,3.49454,1.38866,-0.80248818,0.549315,0.190368165
1764766981.5201426,-0.06104,3.49454,1.38866,-0.80248818,0.549315,0.190368165
1764766981.5201426,-0.06104,3.49454,1.38866,-0.80248818,0.549315,0.190368165
1764766981.5201426,-0.06104,3.49454,1.38866,-0.80248818,0.549315,0.190368165
1764766981.5201426,-0.06104,3.49454,1.38866,-0.80248818,0.549315,0.190368165
1764766981.5201426,-0.06104,3.49454,1.38866,-0.80248818,0.549315,0.190368165
1764766981.5201426,-0.06104,3.49454,1.38866,-0.80248818,0.549315,0.190368165
1764766981.5668828,-0.06104,3.49454,1.38866,-0.80248818,0.549315,0.190368165
1764766981.5668828,-0.06104,3.49454,1.38866,-0.80248818,0.549315,0.190368165
1764766981.5668828,-0.50358,3.15882,1.15976,-0.80285439,0.550474665,0.1892085
1764766981.5668828,-0.50358,3.15882,1.15976,-0.80285439,0.550474665,0.1892085
1764766981.5679808,-0.50358,3.15882,1.15976,-0.80285439,0.550474665,0.1892085
1764766981.5679808,-0.50358,3.15882,1.15976,-0.80285439,0.550474665,0.1892085
1764766981.5679808,-0.50358,3.15882,1.15976,-0.80285439,0.550474665,0.1892085
1764766981.5679808,-0.50358,3.15882,1.15976,-0.80285439,0.550474665,0.1892085
1764766981.5679808,-0.50358,3.15882,1.15976,-0.80285439,0.550474665,0.1892085
1764766981.5679808,-0.50358,3.15882,1.15976,-0.80285439,0.550474665,0.1892085
1764766981.5679808,-0.50358,3.15882,1.15976,-0.80285439,0.550474665,0.1892085
1764766981.5679808,-0.50358,3.15882,1.15976,-0.80285439,0.550474665,0.1892085
1764766981.5679808,-1.2055399999999998,3.9676,1.0682,-0.8032206000000001,0.55090191,0.18859815
1764766981.5679808,-1.2055399999999998,3.9676,1.0682,-0.8032206000000001,0.55090191,0.18859815
1764766981.5679808,-1.2055399999999998,3.9676,1.0682,-0.8032206000000001,0.55090191,0.18859815
1764766981.5679808,-1.2055399999999998,3.9676,1.0682,-0.8032206000000001,0.55090191,0.18859815
1764766981.5679808,-1.2055399999999998,3.9676,1.0682,-0.8032206000000001,0.55090191,0.18859815
1764766981.5679808,-1.2055399999999998,3.9676,1.0682,-0.8032206000000001,0.55090191,0.18859815
1764766981.5679808,-1.2055399999999998,3.9676,1.0682,-0.8032206000000001,0.55090191,0.18859815
1764766981.5679808,-1.2055399999999998,3.9676,1.0682,-0.8032206000000001,0.55090191,0.18859815
1764766981.5679808,-1.2055399999999998,3.9676,1.0682,-0.8032206000000001,0.55090191,0.18859815
1764766981.5689936,-1.2055399999999998,3.9676,1.0682,-0.8032206000000001,0.55090191,0.18859815
1764766981.5689936,-1.2208,4.33384,1.26658,-0.803525775,0.549620175,0.189269535
1764766981.5689936,-1.2208,4.33384,1.26658,-0.803525775,0.549620175,0.189269535
1764766981.6116445,-1.2208,4.33384,1.26658,-0.803525775,0.549620175,0.189269535
1764766981.6116445,-1.2208,4.33384,1.26658,-0.803525775,0.549620175,0.189269535
1764766981.6116445,-1.2208,4.33384,1.26658,-0.803525775,0.549620175,0.189269535
1764766981.6116445,-1.2208,4.33384,1.26658,-0.803525775,0.549620175,0.189269535
1764766981.6116445,-1.2208,4.33384,1.26658,-0.803525775,0.549620175,0.189269535
1764766981.6116445,-1.2208,4.33384,1.26658,-0.803525775,0.549620175,0.189269535
1764766981.6116445,-1.2208,4.33384,1.26658,-0.803525775,0.549620175,0.189269535
1764766981.6116445,-1.2208,4.33384,1.26658,-0.803525775,0.549620175,0.189269535
1764766981.6116445,-0.8087799999999999,3.99812,0.96138,-0.803525775,0.54919293,0.189391605
1764766981.6116445,-0.8087799999999999,3.99812,0.96138,-0.803525775,0.54919293,0.189391605
1764766981.6116445,-0.8087799999999999,3.99812,0.96138,-0.803525775,0.54919293,0.189391605
1764766981.6116445,-0.8087799999999999,3.99812,0.96138,-0.803525775,0.54919293,0.189391605
1764766981.6116445,-0.8087799999999999,3.99812,0.96138,-0.803525775,0.54919293,0.189391605
1764766981.6116445,-0.8087799999999999,3.99812,0.96138,-0.803525775,0.54919293,0.189391605
1764766981.6116445,-0.8087799999999999,3.99812,0.96138,-0.803525775,0.54919293,0.189391605
1764766981.6116445,-0.8087799999999999,3.99812,0.96138,-0.803525775,0.54919293,0.189391605
1764766981.6116445,-0.8087799999999999,3.99812,0.96138,-0.803525775,0.54919293,0.189391605
1764766981.6116445,-0.8087799999999999,3.99812,0.96138,-0.803525775,0.54919293,0.189391605
1764766981.6116445,-0.59514,3.99812,0.88508,-0.80309853,0.54992535,0.18957471
1764766981.6116445,-0.59514,3.99812,0.88508,-0.80309853,0.54992535,0.18957471
1764766981.6116445,-0.59514,3.99812,0.88508,-0.80309853,0.54992535,0.18957471
1764766981.6116445,-0.59514,3.99812,0.88508,-0.80309853,0.54992535,0.18957471
1764766981.6116445,-0.59514,3.99812,0.88508,-0.80309853,0.54992535,0.18957471
1764766981.6116445,-0.59514,3.99812,0.88508,-0.80309853,0.54992535,0.18957471
1764766981.6636162,-0.59514,3.99812,0.88508,-0.80309853,0.54992535,0.18957471
1764766981.6636162,-0.59514,3.99812,0.88508,-0.80309853,0.54992535,0.18957471
1764766981.6636162,-0.59514,3.99812,0.88508,-0.80309853,0.54992535,0.18957471
1764766981.6636162,-0.59514,3.99812,0.88508,-0.80309853,0.54992535,0.18957471
1764766981.6636162,-0.9919,3.64714,0.763,-0.80224404,0.550840875,0.18884229
1764766981.6636162,-0.9919,3.64714,0.763,-0.80224404,0.550840875,0.18884229
1764766981.6636162,-0.9919,3.64714,0.763,-0.80224404,0.550840875,0.18884229
1764766981.6636162,-0.9919,3.64714,0.763,-0.80224404,0.550840875,0.18884229
1764766981.6636162,-0.9919,3.64714,0.763,-0.80224404,0.550840875,0.18884229
1764766981.6636162,-0.9919,3.64714,0.763,-0.80224404,0.550840875,0.18884229
1764766981.6636162,-0.9919,3.64714,0.763,-0.80224404,0.550840875,0.18884229
1764766981.6636162,-0.9919,3.64714,0.763,-0.80224404,0.550840875,0.18884229
1764766981.6636162,-0.9919,3.64714,0.763,-0.80224404,0.550840875,0.18884229
1764766981.6636162,-0.9919,3.64714,0.763,-0.80224404,0.550840875,0.18884229
1764766981.6636162,-1.41918,4.059159999999999,0.3357199999999999,-0.80187783,0.551207085,0.189025395
1764766981.6636162,-1.41918,4.059159999999999,0.3357199999999999,-0.80187783,0.551207085,0.189025395
1764766981.6636162,-1.41918,4.059159999999999,0.3357199999999999,-0.80187783,0.551207085,0.189025395
1764766981.6636162,-1.41918,4.059159999999999,0.3357199999999999,-0.80187783,0.551207085,0.189025395
1764766981.6636162,-1.41918,4.059159999999999,0.3357199999999999,-0.80187783,0.551207085,0.189025395
1764766981.6636162,-1.41918,4.059159999999999,0.3357199999999999,-0.80187783,0.551207085,0.189025395
1764766981.6636162,-1.41918,4.059159999999999,0.3357199999999999,-0.80187783,0.551207085,0.189025395
1764766981.6636162,-1.41918,4.059159999999999,0.3357199999999999,-0.80187783,0.551207085,0.189025395
1764766981.6636162,-1.41918,4.059159999999999,0.3357199999999999,-0.80187783,0.551207085,0.189025395
1764766981.6636162,-1.41918,4.059159999999999,0.3357199999999999,-0.80187783,0.551207085,0.189025395
1764766981.7071178,-1.84646,3.64714,0.6867,-0.80126748,0.55090191,0.19018506
1764766981.7071178,-1.84646,3.64714,0.6867,-0.80126748,0.55090191,0.19018506
1764766981.7071178,-1.84646,3.64714,0.6867,-0.80126748,0.55090191,0.19018506
1764766981.7071178,-1.84646,3.64714,0.6867,-0.80126748,0.55090191,0.19018506
1764766981.7071178,-1.84646,3.64714,0.6867,-0.80126748,0.55090191,0.19018506
1764766981.7081385,-1.84646,3.64714,0.6867,-0.80126748,0.55090191,0.19018506
1764766981.7081385,-1.84646,3.64714,0.6867,-0.80126748,0.55090191,0.19018506
1764766981.7081385,-1.84646,3.64714,0.6867,-0.80126748,0.55090191,0.19018506
1764766981.7081385,-1.84646,3.64714,0.6867,-0.80126748,0.55090191,0.19018506
1764766981.7081385,-1.84646,3.64714,0.6867,-0.80126748,0.55090191,0.19018506
1764766981.7081385,-1.54126,3.78448,0.7019599999999999,-0.801206445,0.550230525,0.19018506
1764766981.7081385,-1.54126,3.78448,0.7019599999999999,-0.801206445,0.550230525,0.19018506
1764766981.7081385,-1.54126,3.78448,0.7019599999999999,-0.801206445,0.550230525,0.19018506
1764766981.7081385,-1.54126,3.78448,0.7019599999999999,-0.801206445,0.550230525,0.19018506
1764766981.7081385,-1.54126,3.78448,0.7019599999999999,-0.801206445,0.550230525,0.19018506
1764766981.7081385,-1.54126,3.78448,0.7019599999999999,-0.801206445,0.550230525,0.19018506
1764766981.7081385,-1.54126,3.78448,0.7019599999999999,-0.801206445,0.550230525,0.19018506
1764766981.7081385,-1.54126,3.78448,0.7019599999999999,-0.801206445,0.550230525,0.19018506
1764766981.7081385,-1.54126,3.78448,0.7019599999999999,-0.801206445,0.550230525,0.19018506
1764766981.7081385,-1.54126,3.78448,0.7019599999999999,-0.801206445,0.550230525,0.19018506
1764766981.7081385,-1.9075,4.15072,0.79352,-0.800962305,0.54907086,0.190001955
1764766981.7081385,-1.9075,4.15072,0.79352,-0.800962305,0.54907086,0.190001955
1764766981.7530088,-1.9075,4.15072,0.79352,-0.800962305,0.54907086,0.190001955
1764766981.7530088,-1.9075,4.15072,0.79352,-0.800962305,0.54907086,0.190001955
1764766981.7530088,-1.9075,4.15072,0.79352,-0.800962305,0.54907086,0.190001955
1764766981.7530088,-1.9075,4.15072,0.79352,-0.800962305,0.54907086,0.190001955
1764766981.7530088,-1.9075,4.15072,0.79352,-0.800962305,0.54907086,0.190001955
1764766981.7530088,-1.9075,4.15072,0.79352,-0.800962305,0.54907086,0.190001955
1764766981.7530088,-1.9075,4.15072,0.79352,-0.800962305,0.54907086,0.190001955
1764766981.7530088,-1.9075,4.15072,0.79352,-0.800962305,0.54907086,0.190001955
1764766981.7530088,-1.25132,4.15072,0.9003399999999999,-0.80090127,0.54785016,0.18908643
1764766981.7530088,-1.25132,4.15072,0.9003399999999999,-0.80090127,0.54785016,0.18908643
1764766981.7530088,-1.25132,4.15072,0.9003399999999999,-0.80090127,0.54785016,0.18908643
1764766981.7530088,-1.25132,4.15072,0.9003399999999999,-0.80090127,0.54785016,0.18908643
1764766981.7530088,-1.25132,4.15072,0.9003399999999999,-0.80090127,0.54785016,0.18908643
1764766981.7530088,-1.25132,4.15072,0.9003399999999999,-0.80090127,0.54785016,0.18908643
1764766981.7530088,-1.25132,4.15072,0.9003399999999999,-0.80090127,0.54785016,0.18908643
1764766981.7530088,-1.25132,4.15072,0.9003399999999999,-0.80090127,0.54785016,0.18908643
1764766981.7530088,-1.25132,4.15072,0.9003399999999999,-0.80090127,0.54785016,0.18908643
1764766981.7541876,-1.25132,4.15072,0.9003399999999999,-0.80090127,0.54785016,0.18908643
1764766981.7541876,-1.08346,3.63188,0.74774,-0.80126748,0.54785016,0.188781255
1764766981.7541876,-1.08346,3.63188,0.74774,-0.80126748,0.54785016,0.188781255
1764766981.7541876,-1.08346,3.63188,0.74774,-0.80126748,0.54785016,0.188781255
1764766981.7541876,-1.08346,3.63188,0.74774,-0.80126748,0.54785016,0.188781255
1764766981.7541876,-1.08346,3.63188,0.74774,-0.80126748,0.54785016,0.188781255
1764766981.7541876,-1.08346,3.63188,0.74774,-0.80126748,0.54785016,0.188781255
1764766981.8021154,-1.08346,3.63188,0.74774,-0.80126748,0.54785016,0.188781255
1764766981.8021154,-1.08346,3.63188,0.74774,-0.80126748,0.54785016,0.188781255
1764766981.8021154,-1.08346,3.63188,0.74774,-0.80126748,0.54785016,0.188781255
1764766981.8021154,-1.08346,3.63188,0.74774,-0.80126748,0.54785016,0.188781255
1764766981.8021154,-0.79352,4.22702,0.44254,-0.802060935,0.547789125,0.189879885
1764766981.8021154,-0.79352,4.22702,0.44254,-0.802060935,0.547789125,0.189879885
1764766981.8021154,-0.79352,4.22702,0.44254,-0.802060935,0.547789125,0.189879885
1764766981.8021154,-0.79352,4.22702,0.44254,-0.802060935,0.547789125,0.189879885
1764766981.8021154,-0.79352,4.22702,0.44254,-0.802060935,0.547789125,0.189879885
1764766981.8021154,-0.79352,4.22702,0.44254,-0.802060935,0.547789125,0.189879885
1764766981.8021154,-0.79352,4.22702,0.44254,-0.802060935,0.547789125,0.189879885
1764766981.8021154,-0.79352,4.22702,0.44254,-0.802060935,0.547789125,0.189879885
1764766981.8021154,-0.79352,4.22702,0.44254,-0.802060935,0.547789125,0.189879885
1764766981.8021154,-0.79352,4.22702,0.44254,-0.802060935,0.547789125,0.189879885
1764766981.8021154,-0.44254,4.48644,0.6409199999999999,-0.80224404,0.5480943,0.190856445
1764766981.8021154,-0.44254,4.48644,0.6409199999999999,-0.80224404,0.5480943,0.190856445
1764766981.8021154,-0.44254,4.48644,0.6409199999999999,-0.80224404,0.5480943,0.190856445
1764766981.8021154,-0.44254,4.48644,0.6409199999999999,-0.80224404,0.5480943,0.190856445
1764766981.8021154,-0.44254,4.48644,0.6409199999999999,-0.80224404,0.5480943,0.190856445
1764766981.8021154,-0.44254,4.48644,0.6409199999999999,-0.80224404,0.5480943,0.190856445
1764766981.8021154,-0.44254,4.48644,0.6409199999999999,-0.80224404,0.5480943,0.190856445
1764766981.8021154,-0.44254,4.48644,0.6409199999999999,-0.80224404,0.5480943,0.190856445
1764766981.8457625,-0.44254,4.48644,0.6409199999999999,-0.80224404,0.5480943,0.190856445
1764766981.8457625,-0.44254,4.48644,0.6409199999999999,-0.80224404,0.5480943,0.190856445
1764766981.8457625,-0.18312,4.91372,0.3509799999999999,-0.802305075,0.548399475,0.19116162
1764766981.8457625,-0.18312,4.91372,0.3509799999999999,-0.802305075,0.548399475,0.19116162
1764766981.8457625,-0.18312,4.91372,0.3509799999999999,-0.802305075,0.548399475,0.19116162
1764766981.8457625,-0.18312,4.91372,0.3509799999999999,-0.802305075,0.548399475,0.19116162
1764766981.847853,-0.18312,4.91372,0.3509799999999999,-0.802305075,0.548399475,0.19116162
1764766981.847853,-0.18312,4.91372,0.3509799999999999,-0.802305075,0.548399475,0.19116162
1764766981.847853,-0.18312,4.91372,0.3509799999999999,-0.802305075,0.548399475,0.19116162
1764766981.847853,-0.18312,4.91372,0.3509799999999999,-0.802305075,0.548399475,0.19116162
1764766981.847853,-0.18312,4.91372,0.3509799999999999,-0.802305075,0.548399475,0.19116162
1764766981.847853,-0.18312,4.91372,0.3509799999999999,-0.802305075,0.548399475,0.19116162
1764766981.847853,-1.4039199999999998,4.45592,0.18312,-0.80248818,0.54919293,0.19079541
1764766981.847853,-1.4039199999999998,4.45592,0.18312,-0.80248818,0.54919293,0.19079541
1764766981.847853,-1.4039199999999998,4.45592,0.18312,-0.80248818,0.54919293,0.19079541
1764766981.847853,-1.4039199999999998,4.45592,0.18312,-0.80248818,0.54919293,0.19079541
1764766981.847853,-1.4039199999999998,4.45592,0.18312,-0.80248818,0.54919293,0.19079541
1764766981.847853,-1.4039199999999998,4.45592,0.18312,-0.80248818,0.54919293,0.19079541
1764766981.847853,-1.4039199999999998,4.45592,0.18312,-0.80248818,0.54919293,0.19079541
1764766981.847853,-1.4039199999999998,4.45592,0.18312,-0.80248818,0.54919293,0.19079541
1764766981.847853,-1.4039199999999998,4.45592,0.18312,-0.80248818,0.54919293,0.19079541
1764766981.847853,-1.4039199999999998,4.45592,0.18312,-0.80248818,0.54919293,0.19079541
1764766981.847853,-1.41918,4.74586,0.1525999999999999,-0.800718165,0.549864315,0.190368165
1764766981.847853,-1.41918,4.74586,0.1525999999999999,-0.800718165,0.549864315,0.190368165
1764766981.8939345,-1.41918,4.74586,0.1525999999999999,-0.800718165,0.549864315,0.190368165
1764766981.8939345,-1.41918,4.74586,0.1525999999999999,-0.800718165,0.549864315,0.190368165
1764766981.8939345,-1.41918,4.74586,0.1525999999999999,-0.800718165,0.549864315,0.190368165
1764766981.8939345,-1.41918,4.74586,0.1525999999999999,-0.800718165,0.549864315,0.190368165
1764766981.8939345,-1.41918,4.74586,0.1525999999999999,-0.800718165,0.549864315,0.190368165
1764766981.8939345,-1.41918,4.74586,0.1525999999999999,-0.800718165,0.549864315,0.190368165
1764766981.8944404,-1.41918,4.74586,0.1525999999999999,-0.800718165,0.549864315,0.190368165
1764766981.8944404,-1.41918,4.74586,0.1525999999999999,-0.800718165,0.549864315,0.190368165
1764766981.8944404,-1.31236,4.31858,-0.6409199999999999,-0.80261025,0.5516343300000001,0.190001955
1764766981.8944404,-1.31236,4.31858,-0.6409199999999999,-0.80261025,0.5516343300000001,0.190001955
1764766981.8944404,-1.31236,4.31858,-0.6409199999999999,-0.80261025,0.5516343300000001,0.190001955
1764766981.8944404,-1.31236,4.31858,-0.6409199999999999,-0.80261025,0.5516343300000001,0.190001955
1764766981.8944404,-1.31236,4.31858,-0.6409199999999999,-0.80261025,0.5516343300000001,0.190001955
1764766981.8944404,-1.31236,4.31858,-0.6409199999999999,-0.80261025,0.5516343300000001,0.190001955
1764766981.8944404,-1.31236,4.31858,-0.6409199999999999,-0.80261025,0.5516343300000001,0.190001955
1764766981.8944404,-1.31236,4.31858,-0.6409199999999999,-0.80261025,0.5516343300000001,0.190001955
1764766981.8944404,-1.31236,4.31858,-0.6409199999999999,-0.80261025,0.5516343300000001,0.190001955
1764766981.8944404,-1.31236,4.31858,-0.6409199999999999,-0.80261025,0.5516343300000001,0.190001955
1764766981.8944404,-2.47212,3.67766,-0.9919,-0.80431923,0.55187847,0.18981885
1764766981.8944404,-2.47212,3.67766,-0.9919,-0.80431923,0.55187847,0.18981885
1764766981.8944404,-2.47212,3.67766,-0.9919,-0.80431923,0.55187847,0.18981885
1764766981.8944404,-2.47212,3.67766,-0.9919,-0.80431923,0.55187847,0.18981885
1764766981.8944404,-2.47212,3.67766,-0.9919,-0.80431923,0.55187847,0.18981885
1764766981.8944404,-2.47212,3.67766,-0.9919,-0.80431923,0.55187847,0.18981885
1764766981.9408588,-2.47212,3.67766,-0.9919,-0.80431923,0.55187847,0.18981885
1764766981.9408588,-2.47212,3.67766,-0.9919,-0.80431923,0.55187847,0.18981885
1764766981.9408588,-2.47212,3.67766,-0.9919,-0.80431923,0.55187847,0.18981885
1764766981.9408588,-2.47212,3.67766,-0.9919,-0.80431923,0.55187847,0.18981885
1764766981.9408588,-2.0601,4.08968,-0.03052,-0.803891985,0.549742245,0.190978515
1764766981.9408588,-2.0601,4.08968,-0.03052,-0.803891985,0.549742245,0.190978515
1764766981.9408588,-2.0601,4.08968,-0.03052,-0.803891985,0.549742245,0.190978515
1764766981.9413917,-2.0601,4.08968,-0.03052,-0.803891985,0.549742245,0.190978515
1764766981.9413917,-2.0601,4.08968,-0.03052,-0.803891985,0.549742245,0.190978515
1764766981.9413917,-2.0601,4.08968,-0.03052,-0.803891985,0.549742245,0.190978515
1764766981.9413917,-2.0601,4.08968,-0.03052,-0.803891985,0.549742245,0.190978515
1764766981.9413917,-2.0601,4.08968,-0.03052,-0.803891985,0.549742245,0.190978515
1764766981.9413917,-2.0601,4.08968,-0.03052,-0.803891985,0.549742245,0.190978515
1764766981.9413917,-2.0601,4.08968,-0.03052,-0.803891985,0.549742245,0.190978515
1764766981.9413917,-1.48022,4.54748,0.8698199999999999,-0.80297646,0.547300845,0.191588865
1764766981.9413917,-1.48022,4.54748,0.8698199999999999,-0.80297646,0.547300845,0.191588865
1764766981.9413917,-1.48022,4.54748,0.8698199999999999,-0.80297646,0.547300845,0.191588865
1764766981.9413917,-1.48022,4.54748,0.8698199999999999,-0.80297646,0.547300845,0.191588865
1764766981.9413917,-1.48022,4.54748,0.8698199999999999,-0.80297646,0.547300845,0.191588865
1764766981.9413917,-1.48022,4.54748,0.8698199999999999,-0.80297646,0.547300845,0.191588865
1764766981.9413917,-1.48022,4.54748,0.8698199999999999,-0.80297646,0.547300845,0.191588865
1764766981.9413917,-1.48022,4.54748,0.8698199999999999,-0.80297646,0.547300845,0.191588865
1764766981.9413917,-1.48022,4.54748,0.8698199999999999,-0.80297646,0.547300845,0.191588865
1764766981.9413917,-1.48022,4.54748,0.8698199999999999,-0.80297646,0.547300845,0.191588865
1764766981.987408,0.25942,4.18124,0.57988,-0.8044413,0.54699567,0.191710935
1764766981.987408,0.25942,4.18124,0.57988,-0.8044413,0.54699567,0.191710935
1764766981.987408,0.25942,4.18124,0.57988,-0.8044413,0.54699567,0.191710935
1764766981.987408,0.25942,4.18124,0.57988,-0.8044413,0.54699567,0.191710935
1764766981.987408,0.25942,4.18124,0.57988,-0.8044413,0.54699567,0.191710935
1764766981.987408,0.25942,4.18124,0.57988,-0.8044413,0.54699567,0.191710935
1764766981.987408,0.25942,4.18124,0.57988,-0.8044413,0.54699567,0.191710935
1764766981.987408,0.25942,4.18124,0.57988,-0.8044413,0.54699567,0.191710935
1764766981.987408,0.25942,4.18124,0.57988,-0.8044413,0.54699567,0.191710935
1764766981.987408,0.25942,4.18124,0.57988,-0.8044413,0.54699567,0.191710935
1764766981.987408,-0.41202,3.5861,1.08346,-0.80602821,0.54907086,0.191588865
1764766981.987408,-0.41202,3.5861,1.08346,-0.80602821,0.54907086,0.191588865
1764766981.987408,-0.41202,3.5861,1.08346,-0.80602821,0.54907086,0.191588865
1764766981.987408,-0.41202,3.5861,1.08346,-0.80602821,0.54907086,0.191588865
1764766981.987408,-0.41202,3.5861,1.08346,-0.80602821,0.54907086,0.191588865
1764766981.987408,-0.41202,3.5861,1.08346,-0.80602821,0.54907086,0.191588865
1764766981.987408,-0.41202,3.5861,1.08346,-0.80602821,0.54907086,0.191588865
1764766981.987408,-0.41202,3.5861,1.08346,-0.80602821,0.54907086,0.191588865
1764766981.987408,-0.41202,3.5861,1.08346,-0.80602821,0.54907086,0.191588865
1764766981.987408,-0.41202,3.5861,1.08346,-0.80602821,0.54907086,0.191588865
1764766981.987408,-1.58704,3.46402,0.8392999999999999,-0.805662,0.549620175,0.190734375
1764766981.987408,-1.58704,3.46402,0.8392999999999999,-0.805662,0.549620175,0.190734375
1764766982.0311334,-1.58704,3.46402,0.8392999999999999,-0.805662,0.549620175,0.190734375
1764766982.0311334,-1.58704,3.46402,0.8392999999999999,-0.805662,0.549620175,0.190734375
1764766982.0311334,-1.58704,3.46402,0.8392999999999999,-0.805662,0.549620175,0.190734375
1764766982.0311334,-1.58704,3.46402,0.8392999999999999,-0.805662,0.549620175,0.190734375
1764766982.0311334,-1.58704,3.46402,0.8392999999999999,-0.805662,0.549620175,0.190734375
1764766982.0311334,-1.58704,3.46402,0.8392999999999999,-0.805662,0.549620175,0.190734375
1764766982.0311334,-1.58704,3.46402,0.8392999999999999,-0.805662,0.549620175,0.190734375
1764766982.0311334,-1.58704,3.46402,0.8392999999999999,-0.805662,0.549620175,0.190734375
1764766982.0311334,-1.15976,3.92182,0.71722,-0.8044413,0.54723981,0.190978515
1764766982.0311334,-1.15976,3.92182,0.71722,-0.8044413,0.54723981,0.190978515
1764766982.0311334,-1.15976,3.92182,0.71722,-0.8044413,0.54723981,0.190978515
1764766982.0316415,-1.15976,3.92182,0.71722,-0.8044413,0.54723981,0.190978515
1764766982.0316415,-1.15976,3.92182,0.71722,-0.8044413,0.54723981,0.190978515
1764766982.0316415,-1.15976,3.92182,0.71722,-0.8044413,0.54723981,0.190978515
1764766982.0316415,-1.15976,3.92182,0.71722,-0.8044413,0.54723981,0.190978515
1764766982.0316415,-1.15976,3.92182,0.71722,-0.8044413,0.54723981,0.190978515
1764766982.0316415,-1.15976,3.92182,0.71722,-0.8044413,0.54723981,0.190978515
1764766982.0316415,-1.15976,3.92182,0.71722,-0.8044413,0.54723981,0.190978515
1764766982.0316415,0.3204599999999999,3.69292,-0.1525999999999999,-0.805112685,0.54626325,0.191344725
1764766982.0316415,0.3204599999999999,3.69292,-0.1525999999999999,-0.805112685,0.54626325,0.191344725
1764766982.0316415,0.3204599999999999,3.69292,-0.1525999999999999,-0.805112685,0.54626325,0.191344725
1764766982.0316415,0.3204599999999999,3.69292,-0.1525999999999999,-0.805112685,0.54626325,0.191344725
1764766982.0814629,0.3204599999999999,3.69292,-0.1525999999999999,-0.805112685,0.54626325,0.191344725
1764766982.0814629,0.3204599999999999,3.69292,-0.1525999999999999,-0.805112685,0.54626325,0.191344725
1764766982.0814629,0.3204599999999999,3.69292,-0.1525999999999999,-0.805112685,0.54626325,0.191344725
1764766982.0814629,0.3204599999999999,3.69292,-0.1525999999999999,-0.805112685,0.54626325,0.191344725
1764766982.0814629,0.3204599999999999,3.69292,-0.1525999999999999,-0.805112685,0.54626325,0.191344725
1764766982.0814629,0.3204599999999999,3.69292,-0.1525999999999999,-0.805112685,0.54626325,0.191344725
1764766982.0814629,0.0762999999999999,2.99096,-0.62566,-0.80492958,0.548521545,0.19055127
1764766982.0814629,0.0762999999999999,2.99096,-0.62566,-0.80492958,0.548521545,0.19055127
1764766982.0814629,0.0762999999999999,2.99096,-0.62566,-0.80492958,0.548521545,0.19055127
1764766982.0814629,0.0762999999999999,2.99096,-0.62566,-0.80492958,0.548521545,0.19055127
1764766982.0814629,0.0762999999999999,2.99096,-0.62566,-0.80492958,0.548521545,0.19055127
1764766982.0814629,0.0762999999999999,2.99096,-0.62566,-0.80492958,0.548521545,0.19055127
1764766982.0814629,0.0762999999999999,2.99096,-0.62566,-0.80492958,0.548521545,0.19055127
1764766982.0828922,0.0762999999999999,2.99096,-0.62566,-0.80492958,0.548521545,0.19055127
1764766982.0828922,0.0762999999999999,2.99096,-0.62566,-0.80492958,0.548521545,0.19055127
1764766982.0828922,0.0762999999999999,2.99096,-0.62566,-0.80492958,0.548521545,0.19055127
1764766982.0828922,-0.3815,2.80784,-1.15976,-0.80309853,0.55065777,0.190001955
1764766982.0828922,-0.3815,2.80784,-1.15976,-0.80309853,0.55065777,0.190001955
1764766982.0828922,-0.3815,2.80784,-1.15976,-0.80309853,0.55065777,0.190001955
1764766982.0828922,-0.3815,2.80784,-1.15976,-0.80309853,0.55065777,0.190001955
1764766982.0828922,-0.3815,2.80784,-1.15976,-0.80309853,0.55065777,0.190001955
1764766982.0828922,-0.3815,2.80784,-1.15976,-0.80309853,0.55065777,0.190001955
1764766982.0828922,-0.3815,2.80784,-1.15976,-0.80309853,0.55065777,0.190001955
1764766982.0828922,-0.3815,2.80784,-1.15976,-0.80309853,0.55065777,0.190001955
1764766982.1267853,-0.3815,2.80784,-1.15976,-0.80309853,0.55065777,0.190001955
1764766982.1267853,-0.3815,2.80784,-1.15976,-0.80309853,0.55065777,0.190001955
1764766982.1267853,-1.55652,2.73154,-1.34288,-0.802305075,0.55065777,0.18884229
1764766982.1267853,-1.55652,2.73154,-1.34288,-0.802305075,0.55065777,0.18884229
1764766982.1267853,-1.55652,2.73154,-1.34288,-0.802305075,0.55065777,0.18884229
1764766982.1267853,-1.55652,2.73154,-1.34288,-0.802305075,0.55065777,0.18884229
1764766982.1267853,-1.55652,2.73154,-1.34288,-0.802305075,0.55065777,0.18884229
1764766982.1267853,-1.55652,2.73154,-1.34288,-0.802305075,0.55065777,0.18884229
1764766982.1267853,-1.55652,2.73154,-1.34288,-0.802305075,0.55065777,0.18884229
1764766982.1267853,-1.55652,2.73154,-1.34288,-0.802305075,0.55065777,0.18884229
1764766982.1267853,-1.55652,2.73154,-1.34288,-0.802305075,0.55065777,0.18884229
1764766982.1267853,-1.55652,2.73154,-1.34288,-0.802305075,0.55065777,0.18884229
1764766982.1267853,-1.15976,3.15882,-1.26658,-0.8016336900000001,0.548887755,0.18981885
1764766982.1267853,-1.15976,3.15882,-1.26658,-0.8016336900000001,0.548887755,0.18981885
1764766982.1267853,-1.15976,3.15882,-1.26658,-0.8016336900000001,0.548887755,0.18981885
1764766982.1267853,-1.15976,3.15882,-1.26658,-0.8016336900000001,0.548887755,0.18981885
1764766982.1267853,-1.15976,3.15882,-1.26658,-0.8016336900000001,0.548887755,0.18981885
1764766982.1267853,-1.15976,3.15882,-1.26658,-0.8016336900000001,0.548887755,0.18981885
1764766982.1267853,-1.15976,3.15882,-1.26658,-0.8016336900000001,0.548887755,0.18981885
1764766982.1267853,-1.15976,3.15882,-1.26658,-0.8016336900000001,0.548887755,0.18981885
1764766982.1267853,-1.15976,3.15882,-1.26658,-0.8016336900000001,0.548887755,0.18981885
1764766982.12781,-1.15976,3.15882,-1.26658,-0.8016336900000001,0.548887755,0.18981885
1764766982.12781,-0.82404,3.03674,-1.08346,-0.80175576,0.54772809,0.191100585
1764766982.12781,-0.82404,3.03674,-1.08346,-0.80175576,0.54772809,0.191100585
1764766982.1745667,-0.82404,3.03674,-1.08346,-0.80175576,0.54772809,0.191100585
1764766982.1745667,-0.82404,3.03674,-1.08346,-0.80175576,0.54772809,0.191100585
1764766982.1745667,-0.82404,3.03674,-1.08346,-0.80175576,0.54772809,0.191100585
1764766982.1745667,-0.82404,3.03674,-1.08346,-0.80175576,0.54772809,0.191100585
1764766982.1745667,-0.82404,3.03674,-1.08346,-0.80175576,0.54772809,0.191100585
1764766982.1745667,-0.82404,3.03674,-1.08346,-0.80175576,0.54772809,0.191100585
1764766982.1745667,-0.82404,3.03674,-1.08346,-0.80175576,0.54772809,0.191100585
1764766982.1745667,-0.82404,3.03674,-1.08346,-0.80175576,0.54772809,0.191100585
1764766982.1745667,-0.42728,3.7387,-0.48832,-0.80126748,0.547911195,0.19091748
1764766982.1745667,-0.42728,3.7387,-0.48832,-0.80126748,0.547911195,0.19091748
1764766982.1745667,-0.42728,3.7387,-0.48832,-0.80126748,0.547911195,0.19091748
1764766982.1745667,-0.42728,3.7387,-0.48832,-0.80126748,0.547911195,0.19091748
1764766982.1745667,-0.42728,3.7387,-0.48832,-0.80126748,0.547911195,0.19091748
1764766982.1745667,-0.42728,3.7387,-0.48832,-0.80126748,0.547911195,0.19091748
1764766982.1755817,-0.42728,3.7387,-0.48832,-0.80126748,0.547911195,0.19091748
1764766982.1755817,-0.42728,3.7387,-0.48832,-0.80126748,0.547911195,0.19091748
1764766982.1755817,-0.42728,3.7387,-0.48832,-0.80126748,0.547911195,0.19091748
1764766982.1755817,-0.42728,3.7387,-0.48832,-0.80126748,0.547911195,0.19091748
1764766982.1755817,-0.6409199999999999,4.1202,-0.1525999999999999,-0.8026712850000001,0.5480943,0.189635745
1764766982.1755817,-0.6409199999999999,4.1202,-0.1525999999999999,-0.8026712850000001,0.5480943,0.189635745
1764766982.1755817,-0.6409199999999999,4.1202,-0.1525999999999999,-0.8026712850000001,0.5480943,0.189635745
1764766982.1755817,-0.6409199999999999,4.1202,-0.1525999999999999,-0.8026712850000001,0.5480943,0.189635745
1764766982.2187638,-0.6409199999999999,4.1202,-0.1525999999999999,-0.8026712850000001,0.5480943,0.189635745
1764766982.2187638,-0.6409199999999999,4.1202,-0.1525999999999999,-0.8026712850000001,0.5480943,0.189635745
1764766982.2187638,-0.6409199999999999,4.1202,-0.1525999999999999,-0.8026712850000001,0.5480943,0.189635745
1764766982.2187638,-0.6409199999999999,4.1202,-0.1525999999999999,-0.8026712850000001,0.5480943,0.189635745
1764766982.2187638,-0.6409199999999999,4.1202,-0.1525999999999999,-0.8026712850000001,0.5480943,0.189635745
1764766982.2187638,-0.6409199999999999,4.1202,-0.1525999999999999,-0.8026712850000001,0.5480943,0.189635745
1764766982.2187638,-0.44254,3.98286,-0.36624,-0.804624405,0.548033265,0.188048835
1764766982.2187638,-0.44254,3.98286,-0.36624,-0.804624405,0.548033265,0.188048835
1764766982.2187638,-0.44254,3.98286,-0.36624,-0.804624405,0.548033265,0.188048835
1764766982.2187638,-0.44254,3.98286,-0.36624,-0.804624405,0.548033265,0.188048835
1764766982.2187638,-0.44254,3.98286,-0.36624,-0.804624405,0.548033265,0.188048835
1764766982.2187638,-0.44254,3.98286,-0.36624,-0.804624405,0.548033265,0.188048835
1764766982.2187638,-0.44254,3.98286,-0.36624,-0.804624405,0.548033265,0.188048835
1764766982.2187638,-0.44254,3.98286,-0.36624,-0.804624405,0.548033265,0.188048835
1764766982.2187638,-0.44254,3.98286,-0.36624,-0.804624405,0.548033265,0.188048835
1764766982.2187638,-0.44254,3.98286,-0.36624,-0.804624405,0.548033265,0.188048835
1764766982.2187638,-0.79352,4.45592,-0.2289,-0.80492958,0.548765685,0.18762159
1764766982.2187638,-0.79352,4.45592,-0.2289,-0.80492958,0.548765685,0.18762159
1764766982.2187638,-0.79352,4.45592,-0.2289,-0.80492958,0.548765685,0.18762159
1764766982.2187638,-0.79352,4.45592,-0.2289,-0.80492958,0.548765685,0.18762159
1764766982.2187638,-0.79352,4.45592,-0.2289,-0.80492958,0.548765685,0.18762159
1764766982.2187638,-0.79352,4.45592,-0.2289,-0.80492958,0.548765685,0.18762159
1764766982.2202816,-0.79352,4.45592,-0.2289,-0.80492958,0.548765685,0.18762159
1764766982.2202816,-0.79352,4.45592,-0.2289,-0.80492958,0.548765685,0.18762159
1764766982.268056,-0.79352,4.45592,-0.2289,-0.80492958,0.548765685,0.18762159
1764766982.268056,-0.79352,4.45592,-0.2289,-0.80492958,0.548765685,0.18762159
1764766982.268056,-0.88508,4.63904,-0.03052,-0.80358681,0.54943707,0.188170905
1764766982.268056,-0.88508,4.63904,-0.03052,-0.80358681,0.54943707,0.188170905
1764766982.268056,-0.88508,4.63904,-0.03052,-0.80358681,0.54943707,0.188170905
1764766982.268056,-0.88508,4.63904,-0.03052,-0.80358681,0.54943707,0.188170905
1764766982.268056,-0.88508,4.63904,-0.03052,-0.80358681,0.54943707,0.188170905
1764766982.268056,-0.88508,4.63904,-0.03052,-0.80358681,0.54943707,0.188170905
1764766982.268056,-0.88508,4.63904,-0.03052,-0.80358681,0.54943707,0.188170905
1764766982.268056,-0.88508,4.63904,-0.03052,-0.80358681,0.54943707,0.188170905
1764766982.268056,-0.88508,4.63904,-0.03052,-0.80358681,0.54943707,0.188170905
1764766982.268056,-0.88508,4.63904,-0.03052,-0.80358681,0.54943707,0.188170905
1764766982.268056,-0.0762999999999999,5.234179999999999,-0.1525999999999999,-0.802793355,0.54907086,0.18884229
1764766982.268056,-0.0762999999999999,5.234179999999999,-0.1525999999999999,-0.802793355,0.54907086,0.18884229
1764766982.268056,-0.0762999999999999,5.234179999999999,-0.1525999999999999,-0.802793355,0.54907086,0.18884229
1764766982.268056,-0.0762999999999999,5.234179999999999,-0.1525999999999999,-0.802793355,0.54907086,0.18884229
1764766982.268056,-0.0762999999999999,5.234179999999999,-0.1525999999999999,-0.802793355,0.54907086,0.18884229
1764766982.268056,-0.0762999999999999,5.234179999999999,-0.1525999999999999,-0.802793355,0.54907086,0.18884229
1764766982.268056,-0.0762999999999999,5.234179999999999,-0.1525999999999999,-0.802793355,0.54907086,0.18884229
1764766982.268056,-0.0762999999999999,5.234179999999999,-0.1525999999999999,-0.802793355,0.54907086,0.18884229
1764766982.268056,-0.0762999999999999,5.234179999999999,-0.1525999999999999,-0.802793355,0.54907086,0.18884229
1764766982.268056,-0.0762999999999999,5.234179999999999,-0.1525999999999999,-0.802793355,0.54907086,0.18884229
1764766982.268056,-0.36624,4.715339999999999,-0.3204599999999999,-0.803159565,0.548643615,0.18835401
1764766982.268056,-0.36624,4.715339999999999,-0.3204599999999999,-0.803159565,0.548643615,0.18835401
1764766982.3118782,-0.36624,4.715339999999999,-0.3204599999999999,-0.803159565,0.548643615,0.18835401
1764766982.3118782,-0.36624,4.715339999999999,-0.3204599999999999,-0.803159565,0.548643615,0.18835401
1764766982.3118782,-0.36624,4.715339999999999,-0.3204599999999999,-0.803159565,0.548643615,0.18835401
1764766982.3118782,-0.36624,4.715339999999999,-0.3204599999999999,-0.803159565,0.548643615,0.18835401
1764766982.3118782,-0.36624,4.715339999999999,-0.3204599999999999,-0.803159565,0.548643615,0.18835401
1764766982.3118782,-0.36624,4.715339999999999,-0.3204599999999999,-0.803159565,0.548643615,0.18835401
1764766982.3118782,-0.36624,4.715339999999999,-0.3204599999999999,-0.803159565,0.548643615,0.18835401
1764766982.3118782,-0.36624,4.715339999999999,-0.3204599999999999,-0.803159565,0.548643615,0.18835401
1764766982.3118782,-0.5341,5.06632,-0.57988,-0.80346474,0.549315,0.18872022
1764766982.3118782,-0.5341,5.06632,-0.57988,-0.80346474,0.549315,0.18872022
1764766982.3118782,-0.5341,5.06632,-0.57988,-0.80346474,0.549315,0.18872022
1764766982.3118782,-0.5341,5.06632,-0.57988,-0.80346474,0.549315,0.18872022
1764766982.3118782,-0.5341,5.06632,-0.57988,-0.80346474,0.549315,0.18872022
1764766982.3118782,-0.5341,5.06632,-0.57988,-0.80346474,0.549315,0.18872022
1764766982.3118782,-0.5341,5.06632,-0.57988,-0.80346474,0.549315,0.18872022
1764766982.3118782,-0.5341,5.06632,-0.57988,-0.80346474,0.549315,0.18872022
1764766982.3118782,-0.5341,5.06632,-0.57988,-0.80346474,0.549315,0.18872022
1764766982.3118782,-0.5341,5.06632,-0.57988,-0.80346474,0.549315,0.18872022
1764766982.3118782,-1.6633399999999998,4.715339999999999,0.48832,-0.803159565,0.54968121,0.18908643
1764766982.3118782,-1.6633399999999998,4.715339999999999,0.48832,-0.803159565,0.54968121,0.18908643
1764766982.312884,-1.6633399999999998,4.715339999999999,0.48832,-0.803159565,0.54968121,0.18908643
1764766982.312884,-1.6633399999999998,4.715339999999999,0.48832,-0.803159565,0.54968121,0.18908643
1764766982.359246,-1.6633399999999998,4.715339999999999,0.48832,-0.803159565,0.54968121,0.18908643
1764766982.359246,-1.6633399999999998,4.715339999999999,0.48832,-0.803159565,0.54968121,0.18908643
1764766982.359246,-1.6633399999999998,4.715339999999999,0.48832,-0.803159565,0.54968121,0.18908643
1764766982.359246,-1.6633399999999998,4.715339999999999,0.48832,-0.803159565,0.54968121,0.18908643
1764766982.359246,-1.6633399999999998,4.715339999999999,0.48832,-0.803159565,0.54968121,0.18908643
1764766982.359246,-1.6633399999999998,4.715339999999999,0.48832,-0.803159565,0.54968121,0.18908643
1764766982.359246,-1.2971,4.45592,0.42728,-0.803037495,0.54894879,0.19055127
1764766982.359246,-1.2971,4.45592,0.42728,-0.803037495,0.54894879,0.19055127
1764766982.359246,-1.2971,4.45592,0.42728,-0.803037495,0.54894879,0.19055127
1764766982.359246,-1.2971,4.45592,0.42728,-0.803037495,0.54894879,0.19055127
1764766982.359246,-1.2971,4.45592,0.42728,-0.803037495,0.54894879,0.19055127
1764766982.359246,-1.2971,4.45592,0.42728,-0.803037495,0.54894879,0.19055127
1764766982.359246,-1.2971,4.45592,0.42728,-0.803037495,0.54894879,0.19055127
1764766982.359246,-1.2971,4.45592,0.42728,-0.803037495,0.54894879,0.19055127
1764766982.359246,-1.2971,4.45592,0.42728,-0.803037495,0.54894879,0.19055127
1764766982.359246,-1.2971,4.45592,0.42728,-0.803037495,0.54894879,0.19055127
1764766982.359246,-0.28994,4.51696,0.1678599999999999,-0.803037495,0.548155335,0.19103955
1764766982.359246,-0.28994,4.51696,0.1678599999999999,-0.803037495,0.548155335,0.19103955
1764766982.359246,-0.28994,4.51696,0.1678599999999999,-0.803037495,0.548155335,0.19103955
1764766982.359246,-0.28994,4.51696,0.1678599999999999,-0.803037495,0.548155335,0.19103955
1764766982.4060545,-0.28994,4.51696,0.1678599999999999,-0.803037495,0.548155335,0.19103955
1764766982.4060545,-0.28994,4.51696,0.1678599999999999,-0.803037495,0.548155335,0.19103955
1764766982.4060545,-0.28994,4.51696,0.1678599999999999,-0.803037495,0.548155335,0.19103955
1764766982.4060545,-0.28994,4.51696,0.1678599999999999,-0.803037495,0.548155335,0.19103955
1764766982.4060545,-0.28994,4.51696,0.1678599999999999,-0.803037495,0.548155335,0.19103955
1764766982.4060545,-0.28994,4.51696,0.1678599999999999,-0.803037495,0.548155335,0.19103955
1764766982.4060545,-0.3051999999999999,4.6543,0.97664,-0.8052957900000001,0.548521545,0.19116162
1764766982.4060545,-0.3051999999999999,4.6543,0.97664,-0.8052957900000001,0.548521545,0.19116162
1764766982.4060545,-0.3051999999999999,4.6543,0.97664,-0.8052957900000001,0.548521545,0.19116162
1764766982.4060545,-0.3051999999999999,4.6543,0.97664,-0.8052957900000001,0.548521545,0.19116162
1764766982.4060545,-0.3051999999999999,4.6543,0.97664,-0.8052957900000001,0.548521545,0.19116162
1764766982.4060545,-0.3051999999999999,4.6543,0.97664,-0.8052957900000001,0.548521545,0.19116162
1764766982.4070666,-0.3051999999999999,4.6543,0.97664,-0.8052957900000001,0.548521545,0.19116162
1764766982.4070666,-0.3051999999999999,4.6543,0.97664,-0.8052957900000001,0.548521545,0.19116162
1764766982.4070666,-0.3051999999999999,4.6543,0.97664,-0.8052957900000001,0.548521545,0.19116162
1764766982.4070666,-0.3051999999999999,4.6543,0.97664,-0.8052957900000001,0.548521545,0.19116162
1764766982.4070666,-1.19028,4.22702,0.71722,-0.8068827000000001,0.5490098250000001,0.191100585
1764766982.4070666,-1.19028,4.22702,0.71722,-0.8068827000000001,0.5490098250000001,0.191100585
1764766982.4070666,-1.19028,4.22702,0.71722,-0.8068827000000001,0.5490098250000001,0.191100585
1764766982.4070666,-1.19028,4.22702,0.71722,-0.8068827000000001,0.5490098250000001,0.191100585
1764766982.4070666,-1.19028,4.22702,0.71722,-0.8068827000000001,0.5490098250000001,0.191100585
1764766982.4070666,-1.19028,4.22702,0.71722,-0.8068827000000001,0.5490098250000001,0.191100585
1764766982.4070666,-1.19028,4.22702,0.71722,-0.8068827000000001,0.5490098250000001,0.191100585
1764766982.4070666,-1.19028,4.22702,0.71722,-0.8068827000000001,0.5490098250000001,0.191100585
1764766982.4070666,-1.19028,4.22702,0.71722,-0.8068827000000001,0.5490098250000001,0.191100585
1764766982.4070666,-1.19028,4.22702,0.71722,-0.8068827000000001,0.5490098250000001,0.191100585
1764766982.4070666,-1.46496,4.28806,0.77826,-0.80712684,0.54907086,0.191588865
1764766982.4070666,-1.46496,4.28806,0.77826,-0.80712684,0.54907086,0.191588865
1764766982.4544947,-1.46496,4.28806,0.77826,-0.80712684,0.54907086,0.191588865
1764766982.4544947,-1.46496,4.28806,0.77826,-0.80712684,0.54907086,0.191588865
1764766982.4544947,-1.46496,4.28806,0.77826,-0.80712684,0.54907086,0.191588865
1764766982.4544947,-1.46496,4.28806,0.77826,-0.80712684,0.54907086,0.191588865
1764766982.4544947,-1.46496,4.28806,0.77826,-0.80712684,0.54907086,0.191588865
1764766982.4544947,-1.46496,4.28806,0.77826,-0.80712684,0.54907086,0.191588865
1764766982.4544947,-1.46496,4.28806,0.77826,-0.80712684,0.54907086,0.191588865
1764766982.4544947,-1.46496,4.28806,0.77826,-0.80712684,0.54907086,0.191588865
1764766982.4544947,-1.526,3.93708,0.21364,-0.805723035,0.54833844,0.191466795
1764766982.4544947,-1.526,3.93708,0.21364,-0.805723035,0.54833844,0.191466795
1764766982.4544947,-1.526,3.93708,0.21364,-0.805723035,0.54833844,0.191466795
1764766982.4544947,-1.526,3.93708,0.21364,-0.805723035,0.54833844,0.191466795
1764766982.4544947,-1.526,3.93708,0.21364,-0.805723035,0.54833844,0.191466795
1764766982.4544947,-1.526,3.93708,0.21364,-0.805723035,0.54833844,0.191466795
1764766982.4544947,-1.526,3.93708,0.21364,-0.805723035,0.54833844,0.191466795
1764766982.4544947,-1.526,3.93708,0.21364,-0.805723035,0.54833844,0.191466795
1764766982.4544947,-1.526,3.93708,0.21364,-0.805723035,0.54833844,0.191466795
1764766982.4544947,-1.526,3.93708,0.21364,-0.805723035,0.54833844,0.191466795
1764766982.4544947,-0.8698199999999999,3.63188,0.6714399999999999,-0.80541786,0.546568425,0.190734375
1764766982.4544947,-0.8698199999999999,3.63188,0.6714399999999999,-0.80541786,0.546568425,0.190734375
1764766982.4553962,-0.8698199999999999,3.63188,0.6714399999999999,-0.80541786,0.546568425,0.190734375
1764766982.4553962,-0.8698199999999999,3.63188,0.6714399999999999,-0.80541786,0.546568425,0.190734375
1764766982.4985845,-0.8698199999999999,3.63188,0.6714399999999999,-0.80541786,0.546568425,0.190734375
1764766982.4985845,-0.8698199999999999,3.63188,0.6714399999999999,-0.80541786,0.546568425,0.190734375
1764766982.4985845,-0.8698199999999999,3.63188,0.6714399999999999,-0.80541786,0.546568425,0.190734375
1764766982.4985845,-0.8698199999999999,3.63188,0.6714399999999999,-0.80541786,0.546568425,0.190734375
1764766982.4985845,-0.8698199999999999,3.63188,0.6714399999999999,-0.80541786,0.546568425,0.190734375
1764766982.4985845,-0.8698199999999999,3.63188,0.6714399999999999,-0.80541786,0.546568425,0.190734375
1764766982.4985845,-0.9003399999999999,4.059159999999999,0.0762999999999999,-0.805478895,0.546446355,0.190368165
1764766982.4985845,-0.9003399999999999,4.059159999999999,0.0762999999999999,-0.805478895,0.546446355,0.190368165
1764766982.4985845,-0.9003399999999999,4.059159999999999,0.0762999999999999,-0.805478895,0.546446355,0.190368165
1764766982.4985845,-0.9003399999999999,4.059159999999999,0.0762999999999999,-0.805478895,0.546446355,0.190368165
1764766982.4985845,-0.9003399999999999,4.059159999999999,0.0762999999999999,-0.805478895,0.546446355,0.190368165
1764766982.4985845,-0.9003399999999999,4.059159999999999,0.0762999999999999,-0.805478895,0.546446355,0.190368165
1764766982.5001798,-0.9003399999999999,4.059159999999999,0.0762999999999999,-0.805478895,0.546446355,0.190368165
1764766982.5001798,-0.9003399999999999,4.059159999999999,0.0762999999999999,-0.805478895,0.546446355,0.190368165
1764766982.5001798,-0.9003399999999999,4.059159999999999,0.0762999999999999,-0.805478895,0.546446355,0.190368165
1764766982.5001798,-0.9003399999999999,4.059159999999999,0.0762999999999999,-0.805478895,0.546446355,0.190368165
1764766982.5001798,-1.3734,3.76922,0.06104,-0.80602821,0.54736188,0.19006299
1764766982.5001798,-1.3734,3.76922,0.06104,-0.80602821,0.54736188,0.19006299
1764766982.5001798,-1.3734,3.76922,0.06104,-0.80602821,0.54736188,0.19006299
1764766982.5001798,-1.3734,3.76922,0.06104,-0.80602821,0.54736188,0.19006299
1764766982.5001798,-1.3734,3.76922,0.06104,-0.80602821,0.54736188,0.19006299
1764766982.5001798,-1.3734,3.76922,0.06104,-0.80602821,0.54736188,0.19006299
1764766982.5001798,-1.3734,3.76922,0.06104,-0.80602821,0.54736188,0.19006299
1764766982.5001798,-1.3734,3.76922,0.06104,-0.80602821,0.54736188,0.19006299
1764766982.5468788,-1.3734,3.76922,0.06104,-0.80602821,0.54736188,0.19006299
1764766982.5468788,-1.3734,3.76922,0.06104,-0.80602821,0.54736188,0.19006299
1764766982.5468788,-2.27374,3.63188,-0.1678599999999999,-0.806211315,0.547056705,0.190490235
1764766982.5468788,-2.27374,3.63188,-0.1678599999999999,-0.806211315,0.547056705,0.190490235
1764766982.5468788,-2.27374,3.63188,-0.1678599999999999,-0.806211315,0.547056705,0.190490235
1764766982.5468788,-2.27374,3.63188,-0.1678599999999999,-0.806211315,0.547056705,0.190490235
1764766982.5468788,-2.27374,3.63188,-0.1678599999999999,-0.806211315,0.547056705,0.190490235
1764766982.5468788,-2.27374,3.63188,-0.1678599999999999,-0.806211315,0.547056705,0.190490235
1764766982.5468788,-2.27374,3.63188,-0.1678599999999999,-0.806211315,0.547056705,0.190490235
1764766982.5468788,-2.27374,3.63188,-0.1678599999999999,-0.806211315,0.547056705,0.190490235
1764766982.5468788,-2.27374,3.63188,-0.1678599999999999,-0.806211315,0.547056705,0.190490235
1764766982.5468788,-2.27374,3.63188,-0.1678599999999999,-0.806211315,0.547056705,0.190490235
1764766982.5468788,-1.61756,3.67766,-0.1525999999999999,-0.806211315,0.54479841,0.190612305
1764766982.5468788,-1.61756,3.67766,-0.1525999999999999,-0.806211315,0.54479841,0.190612305
1764766982.5468788,-1.61756,3.67766,-0.1525999999999999,-0.806211315,0.54479841,0.190612305
1764766982.5468788,-1.61756,3.67766,-0.1525999999999999,-0.806211315,0.54479841,0.190612305
1764766982.5468788,-1.61756,3.67766,-0.1525999999999999,-0.806211315,0.54479841,0.190612305
1764766982.5468788,-1.61756,3.67766,-0.1525999999999999,-0.806211315,0.54479841,0.190612305
1764766982.5468788,-1.61756,3.67766,-0.1525999999999999,-0.806211315,0.54479841,0.190612305
1764766982.5468788,-1.61756,3.67766,-0.1525999999999999,-0.806211315,0.54479841,0.190612305
1764766982.5468788,-1.61756,3.67766,-0.1525999999999999,-0.806211315,0.54479841,0.190612305
1764766982.5468788,-1.61756,3.67766,-0.1525999999999999,-0.806211315,0.54479841,0.190612305
1764766982.5943344,-0.96138,3.815,-0.44254,-0.80578407,0.543638745,0.19018506
1764766982.5943344,-0.96138,3.815,-0.44254,-0.80578407,0.543638745,0.19018506
1764766982.5943344,-0.96138,3.815,-0.44254,-0.80578407,0.543638745,0.19018506
1764766982.5943344,-0.96138,3.815,-0.44254,-0.80578407,0.543638745,0.19018506
1764766982.5943344,-0.96138,3.815,-0.44254,-0.80578407,0.543638745,0.19018506
1764766982.5943344,-0.96138,3.815,-0.44254,-0.80578407,0.543638745,0.19018506
1764766982.5943344,-0.96138,3.815,-0.44254,-0.80578407,0.543638745,0.19018506
1764766982.5943344,-0.96138,3.815,-0.44254,-0.80578407,0.543638745,0.19018506
1764766982.5943344,-0.96138,3.815,-0.44254,-0.80578407,0.543638745,0.19018506
1764766982.5943344,-0.96138,3.815,-0.44254,-0.80578407,0.543638745,0.19018506
1764766982.5943344,-0.48832,3.44876,-0.51884,-0.805967175,0.54394392,0.190490235
1764766982.5943344,-0.48832,3.44876,-0.51884,-0.805967175,0.54394392,0.190490235
1764766982.5943344,-0.48832,3.44876,-0.51884,-0.805967175,0.54394392,0.190490235
1764766982.5943344,-0.48832,3.44876,-0.51884,-0.805967175,0.54394392,0.190490235
1764766982.5943344,-0.48832,3.44876,-0.51884,-0.805967175,0.54394392,0.190490235
1764766982.5943344,-0.48832,3.44876,-0.51884,-0.805967175,0.54394392,0.190490235
1764766982.5943344,-0.48832,3.44876,-0.51884,-0.805967175,0.54394392,0.190490235
1764766982.5943344,-0.48832,3.44876,-0.51884,-0.805967175,0.54394392,0.190490235
1764766982.5943344,-0.48832,3.44876,-0.51884,-0.805967175,0.54394392,0.190490235
1764766982.5943344,-0.48832,3.44876,-0.51884,-0.805967175,0.54394392,0.190490235
1764766982.5943344,-0.56462,3.11304,-0.6103999999999999,-0.80676063,0.54614118,0.18847608
1764766982.5943344,-0.56462,3.11304,-0.6103999999999999,-0.80676063,0.54614118,0.18847608
1764766982.5943344,-0.56462,3.11304,-0.6103999999999999,-0.80676063,0.54614118,0.18847608
1764766982.5943344,-0.56462,3.11304,-0.6103999999999999,-0.80676063,0.54614118,0.18847608
1764766982.6409907,-0.56462,3.11304,-0.6103999999999999,-0.80676063,0.54614118,0.18847608
1764766982.6409907,-0.56462,3.11304,-0.6103999999999999,-0.80676063,0.54614118,0.18847608
1764766982.6409907,-0.56462,3.11304,-0.6103999999999999,-0.80676063,0.54614118,0.18847608
1764766982.6409907,-0.56462,3.11304,-0.6103999999999999,-0.80676063,0.54614118,0.18847608
1764766982.6409907,-0.56462,3.11304,-0.6103999999999999,-0.80676063,0.54614118,0.18847608
1764766982.6409907,-0.56462,3.11304,-0.6103999999999999,-0.80676063,0.54614118,0.18847608
1764766982.6409907,-1.28184,3.54032,-0.763,-0.806699595,0.54662946,0.189391605
1764766982.6409907,-1.28184,3.54032,-0.763,-0.806699595,0.54662946,0.189391605
1764766982.6409907,-1.28184,3.54032,-0.763,-0.806699595,0.54662946,0.189391605
1764766982.6409907,-1.28184,3.54032,-0.763,-0.806699595,0.54662946,0.189391605
1764766982.6409907,-1.28184,3.54032,-0.763,-0.806699595,0.54662946,0.189391605
1764766982.6409907,-1.28184,3.54032,-0.763,-0.806699595,0.54662946,0.189391605
1764766982.6409907,-1.28184,3.54032,-0.763,-0.806699595,0.54662946,0.189391605
1764766982.6409907,-1.28184,3.54032,-0.763,-0.806699595,0.54662946,0.189391605
1764766982.6409907,-1.28184,3.54032,-0.763,-0.806699595,0.54662946,0.189391605
1764766982.6409907,-1.28184,3.54032,-0.763,-0.806699595,0.54662946,0.189391605
1764766982.6409907,-1.26658,3.17408,-0.54936,-0.80541786,0.54540876,0.189269535
1764766982.6409907,-1.26658,3.17408,-0.54936,-0.80541786,0.54540876,0.189269535
1764766982.6409907,-1.26658,3.17408,-0.54936,-0.80541786,0.54540876,0.189269535
1764766982.6409907,-1.26658,3.17408,-0.54936,-0.80541786,0.54540876,0.189269535
1764766982.6409907,-1.26658,3.17408,-0.54936,-0.80541786,0.54540876,0.189269535
1764766982.6409907,-1.26658,3.17408,-0.54936,-0.80541786,0.54540876,0.189269535
1764766982.6875713,-1.26658,3.17408,-0.54936,-0.80541786,0.54540876,0.189269535
1764766982.6875713,-1.26658,3.17408,-0.54936,-0.80541786,0.54540876,0.189269535
1764766982.6875713,-1.26658,3.17408,-0.54936,-0.80541786,0.54540876,0.189269535
1764766982.68827,-1.26658,3.17408,-0.54936,-0.80541786,0.54540876,0.189269535
1764766982.68827,-0.28994,4.059159999999999,-0.39676,-0.80456337,0.545225655,0.1892085
1764766982.68827,-0.28994,4.059159999999999,-0.39676,-0.80456337,0.545225655,0.1892085
1764766982.68827,-0.28994,4.059159999999999,-0.39676,-0.80456337,0.545225655,0.1892085
1764766982.68827,-0.28994,4.059159999999999,-0.39676,-0.80456337,0.545225655,0.1892085
1764766982.68827,-0.28994,4.059159999999999,-0.39676,-0.80456337,0.545225655,0.1892085
1764766982.68827,-0.28994,4.059159999999999,-0.39676,-0.80456337,0.545225655,0.1892085
1764766982.68827,-0.28994,4.059159999999999,-0.39676,-0.80456337,0.545225655,0.1892085
1764766982.68827,-0.28994,4.059159999999999,-0.39676,-0.80456337,0.545225655,0.1892085
1764766982.68827,-0.28994,4.059159999999999,-0.39676,-0.80456337,0.545225655,0.1892085
1764766982.68827,-0.28994,4.059159999999999,-0.39676,-0.80456337,0.545225655,0.1892085
1764766982.68827,-0.27468,3.70818,-0.65618,-0.80505165,0.546446355,0.189757815
1764766982.68827,-0.27468,3.70818,-0.65618,-0.80505165,0.546446355,0.189757815
1764766982.68827,-0.27468,3.70818,-0.65618,-0.80505165,0.546446355,0.189757815
1764766982.68827,-0.27468,3.70818,-0.65618,-0.80505165,0.546446355,0.189757815
1764766982.68827,-0.27468,3.70818,-0.65618,-0.80505165,0.546446355,0.189757815
1764766982.68827,-0.27468,3.70818,-0.65618,-0.80505165,0.546446355,0.189757815
1764766982.68827,-0.27468,3.70818,-0.65618,-0.80505165,0.546446355,0.189757815
1764766982.68927,-0.27468,3.70818,-0.65618,-0.80505165,0.546446355,0.189757815
1764766982.68927,-0.27468,3.70818,-0.65618,-0.80505165,0.546446355,0.189757815
1764766982.68927,-0.27468,3.70818,-0.65618,-0.80505165,0.546446355,0.189757815
1764766982.68927,-1.15976,3.76922,-0.3509799999999999,-0.805356825,0.5479722300000001,0.189757815
1764766982.68927,-1.15976,3.76922,-0.3509799999999999,-0.805356825,0.5479722300000001,0.189757815
1764766982.7322516,-1.15976,3.76922,-0.3509799999999999,-0.805356825,0.5479722300000001,0.189757815
1764766982.7322516,-1.15976,3.76922,-0.3509799999999999,-0.805356825,0.5479722300000001,0.189757815
1764766982.7322516,-1.15976,3.76922,-0.3509799999999999,-0.805356825,0.5479722300000001,0.189757815
1764766982.7337832,-1.15976,3.76922,-0.3509799999999999,-0.805356825,0.5479722300000001,0.189757815
1764766982.7337832,-1.15976,3.76922,-0.3509799999999999,-0.805356825,0.5479722300000001,0.189757815
1764766982.7337832,-1.15976,3.76922,-0.3509799999999999,-0.805356825,0.5479722300000001,0.189757815
1764766982.7337832,-1.15976,3.76922,-0.3509799999999999,-0.805356825,0.5479722300000001,0.189757815
1764766982.7337832,-1.15976,3.76922,-0.3509799999999999,-0.805356825,0.5479722300000001,0.189757815
1764766982.7337832,-1.99906,3.63188,-0.3357199999999999,-0.80492958,0.547789125,0.189757815
1764766982.7337832,-1.99906,3.63188,-0.3357199999999999,-0.80492958,0.547789125,0.189757815
1764766982.7337832,-1.99906,3.63188,-0.3357199999999999,-0.80492958,0.547789125,0.189757815
1764766982.7337832,-1.99906,3.63188,-0.3357199999999999,-0.80492958,0.547789125,0.189757815
1764766982.7337832,-1.99906,3.63188,-0.3357199999999999,-0.80492958,0.547789125,0.189757815
1764766982.7337832,-1.99906,3.63188,-0.3357199999999999,-0.80492958,0.547789125,0.189757815
1764766982.7337832,-1.99906,3.63188,-0.3357199999999999,-0.80492958,0.547789125,0.189757815
1764766982.7337832,-1.99906,3.63188,-0.3357199999999999,-0.80492958,0.547789125,0.189757815
1764766982.7337832,-1.99906,3.63188,-0.3357199999999999,-0.80492958,0.547789125,0.189757815
1764766982.7337832,-1.99906,3.63188,-0.3357199999999999,-0.80492958,0.547789125,0.189757815
1764766982.7337832,-1.4039199999999998,3.7387,-0.12208,-0.804502335,0.546324285,0.18933057
1764766982.7337832,-1.4039199999999998,3.7387,-0.12208,-0.804502335,0.546324285,0.18933057
1764766982.735197,-1.4039199999999998,3.7387,-0.12208,-0.804502335,0.546324285,0.18933057
1764766982.735197,-1.4039199999999998,3.7387,-0.12208,-0.804502335,0.546324285,0.18933057
1764766982.735197,-1.4039199999999998,3.7387,-0.12208,-0.804502335,0.546324285,0.18933057
1764766982.735197,-1.4039199999999998,3.7387,-0.12208,-0.804502335,0.546324285,0.18933057
1764766982.7819235,-1.4039199999999998,3.7387,-0.12208,-0.804502335,0.546324285,0.18933057
1764766982.7819235,-1.4039199999999998,3.7387,-0.12208,-0.804502335,0.546324285,0.18933057
1764766982.7819235,-1.4039199999999998,3.7387,-0.12208,-0.804502335,0.546324285,0.18933057
1764766982.7829368,-1.4039199999999998,3.7387,-0.12208,-0.804502335,0.546324285,0.18933057
1764766982.7829368,-1.08346,3.34194,0.3357199999999999,-0.805967175,0.545225655,0.18884229
1764766982.7829368,-1.08346,3.34194,0.3357199999999999,-0.805967175,0.545225655,0.18884229
1764766982.7829368,-1.08346,3.34194,0.3357199999999999,-0.805967175,0.545225655,0.18884229
1764766982.7829368,-1.08346,3.34194,0.3357199999999999,-0.805967175,0.545225655,0.18884229
1764766982.7829368,-1.08346,3.34194,0.3357199999999999,-0.805967175,0.545225655,0.18884229
1764766982.7829368,-1.08346,3.34194,0.3357199999999999,-0.805967175,0.545225655,0.18884229
1764766982.7829368,-1.08346,3.34194,0.3357199999999999,-0.805967175,0.545225655,0.18884229
1764766982.7829368,-1.08346,3.34194,0.3357199999999999,-0.805967175,0.545225655,0.18884229
1764766982.7829368,-1.08346,3.34194,0.3357199999999999,-0.805967175,0.545225655,0.18884229
1764766982.7829368,-1.08346,3.34194,0.3357199999999999,-0.805967175,0.545225655,0.18884229
1764766982.7829368,-0.9003399999999999,3.86078,0.47306,-0.806089245,0.54675153,0.188903325
1764766982.7829368,-0.9003399999999999,3.86078,0.47306,-0.806089245,0.54675153,0.188903325
1764766982.7829368,-0.9003399999999999,3.86078,0.47306,-0.806089245,0.54675153,0.188903325
1764766982.7829368,-0.9003399999999999,3.86078,0.47306,-0.806089245,0.54675153,0.188903325
1764766982.7829368,-0.9003399999999999,3.86078,0.47306,-0.806089245,0.54675153,0.188903325
1764766982.7829368,-0.9003399999999999,3.86078,0.47306,-0.806089245,0.54675153,0.188903325
1764766982.7829368,-0.9003399999999999,3.86078,0.47306,-0.806089245,0.54675153,0.188903325
1764766982.7829368,-0.9003399999999999,3.86078,0.47306,-0.806089245,0.54675153,0.188903325
1764766982.8278754,-0.9003399999999999,3.86078,0.47306,-0.806089245,0.54675153,0.188903325
1764766982.830204,-0.9003399999999999,3.86078,0.47306,-0.806089245,0.54675153,0.188903325
1764766982.830204,-0.96138,0.0,0.74774,-0.805600965,0.54699567,0.189147465
1764766982.8312545,-0.96138,0.0,0.74774,-0.805600965,0.54699567,0.189147465
1764766982.8312545,-0.96138,0.0,0.74774,-0.805600965,0.54699567,0.189147465
1764766982.8312545,-0.96138,0.0,0.74774,-0.805600965,0.54699567,0.189147465
1764766982.8312545,-0.96138,0.0,0.74774,-0.805600965,0.54699567,0.189147465
1764766982.8312545,-0.96138,0.0,0.74774,-0.805600965,0.54699567,0.189147465
1764766982.8312545,-0.96138,0.0,0.74774,-0.805600965,0.54699567,0.189147465
1764766982.8322718,-0.96138,0.0,0.74774,-0.805600965,0.54699567,0.189147465
1764766982.8322718,-0.96138,0.0,0.74774,-0.805600965,0.54699567,0.189147465
1764766982.8322718,-0.96138,0.0,0.74774,-0.805600965,0.54699567,0.189147465
1764766982.8322718,-1.28184,4.41014,0.44254,-0.805723035,0.546568425,0.18945264
1764766982.8322718,-1.28184,4.41014,0.44254,-0.805723035,0.546568425,0.18945264
1764766982.8322718,-1.28184,4.41014,0.44254,-0.805723035,0.546568425,0.18945264
1764766982.8322718,-1.28184,4.41014,0.44254,-0.805723035,0.546568425,0.18945264
1764766982.832945,-1.28184,4.41014,0.44254,-0.805723035,0.546568425,0.18945264
1764766982.832945,-1.28184,4.41014,0.44254,-0.805723035,0.546568425,0.18945264
1764766982.832945,-1.28184,4.41014,0.44254,-0.805723035,0.546568425,0.18945264
1764766982.832945,-1.28184,4.41014,0.44254,-0.805723035,0.546568425,0.18945264
1764766982.832945,-1.28184,4.41014,0.44254,-0.805723035,0.546568425,0.18945264
1764766982.832945,-1.28184,4.41014,0.44254,-0.805723035,0.546568425,0.18945264
1764766982.832945,-1.32762,4.440659999999999,0.71722,-0.806211315,0.54601911,0.190001955
1764766982.832945,-1.32762,4.440659999999999,0.71722,-0.806211315,0.54601911,0.190001955
1764766982.87209,-1.32762,4.440659999999999,0.71722,-0.806211315,0.54601911,0.190001955
1764766982.87209,-1.32762,4.440659999999999,0.71722,-0.806211315,0.54601911,0.190001955
1764766982.87209,-1.32762,4.440659999999999,0.71722,-0.806211315,0.54601911,0.190001955
1764766982.87209,-1.32762,4.440659999999999,0.71722,-0.806211315,0.54601911,0.190001955
1764766982.87209,-1.32762,4.440659999999999,0.71722,-0.806211315,0.54601911,0.190001955
1764766982.87209,-1.32762,4.440659999999999,0.71722,-0.806211315,0.54601911,0.190001955
1764766982.87209,-1.32762,4.440659999999999,0.71722,-0.806211315,0.54601911,0.190001955
1764766982.87209,-1.32762,4.440659999999999,0.71722,-0.806211315,0.54601911,0.190001955
1764766982.87209,-1.58704,4.303319999999999,0.763,-0.807065805,0.54601911,0.189635745
1764766982.87209,-1.58704,4.303319999999999,0.763,-0.807065805,0.54601911,0.189635745
1764766982.87209,-1.58704,4.303319999999999,0.763,-0.807065805,0.54601911,0.189635745
1764766982.87209,-1.58704,4.303319999999999,0.763,-0.807065805,0.54601911,0.189635745
1764766982.87209,-1.58704,4.303319999999999,0.763,-0.807065805,0.54601911,0.189635745
1764766982.8734646,-1.58704,4.303319999999999,0.763,-0.807065805,0.54601911,0.189635745
1764766982.8734646,-1.58704,4.303319999999999,0.763,-0.807065805,0.54601911,0.189635745
1764766982.8734646,-1.58704,4.303319999999999,0.763,-0.807065805,0.54601911,0.189635745
1764766982.8738115,-1.58704,4.303319999999999,0.763,-0.807065805,0.54601911,0.189635745
1764766982.8738115,-1.58704,4.303319999999999,0.763,-0.807065805,0.54601911,0.189635745
1764766982.8738115,-1.93802,4.16598,0.3357199999999999,-0.805600965,0.544981515,0.189635745
1764766982.8738115,-1.93802,4.16598,0.3357199999999999,-0.805600965,0.544981515,0.189635745
1764766982.8738115,-1.93802,4.16598,0.3357199999999999,-0.805600965,0.544981515,0.189635745
1764766982.8738115,-1.93802,4.16598,0.3357199999999999,-0.805600965,0.544981515,0.189635745
1764766982.9206643,-1.93802,4.16598,0.3357199999999999,-0.805600965,0.544981515,0.189635745
1764766982.9206643,-1.93802,4.16598,0.3357199999999999,-0.805600965,0.544981515,0.189635745
1764766982.9206643,-1.93802,4.16598,0.3357199999999999,-0.805600965,0.544981515,0.189635745
1764766982.9206643,-1.93802,4.16598,0.3357199999999999,-0.805600965,0.544981515,0.189635745
1764766982.9206643,-1.93802,4.16598,0.3357199999999999,-0.805600965,0.544981515,0.189635745
1764766982.9206643,-1.93802,4.16598,0.3357199999999999,-0.805600965,0.544981515,0.189635745
1764766982.9206643,-0.763,4.13546,0.18312,-0.80346474,0.54479841,0.18859815
1764766982.9206643,-0.763,4.13546,0.18312,-0.80346474,0.54479841,0.18859815
1764766982.9206643,-0.763,4.13546,0.18312,-0.80346474,0.54479841,0.18859815
1764766982.9206643,-0.763,4.13546,0.18312,-0.80346474,0.54479841,0.18859815
1764766982.9206643,-0.763,4.13546,0.18312,-0.80346474,0.54479841,0.18859815
1764766982.9206643,-0.763,4.13546,0.18312,-0.80346474,0.54479841,0.18859815
1764766982.9206643,-0.763,4.13546,0.18312,-0.80346474,0.54479841,0.18859815
1764766982.9206643,-0.763,4.13546,0.18312,-0.80346474,0.54479841,0.18859815
1764766982.9206643,-0.763,4.13546,0.18312,-0.80346474,0.54479841,0.18859815
1764766982.9206643,-0.763,4.13546,0.18312,-0.80346474,0.54479841,0.18859815
1764766982.9216893,-0.8087799999999999,3.57084,-0.27468,-0.80676063,0.546080145,0.18737745
1764766982.9216893,-0.8087799999999999,3.57084,-0.27468,-0.80676063,0.546080145,0.18737745
1764766982.9216893,-0.8087799999999999,3.57084,-0.27468,-0.80676063,0.546080145,0.18737745
1764766982.9216893,-0.8087799999999999,3.57084,-0.27468,-0.80676063,0.546080145,0.18737745
1764766982.9216893,-0.8087799999999999,3.57084,-0.27468,-0.80676063,0.546080145,0.18737745
1764766982.9216893,-0.8087799999999999,3.57084,-0.27468,-0.80676063,0.546080145,0.18737745
1764766982.9216893,-0.8087799999999999,3.57084,-0.27468,-0.80676063,0.546080145,0.18737745
1764766982.9216893,-0.8087799999999999,3.57084,-0.27468,-0.80676063,0.546080145,0.18737745
1764766982.9651146,-0.8087799999999999,3.57084,-0.27468,-0.80676063,0.546080145,0.18737745
1764766982.9651146,-0.8087799999999999,3.57084,-0.27468,-0.80676063,0.546080145,0.18737745
1764766982.9651146,-2.09062,3.61662,-0.8392999999999999,-0.80907996,0.54614118,0.18884229
1764766982.9651146,-2.09062,3.61662,-0.8392999999999999,-0.80907996,0.54614118,0.18884229
1764766982.9651146,-2.09062,3.61662,-0.8392999999999999,-0.80907996,0.54614118,0.18884229
1764766982.9651146,-2.09062,3.61662,-0.8392999999999999,-0.80907996,0.54614118,0.18884229
1764766982.9651146,-2.09062,3.61662,-0.8392999999999999,-0.80907996,0.54614118,0.18884229
1764766982.9666562,-2.09062,3.61662,-0.8392999999999999,-0.80907996,0.54614118,0.18884229
1764766982.9666562,-2.09062,3.61662,-0.8392999999999999,-0.80907996,0.54614118,0.18884229
1764766982.9666562,-2.09062,3.61662,-0.8392999999999999,-0.80907996,0.54614118,0.18884229
1764766982.9666562,-2.09062,3.61662,-0.8392999999999999,-0.80907996,0.54614118,0.18884229
1764766982.9666562,-2.09062,3.61662,-0.8392999999999999,-0.80907996,0.54614118,0.18884229
1764766982.9666562,-2.5942,4.4254,0.25942,-0.80761512,0.545836005,0.1904292
1764766982.9666562,-2.5942,4.4254,0.25942,-0.80761512,0.545836005,0.1904292
1764766982.9666562,-2.5942,4.4254,0.25942,-0.80761512,0.545836005,0.1904292
1764766982.9666562,-2.5942,4.4254,0.25942,-0.80761512,0.545836005,0.1904292
1764766982.9666562,-2.5942,4.4254,0.25942,-0.80761512,0.545836005,0.1904292
1764766982.9666562,-2.5942,4.4254,0.25942,-0.80761512,0.545836005,0.1904292
1764766982.9666562,-2.5942,4.4254,0.25942,-0.80761512,0.545836005,0.1904292
1764766982.9666562,-2.5942,4.4254,0.25942,-0.80761512,0.545836005,0.1904292
1764766983.0149138,-2.5942,4.4254,0.25942,-0.80761512,0.545836005,0.1904292
1764766983.0149138,-2.5942,4.4254,0.25942,-0.80761512,0.545836005,0.1904292
1764766983.0149138,-2.53316,4.577999999999999,0.79352,-0.806943735,0.54479841,0.19103955
1764766983.0149138,-2.53316,4.577999999999999,0.79352,-0.806943735,0.54479841,0.19103955
1764766983.0149138,-2.53316,4.577999999999999,0.79352,-0.806943735,0.54479841,0.19103955
1764766983.0159068,-2.53316,4.577999999999999,0.79352,-0.806943735,0.54479841,0.19103955
1764766983.0159068,-2.53316,4.577999999999999,0.79352,-0.806943735,0.54479841,0.19103955
1764766983.0159068,-2.53316,4.577999999999999,0.79352,-0.806943735,0.54479841,0.19103955
1764766983.0159068,-2.53316,4.577999999999999,0.79352,-0.806943735,0.54479841,0.19103955
1764766983.0159068,-2.53316,4.577999999999999,0.79352,-0.806943735,0.54479841,0.19103955
1764766983.0159068,-2.53316,4.577999999999999,0.79352,-0.806943735,0.54479841,0.19103955
1764766983.0159068,-2.53316,4.577999999999999,0.79352,-0.806943735,0.54479841,0.19103955
1764766983.0159068,-1.12924,4.440659999999999,0.82404,-0.807309945,0.543394605,0.19079541
1764766983.0159068,-1.12924,4.440659999999999,0.82404,-0.807309945,0.543394605,0.19079541
1764766983.0159068,-1.12924,4.440659999999999,0.82404,-0.807309945,0.543394605,0.19079541
1764766983.0159068,-1.12924,4.440659999999999,0.82404,-0.807309945,0.543394605,0.19079541
1764766983.0159068,-1.12924,4.440659999999999,0.82404,-0.807309945,0.543394605,0.19079541
1764766983.0159068,-1.12924,4.440659999999999,0.82404,-0.807309945,0.543394605,0.19079541
1764766983.0159068,-1.12924,4.440659999999999,0.82404,-0.807309945,0.543394605,0.19079541
1764766983.0159068,-1.12924,4.440659999999999,0.82404,-0.807309945,0.543394605,0.19079541
1764766983.01691,-1.12924,4.440659999999999,0.82404,-0.807309945,0.543394605,0.19079541
1764766983.01691,-1.12924,4.440659999999999,0.82404,-0.807309945,0.543394605,0.19079541
1764766983.01691,-0.7019599999999999,4.16598,1.08346,-0.80822547,0.543760815,0.190368165
1764766983.01691,-0.7019599999999999,4.16598,1.08346,-0.80822547,0.543760815,0.190368165
1764766983.01691,-0.7019599999999999,4.16598,1.08346,-0.80822547,0.543760815,0.190368165
1764766983.01691,-0.7019599999999999,4.16598,1.08346,-0.80822547,0.543760815,0.190368165
1764766983.060111,-0.7019599999999999,4.16598,1.08346,-0.80822547,0.543760815,0.190368165
1764766983.060111,-0.7019599999999999,4.16598,1.08346,-0.80822547,0.543760815,0.190368165
1764766983.060111,-0.7019599999999999,4.16598,1.08346,-0.80822547,0.543760815,0.190368165
1764766983.060111,-0.7019599999999999,4.16598,1.08346,-0.80822547,0.543760815,0.190368165
1764766983.060111,-0.7019599999999999,4.16598,1.08346,-0.80822547,0.543760815,0.190368165
1764766983.060111,-0.7019599999999999,4.16598,1.08346,-0.80822547,0.543760815,0.190368165
1764766983.060111,-0.763,3.64714,0.9919,-0.80822547,0.544493235,0.19006299
1764766983.060111,-0.763,3.64714,0.9919,-0.80822547,0.544493235,0.19006299
1764766983.060111,-0.763,3.64714,0.9919,-0.80822547,0.544493235,0.19006299
1764766983.060111,-0.763,3.64714,0.9919,-0.80822547,0.544493235,0.19006299
1764766983.060111,-0.763,3.64714,0.9919,-0.80822547,0.544493235,0.19006299
1764766983.060111,-0.763,3.64714,0.9919,-0.80822547,0.544493235,0.19006299
1764766983.060111,-0.763,3.64714,0.9919,-0.80822547,0.544493235,0.19006299
1764766983.060111,-0.763,3.64714,0.9919,-0.80822547,0.544493235,0.19006299
1764766983.060111,-0.763,3.64714,0.9919,-0.80822547,0.544493235,0.19006299
1764766983.060111,-0.763,3.64714,0.9919,-0.80822547,0.544493235,0.19006299
1764766983.060111,-0.42728,3.69292,0.51884,-0.8079202950000001,0.54455427,0.19079541
1764766983.060111,-0.42728,3.69292,0.51884,-0.8079202950000001,0.54455427,0.19079541
1764766983.060111,-0.42728,3.69292,0.51884,-0.8079202950000001,0.54455427,0.19079541
1764766983.0611272,-0.42728,3.69292,0.51884,-0.8079202950000001,0.54455427,0.19079541
1764766983.0611272,-0.42728,3.69292,0.51884,-0.8079202950000001,0.54455427,0.19079541
1764766983.0611272,-0.42728,3.69292,0.51884,-0.8079202950000001,0.54455427,0.19079541
1764766983.0611272,-0.42728,3.69292,0.51884,-0.8079202950000001,0.54455427,0.19079541
1764766983.0611272,-0.42728,3.69292,0.51884,-0.8079202950000001,0.54455427,0.19079541
1764766983.1036644,-0.42728,3.69292,0.51884,-0.8079202950000001,0.54455427,0.19079541
1764766983.1036644,-0.42728,3.69292,0.51884,-0.8079202950000001,0.54455427,0.19079541
1764766983.1036644,-0.54936,3.8913,0.51884,-0.807065805,0.54540876,0.191588865
1764766983.1036644,-0.54936,3.8913,0.51884,-0.807065805,0.54540876,0.191588865
1764766983.1036644,-0.54936,3.8913,0.51884,-0.807065805,0.54540876,0.191588865
1764766983.1036644,-0.54936,3.8913,0.51884,-0.807065805,0.54540876,0.191588865
1764766983.1036644,-0.54936,3.8913,0.51884,-0.807065805,0.54540876,0.191588865
1764766983.1036644,-0.54936,3.8913,0.51884,-0.807065805,0.54540876,0.191588865
1764766983.1036644,-0.54936,3.8913,0.51884,-0.807065805,0.54540876,0.191588865
1764766983.1036644,-0.54936,3.8913,0.51884,-0.807065805,0.54540876,0.191588865
1764766983.1036644,-0.54936,3.8913,0.51884,-0.807065805,0.54540876,0.191588865
1764766983.1036644,-0.54936,3.8913,0.51884,-0.807065805,0.54540876,0.191588865
1764766983.1036644,-1.55652,3.78448,0.19838,-0.806455455,0.546202215,0.192077145
1764766983.1036644,-1.55652,3.78448,0.19838,-0.806455455,0.546202215,0.192077145
1764766983.1036644,-1.55652,3.78448,0.19838,-0.806455455,0.546202215,0.192077145
1764766983.1036644,-1.55652,3.78448,0.19838,-0.806455455,0.546202215,0.192077145
1764766983.1036644,-1.55652,3.78448,0.19838,-0.806455455,0.546202215,0.192077145
1764766983.1036644,-1.55652,3.78448,0.19838,-0.806455455,0.546202215,0.192077145
1764766983.1036644,-1.55652,3.78448,0.19838,-0.806455455,0.546202215,0.192077145
1764766983.1036644,-1.55652,3.78448,0.19838,-0.806455455,0.546202215,0.192077145
1764766983.1036644,-1.55652,3.78448,0.19838,-0.806455455,0.546202215,0.192077145
1764766983.1036644,-1.55652,3.78448,0.19838,-0.806455455,0.546202215,0.192077145
1764766983.1519382,-1.69386,3.69292,0.10682,-0.80590614,0.54626325,0.191833005
1764766983.1524515,-1.69386,3.69292,0.10682,-0.80590614,0.54626325,0.191833005
1764766983.1524515,-1.69386,3.69292,0.10682,-0.80590614,0.54626325,0.191833005
1764766983.1524515,-1.69386,3.69292,0.10682,-0.80590614,0.54626325,0.191833005
1764766983.1524515,-1.69386,3.69292,0.10682,-0.80590614,0.54626325,0.191833005
1764766983.1524515,-1.69386,3.69292,0.10682,-0.80590614,0.54626325,0.191833005
1764766983.1524515,-1.69386,3.69292,0.10682,-0.80590614,0.54626325,0.191833005
1764766983.1524515,-1.69386,3.69292,0.10682,-0.80590614,0.54626325,0.191833005
1764766983.1524515,-1.69386,3.69292,0.10682,-0.80590614,0.54626325,0.191833005
1764766983.1524515,-1.69386,3.69292,0.10682,-0.80590614,0.54626325,0.191833005
1764766983.1524515,-1.78542,3.52506,0.3357199999999999,-0.80590614,0.544981515,0.19213818
1764766983.1532266,-1.78542,3.52506,0.3357199999999999,-0.80590614,0.544981515,0.19213818
1764766983.1532266,-1.78542,3.52506,0.3357199999999999,-0.80590614,0.544981515,0.19213818
1764766983.1532266,-1.78542,3.52506,0.3357199999999999,-0.80590614,0.544981515,0.19213818
1764766983.1532266,-1.78542,3.52506,0.3357199999999999,-0.80590614,0.544981515,0.19213818
1764766983.1532266,-1.78542,3.52506,0.3357199999999999,-0.80590614,0.544981515,0.19213818
1764766983.1532266,-1.78542,3.52506,0.3357199999999999,-0.80590614,0.544981515,0.19213818
1764766983.1532266,-1.78542,3.52506,0.3357199999999999,-0.80590614,0.544981515,0.19213818
1764766983.1532266,-1.78542,3.52506,0.3357199999999999,-0.80590614,0.544981515,0.19213818
1764766983.1532266,-1.78542,3.52506,0.3357199999999999,-0.80590614,0.544981515,0.19213818
1764766983.1532266,-1.2055399999999998,3.47928,-0.25942,-0.80676063,0.5443101300000001,0.19152783
1764766983.1532266,-1.2055399999999998,3.47928,-0.25942,-0.80676063,0.5443101300000001,0.19152783
1764766983.1999872,-1.2055399999999998,3.47928,-0.25942,-0.80676063,0.5443101300000001,0.19152783
1764766983.1999872,-1.2055399999999998,3.47928,-0.25942,-0.80676063,0.5443101300000001,0.19152783
1764766983.1999872,-1.2055399999999998,3.47928,-0.25942,-0.80676063,0.5443101300000001,0.19152783
1764766983.1999872,-1.2055399999999998,3.47928,-0.25942,-0.80676063,0.5443101300000001,0.19152783
1764766983.1999872,-1.2055399999999998,3.47928,-0.25942,-0.80676063,0.5443101300000001,0.19152783
1764766983.1999872,-1.2055399999999998,3.47928,-0.25942,-0.80676063,0.5443101300000001,0.19152783
1764766983.1999872,-1.2055399999999998,3.47928,-0.25942,-0.80676063,0.5443101300000001,0.19152783
1764766983.1999872,-1.2055399999999998,3.47928,-0.25942,-0.80676063,0.5443101300000001,0.19152783
1764766983.1999872,-1.23606,2.8231,0.54936,-0.806699595,0.5444322,0.191710935
1764766983.1999872,-1.23606,2.8231,0.54936,-0.806699595,0.5444322,0.191710935
1764766983.1999872,-1.23606,2.8231,0.54936,-0.806699595,0.5444322,0.191710935
1764766983.1999872,-1.23606,2.8231,0.54936,-0.806699595,0.5444322,0.191710935
1764766983.1999872,-1.23606,2.8231,0.54936,-0.806699595,0.5444322,0.191710935
1764766983.1999872,-1.23606,2.8231,0.54936,-0.806699595,0.5444322,0.191710935
1764766983.1999872,-1.23606,2.8231,0.54936,-0.806699595,0.5444322,0.191710935
1764766983.1999872,-1.23606,2.8231,0.54936,-0.806699595,0.5444322,0.191710935
1764766983.1999872,-1.23606,2.8231,0.54936,-0.806699595,0.5444322,0.191710935
1764766983.1999872,-1.23606,2.8231,0.54936,-0.806699595,0.5444322,0.191710935
1764766983.1999872,-0.96138,3.44876,1.08346,-0.804746475,0.54394392,0.19116162
1764766983.1999872,-0.96138,3.44876,1.08346,-0.804746475,0.54394392,0.19116162
1764766983.201463,-0.96138,3.44876,1.08346,-0.804746475,0.54394392,0.19116162
1764766983.201463,-0.96138,3.44876,1.08346,-0.804746475,0.54394392,0.19116162
1764766983.201463,-0.96138,3.44876,1.08346,-0.804746475,0.54394392,0.19116162
1764766983.201463,-0.96138,3.44876,1.08346,-0.804746475,0.54394392,0.19116162
1764766983.24515,-0.96138,3.44876,1.08346,-0.804746475,0.54394392,0.19116162
1764766983.24515,-0.96138,3.44876,1.08346,-0.804746475,0.54394392,0.19116162
1764766983.24515,-0.96138,3.44876,1.08346,-0.804746475,0.54394392,0.19116162
1764766983.24515,-0.96138,3.44876,1.08346,-0.804746475,0.54394392,0.19116162
1764766983.24515,-0.39676,3.32668,1.4039199999999998,-0.80505165,0.543394605,0.19006299
1764766983.24515,-0.39676,3.32668,1.4039199999999998,-0.80505165,0.543394605,0.19006299
1764766983.24515,-0.39676,3.32668,1.4039199999999998,-0.80505165,0.543394605,0.19006299
1764766983.24515,-0.39676,3.32668,1.4039199999999998,-0.80505165,0.543394605,0.19006299
1764766983.24515,-0.39676,3.32668,1.4039199999999998,-0.80505165,0.543394605,0.19006299
1764766983.24515,-0.39676,3.32668,1.4039199999999998,-0.80505165,0.543394605,0.19006299
1764766983.24515,-0.39676,3.32668,1.4039199999999998,-0.80505165,0.543394605,0.19006299
1764766983.24515,-0.39676,3.32668,1.4039199999999998,-0.80505165,0.543394605,0.19006299
1764766983.24515,-0.39676,3.32668,1.4039199999999998,-0.80505165,0.543394605,0.19006299
1764766983.24515,-0.39676,3.32668,1.4039199999999998,-0.80505165,0.543394605,0.19006299
1764766983.24515,-0.57988,3.41824,0.85456,-0.80627235,0.54455427,0.189391605
1764766983.24515,-0.57988,3.41824,0.85456,-0.80627235,0.54455427,0.189391605
1764766983.246169,-0.57988,3.41824,0.85456,-0.80627235,0.54455427,0.189391605
1764766983.246169,-0.57988,3.41824,0.85456,-0.80627235,0.54455427,0.189391605
1764766983.246169,-0.57988,3.41824,0.85456,-0.80627235,0.54455427,0.189391605
1764766983.246169,-0.57988,3.41824,0.85456,-0.80627235,0.54455427,0.189391605
1764766983.246169,-0.57988,3.41824,0.85456,-0.80627235,0.54455427,0.189391605
1764766983.246169,-0.57988,3.41824,0.85456,-0.80627235,0.54455427,0.189391605
1764766983.246169,-0.57988,3.41824,0.85456,-0.80627235,0.54455427,0.189391605
1764766983.246169,-0.57988,3.41824,0.85456,-0.80627235,0.54455427,0.189391605
1764766983.2889,-1.41918,3.08252,0.27468,-0.806211315,0.545591865,0.188781255
1764766983.2894373,-1.41918,3.08252,0.27468,-0.806211315,0.545591865,0.188781255
1764766983.2894373,-1.41918,3.08252,0.27468,-0.806211315,0.545591865,0.188781255
1764766983.2894373,-1.41918,3.08252,0.27468,-0.806211315,0.545591865,0.188781255
1764766983.2894373,-1.41918,3.08252,0.27468,-0.806211315,0.545591865,0.188781255
1764766983.2894373,-1.41918,3.08252,0.27468,-0.806211315,0.545591865,0.188781255
1764766983.2894373,-1.41918,3.08252,0.27468,-0.806211315,0.545591865,0.188781255
1764766983.2894373,-1.41918,3.08252,0.27468,-0.806211315,0.545591865,0.188781255
1764766983.2894373,-1.41918,3.08252,0.27468,-0.806211315,0.545591865,0.188781255
1764766983.2894373,-1.41918,3.08252,0.27468,-0.806211315,0.545591865,0.188781255
1764766983.2894373,-1.87698,3.14356,0.2289,-0.804624405,0.544493235,0.188659185
1764766983.2894373,-1.87698,3.14356,0.2289,-0.804624405,0.544493235,0.188659185
1764766983.2894373,-1.87698,3.14356,0.2289,-0.804624405,0.544493235,0.188659185
1764766983.2894373,-1.87698,3.14356,0.2289,-0.804624405,0.544493235,0.188659185
1764766983.2894373,-1.87698,3.14356,0.2289,-0.804624405,0.544493235,0.188659185
1764766983.29045,-1.87698,3.14356,0.2289,-0.804624405,0.544493235,0.188659185
1764766983.29045,-1.87698,3.14356,0.2289,-0.804624405,0.544493235,0.188659185
1764766983.29045,-1.87698,3.14356,0.2289,-0.804624405,0.544493235,0.188659185
1764766983.29045,-1.87698,3.14356,0.2289,-0.804624405,0.544493235,0.188659185
1764766983.29045,-1.87698,3.14356,0.2289,-0.804624405,0.544493235,0.188659185
1764766983.29045,-1.3734,3.8913,0.04578,-0.804502335,0.54369978,0.189025395
1764766983.29045,-1.3734,3.8913,0.04578,-0.804502335,0.54369978,0.189025395
1764766983.29045,-1.3734,3.8913,0.04578,-0.804502335,0.54369978,0.189025395
1764766983.29045,-1.3734,3.8913,0.04578,-0.804502335,0.54369978,0.189025395
1764766983.3376331,-1.3734,3.8913,0.04578,-0.804502335,0.54369978,0.189025395
1764766983.3376331,-1.3734,3.8913,0.04578,-0.804502335,0.54369978,0.189025395
1764766983.3376331,-1.3734,3.8913,0.04578,-0.804502335,0.54369978,0.189025395
1764766983.3376331,-1.3734,3.8913,0.04578,-0.804502335,0.54369978,0.189025395
1764766983.3376331,-1.3734,3.8913,0.04578,-0.804502335,0.54369978,0.189025395
1764766983.3376331,-1.3734,3.8913,0.04578,-0.804502335,0.54369978,0.189025395
1764766983.3376331,-0.93086,3.79974,0.01526,-0.80541786,0.54357771,0.18872022
1764766983.3376331,-0.93086,3.79974,0.01526,-0.80541786,0.54357771,0.18872022
1764766983.3376331,-0.93086,3.79974,0.01526,-0.80541786,0.54357771,0.18872022
1764766983.3376331,-0.93086,3.79974,0.01526,-0.80541786,0.54357771,0.18872022
1764766983.3376331,-0.93086,3.79974,0.01526,-0.80541786,0.54357771,0.18872022
1764766983.3376331,-0.93086,3.79974,0.01526,-0.80541786,0.54357771,0.18872022
1764766983.3376331,-0.93086,3.79974,0.01526,-0.80541786,0.54357771,0.18872022
1764766983.3376331,-0.93086,3.79974,0.01526,-0.80541786,0.54357771,0.18872022
1764766983.3376331,-0.93086,3.79974,0.01526,-0.80541786,0.54357771,0.18872022
1764766983.3376331,-0.93086,3.79974,0.01526,-0.80541786,0.54357771,0.18872022
1764766983.3376331,-1.09872,3.79974,0.42728,-0.8063944200000001,0.543882885,0.188537115
1764766983.3376331,-1.09872,3.79974,0.42728,-0.8063944200000001,0.543882885,0.188537115
1764766983.3376331,-1.09872,3.79974,0.42728,-0.8063944200000001,0.543882885,0.188537115
1764766983.3376331,-1.09872,3.79974,0.42728,-0.8063944200000001,0.543882885,0.188537115
1764766983.3376331,-1.09872,3.79974,0.42728,-0.8063944200000001,0.543882885,0.188537115
1764766983.3376331,-1.09872,3.79974,0.42728,-0.8063944200000001,0.543882885,0.188537115
1764766983.3844688,-1.09872,3.79974,0.42728,-0.8063944200000001,0.543882885,0.188537115
1764766983.3844688,-1.09872,3.79974,0.42728,-0.8063944200000001,0.543882885,0.188537115
1764766983.3844688,-1.09872,3.79974,0.42728,-0.8063944200000001,0.543882885,0.188537115
1764766983.3844688,-1.09872,3.79974,0.42728,-0.8063944200000001,0.543882885,0.188537115
1764766983.3844688,-0.74774,3.7387,0.3051999999999999,-0.80578407,0.544004955,0.188048835
1764766983.3844688,-0.74774,3.7387,0.3051999999999999,-0.80578407,0.544004955,0.188048835
1764766983.3844688,-0.74774,3.7387,0.3051999999999999,-0.80578407,0.544004955,0.188048835
1764766983.3844688,-0.74774,3.7387,0.3051999999999999,-0.80578407,0.544004955,0.188048835
1764766983.3844688,-0.74774,3.7387,0.3051999999999999,-0.80578407,0.544004955,0.188048835
1764766983.3844688,-0.74774,3.7387,0.3051999999999999,-0.80578407,0.544004955,0.188048835
1764766983.3844688,-0.74774,3.7387,0.3051999999999999,-0.80578407,0.544004955,0.188048835
1764766983.3844688,-0.74774,3.7387,0.3051999999999999,-0.80578407,0.544004955,0.188048835
1764766983.3844688,-0.74774,3.7387,0.3051999999999999,-0.80578407,0.544004955,0.188048835
1764766983.3844688,-0.74774,3.7387,0.3051999999999999,-0.80578407,0.544004955,0.188048835
1764766983.3844688,-0.3509799999999999,4.2728,0.6867,-0.80602821,0.54357771,0.189147465
1764766983.3844688,-0.3509799999999999,4.2728,0.6867,-0.80602821,0.54357771,0.189147465
1764766983.3844688,-0.3509799999999999,4.2728,0.6867,-0.80602821,0.54357771,0.189147465
1764766983.3844688,-0.3509799999999999,4.2728,0.6867,-0.80602821,0.54357771,0.189147465
1764766983.3844688,-0.3509799999999999,4.2728,0.6867,-0.80602821,0.54357771,0.189147465
1764766983.3844688,-0.3509799999999999,4.2728,0.6867,-0.80602821,0.54357771,0.189147465
1764766983.3844688,-0.3509799999999999,4.2728,0.6867,-0.80602821,0.54357771,0.189147465
1764766983.3844688,-0.3509799999999999,4.2728,0.6867,-0.80602821,0.54357771,0.189147465
1764766983.3844688,-0.3509799999999999,4.2728,0.6867,-0.80602821,0.54357771,0.189147465
1764766983.3844688,-0.3509799999999999,4.2728,0.6867,-0.80602821,0.54357771,0.189147465
1764766983.4307678,-0.12208,4.10494,0.88508,-0.80541786,0.54357771,0.18957471
1764766983.4307678,-0.12208,4.10494,0.88508,-0.80541786,0.54357771,0.18957471
1764766983.4317772,-0.12208,4.10494,0.88508,-0.80541786,0.54357771,0.18957471
1764766983.4317772,-0.12208,4.10494,0.88508,-0.80541786,0.54357771,0.18957471
1764766983.4317772,-0.12208,4.10494,0.88508,-0.80541786,0.54357771,0.18957471
1764766983.4317772,-0.12208,4.10494,0.88508,-0.80541786,0.54357771,0.18957471
1764766983.4317772,-0.12208,4.10494,0.88508,-0.80541786,0.54357771,0.18957471
1764766983.4317772,-0.12208,4.10494,0.88508,-0.80541786,0.54357771,0.18957471
1764766983.4317772,-0.12208,4.10494,0.88508,-0.80541786,0.54357771,0.18957471
1764766983.4317772,-0.12208,4.10494,0.88508,-0.80541786,0.54357771,0.18957471
1764766983.4317772,-0.94612,4.68482,0.9003399999999999,-0.805112685,0.54479841,0.189269535
1764766983.4317772,-0.94612,4.68482,0.9003399999999999,-0.805112685,0.54479841,0.189269535
1764766983.4317772,-0.94612,4.68482,0.9003399999999999,-0.805112685,0.54479841,0.189269535
1764766983.4317772,-0.94612,4.68482,0.9003399999999999,-0.805112685,0.54479841,0.189269535
1764766983.4317772,-0.94612,4.68482,0.9003399999999999,-0.805112685,0.54479841,0.189269535
1764766983.4317772,-0.94612,4.68482,0.9003399999999999,-0.805112685,0.54479841,0.189269535
1764766983.4317772,-0.94612,4.68482,0.9003399999999999,-0.805112685,0.54479841,0.189269535
1764766983.4317772,-0.94612,4.68482,0.9003399999999999,-0.805112685,0.54479841,0.189269535
1764766983.4317772,-0.94612,4.68482,0.9003399999999999,-0.805112685,0.54479841,0.189269535
1764766983.4331565,-0.94612,4.68482,0.9003399999999999,-0.805112685,0.54479841,0.189269535
1764766983.4331565,-1.34288,4.37962,1.31236,-0.80602821,0.545591865,0.189635745
1764766983.4331565,-1.34288,4.37962,1.31236,-0.80602821,0.545591865,0.189635745
1764766983.4806032,-1.34288,4.37962,1.31236,-0.80602821,0.545591865,0.189635745
1764766983.4806032,-1.34288,4.37962,1.31236,-0.80602821,0.545591865,0.189635745
1764766983.4806032,-1.34288,4.37962,1.31236,-0.80602821,0.545591865,0.189635745
1764766983.4806032,-1.34288,4.37962,1.31236,-0.80602821,0.545591865,0.189635745
1764766983.4806032,-1.34288,4.37962,1.31236,-0.80602821,0.545591865,0.189635745
1764766983.4806032,-1.34288,4.37962,1.31236,-0.80602821,0.545591865,0.189635745
1764766983.4806032,-1.34288,4.37962,1.31236,-0.80602821,0.545591865,0.189635745
1764766983.4806032,-1.34288,4.37962,1.31236,-0.80602821,0.545591865,0.189635745
1764766983.4806032,-0.8392999999999999,4.21176,0.8698199999999999,-0.805967175,0.545958075,0.189391605
1764766983.4806032,-0.8392999999999999,4.21176,0.8698199999999999,-0.805967175,0.545958075,0.189391605
1764766983.4806032,-0.8392999999999999,4.21176,0.8698199999999999,-0.805967175,0.545958075,0.189391605
1764766983.4806032,-0.8392999999999999,4.21176,0.8698199999999999,-0.805967175,0.545958075,0.189391605
1764766983.4806032,-0.8392999999999999,4.21176,0.8698199999999999,-0.805967175,0.545958075,0.189391605
1764766983.4806032,-0.8392999999999999,4.21176,0.8698199999999999,-0.805967175,0.545958075,0.189391605
1764766983.4806032,-0.8392999999999999,4.21176,0.8698199999999999,-0.805967175,0.545958075,0.189391605
1764766983.4806032,-0.8392999999999999,4.21176,0.8698199999999999,-0.805967175,0.545958075,0.189391605
1764766983.4806032,-0.8392999999999999,4.21176,0.8698199999999999,-0.805967175,0.545958075,0.189391605
1764766983.4806032,-0.8392999999999999,4.21176,0.8698199999999999,-0.805967175,0.545958075,0.189391605
1764766983.4806032,-0.97664,4.02864,0.8392999999999999,-0.80663856,0.54455427,0.19018506
1764766983.4806032,-0.97664,4.02864,0.8392999999999999,-0.80663856,0.54455427,0.19018506
1764766983.4806032,-0.97664,4.02864,0.8392999999999999,-0.80663856,0.54455427,0.19018506
1764766983.4806032,-0.97664,4.02864,0.8392999999999999,-0.80663856,0.54455427,0.19018506
1764766983.4806032,-0.97664,4.02864,0.8392999999999999,-0.80663856,0.54455427,0.19018506
1764766983.4806032,-0.97664,4.02864,0.8392999999999999,-0.80663856,0.54455427,0.19018506
1764766983.5241957,-0.97664,4.02864,0.8392999999999999,-0.80663856,0.54455427,0.19018506
1764766983.5241957,-0.97664,4.02864,0.8392999999999999,-0.80663856,0.54455427,0.19018506
1764766983.5241957,-0.97664,4.02864,0.8392999999999999,-0.80663856,0.54455427,0.19018506
1764766983.5241957,-0.97664,4.02864,0.8392999999999999,-0.80663856,0.54455427,0.19018506
1764766983.5241957,-0.97664,4.2728,0.42728,-0.80663856,0.545713935,0.1904292
1764766983.5241957,-0.97664,4.2728,0.42728,-0.80663856,0.545713935,0.1904292
