Timestamp,GyroX,GyroY,GyroZ,AccX,AccY,AccZ
1764768930.5458033,-3.3572,1.34288,1.25132,0.981137625,-0.046813845,0.11242647
1764768930.5458033,-3.3572,1.34288,1.25132,0.981137625,-0.046813845,0.11242647
1764768930.5458033,-3.44876,1.08346,1.32762,0.98156487,-0.04736316,0.112487505
1764768930.5458033,-3.44876,1.08346,1.32762,0.98156487,-0.04736316,0.112487505
1764768930.5458033,-3.44876,1.08346,1.32762,0.98156487,-0.04736316,0.112487505
1764768930.5458033,-3.44876,1.08346,1.32762,0.98156487,-0.04736316,0.112487505
1764768930.5458033,-3.44876,1.08346,1.32762,0.98156487,-0.04736316,0.112487505
1764768930.5458033,-3.44876,1.08346,1.32762,0.98156487,-0.04736316,0.112487505
1764768930.5458033,-3.44876,1.08346,1.32762,0.98156487,-0.04736316,0.112487505
1764768930.5458033,-3.44876,1.08346,1.32762,0.98156487,-0.04736316,0.112487505
1764768930.5458033,-3.44876,1.08346,1.32762,0.98156487,-0.04736316,0.112487505
1764768930.5458033,-3.44876,1.08346,1.32762,0.98156487,-0.04736316,0.112487505
1764768930.5458033,-3.1283,1.12924,1.00716,0.98156487,-0.047424195,0.11242647
1764768930.5458033,-3.1283,1.12924,1.00716,0.98156487,-0.047424195,0.11242647
1764768930.5458033,-3.1283,1.12924,1.00716,0.98156487,-0.047424195,0.11242647
1764768930.5458033,-3.1283,1.12924,1.00716,0.98156487,-0.047424195,0.11242647
1764768930.5458033,-3.1283,1.12924,1.00716,0.98156487,-0.047424195,0.11242647
1764768930.5458033,-3.1283,1.12924,1.00716,0.98156487,-0.047424195,0.11242647
1764768930.5458033,-3.1283,1.12924,1.00716,0.98156487,-0.047424195,0.11242647
1764768930.5458033,-3.1283,1.12924,1.00716,0.98156487,-0.047424195,0.11242647
1764768930.5922947,-3.1283,1.12924,1.00716,0.98156487,-0.047424195,0.11242647
1764768930.5922947,-3.1283,1.12924,1.00716,0.98156487,-0.047424195,0.11242647
1764768930.5922947,-2.88414,1.38866,1.2055399999999998,0.98132073,-0.0476073,0.112609575
1764768930.5922947,-2.88414,1.38866,1.2055399999999998,0.98132073,-0.0476073,0.112609575
1764768930.5922947,-2.88414,1.38866,1.2055399999999998,0.98132073,-0.0476073,0.112609575
1764768930.5922947,-2.88414,1.38866,1.2055399999999998,0.98132073,-0.0476073,0.112609575
1764768930.5922947,-2.88414,1.38866,1.2055399999999998,0.98132073,-0.0476073,0.112609575
1764768930.5922947,-2.88414,1.38866,1.2055399999999998,0.98132073,-0.0476073,0.112609575
1764768930.5922947,-2.88414,1.38866,1.2055399999999998,0.98132073,-0.0476073,0.112609575
1764768930.5922947,-2.88414,1.38866,1.2055399999999998,0.98132073,-0.0476073,0.112609575
1764768930.5922947,-2.88414,1.38866,1.2055399999999998,0.98132073,-0.0476073,0.112609575
1764768930.5922947,-2.88414,1.38866,1.2055399999999998,0.98132073,-0.0476073,0.112609575
1764768930.5922947,-3.052,1.77016,0.94612,0.98095452,-0.04772937,0.112487505
1764768930.5922947,-3.052,1.77016,0.94612,0.98095452,-0.04772937,0.112487505
1764768930.5922947,-3.052,1.77016,0.94612,0.98095452,-0.04772937,0.112487505
1764768930.5922947,-3.052,1.77016,0.94612,0.98095452,-0.04772937,0.112487505
1764768930.5933027,-3.052,1.77016,0.94612,0.98095452,-0.04772937,0.112487505
1764768930.5933027,-3.052,1.77016,0.94612,0.98095452,-0.04772937,0.112487505
1764768930.5933027,-3.052,1.77016,0.94612,0.98095452,-0.04772937,0.112487505
1764768930.5933027,-3.052,1.77016,0.94612,0.98095452,-0.04772937,0.112487505
1764768930.5933027,-3.052,1.77016,0.94612,0.98095452,-0.04772937,0.112487505
1764768930.5933027,-3.052,1.77016,0.94612,0.98095452,-0.04772937,0.112487505
1764768930.5933027,-3.11304,1.63282,0.77826,0.98046624,-0.047180055,0.112243365
1764768930.5933027,-3.11304,1.63282,0.77826,0.98046624,-0.047180055,0.112243365
1764768930.5933027,-3.11304,1.63282,0.77826,0.98046624,-0.047180055,0.112243365
1764768930.5933027,-3.11304,1.63282,0.77826,0.98046624,-0.047180055,0.112243365
1764768930.6392488,-3.11304,1.63282,0.77826,0.98046624,-0.047180055,0.112243365
1764768930.6392488,-3.11304,1.63282,0.77826,0.98046624,-0.047180055,0.112243365
1764768930.6392488,-3.11304,1.63282,0.77826,0.98046624,-0.047180055,0.112243365
1764768930.6392488,-3.11304,1.63282,0.77826,0.98046624,-0.047180055,0.112243365
1764768930.6392488,-3.11304,1.63282,0.77826,0.98046624,-0.047180055,0.112243365
1764768930.6392488,-3.11304,1.63282,0.77826,0.98046624,-0.047180055,0.112243365
1764768930.6392488,-3.63188,1.48022,1.09872,0.979794855,-0.04687488,0.112731645
1764768930.6392488,-3.63188,1.48022,1.09872,0.979794855,-0.04687488,0.112731645
1764768930.6392488,-3.63188,1.48022,1.09872,0.979794855,-0.04687488,0.112731645
1764768930.6397698,-3.63188,1.48022,1.09872,0.979794855,-0.04687488,0.112731645
1764768930.6397698,-3.63188,1.48022,1.09872,0.979794855,-0.04687488,0.112731645
1764768930.6397698,-3.63188,1.48022,1.09872,0.979794855,-0.04687488,0.112731645
1764768930.6397698,-3.63188,1.48022,1.09872,0.979794855,-0.04687488,0.112731645
1764768930.6397698,-3.63188,1.48022,1.09872,0.979794855,-0.04687488,0.112731645
1764768930.6397698,-3.63188,1.48022,1.09872,0.979794855,-0.04687488,0.112731645
1764768930.6397698,-3.63188,1.48022,1.09872,0.979794855,-0.04687488,0.112731645
1764768930.6397698,-3.60136,1.46496,0.71722,0.9802221,-0.04724109,0.113219925
1764768930.6397698,-3.60136,1.46496,0.71722,0.9802221,-0.04724109,0.113219925
1764768930.6397698,-3.60136,1.46496,0.71722,0.9802221,-0.04724109,0.113219925
1764768930.6397698,-3.60136,1.46496,0.71722,0.9802221,-0.04724109,0.113219925
1764768930.6397698,-3.60136,1.46496,0.71722,0.9802221,-0.04724109,0.113219925
1764768930.6397698,-3.60136,1.46496,0.71722,0.9802221,-0.04724109,0.113219925
1764768930.6858222,-3.60136,1.46496,0.71722,0.9802221,-0.04724109,0.113219925
1764768930.6858222,-3.60136,1.46496,0.71722,0.9802221,-0.04724109,0.113219925
1764768930.6858222,-3.60136,1.46496,0.71722,0.9802221,-0.04724109,0.113219925
1764768930.6858222,-3.60136,1.46496,0.71722,0.9802221,-0.04724109,0.113219925
1764768930.6858222,-3.69292,1.57178,0.56462,0.981870045,-0.04724109,0.11376924
1764768930.6858222,-3.69292,1.57178,0.56462,0.981870045,-0.04724109,0.11376924
1764768930.6858222,-3.69292,1.57178,0.56462,0.981870045,-0.04724109,0.11376924
1764768930.6858222,-3.69292,1.57178,0.56462,0.981870045,-0.04724109,0.11376924
1764768930.6858222,-3.69292,1.57178,0.56462,0.981870045,-0.04724109,0.11376924
1764768930.6858222,-3.69292,1.57178,0.56462,0.981870045,-0.04724109,0.11376924
1764768930.6858222,-3.69292,1.57178,0.56462,0.981870045,-0.04724109,0.11376924
1764768930.6858222,-3.69292,1.57178,0.56462,0.981870045,-0.04724109,0.11376924
1764768930.6858222,-3.69292,1.57178,0.56462,0.981870045,-0.04724109,0.11376924
1764768930.6858222,-3.69292,1.57178,0.56462,0.981870045,-0.04724109,0.11376924
1764768930.6858222,-3.5861,1.57178,0.3815,0.98107659,-0.04724109,0.11413545
1764768930.6858222,-3.5861,1.57178,0.3815,0.98107659,-0.04724109,0.11413545
1764768930.6858222,-3.5861,1.57178,0.3815,0.98107659,-0.04724109,0.11413545
1764768930.6858222,-3.5861,1.57178,0.3815,0.98107659,-0.04724109,0.11413545
1764768930.6858222,-3.5861,1.57178,0.3815,0.98107659,-0.04724109,0.11413545
1764768930.6858222,-3.5861,1.57178,0.3815,0.98107659,-0.04724109,0.11413545
1764768930.6858222,-3.5861,1.57178,0.3815,0.98107659,-0.04724109,0.11413545
1764768930.6858222,-3.5861,1.57178,0.3815,0.98107659,-0.04724109,0.11413545
1764768930.6858222,-3.5861,1.57178,0.3815,0.98107659,-0.04724109,0.11413545
1764768930.6858222,-3.5861,1.57178,0.3815,0.98107659,-0.04724109,0.11413545
1764768930.7321296,-3.93708,1.09872,0.6103999999999999,0.980038995,-0.046813845,0.11437959
1764768930.7321296,-3.93708,1.09872,0.6103999999999999,0.980038995,-0.046813845,0.11437959
1764768930.7321296,-3.93708,1.09872,0.6103999999999999,0.980038995,-0.046813845,0.11437959
1764768930.7321296,-3.93708,1.09872,0.6103999999999999,0.980038995,-0.046813845,0.11437959
1764768930.7321296,-3.93708,1.09872,0.6103999999999999,0.980038995,-0.046813845,0.11437959
1764768930.7326486,-3.93708,1.09872,0.6103999999999999,0.980038995,-0.046813845,0.11437959
1764768930.7326486,-3.93708,1.09872,0.6103999999999999,0.980038995,-0.046813845,0.11437959
1764768930.7326486,-3.93708,1.09872,0.6103999999999999,0.980038995,-0.046813845,0.11437959
1764768930.7326486,-3.93708,1.09872,0.6103999999999999,0.980038995,-0.046813845,0.11437959
1764768930.7326486,-3.93708,1.09872,0.6103999999999999,0.980038995,-0.046813845,0.11437959
1764768930.7326486,-3.8913,0.85456,0.97664,0.97985589,-0.047424195,0.11498994
1764768930.7326486,-3.8913,0.85456,0.97664,0.97985589,-0.047424195,0.11498994
1764768930.7326486,-3.8913,0.85456,0.97664,0.97985589,-0.047424195,0.11498994
1764768930.7326486,-3.8913,0.85456,0.97664,0.97985589,-0.047424195,0.11498994
1764768930.7326486,-3.8913,0.85456,0.97664,0.97985589,-0.047424195,0.11498994
1764768930.7326486,-3.8913,0.85456,0.97664,0.97985589,-0.047424195,0.11498994
1764768930.7326486,-3.8913,0.85456,0.97664,0.97985589,-0.047424195,0.11498994
1764768930.7326486,-3.8913,0.85456,0.97664,0.97985589,-0.047424195,0.11498994
1764768930.7326486,-3.8913,0.85456,0.97664,0.97985589,-0.047424195,0.11498994
1764768930.7326486,-3.8913,0.85456,0.97664,0.97985589,-0.047424195,0.11498994
1764768930.7326486,-3.4335,0.36624,1.19028,0.9777807,-0.048156615,0.11486787
1764768930.7326486,-3.4335,0.36624,1.19028,0.9777807,-0.048156615,0.11486787
1764768930.7798388,-3.4335,0.36624,1.19028,0.9777807,-0.048156615,0.11486787
1764768930.7798388,-3.4335,0.36624,1.19028,0.9777807,-0.048156615,0.11486787
1764768930.7798388,-3.4335,0.36624,1.19028,0.9777807,-0.048156615,0.11486787
1764768930.7808826,-3.4335,0.36624,1.19028,0.9777807,-0.048156615,0.11486787
1764768930.7808826,-3.4335,0.36624,1.19028,0.9777807,-0.048156615,0.11486787
1764768930.7808826,-3.4335,0.36624,1.19028,0.9777807,-0.048156615,0.11486787
1764768930.7808826,-3.4335,0.36624,1.19028,0.9777807,-0.048156615,0.11486787
1764768930.7808826,-3.4335,0.36624,1.19028,0.9777807,-0.048156615,0.11486787
1764768930.7808826,-3.2046,-0.03052,1.4497,0.97912347,-0.04821765,0.11389131
1764768930.7808826,-3.2046,-0.03052,1.4497,0.97912347,-0.04821765,0.11389131
1764768930.7808826,-3.2046,-0.03052,1.4497,0.97912347,-0.04821765,0.11389131
1764768930.7808826,-3.2046,-0.03052,1.4497,0.97912347,-0.04821765,0.11389131
1764768930.7808826,-3.2046,-0.03052,1.4497,0.97912347,-0.04821765,0.11389131
1764768930.7808826,-3.2046,-0.03052,1.4497,0.97912347,-0.04821765,0.11389131
1764768930.7808826,-3.2046,-0.03052,1.4497,0.97912347,-0.04821765,0.11389131
1764768930.7808826,-3.2046,-0.03052,1.4497,0.97912347,-0.04821765,0.11389131
1764768930.7808826,-3.2046,-0.03052,1.4497,0.97912347,-0.04821765,0.11389131
1764768930.7808826,-3.2046,-0.03052,1.4497,0.97912347,-0.04821765,0.11389131
1764768930.7808826,-3.72344,0.27468,0.6103999999999999,0.981625905,-0.04785144,0.1135251
1764768930.7808826,-3.72344,0.27468,0.6103999999999999,0.981625905,-0.04785144,0.1135251
1764768930.7808826,-3.72344,0.27468,0.6103999999999999,0.981625905,-0.04785144,0.1135251
1764768930.7808826,-3.72344,0.27468,0.6103999999999999,0.981625905,-0.04785144,0.1135251
1764768930.7808826,-3.72344,0.27468,0.6103999999999999,0.981625905,-0.04785144,0.1135251
1764768930.7808826,-3.72344,0.27468,0.6103999999999999,0.981625905,-0.04785144,0.1135251
1764768930.7808826,-3.72344,0.27468,0.6103999999999999,0.981625905,-0.04785144,0.1135251
1764768930.7808826,-3.72344,0.27468,0.6103999999999999,0.981625905,-0.04785144,0.1135251
1764768930.826969,-3.72344,0.27468,0.6103999999999999,0.981625905,-0.04785144,0.1135251
1764768930.826969,-3.72344,0.27468,0.6103999999999999,0.981625905,-0.04785144,0.1135251
1764768930.826969,-3.63188,1.09872,0.65618,0.98193108,-0.046203495,0.112853715
1764768930.826969,-3.63188,1.09872,0.65618,0.98193108,-0.046203495,0.112853715
1764768930.826969,-3.63188,1.09872,0.65618,0.98193108,-0.046203495,0.112853715
1764768930.826969,-3.63188,1.09872,0.65618,0.98193108,-0.046203495,0.112853715
1764768930.826969,-3.63188,1.09872,0.65618,0.98193108,-0.046203495,0.112853715
1764768930.826969,-3.63188,1.09872,0.65618,0.98193108,-0.046203495,0.112853715
1764768930.826969,-3.63188,1.09872,0.65618,0.98193108,-0.046203495,0.112853715
1764768930.826969,-3.63188,1.09872,0.65618,0.98193108,-0.046203495,0.112853715
1764768930.826969,-3.63188,1.09872,0.65618,0.98193108,-0.046203495,0.112853715
1764768930.826969,-3.63188,1.09872,0.65618,0.98193108,-0.046203495,0.112853715
1764768930.826969,-4.18124,1.17502,-0.27468,0.98083245,-0.04614246,0.11303682
1764768930.826969,-4.18124,1.17502,-0.27468,0.98083245,-0.04614246,0.11303682
1764768930.826969,-4.18124,1.17502,-0.27468,0.98083245,-0.04614246,0.11303682
1764768930.826969,-4.18124,1.17502,-0.27468,0.98083245,-0.04614246,0.11303682
1764768930.826969,-4.18124,1.17502,-0.27468,0.98083245,-0.04614246,0.11303682
1764768930.826969,-4.18124,1.17502,-0.27468,0.98083245,-0.04614246,0.11303682
1764768930.826969,-4.18124,1.17502,-0.27468,0.98083245,-0.04614246,0.11303682
1764768930.826969,-4.18124,1.17502,-0.27468,0.98083245,-0.04614246,0.11303682
1764768930.826969,-4.18124,1.17502,-0.27468,0.98083245,-0.04614246,0.11303682
1764768930.826969,-4.18124,1.17502,-0.27468,0.98083245,-0.04614246,0.11303682
1764768930.8732572,-3.98286,1.72438,-0.59514,0.98034417,-0.04553211,0.11303682
1764768930.8737628,-3.98286,1.72438,-0.59514,0.98034417,-0.04553211,0.11303682
1764768930.8737628,-3.98286,1.72438,-0.59514,0.98034417,-0.04553211,0.11303682
1764768930.8737628,-3.98286,1.72438,-0.59514,0.98034417,-0.04553211,0.11303682
1764768930.8737628,-3.98286,1.72438,-0.59514,0.98034417,-0.04553211,0.11303682
1764768930.8737628,-3.98286,1.72438,-0.59514,0.98034417,-0.04553211,0.11303682
1764768930.8737628,-3.98286,1.72438,-0.59514,0.98034417,-0.04553211,0.11303682
1764768930.8737628,-3.98286,1.72438,-0.59514,0.98034417,-0.04553211,0.11303682
1764768930.8737628,-3.98286,1.72438,-0.59514,0.98034417,-0.04553211,0.11303682
1764768930.8737628,-3.98286,1.72438,-0.59514,0.98034417,-0.04553211,0.11303682
1764768930.8737628,-3.61662,1.93802,-0.3509799999999999,0.98107659,-0.045837285,0.11328096
1764768930.8737628,-3.61662,1.93802,-0.3509799999999999,0.98107659,-0.045837285,0.11328096
1764768930.8737628,-3.61662,1.93802,-0.3509799999999999,0.98107659,-0.045837285,0.11328096
1764768930.8737628,-3.61662,1.93802,-0.3509799999999999,0.98107659,-0.045837285,0.11328096
1764768930.8737628,-3.61662,1.93802,-0.3509799999999999,0.98107659,-0.045837285,0.11328096
1764768930.8737628,-3.61662,1.93802,-0.3509799999999999,0.98107659,-0.045837285,0.11328096
1764768930.8737628,-3.61662,1.93802,-0.3509799999999999,0.98107659,-0.045837285,0.11328096
1764768930.8737628,-3.61662,1.93802,-0.3509799999999999,0.98107659,-0.045837285,0.11328096
1764768930.8737628,-3.61662,1.93802,-0.3509799999999999,0.98107659,-0.045837285,0.11328096
1764768930.8737628,-3.61662,1.93802,-0.3509799999999999,0.98107659,-0.045837285,0.11328096
1764768930.8737628,-3.63188,2.02958,0.3357199999999999,0.98095452,-0.04602039,0.114074415
1764768930.8737628,-3.63188,2.02958,0.3357199999999999,0.98095452,-0.04602039,0.114074415
1764768930.8737628,-3.63188,2.02958,0.3357199999999999,0.98095452,-0.04602039,0.114074415
1764768930.8737628,-3.63188,2.02958,0.3357199999999999,0.98095452,-0.04602039,0.114074415
1764768930.919624,-3.63188,2.02958,0.3357199999999999,0.98095452,-0.04602039,0.114074415
1764768930.919624,-3.63188,2.02958,0.3357199999999999,0.98095452,-0.04602039,0.114074415
1764768930.919624,-3.63188,2.02958,0.3357199999999999,0.98095452,-0.04602039,0.114074415
1764768930.919624,-3.63188,2.02958,0.3357199999999999,0.98095452,-0.04602039,0.114074415
1764768930.9201286,-3.63188,2.02958,0.3357199999999999,0.98095452,-0.04602039,0.114074415
1764768930.9201286,-3.63188,2.02958,0.3357199999999999,0.98095452,-0.04602039,0.114074415
1764768930.9201286,-3.02148,1.63282,0.2289,0.9802221,-0.0463866,0.114562695
1764768930.9201286,-3.02148,1.63282,0.2289,0.9802221,-0.0463866,0.114562695
1764768930.9201286,-3.02148,1.63282,0.2289,0.9802221,-0.0463866,0.114562695
1764768930.9201286,-3.02148,1.63282,0.2289,0.9802221,-0.0463866,0.114562695
1764768930.9201286,-3.02148,1.63282,0.2289,0.9802221,-0.0463866,0.114562695
1764768930.9201286,-3.02148,1.63282,0.2289,0.9802221,-0.0463866,0.114562695
1764768930.9201286,-3.02148,1.63282,0.2289,0.9802221,-0.0463866,0.114562695
1764768930.9201286,-3.02148,1.63282,0.2289,0.9802221,-0.0463866,0.114562695
1764768930.9201286,-3.02148,1.63282,0.2289,0.9802221,-0.0463866,0.114562695
1764768930.9201286,-3.02148,1.63282,0.2289,0.9802221,-0.0463866,0.114562695
1764768930.9201286,-3.21986,1.72438,0.79352,0.9802221,-0.046935915,0.116149605
1764768930.9201286,-3.21986,1.72438,0.79352,0.9802221,-0.046935915,0.116149605
1764768930.9201286,-3.21986,1.72438,0.79352,0.9802221,-0.046935915,0.116149605
1764768930.9201286,-3.21986,1.72438,0.79352,0.9802221,-0.046935915,0.116149605
1764768930.9201286,-3.21986,1.72438,0.79352,0.9802221,-0.046935915,0.116149605
1764768930.9201286,-3.21986,1.72438,0.79352,0.9802221,-0.046935915,0.116149605
1764768930.9663014,-3.21986,1.72438,0.79352,0.9802221,-0.046935915,0.116149605
1764768930.9663014,-3.21986,1.72438,0.79352,0.9802221,-0.046935915,0.116149605
1764768930.9663014,-3.21986,1.72438,0.79352,0.9802221,-0.046935915,0.116149605
1764768930.9668207,-3.21986,1.72438,0.79352,0.9802221,-0.046935915,0.116149605
1764768930.9668207,-2.45686,0.9156,1.02242,0.97973382,-0.047790405,0.11657685
1764768930.9668207,-2.45686,0.9156,1.02242,0.97973382,-0.047790405,0.11657685
1764768930.9668207,-2.45686,0.9156,1.02242,0.97973382,-0.047790405,0.11657685
1764768930.9668207,-2.45686,0.9156,1.02242,0.97973382,-0.047790405,0.11657685
1764768930.9668207,-2.45686,0.9156,1.02242,0.97973382,-0.047790405,0.11657685
1764768930.9668207,-2.45686,0.9156,1.02242,0.97973382,-0.047790405,0.11657685
1764768930.9668207,-2.45686,0.9156,1.02242,0.97973382,-0.047790405,0.11657685
1764768930.9668207,-2.45686,0.9156,1.02242,0.97973382,-0.047790405,0.11657685
1764768930.9668207,-2.45686,0.9156,1.02242,0.97973382,-0.047790405,0.11657685
1764768930.9668207,-2.45686,0.9156,1.02242,0.97973382,-0.047790405,0.11657685
1764768930.9668207,-2.54842,1.0682,0.96138,0.98034417,-0.047424195,0.11706513
1764768930.9668207,-2.54842,1.0682,0.96138,0.98034417,-0.047424195,0.11706513
1764768930.9668207,-2.54842,1.0682,0.96138,0.98034417,-0.047424195,0.11706513
1764768930.9668207,-2.54842,1.0682,0.96138,0.98034417,-0.047424195,0.11706513
1764768930.9668207,-2.54842,1.0682,0.96138,0.98034417,-0.047424195,0.11706513
1764768930.9668207,-2.54842,1.0682,0.96138,0.98034417,-0.047424195,0.11706513
1764768930.9668207,-2.54842,1.0682,0.96138,0.98034417,-0.047424195,0.11706513
1764768930.9668207,-2.54842,1.0682,0.96138,0.98034417,-0.047424195,0.11706513
1764768930.9668207,-2.54842,1.0682,0.96138,0.98034417,-0.047424195,0.11706513
1764768930.9668207,-2.54842,1.0682,0.96138,0.98034417,-0.047424195,0.11706513
1764768931.0095484,-2.8994,0.36624,0.8087799999999999,0.97985589,-0.04602039,0.116149605
1764768931.0095484,-2.8994,0.36624,0.8087799999999999,0.97985589,-0.04602039,0.116149605
1764768931.0095484,-2.8994,0.36624,0.8087799999999999,0.97985589,-0.04602039,0.116149605
1764768931.0095484,-2.8994,0.36624,0.8087799999999999,0.97985589,-0.04602039,0.116149605
1764768931.0095484,-2.8994,0.36624,0.8087799999999999,0.97985589,-0.04602039,0.116149605
1764768931.0095484,-2.8994,0.36624,0.8087799999999999,0.97985589,-0.04602039,0.116149605
1764768931.0095484,-2.8994,0.36624,0.8087799999999999,0.97985589,-0.04602039,0.116149605
1764768931.0095484,-2.8994,0.36624,0.8087799999999999,0.97985589,-0.04602039,0.116149605
1764768931.0095484,-2.8994,0.36624,0.8087799999999999,0.97985589,-0.04602039,0.116149605
1764768931.0095484,-2.8994,0.36624,0.8087799999999999,0.97985589,-0.04602039,0.116149605
1764768931.0095484,-3.64714,0.42728,1.02242,0.97985589,-0.044982795,0.11486787
1764768931.0095484,-3.64714,0.42728,1.02242,0.97985589,-0.044982795,0.11486787
1764768931.0095484,-3.64714,0.42728,1.02242,0.97985589,-0.044982795,0.11486787
1764768931.0095484,-3.64714,0.42728,1.02242,0.97985589,-0.044982795,0.11486787
1764768931.0095484,-3.64714,0.42728,1.02242,0.97985589,-0.044982795,0.11486787
1764768931.0095484,-3.64714,0.42728,1.02242,0.97985589,-0.044982795,0.11486787
1764768931.0095484,-3.64714,0.42728,1.02242,0.97985589,-0.044982795,0.11486787
1764768931.0095484,-3.64714,0.42728,1.02242,0.97985589,-0.044982795,0.11486787
1764768931.0095484,-3.64714,0.42728,1.02242,0.97985589,-0.044982795,0.11486787
1764768931.0095484,-3.64714,0.42728,1.02242,0.97985589,-0.044982795,0.11486787
1764768931.0095484,-4.37962,0.71722,1.2208,0.97887933,-0.04565418,0.11340303
1764768931.0095484,-4.37962,0.71722,1.2208,0.97887933,-0.04565418,0.11340303
1764768931.0095484,-4.37962,0.71722,1.2208,0.97887933,-0.04565418,0.11340303
1764768931.0095484,-4.37962,0.71722,1.2208,0.97887933,-0.04565418,0.11340303
1764768931.0562634,-4.37962,0.71722,1.2208,0.97887933,-0.04565418,0.11340303
1764768931.0562634,-4.37962,0.71722,1.2208,0.97887933,-0.04565418,0.11340303
1764768931.056776,-4.37962,0.71722,1.2208,0.97887933,-0.04565418,0.11340303
1764768931.056776,-4.37962,0.71722,1.2208,0.97887933,-0.04565418,0.11340303
1764768931.056776,-4.37962,0.71722,1.2208,0.97887933,-0.04565418,0.11340303
1764768931.056776,-4.37962,0.71722,1.2208,0.97887933,-0.04565418,0.11340303
1764768931.056776,-4.54748,0.47306,1.00716,0.980283135,-0.046569705,0.113097855
1764768931.056776,-4.54748,0.47306,1.00716,0.980283135,-0.046569705,0.113097855
1764768931.056776,-4.54748,0.47306,1.00716,0.980283135,-0.046569705,0.113097855
1764768931.056776,-4.54748,0.47306,1.00716,0.980283135,-0.046569705,0.113097855
1764768931.056776,-4.54748,0.47306,1.00716,0.980283135,-0.046569705,0.113097855
1764768931.056776,-4.54748,0.47306,1.00716,0.980283135,-0.046569705,0.113097855
1764768931.056776,-4.54748,0.47306,1.00716,0.980283135,-0.046569705,0.113097855
1764768931.056776,-4.54748,0.47306,1.00716,0.980283135,-0.046569705,0.113097855
1764768931.056776,-4.54748,0.47306,1.00716,0.980283135,-0.046569705,0.113097855
1764768931.056776,-4.54748,0.47306,1.00716,0.980283135,-0.046569705,0.113097855
1764768931.056776,-4.83742,0.6867,0.62566,0.979916925,-0.047057985,0.113097855
1764768931.056776,-4.83742,0.6867,0.62566,0.979916925,-0.047057985,0.113097855
1764768931.0580745,-4.83742,0.6867,0.62566,0.979916925,-0.047057985,0.113097855
1764768931.0580745,-4.83742,0.6867,0.62566,0.979916925,-0.047057985,0.113097855
1764768931.0580745,-4.83742,0.6867,0.62566,0.979916925,-0.047057985,0.113097855
1764768931.0580745,-4.83742,0.6867,0.62566,0.979916925,-0.047057985,0.113097855
1764768931.1040802,-4.83742,0.6867,0.62566,0.979916925,-0.047057985,0.113097855
1764768931.1040802,-4.83742,0.6867,0.62566,0.979916925,-0.047057985,0.113097855
1764768931.1040802,-4.83742,0.6867,0.62566,0.979916925,-0.047057985,0.113097855
1764768931.1040802,-4.83742,0.6867,0.62566,0.979916925,-0.047057985,0.113097855
1764768931.1040802,-5.06632,0.82404,0.19838,0.980527275,-0.04797351,0.11242647
1764768931.1040802,-5.06632,0.82404,0.19838,0.980527275,-0.04797351,0.11242647
1764768931.1040802,-5.06632,0.82404,0.19838,0.980527275,-0.04797351,0.11242647
1764768931.1040802,-5.06632,0.82404,0.19838,0.980527275,-0.04797351,0.11242647
1764768931.1045868,-5.06632,0.82404,0.19838,0.980527275,-0.04797351,0.11242647
1764768931.1045868,-5.06632,0.82404,0.19838,0.980527275,-0.04797351,0.11242647
1764768931.1045868,-5.06632,0.82404,0.19838,0.980527275,-0.04797351,0.11242647
1764768931.1045868,-5.06632,0.82404,0.19838,0.980527275,-0.04797351,0.11242647
1764768931.1045868,-5.06632,0.82404,0.19838,0.980527275,-0.04797351,0.11242647
1764768931.1045868,-5.06632,0.82404,0.19838,0.980527275,-0.04797351,0.11242647
1764768931.1045868,-4.47118,0.6867,-0.51884,0.98156487,-0.048644895,0.112487505
1764768931.1045868,-4.47118,0.6867,-0.51884,0.98156487,-0.048644895,0.112487505
1764768931.1045868,-4.47118,0.6867,-0.51884,0.98156487,-0.048644895,0.112487505
1764768931.1045868,-4.47118,0.6867,-0.51884,0.98156487,-0.048644895,0.112487505
1764768931.1045868,-4.47118,0.6867,-0.51884,0.98156487,-0.048644895,0.112487505
1764768931.1045868,-4.47118,0.6867,-0.51884,0.98156487,-0.048644895,0.112487505
1764768931.1045868,-4.47118,0.6867,-0.51884,0.98156487,-0.048644895,0.112487505
1764768931.1045868,-4.47118,0.6867,-0.51884,0.98156487,-0.048644895,0.112487505
1764768931.1510656,-4.47118,0.6867,-0.51884,0.98156487,-0.048644895,0.112487505
1764768931.1510656,-4.47118,0.6867,-0.51884,0.98156487,-0.048644895,0.112487505
1764768931.1510656,-4.1202,1.2971,-0.44254,0.98132073,-0.04919421,0.11291475
1764768931.1510656,-4.1202,1.2971,-0.44254,0.98132073,-0.04919421,0.11291475
1764768931.1510656,-4.1202,1.2971,-0.44254,0.98132073,-0.04919421,0.11291475
1764768931.1510656,-4.1202,1.2971,-0.44254,0.98132073,-0.04919421,0.11291475
1764768931.1510656,-4.1202,1.2971,-0.44254,0.98132073,-0.04919421,0.11291475
1764768931.1510656,-4.1202,1.2971,-0.44254,0.98132073,-0.04919421,0.11291475
1764768931.151589,-4.1202,1.2971,-0.44254,0.98132073,-0.04919421,0.11291475
1764768931.151589,-4.1202,1.2971,-0.44254,0.98132073,-0.04919421,0.11291475
1764768931.151589,-4.1202,1.2971,-0.44254,0.98132073,-0.04919421,0.11291475
1764768931.151589,-4.1202,1.2971,-0.44254,0.98132073,-0.04919421,0.11291475
1764768931.151589,-4.33384,1.51074,-0.6103999999999999,0.98095452,-0.04833972,0.113097855
1764768931.151589,-4.33384,1.51074,-0.6103999999999999,0.98095452,-0.04833972,0.113097855
1764768931.151589,-4.33384,1.51074,-0.6103999999999999,0.98095452,-0.04833972,0.113097855
1764768931.151589,-4.33384,1.51074,-0.6103999999999999,0.98095452,-0.04833972,0.113097855
1764768931.151589,-4.33384,1.51074,-0.6103999999999999,0.98095452,-0.04833972,0.113097855
1764768931.151589,-4.33384,1.51074,-0.6103999999999999,0.98095452,-0.04833972,0.113097855
1764768931.151589,-4.33384,1.51074,-0.6103999999999999,0.98095452,-0.04833972,0.113097855
1764768931.151589,-4.33384,1.51074,-0.6103999999999999,0.98095452,-0.04833972,0.113097855
1764768931.151589,-4.33384,1.51074,-0.6103999999999999,0.98095452,-0.04833972,0.113097855
1764768931.151589,-4.33384,1.51074,-0.6103999999999999,0.98095452,-0.04833972,0.113097855
1764768931.151589,-3.9676,1.2055399999999998,-0.18312,0.98119866,-0.047302125,0.113830275
1764768931.151589,-3.9676,1.2055399999999998,-0.18312,0.98119866,-0.047302125,0.113830275
1764768931.1972308,-3.9676,1.2055399999999998,-0.18312,0.98119866,-0.047302125,0.113830275
1764768931.1972308,-3.9676,1.2055399999999998,-0.18312,0.98119866,-0.047302125,0.113830275
1764768931.1977756,-3.9676,1.2055399999999998,-0.18312,0.98119866,-0.047302125,0.113830275
1764768931.1977756,-3.9676,1.2055399999999998,-0.18312,0.98119866,-0.047302125,0.113830275
1764768931.1977756,-3.9676,1.2055399999999998,-0.18312,0.98119866,-0.047302125,0.113830275
1764768931.1977756,-3.9676,1.2055399999999998,-0.18312,0.98119866,-0.047302125,0.113830275
1764768931.1977756,-3.9676,1.2055399999999998,-0.18312,0.98119866,-0.047302125,0.113830275
1764768931.1977756,-3.9676,1.2055399999999998,-0.18312,0.98119866,-0.047302125,0.113830275
1764768931.1977756,-3.75396,1.0682,-0.01526,0.98058831,-0.045959355,0.11450166
1764768931.1977756,-3.75396,1.0682,-0.01526,0.98058831,-0.045959355,0.11450166
1764768931.1977756,-3.75396,1.0682,-0.01526,0.98058831,-0.045959355,0.11450166
1764768931.1977756,-3.75396,1.0682,-0.01526,0.98058831,-0.045959355,0.11450166
1764768931.1977756,-3.75396,1.0682,-0.01526,0.98058831,-0.045959355,0.11450166
1764768931.1977756,-3.75396,1.0682,-0.01526,0.98058831,-0.045959355,0.11450166
1764768931.1977756,-3.75396,1.0682,-0.01526,0.98058831,-0.045959355,0.11450166
1764768931.1977756,-3.75396,1.0682,-0.01526,0.98058831,-0.045959355,0.11450166
1764768931.1977756,-3.75396,1.0682,-0.01526,0.98058831,-0.045959355,0.11450166
1764768931.1977756,-3.75396,1.0682,-0.01526,0.98058831,-0.045959355,0.11450166
1764768931.1977756,-3.69292,0.8392999999999999,0.74774,0.97997796,-0.04541004,0.11450166
1764768931.1977756,-3.69292,0.8392999999999999,0.74774,0.97997796,-0.04541004,0.11450166
1764768931.1977756,-3.69292,0.8392999999999999,0.74774,0.97997796,-0.04541004,0.11450166
1764768931.1977756,-3.69292,0.8392999999999999,0.74774,0.97997796,-0.04541004,0.11450166
1764768931.1977756,-3.69292,0.8392999999999999,0.74774,0.97997796,-0.04541004,0.11450166
1764768931.1977756,-3.69292,0.8392999999999999,0.74774,0.97997796,-0.04541004,0.11450166
1764768931.2441618,-3.69292,0.8392999999999999,0.74774,0.97997796,-0.04541004,0.11450166
1764768931.2441618,-3.69292,0.8392999999999999,0.74774,0.97997796,-0.04541004,0.11450166
1764768931.2441618,-3.69292,0.8392999999999999,0.74774,0.97997796,-0.04541004,0.11450166
1764768931.2441618,-3.69292,0.8392999999999999,0.74774,0.97997796,-0.04541004,0.11450166
1764768931.2446892,-3.23512,0.85456,0.7019599999999999,0.980405205,-0.04479969,0.11401338
1764768931.2446892,-3.23512,0.85456,0.7019599999999999,0.980405205,-0.04479969,0.11401338
1764768931.2446892,-3.23512,0.85456,0.7019599999999999,0.980405205,-0.04479969,0.11401338
1764768931.2446892,-3.23512,0.85456,0.7019599999999999,0.980405205,-0.04479969,0.11401338
1764768931.2446892,-3.23512,0.85456,0.7019599999999999,0.980405205,-0.04479969,0.11401338
1764768931.2446892,-3.23512,0.85456,0.7019599999999999,0.980405205,-0.04479969,0.11401338
1764768931.2446892,-3.23512,0.85456,0.7019599999999999,0.980405205,-0.04479969,0.11401338
1764768931.2446892,-3.23512,0.85456,0.7019599999999999,0.980405205,-0.04479969,0.11401338
1764768931.2446892,-3.23512,0.85456,0.7019599999999999,0.980405205,-0.04479969,0.11401338
1764768931.2446892,-3.23512,0.85456,0.7019599999999999,0.980405205,-0.04479969,0.11401338
1764768931.2446892,-3.76922,1.02242,1.03768,0.98107659,-0.044250375,0.11315889
1764768931.2446892,-3.76922,1.02242,1.03768,0.98107659,-0.044250375,0.11315889
1764768931.2446892,-3.76922,1.02242,1.03768,0.98107659,-0.044250375,0.11315889
1764768931.2446892,-3.76922,1.02242,1.03768,0.98107659,-0.044250375,0.11315889
1764768931.2446892,-3.76922,1.02242,1.03768,0.98107659,-0.044250375,0.11315889
1764768931.2446892,-3.76922,1.02242,1.03768,0.98107659,-0.044250375,0.11315889
1764768931.2446892,-3.76922,1.02242,1.03768,0.98107659,-0.044250375,0.11315889
1764768931.2446892,-3.76922,1.02242,1.03768,0.98107659,-0.044250375,0.11315889
1764768931.290871,-3.76922,1.02242,1.03768,0.98107659,-0.044250375,0.11315889
1764768931.290871,-3.76922,1.02242,1.03768,0.98107659,-0.044250375,0.11315889
1764768931.290871,-3.8913,0.85456,1.1445,0.98095452,-0.044250375,0.112975785
1764768931.291878,-3.8913,0.85456,1.1445,0.98095452,-0.044250375,0.112975785
1764768931.291878,-3.8913,0.85456,1.1445,0.98095452,-0.044250375,0.112975785
1764768931.291878,-3.8913,0.85456,1.1445,0.98095452,-0.044250375,0.112975785
1764768931.291878,-3.8913,0.85456,1.1445,0.98095452,-0.044250375,0.112975785
1764768931.291878,-3.8913,0.85456,1.1445,0.98095452,-0.044250375,0.112975785
1764768931.291878,-3.8913,0.85456,1.1445,0.98095452,-0.044250375,0.112975785
1764768931.291878,-3.8913,0.85456,1.1445,0.98095452,-0.044250375,0.112975785
1764768931.291878,-3.8913,0.85456,1.1445,0.98095452,-0.044250375,0.112975785
1764768931.291878,-3.8913,0.85456,1.1445,0.98095452,-0.044250375,0.112975785
1764768931.291878,-3.72344,1.03768,1.15976,0.980527275,-0.045471075,0.113586135
1764768931.291878,-3.72344,1.03768,1.15976,0.980527275,-0.045471075,0.113586135
1764768931.291878,-3.72344,1.03768,1.15976,0.980527275,-0.045471075,0.113586135
1764768931.291878,-3.72344,1.03768,1.15976,0.980527275,-0.045471075,0.113586135
1764768931.291878,-3.72344,1.03768,1.15976,0.980527275,-0.045471075,0.113586135
1764768931.291878,-3.72344,1.03768,1.15976,0.980527275,-0.045471075,0.113586135
1764768931.291878,-3.72344,1.03768,1.15976,0.980527275,-0.045471075,0.113586135
1764768931.291878,-3.72344,1.03768,1.15976,0.980527275,-0.045471075,0.113586135
1764768931.291878,-3.72344,1.03768,1.15976,0.980527275,-0.045471075,0.113586135
1764768931.2928767,-3.72344,1.03768,1.15976,0.980527275,-0.045471075,0.113586135
1764768931.2928767,-3.86078,1.03768,1.25132,0.98010003,-0.04650867,0.114196485
1764768931.2928767,-3.86078,1.03768,1.25132,0.98010003,-0.04650867,0.114196485
1764768931.2928767,-3.86078,1.03768,1.25132,0.98010003,-0.04650867,0.114196485
1764768931.2928767,-3.86078,1.03768,1.25132,0.98010003,-0.04650867,0.114196485
1764768931.3353367,-3.86078,1.03768,1.25132,0.98010003,-0.04650867,0.114196485
1764768931.3353367,-3.86078,1.03768,1.25132,0.98010003,-0.04650867,0.114196485
1764768931.3353367,-3.86078,1.03768,1.25132,0.98010003,-0.04650867,0.114196485
1764768931.3353367,-3.86078,1.03768,1.25132,0.98010003,-0.04650867,0.114196485
1764768931.3353367,-3.86078,1.03768,1.25132,0.98010003,-0.04650867,0.114196485
1764768931.3353367,-3.86078,1.03768,1.25132,0.98010003,-0.04650867,0.114196485
1764768931.3363636,-3.61662,0.79352,1.51074,0.979428645,-0.047302125,0.11425752
1764768931.3363636,-3.61662,0.79352,1.51074,0.979428645,-0.047302125,0.11425752
1764768931.3363636,-3.61662,0.79352,1.51074,0.979428645,-0.047302125,0.11425752
1764768931.3363636,-3.61662,0.79352,1.51074,0.979428645,-0.047302125,0.11425752
1764768931.3363636,-3.61662,0.79352,1.51074,0.979428645,-0.047302125,0.11425752
1764768931.3363636,-3.61662,0.79352,1.51074,0.979428645,-0.047302125,0.11425752
1764768931.3363636,-3.61662,0.79352,1.51074,0.979428645,-0.047302125,0.11425752
1764768931.3363636,-3.61662,0.79352,1.51074,0.979428645,-0.047302125,0.11425752
1764768931.3363636,-3.61662,0.79352,1.51074,0.979428645,-0.047302125,0.11425752
1764768931.3363636,-3.61662,0.79352,1.51074,0.979428645,-0.047302125,0.11425752
1764768931.3363636,-3.64714,0.8087799999999999,1.31236,0.98083245,-0.0476073,0.11413545
1764768931.3363636,-3.64714,0.8087799999999999,1.31236,0.98083245,-0.0476073,0.11413545
1764768931.3363636,-3.64714,0.8087799999999999,1.31236,0.98083245,-0.0476073,0.11413545
1764768931.3363636,-3.64714,0.8087799999999999,1.31236,0.98083245,-0.0476073,0.11413545
1764768931.382439,-3.64714,0.8087799999999999,1.31236,0.98083245,-0.0476073,0.11413545
1764768931.382439,-3.64714,0.8087799999999999,1.31236,0.98083245,-0.0476073,0.11413545
1764768931.382439,-3.64714,0.8087799999999999,1.31236,0.98083245,-0.0476073,0.11413545
1764768931.382439,-3.64714,0.8087799999999999,1.31236,0.98083245,-0.0476073,0.11413545
1764768931.382439,-3.64714,0.8087799999999999,1.31236,0.98083245,-0.0476073,0.11413545
1764768931.382439,-3.64714,0.8087799999999999,1.31236,0.98083245,-0.0476073,0.11413545
1764768931.382439,-2.92992,1.00716,0.71722,0.981625905,-0.04736316,0.11389131
1764768931.382439,-2.92992,1.00716,0.71722,0.981625905,-0.04736316,0.11389131
1764768931.382439,-2.92992,1.00716,0.71722,0.981625905,-0.04736316,0.11389131
1764768931.382439,-2.92992,1.00716,0.71722,0.981625905,-0.04736316,0.11389131
1764768931.382439,-2.92992,1.00716,0.71722,0.981625905,-0.04736316,0.11389131
1764768931.382439,-2.92992,1.00716,0.71722,0.981625905,-0.04736316,0.11389131
1764768931.382439,-2.92992,1.00716,0.71722,0.981625905,-0.04736316,0.11389131
1764768931.382439,-2.92992,1.00716,0.71722,0.981625905,-0.04736316,0.11389131
1764768931.382439,-2.92992,1.00716,0.71722,0.981625905,-0.04736316,0.11389131
1764768931.382439,-2.92992,1.00716,0.71722,0.981625905,-0.04736316,0.11389131
1764768931.382439,-3.47928,0.763,0.96138,0.98119866,-0.046569705,0.112975785
1764768931.382439,-3.47928,0.763,0.96138,0.98119866,-0.046569705,0.112975785
1764768931.382439,-3.47928,0.763,0.96138,0.98119866,-0.046569705,0.112975785
1764768931.3834443,-3.47928,0.763,0.96138,0.98119866,-0.046569705,0.112975785
1764768931.3834443,-3.47928,0.763,0.96138,0.98119866,-0.046569705,0.112975785
1764768931.3834443,-3.47928,0.763,0.96138,0.98119866,-0.046569705,0.112975785
1764768931.3834443,-3.47928,0.763,0.96138,0.98119866,-0.046569705,0.112975785
1764768931.3834443,-3.47928,0.763,0.96138,0.98119866,-0.046569705,0.112975785
1764768931.430045,-3.47928,0.763,0.96138,0.98119866,-0.046569705,0.112975785
1764768931.430045,-3.47928,0.763,0.96138,0.98119866,-0.046569705,0.112975785
1764768931.430045,-4.16598,1.02242,0.65618,0.981015555,-0.046569705,0.112975785
1764768931.430045,-4.16598,1.02242,0.65618,0.981015555,-0.046569705,0.112975785
1764768931.430045,-4.16598,1.02242,0.65618,0.981015555,-0.046569705,0.112975785
1764768931.430045,-4.16598,1.02242,0.65618,0.981015555,-0.046569705,0.112975785
1764768931.430045,-4.16598,1.02242,0.65618,0.981015555,-0.046569705,0.112975785
1764768931.430045,-4.16598,1.02242,0.65618,0.981015555,-0.046569705,0.112975785
1764768931.430045,-4.16598,1.02242,0.65618,0.981015555,-0.046569705,0.112975785
1764768931.430045,-4.16598,1.02242,0.65618,0.981015555,-0.046569705,0.112975785
1764768931.430045,-4.16598,1.02242,0.65618,0.981015555,-0.046569705,0.112975785
1764768931.430045,-4.16598,1.02242,0.65618,0.981015555,-0.046569705,0.112975785
1764768931.430045,-3.90656,1.58704,0.41202,0.98168694,-0.046569705,0.11315889
1764768931.430045,-3.90656,1.58704,0.41202,0.98168694,-0.046569705,0.11315889
1764768931.430045,-3.90656,1.58704,0.41202,0.98168694,-0.046569705,0.11315889
1764768931.430045,-3.90656,1.58704,0.41202,0.98168694,-0.046569705,0.11315889
1764768931.430045,-3.90656,1.58704,0.41202,0.98168694,-0.046569705,0.11315889
1764768931.430045,-3.90656,1.58704,0.41202,0.98168694,-0.046569705,0.11315889
1764768931.430045,-3.90656,1.58704,0.41202,0.98168694,-0.046569705,0.11315889
1764768931.430045,-3.90656,1.58704,0.41202,0.98168694,-0.046569705,0.11315889
1764768931.430045,-3.90656,1.58704,0.41202,0.98168694,-0.046569705,0.11315889
1764768931.430045,-3.90656,1.58704,0.41202,0.98168694,-0.046569705,0.11315889
1764768931.430045,-3.86078,1.6022999999999998,0.24416,0.98180901,-0.04614246,0.113097855
1764768931.430045,-3.86078,1.6022999999999998,0.24416,0.98180901,-0.04614246,0.113097855
1764768931.4760208,-3.86078,1.6022999999999998,0.24416,0.98180901,-0.04614246,0.113097855
1764768931.4760208,-3.86078,1.6022999999999998,0.24416,0.98180901,-0.04614246,0.113097855
1764768931.4760208,-3.86078,1.6022999999999998,0.24416,0.98180901,-0.04614246,0.113097855
1764768931.4760208,-3.86078,1.6022999999999998,0.24416,0.98180901,-0.04614246,0.113097855
1764768931.4760208,-3.86078,1.6022999999999998,0.24416,0.98180901,-0.04614246,0.113097855
1764768931.4760208,-3.86078,1.6022999999999998,0.24416,0.98180901,-0.04614246,0.113097855
1764768931.4760208,-3.86078,1.6022999999999998,0.24416,0.98180901,-0.04614246,0.113097855
1764768931.4760208,-3.86078,1.6022999999999998,0.24416,0.98180901,-0.04614246,0.113097855
1764768931.4760208,-3.79974,1.6786,0.54936,0.980893485,-0.04626453,0.112487505
1764768931.4760208,-3.79974,1.6786,0.54936,0.980893485,-0.04626453,0.112487505
1764768931.4760208,-3.79974,1.6786,0.54936,0.980893485,-0.04626453,0.112487505
1764768931.4760208,-3.79974,1.6786,0.54936,0.980893485,-0.04626453,0.112487505
1764768931.4760208,-3.79974,1.6786,0.54936,0.980893485,-0.04626453,0.112487505
1764768931.4760208,-3.79974,1.6786,0.54936,0.980893485,-0.04626453,0.112487505
1764768931.4760208,-3.79974,1.6786,0.54936,0.980893485,-0.04626453,0.112487505
1764768931.4760208,-3.79974,1.6786,0.54936,0.980893485,-0.04626453,0.112487505
1764768931.4760208,-3.79974,1.6786,0.54936,0.980893485,-0.04626453,0.112487505
1764768931.4760208,-3.79974,1.6786,0.54936,0.980893485,-0.04626453,0.112487505
1764768931.4760208,-3.5098,1.63282,0.48832,0.981015555,-0.046569705,0.11328096
1764768931.4760208,-3.5098,1.63282,0.48832,0.981015555,-0.046569705,0.11328096
1764768931.4760208,-3.5098,1.63282,0.48832,0.981015555,-0.046569705,0.11328096
1764768931.4760208,-3.5098,1.63282,0.48832,0.981015555,-0.046569705,0.11328096
1764768931.4760208,-3.5098,1.63282,0.48832,0.981015555,-0.046569705,0.11328096
1764768931.4760208,-3.5098,1.63282,0.48832,0.981015555,-0.046569705,0.11328096
1764768931.5231905,-3.5098,1.63282,0.48832,0.981015555,-0.046569705,0.11328096
1764768931.5231905,-3.5098,1.63282,0.48832,0.981015555,-0.046569705,0.11328096
1764768931.5231905,-3.5098,1.63282,0.48832,0.981015555,-0.046569705,0.11328096
1764768931.5231905,-3.5098,1.63282,0.48832,0.981015555,-0.046569705,0.11328096
1764768931.5231905,-3.60136,2.2127,0.82404,0.98119866,-0.04663074,0.11413545
1764768931.5231905,-3.60136,2.2127,0.82404,0.98119866,-0.04663074,0.11413545
1764768931.5231905,-3.60136,2.2127,0.82404,0.98119866,-0.04663074,0.11413545
1764768931.5231905,-3.60136,2.2127,0.82404,0.98119866,-0.04663074,0.11413545
1764768931.5231905,-3.60136,2.2127,0.82404,0.98119866,-0.04663074,0.11413545
1764768931.5231905,-3.60136,2.2127,0.82404,0.98119866,-0.04663074,0.11413545
1764768931.5231905,-3.60136,2.2127,0.82404,0.98119866,-0.04663074,0.11413545
1764768931.5231905,-3.60136,2.2127,0.82404,0.98119866,-0.04663074,0.11413545
1764768931.5231905,-3.60136,2.2127,0.82404,0.98119866,-0.04663074,0.11413545
1764768931.5231905,-3.60136,2.2127,0.82404,0.98119866,-0.04663074,0.11413545
1764768931.5231905,-2.8231,1.87698,1.05294,0.981625905,-0.047057985,0.115050975
1764768931.5231905,-2.8231,1.87698,1.05294,0.981625905,-0.047057985,0.115050975
1764768931.5231905,-2.8231,1.87698,1.05294,0.981625905,-0.047057985,0.115050975
1764768931.5231905,-2.8231,1.87698,1.05294,0.981625905,-0.047057985,0.115050975
1764768931.5231905,-2.8231,1.87698,1.05294,0.981625905,-0.047057985,0.115050975
1764768931.5231905,-2.8231,1.87698,1.05294,0.981625905,-0.047057985,0.115050975
1764768931.5231905,-2.8231,1.87698,1.05294,0.981625905,-0.047057985,0.115050975
1764768931.5231905,-2.8231,1.87698,1.05294,0.981625905,-0.047057985,0.115050975
1764768931.5231905,-2.8231,1.87698,1.05294,0.981625905,-0.047057985,0.115050975
1764768931.5231905,-2.8231,1.87698,1.05294,0.981625905,-0.047057985,0.115050975
1764768931.5704887,-2.5179,2.18218,1.84646,0.980893485,-0.048156615,0.115783395
1764768931.5704887,-2.5179,2.18218,1.84646,0.980893485,-0.048156615,0.115783395
1764768931.5704887,-2.5179,2.18218,1.84646,0.980893485,-0.048156615,0.115783395
1764768931.5704887,-2.5179,2.18218,1.84646,0.980893485,-0.048156615,0.115783395
1764768931.5704887,-2.5179,2.18218,1.84646,0.980893485,-0.048156615,0.115783395
1764768931.5704887,-2.5179,2.18218,1.84646,0.980893485,-0.048156615,0.115783395
1764768931.5704887,-2.5179,2.18218,1.84646,0.980893485,-0.048156615,0.115783395
1764768931.5704887,-2.5179,2.18218,1.84646,0.980893485,-0.048156615,0.115783395
1764768931.5704887,-2.5179,2.18218,1.84646,0.980893485,-0.048156615,0.115783395
1764768931.5704887,-2.5179,2.18218,1.84646,0.980893485,-0.048156615,0.115783395
1764768931.5704887,-1.92276,1.25132,1.6022999999999998,0.978940365,-0.049255245,0.115783395
1764768931.5704887,-1.92276,1.25132,1.6022999999999998,0.978940365,-0.049255245,0.115783395
1764768931.5704887,-1.92276,1.25132,1.6022999999999998,0.978940365,-0.049255245,0.115783395
1764768931.5704887,-1.92276,1.25132,1.6022999999999998,0.978940365,-0.049255245,0.115783395
1764768931.5704887,-1.92276,1.25132,1.6022999999999998,0.978940365,-0.049255245,0.115783395
1764768931.5704887,-1.92276,1.25132,1.6022999999999998,0.978940365,-0.049255245,0.115783395
1764768931.5704887,-1.92276,1.25132,1.6022999999999998,0.978940365,-0.049255245,0.115783395
1764768931.5704887,-1.92276,1.25132,1.6022999999999998,0.978940365,-0.049255245,0.115783395
1764768931.5714972,-1.92276,1.25132,1.6022999999999998,0.978940365,-0.049255245,0.115783395
1764768931.5714972,-1.92276,1.25132,1.6022999999999998,0.978940365,-0.049255245,0.115783395
1764768931.5714972,-2.07536,0.24416,1.31236,0.97839105,-0.049499385,0.115905465
1764768931.5714972,-2.07536,0.24416,1.31236,0.97839105,-0.049499385,0.115905465
1764768931.5714972,-2.07536,0.24416,1.31236,0.97839105,-0.049499385,0.115905465
1764768931.5714972,-2.07536,0.24416,1.31236,0.97839105,-0.049499385,0.115905465
1764768931.6175532,-2.07536,0.24416,1.31236,0.97839105,-0.049499385,0.115905465
1764768931.6175532,-2.07536,0.24416,1.31236,0.97839105,-0.049499385,0.115905465
1764768931.6175532,-2.07536,0.24416,1.31236,0.97839105,-0.049499385,0.115905465
1764768931.6175532,-2.07536,0.24416,1.31236,0.97839105,-0.049499385,0.115905465
1764768931.6175532,-2.07536,0.24416,1.31236,0.97839105,-0.049499385,0.115905465
1764768931.6175532,-2.07536,0.24416,1.31236,0.97839105,-0.049499385,0.115905465
1764768931.6175532,-2.18218,0.21364,0.93086,0.980161065,-0.04943835,0.116393745
1764768931.6175532,-2.18218,0.21364,0.93086,0.980161065,-0.04943835,0.116393745
1764768931.6175532,-2.18218,0.21364,0.93086,0.980161065,-0.04943835,0.116393745
1764768931.6175532,-2.18218,0.21364,0.93086,0.980161065,-0.04943835,0.116393745
1764768931.6175532,-2.18218,0.21364,0.93086,0.980161065,-0.04943835,0.116393745
1764768931.6175532,-2.18218,0.21364,0.93086,0.980161065,-0.04943835,0.116393745
1764768931.6175532,-2.18218,0.21364,0.93086,0.980161065,-0.04943835,0.116393745
1764768931.6175532,-2.18218,0.21364,0.93086,0.980161065,-0.04943835,0.116393745
1764768931.6175532,-2.18218,0.21364,0.93086,0.980161065,-0.04943835,0.116393745
1764768931.6175532,-2.18218,0.21364,0.93086,0.980161065,-0.04943835,0.116393745
1764768931.6175532,-2.91466,0.6867,0.42728,0.981015555,-0.048766965,0.11669892
1764768931.6175532,-2.91466,0.6867,0.42728,0.981015555,-0.048766965,0.11669892
1764768931.6175532,-2.91466,0.6867,0.42728,0.981015555,-0.048766965,0.11669892
1764768931.6175532,-2.91466,0.6867,0.42728,0.981015555,-0.048766965,0.11669892
1764768931.6175532,-2.91466,0.6867,0.42728,0.981015555,-0.048766965,0.11669892
1764768931.6175532,-2.91466,0.6867,0.42728,0.981015555,-0.048766965,0.11669892
1764768931.6641996,-2.91466,0.6867,0.42728,0.981015555,-0.048766965,0.11669892
1764768931.6641996,-2.91466,0.6867,0.42728,0.981015555,-0.048766965,0.11669892
1764768931.6641996,-2.91466,0.6867,0.42728,0.981015555,-0.048766965,0.11669892
1764768931.6641996,-2.91466,0.6867,0.42728,0.981015555,-0.048766965,0.11669892
1764768931.6641996,-3.49454,0.48832,-0.3051999999999999,0.9802221,-0.04675281,0.116271675
1764768931.6641996,-3.49454,0.48832,-0.3051999999999999,0.9802221,-0.04675281,0.116271675
1764768931.6641996,-3.49454,0.48832,-0.3051999999999999,0.9802221,-0.04675281,0.116271675
1764768931.6641996,-3.49454,0.48832,-0.3051999999999999,0.9802221,-0.04675281,0.116271675
1764768931.6641996,-3.49454,0.48832,-0.3051999999999999,0.9802221,-0.04675281,0.116271675
1764768931.6647167,-3.49454,0.48832,-0.3051999999999999,0.9802221,-0.04675281,0.116271675
1764768931.6647167,-3.49454,0.48832,-0.3051999999999999,0.9802221,-0.04675281,0.116271675
1764768931.6647167,-3.49454,0.48832,-0.3051999999999999,0.9802221,-0.04675281,0.116271675
1764768931.6647167,-3.49454,0.48832,-0.3051999999999999,0.9802221,-0.04675281,0.116271675
1764768931.6647167,-3.49454,0.48832,-0.3051999999999999,0.9802221,-0.04675281,0.116271675
1764768931.6647167,-4.39488,0.42728,-1.25132,0.98071038,-0.044982795,0.116149605
1764768931.6647167,-4.39488,0.42728,-1.25132,0.98071038,-0.044982795,0.116149605
1764768931.6647167,-4.39488,0.42728,-1.25132,0.98071038,-0.044982795,0.116149605
1764768931.6647167,-4.39488,0.42728,-1.25132,0.98071038,-0.044982795,0.116149605
1764768931.6647167,-4.39488,0.42728,-1.25132,0.98071038,-0.044982795,0.116149605
1764768931.6647167,-4.39488,0.42728,-1.25132,0.98071038,-0.044982795,0.116149605
1764768931.6647167,-4.39488,0.42728,-1.25132,0.98071038,-0.044982795,0.116149605
1764768931.6647167,-4.39488,0.42728,-1.25132,0.98071038,-0.044982795,0.116149605
1764768931.7092502,-4.39488,0.42728,-1.25132,0.98071038,-0.044982795,0.116149605
1764768931.7092502,-4.39488,0.42728,-1.25132,0.98071038,-0.044982795,0.116149605
1764768931.7092502,-5.20366,0.48832,-0.97664,0.98132073,-0.043762095,0.116149605
1764768931.7092502,-5.20366,0.48832,-0.97664,0.98132073,-0.043762095,0.116149605
1764768931.7092502,-5.20366,0.48832,-0.97664,0.98132073,-0.043762095,0.116149605
1764768931.7092502,-5.20366,0.48832,-0.97664,0.98132073,-0.043762095,0.116149605
1764768931.7092502,-5.20366,0.48832,-0.97664,0.98132073,-0.043762095,0.116149605
1764768931.7092502,-5.20366,0.48832,-0.97664,0.98132073,-0.043762095,0.116149605
1764768931.7092502,-5.20366,0.48832,-0.97664,0.98132073,-0.043762095,0.116149605
1764768931.7092502,-5.20366,0.48832,-0.97664,0.98132073,-0.043762095,0.116149605
1764768931.7092502,-5.20366,0.48832,-0.97664,0.98132073,-0.043762095,0.116149605
1764768931.7092502,-5.20366,0.48832,-0.97664,0.98132073,-0.043762095,0.116149605
1764768931.7092502,-5.27996,1.1445,-0.9156,0.981381765,-0.04479969,0.11535615
1764768931.7092502,-5.27996,1.1445,-0.9156,0.981381765,-0.04479969,0.11535615
1764768931.7092502,-5.27996,1.1445,-0.9156,0.981381765,-0.04479969,0.11535615
1764768931.7092502,-5.27996,1.1445,-0.9156,0.981381765,-0.04479969,0.11535615
1764768931.7092502,-5.27996,1.1445,-0.9156,0.981381765,-0.04479969,0.11535615
1764768931.7092502,-5.27996,1.1445,-0.9156,0.981381765,-0.04479969,0.11535615
1764768931.7108133,-5.27996,1.1445,-0.9156,0.981381765,-0.04479969,0.11535615
1764768931.7108133,-5.27996,1.1445,-0.9156,0.981381765,-0.04479969,0.11535615
1764768931.7108133,-5.27996,1.1445,-0.9156,0.981381765,-0.04479969,0.11535615
1764768931.7108133,-5.27996,1.1445,-0.9156,0.981381765,-0.04479969,0.11535615
1764768931.7108133,-5.32574,0.62566,-0.5341,0.981259695,-0.044738655,0.11535615
1764768931.7108133,-5.32574,0.62566,-0.5341,0.981259695,-0.044738655,0.11535615
1764768931.7578351,-5.32574,0.62566,-0.5341,0.981259695,-0.044738655,0.11535615
1764768931.7578351,-5.32574,0.62566,-0.5341,0.981259695,-0.044738655,0.11535615
1764768931.7578351,-5.32574,0.62566,-0.5341,0.981259695,-0.044738655,0.11535615
1764768931.7578351,-5.32574,0.62566,-0.5341,0.981259695,-0.044738655,0.11535615
1764768931.7578351,-5.32574,0.62566,-0.5341,0.981259695,-0.044738655,0.11535615
1764768931.7578351,-5.32574,0.62566,-0.5341,0.981259695,-0.044738655,0.11535615
1764768931.7578351,-5.32574,0.62566,-0.5341,0.981259695,-0.044738655,0.11535615
1764768931.7578351,-5.32574,0.62566,-0.5341,0.981259695,-0.044738655,0.11535615
1764768931.7578351,-4.63904,0.9156,-0.25942,0.98119866,-0.045471075,0.1159665
1764768931.7578351,-4.63904,0.9156,-0.25942,0.98119866,-0.045471075,0.1159665
1764768931.7578351,-4.63904,0.9156,-0.25942,0.98119866,-0.045471075,0.1159665
1764768931.7578351,-4.63904,0.9156,-0.25942,0.98119866,-0.045471075,0.1159665
1764768931.7578351,-4.63904,0.9156,-0.25942,0.98119866,-0.045471075,0.1159665
1764768931.7578351,-4.63904,0.9156,-0.25942,0.98119866,-0.045471075,0.1159665
1764768931.7578351,-4.63904,0.9156,-0.25942,0.98119866,-0.045471075,0.1159665
1764768931.7578351,-4.63904,0.9156,-0.25942,0.98119866,-0.045471075,0.1159665
1764768931.7578351,-4.63904,0.9156,-0.25942,0.98119866,-0.045471075,0.1159665
1764768931.7578351,-4.63904,0.9156,-0.25942,0.98119866,-0.045471075,0.1159665
1764768931.7578351,-3.86078,0.59514,-0.03052,0.98119866,-0.045715215,0.116027535
1764768931.7578351,-3.86078,0.59514,-0.03052,0.98119866,-0.045715215,0.116027535
1764768931.7578351,-3.86078,0.59514,-0.03052,0.98119866,-0.045715215,0.116027535
1764768931.7578351,-3.86078,0.59514,-0.03052,0.98119866,-0.045715215,0.116027535
1764768931.7578351,-3.86078,0.59514,-0.03052,0.98119866,-0.045715215,0.116027535
1764768931.7578351,-3.86078,0.59514,-0.03052,0.98119866,-0.045715215,0.116027535
1764768931.804628,-3.86078,0.59514,-0.03052,0.98119866,-0.045715215,0.116027535
1764768931.804628,-3.86078,0.59514,-0.03052,0.98119866,-0.045715215,0.116027535
1764768931.804628,-3.86078,0.59514,-0.03052,0.98119866,-0.045715215,0.116027535
1764768931.804628,-3.86078,0.59514,-0.03052,0.98119866,-0.045715215,0.116027535
1764768931.804628,-3.55558,0.28994,0.71722,0.981137625,-0.045349005,0.116149605
1764768931.804628,-3.55558,0.28994,0.71722,0.981137625,-0.045349005,0.116149605
1764768931.804628,-3.55558,0.28994,0.71722,0.981137625,-0.045349005,0.116149605
1764768931.804628,-3.55558,0.28994,0.71722,0.981137625,-0.045349005,0.116149605
1764768931.804628,-3.55558,0.28994,0.71722,0.981137625,-0.045349005,0.116149605
1764768931.804628,-3.55558,0.28994,0.71722,0.981137625,-0.045349005,0.116149605
1764768931.805674,-3.55558,0.28994,0.71722,0.981137625,-0.045349005,0.116149605
1764768931.805674,-3.55558,0.28994,0.71722,0.981137625,-0.045349005,0.116149605
1764768931.805674,-3.55558,0.28994,0.71722,0.981137625,-0.045349005,0.116149605
1764768931.805674,-3.55558,0.28994,0.71722,0.981137625,-0.045349005,0.116149605
1764768931.805674,-3.11304,0.57988,0.77826,0.979916925,-0.04492176,0.116393745
1764768931.805674,-3.11304,0.57988,0.77826,0.979916925,-0.04492176,0.116393745
1764768931.805674,-3.11304,0.57988,0.77826,0.979916925,-0.04492176,0.116393745
1764768931.805674,-3.11304,0.57988,0.77826,0.979916925,-0.04492176,0.116393745
1764768931.805674,-3.11304,0.57988,0.77826,0.979916925,-0.04492176,0.116393745
1764768931.805674,-3.11304,0.57988,0.77826,0.979916925,-0.04492176,0.116393745
1764768931.805674,-3.11304,0.57988,0.77826,0.979916925,-0.04492176,0.116393745
1764768931.805674,-3.11304,0.57988,0.77826,0.979916925,-0.04492176,0.116393745
1764768931.805674,-3.11304,0.57988,0.77826,0.979916925,-0.04492176,0.116393745
1764768931.8061397,-3.11304,0.57988,0.77826,0.979916925,-0.04492176,0.116393745
1764768931.8529189,-2.91466,0.42728,1.00716,0.9790014,-0.04467762,0.115173045
1764768931.8529189,-2.91466,0.42728,1.00716,0.9790014,-0.04467762,0.115173045
1764768931.8529189,-2.91466,0.42728,1.00716,0.9790014,-0.04467762,0.115173045
1764768931.8529189,-2.91466,0.42728,1.00716,0.9790014,-0.04467762,0.115173045
1764768931.8529189,-2.91466,0.42728,1.00716,0.9790014,-0.04467762,0.115173045
1764768931.8529189,-2.91466,0.42728,1.00716,0.9790014,-0.04467762,0.115173045
1764768931.8529189,-2.91466,0.42728,1.00716,0.9790014,-0.04467762,0.115173045
1764768931.8529189,-2.91466,0.42728,1.00716,0.9790014,-0.04467762,0.115173045
1764768931.8529189,-2.91466,0.42728,1.00716,0.9790014,-0.04467762,0.115173045
1764768931.8529189,-2.91466,0.42728,1.00716,0.9790014,-0.04467762,0.115173045
1764768931.8529189,-3.15882,0.18312,1.6786,0.97912347,-0.045471075,0.1147458
1764768931.8529189,-3.15882,0.18312,1.6786,0.97912347,-0.045471075,0.1147458
1764768931.8529189,-3.15882,0.18312,1.6786,0.97912347,-0.045471075,0.1147458
1764768931.8529189,-3.15882,0.18312,1.6786,0.97912347,-0.045471075,0.1147458
1764768931.8529189,-3.15882,0.18312,1.6786,0.97912347,-0.045471075,0.1147458
1764768931.8529189,-3.15882,0.18312,1.6786,0.97912347,-0.045471075,0.1147458
1764768931.8529189,-3.15882,0.18312,1.6786,0.97912347,-0.045471075,0.1147458
1764768931.8529189,-3.15882,0.18312,1.6786,0.97912347,-0.045471075,0.1147458
1764768931.8529189,-3.15882,0.18312,1.6786,0.97912347,-0.045471075,0.1147458
1764768931.8529189,-3.15882,0.18312,1.6786,0.97912347,-0.045471075,0.1147458
1764768931.8529189,-3.4335,0.09156,1.54126,0.979062435,-0.04602039,0.11389131
1764768931.8529189,-3.4335,0.09156,1.54126,0.979062435,-0.04602039,0.11389131
1764768931.8529189,-3.4335,0.09156,1.54126,0.979062435,-0.04602039,0.11389131
1764768931.8529189,-3.4335,0.09156,1.54126,0.979062435,-0.04602039,0.11389131
1764768931.8997917,-3.4335,0.09156,1.54126,0.979062435,-0.04602039,0.11389131
1764768931.8997917,-3.4335,0.09156,1.54126,0.979062435,-0.04602039,0.11389131
1764768931.8997917,-3.4335,0.09156,1.54126,0.979062435,-0.04602039,0.11389131
1764768931.8997917,-3.4335,0.09156,1.54126,0.979062435,-0.04602039,0.11389131
1764768931.8997917,-3.4335,0.09156,1.54126,0.979062435,-0.04602039,0.11389131
1764768931.8997917,-3.4335,0.09156,1.54126,0.979062435,-0.04602039,0.11389131
1764768931.8997917,-3.14356,-0.10682,1.23606,0.97997796,-0.047180055,0.113708205
1764768931.8997917,-3.14356,-0.10682,1.23606,0.97997796,-0.047180055,0.113708205
1764768931.8997917,-3.14356,-0.10682,1.23606,0.97997796,-0.047180055,0.113708205
1764768931.8997917,-3.14356,-0.10682,1.23606,0.97997796,-0.047180055,0.113708205
1764768931.8997917,-3.14356,-0.10682,1.23606,0.97997796,-0.047180055,0.113708205
1764768931.8997917,-3.14356,-0.10682,1.23606,0.97997796,-0.047180055,0.113708205
1764768931.8997917,-3.14356,-0.10682,1.23606,0.97997796,-0.047180055,0.113708205
1764768931.8997917,-3.14356,-0.10682,1.23606,0.97997796,-0.047180055,0.113708205
1764768931.8997917,-3.14356,-0.10682,1.23606,0.97997796,-0.047180055,0.113708205
1764768931.8997917,-3.14356,-0.10682,1.23606,0.97997796,-0.047180055,0.113708205
1764768931.8997917,-3.49454,0.6409199999999999,0.50358,0.981381765,-0.04748523,0.114196485
1764768931.8997917,-3.49454,0.6409199999999999,0.50358,0.981381765,-0.04748523,0.114196485
1764768931.8997917,-3.49454,0.6409199999999999,0.50358,0.981381765,-0.04748523,0.114196485
1764768931.8997917,-3.49454,0.6409199999999999,0.50358,0.981381765,-0.04748523,0.114196485
1764768931.8997917,-3.49454,0.6409199999999999,0.50358,0.981381765,-0.04748523,0.114196485
1764768931.8997917,-3.49454,0.6409199999999999,0.50358,0.981381765,-0.04748523,0.114196485
1764768931.9436586,-3.49454,0.6409199999999999,0.50358,0.981381765,-0.04748523,0.114196485
1764768931.9436586,-3.49454,0.6409199999999999,0.50358,0.981381765,-0.04748523,0.114196485
1764768931.9436586,-3.49454,0.6409199999999999,0.50358,0.981381765,-0.04748523,0.114196485
1764768931.9436586,-3.49454,0.6409199999999999,0.50358,0.981381765,-0.04748523,0.114196485
1764768931.9436586,-3.93708,0.36624,-0.6867,0.98180901,-0.047424195,0.113586135
1764768931.9436586,-3.93708,0.36624,-0.6867,0.98180901,-0.047424195,0.113586135
1764768931.9436586,-3.93708,0.36624,-0.6867,0.98180901,-0.047424195,0.113586135
1764768931.9436586,-3.93708,0.36624,-0.6867,0.98180901,-0.047424195,0.113586135
1764768931.9436586,-3.93708,0.36624,-0.6867,0.98180901,-0.047424195,0.113586135
1764768931.9436586,-3.93708,0.36624,-0.6867,0.98180901,-0.047424195,0.113586135
1764768931.9436586,-3.93708,0.36624,-0.6867,0.98180901,-0.047424195,0.113586135
1764768931.9436586,-3.93708,0.36624,-0.6867,0.98180901,-0.047424195,0.113586135
1764768931.9436586,-3.93708,0.36624,-0.6867,0.98180901,-0.047424195,0.113586135
1764768931.9436586,-3.93708,0.36624,-0.6867,0.98180901,-0.047424195,0.113586135
1764768931.9436586,-4.37962,0.41202,-0.88508,0.982236255,-0.04699695,0.113219925
1764768931.9436586,-4.37962,0.41202,-0.88508,0.982236255,-0.04699695,0.113219925
1764768931.9436586,-4.37962,0.41202,-0.88508,0.982236255,-0.04699695,0.113219925
1764768931.9436586,-4.37962,0.41202,-0.88508,0.982236255,-0.04699695,0.113219925
1764768931.9436586,-4.37962,0.41202,-0.88508,0.982236255,-0.04699695,0.113219925
1764768931.9436586,-4.37962,0.41202,-0.88508,0.982236255,-0.04699695,0.113219925
1764768931.9436586,-4.37962,0.41202,-0.88508,0.982236255,-0.04699695,0.113219925
1764768931.9436586,-4.37962,0.41202,-0.88508,0.982236255,-0.04699695,0.113219925
1764768931.9896991,-4.37962,0.41202,-0.88508,0.982236255,-0.04699695,0.113219925
1764768931.9896991,-4.37962,0.41202,-0.88508,0.982236255,-0.04699695,0.113219925
1764768931.9896991,-4.54748,0.39676,-1.19028,0.98254143,-0.04589832,0.11364717
1764768931.9896991,-4.54748,0.39676,-1.19028,0.98254143,-0.04589832,0.11364717
1764768931.9896991,-4.54748,0.39676,-1.19028,0.98254143,-0.04589832,0.11364717
1764768931.9896991,-4.54748,0.39676,-1.19028,0.98254143,-0.04589832,0.11364717
1764768931.9896991,-4.54748,0.39676,-1.19028,0.98254143,-0.04589832,0.11364717
1764768931.9896991,-4.54748,0.39676,-1.19028,0.98254143,-0.04589832,0.11364717
1764768931.9896991,-4.54748,0.39676,-1.19028,0.98254143,-0.04589832,0.11364717
1764768931.9896991,-4.54748,0.39676,-1.19028,0.98254143,-0.04589832,0.11364717
1764768931.9902067,-4.54748,0.39676,-1.19028,0.98254143,-0.04589832,0.11364717
1764768931.9902067,-4.54748,0.39676,-1.19028,0.98254143,-0.04589832,0.11364717
1764768931.9902067,-4.7306,0.88508,-0.93086,0.982236255,-0.045104865,0.112975785
1764768931.9902067,-4.7306,0.88508,-0.93086,0.982236255,-0.045104865,0.112975785
1764768931.9902067,-4.7306,0.88508,-0.93086,0.982236255,-0.045104865,0.112975785
1764768931.9902067,-4.7306,0.88508,-0.93086,0.982236255,-0.045104865,0.112975785
1764768931.9902067,-4.7306,0.88508,-0.93086,0.982236255,-0.045104865,0.112975785
1764768931.9902067,-4.7306,0.88508,-0.93086,0.982236255,-0.045104865,0.112975785
1764768931.9902067,-4.7306,0.88508,-0.93086,0.982236255,-0.045104865,0.112975785
1764768931.9902067,-4.7306,0.88508,-0.93086,0.982236255,-0.045104865,0.112975785
1764768931.9902067,-4.7306,0.88508,-0.93086,0.982236255,-0.045104865,0.112975785
1764768931.9902067,-4.7306,0.88508,-0.93086,0.982236255,-0.045104865,0.112975785
1764768931.9902067,-4.74586,0.77826,-0.4578,0.981259695,-0.044128305,0.11303682
1764768931.9902067,-4.74586,0.77826,-0.4578,0.981259695,-0.044128305,0.11303682
1764768932.0369513,-4.74586,0.77826,-0.4578,0.981259695,-0.044128305,0.11303682
1764768932.0374756,-4.74586,0.77826,-0.4578,0.981259695,-0.044128305,0.11303682
1764768932.0374756,-4.74586,0.77826,-0.4578,0.981259695,-0.044128305,0.11303682
1764768932.0374756,-4.74586,0.77826,-0.4578,0.981259695,-0.044128305,0.11303682
1764768932.0374756,-4.74586,0.77826,-0.4578,0.981259695,-0.044128305,0.11303682
1764768932.0374756,-4.74586,0.77826,-0.4578,0.981259695,-0.044128305,0.11303682
1764768932.0374756,-4.74586,0.77826,-0.4578,0.981259695,-0.044128305,0.11303682
1764768932.0374756,-4.74586,0.77826,-0.4578,0.981259695,-0.044128305,0.11303682
1764768932.0374756,-4.440659999999999,0.59514,-0.13734,0.980405205,-0.04345692,0.11303682
1764768932.0374756,-4.440659999999999,0.59514,-0.13734,0.980405205,-0.04345692,0.11303682
1764768932.0374756,-4.440659999999999,0.59514,-0.13734,0.980405205,-0.04345692,0.11303682
1764768932.0374756,-4.440659999999999,0.59514,-0.13734,0.980405205,-0.04345692,0.11303682
1764768932.0374756,-4.440659999999999,0.59514,-0.13734,0.980405205,-0.04345692,0.11303682
1764768932.0374756,-4.440659999999999,0.59514,-0.13734,0.980405205,-0.04345692,0.11303682
1764768932.0374756,-4.440659999999999,0.59514,-0.13734,0.980405205,-0.04345692,0.11303682
1764768932.0374756,-4.440659999999999,0.59514,-0.13734,0.980405205,-0.04345692,0.11303682
1764768932.0374756,-4.440659999999999,0.59514,-0.13734,0.980405205,-0.04345692,0.11303682
1764768932.0374756,-4.440659999999999,0.59514,-0.13734,0.980405205,-0.04345692,0.11303682
1764768932.0374756,-4.68482,0.36624,0.3357199999999999,0.97985589,-0.042907605,0.11303682
1764768932.0374756,-4.68482,0.36624,0.3357199999999999,0.97985589,-0.042907605,0.11303682
1764768932.0374756,-4.68482,0.36624,0.3357199999999999,0.97985589,-0.042907605,0.11303682
1764768932.0374756,-4.68482,0.36624,0.3357199999999999,0.97985589,-0.042907605,0.11303682
1764768932.0374756,-4.68482,0.36624,0.3357199999999999,0.97985589,-0.042907605,0.11303682
1764768932.0374756,-4.68482,0.36624,0.3357199999999999,0.97985589,-0.042907605,0.11303682
1764768932.0846262,-4.68482,0.36624,0.3357199999999999,0.97985589,-0.042907605,0.11303682
1764768932.0846262,-4.68482,0.36624,0.3357199999999999,0.97985589,-0.042907605,0.11303682
1764768932.0846262,-4.68482,0.36624,0.3357199999999999,0.97985589,-0.042907605,0.11303682
1764768932.0846262,-4.68482,0.36624,0.3357199999999999,0.97985589,-0.042907605,0.11303682
1764768932.0846262,-4.59326,0.65618,0.24416,0.979916925,-0.042907605,0.11267061
1764768932.0846262,-4.59326,0.65618,0.24416,0.979916925,-0.042907605,0.11267061
1764768932.0846262,-4.59326,0.65618,0.24416,0.979916925,-0.042907605,0.11267061
1764768932.0846262,-4.59326,0.65618,0.24416,0.979916925,-0.042907605,0.11267061
1764768932.0846262,-4.59326,0.65618,0.24416,0.979916925,-0.042907605,0.11267061
1764768932.0846262,-4.59326,0.65618,0.24416,0.979916925,-0.042907605,0.11267061
1764768932.0846262,-4.59326,0.65618,0.24416,0.979916925,-0.042907605,0.11267061
1764768932.0846262,-4.59326,0.65618,0.24416,0.979916925,-0.042907605,0.11267061
1764768932.0846262,-4.59326,0.65618,0.24416,0.979916925,-0.042907605,0.11267061
1764768932.0846262,-4.59326,0.65618,0.24416,0.979916925,-0.042907605,0.11267061
1764768932.0846262,-4.37962,0.77826,0.48832,0.98107659,-0.04260243,0.112487505
1764768932.0846262,-4.37962,0.77826,0.48832,0.98107659,-0.04260243,0.112487505
1764768932.0846262,-4.37962,0.77826,0.48832,0.98107659,-0.04260243,0.112487505
1764768932.0846262,-4.37962,0.77826,0.48832,0.98107659,-0.04260243,0.112487505
1764768932.0856318,-4.37962,0.77826,0.48832,0.98107659,-0.04260243,0.112487505
1764768932.0856318,-4.37962,0.77826,0.48832,0.98107659,-0.04260243,0.112487505
1764768932.0856318,-4.37962,0.77826,0.48832,0.98107659,-0.04260243,0.112487505
1764768932.0856318,-4.37962,0.77826,0.48832,0.98107659,-0.04260243,0.112487505
1764768932.0856318,-4.37962,0.77826,0.48832,0.98107659,-0.04260243,0.112487505
1764768932.0856318,-4.37962,0.77826,0.48832,0.98107659,-0.04260243,0.112487505
1764768932.1314783,-4.18124,0.9919,0.6867,0.98095452,-0.04284657,0.11242647
1764768932.1335037,-4.18124,0.9919,0.6867,0.98095452,-0.04284657,0.11242647
1764768932.134504,-4.18124,0.9919,0.6867,0.98095452,-0.04284657,0.11242647
1764768932.134504,-4.18124,0.9919,0.6867,0.98095452,-0.04284657,0.11242647
1764768932.134504,-4.18124,0.9919,0.6867,0.98095452,-0.04284657,0.11242647
1764768932.134504,-4.18124,0.9919,0.6867,0.98095452,-0.04284657,0.11242647
1764768932.134504,-4.18124,0.9919,0.6867,0.98095452,-0.04284657,0.11242647
1764768932.134504,-4.18124,0.9919,0.6867,0.98095452,-0.04284657,0.11242647
1764768932.134504,-4.18124,0.9919,0.6867,0.98095452,-0.04284657,0.11242647
1764768932.134504,-4.18124,0.9919,0.6867,0.98095452,-0.04284657,0.11242647
1764768932.134504,-3.95234,1.25132,1.05294,0.98071038,-0.04321278,0.11193819
1764768932.134504,-3.95234,1.25132,1.05294,0.98071038,-0.04321278,0.11193819
1764768932.134504,-3.95234,1.25132,1.05294,0.98071038,-0.04321278,0.11193819
1764768932.134504,-3.95234,1.25132,1.05294,0.98071038,-0.04321278,0.11193819
1764768932.134504,-3.95234,1.25132,1.05294,0.98071038,-0.04321278,0.11193819
1764768932.134504,-3.95234,1.25132,1.05294,0.98071038,-0.04321278,0.11193819
1764768932.134504,-3.95234,1.25132,1.05294,0.98071038,-0.04321278,0.11193819
1764768932.134504,-3.95234,1.25132,1.05294,0.98071038,-0.04321278,0.11193819
1764768932.134504,-3.95234,1.25132,1.05294,0.98071038,-0.04321278,0.11193819
1764768932.1355033,-3.95234,1.25132,1.05294,0.98071038,-0.04321278,0.11193819
1764768932.1355033,-3.76922,1.02242,0.96138,0.98107659,-0.04345692,0.11206026
1764768932.1355033,-3.76922,1.02242,0.96138,0.98107659,-0.04345692,0.11206026
1764768932.1775758,-3.76922,1.02242,0.96138,0.98107659,-0.04345692,0.11206026
1764768932.1785831,-3.76922,1.02242,0.96138,0.98107659,-0.04345692,0.11206026
1764768932.1785831,-3.76922,1.02242,0.96138,0.98107659,-0.04345692,0.11206026
1764768932.1785831,-3.76922,1.02242,0.96138,0.98107659,-0.04345692,0.11206026
1764768932.1785831,-3.76922,1.02242,0.96138,0.98107659,-0.04345692,0.11206026
1764768932.1785831,-3.76922,1.02242,0.96138,0.98107659,-0.04345692,0.11206026
1764768932.1785831,-3.76922,1.02242,0.96138,0.98107659,-0.04345692,0.11206026
1764768932.1785831,-3.76922,1.02242,0.96138,0.98107659,-0.04345692,0.11206026
1764768932.1785831,-3.2809,1.23606,0.71722,0.981381765,-0.044250375,0.11254854
1764768932.1785831,-3.2809,1.23606,0.71722,0.981381765,-0.044250375,0.11254854
1764768932.1785831,-3.2809,1.23606,0.71722,0.981381765,-0.044250375,0.11254854
1764768932.1785831,-3.2809,1.23606,0.71722,0.981381765,-0.044250375,0.11254854
1764768932.1785831,-3.2809,1.23606,0.71722,0.981381765,-0.044250375,0.11254854
1764768932.1785831,-3.2809,1.23606,0.71722,0.981381765,-0.044250375,0.11254854
1764768932.1785831,-3.2809,1.23606,0.71722,0.981381765,-0.044250375,0.11254854
1764768932.1785831,-3.2809,1.23606,0.71722,0.981381765,-0.044250375,0.11254854
1764768932.1785831,-3.2809,1.23606,0.71722,0.981381765,-0.044250375,0.11254854
1764768932.179581,-3.2809,1.23606,0.71722,0.981381765,-0.044250375,0.11254854
1764768932.179581,-3.18934,0.96138,0.9003399999999999,0.981870045,-0.044494515,0.112853715
1764768932.179581,-3.18934,0.96138,0.9003399999999999,0.981870045,-0.044494515,0.112853715
1764768932.179581,-3.18934,0.96138,0.9003399999999999,0.981870045,-0.044494515,0.112853715
1764768932.179581,-3.18934,0.96138,0.9003399999999999,0.981870045,-0.044494515,0.112853715
1764768932.22554,-3.18934,0.96138,0.9003399999999999,0.981870045,-0.044494515,0.112853715
1764768932.22554,-3.18934,0.96138,0.9003399999999999,0.981870045,-0.044494515,0.112853715
1764768932.22554,-3.18934,0.96138,0.9003399999999999,0.981870045,-0.044494515,0.112853715
1764768932.22554,-3.18934,0.96138,0.9003399999999999,0.981870045,-0.044494515,0.112853715
1764768932.22554,-3.18934,0.96138,0.9003399999999999,0.981870045,-0.044494515,0.112853715
1764768932.22554,-3.18934,0.96138,0.9003399999999999,0.981870045,-0.044494515,0.112853715
1764768932.22554,-2.91466,0.9003399999999999,0.6103999999999999,0.981015555,-0.04492176,0.11328096
1764768932.2265458,-2.91466,0.9003399999999999,0.6103999999999999,0.981015555,-0.04492176,0.11328096
1764768932.2265458,-2.91466,0.9003399999999999,0.6103999999999999,0.981015555,-0.04492176,0.11328096
1764768932.2265458,-2.91466,0.9003399999999999,0.6103999999999999,0.981015555,-0.04492176,0.11328096
1764768932.2265458,-2.91466,0.9003399999999999,0.6103999999999999,0.981015555,-0.04492176,0.11328096
1764768932.2265458,-2.91466,0.9003399999999999,0.6103999999999999,0.981015555,-0.04492176,0.11328096
1764768932.2265458,-2.91466,0.9003399999999999,0.6103999999999999,0.981015555,-0.04492176,0.11328096
1764768932.2265458,-2.91466,0.9003399999999999,0.6103999999999999,0.981015555,-0.04492176,0.11328096
1764768932.2265458,-2.91466,0.9003399999999999,0.6103999999999999,0.981015555,-0.04492176,0.11328096
1764768932.2265458,-2.91466,0.9003399999999999,0.6103999999999999,0.981015555,-0.04492176,0.11328096
1764768932.2265458,-3.18934,0.56462,0.763,0.980405205,-0.044860725,0.11364717
1764768932.2265458,-3.18934,0.56462,0.763,0.980405205,-0.044860725,0.11364717
1764768932.2265458,-3.18934,0.56462,0.763,0.980405205,-0.044860725,0.11364717
1764768932.2265458,-3.18934,0.56462,0.763,0.980405205,-0.044860725,0.11364717
1764768932.2265458,-3.18934,0.56462,0.763,0.980405205,-0.044860725,0.11364717
1764768932.2265458,-3.18934,0.56462,0.763,0.980405205,-0.044860725,0.11364717
1764768932.2265458,-3.18934,0.56462,0.763,0.980405205,-0.044860725,0.11364717
1764768932.2265458,-3.18934,0.56462,0.763,0.980405205,-0.044860725,0.11364717
1764768932.269339,-3.18934,0.56462,0.763,0.980405205,-0.044860725,0.11364717
1764768932.269339,-3.18934,0.56462,0.763,0.980405205,-0.044860725,0.11364717
1764768932.269339,-3.41824,0.39676,0.13734,0.98046624,-0.044128305,0.113219925
1764768932.269339,-3.41824,0.39676,0.13734,0.98046624,-0.044128305,0.113219925
1764768932.2698474,-3.41824,0.39676,0.13734,0.98046624,-0.044128305,0.113219925
1764768932.2698474,-3.41824,0.39676,0.13734,0.98046624,-0.044128305,0.113219925
1764768932.2698474,-3.41824,0.39676,0.13734,0.98046624,-0.044128305,0.113219925
1764768932.2698474,-3.41824,0.39676,0.13734,0.98046624,-0.044128305,0.113219925
1764768932.2698474,-3.41824,0.39676,0.13734,0.98046624,-0.044128305,0.113219925
1764768932.2698474,-3.41824,0.39676,0.13734,0.98046624,-0.044128305,0.113219925
1764768932.2698474,-3.41824,0.39676,0.13734,0.98046624,-0.044128305,0.113219925
1764768932.2698474,-3.41824,0.39676,0.13734,0.98046624,-0.044128305,0.113219925
1764768932.2698474,-4.08968,0.6867,0.03052,0.980893485,-0.04370106,0.1123044
1764768932.2698474,-4.08968,0.6867,0.03052,0.980893485,-0.04370106,0.1123044
1764768932.2698474,-4.08968,0.6867,0.03052,0.980893485,-0.04370106,0.1123044
1764768932.2698474,-4.08968,0.6867,0.03052,0.980893485,-0.04370106,0.1123044
1764768932.2698474,-4.08968,0.6867,0.03052,0.980893485,-0.04370106,0.1123044
1764768932.2698474,-4.08968,0.6867,0.03052,0.980893485,-0.04370106,0.1123044
1764768932.2698474,-4.08968,0.6867,0.03052,0.980893485,-0.04370106,0.1123044
1764768932.2698474,-4.08968,0.6867,0.03052,0.980893485,-0.04370106,0.1123044
1764768932.2698474,-4.08968,0.6867,0.03052,0.980893485,-0.04370106,0.1123044
1764768932.2698474,-4.08968,0.6867,0.03052,0.980893485,-0.04370106,0.1123044
1764768932.2698474,-4.41014,1.02242,-0.01526,0.98095452,-0.042419325,0.11267061
1764768932.2698474,-4.41014,1.02242,-0.01526,0.98095452,-0.042419325,0.11267061
1764768932.3166893,-4.41014,1.02242,-0.01526,0.98095452,-0.042419325,0.11267061
1764768932.3166893,-4.41014,1.02242,-0.01526,0.98095452,-0.042419325,0.11267061
1764768932.3166893,-4.41014,1.02242,-0.01526,0.98095452,-0.042419325,0.11267061
1764768932.3166893,-4.41014,1.02242,-0.01526,0.98095452,-0.042419325,0.11267061
1764768932.3166893,-4.41014,1.02242,-0.01526,0.98095452,-0.042419325,0.11267061
1764768932.3166893,-4.41014,1.02242,-0.01526,0.98095452,-0.042419325,0.11267061
1764768932.3166893,-4.41014,1.02242,-0.01526,0.98095452,-0.042419325,0.11267061
1764768932.3166893,-4.41014,1.02242,-0.01526,0.98095452,-0.042419325,0.11267061
1764768932.3166893,-5.096839999999999,1.11398,0.54936,0.98156487,-0.04199208,0.11181612
1764768932.3166893,-5.096839999999999,1.11398,0.54936,0.98156487,-0.04199208,0.11181612
1764768932.3166893,-5.096839999999999,1.11398,0.54936,0.98156487,-0.04199208,0.11181612
1764768932.3166893,-5.096839999999999,1.11398,0.54936,0.98156487,-0.04199208,0.11181612
1764768932.3166893,-5.096839999999999,1.11398,0.54936,0.98156487,-0.04199208,0.11181612
1764768932.3177514,-5.096839999999999,1.11398,0.54936,0.98156487,-0.04199208,0.11181612
1764768932.3177514,-5.096839999999999,1.11398,0.54936,0.98156487,-0.04199208,0.11181612
1764768932.3177514,-5.096839999999999,1.11398,0.54936,0.98156487,-0.04199208,0.11181612
1764768932.3177514,-5.096839999999999,1.11398,0.54936,0.98156487,-0.04199208,0.11181612
1764768932.3177514,-5.096839999999999,1.11398,0.54936,0.98156487,-0.04199208,0.11181612
1764768932.3177514,-5.20366,1.32762,1.09872,0.98241936,-0.04199208,0.112121295
1764768932.3177514,-5.20366,1.32762,1.09872,0.98241936,-0.04199208,0.112121295
1764768932.3177514,-5.20366,1.32762,1.09872,0.98241936,-0.04199208,0.112121295
1764768932.3177514,-5.20366,1.32762,1.09872,0.98241936,-0.04199208,0.112121295
1764768932.3177514,-5.20366,1.32762,1.09872,0.98241936,-0.04199208,0.112121295
1764768932.3177514,-5.20366,1.32762,1.09872,0.98241936,-0.04199208,0.112121295
1764768932.3636594,-5.20366,1.32762,1.09872,0.98241936,-0.04199208,0.112121295
1764768932.3641796,-5.20366,1.32762,1.09872,0.98241936,-0.04199208,0.112121295
1764768932.3641796,-5.20366,1.32762,1.09872,0.98241936,-0.04199208,0.112121295
1764768932.3641796,-5.20366,1.32762,1.09872,0.98241936,-0.04199208,0.112121295
1764768932.3641796,-4.6543,1.00716,0.8698199999999999,0.98180901,-0.042663465,0.11218233
1764768932.3641796,-4.6543,1.00716,0.8698199999999999,0.98180901,-0.042663465,0.11218233
1764768932.3641796,-4.6543,1.00716,0.8698199999999999,0.98180901,-0.042663465,0.11218233
1764768932.3641796,-4.6543,1.00716,0.8698199999999999,0.98180901,-0.042663465,0.11218233
1764768932.3641796,-4.6543,1.00716,0.8698199999999999,0.98180901,-0.042663465,0.11218233
1764768932.3641796,-4.6543,1.00716,0.8698199999999999,0.98180901,-0.042663465,0.11218233
1764768932.3641796,-4.6543,1.00716,0.8698199999999999,0.98180901,-0.042663465,0.11218233
1764768932.3641796,-4.6543,1.00716,0.8698199999999999,0.98180901,-0.042663465,0.11218233
1764768932.3641796,-4.6543,1.00716,0.8698199999999999,0.98180901,-0.042663465,0.11218233
1764768932.3641796,-4.6543,1.00716,0.8698199999999999,0.98180901,-0.042663465,0.11218233
1764768932.3641796,-3.69292,1.15976,0.96138,0.982114185,-0.043517955,0.113341995
1764768932.3641796,-3.69292,1.15976,0.96138,0.982114185,-0.043517955,0.113341995
1764768932.364694,-3.69292,1.15976,0.96138,0.982114185,-0.043517955,0.113341995
1764768932.364694,-3.69292,1.15976,0.96138,0.982114185,-0.043517955,0.113341995
1764768932.364694,-3.69292,1.15976,0.96138,0.982114185,-0.043517955,0.113341995
1764768932.364694,-3.69292,1.15976,0.96138,0.982114185,-0.043517955,0.113341995
1764768932.364694,-3.69292,1.15976,0.96138,0.982114185,-0.043517955,0.113341995
1764768932.364694,-3.69292,1.15976,0.96138,0.982114185,-0.043517955,0.113341995
1764768932.410464,-3.69292,1.15976,0.96138,0.982114185,-0.043517955,0.113341995
1764768932.410464,-3.69292,1.15976,0.96138,0.982114185,-0.043517955,0.113341995
1764768932.410464,-3.03674,0.8392999999999999,1.15976,0.980038995,-0.04467762,0.113830275
1764768932.410464,-3.03674,0.8392999999999999,1.15976,0.980038995,-0.04467762,0.113830275
1764768932.410464,-3.03674,0.8392999999999999,1.15976,0.980038995,-0.04467762,0.113830275
1764768932.410464,-3.03674,0.8392999999999999,1.15976,0.980038995,-0.04467762,0.113830275
1764768932.410464,-3.03674,0.8392999999999999,1.15976,0.980038995,-0.04467762,0.113830275
1764768932.410464,-3.03674,0.8392999999999999,1.15976,0.980038995,-0.04467762,0.113830275
1764768932.410464,-3.03674,0.8392999999999999,1.15976,0.980038995,-0.04467762,0.113830275
1764768932.410464,-3.03674,0.8392999999999999,1.15976,0.980038995,-0.04467762,0.113830275
1764768932.410464,-3.03674,0.8392999999999999,1.15976,0.980038995,-0.04467762,0.113830275
1764768932.4114914,-3.03674,0.8392999999999999,1.15976,0.980038995,-0.04467762,0.113830275
1764768932.4114914,-2.53316,0.44254,1.7549,0.97839105,-0.046325565,0.113341995
1764768932.4114914,-2.53316,0.44254,1.7549,0.97839105,-0.046325565,0.113341995
1764768932.4114914,-2.53316,0.44254,1.7549,0.97839105,-0.046325565,0.113341995
1764768932.4114914,-2.53316,0.44254,1.7549,0.97839105,-0.046325565,0.113341995
1764768932.4114914,-2.53316,0.44254,1.7549,0.97839105,-0.046325565,0.113341995
1764768932.4114914,-2.53316,0.44254,1.7549,0.97839105,-0.046325565,0.113341995
1764768932.4114914,-2.53316,0.44254,1.7549,0.97839105,-0.046325565,0.113341995
1764768932.4114914,-2.53316,0.44254,1.7549,0.97839105,-0.046325565,0.113341995
1764768932.4114914,-2.53316,0.44254,1.7549,0.97839105,-0.046325565,0.113341995
1764768932.4114914,-2.53316,0.44254,1.7549,0.97839105,-0.046325565,0.113341995
1764768932.45738,-2.70102,0.2289,1.3734,0.97912347,-0.045349005,0.11340303
1764768932.457893,-2.70102,0.2289,1.3734,0.97912347,-0.045349005,0.11340303
1764768932.457893,-2.70102,0.2289,1.3734,0.97912347,-0.045349005,0.11340303
1764768932.457893,-2.70102,0.2289,1.3734,0.97912347,-0.045349005,0.11340303
1764768932.457893,-2.70102,0.2289,1.3734,0.97912347,-0.045349005,0.11340303
1764768932.457893,-2.70102,0.2289,1.3734,0.97912347,-0.045349005,0.11340303
1764768932.457893,-2.70102,0.2289,1.3734,0.97912347,-0.045349005,0.11340303
1764768932.457893,-2.70102,0.2289,1.3734,0.97912347,-0.045349005,0.11340303
1764768932.457893,-2.70102,0.2289,1.3734,0.97912347,-0.045349005,0.11340303
1764768932.457893,-2.70102,0.2289,1.3734,0.97912347,-0.045349005,0.11340303
1764768932.457893,-2.88414,0.8087799999999999,1.4039199999999998,0.98156487,-0.044128305,0.11291475
1764768932.457893,-2.88414,0.8087799999999999,1.4039199999999998,0.98156487,-0.044128305,0.11291475
1764768932.457893,-2.88414,0.8087799999999999,1.4039199999999998,0.98156487,-0.044128305,0.11291475
1764768932.457893,-2.88414,0.8087799999999999,1.4039199999999998,0.98156487,-0.044128305,0.11291475
1764768932.457893,-2.88414,0.8087799999999999,1.4039199999999998,0.98156487,-0.044128305,0.11291475
1764768932.457893,-2.88414,0.8087799999999999,1.4039199999999998,0.98156487,-0.044128305,0.11291475
1764768932.457893,-2.88414,0.8087799999999999,1.4039199999999998,0.98156487,-0.044128305,0.11291475
1764768932.457893,-2.88414,0.8087799999999999,1.4039199999999998,0.98156487,-0.044128305,0.11291475
1764768932.457893,-2.88414,0.8087799999999999,1.4039199999999998,0.98156487,-0.044128305,0.11291475
1764768932.457893,-2.88414,0.8087799999999999,1.4039199999999998,0.98156487,-0.044128305,0.11291475
1764768932.457893,-3.25038,1.35814,0.74774,0.98168694,-0.04284657,0.112731645
1764768932.457893,-3.25038,1.35814,0.74774,0.98168694,-0.04284657,0.112731645
1764768932.457893,-3.25038,1.35814,0.74774,0.98168694,-0.04284657,0.112731645
1764768932.457893,-3.25038,1.35814,0.74774,0.98168694,-0.04284657,0.112731645
1764768932.505291,-3.25038,1.35814,0.74774,0.98168694,-0.04284657,0.112731645
1764768932.505291,-3.25038,1.35814,0.74774,0.98168694,-0.04284657,0.112731645
1764768932.505291,-3.25038,1.35814,0.74774,0.98168694,-0.04284657,0.112731645
1764768932.505291,-3.25038,1.35814,0.74774,0.98168694,-0.04284657,0.112731645
1764768932.505291,-3.25038,1.35814,0.74774,0.98168694,-0.04284657,0.112731645
1764768932.505291,-3.25038,1.35814,0.74774,0.98168694,-0.04284657,0.112731645
1764768932.505291,-4.16598,1.35814,0.04578,0.980771415,-0.04199208,0.112365435
1764768932.505291,-4.16598,1.35814,0.04578,0.980771415,-0.04199208,0.112365435
1764768932.505291,-4.16598,1.35814,0.04578,0.980771415,-0.04199208,0.112365435
1764768932.505291,-4.16598,1.35814,0.04578,0.980771415,-0.04199208,0.112365435
1764768932.505291,-4.16598,1.35814,0.04578,0.980771415,-0.04199208,0.112365435
1764768932.505291,-4.16598,1.35814,0.04578,0.980771415,-0.04199208,0.112365435
1764768932.505291,-4.16598,1.35814,0.04578,0.980771415,-0.04199208,0.112365435
1764768932.505291,-4.16598,1.35814,0.04578,0.980771415,-0.04199208,0.112365435
1764768932.505291,-4.16598,1.35814,0.04578,0.980771415,-0.04199208,0.112365435
1764768932.505291,-4.16598,1.35814,0.04578,0.980771415,-0.04199208,0.112365435
1764768932.505291,-4.41014,1.08346,-0.18312,0.98058831,-0.04162587,0.11267061
1764768932.505291,-4.41014,1.08346,-0.18312,0.98058831,-0.04162587,0.11267061
1764768932.505291,-4.41014,1.08346,-0.18312,0.98058831,-0.04162587,0.11267061
1764768932.505291,-4.41014,1.08346,-0.18312,0.98058831,-0.04162587,0.11267061
1764768932.505291,-4.41014,1.08346,-0.18312,0.98058831,-0.04162587,0.11267061
1764768932.505291,-4.41014,1.08346,-0.18312,0.98058831,-0.04162587,0.11267061
1764768932.505291,-4.41014,1.08346,-0.18312,0.98058831,-0.04162587,0.11267061
1764768932.505291,-4.41014,1.08346,-0.18312,0.98058831,-0.04162587,0.11267061
1764768932.5509968,-4.41014,1.08346,-0.18312,0.98058831,-0.04162587,0.11267061
1764768932.5509968,-4.41014,1.08346,-0.18312,0.98058831,-0.04162587,0.11267061
1764768932.5509968,-4.62378,1.64808,-0.10682,0.979672785,-0.04162587,0.11376924
1764768932.5509968,-4.62378,1.64808,-0.10682,0.979672785,-0.04162587,0.11376924
1764768932.5509968,-4.62378,1.64808,-0.10682,0.979672785,-0.04162587,0.11376924
1764768932.5509968,-4.62378,1.64808,-0.10682,0.979672785,-0.04162587,0.11376924
1764768932.5509968,-4.62378,1.64808,-0.10682,0.979672785,-0.04162587,0.11376924
1764768932.5509968,-4.62378,1.64808,-0.10682,0.979672785,-0.04162587,0.11376924
1764768932.5509968,-4.62378,1.64808,-0.10682,0.979672785,-0.04162587,0.11376924
1764768932.5509968,-4.62378,1.64808,-0.10682,0.979672785,-0.04162587,0.11376924
1764768932.5509968,-4.62378,1.64808,-0.10682,0.979672785,-0.04162587,0.11376924
1764768932.5509968,-4.62378,1.64808,-0.10682,0.979672785,-0.04162587,0.11376924
1764768932.5509968,-4.715339999999999,1.55652,0.3509799999999999,0.980161065,-0.04211415,0.11413545
1764768932.5509968,-4.715339999999999,1.55652,0.3509799999999999,0.980161065,-0.04211415,0.11413545
1764768932.5509968,-4.715339999999999,1.55652,0.3509799999999999,0.980161065,-0.04211415,0.11413545
1764768932.5509968,-4.715339999999999,1.55652,0.3509799999999999,0.980161065,-0.04211415,0.11413545
1764768932.5509968,-4.715339999999999,1.55652,0.3509799999999999,0.980161065,-0.04211415,0.11413545
1764768932.5509968,-4.715339999999999,1.55652,0.3509799999999999,0.980161065,-0.04211415,0.11413545
1764768932.5509968,-4.715339999999999,1.55652,0.3509799999999999,0.980161065,-0.04211415,0.11413545
1764768932.5509968,-4.715339999999999,1.55652,0.3509799999999999,0.980161065,-0.04211415,0.11413545
1764768932.5509968,-4.715339999999999,1.55652,0.3509799999999999,0.980161065,-0.04211415,0.11413545
1764768932.5509968,-4.715339999999999,1.55652,0.3509799999999999,0.980161065,-0.04211415,0.11413545
1764768932.5509968,-4.303319999999999,1.19028,0.9919,0.980527275,-0.04248036,0.114562695
1764768932.5509968,-4.303319999999999,1.19028,0.9919,0.980527275,-0.04248036,0.114562695
1764768932.597195,-4.303319999999999,1.19028,0.9919,0.980527275,-0.04248036,0.114562695
1764768932.597195,-4.303319999999999,1.19028,0.9919,0.980527275,-0.04248036,0.114562695
1764768932.597195,-4.303319999999999,1.19028,0.9919,0.980527275,-0.04248036,0.114562695
1764768932.597195,-4.303319999999999,1.19028,0.9919,0.980527275,-0.04248036,0.114562695
1764768932.597195,-4.303319999999999,1.19028,0.9919,0.980527275,-0.04248036,0.114562695
1764768932.597195,-4.303319999999999,1.19028,0.9919,0.980527275,-0.04248036,0.114562695
1764768932.597195,-4.303319999999999,1.19028,0.9919,0.980527275,-0.04248036,0.114562695
1764768932.597707,-4.303319999999999,1.19028,0.9919,0.980527275,-0.04248036,0.114562695
1764768932.597707,-3.76922,1.02242,1.69386,0.98095452,-0.043640025,0.11498994
1764768932.597707,-3.76922,1.02242,1.69386,0.98095452,-0.043640025,0.11498994
1764768932.597707,-3.76922,1.02242,1.69386,0.98095452,-0.043640025,0.11498994
1764768932.597707,-3.76922,1.02242,1.69386,0.98095452,-0.043640025,0.11498994
1764768932.597707,-3.76922,1.02242,1.69386,0.98095452,-0.043640025,0.11498994
1764768932.597707,-3.76922,1.02242,1.69386,0.98095452,-0.043640025,0.11498994
1764768932.597707,-3.76922,1.02242,1.69386,0.98095452,-0.043640025,0.11498994
1764768932.597707,-3.76922,1.02242,1.69386,0.98095452,-0.043640025,0.11498994
1764768932.597707,-3.76922,1.02242,1.69386,0.98095452,-0.043640025,0.11498994
1764768932.597707,-3.76922,1.02242,1.69386,0.98095452,-0.043640025,0.11498994
1764768932.597707,-3.2046,0.2289,1.54126,0.979916925,-0.043395885,0.114806835
1764768932.597707,-3.2046,0.2289,1.54126,0.979916925,-0.043395885,0.114806835
1764768932.597707,-3.2046,0.2289,1.54126,0.979916925,-0.043395885,0.114806835
1764768932.597707,-3.2046,0.2289,1.54126,0.979916925,-0.043395885,0.114806835
1764768932.597707,-3.2046,0.2289,1.54126,0.979916925,-0.043395885,0.114806835
1764768932.597707,-3.2046,0.2289,1.54126,0.979916925,-0.043395885,0.114806835
1764768932.6436038,-3.2046,0.2289,1.54126,0.979916925,-0.043395885,0.114806835
1764768932.6436038,-3.2046,0.2289,1.54126,0.979916925,-0.043395885,0.114806835
1764768932.6436038,-3.2046,0.2289,1.54126,0.979916925,-0.043395885,0.114806835
1764768932.6436038,-3.2046,0.2289,1.54126,0.979916925,-0.043395885,0.114806835
1764768932.6436038,-2.94518,0.2289,1.32762,0.980893485,-0.043395885,0.11389131
1764768932.6436038,-2.94518,0.2289,1.32762,0.980893485,-0.043395885,0.11389131
1764768932.6436038,-2.94518,0.2289,1.32762,0.980893485,-0.043395885,0.11389131
1764768932.6436038,-2.94518,0.2289,1.32762,0.980893485,-0.043395885,0.11389131
1764768932.6436038,-2.94518,0.2289,1.32762,0.980893485,-0.043395885,0.11389131
1764768932.6436038,-2.94518,0.2289,1.32762,0.980893485,-0.043395885,0.11389131
1764768932.644615,-2.94518,0.2289,1.32762,0.980893485,-0.043395885,0.11389131
1764768932.644615,-2.94518,0.2289,1.32762,0.980893485,-0.043395885,0.11389131
1764768932.644615,-2.94518,0.2289,1.32762,0.980893485,-0.043395885,0.11389131
1764768932.644615,-2.94518,0.2289,1.32762,0.980893485,-0.043395885,0.11389131
1764768932.644615,-3.34194,0.19838,1.6786,0.98205315,-0.04296864,0.113219925
1764768932.644615,-3.34194,0.19838,1.6786,0.98205315,-0.04296864,0.113219925
1764768932.644615,-3.34194,0.19838,1.6786,0.98205315,-0.04296864,0.113219925
1764768932.644615,-3.34194,0.19838,1.6786,0.98205315,-0.04296864,0.113219925
1764768932.644615,-3.34194,0.19838,1.6786,0.98205315,-0.04296864,0.113219925
1764768932.644615,-3.34194,0.19838,1.6786,0.98205315,-0.04296864,0.113219925
1764768932.644615,-3.34194,0.19838,1.6786,0.98205315,-0.04296864,0.113219925
1764768932.644615,-3.34194,0.19838,1.6786,0.98205315,-0.04296864,0.113219925
1764768932.690468,-3.34194,0.19838,1.6786,0.98205315,-0.04296864,0.113219925
1764768932.690468,-3.34194,0.19838,1.6786,0.98205315,-0.04296864,0.113219925
1764768932.690468,-3.7387,1.02242,2.0601,0.981625905,-0.0439452,0.112365435
1764768932.690468,-3.7387,1.02242,2.0601,0.981625905,-0.0439452,0.112365435
1764768932.690468,-3.7387,1.02242,2.0601,0.981625905,-0.0439452,0.112365435
1764768932.690468,-3.7387,1.02242,2.0601,0.981625905,-0.0439452,0.112365435
1764768932.690468,-3.7387,1.02242,2.0601,0.981625905,-0.0439452,0.112365435
1764768932.690468,-3.7387,1.02242,2.0601,0.981625905,-0.0439452,0.112365435
1764768932.690468,-3.7387,1.02242,2.0601,0.981625905,-0.0439452,0.112365435
1764768932.690468,-3.7387,1.02242,2.0601,0.981625905,-0.0439452,0.112365435
1764768932.690468,-3.7387,1.02242,2.0601,0.981625905,-0.0439452,0.112365435
1764768932.690468,-3.7387,1.02242,2.0601,0.981625905,-0.0439452,0.112365435
1764768932.690468,-4.0439,0.88508,1.78542,0.98010003,-0.04443348,0.1110837
1764768932.690468,-4.0439,0.88508,1.78542,0.98010003,-0.04443348,0.1110837
1764768932.690468,-4.0439,0.88508,1.78542,0.98010003,-0.04443348,0.1110837
1764768932.690468,-4.0439,0.88508,1.78542,0.98010003,-0.04443348,0.1110837
1764768932.690468,-4.0439,0.88508,1.78542,0.98010003,-0.04443348,0.1110837
1764768932.690468,-4.0439,0.88508,1.78542,0.98010003,-0.04443348,0.1110837
1764768932.690468,-4.0439,0.88508,1.78542,0.98010003,-0.04443348,0.1110837
1764768932.690468,-4.0439,0.88508,1.78542,0.98010003,-0.04443348,0.1110837
1764768932.690468,-4.0439,0.88508,1.78542,0.98010003,-0.04443348,0.1110837
1764768932.690468,-4.0439,0.88508,1.78542,0.98010003,-0.04443348,0.1110837
1764768932.690468,-4.10494,0.3051999999999999,1.8006799999999998,0.980405205,-0.044982795,0.11071749
1764768932.690468,-4.10494,0.3051999999999999,1.8006799999999998,0.980405205,-0.044982795,0.11071749
1764768932.734702,-4.10494,0.3051999999999999,1.8006799999999998,0.980405205,-0.044982795,0.11071749
1764768932.734702,-4.10494,0.3051999999999999,1.8006799999999998,0.980405205,-0.044982795,0.11071749
1764768932.734702,-4.10494,0.3051999999999999,1.8006799999999998,0.980405205,-0.044982795,0.11071749
1764768932.734702,-4.10494,0.3051999999999999,1.8006799999999998,0.980405205,-0.044982795,0.11071749
1764768932.734702,-4.10494,0.3051999999999999,1.8006799999999998,0.980405205,-0.044982795,0.11071749
1764768932.734702,-4.10494,0.3051999999999999,1.8006799999999998,0.980405205,-0.044982795,0.11071749
1764768932.734702,-4.10494,0.3051999999999999,1.8006799999999998,0.980405205,-0.044982795,0.11071749
1764768932.734702,-4.10494,0.3051999999999999,1.8006799999999998,0.980405205,-0.044982795,0.11071749
1764768932.734702,-3.93708,1.28184,0.94612,0.98168694,-0.045959355,0.11047335
1764768932.734702,-3.93708,1.28184,0.94612,0.98168694,-0.045959355,0.11047335
1764768932.734702,-3.93708,1.28184,0.94612,0.98168694,-0.045959355,0.11047335
1764768932.734702,-3.93708,1.28184,0.94612,0.98168694,-0.045959355,0.11047335
1764768932.734702,-3.93708,1.28184,0.94612,0.98168694,-0.045959355,0.11047335
1764768932.734702,-3.93708,1.28184,0.94612,0.98168694,-0.045959355,0.11047335
1764768932.734702,-3.93708,1.28184,0.94612,0.98168694,-0.045959355,0.11047335
1764768932.734702,-3.93708,1.28184,0.94612,0.98168694,-0.045959355,0.11047335
1764768932.734702,-3.93708,1.28184,0.94612,0.98168694,-0.045959355,0.11047335
1764768932.734702,-3.93708,1.28184,0.94612,0.98168694,-0.045959355,0.11047335
1764768932.734702,-4.08968,1.49548,0.3204599999999999,0.981503835,-0.0463866,0.111633015
1764768932.734702,-4.08968,1.49548,0.3204599999999999,0.981503835,-0.0463866,0.111633015
1764768932.734702,-4.08968,1.49548,0.3204599999999999,0.981503835,-0.0463866,0.111633015
1764768932.734702,-4.08968,1.49548,0.3204599999999999,0.981503835,-0.0463866,0.111633015
1764768932.7822015,-4.08968,1.49548,0.3204599999999999,0.981503835,-0.0463866,0.111633015
1764768932.7822015,-4.08968,1.49548,0.3204599999999999,0.981503835,-0.0463866,0.111633015
1764768932.7822015,-4.08968,1.49548,0.3204599999999999,0.981503835,-0.0463866,0.111633015
1764768932.7822015,-4.08968,1.49548,0.3204599999999999,0.981503835,-0.0463866,0.111633015
1764768932.7822015,-4.08968,1.49548,0.3204599999999999,0.981503835,-0.0463866,0.111633015
1764768932.7822015,-4.08968,1.49548,0.3204599999999999,0.981503835,-0.0463866,0.111633015
1764768932.7822015,-3.61662,1.8312,0.51884,0.981625905,-0.046935915,0.11218233
1764768932.7822015,-3.61662,1.8312,0.51884,0.981625905,-0.046935915,0.11218233
1764768932.7822015,-3.61662,1.8312,0.51884,0.981625905,-0.046935915,0.11218233
1764768932.7822015,-3.61662,1.8312,0.51884,0.981625905,-0.046935915,0.11218233
1764768932.7822015,-3.61662,1.8312,0.51884,0.981625905,-0.046935915,0.11218233
1764768932.7822015,-3.61662,1.8312,0.51884,0.981625905,-0.046935915,0.11218233
1764768932.7822015,-3.61662,1.8312,0.51884,0.981625905,-0.046935915,0.11218233
1764768932.7822015,-3.61662,1.8312,0.51884,0.981625905,-0.046935915,0.11218233
1764768932.7822015,-3.61662,1.8312,0.51884,0.981625905,-0.046935915,0.11218233
1764768932.7822015,-3.61662,1.8312,0.51884,0.981625905,-0.046935915,0.11218233
1764768932.7822015,-2.9757,1.77016,0.51884,0.981381765,-0.04687488,0.11267061
1764768932.7822015,-2.9757,1.77016,0.51884,0.981381765,-0.04687488,0.11267061
1764768932.7822015,-2.9757,1.77016,0.51884,0.981381765,-0.04687488,0.11267061
1764768932.7822015,-2.9757,1.77016,0.51884,0.981381765,-0.04687488,0.11267061
1764768932.7832108,-2.9757,1.77016,0.51884,0.981381765,-0.04687488,0.11267061
1764768932.7832108,-2.9757,1.77016,0.51884,0.981381765,-0.04687488,0.11267061
1764768932.7832108,-2.9757,1.77016,0.51884,0.981381765,-0.04687488,0.11267061
1764768932.7832108,-2.9757,1.77016,0.51884,0.981381765,-0.04687488,0.11267061
1764768932.8287086,-2.9757,1.77016,0.51884,0.981381765,-0.04687488,0.11267061
1764768932.8287086,-2.9757,1.77016,0.51884,0.981381765,-0.04687488,0.11267061
1764768932.8287086,-3.2809,1.72438,0.77826,0.981259695,-0.04565418,0.11303682
1764768932.8287086,-3.2809,1.72438,0.77826,0.981259695,-0.04565418,0.11303682
1764768932.8287086,-3.2809,1.72438,0.77826,0.981259695,-0.04565418,0.11303682
1764768932.8287086,-3.2809,1.72438,0.77826,0.981259695,-0.04565418,0.11303682
1764768932.8287086,-3.2809,1.72438,0.77826,0.981259695,-0.04565418,0.11303682
1764768932.8287086,-3.2809,1.72438,0.77826,0.981259695,-0.04565418,0.11303682
1764768932.8287086,-3.2809,1.72438,0.77826,0.981259695,-0.04565418,0.11303682
1764768932.8287086,-3.2809,1.72438,0.77826,0.981259695,-0.04565418,0.11303682
1764768932.8287086,-3.2809,1.72438,0.77826,0.981259695,-0.04565418,0.11303682
1764768932.8287086,-3.2809,1.72438,0.77826,0.981259695,-0.04565418,0.11303682
1764768932.8287086,-3.14356,1.32762,1.08346,0.980405205,-0.044738655,0.11389131
1764768932.8287086,-3.14356,1.32762,1.08346,0.980405205,-0.044738655,0.11389131
1764768932.8287086,-3.14356,1.32762,1.08346,0.980405205,-0.044738655,0.11389131
1764768932.8287086,-3.14356,1.32762,1.08346,0.980405205,-0.044738655,0.11389131
1764768932.8287086,-3.14356,1.32762,1.08346,0.980405205,-0.044738655,0.11389131
1764768932.8287086,-3.14356,1.32762,1.08346,0.980405205,-0.044738655,0.11389131
1764768932.8287086,-3.14356,1.32762,1.08346,0.980405205,-0.044738655,0.11389131
1764768932.8287086,-3.14356,1.32762,1.08346,0.980405205,-0.044738655,0.11389131
1764768932.8287086,-3.14356,1.32762,1.08346,0.980405205,-0.044738655,0.11389131
1764768932.8287086,-3.14356,1.32762,1.08346,0.980405205,-0.044738655,0.11389131
1764768932.8287086,-2.91466,0.9919,0.9156,0.979916925,-0.044128305,0.11498994
1764768932.8287086,-2.91466,0.9919,0.9156,0.979916925,-0.044128305,0.11498994
1764768932.876442,-2.91466,0.9919,0.9156,0.979916925,-0.044128305,0.11498994
1764768932.876442,-2.91466,0.9919,0.9156,0.979916925,-0.044128305,0.11498994
1764768932.876442,-2.91466,0.9919,0.9156,0.979916925,-0.044128305,0.11498994
1764768932.876442,-2.91466,0.9919,0.9156,0.979916925,-0.044128305,0.11498994
1764768932.876442,-2.91466,0.9919,0.9156,0.979916925,-0.044128305,0.11498994
1764768932.876442,-2.91466,0.9919,0.9156,0.979916925,-0.044128305,0.11498994
1764768932.876442,-2.91466,0.9919,0.9156,0.979916925,-0.044128305,0.11498994
1764768932.876442,-2.91466,0.9919,0.9156,0.979916925,-0.044128305,0.11498994
1764768932.876442,-2.76206,0.73248,1.26658,0.979062435,-0.04406727,0.115173045
1764768932.876442,-2.76206,0.73248,1.26658,0.979062435,-0.04406727,0.115173045
1764768932.876442,-2.76206,0.73248,1.26658,0.979062435,-0.04406727,0.115173045
1764768932.876442,-2.76206,0.73248,1.26658,0.979062435,-0.04406727,0.115173045
1764768932.8774586,-2.76206,0.73248,1.26658,0.979062435,-0.04406727,0.115173045
1764768932.8774586,-2.76206,0.73248,1.26658,0.979062435,-0.04406727,0.115173045
1764768932.8774586,-2.76206,0.73248,1.26658,0.979062435,-0.04406727,0.115173045
1764768932.8774586,-2.76206,0.73248,1.26658,0.979062435,-0.04406727,0.115173045
1764768932.8774586,-2.76206,0.73248,1.26658,0.979062435,-0.04406727,0.115173045
1764768932.8774586,-2.76206,0.73248,1.26658,0.979062435,-0.04406727,0.115173045
1764768932.8774586,-3.11304,0.7019599999999999,1.61756,0.978696225,-0.04382313,0.115295115
1764768932.8774586,-3.11304,0.7019599999999999,1.61756,0.978696225,-0.04382313,0.115295115
1764768932.8774586,-3.11304,0.7019599999999999,1.61756,0.978696225,-0.04382313,0.115295115
1764768932.8774586,-3.11304,0.7019599999999999,1.61756,0.978696225,-0.04382313,0.115295115
1764768932.9245594,-3.11304,0.7019599999999999,1.61756,0.978696225,-0.04382313,0.115295115
1764768932.9245594,-3.11304,0.7019599999999999,1.61756,0.978696225,-0.04382313,0.115295115
1764768932.9245594,-3.11304,0.7019599999999999,1.61756,0.978696225,-0.04382313,0.115295115
1764768932.9245594,-3.11304,0.7019599999999999,1.61756,0.978696225,-0.04382313,0.115295115
1764768932.9245594,-3.11304,0.7019599999999999,1.61756,0.978696225,-0.04382313,0.115295115
1764768932.9245594,-3.11304,0.7019599999999999,1.61756,0.978696225,-0.04382313,0.115295115
1764768932.9245594,-3.67766,0.41202,1.2208,0.979550715,-0.043029675,0.116149605
1764768932.9245594,-3.67766,0.41202,1.2208,0.979550715,-0.043029675,0.116149605
1764768932.9245594,-3.67766,0.41202,1.2208,0.979550715,-0.043029675,0.116149605
1764768932.9245594,-3.67766,0.41202,1.2208,0.979550715,-0.043029675,0.116149605
1764768932.9245594,-3.67766,0.41202,1.2208,0.979550715,-0.043029675,0.116149605
1764768932.9245594,-3.67766,0.41202,1.2208,0.979550715,-0.043029675,0.116149605
1764768932.9245594,-3.67766,0.41202,1.2208,0.979550715,-0.043029675,0.116149605
1764768932.9245594,-3.67766,0.41202,1.2208,0.979550715,-0.043029675,0.116149605
1764768932.9245594,-3.67766,0.41202,1.2208,0.979550715,-0.043029675,0.116149605
1764768932.9245594,-3.67766,0.41202,1.2208,0.979550715,-0.043029675,0.116149605
1764768932.9245594,-3.92182,0.47306,1.25132,0.980038995,-0.04333485,0.11608857
1764768932.9245594,-3.92182,0.47306,1.25132,0.980038995,-0.04333485,0.11608857
1764768932.9245594,-3.92182,0.47306,1.25132,0.980038995,-0.04333485,0.11608857
1764768932.9245594,-3.92182,0.47306,1.25132,0.980038995,-0.04333485,0.11608857
1764768932.9245594,-3.92182,0.47306,1.25132,0.980038995,-0.04333485,0.11608857
1764768932.9245594,-3.92182,0.47306,1.25132,0.980038995,-0.04333485,0.11608857
1764768932.9245594,-3.92182,0.47306,1.25132,0.980038995,-0.04333485,0.11608857
1764768932.9245594,-3.92182,0.47306,1.25132,0.980038995,-0.04333485,0.11608857
1764768932.9711723,-3.92182,0.47306,1.25132,0.980038995,-0.04333485,0.11608857
1764768932.9721828,-3.92182,0.47306,1.25132,0.980038995,-0.04333485,0.11608857
1764768932.9721828,-3.84552,0.10682,1.41918,0.98095452,-0.04370106,0.115417185
1764768932.9721828,-3.84552,0.10682,1.41918,0.98095452,-0.04370106,0.115417185
1764768932.9721828,-3.84552,0.10682,1.41918,0.98095452,-0.04370106,0.115417185
1764768932.9721828,-3.84552,0.10682,1.41918,0.98095452,-0.04370106,0.115417185
1764768932.9721828,-3.84552,0.10682,1.41918,0.98095452,-0.04370106,0.115417185
1764768932.9721828,-3.84552,0.10682,1.41918,0.98095452,-0.04370106,0.115417185
1764768932.9721828,-3.84552,0.10682,1.41918,0.98095452,-0.04370106,0.115417185
1764768932.9721828,-3.84552,0.10682,1.41918,0.98095452,-0.04370106,0.115417185
1764768932.9721828,-3.84552,0.10682,1.41918,0.98095452,-0.04370106,0.115417185
1764768932.9721828,-3.84552,0.10682,1.41918,0.98095452,-0.04370106,0.115417185
1764768932.9721828,-3.90656,0.3509799999999999,1.17502,0.981015555,-0.04492176,0.11523408
1764768932.9721828,-3.90656,0.3509799999999999,1.17502,0.981015555,-0.04492176,0.11523408
1764768932.9721828,-3.90656,0.3509799999999999,1.17502,0.981015555,-0.04492176,0.11523408
1764768932.9721828,-3.90656,0.3509799999999999,1.17502,0.981015555,-0.04492176,0.11523408
1764768932.9721828,-3.90656,0.3509799999999999,1.17502,0.981015555,-0.04492176,0.11523408
1764768932.9721828,-3.90656,0.3509799999999999,1.17502,0.981015555,-0.04492176,0.11523408
1764768932.9721828,-3.90656,0.3509799999999999,1.17502,0.981015555,-0.04492176,0.11523408
1764768932.9721828,-3.90656,0.3509799999999999,1.17502,0.981015555,-0.04492176,0.11523408
1764768932.9721828,-3.90656,0.3509799999999999,1.17502,0.981015555,-0.04492176,0.11523408
1764768932.9721828,-3.90656,0.3509799999999999,1.17502,0.981015555,-0.04492176,0.11523408
1764768932.9721828,-4.08968,-0.18312,1.4497,0.98046624,-0.04492176,0.11437959
1764768932.9721828,-4.08968,-0.18312,1.4497,0.98046624,-0.04492176,0.11437959
1764768933.018754,-4.08968,-0.18312,1.4497,0.98046624,-0.04492176,0.11437959
1764768933.018754,-4.08968,-0.18312,1.4497,0.98046624,-0.04492176,0.11437959
1764768933.018754,-4.08968,-0.18312,1.4497,0.98046624,-0.04492176,0.11437959
1764768933.018754,-4.08968,-0.18312,1.4497,0.98046624,-0.04492176,0.11437959
1764768933.018754,-4.08968,-0.18312,1.4497,0.98046624,-0.04492176,0.11437959
1764768933.018754,-4.08968,-0.18312,1.4497,0.98046624,-0.04492176,0.11437959
1764768933.018754,-4.08968,-0.18312,1.4497,0.98046624,-0.04492176,0.11437959
1764768933.018754,-4.08968,-0.18312,1.4497,0.98046624,-0.04492176,0.11437959
1764768933.018754,-4.22702,-0.12208,1.08346,0.98071038,-0.045593145,0.11376924
1764768933.018754,-4.22702,-0.12208,1.08346,0.98071038,-0.045593145,0.11376924
1764768933.018754,-4.22702,-0.12208,1.08346,0.98071038,-0.045593145,0.11376924
1764768933.018754,-4.22702,-0.12208,1.08346,0.98071038,-0.045593145,0.11376924
1764768933.018754,-4.22702,-0.12208,1.08346,0.98071038,-0.045593145,0.11376924
1764768933.018754,-4.22702,-0.12208,1.08346,0.98071038,-0.045593145,0.11376924
1764768933.018754,-4.22702,-0.12208,1.08346,0.98071038,-0.045593145,0.11376924
1764768933.01976,-4.22702,-0.12208,1.08346,0.98071038,-0.045593145,0.11376924
1764768933.01976,-4.22702,-0.12208,1.08346,0.98071038,-0.045593145,0.11376924
1764768933.01976,-4.22702,-0.12208,1.08346,0.98071038,-0.045593145,0.11376924
1764768933.01976,-3.93708,-0.04578,1.2971,0.98095452,-0.04614246,0.11267061
1764768933.01976,-3.93708,-0.04578,1.2971,0.98095452,-0.04614246,0.11267061
1764768933.01976,-3.93708,-0.04578,1.2971,0.98095452,-0.04614246,0.11267061
1764768933.01976,-3.93708,-0.04578,1.2971,0.98095452,-0.04614246,0.11267061
1764768933.0620582,-3.93708,-0.04578,1.2971,0.98095452,-0.04614246,0.11267061
1764768933.0620582,-3.93708,-0.04578,1.2971,0.98095452,-0.04614246,0.11267061
1764768933.0620582,-3.93708,-0.04578,1.2971,0.98095452,-0.04614246,0.11267061
1764768933.0620582,-3.93708,-0.04578,1.2971,0.98095452,-0.04614246,0.11267061
1764768933.0620582,-3.93708,-0.04578,1.2971,0.98095452,-0.04614246,0.11267061
1764768933.0620582,-3.93708,-0.04578,1.2971,0.98095452,-0.04614246,0.11267061
1764768933.0620582,-3.95234,0.04578,1.2055399999999998,0.98071038,-0.046081425,0.1123044
1764768933.0620582,-3.95234,0.04578,1.2055399999999998,0.98071038,-0.046081425,0.1123044
1764768933.0620582,-3.95234,0.04578,1.2055399999999998,0.98071038,-0.046081425,0.1123044
1764768933.0620582,-3.95234,0.04578,1.2055399999999998,0.98071038,-0.046081425,0.1123044
1764768933.0620582,-3.95234,0.04578,1.2055399999999998,0.98071038,-0.046081425,0.1123044
1764768933.0620582,-3.95234,0.04578,1.2055399999999998,0.98071038,-0.046081425,0.1123044
1764768933.0630636,-3.95234,0.04578,1.2055399999999998,0.98071038,-0.046081425,0.1123044
1764768933.0630636,-3.95234,0.04578,1.2055399999999998,0.98071038,-0.046081425,0.1123044
1764768933.0630636,-3.95234,0.04578,1.2055399999999998,0.98071038,-0.046081425,0.1123044
1764768933.0630636,-3.95234,0.04578,1.2055399999999998,0.98071038,-0.046081425,0.1123044
1764768933.0630636,-3.83026,0.3204599999999999,1.15976,0.982114185,-0.045959355,0.11144991
1764768933.0630636,-3.83026,0.3204599999999999,1.15976,0.982114185,-0.045959355,0.11144991
1764768933.0630636,-3.83026,0.3204599999999999,1.15976,0.982114185,-0.045959355,0.11144991
1764768933.0630636,-3.83026,0.3204599999999999,1.15976,0.982114185,-0.045959355,0.11144991
1764768933.0630636,-3.83026,0.3204599999999999,1.15976,0.982114185,-0.045959355,0.11144991
1764768933.0630636,-3.83026,0.3204599999999999,1.15976,0.982114185,-0.045959355,0.11144991
1764768933.0630636,-3.83026,0.3204599999999999,1.15976,0.982114185,-0.045959355,0.11144991
1764768933.0630636,-3.83026,0.3204599999999999,1.15976,0.982114185,-0.045959355,0.11144991
1764768933.0630636,-3.83026,0.3204599999999999,1.15976,0.982114185,-0.045959355,0.11144991
1764768933.0630636,-3.83026,0.3204599999999999,1.15976,0.982114185,-0.045959355,0.11144991
1764768933.1132822,-4.01338,0.71722,0.71722,0.982602465,-0.0463866,0.11132784
1764768933.1132822,-4.01338,0.71722,0.71722,0.982602465,-0.0463866,0.11132784
1764768933.1132822,-4.01338,0.71722,0.71722,0.982602465,-0.0463866,0.11132784
1764768933.1132822,-4.01338,0.71722,0.71722,0.982602465,-0.0463866,0.11132784
1764768933.1132822,-4.01338,0.71722,0.71722,0.982602465,-0.0463866,0.11132784
1764768933.1132822,-4.01338,0.71722,0.71722,0.982602465,-0.0463866,0.11132784
1764768933.1132822,-4.01338,0.71722,0.71722,0.982602465,-0.0463866,0.11132784
1764768933.1132822,-4.01338,0.71722,0.71722,0.982602465,-0.0463866,0.11132784
1764768933.1132822,-4.01338,0.71722,0.71722,0.982602465,-0.0463866,0.11132784
1764768933.1132822,-4.01338,0.71722,0.71722,0.982602465,-0.0463866,0.11132784
1764768933.113699,-3.9676,0.6409199999999999,0.6867,0.98217522,-0.0463866,0.11071749
1764768933.113699,-3.9676,0.6409199999999999,0.6867,0.98217522,-0.0463866,0.11071749
1764768933.113699,-3.9676,0.6409199999999999,0.6867,0.98217522,-0.0463866,0.11071749
1764768933.113699,-3.9676,0.6409199999999999,0.6867,0.98217522,-0.0463866,0.11071749
1764768933.113699,-3.9676,0.6409199999999999,0.6867,0.98217522,-0.0463866,0.11071749
1764768933.113699,-3.9676,0.6409199999999999,0.6867,0.98217522,-0.0463866,0.11071749
1764768933.113699,-3.9676,0.6409199999999999,0.6867,0.98217522,-0.0463866,0.11071749
1764768933.113699,-3.9676,0.6409199999999999,0.6867,0.98217522,-0.0463866,0.11071749
1764768933.113699,-3.9676,0.6409199999999999,0.6867,0.98217522,-0.0463866,0.11071749
1764768933.113699,-3.9676,0.6409199999999999,0.6867,0.98217522,-0.0463866,0.11071749
1764768933.113699,-4.059159999999999,1.2208,0.96138,0.982358325,-0.046813845,0.110412315
1764768933.113699,-4.059159999999999,1.2208,0.96138,0.982358325,-0.046813845,0.110412315
1764768933.113699,-4.059159999999999,1.2208,0.96138,0.982358325,-0.046813845,0.110412315
1764768933.113699,-4.059159999999999,1.2208,0.96138,0.982358325,-0.046813845,0.110412315
1764768933.16088,-4.059159999999999,1.2208,0.96138,0.982358325,-0.046813845,0.110412315
1764768933.16088,-4.059159999999999,1.2208,0.96138,0.982358325,-0.046813845,0.110412315
1764768933.16088,-4.059159999999999,1.2208,0.96138,0.982358325,-0.046813845,0.110412315
1764768933.16088,-4.059159999999999,1.2208,0.96138,0.982358325,-0.046813845,0.110412315
1764768933.16088,-4.059159999999999,1.2208,0.96138,0.982358325,-0.046813845,0.110412315
1764768933.16088,-4.059159999999999,1.2208,0.96138,0.982358325,-0.046813845,0.110412315
1764768933.16088,-3.9676,1.38866,1.526,0.982358325,-0.047546265,0.110656455
1764768933.16088,-3.9676,1.38866,1.526,0.982358325,-0.047546265,0.110656455
1764768933.16088,-3.9676,1.38866,1.526,0.982358325,-0.047546265,0.110656455
1764768933.16088,-3.9676,1.38866,1.526,0.982358325,-0.047546265,0.110656455
1764768933.16088,-3.9676,1.38866,1.526,0.982358325,-0.047546265,0.110656455
1764768933.16088,-3.9676,1.38866,1.526,0.982358325,-0.047546265,0.110656455
1764768933.16088,-3.9676,1.38866,1.526,0.982358325,-0.047546265,0.110656455
1764768933.16088,-3.9676,1.38866,1.526,0.982358325,-0.047546265,0.110656455
1764768933.16088,-3.9676,1.38866,1.526,0.982358325,-0.047546265,0.110656455
1764768933.16088,-3.9676,1.38866,1.526,0.982358325,-0.047546265,0.110656455
1764768933.16088,-3.64714,0.9919,0.73248,0.981381765,-0.048278685,0.11132784
1764768933.16088,-3.64714,0.9919,0.73248,0.981381765,-0.048278685,0.11132784
1764768933.16088,-3.64714,0.9919,0.73248,0.981381765,-0.048278685,0.11132784
1764768933.16088,-3.64714,0.9919,0.73248,0.981381765,-0.048278685,0.11132784
1764768933.16088,-3.64714,0.9919,0.73248,0.981381765,-0.048278685,0.11132784
1764768933.16088,-3.64714,0.9919,0.73248,0.981381765,-0.048278685,0.11132784
1764768933.2035382,-3.64714,0.9919,0.73248,0.981381765,-0.048278685,0.11132784
1764768933.2035382,-3.64714,0.9919,0.73248,0.981381765,-0.048278685,0.11132784
1764768933.2035382,-3.64714,0.9919,0.73248,0.981381765,-0.048278685,0.11132784
1764768933.2035382,-3.64714,0.9919,0.73248,0.981381765,-0.048278685,0.11132784
1764768933.2035382,-3.32668,1.12924,0.97664,0.98241936,-0.048889035,0.111877155
1764768933.2035382,-3.32668,1.12924,0.97664,0.98241936,-0.048889035,0.111877155
1764768933.204549,-3.32668,1.12924,0.97664,0.98241936,-0.048889035,0.111877155
1764768933.204549,-3.32668,1.12924,0.97664,0.98241936,-0.048889035,0.111877155
1764768933.204549,-3.32668,1.12924,0.97664,0.98241936,-0.048889035,0.111877155
1764768933.204549,-3.32668,1.12924,0.97664,0.98241936,-0.048889035,0.111877155
1764768933.204549,-3.32668,1.12924,0.97664,0.98241936,-0.048889035,0.111877155
1764768933.204549,-3.32668,1.12924,0.97664,0.98241936,-0.048889035,0.111877155
1764768933.204549,-3.32668,1.12924,0.97664,0.98241936,-0.048889035,0.111877155
1764768933.204549,-3.32668,1.12924,0.97664,0.98241936,-0.048889035,0.111877155
1764768933.204549,-2.86888,1.19028,1.0682,0.981259695,-0.048522825,0.11218233
1764768933.204549,-2.86888,1.19028,1.0682,0.981259695,-0.048522825,0.11218233
1764768933.204549,-2.86888,1.19028,1.0682,0.981259695,-0.048522825,0.11218233
1764768933.204549,-2.86888,1.19028,1.0682,0.981259695,-0.048522825,0.11218233
1764768933.204549,-2.86888,1.19028,1.0682,0.981259695,-0.048522825,0.11218233
1764768933.204549,-2.86888,1.19028,1.0682,0.981259695,-0.048522825,0.11218233
1764768933.204549,-2.86888,1.19028,1.0682,0.981259695,-0.048522825,0.11218233
1764768933.204549,-2.86888,1.19028,1.0682,0.981259695,-0.048522825,0.11218233
1764768933.2498832,-2.86888,1.19028,1.0682,0.981259695,-0.048522825,0.11218233
1764768933.2498832,-2.86888,1.19028,1.0682,0.981259695,-0.048522825,0.11218233
1764768933.2498832,-2.86888,0.47306,1.61756,0.978207945,-0.04919421,0.11206026
1764768933.2498832,-2.86888,0.47306,1.61756,0.978207945,-0.04919421,0.11206026
1764768933.2498832,-2.86888,0.47306,1.61756,0.978207945,-0.04919421,0.11206026
1764768933.2498832,-2.86888,0.47306,1.61756,0.978207945,-0.04919421,0.11206026
1764768933.2498832,-2.86888,0.47306,1.61756,0.978207945,-0.04919421,0.11206026
1764768933.2498832,-2.86888,0.47306,1.61756,0.978207945,-0.04919421,0.11206026
1764768933.2498832,-2.86888,0.47306,1.61756,0.978207945,-0.04919421,0.11206026
1764768933.2498832,-2.86888,0.47306,1.61756,0.978207945,-0.04919421,0.11206026
1764768933.2498832,-2.86888,0.47306,1.61756,0.978207945,-0.04919421,0.11206026
1764768933.2498832,-2.86888,0.47306,1.61756,0.978207945,-0.04919421,0.11206026
1764768933.2498832,-2.96044,0.18312,1.00716,0.97948968,-0.048889035,0.11193819
1764768933.2498832,-2.96044,0.18312,1.00716,0.97948968,-0.048889035,0.11193819
1764768933.2498832,-2.96044,0.18312,1.00716,0.97948968,-0.048889035,0.11193819
1764768933.2498832,-2.96044,0.18312,1.00716,0.97948968,-0.048889035,0.11193819
1764768933.2498832,-2.96044,0.18312,1.00716,0.97948968,-0.048889035,0.11193819
1764768933.2498832,-2.96044,0.18312,1.00716,0.97948968,-0.048889035,0.11193819
1764768933.2498832,-2.96044,0.18312,1.00716,0.97948968,-0.048889035,0.11193819
1764768933.2498832,-2.96044,0.18312,1.00716,0.97948968,-0.048889035,0.11193819
1764768933.2498832,-2.96044,0.18312,1.00716,0.97948968,-0.048889035,0.11193819
1764768933.2498832,-2.96044,0.18312,1.00716,0.97948968,-0.048889035,0.11193819
1764768933.2498832,-2.96044,0.56462,0.25942,0.98229729,-0.047180055,0.11132784
1764768933.2498832,-2.96044,0.56462,0.25942,0.98229729,-0.047180055,0.11132784
1764768933.2967453,-2.96044,0.56462,0.25942,0.98229729,-0.047180055,0.11132784
1764768933.2967453,-2.96044,0.56462,0.25942,0.98229729,-0.047180055,0.11132784
1764768933.2967453,-2.96044,0.56462,0.25942,0.98229729,-0.047180055,0.11132784
1764768933.2967453,-2.96044,0.56462,0.25942,0.98229729,-0.047180055,0.11132784
1764768933.2967453,-2.96044,0.56462,0.25942,0.98229729,-0.047180055,0.11132784
1764768933.2967453,-2.96044,0.56462,0.25942,0.98229729,-0.047180055,0.11132784
1764768933.2967453,-2.96044,0.56462,0.25942,0.98229729,-0.047180055,0.11132784
1764768933.2967453,-2.96044,0.56462,0.25942,0.98229729,-0.047180055,0.11132784
1764768933.2967453,-3.75396,1.55652,-0.44254,0.982480395,-0.04602039,0.11144991
1764768933.2967453,-3.75396,1.55652,-0.44254,0.982480395,-0.04602039,0.11144991
1764768933.2967453,-3.75396,1.55652,-0.44254,0.982480395,-0.04602039,0.11144991
1764768933.2967453,-3.75396,1.55652,-0.44254,0.982480395,-0.04602039,0.11144991
1764768933.2967453,-3.75396,1.55652,-0.44254,0.982480395,-0.04602039,0.11144991
1764768933.2967453,-3.75396,1.55652,-0.44254,0.982480395,-0.04602039,0.11144991
1764768933.2967453,-3.75396,1.55652,-0.44254,0.982480395,-0.04602039,0.11144991
1764768933.2967453,-3.75396,1.55652,-0.44254,0.982480395,-0.04602039,0.11144991
1764768933.2967453,-3.75396,1.55652,-0.44254,0.982480395,-0.04602039,0.11144991
1764768933.2967453,-3.75396,1.55652,-0.44254,0.982480395,-0.04602039,0.11144991
1764768933.2967453,-4.41014,1.61756,-1.08346,0.98083245,-0.044738655,0.11169405
1764768933.2967453,-4.41014,1.61756,-1.08346,0.98083245,-0.044738655,0.11169405
1764768933.2967453,-4.41014,1.61756,-1.08346,0.98083245,-0.044738655,0.11169405
1764768933.2967453,-4.41014,1.61756,-1.08346,0.98083245,-0.044738655,0.11169405
1764768933.3439603,-4.41014,1.61756,-1.08346,0.98083245,-0.044738655,0.11169405
1764768933.3439603,-4.41014,1.61756,-1.08346,0.98083245,-0.044738655,0.11169405
1764768933.3439603,-4.41014,1.61756,-1.08346,0.98083245,-0.044738655,0.11169405
1764768933.3439603,-4.41014,1.61756,-1.08346,0.98083245,-0.044738655,0.11169405
1764768933.3439603,-4.41014,1.61756,-1.08346,0.98083245,-0.044738655,0.11169405
1764768933.3439603,-4.41014,1.61756,-1.08346,0.98083245,-0.044738655,0.11169405
1764768933.3444686,-4.89846,1.15976,-0.93086,0.98010003,-0.043029675,0.112365435
1764768933.3444686,-4.89846,1.15976,-0.93086,0.98010003,-0.043029675,0.112365435
1764768933.3444686,-4.89846,1.15976,-0.93086,0.98010003,-0.043029675,0.112365435
1764768933.3444686,-4.89846,1.15976,-0.93086,0.98010003,-0.043029675,0.112365435
1764768933.3444686,-4.89846,1.15976,-0.93086,0.98010003,-0.043029675,0.112365435
1764768933.3444686,-4.89846,1.15976,-0.93086,0.98010003,-0.043029675,0.112365435
1764768933.3444686,-4.89846,1.15976,-0.93086,0.98010003,-0.043029675,0.112365435
1764768933.3444686,-4.89846,1.15976,-0.93086,0.98010003,-0.043029675,0.112365435
1764768933.3444686,-4.89846,1.15976,-0.93086,0.98010003,-0.043029675,0.112365435
1764768933.3444686,-4.89846,1.15976,-0.93086,0.98010003,-0.043029675,0.112365435
1764768933.3444686,-4.83742,1.32762,-0.21364,0.9802221,-0.04296864,0.113219925
1764768933.3444686,-4.83742,1.32762,-0.21364,0.9802221,-0.04296864,0.113219925
1764768933.3444686,-4.83742,1.32762,-0.21364,0.9802221,-0.04296864,0.113219925
1764768933.3444686,-4.83742,1.32762,-0.21364,0.9802221,-0.04296864,0.113219925
1764768933.3444686,-4.83742,1.32762,-0.21364,0.9802221,-0.04296864,0.113219925
1764768933.3444686,-4.83742,1.32762,-0.21364,0.9802221,-0.04296864,0.113219925
1764768933.3444686,-4.83742,1.32762,-0.21364,0.9802221,-0.04296864,0.113219925
1764768933.3444686,-4.83742,1.32762,-0.21364,0.9802221,-0.04296864,0.113219925
1764768933.3907692,-4.83742,1.32762,-0.21364,0.9802221,-0.04296864,0.113219925
1764768933.3907692,-4.83742,1.32762,-0.21364,0.9802221,-0.04296864,0.113219925
1764768933.3907692,-4.53222,1.28184,0.51884,0.980283135,-0.043517955,0.113464065
1764768933.3907692,-4.53222,1.28184,0.51884,0.980283135,-0.043517955,0.113464065
1764768933.3907692,-4.53222,1.28184,0.51884,0.980283135,-0.043517955,0.113464065
1764768933.3907692,-4.53222,1.28184,0.51884,0.980283135,-0.043517955,0.113464065
1764768933.3907692,-4.53222,1.28184,0.51884,0.980283135,-0.043517955,0.113464065
1764768933.3907692,-4.53222,1.28184,0.51884,0.980283135,-0.043517955,0.113464065
1764768933.3907692,-4.53222,1.28184,0.51884,0.980283135,-0.043517955,0.113464065
1764768933.3907692,-4.53222,1.28184,0.51884,0.980283135,-0.043517955,0.113464065
1764768933.3907692,-4.53222,1.28184,0.51884,0.980283135,-0.043517955,0.113464065
1764768933.3907692,-4.53222,1.28184,0.51884,0.980283135,-0.043517955,0.113464065
1764768933.3907692,-4.51696,0.59514,0.79352,0.98083245,-0.043762095,0.114074415
1764768933.3907692,-4.51696,0.59514,0.79352,0.98083245,-0.043762095,0.114074415
1764768933.3907692,-4.51696,0.59514,0.79352,0.98083245,-0.043762095,0.114074415
1764768933.3907692,-4.51696,0.59514,0.79352,0.98083245,-0.043762095,0.114074415
1764768933.3907692,-4.51696,0.59514,0.79352,0.98083245,-0.043762095,0.114074415
1764768933.3907692,-4.51696,0.59514,0.79352,0.98083245,-0.043762095,0.114074415
1764768933.3920712,-4.51696,0.59514,0.79352,0.98083245,-0.043762095,0.114074415
1764768933.3920712,-4.51696,0.59514,0.79352,0.98083245,-0.043762095,0.114074415
1764768933.3920712,-4.51696,0.59514,0.79352,0.98083245,-0.043762095,0.114074415
1764768933.3920712,-4.51696,0.59514,0.79352,0.98083245,-0.043762095,0.114074415
1764768933.3920712,-3.2809,0.57988,1.38866,0.98156487,-0.044494515,0.114684765
1764768933.3920712,-3.2809,0.57988,1.38866,0.98156487,-0.044494515,0.114684765
1764768933.439351,-3.2809,0.57988,1.38866,0.98156487,-0.044494515,0.114684765
1764768933.439351,-3.2809,0.57988,1.38866,0.98156487,-0.044494515,0.114684765
1764768933.439351,-3.2809,0.57988,1.38866,0.98156487,-0.044494515,0.114684765
1764768933.439351,-3.2809,0.57988,1.38866,0.98156487,-0.044494515,0.114684765
1764768933.439351,-3.2809,0.57988,1.38866,0.98156487,-0.044494515,0.114684765
1764768933.439351,-3.2809,0.57988,1.38866,0.98156487,-0.044494515,0.114684765
1764768933.439351,-3.2809,0.57988,1.38866,0.98156487,-0.044494515,0.114684765
1764768933.439351,-3.2809,0.57988,1.38866,0.98156487,-0.044494515,0.114684765
1764768933.439351,-2.96044,0.18312,1.51074,0.981259695,-0.044128305,0.1147458
1764768933.439351,-2.96044,0.18312,1.51074,0.981259695,-0.044128305,0.1147458
1764768933.439351,-2.96044,0.18312,1.51074,0.981259695,-0.044128305,0.1147458
1764768933.439351,-2.96044,0.18312,1.51074,0.981259695,-0.044128305,0.1147458
1764768933.439351,-2.96044,0.18312,1.51074,0.981259695,-0.044128305,0.1147458
1764768933.439351,-2.96044,0.18312,1.51074,0.981259695,-0.044128305,0.1147458
1764768933.439351,-2.96044,0.18312,1.51074,0.981259695,-0.044128305,0.1147458
1764768933.439351,-2.96044,0.18312,1.51074,0.981259695,-0.044128305,0.1147458
1764768933.439351,-2.96044,0.18312,1.51074,0.981259695,-0.044128305,0.1147458
1764768933.439351,-2.96044,0.18312,1.51074,0.981259695,-0.044128305,0.1147458
1764768933.439351,-2.96044,-0.1525999999999999,1.51074,0.980649345,-0.043517955,0.11389131
1764768933.439351,-2.96044,-0.1525999999999999,1.51074,0.980649345,-0.043517955,0.11389131
1764768933.439351,-2.96044,-0.1525999999999999,1.51074,0.980649345,-0.043517955,0.11389131
1764768933.439351,-2.96044,-0.1525999999999999,1.51074,0.980649345,-0.043517955,0.11389131
1764768933.439351,-2.96044,-0.1525999999999999,1.51074,0.980649345,-0.043517955,0.11389131
1764768933.439351,-2.96044,-0.1525999999999999,1.51074,0.980649345,-0.043517955,0.11389131
1764768933.4861813,-2.96044,-0.1525999999999999,1.51074,0.980649345,-0.043517955,0.11389131
1764768933.486714,-2.96044,-0.1525999999999999,1.51074,0.980649345,-0.043517955,0.11389131
1764768933.486714,-2.96044,-0.1525999999999999,1.51074,0.980649345,-0.043517955,0.11389131
