Timestamp,GyroX,GyroY,GyroZ,AccX,AccY,AccZ
1764768384.5408287,-4.45592,0.62566,0.48832,-0.89782485,0.37536525,0.149108505
1764768384.5408287,-4.45592,0.62566,0.48832,-0.89782485,0.37536525,0.149108505
1764768384.5408287,-4.45592,0.62566,0.48832,-0.89782485,0.37536525,0.149108505
1764768384.5408287,-4.45592,0.62566,0.48832,-0.89782485,0.37536525,0.149108505
1764768384.5408287,-4.45592,0.62566,0.48832,-0.89782485,0.37536525,0.149108505
1764768384.5408287,-4.45592,0.62566,0.48832,-0.89782485,0.37536525,0.149108505
1764768384.5408287,-4.45592,0.62566,0.48832,-0.89782485,0.37536525,0.149108505
1764768384.5408287,-4.45592,0.62566,0.48832,-0.89782485,0.37536525,0.149108505
1764768384.5408287,-4.45592,0.62566,0.48832,-0.89782485,0.37536525,0.149108505
1764768384.5408287,-4.45592,0.62566,0.48832,-0.89782485,0.37536525,0.149108505
1764768384.5408287,-4.08968,0.8698199999999999,0.62566,-0.8972145,0.37560939,0.14880333
1764768384.5408287,-4.08968,0.8698199999999999,0.62566,-0.8972145,0.37560939,0.14880333
1764768384.5408287,-4.08968,0.8698199999999999,0.62566,-0.8972145,0.37560939,0.14880333
1764768384.5408287,-4.08968,0.8698199999999999,0.62566,-0.8972145,0.37560939,0.14880333
1764768384.5408287,-4.08968,0.8698199999999999,0.62566,-0.8972145,0.37560939,0.14880333
1764768384.5408287,-4.08968,0.8698199999999999,0.62566,-0.8972145,0.37560939,0.14880333
1764768384.5408287,-4.08968,0.8698199999999999,0.62566,-0.8972145,0.37560939,0.14880333
1764768384.5408287,-4.08968,0.8698199999999999,0.62566,-0.8972145,0.37560939,0.14880333
1764768384.5408287,-4.08968,0.8698199999999999,0.62566,-0.8972145,0.37560939,0.14880333
1764768384.5408287,-4.08968,0.8698199999999999,0.62566,-0.8972145,0.37560939,0.14880333
1764768384.5408287,-3.72344,1.31236,0.62566,-0.8975807100000001,0.375304215,0.14880333
1764768384.5408287,-3.72344,1.31236,0.62566,-0.8975807100000001,0.375304215,0.14880333
1764768384.5408287,-3.72344,1.31236,0.62566,-0.8975807100000001,0.375304215,0.14880333
1764768384.5408287,-3.72344,1.31236,0.62566,-0.8975807100000001,0.375304215,0.14880333
1764768384.5408287,-3.72344,1.31236,0.62566,-0.8975807100000001,0.375304215,0.14880333
1764768384.5408287,-3.72344,1.31236,0.62566,-0.8975807100000001,0.375304215,0.14880333
1764768384.5408287,-3.72344,1.31236,0.62566,-0.8975807100000001,0.375304215,0.14880333
1764768384.5408287,-3.72344,1.31236,0.62566,-0.8975807100000001,0.375304215,0.14880333
1764768384.5408287,-3.72344,1.31236,0.62566,-0.8975807100000001,0.375304215,0.14880333
1764768384.5408287,-3.72344,1.31236,0.62566,-0.8975807100000001,0.375304215,0.14880333
1764768384.5408287,-3.54032,1.0682,0.41202,-0.8986183050000001,0.376036635,0.14868126
1764768384.5408287,-3.54032,1.0682,0.41202,-0.8986183050000001,0.376036635,0.14868126
1764768384.5408287,-3.54032,1.0682,0.41202,-0.8986183050000001,0.376036635,0.14868126
1764768384.5408287,-3.54032,1.0682,0.41202,-0.8986183050000001,0.376036635,0.14868126
1764768384.5845704,-3.54032,1.0682,0.41202,-0.8986183050000001,0.376036635,0.14868126
1764768384.5845704,-3.54032,1.0682,0.41202,-0.8986183050000001,0.376036635,0.14868126
1764768384.5845704,-3.54032,1.0682,0.41202,-0.8986183050000001,0.376036635,0.14868126
1764768384.5845704,-3.54032,1.0682,0.41202,-0.8986183050000001,0.376036635,0.14868126
1764768384.5845704,-3.54032,1.0682,0.41202,-0.8986183050000001,0.376036635,0.14868126
1764768384.5845704,-3.54032,1.0682,0.41202,-0.8986183050000001,0.376036635,0.14868126
1764768384.5845704,-3.72344,1.38866,0.41202,-0.89904555,0.37670802,0.1489254
1764768384.5845704,-3.72344,1.38866,0.41202,-0.89904555,0.37670802,0.1489254
1764768384.5850754,-3.72344,1.38866,0.41202,-0.89904555,0.37670802,0.1489254
1764768384.5850754,-3.72344,1.38866,0.41202,-0.89904555,0.37670802,0.1489254
1764768384.5850754,-3.72344,1.38866,0.41202,-0.89904555,0.37670802,0.1489254
1764768384.5850754,-3.72344,1.38866,0.41202,-0.89904555,0.37670802,0.1489254
1764768384.5850754,-3.72344,1.38866,0.41202,-0.89904555,0.37670802,0.1489254
1764768384.5850754,-3.72344,1.38866,0.41202,-0.89904555,0.37670802,0.1489254
1764768384.5850754,-3.72344,1.38866,0.41202,-0.89904555,0.37670802,0.1489254
1764768384.5850754,-3.72344,1.38866,0.41202,-0.89904555,0.37670802,0.1489254
1764768384.5850754,-4.01338,1.26658,0.27468,-0.8984352,0.37695216,0.149230575
1764768384.5850754,-4.01338,1.26658,0.27468,-0.8984352,0.37695216,0.149230575
1764768384.5850754,-4.01338,1.26658,0.27468,-0.8984352,0.37695216,0.149230575
1764768384.5850754,-4.01338,1.26658,0.27468,-0.8984352,0.37695216,0.149230575
1764768384.5850754,-4.01338,1.26658,0.27468,-0.8984352,0.37695216,0.149230575
1764768384.5850754,-4.01338,1.26658,0.27468,-0.8984352,0.37695216,0.149230575
1764768384.5850754,-4.01338,1.26658,0.27468,-0.8984352,0.37695216,0.149230575
1764768384.5850754,-4.01338,1.26658,0.27468,-0.8984352,0.37695216,0.149230575
1764768384.6313896,-4.01338,1.26658,0.27468,-0.8984352,0.37695216,0.149230575
1764768384.6318994,-4.01338,1.26658,0.27468,-0.8984352,0.37695216,0.149230575
1764768384.6318994,-4.36436,1.49548,0.3815,-0.8986183050000001,0.378233895,0.14941368
1764768384.6318994,-4.36436,1.49548,0.3815,-0.8986183050000001,0.378233895,0.14941368
1764768384.6318994,-4.36436,1.49548,0.3815,-0.8986183050000001,0.378233895,0.14941368
1764768384.6318994,-4.36436,1.49548,0.3815,-0.8986183050000001,0.378233895,0.14941368
1764768384.6318994,-4.36436,1.49548,0.3815,-0.8986183050000001,0.378233895,0.14941368
1764768384.6318994,-4.36436,1.49548,0.3815,-0.8986183050000001,0.378233895,0.14941368
1764768384.6318994,-4.36436,1.49548,0.3815,-0.8986183050000001,0.378233895,0.14941368
1764768384.6318994,-4.36436,1.49548,0.3815,-0.8986183050000001,0.378233895,0.14941368
1764768384.6318994,-4.36436,1.49548,0.3815,-0.8986183050000001,0.378233895,0.14941368
1764768384.6318994,-4.36436,1.49548,0.3815,-0.8986183050000001,0.378233895,0.14941368
1764768384.6318994,-4.440659999999999,1.4497,0.36624,-0.89855727,0.377867685,0.1489254
1764768384.6318994,-4.440659999999999,1.4497,0.36624,-0.89855727,0.377867685,0.1489254
1764768384.6318994,-4.440659999999999,1.4497,0.36624,-0.89855727,0.377867685,0.1489254
1764768384.6318994,-4.440659999999999,1.4497,0.36624,-0.89855727,0.377867685,0.1489254
1764768384.6318994,-4.440659999999999,1.4497,0.36624,-0.89855727,0.377867685,0.1489254
1764768384.6318994,-4.440659999999999,1.4497,0.36624,-0.89855727,0.377867685,0.1489254
1764768384.6318994,-4.440659999999999,1.4497,0.36624,-0.89855727,0.377867685,0.1489254
1764768384.6318994,-4.440659999999999,1.4497,0.36624,-0.89855727,0.377867685,0.1489254
1764768384.6318994,-4.440659999999999,1.4497,0.36624,-0.89855727,0.377867685,0.1489254
1764768384.6318994,-4.440659999999999,1.4497,0.36624,-0.89855727,0.377867685,0.1489254
1764768384.6318994,-4.25754,1.02242,0.3357199999999999,-0.89867934,0.37670802,0.14916954
1764768384.6318994,-4.25754,1.02242,0.3357199999999999,-0.89867934,0.37670802,0.14916954
1764768384.6785378,-4.25754,1.02242,0.3357199999999999,-0.89867934,0.37670802,0.14916954
1764768384.6785378,-4.25754,1.02242,0.3357199999999999,-0.89867934,0.37670802,0.14916954
1764768384.6785378,-4.25754,1.02242,0.3357199999999999,-0.89867934,0.37670802,0.14916954
1764768384.6785378,-4.25754,1.02242,0.3357199999999999,-0.89867934,0.37670802,0.14916954
1764768384.6785378,-4.25754,1.02242,0.3357199999999999,-0.89867934,0.37670802,0.14916954
1764768384.6785378,-4.25754,1.02242,0.3357199999999999,-0.89867934,0.37670802,0.14916954
1764768384.6785378,-4.25754,1.02242,0.3357199999999999,-0.89867934,0.37670802,0.14916954
1764768384.6785378,-4.25754,1.02242,0.3357199999999999,-0.89867934,0.37670802,0.14916954
1764768384.6785378,-4.37962,1.69386,0.7019599999999999,-0.898496235,0.375914565,0.148986435
1764768384.6785378,-4.37962,1.69386,0.7019599999999999,-0.898496235,0.375914565,0.148986435
1764768384.6785378,-4.37962,1.69386,0.7019599999999999,-0.898496235,0.375914565,0.148986435
1764768384.6785378,-4.37962,1.69386,0.7019599999999999,-0.898496235,0.375914565,0.148986435
1764768384.6785378,-4.37962,1.69386,0.7019599999999999,-0.898496235,0.375914565,0.148986435
1764768384.6785378,-4.37962,1.69386,0.7019599999999999,-0.898496235,0.375914565,0.148986435
1764768384.6790452,-4.37962,1.69386,0.7019599999999999,-0.898496235,0.375914565,0.148986435
1764768384.6790452,-4.37962,1.69386,0.7019599999999999,-0.898496235,0.375914565,0.148986435
1764768384.6790452,-4.37962,1.69386,0.7019599999999999,-0.898496235,0.375914565,0.148986435
1764768384.6790452,-4.37962,1.69386,0.7019599999999999,-0.898496235,0.375914565,0.148986435
1764768384.6790452,-4.440659999999999,1.09872,0.7019599999999999,-0.898130025,0.375548355,0.14990196
1764768384.6790452,-4.440659999999999,1.09872,0.7019599999999999,-0.898130025,0.375548355,0.14990196
1764768384.6790452,-4.440659999999999,1.09872,0.7019599999999999,-0.898130025,0.375548355,0.14990196
1764768384.6790452,-4.440659999999999,1.09872,0.7019599999999999,-0.898130025,0.375548355,0.14990196
1764768384.7248323,-4.440659999999999,1.09872,0.7019599999999999,-0.898130025,0.375548355,0.14990196
1764768384.7248323,-4.440659999999999,1.09872,0.7019599999999999,-0.898130025,0.375548355,0.14990196
1764768384.7248323,-4.440659999999999,1.09872,0.7019599999999999,-0.898130025,0.375548355,0.14990196
1764768384.7248323,-4.440659999999999,1.09872,0.7019599999999999,-0.898130025,0.375548355,0.14990196
1764768384.7248323,-4.440659999999999,1.09872,0.7019599999999999,-0.898130025,0.375548355,0.14990196
1764768384.7248323,-4.440659999999999,1.09872,0.7019599999999999,-0.898130025,0.375548355,0.14990196
1764768384.7248323,-4.22702,1.49548,0.9919,-0.898740375,0.375792495,0.149352645
1764768384.7248323,-4.22702,1.49548,0.9919,-0.898740375,0.375792495,0.149352645
1764768384.7248323,-4.22702,1.49548,0.9919,-0.898740375,0.375792495,0.149352645
1764768384.72584,-4.22702,1.49548,0.9919,-0.898740375,0.375792495,0.149352645
1764768384.72584,-4.22702,1.49548,0.9919,-0.898740375,0.375792495,0.149352645
1764768384.72584,-4.22702,1.49548,0.9919,-0.898740375,0.375792495,0.149352645
1764768384.72584,-4.22702,1.49548,0.9919,-0.898740375,0.375792495,0.149352645
1764768384.72584,-4.22702,1.49548,0.9919,-0.898740375,0.375792495,0.149352645
1764768384.72584,-4.22702,1.49548,0.9919,-0.898740375,0.375792495,0.149352645
1764768384.72584,-4.22702,1.49548,0.9919,-0.898740375,0.375792495,0.149352645
1764768384.72584,-4.08968,1.09872,0.51884,-0.89941176,0.37683009,0.149108505
1764768384.72584,-4.08968,1.09872,0.51884,-0.89941176,0.37683009,0.149108505
1764768384.72584,-4.08968,1.09872,0.51884,-0.89941176,0.37683009,0.149108505
1764768384.72584,-4.08968,1.09872,0.51884,-0.89941176,0.37683009,0.149108505
1764768384.72584,-4.08968,1.09872,0.51884,-0.89941176,0.37683009,0.149108505
1764768384.72584,-4.08968,1.09872,0.51884,-0.89941176,0.37683009,0.149108505
1764768384.72584,-4.08968,1.09872,0.51884,-0.89941176,0.37683009,0.149108505
1764768384.726848,-4.08968,1.09872,0.51884,-0.89941176,0.37683009,0.149108505
1764768384.7693284,-4.08968,1.09872,0.51884,-0.89941176,0.37683009,0.149108505
1764768384.7693284,-4.08968,1.09872,0.51884,-0.89941176,0.37683009,0.149108505
1764768384.7693284,-3.99812,0.8392999999999999,1.2208,-0.899472795,0.376769055,0.14904747
1764768384.7693284,-3.99812,0.8392999999999999,1.2208,-0.899472795,0.376769055,0.14904747
1764768384.7693284,-3.99812,0.8392999999999999,1.2208,-0.899472795,0.376769055,0.14904747
1764768384.7693284,-3.99812,0.8392999999999999,1.2208,-0.899472795,0.376769055,0.14904747
1764768384.7693284,-3.99812,0.8392999999999999,1.2208,-0.899472795,0.376769055,0.14904747
1764768384.7693284,-3.99812,0.8392999999999999,1.2208,-0.899472795,0.376769055,0.14904747
1764768384.7693284,-3.99812,0.8392999999999999,1.2208,-0.899472795,0.376769055,0.14904747
1764768384.770341,-3.99812,0.8392999999999999,1.2208,-0.899472795,0.376769055,0.14904747
1764768384.770341,-3.99812,0.8392999999999999,1.2208,-0.899472795,0.376769055,0.14904747
1764768384.770341,-3.99812,0.8392999999999999,1.2208,-0.899472795,0.376769055,0.14904747
1764768384.770341,-3.87604,0.8087799999999999,0.6103999999999999,-0.89867934,0.37683009,0.149230575
1764768384.770341,-3.87604,0.8087799999999999,0.6103999999999999,-0.89867934,0.37683009,0.149230575
1764768384.770341,-3.87604,0.8087799999999999,0.6103999999999999,-0.89867934,0.37683009,0.149230575
1764768384.770341,-3.87604,0.8087799999999999,0.6103999999999999,-0.89867934,0.37683009,0.149230575
1764768384.770341,-3.87604,0.8087799999999999,0.6103999999999999,-0.89867934,0.37683009,0.149230575
1764768384.770341,-3.87604,0.8087799999999999,0.6103999999999999,-0.89867934,0.37683009,0.149230575
1764768384.770341,-3.87604,0.8087799999999999,0.6103999999999999,-0.89867934,0.37683009,0.149230575
1764768384.770341,-3.87604,0.8087799999999999,0.6103999999999999,-0.89867934,0.37683009,0.149230575
1764768384.770341,-3.87604,0.8087799999999999,0.6103999999999999,-0.89867934,0.37683009,0.149230575
1764768384.770341,-3.87604,0.8087799999999999,0.6103999999999999,-0.89867934,0.37683009,0.149230575
1764768384.770341,-4.21176,1.2208,0.51884,-0.898007955,0.377257335,0.149352645
1764768384.770341,-4.21176,1.2208,0.51884,-0.898007955,0.377257335,0.149352645
1764768384.8158362,-4.21176,1.2208,0.51884,-0.898007955,0.377257335,0.149352645
1764768384.816489,-4.21176,1.2208,0.51884,-0.898007955,0.377257335,0.149352645
1764768384.816489,-4.21176,1.2208,0.51884,-0.898007955,0.377257335,0.149352645
1764768384.816489,-4.21176,1.2208,0.51884,-0.898007955,0.377257335,0.149352645
1764768384.816489,-4.21176,1.2208,0.51884,-0.898007955,0.377257335,0.149352645
1764768384.816489,-4.21176,1.2208,0.51884,-0.898007955,0.377257335,0.149352645
1764768384.816489,-4.21176,1.2208,0.51884,-0.898007955,0.377257335,0.149352645
1764768384.816489,-4.21176,1.2208,0.51884,-0.898007955,0.377257335,0.149352645
1764768384.816489,-4.5017,0.94612,0.62566,-0.897397605,0.37731837,0.15002403
1764768384.816489,-4.5017,0.94612,0.62566,-0.897397605,0.37731837,0.15002403
1764768384.816489,-4.5017,0.94612,0.62566,-0.897397605,0.37731837,0.15002403
1764768384.816489,-4.5017,0.94612,0.62566,-0.897397605,0.37731837,0.15002403
1764768384.816489,-4.5017,0.94612,0.62566,-0.897397605,0.37731837,0.15002403
1764768384.816489,-4.5017,0.94612,0.62566,-0.897397605,0.37731837,0.15002403
1764768384.816489,-4.5017,0.94612,0.62566,-0.897397605,0.37731837,0.15002403
1764768384.816489,-4.5017,0.94612,0.62566,-0.897397605,0.37731837,0.15002403
1764768384.816489,-4.5017,0.94612,0.62566,-0.897397605,0.37731837,0.15002403
1764768384.816489,-4.5017,0.94612,0.62566,-0.897397605,0.37731837,0.15002403
1764768384.816489,-4.51696,1.02242,0.82404,-0.897641745,0.37731837,0.14953575
1764768384.816489,-4.51696,1.02242,0.82404,-0.897641745,0.37731837,0.14953575
1764768384.816489,-4.51696,1.02242,0.82404,-0.897641745,0.37731837,0.14953575
1764768384.816489,-4.51696,1.02242,0.82404,-0.897641745,0.37731837,0.14953575
1764768384.8627186,-4.51696,1.02242,0.82404,-0.897641745,0.37731837,0.14953575
1764768384.8627186,-4.51696,1.02242,0.82404,-0.897641745,0.37731837,0.14953575
1764768384.8627186,-4.51696,1.02242,0.82404,-0.897641745,0.37731837,0.14953575
1764768384.8627186,-4.51696,1.02242,0.82404,-0.897641745,0.37731837,0.14953575
1764768384.8627186,-4.51696,1.02242,0.82404,-0.897641745,0.37731837,0.14953575
1764768384.8627186,-4.51696,1.02242,0.82404,-0.897641745,0.37731837,0.14953575
1764768384.8627186,-4.440659999999999,0.8392999999999999,1.23606,-0.89697036,0.37744044,0.14868126
1764768384.8627186,-4.440659999999999,0.8392999999999999,1.23606,-0.89697036,0.37744044,0.14868126
1764768384.8627186,-4.440659999999999,0.8392999999999999,1.23606,-0.89697036,0.37744044,0.14868126
1764768384.8627186,-4.440659999999999,0.8392999999999999,1.23606,-0.89697036,0.37744044,0.14868126
1764768384.8627186,-4.440659999999999,0.8392999999999999,1.23606,-0.89697036,0.37744044,0.14868126
1764768384.8627186,-4.440659999999999,0.8392999999999999,1.23606,-0.89697036,0.37744044,0.14868126
1764768384.8627186,-4.440659999999999,0.8392999999999999,1.23606,-0.89697036,0.37744044,0.14868126
1764768384.8627186,-4.440659999999999,0.8392999999999999,1.23606,-0.89697036,0.37744044,0.14868126
1764768384.8627186,-4.440659999999999,0.8392999999999999,1.23606,-0.89697036,0.37744044,0.14868126
1764768384.8627186,-4.440659999999999,0.8392999999999999,1.23606,-0.89697036,0.37744044,0.14868126
1764768384.8627186,-3.34194,0.4578,1.34288,-0.8972145,0.375670425,0.148620225
1764768384.8627186,-3.34194,0.4578,1.34288,-0.8972145,0.375670425,0.148620225
1764768384.8627186,-3.34194,0.4578,1.34288,-0.8972145,0.375670425,0.148620225
1764768384.8638666,-3.34194,0.4578,1.34288,-0.8972145,0.375670425,0.148620225
1764768384.8638666,-3.34194,0.4578,1.34288,-0.8972145,0.375670425,0.148620225
1764768384.8638666,-3.34194,0.4578,1.34288,-0.8972145,0.375670425,0.148620225
1764768384.8638666,-3.34194,0.4578,1.34288,-0.8972145,0.375670425,0.148620225
1764768384.8638666,-3.34194,0.4578,1.34288,-0.8972145,0.375670425,0.148620225
1764768384.909873,-3.34194,0.4578,1.34288,-0.8972145,0.375670425,0.148620225
1764768384.909873,-3.34194,0.4578,1.34288,-0.8972145,0.375670425,0.148620225
1764768384.909873,-2.7468,0.6867,1.32762,-0.89782485,0.375304215,0.14904747
1764768384.909873,-2.7468,0.6867,1.32762,-0.89782485,0.375304215,0.14904747
1764768384.909873,-2.7468,0.6867,1.32762,-0.89782485,0.375304215,0.14904747
1764768384.909873,-2.7468,0.6867,1.32762,-0.89782485,0.375304215,0.14904747
1764768384.91035,-2.7468,0.6867,1.32762,-0.89782485,0.375304215,0.14904747
1764768384.91035,-2.7468,0.6867,1.32762,-0.89782485,0.375304215,0.14904747
1764768384.91035,-2.7468,0.6867,1.32762,-0.89782485,0.375304215,0.14904747
1764768384.91035,-2.7468,0.6867,1.32762,-0.89782485,0.375304215,0.14904747
1764768384.91035,-2.7468,0.6867,1.32762,-0.89782485,0.375304215,0.14904747
1764768384.91035,-2.7468,0.6867,1.32762,-0.89782485,0.375304215,0.14904747
1764768384.91035,-2.04484,0.65618,1.51074,-0.898252095,0.375792495,0.149718855
1764768384.91035,-2.04484,0.65618,1.51074,-0.898252095,0.375792495,0.149718855
1764768384.91035,-2.04484,0.65618,1.51074,-0.898252095,0.375792495,0.149718855
1764768384.91035,-2.04484,0.65618,1.51074,-0.898252095,0.375792495,0.149718855
1764768384.91035,-2.04484,0.65618,1.51074,-0.898252095,0.375792495,0.149718855
1764768384.91035,-2.04484,0.65618,1.51074,-0.898252095,0.375792495,0.149718855
1764768384.91035,-2.04484,0.65618,1.51074,-0.898252095,0.375792495,0.149718855
1764768384.91035,-2.04484,0.65618,1.51074,-0.898252095,0.375792495,0.149718855
1764768384.91035,-2.04484,0.65618,1.51074,-0.898252095,0.375792495,0.149718855
1764768384.91035,-2.04484,0.65618,1.51074,-0.898252095,0.375792495,0.149718855
1764768384.91035,-2.38056,0.6409199999999999,1.43444,-0.89819106,0.377745615,0.1513668
1764768384.91035,-2.38056,0.6409199999999999,1.43444,-0.89819106,0.377745615,0.1513668
1764768384.9570477,-2.38056,0.6409199999999999,1.43444,-0.89819106,0.377745615,0.1513668
1764768384.9570477,-2.38056,0.6409199999999999,1.43444,-0.89819106,0.377745615,0.1513668
1764768384.9570477,-2.38056,0.6409199999999999,1.43444,-0.89819106,0.377745615,0.1513668
1764768384.9570477,-2.38056,0.6409199999999999,1.43444,-0.89819106,0.377745615,0.1513668
1764768384.9570477,-2.38056,0.6409199999999999,1.43444,-0.89819106,0.377745615,0.1513668
1764768384.9570477,-2.38056,0.6409199999999999,1.43444,-0.89819106,0.377745615,0.1513668
1764768384.9570477,-2.38056,0.6409199999999999,1.43444,-0.89819106,0.377745615,0.1513668
1764768384.9570477,-2.38056,0.6409199999999999,1.43444,-0.89819106,0.377745615,0.1513668
1764768384.9570477,-2.68576,0.6103999999999999,1.48022,-0.8975807100000001,0.37853907,0.15148887
1764768384.9570477,-2.68576,0.6103999999999999,1.48022,-0.8975807100000001,0.37853907,0.15148887
1764768384.9570477,-2.68576,0.6103999999999999,1.48022,-0.8975807100000001,0.37853907,0.15148887
1764768384.9570477,-2.68576,0.6103999999999999,1.48022,-0.8975807100000001,0.37853907,0.15148887
1764768384.9570477,-2.68576,0.6103999999999999,1.48022,-0.8975807100000001,0.37853907,0.15148887
1764768384.9570477,-2.68576,0.6103999999999999,1.48022,-0.8975807100000001,0.37853907,0.15148887
1764768384.9570477,-2.68576,0.6103999999999999,1.48022,-0.8975807100000001,0.37853907,0.15148887
1764768384.9570477,-2.68576,0.6103999999999999,1.48022,-0.8975807100000001,0.37853907,0.15148887
1764768384.9570477,-2.68576,0.6103999999999999,1.48022,-0.8975807100000001,0.37853907,0.15148887
1764768384.9570477,-2.68576,0.6103999999999999,1.48022,-0.8975807100000001,0.37853907,0.15148887
1764768384.9570477,-2.88414,0.88508,0.79352,-0.89648208,0.378233895,0.150451275
1764768384.9570477,-2.88414,0.88508,0.79352,-0.89648208,0.378233895,0.150451275
1764768384.9570477,-2.88414,0.88508,0.79352,-0.89648208,0.378233895,0.150451275
1764768384.9570477,-2.88414,0.88508,0.79352,-0.89648208,0.378233895,0.150451275
1764768384.9570477,-2.88414,0.88508,0.79352,-0.89648208,0.378233895,0.150451275
1764768384.9570477,-2.88414,0.88508,0.79352,-0.89648208,0.378233895,0.150451275
1764768385.003621,-2.88414,0.88508,0.79352,-0.89648208,0.378233895,0.150451275
1764768385.003621,-2.88414,0.88508,0.79352,-0.89648208,0.378233895,0.150451275
1764768385.003621,-2.88414,0.88508,0.79352,-0.89648208,0.378233895,0.150451275
1764768385.003621,-2.88414,0.88508,0.79352,-0.89648208,0.378233895,0.150451275
1764768385.003621,-3.00622,0.27468,0.97664,-0.895688625,0.37780665,0.149230575
1764768385.003621,-3.00622,0.27468,0.97664,-0.895688625,0.37780665,0.149230575
1764768385.003621,-3.00622,0.27468,0.97664,-0.895688625,0.37780665,0.149230575
1764768385.003621,-3.00622,0.27468,0.97664,-0.895688625,0.37780665,0.149230575
1764768385.003621,-3.00622,0.27468,0.97664,-0.895688625,0.37780665,0.149230575
1764768385.003621,-3.00622,0.27468,0.97664,-0.895688625,0.37780665,0.149230575
1764768385.003621,-3.00622,0.27468,0.97664,-0.895688625,0.37780665,0.149230575
1764768385.003621,-3.00622,0.27468,0.97664,-0.895688625,0.37780665,0.149230575
1764768385.003621,-3.00622,0.27468,0.97664,-0.895688625,0.37780665,0.149230575
1764768385.003621,-3.00622,0.27468,0.97664,-0.895688625,0.37780665,0.149230575
1764768385.003621,-3.60136,0.36624,1.49548,-0.89648208,0.38134668,0.147887805
1764768385.003621,-3.60136,0.36624,1.49548,-0.89648208,0.38134668,0.147887805
1764768385.003621,-3.60136,0.36624,1.49548,-0.89648208,0.38134668,0.147887805
1764768385.003621,-3.60136,0.36624,1.49548,-0.89648208,0.38134668,0.147887805
1764768385.003621,-3.60136,0.36624,1.49548,-0.89648208,0.38134668,0.147887805
1764768385.003621,-3.60136,0.36624,1.49548,-0.89648208,0.38134668,0.147887805
1764768385.003621,-3.60136,0.36624,1.49548,-0.89648208,0.38134668,0.147887805
1764768385.003621,-3.60136,0.36624,1.49548,-0.89648208,0.38134668,0.147887805
1764768385.047531,-3.60136,0.36624,1.49548,-0.89648208,0.38134668,0.147887805
1764768385.047531,-3.60136,0.36624,1.49548,-0.89648208,0.38134668,0.147887805
1764768385.047531,-4.4254,1.05294,1.09872,-0.89745864,0.382262205,0.14746056
1764768385.047531,-4.4254,1.05294,1.09872,-0.89745864,0.382262205,0.14746056
1764768385.047531,-4.4254,1.05294,1.09872,-0.89745864,0.382262205,0.14746056
1764768385.047531,-4.4254,1.05294,1.09872,-0.89745864,0.382262205,0.14746056
1764768385.047531,-4.4254,1.05294,1.09872,-0.89745864,0.382262205,0.14746056
1764768385.047531,-4.4254,1.05294,1.09872,-0.89745864,0.382262205,0.14746056
1764768385.047531,-4.4254,1.05294,1.09872,-0.89745864,0.382262205,0.14746056
1764768385.047531,-4.4254,1.05294,1.09872,-0.89745864,0.382262205,0.14746056
1764768385.047531,-4.4254,1.05294,1.09872,-0.89745864,0.382262205,0.14746056
1764768385.047531,-4.4254,1.05294,1.09872,-0.89745864,0.382262205,0.14746056
1764768385.047531,-4.91372,1.17502,0.8087799999999999,-0.89611587,0.380064945,0.14721642
1764768385.047531,-4.91372,1.17502,0.8087799999999999,-0.89611587,0.380064945,0.14721642
1764768385.047531,-4.91372,1.17502,0.8087799999999999,-0.89611587,0.380064945,0.14721642
1764768385.047531,-4.91372,1.17502,0.8087799999999999,-0.89611587,0.380064945,0.14721642
1764768385.047531,-4.91372,1.17502,0.8087799999999999,-0.89611587,0.380064945,0.14721642
1764768385.047531,-4.91372,1.17502,0.8087799999999999,-0.89611587,0.380064945,0.14721642
1764768385.047531,-4.91372,1.17502,0.8087799999999999,-0.89611587,0.380064945,0.14721642
1764768385.047531,-4.91372,1.17502,0.8087799999999999,-0.89611587,0.380064945,0.14721642
1764768385.047531,-4.91372,1.17502,0.8087799999999999,-0.89611587,0.380064945,0.14721642
1764768385.047531,-4.91372,1.17502,0.8087799999999999,-0.89611587,0.380064945,0.14721642
1764768385.097551,-4.41014,1.15976,1.0682,-0.897153465,0.377745615,0.148620225
1764768385.097551,-4.41014,1.15976,1.0682,-0.897153465,0.377745615,0.148620225
1764768385.097551,-4.41014,1.15976,1.0682,-0.897153465,0.377745615,0.148620225
1764768385.097551,-4.41014,1.15976,1.0682,-0.897153465,0.377745615,0.148620225
1764768385.097551,-4.41014,1.15976,1.0682,-0.897153465,0.377745615,0.148620225
1764768385.097551,-4.41014,1.15976,1.0682,-0.897153465,0.377745615,0.148620225
1764768385.097551,-4.41014,1.15976,1.0682,-0.897153465,0.377745615,0.148620225
1764768385.097551,-4.41014,1.15976,1.0682,-0.897153465,0.377745615,0.148620225
1764768385.097551,-4.41014,1.15976,1.0682,-0.897153465,0.377745615,0.148620225
1764768385.097551,-4.41014,1.15976,1.0682,-0.897153465,0.377745615,0.148620225
1764768385.097551,-3.67766,0.82404,1.63282,-0.898496235,0.37658595,0.149474715
1764768385.097551,-3.67766,0.82404,1.63282,-0.898496235,0.37658595,0.149474715
1764768385.098559,-3.67766,0.82404,1.63282,-0.898496235,0.37658595,0.149474715
1764768385.098559,-3.67766,0.82404,1.63282,-0.898496235,0.37658595,0.149474715
1764768385.098559,-3.67766,0.82404,1.63282,-0.898496235,0.37658595,0.149474715
1764768385.098559,-3.67766,0.82404,1.63282,-0.898496235,0.37658595,0.149474715
1764768385.098559,-3.67766,0.82404,1.63282,-0.898496235,0.37658595,0.149474715
1764768385.098559,-3.67766,0.82404,1.63282,-0.898496235,0.37658595,0.149474715
1764768385.098559,-3.67766,0.82404,1.63282,-0.898496235,0.37658595,0.149474715
1764768385.098559,-3.67766,0.82404,1.63282,-0.898496235,0.37658595,0.149474715
1764768385.098559,-3.21986,0.3051999999999999,1.8312,-0.89953383,0.37548732,0.15002403
1764768385.098559,-3.21986,0.3051999999999999,1.8312,-0.89953383,0.37548732,0.15002403
1764768385.098559,-3.21986,0.3051999999999999,1.8312,-0.89953383,0.37548732,0.15002403
1764768385.098559,-3.21986,0.3051999999999999,1.8312,-0.89953383,0.37548732,0.15002403
1764768385.144785,-3.21986,0.3051999999999999,1.8312,-0.89953383,0.37548732,0.15002403
1764768385.144785,-3.21986,0.3051999999999999,1.8312,-0.89953383,0.37548732,0.15002403
1764768385.144785,-3.21986,0.3051999999999999,1.8312,-0.89953383,0.37548732,0.15002403
1764768385.144785,-3.21986,0.3051999999999999,1.8312,-0.89953383,0.37548732,0.15002403
1764768385.144785,-3.21986,0.3051999999999999,1.8312,-0.89953383,0.37548732,0.15002403
1764768385.144785,-3.21986,0.3051999999999999,1.8312,-0.89953383,0.37548732,0.15002403
1764768385.144785,-2.24322,-0.06104,1.99906,-0.899350725,0.37438869,0.150451275
1764768385.1451151,-2.24322,-0.06104,1.99906,-0.899350725,0.37438869,0.150451275
1764768385.1451151,-2.24322,-0.06104,1.99906,-0.899350725,0.37438869,0.150451275
1764768385.1451151,-2.24322,-0.06104,1.99906,-0.899350725,0.37438869,0.150451275
1764768385.1451151,-2.24322,-0.06104,1.99906,-0.899350725,0.37438869,0.150451275
1764768385.1451151,-2.24322,-0.06104,1.99906,-0.899350725,0.37438869,0.150451275
1764768385.1451151,-2.24322,-0.06104,1.99906,-0.899350725,0.37438869,0.150451275
1764768385.1451151,-2.24322,-0.06104,1.99906,-0.899350725,0.37438869,0.150451275
1764768385.1451151,-2.24322,-0.06104,1.99906,-0.899350725,0.37438869,0.150451275
1764768385.1451151,-2.24322,-0.06104,1.99906,-0.899350725,0.37438869,0.150451275
1764768385.1451151,-2.2127,-0.56462,2.09062,-0.89928969,0.376891125,0.14990196
1764768385.1451151,-2.2127,-0.56462,2.09062,-0.89928969,0.376891125,0.14990196
1764768385.1451151,-2.2127,-0.56462,2.09062,-0.89928969,0.376891125,0.14990196
1764768385.1451151,-2.2127,-0.56462,2.09062,-0.89928969,0.376891125,0.14990196
1764768385.1451151,-2.2127,-0.56462,2.09062,-0.89928969,0.376891125,0.14990196
1764768385.1451151,-2.2127,-0.56462,2.09062,-0.89928969,0.376891125,0.14990196
1764768385.1451151,-2.2127,-0.56462,2.09062,-0.89928969,0.376891125,0.14990196
1764768385.1462524,-2.2127,-0.56462,2.09062,-0.89928969,0.376891125,0.14990196
1764768385.192845,-2.2127,-0.56462,2.09062,-0.89928969,0.376891125,0.14990196
1764768385.192845,-2.2127,-0.56462,2.09062,-0.89928969,0.376891125,0.14990196
1764768385.192845,-2.77732,-0.13734,1.57178,-0.8980689900000001,0.379332525,0.148131945
1764768385.192845,-2.77732,-0.13734,1.57178,-0.8980689900000001,0.379332525,0.148131945
1764768385.192845,-2.77732,-0.13734,1.57178,-0.8980689900000001,0.379332525,0.148131945
1764768385.192845,-2.77732,-0.13734,1.57178,-0.8980689900000001,0.379332525,0.148131945
1764768385.192845,-2.77732,-0.13734,1.57178,-0.8980689900000001,0.379332525,0.148131945
1764768385.192845,-2.77732,-0.13734,1.57178,-0.8980689900000001,0.379332525,0.148131945
1764768385.192845,-2.77732,-0.13734,1.57178,-0.8980689900000001,0.379332525,0.148131945
1764768385.192845,-2.77732,-0.13734,1.57178,-0.8980689900000001,0.379332525,0.148131945
1764768385.192845,-2.77732,-0.13734,1.57178,-0.8980689900000001,0.379332525,0.148131945
1764768385.192845,-2.77732,-0.13734,1.57178,-0.8980689900000001,0.379332525,0.148131945
1764768385.192845,-3.54032,0.21364,1.6022999999999998,-0.897641745,0.38098047,0.147643665
1764768385.192845,-3.54032,0.21364,1.6022999999999998,-0.897641745,0.38098047,0.147643665
1764768385.192845,-3.54032,0.21364,1.6022999999999998,-0.897641745,0.38098047,0.147643665
1764768385.192845,-3.54032,0.21364,1.6022999999999998,-0.897641745,0.38098047,0.147643665
1764768385.192845,-3.54032,0.21364,1.6022999999999998,-0.897641745,0.38098047,0.147643665
1764768385.192845,-3.54032,0.21364,1.6022999999999998,-0.897641745,0.38098047,0.147643665
1764768385.192845,-3.54032,0.21364,1.6022999999999998,-0.897641745,0.38098047,0.147643665
1764768385.192845,-3.54032,0.21364,1.6022999999999998,-0.897641745,0.38098047,0.147643665
1764768385.192845,-3.54032,0.21364,1.6022999999999998,-0.897641745,0.38098047,0.147643665
1764768385.192845,-3.54032,0.21364,1.6022999999999998,-0.897641745,0.38098047,0.147643665
1764768385.2350798,-3.2046,0.5341,1.87698,-0.896421045,0.380797365,0.14758263
1764768385.2350798,-3.2046,0.5341,1.87698,-0.896421045,0.380797365,0.14758263
1764768385.2350798,-3.2046,0.5341,1.87698,-0.896421045,0.380797365,0.14758263
1764768385.2350798,-3.2046,0.5341,1.87698,-0.896421045,0.380797365,0.14758263
1764768385.2350798,-3.2046,0.5341,1.87698,-0.896421045,0.380797365,0.14758263
1764768385.2350798,-3.2046,0.5341,1.87698,-0.896421045,0.380797365,0.14758263
1764768385.2350798,-3.2046,0.5341,1.87698,-0.896421045,0.380797365,0.14758263
1764768385.2350798,-3.2046,0.5341,1.87698,-0.896421045,0.380797365,0.14758263
1764768385.2350798,-3.2046,0.5341,1.87698,-0.896421045,0.380797365,0.14758263
1764768385.2350798,-3.2046,0.5341,1.87698,-0.896421045,0.380797365,0.14758263
1764768385.2350798,-3.8913,0.39676,1.72438,-0.89636001,0.382262205,0.148620225
1764768385.2350798,-3.8913,0.39676,1.72438,-0.89636001,0.382262205,0.148620225
1764768385.2350798,-3.8913,0.39676,1.72438,-0.89636001,0.382262205,0.148620225
1764768385.2350798,-3.8913,0.39676,1.72438,-0.89636001,0.382262205,0.148620225
1764768385.2350798,-3.8913,0.39676,1.72438,-0.89636001,0.382262205,0.148620225
1764768385.236091,-3.8913,0.39676,1.72438,-0.89636001,0.382262205,0.148620225
1764768385.236091,-3.8913,0.39676,1.72438,-0.89636001,0.382262205,0.148620225
1764768385.236091,-3.8913,0.39676,1.72438,-0.89636001,0.382262205,0.148620225
1764768385.236091,-3.8913,0.39676,1.72438,-0.89636001,0.382262205,0.148620225
1764768385.236091,-3.8913,0.39676,1.72438,-0.89636001,0.382262205,0.148620225
1764768385.236091,-3.31142,0.9003399999999999,1.72438,-0.89648208,0.381651855,0.14941368
1764768385.236091,-3.31142,0.9003399999999999,1.72438,-0.89648208,0.381651855,0.14941368
1764768385.236091,-3.31142,0.9003399999999999,1.72438,-0.89648208,0.381651855,0.14941368
1764768385.236091,-3.31142,0.9003399999999999,1.72438,-0.89648208,0.381651855,0.14941368
1764768385.236091,-3.31142,0.9003399999999999,1.72438,-0.89648208,0.381651855,0.14941368
1764768385.236091,-3.31142,0.9003399999999999,1.72438,-0.89648208,0.381651855,0.14941368
1764768385.281859,-3.31142,0.9003399999999999,1.72438,-0.89648208,0.381651855,0.14941368
1764768385.282864,-3.31142,0.9003399999999999,1.72438,-0.89648208,0.381651855,0.14941368
1764768385.282864,-3.31142,0.9003399999999999,1.72438,-0.89648208,0.381651855,0.14941368
1764768385.282864,-3.31142,0.9003399999999999,1.72438,-0.89648208,0.381651855,0.14941368
1764768385.282864,-3.78448,0.3204599999999999,1.70912,-0.896176905,0.38024805,0.1501461
1764768385.282864,-3.78448,0.3204599999999999,1.70912,-0.896176905,0.38024805,0.1501461
1764768385.282864,-3.78448,0.3204599999999999,1.70912,-0.896176905,0.38024805,0.1501461
1764768385.282864,-3.78448,0.3204599999999999,1.70912,-0.896176905,0.38024805,0.1501461
1764768385.282864,-3.78448,0.3204599999999999,1.70912,-0.896176905,0.38024805,0.1501461
1764768385.282864,-3.78448,0.3204599999999999,1.70912,-0.896176905,0.38024805,0.1501461
1764768385.282864,-3.78448,0.3204599999999999,1.70912,-0.896176905,0.38024805,0.1501461
1764768385.282864,-3.78448,0.3204599999999999,1.70912,-0.896176905,0.38024805,0.1501461
1764768385.282864,-3.78448,0.3204599999999999,1.70912,-0.896176905,0.38024805,0.1501461
1764768385.282864,-3.78448,0.3204599999999999,1.70912,-0.896176905,0.38024805,0.1501461
1764768385.282864,-3.69292,0.41202,1.17502,-0.89684829,0.379698735,0.14953575
1764768385.282864,-3.69292,0.41202,1.17502,-0.89684829,0.379698735,0.14953575
1764768385.282864,-3.69292,0.41202,1.17502,-0.89684829,0.379698735,0.14953575
1764768385.282864,-3.69292,0.41202,1.17502,-0.89684829,0.379698735,0.14953575
1764768385.282864,-3.69292,0.41202,1.17502,-0.89684829,0.379698735,0.14953575
1764768385.282864,-3.69292,0.41202,1.17502,-0.89684829,0.379698735,0.14953575
1764768385.329739,-3.69292,0.41202,1.17502,-0.89684829,0.379698735,0.14953575
1764768385.329739,-3.69292,0.41202,1.17502,-0.89684829,0.379698735,0.14953575
1764768385.329739,-3.69292,0.41202,1.17502,-0.89684829,0.379698735,0.14953575
1764768385.329739,-3.69292,0.41202,1.17502,-0.89684829,0.379698735,0.14953575
1764768385.329739,-3.2809,0.13734,1.1445,-0.8980689900000001,0.378600105,0.149108505
1764768385.329739,-3.2809,0.13734,1.1445,-0.8980689900000001,0.378600105,0.149108505
1764768385.329739,-3.2809,0.13734,1.1445,-0.8980689900000001,0.378600105,0.149108505
1764768385.329739,-3.2809,0.13734,1.1445,-0.8980689900000001,0.378600105,0.149108505
1764768385.329739,-3.2809,0.13734,1.1445,-0.8980689900000001,0.378600105,0.149108505
1764768385.329739,-3.2809,0.13734,1.1445,-0.8980689900000001,0.378600105,0.149108505
1764768385.329739,-3.2809,0.13734,1.1445,-0.8980689900000001,0.378600105,0.149108505
1764768385.329739,-3.2809,0.13734,1.1445,-0.8980689900000001,0.378600105,0.149108505
1764768385.329739,-3.2809,0.13734,1.1445,-0.8980689900000001,0.378600105,0.149108505
1764768385.329739,-3.2809,0.13734,1.1445,-0.8980689900000001,0.378600105,0.149108505
1764768385.329739,-2.4416,0.50358,1.34288,-0.89782485,0.37853907,0.148498155
1764768385.329739,-2.4416,0.50358,1.34288,-0.89782485,0.37853907,0.148498155
1764768385.329739,-2.4416,0.50358,1.34288,-0.89782485,0.37853907,0.148498155
1764768385.329739,-2.4416,0.50358,1.34288,-0.89782485,0.37853907,0.148498155
1764768385.329739,-2.4416,0.50358,1.34288,-0.89782485,0.37853907,0.148498155
1764768385.329739,-2.4416,0.50358,1.34288,-0.89782485,0.37853907,0.148498155
1764768385.329739,-2.4416,0.50358,1.34288,-0.89782485,0.37853907,0.148498155
1764768385.329739,-2.4416,0.50358,1.34288,-0.89782485,0.37853907,0.148498155
1764768385.329739,-2.4416,0.50358,1.34288,-0.89782485,0.37853907,0.148498155
1764768385.329739,-2.4416,0.50358,1.34288,-0.89782485,0.37853907,0.148498155
1764768385.3765514,-1.9075,-0.13734,1.43444,-0.89709243,0.37866114,0.149108505
1764768385.3765514,-1.9075,-0.13734,1.43444,-0.89709243,0.37866114,0.149108505
1764768385.3765514,-1.9075,-0.13734,1.43444,-0.89709243,0.37866114,0.149108505
1764768385.3765514,-1.9075,-0.13734,1.43444,-0.89709243,0.37866114,0.149108505
1764768385.3765514,-1.9075,-0.13734,1.43444,-0.89709243,0.37866114,0.149108505
1764768385.3765514,-1.9075,-0.13734,1.43444,-0.89709243,0.37866114,0.149108505
1764768385.3765514,-1.9075,-0.13734,1.43444,-0.89709243,0.37866114,0.149108505
1764768385.3765514,-1.9075,-0.13734,1.43444,-0.89709243,0.37866114,0.149108505
1764768385.3765514,-1.9075,-0.13734,1.43444,-0.89709243,0.37866114,0.149108505
1764768385.3765514,-1.9075,-0.13734,1.43444,-0.89709243,0.37866114,0.149108505
1764768385.3765514,-1.48022,0.01526,1.57178,-0.89697036,0.38000391,0.149108505
1764768385.3765514,-1.48022,0.01526,1.57178,-0.89697036,0.38000391,0.149108505
1764768385.3765514,-1.48022,0.01526,1.57178,-0.89697036,0.38000391,0.149108505
1764768385.3765514,-1.48022,0.01526,1.57178,-0.89697036,0.38000391,0.149108505
1764768385.3765514,-1.48022,0.01526,1.57178,-0.89697036,0.38000391,0.149108505
1764768385.3765514,-1.48022,0.01526,1.57178,-0.89697036,0.38000391,0.149108505
1764768385.3765514,-1.48022,0.01526,1.57178,-0.89697036,0.38000391,0.149108505
1764768385.3765514,-1.48022,0.01526,1.57178,-0.89697036,0.38000391,0.149108505
1764768385.3765514,-1.48022,0.01526,1.57178,-0.89697036,0.38000391,0.149108505
1764768385.3765514,-1.48022,0.01526,1.57178,-0.89697036,0.38000391,0.149108505
1764768385.3765514,-1.73964,0.50358,0.74774,-0.89611587,0.38122461,0.14880333
1764768385.3765514,-1.73964,0.50358,0.74774,-0.89611587,0.38122461,0.14880333
1764768385.4228714,-1.73964,0.50358,0.74774,-0.89611587,0.38122461,0.14880333
1764768385.4228714,-1.73964,0.50358,0.74774,-0.89611587,0.38122461,0.14880333
1764768385.4228714,-1.73964,0.50358,0.74774,-0.89611587,0.38122461,0.14880333
1764768385.4228714,-1.73964,0.50358,0.74774,-0.89611587,0.38122461,0.14880333
1764768385.423914,-1.73964,0.50358,0.74774,-0.89611587,0.38122461,0.14880333
1764768385.423914,-1.73964,0.50358,0.74774,-0.89611587,0.38122461,0.14880333
1764768385.423914,-1.73964,0.50358,0.74774,-0.89611587,0.38122461,0.14880333
1764768385.423914,-1.73964,0.50358,0.74774,-0.89611587,0.38122461,0.14880333
1764768385.423914,-2.41108,0.5341,0.9156,-0.894834135,0.381651855,0.148742295
1764768385.423914,-2.41108,0.5341,0.9156,-0.894834135,0.381651855,0.148742295
1764768385.423914,-2.41108,0.5341,0.9156,-0.894834135,0.381651855,0.148742295
1764768385.423914,-2.41108,0.5341,0.9156,-0.894834135,0.381651855,0.148742295
1764768385.423914,-2.41108,0.5341,0.9156,-0.894834135,0.381651855,0.148742295
1764768385.423914,-2.41108,0.5341,0.9156,-0.894834135,0.381651855,0.148742295
1764768385.423914,-2.41108,0.5341,0.9156,-0.894834135,0.381651855,0.148742295
1764768385.423914,-2.41108,0.5341,0.9156,-0.894834135,0.381651855,0.148742295
1764768385.423914,-2.41108,0.5341,0.9156,-0.894834135,0.381651855,0.148742295
1764768385.423914,-2.41108,0.5341,0.9156,-0.894834135,0.381651855,0.148742295
1764768385.423914,-2.91466,0.59514,0.51884,-0.89452896,0.382750485,0.148742295
1764768385.423914,-2.91466,0.59514,0.51884,-0.89452896,0.382750485,0.148742295
1764768385.423914,-2.91466,0.59514,0.51884,-0.89452896,0.382750485,0.148742295
1764768385.423914,-2.91466,0.59514,0.51884,-0.89452896,0.382750485,0.148742295
1764768385.423914,-2.91466,0.59514,0.51884,-0.89452896,0.382750485,0.148742295
1764768385.423914,-2.91466,0.59514,0.51884,-0.89452896,0.382750485,0.148742295
1764768385.423914,-2.91466,0.59514,0.51884,-0.89452896,0.382750485,0.148742295
1764768385.423914,-2.91466,0.59514,0.51884,-0.89452896,0.382750485,0.148742295
1764768385.4697294,-2.91466,0.59514,0.51884,-0.89452896,0.382750485,0.148742295
1764768385.4697294,-2.91466,0.59514,0.51884,-0.89452896,0.382750485,0.148742295
1764768385.4697294,-3.32668,0.73248,0.47306,-0.89501724,0.38415429,0.149474715
1764768385.4697294,-3.32668,0.73248,0.47306,-0.89501724,0.38415429,0.149474715
1764768385.4697294,-3.32668,0.73248,0.47306,-0.89501724,0.38415429,0.149474715
1764768385.4697294,-3.32668,0.73248,0.47306,-0.89501724,0.38415429,0.149474715
1764768385.4707346,-3.32668,0.73248,0.47306,-0.89501724,0.38415429,0.149474715
1764768385.4707346,-3.32668,0.73248,0.47306,-0.89501724,0.38415429,0.149474715
1764768385.4707346,-3.32668,0.73248,0.47306,-0.89501724,0.38415429,0.149474715
1764768385.4707346,-3.32668,0.73248,0.47306,-0.89501724,0.38415429,0.149474715
1764768385.4707346,-3.32668,0.73248,0.47306,-0.89501724,0.38415429,0.149474715
1764768385.4707346,-3.32668,0.73248,0.47306,-0.89501724,0.38415429,0.149474715
1764768385.4707346,-3.79974,0.763,0.56462,-0.894589995,0.384093255,0.14965782
1764768385.4707346,-3.79974,0.763,0.56462,-0.894589995,0.384093255,0.14965782
1764768385.4707346,-3.79974,0.763,0.56462,-0.894589995,0.384093255,0.14965782
1764768385.4707346,-3.79974,0.763,0.56462,-0.894589995,0.384093255,0.14965782
1764768385.4707346,-3.79974,0.763,0.56462,-0.894589995,0.384093255,0.14965782
1764768385.4707346,-3.79974,0.763,0.56462,-0.894589995,0.384093255,0.14965782
1764768385.4707346,-3.79974,0.763,0.56462,-0.894589995,0.384093255,0.14965782
1764768385.4707346,-3.79974,0.763,0.56462,-0.894589995,0.384093255,0.14965782
1764768385.4707346,-3.79974,0.763,0.56462,-0.894589995,0.384093255,0.14965782
1764768385.4707346,-3.79974,0.763,0.56462,-0.894589995,0.384093255,0.14965782
1764768385.471739,-3.93708,0.59514,0.85456,-0.894712065,0.38415429,0.149352645
1764768385.471739,-3.93708,0.59514,0.85456,-0.894712065,0.38415429,0.149352645
1764768385.514136,-3.93708,0.59514,0.85456,-0.894712065,0.38415429,0.149352645
1764768385.514136,-3.93708,0.59514,0.85456,-0.894712065,0.38415429,0.149352645
1764768385.514644,-3.93708,0.59514,0.85456,-0.894712065,0.38415429,0.149352645
1764768385.519165,-3.93708,0.59514,0.85456,-0.894712065,0.38415429,0.149352645
1764768385.519165,-3.93708,0.59514,0.85456,-0.894712065,0.38415429,0.149352645
1764768385.519165,-3.93708,0.59514,0.85456,-0.894712065,0.38415429,0.149352645
1764768385.519165,-3.93708,0.59514,0.85456,-0.894712065,0.38415429,0.149352645
1764768385.519165,-3.93708,0.59514,0.85456,-0.894712065,0.38415429,0.149352645
1764768385.5201764,-3.84552,0.74774,0.85456,-0.8949562050000001,0.38244531,0.148742295
1764768385.5201764,-3.84552,0.74774,0.85456,-0.8949562050000001,0.38244531,0.148742295
1764768385.5201764,-3.84552,0.74774,0.85456,-0.8949562050000001,0.38244531,0.148742295
1764768385.5201764,-3.84552,0.74774,0.85456,-0.8949562050000001,0.38244531,0.148742295
1764768385.5201764,-3.84552,0.74774,0.85456,-0.8949562050000001,0.38244531,0.148742295
1764768385.5201764,-3.84552,0.74774,0.85456,-0.8949562050000001,0.38244531,0.148742295
1764768385.5201764,-3.84552,0.74774,0.85456,-0.8949562050000001,0.38244531,0.148742295
1764768385.5201764,-3.84552,0.74774,0.85456,-0.8949562050000001,0.38244531,0.148742295
1764768385.5201764,-3.84552,0.74774,0.85456,-0.8949562050000001,0.38244531,0.148742295
1764768385.5201764,-3.84552,0.74774,0.85456,-0.8949562050000001,0.38244531,0.148742295
1764768385.5201764,-3.87604,0.763,0.82404,-0.895810695,0.38244531,0.148498155
1764768385.5201764,-3.87604,0.763,0.82404,-0.895810695,0.38244531,0.148498155
1764768385.5201764,-3.87604,0.763,0.82404,-0.895810695,0.38244531,0.148498155
1764768385.5201764,-3.87604,0.763,0.82404,-0.895810695,0.38244531,0.148498155
1764768385.5622363,-3.87604,0.763,0.82404,-0.895810695,0.38244531,0.148498155
1764768385.5622363,-3.87604,0.763,0.82404,-0.895810695,0.38244531,0.148498155
1764768385.5622363,-3.87604,0.763,0.82404,-0.895810695,0.38244531,0.148498155
1764768385.5622363,-3.87604,0.763,0.82404,-0.895810695,0.38244531,0.148498155
1764768385.5622363,-3.87604,0.763,0.82404,-0.895810695,0.38244531,0.148498155
1764768385.5622363,-3.87604,0.763,0.82404,-0.895810695,0.38244531,0.148498155
1764768385.5622363,-4.25754,0.6714399999999999,0.79352,-0.895322415,0.382262205,0.14880333
1764768385.5622363,-4.25754,0.6714399999999999,0.79352,-0.895322415,0.382262205,0.14880333
1764768385.5622363,-4.25754,0.6714399999999999,0.79352,-0.895322415,0.382262205,0.14880333
1764768385.5622363,-4.25754,0.6714399999999999,0.79352,-0.895322415,0.382262205,0.14880333
1764768385.5622363,-4.25754,0.6714399999999999,0.79352,-0.895322415,0.382262205,0.14880333
1764768385.5622363,-4.25754,0.6714399999999999,0.79352,-0.895322415,0.382262205,0.14880333
1764768385.5632432,-4.25754,0.6714399999999999,0.79352,-0.895322415,0.382262205,0.14880333
1764768385.5632432,-4.25754,0.6714399999999999,0.79352,-0.895322415,0.382262205,0.14880333
1764768385.5632432,-4.25754,0.6714399999999999,0.79352,-0.895322415,0.382262205,0.14880333
1764768385.5632432,-4.25754,0.6714399999999999,0.79352,-0.895322415,0.382262205,0.14880333
1764768385.5632432,-4.22702,0.8698199999999999,1.2055399999999998,-0.895078275,0.38232324,0.14904747
1764768385.5632432,-4.22702,0.8698199999999999,1.2055399999999998,-0.895078275,0.38232324,0.14904747
1764768385.5632432,-4.22702,0.8698199999999999,1.2055399999999998,-0.895078275,0.38232324,0.14904747
1764768385.5632432,-4.22702,0.8698199999999999,1.2055399999999998,-0.895078275,0.38232324,0.14904747
1764768385.6060877,-4.22702,0.8698199999999999,1.2055399999999998,-0.895078275,0.38232324,0.14904747
1764768385.6060877,-4.22702,0.8698199999999999,1.2055399999999998,-0.895078275,0.38232324,0.14904747
1764768385.6060877,-4.22702,0.8698199999999999,1.2055399999999998,-0.895078275,0.38232324,0.14904747
1764768385.6060877,-4.22702,0.8698199999999999,1.2055399999999998,-0.895078275,0.38232324,0.14904747
1764768385.6060877,-4.22702,0.8698199999999999,1.2055399999999998,-0.895078275,0.38232324,0.14904747
1764768385.607099,-4.22702,0.8698199999999999,1.2055399999999998,-0.895078275,0.38232324,0.14904747
1764768385.607099,-4.18124,1.12924,1.0682,-0.895200345,0.38268945,0.1489254
1764768385.607099,-4.18124,1.12924,1.0682,-0.895200345,0.38268945,0.1489254
1764768385.607099,-4.18124,1.12924,1.0682,-0.895200345,0.38268945,0.1489254
1764768385.607099,-4.18124,1.12924,1.0682,-0.895200345,0.38268945,0.1489254
1764768385.607099,-4.18124,1.12924,1.0682,-0.895200345,0.38268945,0.1489254
1764768385.607099,-4.18124,1.12924,1.0682,-0.895200345,0.38268945,0.1489254
1764768385.607099,-4.18124,1.12924,1.0682,-0.895200345,0.38268945,0.1489254
1764768385.607099,-4.18124,1.12924,1.0682,-0.895200345,0.38268945,0.1489254
1764768385.607099,-4.18124,1.12924,1.0682,-0.895200345,0.38268945,0.1489254
1764768385.607099,-4.18124,1.12924,1.0682,-0.895200345,0.38268945,0.1489254
1764768385.607099,-4.41014,1.15976,1.3734,-0.89562759,0.38268945,0.14904747
1764768385.607099,-4.41014,1.15976,1.3734,-0.89562759,0.38268945,0.14904747
1764768385.6076124,-4.41014,1.15976,1.3734,-0.89562759,0.38268945,0.14904747
1764768385.6076124,-4.41014,1.15976,1.3734,-0.89562759,0.38268945,0.14904747
1764768385.6076124,-4.41014,1.15976,1.3734,-0.89562759,0.38268945,0.14904747
1764768385.6076124,-4.41014,1.15976,1.3734,-0.89562759,0.38268945,0.14904747
1764768385.6076124,-4.41014,1.15976,1.3734,-0.89562759,0.38268945,0.14904747
1764768385.6076124,-4.41014,1.15976,1.3734,-0.89562759,0.38268945,0.14904747
1764768385.6076124,-4.41014,1.15976,1.3734,-0.89562759,0.38268945,0.14904747
1764768385.6076124,-4.41014,1.15976,1.3734,-0.89562759,0.38268945,0.14904747
1764768385.6544366,-4.47118,1.0682,1.3734,-0.89452896,0.38317773,0.148742295
1764768385.6544366,-4.47118,1.0682,1.3734,-0.89452896,0.38317773,0.148742295
1764768385.6544366,-4.47118,1.0682,1.3734,-0.89452896,0.38317773,0.148742295
1764768385.6544366,-4.47118,1.0682,1.3734,-0.89452896,0.38317773,0.148742295
1764768385.6544366,-4.47118,1.0682,1.3734,-0.89452896,0.38317773,0.148742295
1764768385.6544366,-4.47118,1.0682,1.3734,-0.89452896,0.38317773,0.148742295
1764768385.6544366,-4.47118,1.0682,1.3734,-0.89452896,0.38317773,0.148742295
1764768385.6549888,-4.47118,1.0682,1.3734,-0.89452896,0.38317773,0.148742295
1764768385.6549888,-4.47118,1.0682,1.3734,-0.89452896,0.38317773,0.148742295
1764768385.6549888,-4.47118,1.0682,1.3734,-0.89452896,0.38317773,0.148742295
1764768385.6549888,-4.852679999999999,1.19028,0.74774,-0.894467925,0.38354394,0.149474715
1764768385.6549888,-4.852679999999999,1.19028,0.74774,-0.894467925,0.38354394,0.149474715
1764768385.6549888,-4.852679999999999,1.19028,0.74774,-0.894467925,0.38354394,0.149474715
1764768385.6549888,-4.852679999999999,1.19028,0.74774,-0.894467925,0.38354394,0.149474715
1764768385.6549888,-4.852679999999999,1.19028,0.74774,-0.894467925,0.38354394,0.149474715
1764768385.6549888,-4.852679999999999,1.19028,0.74774,-0.894467925,0.38354394,0.149474715
1764768385.6549888,-4.852679999999999,1.19028,0.74774,-0.894467925,0.38354394,0.149474715
1764768385.6549888,-4.852679999999999,1.19028,0.74774,-0.894467925,0.38354394,0.149474715
1764768385.6549888,-4.852679999999999,1.19028,0.74774,-0.894467925,0.38354394,0.149474715
1764768385.6549888,-4.852679999999999,1.19028,0.74774,-0.894467925,0.38354394,0.149474715
1764768385.6549888,-5.478339999999999,1.69386,0.94612,-0.893979645,0.383482905,0.1489254
1764768385.6549888,-5.478339999999999,1.69386,0.94612,-0.893979645,0.383482905,0.1489254
1764768385.6549888,-5.478339999999999,1.69386,0.94612,-0.893979645,0.383482905,0.1489254
1764768385.6549888,-5.478339999999999,1.69386,0.94612,-0.893979645,0.383482905,0.1489254
1764768385.7008648,-5.478339999999999,1.69386,0.94612,-0.893979645,0.383482905,0.1489254
1764768385.7018795,-5.478339999999999,1.69386,0.94612,-0.893979645,0.383482905,0.1489254
1764768385.7018795,-5.478339999999999,1.69386,0.94612,-0.893979645,0.383482905,0.1489254
1764768385.7018795,-5.478339999999999,1.69386,0.94612,-0.893979645,0.383482905,0.1489254
1764768385.7018795,-5.478339999999999,1.69386,0.94612,-0.893979645,0.383482905,0.1489254
1764768385.7018795,-5.478339999999999,1.69386,0.94612,-0.893979645,0.383482905,0.1489254
1764768385.7018795,-5.615679999999999,1.2208,0.79352,-0.894223785,0.38427636,0.148498155
1764768385.7018795,-5.615679999999999,1.2208,0.79352,-0.894223785,0.38427636,0.148498155
1764768385.7018795,-5.615679999999999,1.2208,0.79352,-0.894223785,0.38427636,0.148498155
1764768385.7018795,-5.615679999999999,1.2208,0.79352,-0.894223785,0.38427636,0.148498155
1764768385.7018795,-5.615679999999999,1.2208,0.79352,-0.894223785,0.38427636,0.148498155
1764768385.7018795,-5.615679999999999,1.2208,0.79352,-0.894223785,0.38427636,0.148498155
1764768385.7018795,-5.615679999999999,1.2208,0.79352,-0.894223785,0.38427636,0.148498155
1764768385.7018795,-5.615679999999999,1.2208,0.79352,-0.894223785,0.38427636,0.148498155
1764768385.7018795,-5.615679999999999,1.2208,0.79352,-0.894223785,0.38427636,0.148498155
1764768385.7018795,-5.615679999999999,1.2208,0.79352,-0.894223785,0.38427636,0.148498155
1764768385.7018795,-5.997179999999999,1.95328,0.9156,-0.89428482,0.383727045,0.147887805
1764768385.7018795,-5.997179999999999,1.95328,0.9156,-0.89428482,0.383727045,0.147887805
1764768385.7018795,-5.997179999999999,1.95328,0.9156,-0.89428482,0.383727045,0.147887805
1764768385.7018795,-5.997179999999999,1.95328,0.9156,-0.89428482,0.383727045,0.147887805
1764768385.7018795,-5.997179999999999,1.95328,0.9156,-0.89428482,0.383727045,0.147887805
1764768385.7018795,-5.997179999999999,1.95328,0.9156,-0.89428482,0.383727045,0.147887805
1764768385.7447977,-5.997179999999999,1.95328,0.9156,-0.89428482,0.383727045,0.147887805
1764768385.7447977,-5.997179999999999,1.95328,0.9156,-0.89428482,0.383727045,0.147887805
1764768385.7447977,-5.997179999999999,1.95328,0.9156,-0.89428482,0.383727045,0.147887805
1764768385.7447977,-5.997179999999999,1.95328,0.9156,-0.89428482,0.383727045,0.147887805
1764768385.7447977,-5.76828,1.64808,0.85456,-0.89501724,0.38244531,0.148376085
1764768385.7447977,-5.76828,1.64808,0.85456,-0.89501724,0.38244531,0.148376085
1764768385.7447977,-5.76828,1.64808,0.85456,-0.89501724,0.38244531,0.148376085
1764768385.7447977,-5.76828,1.64808,0.85456,-0.89501724,0.38244531,0.148376085
1764768385.7447977,-5.76828,1.64808,0.85456,-0.89501724,0.38244531,0.148376085
1764768385.7447977,-5.76828,1.64808,0.85456,-0.89501724,0.38244531,0.148376085
1764768385.7447977,-5.76828,1.64808,0.85456,-0.89501724,0.38244531,0.148376085
1764768385.7447977,-5.76828,1.64808,0.85456,-0.89501724,0.38244531,0.148376085
1764768385.7447977,-5.76828,1.64808,0.85456,-0.89501724,0.38244531,0.148376085
1764768385.7447977,-5.76828,1.64808,0.85456,-0.89501724,0.38244531,0.148376085
1764768385.7447977,-4.959499999999999,1.8006799999999998,0.82404,-0.8947731,0.37988184,0.14941368
1764768385.7447977,-4.959499999999999,1.8006799999999998,0.82404,-0.8947731,0.37988184,0.14941368
1764768385.7447977,-4.959499999999999,1.8006799999999998,0.82404,-0.8947731,0.37988184,0.14941368
1764768385.7447977,-4.959499999999999,1.8006799999999998,0.82404,-0.8947731,0.37988184,0.14941368
1764768385.7447977,-4.959499999999999,1.8006799999999998,0.82404,-0.8947731,0.37988184,0.14941368
1764768385.7447977,-4.959499999999999,1.8006799999999998,0.82404,-0.8947731,0.37988184,0.14941368
1764768385.7447977,-4.959499999999999,1.8006799999999998,0.82404,-0.8947731,0.37988184,0.14941368
1764768385.7447977,-4.959499999999999,1.8006799999999998,0.82404,-0.8947731,0.37988184,0.14941368
1764768385.7957847,-4.959499999999999,1.8006799999999998,0.82404,-0.8947731,0.37988184,0.14941368
1764768385.7957847,-4.959499999999999,1.8006799999999998,0.82404,-0.8947731,0.37988184,0.14941368
1764768385.7957847,-4.15072,1.31236,0.39676,-0.89587173,0.380187015,0.150451275
1764768385.7957847,-4.15072,1.31236,0.39676,-0.89587173,0.380187015,0.150451275
1764768385.7957847,-4.15072,1.31236,0.39676,-0.89587173,0.380187015,0.150451275
1764768385.7957847,-4.15072,1.31236,0.39676,-0.89587173,0.380187015,0.150451275
1764768385.7957847,-4.15072,1.31236,0.39676,-0.89587173,0.380187015,0.150451275
1764768385.7957847,-4.15072,1.31236,0.39676,-0.89587173,0.380187015,0.150451275
1764768385.7957847,-4.15072,1.31236,0.39676,-0.89587173,0.380187015,0.150451275
1764768385.7957847,-4.15072,1.31236,0.39676,-0.89587173,0.380187015,0.150451275
1764768385.7957847,-4.15072,1.31236,0.39676,-0.89587173,0.380187015,0.150451275
1764768385.7957847,-4.15072,1.31236,0.39676,-0.89587173,0.380187015,0.150451275
1764768385.7957847,-4.76112,1.03768,0.42728,-0.8965431150000001,0.38171289,0.151427835
1764768385.7957847,-4.76112,1.03768,0.42728,-0.8965431150000001,0.38171289,0.151427835
1764768385.7957847,-4.76112,1.03768,0.42728,-0.8965431150000001,0.38171289,0.151427835
1764768385.7957847,-4.76112,1.03768,0.42728,-0.8965431150000001,0.38171289,0.151427835
1764768385.7957847,-4.76112,1.03768,0.42728,-0.8965431150000001,0.38171289,0.151427835
1764768385.7957847,-4.76112,1.03768,0.42728,-0.8965431150000001,0.38171289,0.151427835
1764768385.7957847,-4.76112,1.03768,0.42728,-0.8965431150000001,0.38171289,0.151427835
1764768385.7957847,-4.76112,1.03768,0.42728,-0.8965431150000001,0.38171289,0.151427835
1764768385.7957847,-4.76112,1.03768,0.42728,-0.8965431150000001,0.38171289,0.151427835
1764768385.7957847,-4.76112,1.03768,0.42728,-0.8965431150000001,0.38171289,0.151427835
1764768385.7957847,-4.76112,1.49548,0.1678599999999999,-0.89550552,0.38281152,0.15075645
1764768385.7957847,-4.76112,1.49548,0.1678599999999999,-0.89550552,0.38281152,0.15075645
1764768385.8413572,-4.76112,1.49548,0.1678599999999999,-0.89550552,0.38281152,0.15075645
1764768385.8413572,-4.76112,1.49548,0.1678599999999999,-0.89550552,0.38281152,0.15075645
1764768385.8413572,-4.76112,1.49548,0.1678599999999999,-0.89550552,0.38281152,0.15075645
1764768385.8413572,-4.76112,1.49548,0.1678599999999999,-0.89550552,0.38281152,0.15075645
1764768385.8413572,-4.76112,1.49548,0.1678599999999999,-0.89550552,0.38281152,0.15075645
1764768385.8423629,-4.76112,1.49548,0.1678599999999999,-0.89550552,0.38281152,0.15075645
1764768385.8423629,-4.76112,1.49548,0.1678599999999999,-0.89550552,0.38281152,0.15075645
1764768385.8423629,-4.76112,1.49548,0.1678599999999999,-0.89550552,0.38281152,0.15075645
1764768385.8423629,-5.0358,1.57178,-0.56462,-0.89416275,0.382140135,0.15002403
1764768385.8423629,-5.0358,1.57178,-0.56462,-0.89416275,0.382140135,0.15002403
1764768385.8423629,-5.0358,1.57178,-0.56462,-0.89416275,0.382140135,0.15002403
1764768385.8423629,-5.0358,1.57178,-0.56462,-0.89416275,0.382140135,0.15002403
1764768385.8423629,-5.0358,1.57178,-0.56462,-0.89416275,0.382140135,0.15002403
1764768385.8423629,-5.0358,1.57178,-0.56462,-0.89416275,0.382140135,0.15002403
1764768385.8423629,-5.0358,1.57178,-0.56462,-0.89416275,0.382140135,0.15002403
1764768385.8423629,-5.0358,1.57178,-0.56462,-0.89416275,0.382140135,0.15002403
1764768385.8423629,-5.0358,1.57178,-0.56462,-0.89416275,0.382140135,0.15002403
1764768385.8423629,-5.0358,1.57178,-0.56462,-0.89416275,0.382140135,0.15002403
1764768385.8423629,-4.94424,1.23606,-0.10682,-0.893491365,0.38305566,0.14880333
1764768385.8423629,-4.94424,1.23606,-0.10682,-0.893491365,0.38305566,0.14880333
1764768385.8423629,-4.94424,1.23606,-0.10682,-0.893491365,0.38305566,0.14880333
1764768385.8423629,-4.94424,1.23606,-0.10682,-0.893491365,0.38305566,0.14880333
1764768385.8423629,-4.94424,1.23606,-0.10682,-0.893491365,0.38305566,0.14880333
1764768385.8423629,-4.94424,1.23606,-0.10682,-0.893491365,0.38305566,0.14880333
1764768385.884868,-4.94424,1.23606,-0.10682,-0.893491365,0.38305566,0.14880333
1764768385.884868,-4.94424,1.23606,-0.10682,-0.893491365,0.38305566,0.14880333
1764768385.884868,-4.94424,1.23606,-0.10682,-0.893491365,0.38305566,0.14880333
1764768385.884868,-4.94424,1.23606,-0.10682,-0.893491365,0.38305566,0.14880333
1764768385.884868,-6.302379999999999,1.69386,-0.25942,-0.89489517,0.385069815,0.14758263
1764768385.884868,-6.302379999999999,1.69386,-0.25942,-0.89489517,0.385069815,0.14758263
1764768385.884868,-6.302379999999999,1.69386,-0.25942,-0.89489517,0.385069815,0.14758263
1764768385.884868,-6.302379999999999,1.69386,-0.25942,-0.89489517,0.385069815,0.14758263
1764768385.884868,-6.302379999999999,1.69386,-0.25942,-0.89489517,0.385069815,0.14758263
1764768385.884868,-6.302379999999999,1.69386,-0.25942,-0.89489517,0.385069815,0.14758263
1764768385.884868,-6.302379999999999,1.69386,-0.25942,-0.89489517,0.385069815,0.14758263
1764768385.884868,-6.302379999999999,1.69386,-0.25942,-0.89489517,0.385069815,0.14758263
1764768385.884868,-6.302379999999999,1.69386,-0.25942,-0.89489517,0.385069815,0.14758263
1764768385.884868,-6.302379999999999,1.69386,-0.25942,-0.89489517,0.385069815,0.14758263
1764768385.8853705,-6.83648,2.04484,-0.6103999999999999,-0.89550552,0.383482905,0.148254015
1764768385.8853705,-6.83648,2.04484,-0.6103999999999999,-0.89550552,0.383482905,0.148254015
1764768385.8863766,-6.83648,2.04484,-0.6103999999999999,-0.89550552,0.383482905,0.148254015
1764768385.8863766,-6.83648,2.04484,-0.6103999999999999,-0.89550552,0.383482905,0.148254015
1764768385.8863766,-6.83648,2.04484,-0.6103999999999999,-0.89550552,0.383482905,0.148254015
1764768385.8863766,-6.83648,2.04484,-0.6103999999999999,-0.89550552,0.383482905,0.148254015
1764768385.8863766,-6.83648,2.04484,-0.6103999999999999,-0.89550552,0.383482905,0.148254015
1764768385.8863766,-6.83648,2.04484,-0.6103999999999999,-0.89550552,0.383482905,0.148254015
1764768385.8863766,-6.83648,2.04484,-0.6103999999999999,-0.89550552,0.383482905,0.148254015
1764768385.8863766,-6.83648,2.04484,-0.6103999999999999,-0.89550552,0.383482905,0.148254015
1764768385.9329147,-5.58516,2.0601,-0.6867,-0.894712065,0.379454595,0.14929161
1764768385.9334326,-5.58516,2.0601,-0.6867,-0.894712065,0.379454595,0.14929161
1764768385.9334326,-5.58516,2.0601,-0.6867,-0.894712065,0.379454595,0.14929161
1764768385.9334326,-5.58516,2.0601,-0.6867,-0.894712065,0.379454595,0.14929161
1764768385.9334326,-5.58516,2.0601,-0.6867,-0.894712065,0.379454595,0.14929161
1764768385.9334326,-5.58516,2.0601,-0.6867,-0.894712065,0.379454595,0.14929161
1764768385.9334326,-5.58516,2.0601,-0.6867,-0.894712065,0.379454595,0.14929161
1764768385.9334326,-5.58516,2.0601,-0.6867,-0.894712065,0.379454595,0.14929161
1764768385.9334326,-5.58516,2.0601,-0.6867,-0.894712065,0.379454595,0.14929161
1764768385.9334326,-5.58516,2.0601,-0.6867,-0.894712065,0.379454595,0.14929161
1764768385.9334326,-4.53222,1.81594,-0.44254,-0.89538345,0.377745615,0.149962995
1764768385.9334326,-4.53222,1.81594,-0.44254,-0.89538345,0.377745615,0.149962995
1764768385.9334326,-4.53222,1.81594,-0.44254,-0.89538345,0.377745615,0.149962995
1764768385.9334326,-4.53222,1.81594,-0.44254,-0.89538345,0.377745615,0.149962995
1764768385.9334326,-4.53222,1.81594,-0.44254,-0.89538345,0.377745615,0.149962995
1764768385.9334326,-4.53222,1.81594,-0.44254,-0.89538345,0.377745615,0.149962995
1764768385.9334326,-4.53222,1.81594,-0.44254,-0.89538345,0.377745615,0.149962995
1764768385.9334326,-4.53222,1.81594,-0.44254,-0.89538345,0.377745615,0.149962995
1764768385.9334326,-4.53222,1.81594,-0.44254,-0.89538345,0.377745615,0.149962995
1764768385.9334326,-4.53222,1.81594,-0.44254,-0.89538345,0.377745615,0.149962995
1764768385.9334326,-3.98286,1.34288,-0.50358,-0.89770278,0.37817286,0.15026817
1764768385.9334326,-3.98286,1.34288,-0.50358,-0.89770278,0.37817286,0.15026817
1764768385.9802654,-3.98286,1.34288,-0.50358,-0.89770278,0.37817286,0.15026817
1764768385.9802654,-3.98286,1.34288,-0.50358,-0.89770278,0.37817286,0.15026817
1764768385.9802654,-3.98286,1.34288,-0.50358,-0.89770278,0.37817286,0.15026817
1764768385.9802654,-3.98286,1.34288,-0.50358,-0.89770278,0.37817286,0.15026817
1764768385.9802654,-3.98286,1.34288,-0.50358,-0.89770278,0.37817286,0.15026817
1764768385.9802654,-3.98286,1.34288,-0.50358,-0.89770278,0.37817286,0.15026817
1764768385.9802654,-3.98286,1.34288,-0.50358,-0.89770278,0.37817286,0.15026817
1764768385.9802654,-3.98286,1.34288,-0.50358,-0.89770278,0.37817286,0.15026817
1764768385.9802654,-3.75396,1.26658,-0.3204599999999999,-0.897763815,0.37853907,0.15063438
1764768385.9802654,-3.75396,1.26658,-0.3204599999999999,-0.897763815,0.37853907,0.15063438
1764768385.9802654,-3.75396,1.26658,-0.3204599999999999,-0.897763815,0.37853907,0.15063438
1764768385.9802654,-3.75396,1.26658,-0.3204599999999999,-0.897763815,0.37853907,0.15063438
1764768385.9802654,-3.75396,1.26658,-0.3204599999999999,-0.897763815,0.37853907,0.15063438
1764768385.9802654,-3.75396,1.26658,-0.3204599999999999,-0.897763815,0.37853907,0.15063438
1764768385.9802654,-3.75396,1.26658,-0.3204599999999999,-0.897763815,0.37853907,0.15063438
1764768385.9802654,-3.75396,1.26658,-0.3204599999999999,-0.897763815,0.37853907,0.15063438
1764768385.9802654,-3.75396,1.26658,-0.3204599999999999,-0.897763815,0.37853907,0.15063438
1764768385.9802654,-3.75396,1.26658,-0.3204599999999999,-0.897763815,0.37853907,0.15063438
1764768385.9802654,-3.40298,1.2055399999999998,0.1525999999999999,-0.8972145,0.37951563,0.15026817
1764768385.9802654,-3.40298,1.2055399999999998,0.1525999999999999,-0.8972145,0.37951563,0.15026817
1764768385.9802654,-3.40298,1.2055399999999998,0.1525999999999999,-0.8972145,0.37951563,0.15026817
1764768385.9802654,-3.40298,1.2055399999999998,0.1525999999999999,-0.8972145,0.37951563,0.15026817
1764768385.9802654,-3.40298,1.2055399999999998,0.1525999999999999,-0.8972145,0.37951563,0.15026817
1764768385.9802654,-3.40298,1.2055399999999998,0.1525999999999999,-0.8972145,0.37951563,0.15026817
1764768386.0268729,-3.40298,1.2055399999999998,0.1525999999999999,-0.8972145,0.37951563,0.15026817
1764768386.0268729,-3.40298,1.2055399999999998,0.1525999999999999,-0.8972145,0.37951563,0.15026817
1764768386.0268729,-3.40298,1.2055399999999998,0.1525999999999999,-0.8972145,0.37951563,0.15026817
1764768386.0268729,-3.40298,1.2055399999999998,0.1525999999999999,-0.8972145,0.37951563,0.15026817
1764768386.0268729,-3.5098,1.15976,-0.3357199999999999,-0.89660415,0.38134668,0.14977989
1764768386.0268729,-3.5098,1.15976,-0.3357199999999999,-0.89660415,0.38134668,0.14977989
1764768386.0268729,-3.5098,1.15976,-0.3357199999999999,-0.89660415,0.38134668,0.14977989
1764768386.0268729,-3.5098,1.15976,-0.3357199999999999,-0.89660415,0.38134668,0.14977989
1764768386.027391,-3.5098,1.15976,-0.3357199999999999,-0.89660415,0.38134668,0.14977989
1764768386.027391,-3.5098,1.15976,-0.3357199999999999,-0.89660415,0.38134668,0.14977989
1764768386.027391,-3.5098,1.15976,-0.3357199999999999,-0.89660415,0.38134668,0.14977989
1764768386.027391,-3.5098,1.15976,-0.3357199999999999,-0.89660415,0.38134668,0.14977989
1764768386.027391,-3.5098,1.15976,-0.3357199999999999,-0.89660415,0.38134668,0.14977989
1764768386.027391,-3.5098,1.15976,-0.3357199999999999,-0.89660415,0.38134668,0.14977989
1764768386.027391,-3.75396,0.9156,-0.85456,-0.89623794,0.383238765,0.148986435
1764768386.027391,-3.75396,0.9156,-0.85456,-0.89623794,0.383238765,0.148986435
1764768386.027391,-3.75396,0.9156,-0.85456,-0.89623794,0.383238765,0.148986435
1764768386.027391,-3.75396,0.9156,-0.85456,-0.89623794,0.383238765,0.148986435
1764768386.027391,-3.75396,0.9156,-0.85456,-0.89623794,0.383238765,0.148986435
1764768386.027391,-3.75396,0.9156,-0.85456,-0.89623794,0.383238765,0.148986435
1764768386.027391,-3.75396,0.9156,-0.85456,-0.89623794,0.383238765,0.148986435
1764768386.027391,-3.75396,0.9156,-0.85456,-0.89623794,0.383238765,0.148986435
1764768386.027391,-3.75396,0.9156,-0.85456,-0.89623794,0.383238765,0.148986435
1764768386.027391,-3.75396,0.9156,-0.85456,-0.89623794,0.383238765,0.148986435
1764768386.0734646,-4.37962,0.74774,-0.09156,-0.8959938000000001,0.38500878,0.14868126
1764768386.0734646,-4.37962,0.74774,-0.09156,-0.8959938000000001,0.38500878,0.14868126
1764768386.0734646,-4.37962,0.74774,-0.09156,-0.8959938000000001,0.38500878,0.14868126
1764768386.0734646,-4.37962,0.74774,-0.09156,-0.8959938000000001,0.38500878,0.14868126
1764768386.0734646,-4.37962,0.74774,-0.09156,-0.8959938000000001,0.38500878,0.14868126
1764768386.0734646,-4.37962,0.74774,-0.09156,-0.8959938000000001,0.38500878,0.14868126
1764768386.0734646,-4.37962,0.74774,-0.09156,-0.8959938000000001,0.38500878,0.14868126
1764768386.0734646,-4.37962,0.74774,-0.09156,-0.8959938000000001,0.38500878,0.14868126
1764768386.0734646,-4.37962,0.74774,-0.09156,-0.8959938000000001,0.38500878,0.14868126
1764768386.0734646,-4.37962,0.74774,-0.09156,-0.8959938000000001,0.38500878,0.14868126
1764768386.0734646,-4.822159999999999,1.41918,0.1525999999999999,-0.895078275,0.385191885,0.14953575
1764768386.0734646,-4.822159999999999,1.41918,0.1525999999999999,-0.895078275,0.385191885,0.14953575
1764768386.073985,-4.822159999999999,1.41918,0.1525999999999999,-0.895078275,0.385191885,0.14953575
1764768386.073985,-4.822159999999999,1.41918,0.1525999999999999,-0.895078275,0.385191885,0.14953575
1764768386.073985,-4.822159999999999,1.41918,0.1525999999999999,-0.895078275,0.385191885,0.14953575
1764768386.073985,-4.822159999999999,1.41918,0.1525999999999999,-0.895078275,0.385191885,0.14953575
1764768386.073985,-4.822159999999999,1.41918,0.1525999999999999,-0.895078275,0.385191885,0.14953575
1764768386.073985,-4.822159999999999,1.41918,0.1525999999999999,-0.895078275,0.385191885,0.14953575
1764768386.073985,-4.822159999999999,1.41918,0.1525999999999999,-0.895078275,0.385191885,0.14953575
1764768386.073985,-4.822159999999999,1.41918,0.1525999999999999,-0.895078275,0.385191885,0.14953575
1764768386.1196752,-5.340999999999999,1.26658,0.01526,-0.89379654,0.38439843,0.14965782
1764768386.1196752,-5.340999999999999,1.26658,0.01526,-0.89379654,0.38439843,0.14965782
1764768386.1196752,-5.340999999999999,1.26658,0.01526,-0.89379654,0.38439843,0.14965782
1764768386.1196752,-5.340999999999999,1.26658,0.01526,-0.89379654,0.38439843,0.14965782
1764768386.1196752,-5.340999999999999,1.26658,0.01526,-0.89379654,0.38439843,0.14965782
1764768386.1196752,-5.340999999999999,1.26658,0.01526,-0.89379654,0.38439843,0.14965782
1764768386.1196752,-5.340999999999999,1.26658,0.01526,-0.89379654,0.38439843,0.14965782
1764768386.1202102,-5.340999999999999,1.26658,0.01526,-0.89379654,0.38439843,0.14965782
1764768386.1202102,-5.340999999999999,1.26658,0.01526,-0.89379654,0.38439843,0.14965782
1764768386.1202102,-5.340999999999999,1.26658,0.01526,-0.89379654,0.38439843,0.14965782
1764768386.1202102,-5.508859999999999,0.54936,0.25942,-0.894467925,0.3820791,0.149474715
1764768386.1202102,-5.508859999999999,0.54936,0.25942,-0.894467925,0.3820791,0.149474715
1764768386.1202102,-5.508859999999999,0.54936,0.25942,-0.894467925,0.3820791,0.149474715
1764768386.1202102,-5.508859999999999,0.54936,0.25942,-0.894467925,0.3820791,0.149474715
1764768386.1202102,-5.508859999999999,0.54936,0.25942,-0.894467925,0.3820791,0.149474715
1764768386.1202102,-5.508859999999999,0.54936,0.25942,-0.894467925,0.3820791,0.149474715
1764768386.1202102,-5.508859999999999,0.54936,0.25942,-0.894467925,0.3820791,0.149474715
1764768386.1202102,-5.508859999999999,0.54936,0.25942,-0.894467925,0.3820791,0.149474715
1764768386.1202102,-5.508859999999999,0.54936,0.25942,-0.894467925,0.3820791,0.149474715
1764768386.1202102,-5.508859999999999,0.54936,0.25942,-0.894467925,0.3820791,0.149474715
1764768386.1202102,-5.06632,0.59514,0.3509799999999999,-0.895200345,0.3808584,0.14929161
1764768386.1202102,-5.06632,0.59514,0.3509799999999999,-0.895200345,0.3808584,0.14929161
1764768386.1202102,-5.06632,0.59514,0.3509799999999999,-0.895200345,0.3808584,0.14929161
1764768386.1202102,-5.06632,0.59514,0.3509799999999999,-0.895200345,0.3808584,0.14929161
1764768386.1661189,-5.06632,0.59514,0.3509799999999999,-0.895200345,0.3808584,0.14929161
1764768386.1661189,-5.06632,0.59514,0.3509799999999999,-0.895200345,0.3808584,0.14929161
1764768386.1661189,-5.06632,0.59514,0.3509799999999999,-0.895200345,0.3808584,0.14929161
1764768386.1661189,-5.06632,0.59514,0.3509799999999999,-0.895200345,0.3808584,0.14929161
1764768386.1661189,-5.06632,0.59514,0.3509799999999999,-0.895200345,0.3808584,0.14929161
1764768386.1661189,-5.06632,0.59514,0.3509799999999999,-0.895200345,0.3808584,0.14929161
1764768386.1661189,-4.852679999999999,0.3509799999999999,0.36624,-0.895932765,0.38073633,0.14990196
1764768386.1661189,-4.852679999999999,0.3509799999999999,0.36624,-0.895932765,0.38073633,0.14990196
1764768386.1661189,-4.852679999999999,0.3509799999999999,0.36624,-0.895932765,0.38073633,0.14990196
1764768386.1661189,-4.852679999999999,0.3509799999999999,0.36624,-0.895932765,0.38073633,0.14990196
1764768386.1661189,-4.852679999999999,0.3509799999999999,0.36624,-0.895932765,0.38073633,0.14990196
1764768386.1661189,-4.852679999999999,0.3509799999999999,0.36624,-0.895932765,0.38073633,0.14990196
1764768386.1661189,-4.852679999999999,0.3509799999999999,0.36624,-0.895932765,0.38073633,0.14990196
1764768386.1661189,-4.852679999999999,0.3509799999999999,0.36624,-0.895932765,0.38073633,0.14990196
1764768386.1661189,-4.852679999999999,0.3509799999999999,0.36624,-0.895932765,0.38073633,0.14990196
1764768386.1661189,-4.852679999999999,0.3509799999999999,0.36624,-0.895932765,0.38073633,0.14990196
1764768386.1661189,-4.94424,0.97664,0.28994,-0.896421045,0.38171289,0.150329205
1764768386.1661189,-4.94424,0.97664,0.28994,-0.896421045,0.38171289,0.150329205
1764768386.1661189,-4.94424,0.97664,0.28994,-0.896421045,0.38171289,0.150329205
1764768386.1661189,-4.94424,0.97664,0.28994,-0.896421045,0.38171289,0.150329205
1764768386.1661189,-4.94424,0.97664,0.28994,-0.896421045,0.38171289,0.150329205
1764768386.1661189,-4.94424,0.97664,0.28994,-0.896421045,0.38171289,0.150329205
1764768386.1661189,-4.94424,0.97664,0.28994,-0.896421045,0.38171289,0.150329205
1764768386.1661189,-4.94424,0.97664,0.28994,-0.896421045,0.38171289,0.150329205
1764768386.1661189,-4.94424,0.97664,0.28994,-0.896421045,0.38171289,0.150329205
1764768386.1661189,-4.94424,0.97664,0.28994,-0.896421045,0.38171289,0.150329205
1764768386.2126503,-5.12736,0.77826,-0.19838,-0.89697036,0.38171289,0.14965782
1764768386.2126503,-5.12736,0.77826,-0.19838,-0.89697036,0.38171289,0.14965782
1764768386.2126503,-5.12736,0.77826,-0.19838,-0.89697036,0.38171289,0.14965782
1764768386.2126503,-5.12736,0.77826,-0.19838,-0.89697036,0.38171289,0.14965782
1764768386.2126503,-5.12736,0.77826,-0.19838,-0.89697036,0.38171289,0.14965782
1764768386.2126503,-5.12736,0.77826,-0.19838,-0.89697036,0.38171289,0.14965782
1764768386.2126503,-5.12736,0.77826,-0.19838,-0.89697036,0.38171289,0.14965782
1764768386.2126503,-5.12736,0.77826,-0.19838,-0.89697036,0.38171289,0.14965782
1764768386.2126503,-5.12736,0.77826,-0.19838,-0.89697036,0.38171289,0.14965782
1764768386.2126503,-5.12736,0.77826,-0.19838,-0.89697036,0.38171289,0.14965782
1764768386.2126503,-4.89846,1.4497,0.1678599999999999,-0.89623794,0.381895995,0.14929161
1764768386.2126503,-4.89846,1.4497,0.1678599999999999,-0.89623794,0.381895995,0.14929161
1764768386.2126503,-4.89846,1.4497,0.1678599999999999,-0.89623794,0.381895995,0.14929161
1764768386.2126503,-4.89846,1.4497,0.1678599999999999,-0.89623794,0.381895995,0.14929161
1764768386.2126503,-4.89846,1.4497,0.1678599999999999,-0.89623794,0.381895995,0.14929161
1764768386.2126503,-4.89846,1.4497,0.1678599999999999,-0.89623794,0.381895995,0.14929161
1764768386.2126503,-4.89846,1.4497,0.1678599999999999,-0.89623794,0.381895995,0.14929161
1764768386.2126503,-4.89846,1.4497,0.1678599999999999,-0.89623794,0.381895995,0.14929161
1764768386.2126503,-4.89846,1.4497,0.1678599999999999,-0.89623794,0.381895995,0.14929161
1764768386.2126503,-4.89846,1.4497,0.1678599999999999,-0.89623794,0.381895995,0.14929161
1764768386.2126503,-5.05106,1.54126,0.01526,-0.89562759,0.382262205,0.14990196
1764768386.2126503,-5.05106,1.54126,0.01526,-0.89562759,0.382262205,0.14990196
1764768386.2596078,-5.05106,1.54126,0.01526,-0.89562759,0.382262205,0.14990196
1764768386.2596078,-5.05106,1.54126,0.01526,-0.89562759,0.382262205,0.14990196
1764768386.2596078,-5.05106,1.54126,0.01526,-0.89562759,0.382262205,0.14990196
1764768386.2596078,-5.05106,1.54126,0.01526,-0.89562759,0.382262205,0.14990196
1764768386.2596078,-5.05106,1.54126,0.01526,-0.89562759,0.382262205,0.14990196
1764768386.2596078,-5.05106,1.54126,0.01526,-0.89562759,0.382262205,0.14990196
1764768386.2596078,-5.05106,1.54126,0.01526,-0.89562759,0.382262205,0.14990196
1764768386.2596078,-5.05106,1.54126,0.01526,-0.89562759,0.382262205,0.14990196
1764768386.2596078,-4.83742,1.38866,-0.04578,-0.8954444850000001,0.38220117,0.1489254
1764768386.2596078,-4.83742,1.38866,-0.04578,-0.8954444850000001,0.38220117,0.1489254
1764768386.2596078,-4.83742,1.38866,-0.04578,-0.8954444850000001,0.38220117,0.1489254
1764768386.2596078,-4.83742,1.38866,-0.04578,-0.8954444850000001,0.38220117,0.1489254
1764768386.2596078,-4.83742,1.38866,-0.04578,-0.8954444850000001,0.38220117,0.1489254
1764768386.2596078,-4.83742,1.38866,-0.04578,-0.8954444850000001,0.38220117,0.1489254
1764768386.2596078,-4.83742,1.38866,-0.04578,-0.8954444850000001,0.38220117,0.1489254
1764768386.2596078,-4.83742,1.38866,-0.04578,-0.8954444850000001,0.38220117,0.1489254
1764768386.2601314,-4.83742,1.38866,-0.04578,-0.8954444850000001,0.38220117,0.1489254
1764768386.2601314,-4.83742,1.38866,-0.04578,-0.8954444850000001,0.38220117,0.1489254
1764768386.2601314,-4.89846,1.6633399999999998,0.03052,-0.89574966,0.38183496,0.14868126
1764768386.2601314,-4.89846,1.6633399999999998,0.03052,-0.89574966,0.38183496,0.14868126
1764768386.2601314,-4.89846,1.6633399999999998,0.03052,-0.89574966,0.38183496,0.14868126
1764768386.2601314,-4.89846,1.6633399999999998,0.03052,-0.89574966,0.38183496,0.14868126
1764768386.2601314,-4.89846,1.6633399999999998,0.03052,-0.89574966,0.38183496,0.14868126
1764768386.2601314,-4.89846,1.6633399999999998,0.03052,-0.89574966,0.38183496,0.14868126
1764768386.30591,-4.89846,1.6633399999999998,0.03052,-0.89574966,0.38183496,0.14868126
1764768386.30591,-4.89846,1.6633399999999998,0.03052,-0.89574966,0.38183496,0.14868126
1764768386.30591,-4.89846,1.6633399999999998,0.03052,-0.89574966,0.38183496,0.14868126
1764768386.30591,-4.89846,1.6633399999999998,0.03052,-0.89574966,0.38183496,0.14868126
1764768386.30591,-4.18124,1.32762,-0.04578,-0.89513931,0.380919435,0.14868126
1764768386.30591,-4.18124,1.32762,-0.04578,-0.89513931,0.380919435,0.14868126
1764768386.30591,-4.18124,1.32762,-0.04578,-0.89513931,0.380919435,0.14868126
1764768386.30591,-4.18124,1.32762,-0.04578,-0.89513931,0.380919435,0.14868126
1764768386.30591,-4.18124,1.32762,-0.04578,-0.89513931,0.380919435,0.14868126
1764768386.30591,-4.18124,1.32762,-0.04578,-0.89513931,0.380919435,0.14868126
1764768386.30591,-4.18124,1.32762,-0.04578,-0.89513931,0.380919435,0.14868126
1764768386.30591,-4.18124,1.32762,-0.04578,-0.89513931,0.380919435,0.14868126
1764768386.30591,-4.18124,1.32762,-0.04578,-0.89513931,0.380919435,0.14868126
1764768386.30591,-4.18124,1.32762,-0.04578,-0.89513931,0.380919435,0.14868126
1764768386.30591,-4.24228,1.4039199999999998,0.01526,-0.894834135,0.38000391,0.14941368
1764768386.30591,-4.24228,1.4039199999999998,0.01526,-0.894834135,0.38000391,0.14941368
1764768386.3064156,-4.24228,1.4039199999999998,0.01526,-0.894834135,0.38000391,0.14941368
1764768386.3064156,-4.24228,1.4039199999999998,0.01526,-0.894834135,0.38000391,0.14941368
1764768386.3064156,-4.24228,1.4039199999999998,0.01526,-0.894834135,0.38000391,0.14941368
1764768386.3064156,-4.24228,1.4039199999999998,0.01526,-0.894834135,0.38000391,0.14941368
1764768386.3532372,-4.24228,1.4039199999999998,0.01526,-0.894834135,0.38000391,0.14941368
1764768386.3532372,-4.24228,1.4039199999999998,0.01526,-0.894834135,0.38000391,0.14941368
1764768386.3532372,-4.24228,1.4039199999999998,0.01526,-0.894834135,0.38000391,0.14941368
1764768386.3532372,-4.24228,1.4039199999999998,0.01526,-0.894834135,0.38000391,0.14941368
1764768386.3532372,-4.41014,1.35814,-0.04578,-0.894589995,0.380431155,0.149474715
1764768386.3532372,-4.41014,1.35814,-0.04578,-0.894589995,0.380431155,0.149474715
1764768386.3532372,-4.41014,1.35814,-0.04578,-0.894589995,0.380431155,0.149474715
1764768386.3532372,-4.41014,1.35814,-0.04578,-0.894589995,0.380431155,0.149474715
1764768386.3532372,-4.41014,1.35814,-0.04578,-0.894589995,0.380431155,0.149474715
1764768386.3532372,-4.41014,1.35814,-0.04578,-0.894589995,0.380431155,0.149474715
1764768386.3532372,-4.41014,1.35814,-0.04578,-0.894589995,0.380431155,0.149474715
1764768386.3532372,-4.41014,1.35814,-0.04578,-0.894589995,0.380431155,0.149474715
1764768386.3532372,-4.41014,1.35814,-0.04578,-0.894589995,0.380431155,0.149474715
1764768386.3532372,-4.41014,1.35814,-0.04578,-0.894589995,0.380431155,0.149474715
1764768386.3532372,-4.66956,1.4039199999999998,0.1678599999999999,-0.89489517,0.3808584,0.150085065
1764768386.3532372,-4.66956,1.4039199999999998,0.1678599999999999,-0.89489517,0.3808584,0.150085065
1764768386.3532372,-4.66956,1.4039199999999998,0.1678599999999999,-0.89489517,0.3808584,0.150085065
1764768386.3532372,-4.66956,1.4039199999999998,0.1678599999999999,-0.89489517,0.3808584,0.150085065
1764768386.3532372,-4.66956,1.4039199999999998,0.1678599999999999,-0.89489517,0.3808584,0.150085065
1764768386.3532372,-4.66956,1.4039199999999998,0.1678599999999999,-0.89489517,0.3808584,0.150085065
1764768386.3532372,-4.66956,1.4039199999999998,0.1678599999999999,-0.89489517,0.3808584,0.150085065
1764768386.3532372,-4.66956,1.4039199999999998,0.1678599999999999,-0.89489517,0.3808584,0.150085065
1764768386.3532372,-4.66956,1.4039199999999998,0.1678599999999999,-0.89489517,0.3808584,0.150085065
1764768386.3532372,-4.66956,1.4039199999999998,0.1678599999999999,-0.89489517,0.3808584,0.150085065
1764768386.3532372,-4.97476,1.57178,0.24416,-0.896298975,0.38183496,0.14977989
1764768386.3532372,-4.97476,1.57178,0.24416,-0.896298975,0.38183496,0.14977989
1764768386.399153,-4.97476,1.57178,0.24416,-0.896298975,0.38183496,0.14977989
1764768386.399153,-4.97476,1.57178,0.24416,-0.896298975,0.38183496,0.14977989
1764768386.399153,-4.97476,1.57178,0.24416,-0.896298975,0.38183496,0.14977989
1764768386.399153,-4.97476,1.57178,0.24416,-0.896298975,0.38183496,0.14977989
1764768386.399153,-4.97476,1.57178,0.24416,-0.896298975,0.38183496,0.14977989
1764768386.399153,-4.97476,1.57178,0.24416,-0.896298975,0.38183496,0.14977989
1764768386.399153,-4.97476,1.57178,0.24416,-0.896298975,0.38183496,0.14977989
1764768386.399153,-4.97476,1.57178,0.24416,-0.896298975,0.38183496,0.14977989
1764768386.399153,-5.06632,1.49548,0.59514,-0.896665185,0.382262205,0.14990196
1764768386.399153,-5.06632,1.49548,0.59514,-0.896665185,0.382262205,0.14990196
1764768386.399153,-5.06632,1.49548,0.59514,-0.896665185,0.382262205,0.14990196
1764768386.399153,-5.06632,1.49548,0.59514,-0.896665185,0.382262205,0.14990196
1764768386.399153,-5.06632,1.49548,0.59514,-0.896665185,0.382262205,0.14990196
1764768386.399153,-5.06632,1.49548,0.59514,-0.896665185,0.382262205,0.14990196
1764768386.3996592,-5.06632,1.49548,0.59514,-0.896665185,0.382262205,0.14990196
1764768386.3996592,-5.06632,1.49548,0.59514,-0.896665185,0.382262205,0.14990196
1764768386.3996592,-5.06632,1.49548,0.59514,-0.896665185,0.382262205,0.14990196
1764768386.3996592,-5.06632,1.49548,0.59514,-0.896665185,0.382262205,0.14990196
1764768386.3996592,-5.31048,1.31236,0.36624,-0.89672622,0.38122461,0.150085065
1764768386.3996592,-5.31048,1.31236,0.36624,-0.89672622,0.38122461,0.150085065
1764768386.3996592,-5.31048,1.31236,0.36624,-0.89672622,0.38122461,0.150085065
1764768386.3996592,-5.31048,1.31236,0.36624,-0.89672622,0.38122461,0.150085065
1764768386.445933,-5.31048,1.31236,0.36624,-0.89672622,0.38122461,0.150085065
1764768386.445933,-5.31048,1.31236,0.36624,-0.89672622,0.38122461,0.150085065
1764768386.445933,-5.31048,1.31236,0.36624,-0.89672622,0.38122461,0.150085065
1764768386.445933,-5.31048,1.31236,0.36624,-0.89672622,0.38122461,0.150085065
1764768386.445933,-5.31048,1.31236,0.36624,-0.89672622,0.38122461,0.150085065
1764768386.445933,-5.31048,1.31236,0.36624,-0.89672622,0.38122461,0.150085065
1764768386.445933,-4.97476,1.41918,0.7019599999999999,-0.896787255,0.38049219,0.14953575
1764768386.445933,-4.97476,1.41918,0.7019599999999999,-0.896787255,0.38049219,0.14953575
1764768386.446493,-4.97476,1.41918,0.7019599999999999,-0.896787255,0.38049219,0.14953575
1764768386.446493,-4.97476,1.41918,0.7019599999999999,-0.896787255,0.38049219,0.14953575
1764768386.446493,-4.97476,1.41918,0.7019599999999999,-0.896787255,0.38049219,0.14953575
1764768386.446493,-4.97476,1.41918,0.7019599999999999,-0.896787255,0.38049219,0.14953575
1764768386.446493,-4.97476,1.41918,0.7019599999999999,-0.896787255,0.38049219,0.14953575
1764768386.446493,-4.97476,1.41918,0.7019599999999999,-0.896787255,0.38049219,0.14953575
1764768386.446493,-4.97476,1.41918,0.7019599999999999,-0.896787255,0.38049219,0.14953575
1764768386.446493,-4.97476,1.41918,0.7019599999999999,-0.896787255,0.38049219,0.14953575
1764768386.446493,-4.79164,1.28184,0.5341,-0.897397605,0.380187015,0.1501461
1764768386.446493,-4.79164,1.28184,0.5341,-0.897397605,0.380187015,0.1501461
1764768386.446493,-4.79164,1.28184,0.5341,-0.897397605,0.380187015,0.1501461
1764768386.446493,-4.79164,1.28184,0.5341,-0.897397605,0.380187015,0.1501461
1764768386.446493,-4.79164,1.28184,0.5341,-0.897397605,0.380187015,0.1501461
1764768386.446493,-4.79164,1.28184,0.5341,-0.897397605,0.380187015,0.1501461
1764768386.4928656,-4.79164,1.28184,0.5341,-0.897397605,0.380187015,0.1501461
1764768386.4928656,-4.79164,1.28184,0.5341,-0.897397605,0.380187015,0.1501461
1764768386.4928656,-4.79164,1.28184,0.5341,-0.897397605,0.380187015,0.1501461
1764768386.4928656,-4.79164,1.28184,0.5341,-0.897397605,0.380187015,0.1501461
1764768386.4928656,-4.47118,1.64808,0.7019599999999999,-0.89709243,0.379698735,0.150329205
1764768386.4928656,-4.47118,1.64808,0.7019599999999999,-0.89709243,0.379698735,0.150329205
1764768386.4928656,-4.47118,1.64808,0.7019599999999999,-0.89709243,0.379698735,0.150329205
1764768386.4928656,-4.47118,1.64808,0.7019599999999999,-0.89709243,0.379698735,0.150329205
1764768386.4928656,-4.47118,1.64808,0.7019599999999999,-0.89709243,0.379698735,0.150329205
1764768386.4928656,-4.47118,1.64808,0.7019599999999999,-0.89709243,0.379698735,0.150329205
1764768386.4928656,-4.47118,1.64808,0.7019599999999999,-0.89709243,0.379698735,0.150329205
1764768386.4928656,-4.47118,1.64808,0.7019599999999999,-0.89709243,0.379698735,0.150329205
1764768386.4928656,-4.47118,1.64808,0.7019599999999999,-0.89709243,0.379698735,0.150329205
1764768386.4928656,-4.47118,1.64808,0.7019599999999999,-0.89709243,0.379698735,0.150329205
1764768386.4928656,-4.577999999999999,0.73248,0.73248,-0.897397605,0.379942875,0.150695415
1764768386.4928656,-4.577999999999999,0.73248,0.73248,-0.897397605,0.379942875,0.150695415
1764768386.4928656,-4.577999999999999,0.73248,0.73248,-0.897397605,0.379942875,0.150695415
1764768386.4928656,-4.577999999999999,0.73248,0.73248,-0.897397605,0.379942875,0.150695415
1764768386.4928656,-4.577999999999999,0.73248,0.73248,-0.897397605,0.379942875,0.150695415
1764768386.4928656,-4.577999999999999,0.73248,0.73248,-0.897397605,0.379942875,0.150695415
1764768386.4928656,-4.577999999999999,0.73248,0.73248,-0.897397605,0.379942875,0.150695415
1764768386.4928656,-4.577999999999999,0.73248,0.73248,-0.897397605,0.379942875,0.150695415
1764768386.4928656,-4.577999999999999,0.73248,0.73248,-0.897397605,0.379942875,0.150695415
1764768386.493878,-4.577999999999999,0.73248,0.73248,-0.897397605,0.379942875,0.150695415
1764768386.493878,-5.2647,0.93086,0.82404,-0.896421045,0.38049219,0.14990196
1764768386.493878,-5.2647,0.93086,0.82404,-0.896421045,0.38049219,0.14990196
1764768386.5397315,-5.2647,0.93086,0.82404,-0.896421045,0.38049219,0.14990196
1764768386.5397315,-5.2647,0.93086,0.82404,-0.896421045,0.38049219,0.14990196
1764768386.5397315,-5.2647,0.93086,0.82404,-0.896421045,0.38049219,0.14990196
1764768386.5397315,-5.2647,0.93086,0.82404,-0.896421045,0.38049219,0.14990196
1764768386.5397315,-5.2647,0.93086,0.82404,-0.896421045,0.38049219,0.14990196
1764768386.5397315,-5.2647,0.93086,0.82404,-0.896421045,0.38049219,0.14990196
1764768386.5397315,-5.2647,0.93086,0.82404,-0.896421045,0.38049219,0.14990196
1764768386.5397315,-5.2647,0.93086,0.82404,-0.896421045,0.38049219,0.14990196
1764768386.5397315,-5.478339999999999,0.9156,0.79352,-0.89611587,0.38098047,0.149108505
1764768386.5397315,-5.478339999999999,0.9156,0.79352,-0.89611587,0.38098047,0.149108505
1764768386.5397315,-5.478339999999999,0.9156,0.79352,-0.89611587,0.38098047,0.149108505
1764768386.5397315,-5.478339999999999,0.9156,0.79352,-0.89611587,0.38098047,0.149108505
1764768386.5397315,-5.478339999999999,0.9156,0.79352,-0.89611587,0.38098047,0.149108505
1764768386.5397315,-5.478339999999999,0.9156,0.79352,-0.89611587,0.38098047,0.149108505
1764768386.5397315,-5.478339999999999,0.9156,0.79352,-0.89611587,0.38098047,0.149108505
1764768386.5397315,-5.478339999999999,0.9156,0.79352,-0.89611587,0.38098047,0.149108505
1764768386.5397315,-5.478339999999999,0.9156,0.79352,-0.89611587,0.38098047,0.149108505
1764768386.5407543,-5.478339999999999,0.9156,0.79352,-0.89611587,0.38098047,0.149108505
1764768386.5407543,-5.43256,1.57178,0.88508,-0.89648208,0.380675295,0.149230575
1764768386.5407543,-5.43256,1.57178,0.88508,-0.89648208,0.380675295,0.149230575
1764768386.5407543,-5.43256,1.57178,0.88508,-0.89648208,0.380675295,0.149230575
1764768386.5407543,-5.43256,1.57178,0.88508,-0.89648208,0.380675295,0.149230575
1764768386.5871603,-5.43256,1.57178,0.88508,-0.89648208,0.380675295,0.149230575
1764768386.5871603,-5.43256,1.57178,0.88508,-0.89648208,0.380675295,0.149230575
1764768386.5871603,-5.43256,1.57178,0.88508,-0.89648208,0.380675295,0.149230575
1764768386.5871603,-5.43256,1.57178,0.88508,-0.89648208,0.380675295,0.149230575
1764768386.5871603,-5.43256,1.57178,0.88508,-0.89648208,0.380675295,0.149230575
1764768386.5871603,-5.43256,1.57178,0.88508,-0.89648208,0.380675295,0.149230575
1764768386.5871603,-5.478339999999999,1.12924,0.9156,-0.896421045,0.37939356,0.15002403
1764768386.5871603,-5.478339999999999,1.12924,0.9156,-0.896421045,0.37939356,0.15002403
1764768386.5871603,-5.478339999999999,1.12924,0.9156,-0.896421045,0.37939356,0.15002403
1764768386.5871603,-5.478339999999999,1.12924,0.9156,-0.896421045,0.37939356,0.15002403
1764768386.5871603,-5.478339999999999,1.12924,0.9156,-0.896421045,0.37939356,0.15002403
1764768386.5871603,-5.478339999999999,1.12924,0.9156,-0.896421045,0.37939356,0.15002403
1764768386.5871603,-5.478339999999999,1.12924,0.9156,-0.896421045,0.37939356,0.15002403
1764768386.5871603,-5.478339999999999,1.12924,0.9156,-0.896421045,0.37939356,0.15002403
1764768386.5871603,-5.478339999999999,1.12924,0.9156,-0.896421045,0.37939356,0.15002403
1764768386.5871603,-5.478339999999999,1.12924,0.9156,-0.896421045,0.37939356,0.15002403
1764768386.5871603,-4.66956,1.2055399999999998,0.25942,-0.89611587,0.377745615,0.15039024
1764768386.5871603,-4.66956,1.2055399999999998,0.25942,-0.89611587,0.377745615,0.15039024
1764768386.5871603,-4.66956,1.2055399999999998,0.25942,-0.89611587,0.377745615,0.15039024
1764768386.5871603,-4.66956,1.2055399999999998,0.25942,-0.89611587,0.377745615,0.15039024
1764768386.5871603,-4.66956,1.2055399999999998,0.25942,-0.89611587,0.377745615,0.15039024
1764768386.5871603,-4.66956,1.2055399999999998,0.25942,-0.89611587,0.377745615,0.15039024
1764768386.5871603,-4.66956,1.2055399999999998,0.25942,-0.89611587,0.377745615,0.15039024
1764768386.5871603,-4.66956,1.2055399999999998,0.25942,-0.89611587,0.377745615,0.15039024
1764768386.6339786,-4.66956,1.2055399999999998,0.25942,-0.89611587,0.377745615,0.15039024
1764768386.6339786,-4.66956,1.2055399999999998,0.25942,-0.89611587,0.377745615,0.15039024
1764768386.6339786,-4.48644,0.94612,0.36624,-0.896298975,0.378111825,0.151061625
1764768386.6339786,-4.48644,0.94612,0.36624,-0.896298975,0.378111825,0.151061625
1764768386.6339786,-4.48644,0.94612,0.36624,-0.896298975,0.378111825,0.151061625
1764768386.6339786,-4.48644,0.94612,0.36624,-0.896298975,0.378111825,0.151061625
1764768386.6339786,-4.48644,0.94612,0.36624,-0.896298975,0.378111825,0.151061625
1764768386.6339786,-4.48644,0.94612,0.36624,-0.896298975,0.378111825,0.151061625
1764768386.6339786,-4.48644,0.94612,0.36624,-0.896298975,0.378111825,0.151061625
1764768386.6339786,-4.48644,0.94612,0.36624,-0.896298975,0.378111825,0.151061625
1764768386.6339786,-4.48644,0.94612,0.36624,-0.896298975,0.378111825,0.151061625
1764768386.6339786,-4.48644,0.94612,0.36624,-0.896298975,0.378111825,0.151061625
1764768386.6339786,-4.53222,1.23606,0.03052,-0.89587173,0.378722175,0.150329205
1764768386.6339786,-4.53222,1.23606,0.03052,-0.89587173,0.378722175,0.150329205
1764768386.6339786,-4.53222,1.23606,0.03052,-0.89587173,0.378722175,0.150329205
1764768386.6339786,-4.53222,1.23606,0.03052,-0.89587173,0.378722175,0.150329205
1764768386.6339786,-4.53222,1.23606,0.03052,-0.89587173,0.378722175,0.150329205
1764768386.6339786,-4.53222,1.23606,0.03052,-0.89587173,0.378722175,0.150329205
1764768386.6339786,-4.53222,1.23606,0.03052,-0.89587173,0.378722175,0.150329205
1764768386.6339786,-4.53222,1.23606,0.03052,-0.89587173,0.378722175,0.150329205
1764768386.6339786,-4.53222,1.23606,0.03052,-0.89587173,0.378722175,0.150329205
1764768386.6339786,-4.53222,1.23606,0.03052,-0.89587173,0.378722175,0.150329205
1764768386.6339786,-3.9676,0.73248,-0.44254,-0.89452896,0.37866114,0.149108505
1764768386.6339786,-3.9676,0.73248,-0.44254,-0.89452896,0.37866114,0.149108505
1764768386.6805112,-3.9676,0.73248,-0.44254,-0.89452896,0.37866114,0.149108505
1764768386.6805112,-3.9676,0.73248,-0.44254,-0.89452896,0.37866114,0.149108505
1764768386.6805112,-3.9676,0.73248,-0.44254,-0.89452896,0.37866114,0.149108505
1764768386.6805112,-3.9676,0.73248,-0.44254,-0.89452896,0.37866114,0.149108505
1764768386.6805112,-3.9676,0.73248,-0.44254,-0.89452896,0.37866114,0.149108505
1764768386.6805112,-3.9676,0.73248,-0.44254,-0.89452896,0.37866114,0.149108505
1764768386.6805112,-3.9676,0.73248,-0.44254,-0.89452896,0.37866114,0.149108505
1764768386.6805112,-3.9676,0.73248,-0.44254,-0.89452896,0.37866114,0.149108505
1764768386.6805112,-4.3491,1.38866,-0.1525999999999999,-0.894101715,0.37951563,0.149108505
1764768386.6805112,-4.3491,1.38866,-0.1525999999999999,-0.894101715,0.37951563,0.149108505
1764768386.6805112,-4.3491,1.38866,-0.1525999999999999,-0.894101715,0.37951563,0.149108505
1764768386.6805112,-4.3491,1.38866,-0.1525999999999999,-0.894101715,0.37951563,0.149108505
1764768386.6805112,-4.3491,1.38866,-0.1525999999999999,-0.894101715,0.37951563,0.149108505
1764768386.6805112,-4.3491,1.38866,-0.1525999999999999,-0.894101715,0.37951563,0.149108505
1764768386.6805112,-4.3491,1.38866,-0.1525999999999999,-0.894101715,0.37951563,0.149108505
1764768386.6805112,-4.3491,1.38866,-0.1525999999999999,-0.894101715,0.37951563,0.149108505
1764768386.681516,-4.3491,1.38866,-0.1525999999999999,-0.894101715,0.37951563,0.149108505
1764768386.681516,-4.3491,1.38866,-0.1525999999999999,-0.894101715,0.37951563,0.149108505
1764768386.681516,-5.4173,1.51074,0.13734,-0.89452896,0.3832998,0.147521595
1764768386.681516,-5.4173,1.51074,0.13734,-0.89452896,0.3832998,0.147521595
1764768386.681516,-5.4173,1.51074,0.13734,-0.89452896,0.3832998,0.147521595
1764768386.681516,-5.4173,1.51074,0.13734,-0.89452896,0.3832998,0.147521595
1764768386.726937,-5.4173,1.51074,0.13734,-0.89452896,0.3832998,0.147521595
1764768386.726937,-5.4173,1.51074,0.13734,-0.89452896,0.3832998,0.147521595
1764768386.726937,-5.4173,1.51074,0.13734,-0.89452896,0.3832998,0.147521595
1764768386.726937,-5.4173,1.51074,0.13734,-0.89452896,0.3832998,0.147521595
1764768386.726937,-5.4173,1.51074,0.13734,-0.89452896,0.3832998,0.147521595
1764768386.726937,-5.4173,1.51074,0.13734,-0.89452896,0.3832998,0.147521595
1764768386.726937,-5.92088,2.07536,0.0762999999999999,-0.8965431150000001,0.382384275,0.148131945
1764768386.726937,-5.92088,2.07536,0.0762999999999999,-0.8965431150000001,0.382384275,0.148131945
1764768386.726937,-5.92088,2.07536,0.0762999999999999,-0.8965431150000001,0.382384275,0.148131945
1764768386.726937,-5.92088,2.07536,0.0762999999999999,-0.8965431150000001,0.382384275,0.148131945
1764768386.726937,-5.92088,2.07536,0.0762999999999999,-0.8965431150000001,0.382384275,0.148131945
1764768386.7274444,-5.92088,2.07536,0.0762999999999999,-0.8965431150000001,0.382384275,0.148131945
1764768386.7274444,-5.92088,2.07536,0.0762999999999999,-0.8965431150000001,0.382384275,0.148131945
1764768386.7274444,-5.92088,2.07536,0.0762999999999999,-0.8965431150000001,0.382384275,0.148131945
1764768386.7274444,-5.92088,2.07536,0.0762999999999999,-0.8965431150000001,0.382384275,0.148131945
1764768386.7274444,-5.92088,2.07536,0.0762999999999999,-0.8965431150000001,0.382384275,0.148131945
1764768386.7274444,-5.234179999999999,2.12114,-0.13734,-0.89623794,0.37878321,0.14880333
1764768386.7274444,-5.234179999999999,2.12114,-0.13734,-0.89623794,0.37878321,0.14880333
1764768386.7274444,-5.234179999999999,2.12114,-0.13734,-0.89623794,0.37878321,0.14880333
1764768386.7274444,-5.234179999999999,2.12114,-0.13734,-0.89623794,0.37878321,0.14880333
1764768386.7274444,-5.234179999999999,2.12114,-0.13734,-0.89623794,0.37878321,0.14880333
1764768386.7274444,-5.234179999999999,2.12114,-0.13734,-0.89623794,0.37878321,0.14880333
1764768386.7274444,-5.234179999999999,2.12114,-0.13734,-0.89623794,0.37878321,0.14880333
1764768386.7274444,-5.234179999999999,2.12114,-0.13734,-0.89623794,0.37878321,0.14880333
1764768386.7732515,-5.234179999999999,2.12114,-0.13734,-0.89623794,0.37878321,0.14880333
1764768386.7732515,-5.234179999999999,2.12114,-0.13734,-0.89623794,0.37878321,0.14880333
1764768386.7732515,-3.55558,2.22796,0.3509799999999999,-0.89684829,0.375670425,0.149718855
1764768386.7732515,-3.55558,2.22796,0.3509799999999999,-0.89684829,0.375670425,0.149718855
1764768386.7732515,-3.55558,2.22796,0.3509799999999999,-0.89684829,0.375670425,0.149718855
1764768386.7732515,-3.55558,2.22796,0.3509799999999999,-0.89684829,0.375670425,0.149718855
1764768386.7732515,-3.55558,2.22796,0.3509799999999999,-0.89684829,0.375670425,0.149718855
1764768386.7732515,-3.55558,2.22796,0.3509799999999999,-0.89684829,0.375670425,0.149718855
1764768386.7732515,-3.55558,2.22796,0.3509799999999999,-0.89684829,0.375670425,0.149718855
1764768386.7732515,-3.55558,2.22796,0.3509799999999999,-0.89684829,0.375670425,0.149718855
1764768386.7732515,-3.55558,2.22796,0.3509799999999999,-0.89684829,0.375670425,0.149718855
1764768386.7732515,-3.55558,2.22796,0.3509799999999999,-0.89684829,0.375670425,0.149718855
1764768386.7732515,-2.24322,1.72438,0.73248,-0.89770278,0.374327655,0.15026817
1764768386.7732515,-2.24322,1.72438,0.73248,-0.89770278,0.374327655,0.15026817
1764768386.7732515,-2.24322,1.72438,0.73248,-0.89770278,0.374327655,0.15026817
1764768386.7732515,-2.24322,1.72438,0.73248,-0.89770278,0.374327655,0.15026817
1764768386.7732515,-2.24322,1.72438,0.73248,-0.89770278,0.374327655,0.15026817
1764768386.7732515,-2.24322,1.72438,0.73248,-0.89770278,0.374327655,0.15026817
1764768386.7732515,-2.24322,1.72438,0.73248,-0.89770278,0.374327655,0.15026817
1764768386.7732515,-2.24322,1.72438,0.73248,-0.89770278,0.374327655,0.15026817
1764768386.7732515,-2.24322,1.72438,0.73248,-0.89770278,0.374327655,0.15026817
1764768386.7732515,-2.24322,1.72438,0.73248,-0.89770278,0.374327655,0.15026817
1764768386.8203962,-1.17502,1.23606,0.57988,-0.899594865,0.374205585,0.15222129
1764768386.8203962,-1.17502,1.23606,0.57988,-0.899594865,0.374205585,0.15222129
1764768386.8203962,-1.17502,1.23606,0.57988,-0.899594865,0.374205585,0.15222129
1764768386.8203962,-1.17502,1.23606,0.57988,-0.899594865,0.374205585,0.15222129
1764768386.8203962,-1.17502,1.23606,0.57988,-0.899594865,0.374205585,0.15222129
1764768386.8203962,-1.17502,1.23606,0.57988,-0.899594865,0.374205585,0.15222129
1764768386.8203962,-1.17502,1.23606,0.57988,-0.899594865,0.374205585,0.15222129
1764768386.8203962,-1.17502,1.23606,0.57988,-0.899594865,0.374205585,0.15222129
1764768386.8670473,-1.17502,1.23606,0.57988,-0.899594865,0.374205585,0.15222129
1764768386.8670473,-1.17502,1.23606,0.57988,-0.899594865,0.374205585,0.15222129
1764768386.8670473,-0.42728,0.763,1.2971,-0.899594865,0.37670802,0.152526465
1764768386.8670473,-0.42728,0.763,1.2971,-0.899594865,0.37670802,0.152526465
1764768386.8670473,-0.42728,0.763,1.2971,-0.899594865,0.37670802,0.152526465
1764768386.8670473,-0.42728,0.763,1.2971,-0.899594865,0.37670802,0.152526465
1764768386.8670473,-0.42728,0.763,1.2971,-0.899594865,0.37670802,0.152526465
1764768386.8670473,-0.42728,0.763,1.2971,-0.899594865,0.37670802,0.152526465
1764768386.8670473,-0.42728,0.763,1.2971,-0.899594865,0.37670802,0.152526465
1764768386.8670473,-0.42728,0.763,1.2971,-0.899594865,0.37670802,0.152526465
1764768386.8670473,-0.42728,0.763,1.2971,-0.899594865,0.37670802,0.152526465
1764768386.8670473,-0.42728,0.763,1.2971,-0.899594865,0.37670802,0.152526465
1764768386.8670473,-0.13734,0.77826,1.3734,-0.89819106,0.379332525,0.151183695
1764768386.8670473,-0.13734,0.77826,1.3734,-0.89819106,0.379332525,0.151183695
1764768386.8670473,-0.13734,0.77826,1.3734,-0.89819106,0.379332525,0.151183695
1764768386.8670473,-0.13734,0.77826,1.3734,-0.89819106,0.379332525,0.151183695
1764768386.8670473,-0.13734,0.77826,1.3734,-0.89819106,0.379332525,0.151183695
1764768386.8670473,-0.13734,0.77826,1.3734,-0.89819106,0.379332525,0.151183695
1764768386.8670473,-0.13734,0.77826,1.3734,-0.89819106,0.379332525,0.151183695
1764768386.8670473,-0.13734,0.77826,1.3734,-0.89819106,0.379332525,0.151183695
1764768386.8670473,-0.13734,0.77826,1.3734,-0.89819106,0.379332525,0.151183695
1764768386.8670473,-0.13734,0.77826,1.3734,-0.89819106,0.379332525,0.151183695
1764768386.8670473,-0.48832,0.96138,1.23606,-0.897641745,0.382750485,0.1501461
1764768386.8670473,-0.48832,0.96138,1.23606,-0.897641745,0.382750485,0.1501461
1764768386.8670473,-0.48832,0.96138,1.23606,-0.897641745,0.382750485,0.1501461
1764768386.8670473,-0.48832,0.96138,1.23606,-0.897641745,0.382750485,0.1501461
1764768386.8670473,-0.48832,0.96138,1.23606,-0.897641745,0.382750485,0.1501461
1764768386.8670473,-0.48832,0.96138,1.23606,-0.897641745,0.382750485,0.1501461
1764768386.9130015,-0.48832,0.96138,1.23606,-0.897641745,0.382750485,0.1501461
1764768386.9130015,-0.48832,0.96138,1.23606,-0.897641745,0.382750485,0.1501461
1764768386.9130015,-0.48832,0.96138,1.23606,-0.897641745,0.382750485,0.1501461
1764768386.9130015,-0.48832,0.96138,1.23606,-0.897641745,0.382750485,0.1501461
1764768386.9130015,-0.71722,0.71722,1.48022,-0.89794692,0.384947745,0.149962995
1764768386.9130015,-0.71722,0.71722,1.48022,-0.89794692,0.384947745,0.149962995
1764768386.9130015,-0.71722,0.71722,1.48022,-0.89794692,0.384947745,0.149962995
1764768386.9130015,-0.71722,0.71722,1.48022,-0.89794692,0.384947745,0.149962995
1764768386.9130015,-0.71722,0.71722,1.48022,-0.89794692,0.384947745,0.149962995
1764768386.9130015,-0.71722,0.71722,1.48022,-0.89794692,0.384947745,0.149962995
1764768386.9130015,-0.71722,0.71722,1.48022,-0.89794692,0.384947745,0.149962995
1764768386.9130015,-0.71722,0.71722,1.48022,-0.89794692,0.384947745,0.149962995
1764768386.9130015,-0.71722,0.71722,1.48022,-0.89794692,0.384947745,0.149962995
1764768386.9130015,-0.71722,0.71722,1.48022,-0.89794692,0.384947745,0.149962995
1764768386.9130015,-1.32762,0.44254,1.55652,-0.8975807100000001,0.387511215,0.150573345
1764768386.9130015,-1.32762,0.44254,1.55652,-0.8975807100000001,0.387511215,0.150573345
1764768386.9130015,-1.32762,0.44254,1.55652,-0.8975807100000001,0.387511215,0.150573345
1764768386.9130015,-1.32762,0.44254,1.55652,-0.8975807100000001,0.387511215,0.150573345
1764768386.9130015,-1.32762,0.44254,1.55652,-0.8975807100000001,0.387511215,0.150573345
1764768386.9130015,-1.32762,0.44254,1.55652,-0.8975807100000001,0.387511215,0.150573345
1764768386.9130015,-1.32762,0.44254,1.55652,-0.8975807100000001,0.387511215,0.150573345
1764768386.9130015,-1.32762,0.44254,1.55652,-0.8975807100000001,0.387511215,0.150573345
1764768386.9130015,-1.32762,0.44254,1.55652,-0.8975807100000001,0.387511215,0.150573345
1764768386.9130015,-1.32762,0.44254,1.55652,-0.8975807100000001,0.387511215,0.150573345
1764768386.9130015,-0.97664,0.56462,2.04484,-0.898496235,0.38720604,0.152282325
1764768386.9130015,-0.97664,0.56462,2.04484,-0.898496235,0.38720604,0.152282325
1764768386.9130015,-0.97664,0.56462,2.04484,-0.898496235,0.38720604,0.152282325
1764768386.9130015,-0.97664,0.56462,2.04484,-0.898496235,0.38720604,0.152282325
1764768386.9130015,-0.97664,0.56462,2.04484,-0.898496235,0.38720604,0.152282325
1764768386.9130015,-0.97664,0.56462,2.04484,-0.898496235,0.38720604,0.152282325
1764768386.9130015,-0.97664,0.56462,2.04484,-0.898496235,0.38720604,0.152282325
1764768386.9130015,-0.97664,0.56462,2.04484,-0.898496235,0.38720604,0.152282325
1764768386.9130015,-0.97664,0.56462,2.04484,-0.898496235,0.38720604,0.152282325
1764768386.9130015,-0.97664,0.56462,2.04484,-0.898496235,0.38720604,0.152282325
1764768386.9130015,-0.79352,-0.24416,2.63998,-0.898984515,0.384825675,0.153747165
1764768386.9130015,-0.79352,-0.24416,2.63998,-0.898984515,0.384825675,0.153747165
1764768386.960224,-0.79352,-0.24416,2.63998,-0.898984515,0.384825675,0.153747165
1764768386.960224,-0.79352,-0.24416,2.63998,-0.898984515,0.384825675,0.153747165
1764768386.960224,-0.79352,-0.24416,2.63998,-0.898984515,0.384825675,0.153747165
1764768386.960224,-0.79352,-0.24416,2.63998,-0.898984515,0.384825675,0.153747165
1764768386.960224,-0.79352,-0.24416,2.63998,-0.898984515,0.384825675,0.153747165
1764768386.960224,-0.79352,-0.24416,2.63998,-0.898984515,0.384825675,0.153747165
1764768386.960224,-0.79352,-0.24416,2.63998,-0.898984515,0.384825675,0.153747165
1764768386.960224,-0.79352,-0.24416,2.63998,-0.898984515,0.384825675,0.153747165
1764768386.960224,0.21364,-0.8698199999999999,2.76206,-0.89941176,0.38403222,0.15319785
1764768386.960224,0.21364,-0.8698199999999999,2.76206,-0.89941176,0.38403222,0.15319785
1764768386.960224,0.21364,-0.8698199999999999,2.76206,-0.89941176,0.38403222,0.15319785
1764768386.960224,0.21364,-0.8698199999999999,2.76206,-0.89941176,0.38403222,0.15319785
1764768386.960224,0.21364,-0.8698199999999999,2.76206,-0.89941176,0.38403222,0.15319785
1764768386.960224,0.21364,-0.8698199999999999,2.76206,-0.89941176,0.38403222,0.15319785
1764768386.960224,0.21364,-0.8698199999999999,2.76206,-0.89941176,0.38403222,0.15319785
1764768386.960224,0.21364,-0.8698199999999999,2.76206,-0.89941176,0.38403222,0.15319785
1764768386.960224,0.21364,-0.8698199999999999,2.76206,-0.89941176,0.38403222,0.15319785
1764768386.960224,0.21364,-0.8698199999999999,2.76206,-0.89941176,0.38403222,0.15319785
1764768386.960224,-0.1525999999999999,-1.7549,3.2809,-0.8996559000000001,0.384825675,0.152282325
1764768386.960224,-0.1525999999999999,-1.7549,3.2809,-0.8996559000000001,0.384825675,0.152282325
1764768386.960224,-0.1525999999999999,-1.7549,3.2809,-0.8996559000000001,0.384825675,0.152282325
1764768386.960224,-0.1525999999999999,-1.7549,3.2809,-0.8996559000000001,0.384825675,0.152282325
1764768387.0070636,-0.1525999999999999,-1.7549,3.2809,-0.8996559000000001,0.384825675,0.152282325
1764768387.0070636,-0.1525999999999999,-1.7549,3.2809,-0.8996559000000001,0.384825675,0.152282325
1764768387.0070636,-0.1525999999999999,-1.7549,3.2809,-0.8996559000000001,0.384825675,0.152282325
1764768387.0070636,-0.1525999999999999,-1.7549,3.2809,-0.8996559000000001,0.384825675,0.152282325
1764768387.0070636,-0.1525999999999999,-1.7549,3.2809,-0.8996559000000001,0.384825675,0.152282325
1764768387.0070636,-0.1525999999999999,-1.7549,3.2809,-0.8996559000000001,0.384825675,0.152282325
1764768387.0070636,-1.03768,-1.57178,3.32668,-0.898984515,0.386656725,0.150695415
1764768387.0070636,-1.03768,-1.57178,3.32668,-0.898984515,0.386656725,0.150695415
1764768387.0070636,-1.03768,-1.57178,3.32668,-0.898984515,0.386656725,0.150695415
1764768387.0070636,-1.03768,-1.57178,3.32668,-0.898984515,0.386656725,0.150695415
1764768387.0070636,-1.03768,-1.57178,3.32668,-0.898984515,0.386656725,0.150695415
1764768387.0070636,-1.03768,-1.57178,3.32668,-0.898984515,0.386656725,0.150695415
1764768387.0070636,-1.03768,-1.57178,3.32668,-0.898984515,0.386656725,0.150695415
1764768387.0070636,-1.03768,-1.57178,3.32668,-0.898984515,0.386656725,0.150695415
1764768387.0070636,-1.03768,-1.57178,3.32668,-0.898984515,0.386656725,0.150695415
1764768387.0070636,-1.03768,-1.57178,3.32668,-0.898984515,0.386656725,0.150695415
1764768387.0070636,-1.57178,-1.54126,3.41824,-0.89770278,0.386534655,0.149108505
1764768387.0070636,-1.57178,-1.54126,3.41824,-0.89770278,0.386534655,0.149108505
1764768387.0070636,-1.57178,-1.54126,3.41824,-0.89770278,0.386534655,0.149108505
1764768387.0070636,-1.57178,-1.54126,3.41824,-0.89770278,0.386534655,0.149108505
1764768387.0070636,-1.57178,-1.54126,3.41824,-0.89770278,0.386534655,0.149108505
1764768387.0070636,-1.57178,-1.54126,3.41824,-0.89770278,0.386534655,0.149108505
1764768387.0070636,-1.57178,-1.54126,3.41824,-0.89770278,0.386534655,0.149108505
1764768387.0070636,-1.57178,-1.54126,3.41824,-0.89770278,0.386534655,0.149108505
1764768387.0533378,-1.57178,-1.54126,3.41824,-0.89770278,0.386534655,0.149108505
1764768387.0533378,-1.57178,-1.54126,3.41824,-0.89770278,0.386534655,0.149108505
1764768387.0533378,-2.35004,-1.6786,3.4335,-0.8949562050000001,0.38561913,0.14868126
1764768387.0533378,-2.35004,-1.6786,3.4335,-0.8949562050000001,0.38561913,0.14868126
1764768387.0997477,-2.35004,-1.6786,3.4335,-0.8949562050000001,0.38561913,0.14868126
1764768387.0997477,-2.35004,-1.6786,3.4335,-0.8949562050000001,0.38561913,0.14868126
1764768387.0997477,-2.35004,-1.6786,3.4335,-0.8949562050000001,0.38561913,0.14868126
1764768387.0997477,-2.35004,-1.6786,3.4335,-0.8949562050000001,0.38561913,0.14868126
1764768387.0997477,-2.35004,-1.6786,3.4335,-0.8949562050000001,0.38561913,0.14868126
1764768387.0997477,-2.35004,-1.6786,3.4335,-0.8949562050000001,0.38561913,0.14868126
1764768387.0997477,-2.35004,-1.6786,3.4335,-0.8949562050000001,0.38561913,0.14868126
1764768387.0997477,-2.35004,-1.6786,3.4335,-0.8949562050000001,0.38561913,0.14868126
1764768387.0997477,-3.03674,-1.72438,3.64714,-0.893735505,0.38647362,0.147521595
1764768387.0997477,-3.03674,-1.72438,3.64714,-0.893735505,0.38647362,0.147521595
1764768387.0997477,-3.03674,-1.72438,3.64714,-0.893735505,0.38647362,0.147521595
1764768387.0997477,-3.03674,-1.72438,3.64714,-0.893735505,0.38647362,0.147521595
1764768387.0997477,-3.03674,-1.72438,3.64714,-0.893735505,0.38647362,0.147521595
1764768387.0997477,-3.03674,-1.72438,3.64714,-0.893735505,0.38647362,0.147521595
1764768387.0997477,-3.03674,-1.72438,3.64714,-0.893735505,0.38647362,0.147521595
1764768387.0997477,-3.03674,-1.72438,3.64714,-0.893735505,0.38647362,0.147521595
1764768387.0997477,-3.03674,-1.72438,3.64714,-0.893735505,0.38647362,0.147521595
1764768387.100758,-3.03674,-1.72438,3.64714,-0.893735505,0.38647362,0.147521595
1764768387.100758,-4.48644,-1.69386,3.25038,-0.89330826,0.38903709,0.14819298
1764768387.100758,-4.48644,-1.69386,3.25038,-0.89330826,0.38903709,0.14819298
1764768387.100758,-4.48644,-1.69386,3.25038,-0.89330826,0.38903709,0.14819298
1764768387.100758,-4.48644,-1.69386,3.25038,-0.89330826,0.38903709,0.14819298
1764768387.100758,-4.48644,-1.69386,3.25038,-0.89330826,0.38903709,0.14819298
1764768387.100758,-4.48644,-1.69386,3.25038,-0.89330826,0.38903709,0.14819298
1764768387.100758,-4.48644,-1.69386,3.25038,-0.89330826,0.38903709,0.14819298
1764768387.100758,-4.48644,-1.69386,3.25038,-0.89330826,0.38903709,0.14819298
1764768387.100758,-4.48644,-1.69386,3.25038,-0.89330826,0.38903709,0.14819298
1764768387.100758,-4.48644,-1.69386,3.25038,-0.89330826,0.38903709,0.14819298
1764768387.100758,-5.997179999999999,-1.02242,2.77732,-0.89245377,0.38891502,0.146789175
1764768387.100758,-5.997179999999999,-1.02242,2.77732,-0.89245377,0.38891502,0.146789175
1764768387.100758,-5.997179999999999,-1.02242,2.77732,-0.89245377,0.38891502,0.146789175
1764768387.100758,-5.997179999999999,-1.02242,2.77732,-0.89245377,0.38891502,0.146789175
1764768387.100758,-5.997179999999999,-1.02242,2.77732,-0.89245377,0.38891502,0.146789175
1764768387.100758,-5.997179999999999,-1.02242,2.77732,-0.89245377,0.38891502,0.146789175
1764768387.100758,-5.997179999999999,-1.02242,2.77732,-0.89245377,0.38891502,0.146789175
1764768387.100758,-5.997179999999999,-1.02242,2.77732,-0.89245377,0.38891502,0.146789175
1764768387.100758,-5.997179999999999,-1.02242,2.77732,-0.89245377,0.38891502,0.146789175
1764768387.100758,-5.997179999999999,-1.02242,2.77732,-0.89245377,0.38891502,0.146789175
1764768387.100758,-5.371519999999999,-0.3051999999999999,2.33478,-0.892270665,0.38598534,0.146789175
1764768387.100758,-5.371519999999999,-0.3051999999999999,2.33478,-0.892270665,0.38598534,0.146789175
1764768387.100758,-5.371519999999999,-0.3051999999999999,2.33478,-0.892270665,0.38598534,0.146789175
1764768387.100758,-5.371519999999999,-0.3051999999999999,2.33478,-0.892270665,0.38598534,0.146789175
1764768387.1477044,-5.371519999999999,-0.3051999999999999,2.33478,-0.892270665,0.38598534,0.146789175
1764768387.1477044,-5.371519999999999,-0.3051999999999999,2.33478,-0.892270665,0.38598534,0.146789175
1764768387.1477044,-5.371519999999999,-0.3051999999999999,2.33478,-0.892270665,0.38598534,0.146789175
1764768387.1477044,-5.371519999999999,-0.3051999999999999,2.33478,-0.892270665,0.38598534,0.146789175
1764768387.1477044,-5.371519999999999,-0.3051999999999999,2.33478,-0.892270665,0.38598534,0.146789175
1764768387.1477044,-5.371519999999999,-0.3051999999999999,2.33478,-0.892270665,0.38598534,0.146789175
1764768387.1477044,-5.29522,0.04578,1.6022999999999998,-0.892148595,0.384093255,0.145934685
1764768387.1477044,-5.29522,0.04578,1.6022999999999998,-0.892148595,0.384093255,0.145934685
1764768387.1477044,-5.29522,0.04578,1.6022999999999998,-0.892148595,0.384093255,0.145934685
1764768387.1477044,-5.29522,0.04578,1.6022999999999998,-0.892148595,0.384093255,0.145934685
1764768387.1477044,-5.29522,0.04578,1.6022999999999998,-0.892148595,0.384093255,0.145934685
1764768387.1477044,-5.29522,0.04578,1.6022999999999998,-0.892148595,0.384093255,0.145934685
1764768387.1477044,-5.29522,0.04578,1.6022999999999998,-0.892148595,0.384093255,0.145934685
1764768387.1481185,-5.29522,0.04578,1.6022999999999998,-0.892148595,0.384093255,0.145934685
1764768387.1481185,-5.29522,0.04578,1.6022999999999998,-0.892148595,0.384093255,0.145934685
1764768387.1481185,-5.29522,0.04578,1.6022999999999998,-0.892148595,0.384093255,0.145934685
1764768387.1481185,-5.02054,0.57988,1.48022,-0.89318619,0.383238765,0.145080195
1764768387.1481185,-5.02054,0.57988,1.48022,-0.89318619,0.383238765,0.145080195
1764768387.1481185,-5.02054,0.57988,1.48022,-0.89318619,0.383238765,0.145080195
1764768387.1481185,-5.02054,0.57988,1.48022,-0.89318619,0.383238765,0.145080195
1764768387.1481185,-5.02054,0.57988,1.48022,-0.89318619,0.383238765,0.145080195
1764768387.1481185,-5.02054,0.57988,1.48022,-0.89318619,0.383238765,0.145080195
1764768387.193741,-5.02054,0.57988,1.48022,-0.89318619,0.383238765,0.145080195
1764768387.193741,-5.02054,0.57988,1.48022,-0.89318619,0.383238765,0.145080195
1764768387.193741,-5.02054,0.57988,1.48022,-0.89318619,0.383238765,0.145080195
1764768387.193741,-5.02054,0.57988,1.48022,-0.89318619,0.383238765,0.145080195
1764768387.193741,-5.2647,0.96138,1.41918,-0.8917823850000001,0.383360835,0.144225705
1764768387.193741,-5.2647,0.96138,1.41918,-0.8917823850000001,0.383360835,0.144225705
1764768387.193741,-5.2647,0.96138,1.41918,-0.8917823850000001,0.383360835,0.144225705
1764768387.1947503,-5.2647,0.96138,1.41918,-0.8917823850000001,0.383360835,0.144225705
1764768387.1947503,-5.2647,0.96138,1.41918,-0.8917823850000001,0.383360835,0.144225705
1764768387.1947503,-5.2647,0.96138,1.41918,-0.8917823850000001,0.383360835,0.144225705
1764768387.1947503,-5.2647,0.96138,1.41918,-0.8917823850000001,0.383360835,0.144225705
1764768387.1947503,-5.2647,0.96138,1.41918,-0.8917823850000001,0.383360835,0.144225705
1764768387.1947503,-5.2647,0.96138,1.41918,-0.8917823850000001,0.383360835,0.144225705
1764768387.1947503,-5.2647,0.96138,1.41918,-0.8917823850000001,0.383360835,0.144225705
1764768387.1947503,-5.35626,1.34288,0.97664,-0.89086686,0.382994625,0.144836055
1764768387.1947503,-5.35626,1.34288,0.97664,-0.89086686,0.382994625,0.144836055
1764768387.1947503,-5.35626,1.34288,0.97664,-0.89086686,0.382994625,0.144836055
1764768387.1947503,-5.35626,1.34288,0.97664,-0.89086686,0.382994625,0.144836055
1764768387.1947503,-5.35626,1.34288,0.97664,-0.89086686,0.382994625,0.144836055
1764768387.1957505,-5.35626,1.34288,0.97664,-0.89086686,0.382994625,0.144836055
1764768387.1957505,-5.35626,1.34288,0.97664,-0.89086686,0.382994625,0.144836055
1764768387.1957505,-5.35626,1.34288,0.97664,-0.89086686,0.382994625,0.144836055
1764768387.1957505,-5.35626,1.34288,0.97664,-0.89086686,0.382994625,0.144836055
1764768387.1957505,-5.35626,1.34288,0.97664,-0.89086686,0.382994625,0.144836055
1764768387.1957505,-5.78354,2.02958,0.65618,-0.8897071950000001,0.381529785,0.145446405
1764768387.1967564,-5.78354,2.02958,0.65618,-0.8897071950000001,0.381529785,0.145446405
1764768387.242154,-5.78354,2.02958,0.65618,-0.8897071950000001,0.381529785,0.145446405
1764768387.242154,-5.78354,2.02958,0.65618,-0.8897071950000001,0.381529785,0.145446405
1764768387.242154,-5.78354,2.02958,0.65618,-0.8897071950000001,0.381529785,0.145446405
1764768387.242154,-5.78354,2.02958,0.65618,-0.8897071950000001,0.381529785,0.145446405
1764768387.242154,-5.78354,2.02958,0.65618,-0.8897071950000001,0.381529785,0.145446405
1764768387.242154,-5.78354,2.02958,0.65618,-0.8897071950000001,0.381529785,0.145446405
1764768387.242154,-5.78354,2.02958,0.65618,-0.8897071950000001,0.381529785,0.145446405
1764768387.242154,-5.78354,2.02958,0.65618,-0.8897071950000001,0.381529785,0.145446405
1764768387.242154,-6.50076,1.99906,-0.03052,-0.89013444,0.380675295,0.147155385
1764768387.242154,-6.50076,1.99906,-0.03052,-0.89013444,0.380675295,0.147155385
1764768387.242154,-6.50076,1.99906,-0.03052,-0.89013444,0.380675295,0.147155385
1764768387.242154,-6.50076,1.99906,-0.03052,-0.89013444,0.380675295,0.147155385
1764768387.242154,-6.50076,1.99906,-0.03052,-0.89013444,0.380675295,0.147155385
1764768387.242154,-6.50076,1.99906,-0.03052,-0.89013444,0.380675295,0.147155385
1764768387.242154,-6.50076,1.99906,-0.03052,-0.89013444,0.380675295,0.147155385
1764768387.242154,-6.50076,1.99906,-0.03052,-0.89013444,0.380675295,0.147155385
1764768387.242154,-6.50076,1.99906,-0.03052,-0.89013444,0.380675295,0.147155385
1764768387.242154,-6.50076,1.99906,-0.03052,-0.89013444,0.380675295,0.147155385
1764768387.242154,-6.57706,2.5179,-0.09156,-0.890073405,0.3808584,0.147765735
1764768387.242154,-6.57706,2.5179,-0.09156,-0.890073405,0.3808584,0.147765735
1764768387.242154,-6.57706,2.5179,-0.09156,-0.890073405,0.3808584,0.147765735
1764768387.242154,-6.57706,2.5179,-0.09156,-0.890073405,0.3808584,0.147765735
1764768387.242154,-6.57706,2.5179,-0.09156,-0.890073405,0.3808584,0.147765735
1764768387.2431588,-6.57706,2.5179,-0.09156,-0.890073405,0.3808584,0.147765735
1764768387.2860878,-6.57706,2.5179,-0.09156,-0.890073405,0.3808584,0.147765735
1764768387.2860878,-6.57706,2.5179,-0.09156,-0.890073405,0.3808584,0.147765735
1764768387.2860878,-6.57706,2.5179,-0.09156,-0.890073405,0.3808584,0.147765735
1764768387.2860878,-6.57706,2.5179,-0.09156,-0.890073405,0.3808584,0.147765735
1764768387.2860878,-6.1803,2.80784,-0.59514,-0.890805825,0.38012598,0.148986435
1764768387.2860878,-6.1803,2.80784,-0.59514,-0.890805825,0.38012598,0.148986435
1764768387.2860878,-6.1803,2.80784,-0.59514,-0.890805825,0.38012598,0.148986435
1764768387.2860878,-6.1803,2.80784,-0.59514,-0.890805825,0.38012598,0.148986435
1764768387.2860878,-6.1803,2.80784,-0.59514,-0.890805825,0.38012598,0.148986435
1764768387.2860878,-6.1803,2.80784,-0.59514,-0.890805825,0.38012598,0.148986435
1764768387.2860878,-6.1803,2.80784,-0.59514,-0.890805825,0.38012598,0.148986435
1764768387.2860878,-6.1803,2.80784,-0.59514,-0.890805825,0.38012598,0.148986435
1764768387.2860878,-6.1803,2.80784,-0.59514,-0.890805825,0.38012598,0.148986435
1764768387.2860878,-6.1803,2.80784,-0.59514,-0.890805825,0.38012598,0.148986435
1764768387.2860878,-5.00528,2.71628,-0.6409199999999999,-0.892758945,0.37951563,0.149352645
1764768387.2860878,-5.00528,2.71628,-0.6409199999999999,-0.892758945,0.37951563,0.149352645
1764768387.2860878,-5.00528,2.71628,-0.6409199999999999,-0.892758945,0.37951563,0.149352645
1764768387.2860878,-5.00528,2.71628,-0.6409199999999999,-0.892758945,0.37951563,0.149352645
1764768387.2860878,-5.00528,2.71628,-0.6409199999999999,-0.892758945,0.37951563,0.149352645
1764768387.2860878,-5.00528,2.71628,-0.6409199999999999,-0.892758945,0.37951563,0.149352645
1764768387.2860878,-5.00528,2.71628,-0.6409199999999999,-0.892758945,0.37951563,0.149352645
1764768387.2870977,-5.00528,2.71628,-0.6409199999999999,-0.892758945,0.37951563,0.149352645
1764768387.3340938,-5.00528,2.71628,-0.6409199999999999,-0.892758945,0.37951563,0.149352645
1764768387.3340938,-5.00528,2.71628,-0.6409199999999999,-0.892758945,0.37951563,0.149352645
1764768387.3340938,-3.5098,2.76206,-0.62566,-0.89465103,0.37853907,0.149596785
1764768387.3340938,-3.5098,2.76206,-0.62566,-0.89465103,0.37853907,0.149596785
1764768387.3340938,-3.5098,2.76206,-0.62566,-0.89465103,0.37853907,0.149596785
1764768387.3340938,-3.5098,2.76206,-0.62566,-0.89465103,0.37853907,0.149596785
1764768387.3340938,-3.5098,2.76206,-0.62566,-0.89465103,0.37853907,0.149596785
1764768387.3340938,-3.5098,2.76206,-0.62566,-0.89465103,0.37853907,0.149596785
1764768387.3340938,-3.5098,2.76206,-0.62566,-0.89465103,0.37853907,0.149596785
1764768387.3340938,-3.5098,2.76206,-0.62566,-0.89465103,0.37853907,0.149596785
1764768387.3340938,-3.5098,2.76206,-0.62566,-0.89465103,0.37853907,0.149596785
1764768387.3340938,-3.5098,2.76206,-0.62566,-0.89465103,0.37853907,0.149596785
1764768387.3340938,-2.27374,2.77732,-0.93086,-0.8959938000000001,0.37914942,0.14953575
