Timestamp,GyroX,GyroY,GyroZ,AccX,AccY,AccZ
1764767214.616438,-4.24228,0.01526,1.2971,0.9790014,-0.022643985,0.119811705
1764767214.616438,-4.24228,0.01526,1.2971,0.9790014,-0.022643985,0.119811705
1764767214.616438,-4.13546,0.09156,0.97664,0.98034417,-0.02282709,0.119445495
1764767214.616438,-4.13546,0.09156,0.97664,0.98034417,-0.02282709,0.119445495
1764767214.616438,-4.13546,0.09156,0.97664,0.98034417,-0.02282709,0.119445495
1764767214.616438,-4.13546,0.09156,0.97664,0.98034417,-0.02282709,0.119445495
1764767214.616438,-4.13546,0.09156,0.97664,0.98034417,-0.02282709,0.119445495
1764767214.616438,-4.13546,0.09156,0.97664,0.98034417,-0.02282709,0.119445495
1764767214.616438,-4.13546,0.09156,0.97664,0.98034417,-0.02282709,0.119445495
1764767214.616438,-4.13546,0.09156,0.97664,0.98034417,-0.02282709,0.119445495
1764767214.616438,-4.13546,0.09156,0.97664,0.98034417,-0.02282709,0.119445495
1764767214.616946,-4.13546,0.09156,0.97664,0.98034417,-0.02282709,0.119445495
1764767214.616946,-4.28806,0.0762999999999999,1.12924,0.97973382,-0.023498475,0.119445495
1764767214.616946,-4.28806,0.0762999999999999,1.12924,0.97973382,-0.023498475,0.119445495
1764767214.616946,-4.28806,0.0762999999999999,1.12924,0.97973382,-0.023498475,0.119445495
1764767214.616946,-4.28806,0.0762999999999999,1.12924,0.97973382,-0.023498475,0.119445495
1764767214.616946,-4.28806,0.0762999999999999,1.12924,0.97973382,-0.023498475,0.119445495
1764767214.616946,-4.28806,0.0762999999999999,1.12924,0.97973382,-0.023498475,0.119445495
1764767214.616946,-4.28806,0.0762999999999999,1.12924,0.97973382,-0.023498475,0.119445495
1764767214.616946,-4.28806,0.0762999999999999,1.12924,0.97973382,-0.023498475,0.119445495
1764767214.616946,-4.28806,0.0762999999999999,1.12924,0.97973382,-0.023498475,0.119445495
1764767214.616946,-4.28806,0.0762999999999999,1.12924,0.97973382,-0.023498475,0.119445495
1764767214.6634924,-3.83026,0.65618,0.93086,0.97985589,-0.024414,0.11950653
1764767214.6634924,-3.83026,0.65618,0.93086,0.97985589,-0.024414,0.11950653
1764767214.6634924,-3.83026,0.65618,0.93086,0.97985589,-0.024414,0.11950653
1764767214.6644912,-3.83026,0.65618,0.93086,0.97985589,-0.024414,0.11950653
1764767214.6644912,-3.83026,0.65618,0.93086,0.97985589,-0.024414,0.11950653
1764767214.6644912,-3.83026,0.65618,0.93086,0.97985589,-0.024414,0.11950653
1764767214.6644912,-3.83026,0.65618,0.93086,0.97985589,-0.024414,0.11950653
1764767214.6644912,-3.83026,0.65618,0.93086,0.97985589,-0.024414,0.11950653
1764767214.6644912,-3.83026,0.65618,0.93086,0.97985589,-0.024414,0.11950653
1764767214.6644912,-3.83026,0.65618,0.93086,0.97985589,-0.024414,0.11950653
1764767214.6653657,-3.84552,0.62566,0.5341,0.97997796,-0.02465814,0.11926239
1764767214.6653657,-3.84552,0.62566,0.5341,0.97997796,-0.02465814,0.11926239
1764767214.6653657,-3.84552,0.62566,0.5341,0.97997796,-0.02465814,0.11926239
1764767214.6653657,-3.84552,0.62566,0.5341,0.97997796,-0.02465814,0.11926239
1764767214.6653657,-3.84552,0.62566,0.5341,0.97997796,-0.02465814,0.11926239
1764767214.6653657,-3.84552,0.62566,0.5341,0.97997796,-0.02465814,0.11926239
1764767214.6653657,-3.84552,0.62566,0.5341,0.97997796,-0.02465814,0.11926239
1764767214.6653657,-3.84552,0.62566,0.5341,0.97997796,-0.02465814,0.11926239
1764767214.6653657,-3.84552,0.62566,0.5341,0.97997796,-0.02465814,0.11926239
1764767214.6653657,-3.84552,0.62566,0.5341,0.97997796,-0.02465814,0.11926239
1764767214.6653657,-3.44876,0.8392999999999999,0.3357199999999999,0.97985589,-0.02526849,0.119689635
1764767214.6653657,-3.44876,0.8392999999999999,0.3357199999999999,0.97985589,-0.02526849,0.119689635
1764767214.7086337,-3.44876,0.8392999999999999,0.3357199999999999,0.97985589,-0.02526849,0.119689635
1764767214.7086337,-3.44876,0.8392999999999999,0.3357199999999999,0.97985589,-0.02526849,0.119689635
1764767214.7086337,-3.44876,0.8392999999999999,0.3357199999999999,0.97985589,-0.02526849,0.119689635
1764767214.7086337,-3.44876,0.8392999999999999,0.3357199999999999,0.97985589,-0.02526849,0.119689635
1764767214.7086337,-3.44876,0.8392999999999999,0.3357199999999999,0.97985589,-0.02526849,0.119689635
1764767214.7086337,-3.44876,0.8392999999999999,0.3357199999999999,0.97985589,-0.02526849,0.119689635
1764767214.7086337,-3.44876,0.8392999999999999,0.3357199999999999,0.97985589,-0.02526849,0.119689635
1764767214.7086337,-3.44876,0.8392999999999999,0.3357199999999999,0.97985589,-0.02526849,0.119689635
1764767214.7086337,-3.54032,0.62566,0.6867,0.98058831,-0.02490228,0.11950653
1764767214.7086337,-3.54032,0.62566,0.6867,0.98058831,-0.02490228,0.11950653
1764767214.7086337,-3.54032,0.62566,0.6867,0.98058831,-0.02490228,0.11950653
1764767214.7086337,-3.54032,0.62566,0.6867,0.98058831,-0.02490228,0.11950653
1764767214.7086337,-3.54032,0.62566,0.6867,0.98058831,-0.02490228,0.11950653
1764767214.7086337,-3.54032,0.62566,0.6867,0.98058831,-0.02490228,0.11950653
1764767214.7086337,-3.54032,0.62566,0.6867,0.98058831,-0.02490228,0.11950653
1764767214.7086337,-3.54032,0.62566,0.6867,0.98058831,-0.02490228,0.11950653
1764767214.7086337,-3.54032,0.62566,0.6867,0.98058831,-0.02490228,0.11950653
1764767214.7086337,-3.54032,0.62566,0.6867,0.98058831,-0.02490228,0.11950653
1764767214.7086337,-3.61662,0.97664,0.6714399999999999,0.981625905,-0.024475035,0.1196286
1764767214.7086337,-3.61662,0.97664,0.6714399999999999,0.981625905,-0.024475035,0.1196286
1764767214.7086337,-3.61662,0.97664,0.6714399999999999,0.981625905,-0.024475035,0.1196286
1764767214.7086337,-3.61662,0.97664,0.6714399999999999,0.981625905,-0.024475035,0.1196286
1764767214.7086337,-3.61662,0.97664,0.6714399999999999,0.981625905,-0.024475035,0.1196286
1764767214.7086337,-3.61662,0.97664,0.6714399999999999,0.981625905,-0.024475035,0.1196286
1764767214.7561147,-3.61662,0.97664,0.6714399999999999,0.981625905,-0.024475035,0.1196286
1764767214.7561147,-3.61662,0.97664,0.6714399999999999,0.981625905,-0.024475035,0.1196286
1764767214.7561147,-3.61662,0.97664,0.6714399999999999,0.981625905,-0.024475035,0.1196286
1764767214.7561147,-3.61662,0.97664,0.6714399999999999,0.981625905,-0.024475035,0.1196286
1764767214.7561147,-3.63188,1.0682,0.56462,0.98095452,-0.024414,0.119811705
1764767214.7561147,-3.63188,1.0682,0.56462,0.98095452,-0.024414,0.119811705
1764767214.7561147,-3.63188,1.0682,0.56462,0.98095452,-0.024414,0.119811705
1764767214.7561147,-3.63188,1.0682,0.56462,0.98095452,-0.024414,0.119811705
1764767214.7561147,-3.63188,1.0682,0.56462,0.98095452,-0.024414,0.119811705
1764767214.7561147,-3.63188,1.0682,0.56462,0.98095452,-0.024414,0.119811705
1764767214.7561147,-3.63188,1.0682,0.56462,0.98095452,-0.024414,0.119811705
1764767214.7561147,-3.63188,1.0682,0.56462,0.98095452,-0.024414,0.119811705
1764767214.7561147,-3.63188,1.0682,0.56462,0.98095452,-0.024414,0.119811705
1764767214.7561147,-3.63188,1.0682,0.56462,0.98095452,-0.024414,0.119811705
1764767214.7561147,-3.46402,0.93086,0.50358,0.97985589,-0.02294916,0.11987274
1764767214.7561147,-3.46402,0.93086,0.50358,0.97985589,-0.02294916,0.11987274
1764767214.7561147,-3.46402,0.93086,0.50358,0.97985589,-0.02294916,0.11987274
1764767214.7561147,-3.46402,0.93086,0.50358,0.97985589,-0.02294916,0.11987274
1764767214.7561147,-3.46402,0.93086,0.50358,0.97985589,-0.02294916,0.11987274
1764767214.7561147,-3.46402,0.93086,0.50358,0.97985589,-0.02294916,0.11987274
1764767214.7561147,-3.46402,0.93086,0.50358,0.97985589,-0.02294916,0.11987274
1764767214.7561147,-3.46402,0.93086,0.50358,0.97985589,-0.02294916,0.11987274
1764767214.7561147,-3.46402,0.93086,0.50358,0.97985589,-0.02294916,0.11987274
1764767214.7561147,-3.46402,0.93086,0.50358,0.97985589,-0.02294916,0.11987274
1764767214.8050685,-3.69292,1.2055399999999998,1.09872,0.979062435,-0.02258295,0.11987274
1764767214.8050685,-3.69292,1.2055399999999998,1.09872,0.979062435,-0.02258295,0.11987274
1764767214.8050685,-3.69292,1.2055399999999998,1.09872,0.979062435,-0.02258295,0.11987274
1764767214.8050685,-3.69292,1.2055399999999998,1.09872,0.979062435,-0.02258295,0.11987274
1764767214.8050685,-3.69292,1.2055399999999998,1.09872,0.979062435,-0.02258295,0.11987274
1764767214.8050685,-3.69292,1.2055399999999998,1.09872,0.979062435,-0.02258295,0.11987274
1764767214.8050685,-3.69292,1.2055399999999998,1.09872,0.979062435,-0.02258295,0.11987274
1764767214.8050685,-3.69292,1.2055399999999998,1.09872,0.979062435,-0.02258295,0.11987274
1764767214.8050685,-3.69292,1.2055399999999998,1.09872,0.979062435,-0.02258295,0.11987274
1764767214.8050685,-3.69292,1.2055399999999998,1.09872,0.979062435,-0.02258295,0.11987274
1764767214.8050685,-3.4335,0.9919,1.25132,0.97961175,-0.022521915,0.11975067
1764767214.8050685,-3.4335,0.9919,1.25132,0.97961175,-0.022521915,0.11975067
1764767214.8050685,-3.4335,0.9919,1.25132,0.97961175,-0.022521915,0.11975067
1764767214.8050685,-3.4335,0.9919,1.25132,0.97961175,-0.022521915,0.11975067
1764767214.8050685,-3.4335,0.9919,1.25132,0.97961175,-0.022521915,0.11975067
1764767214.8050685,-3.4335,0.9919,1.25132,0.97961175,-0.022521915,0.11975067
1764767214.8050685,-3.4335,0.9919,1.25132,0.97961175,-0.022521915,0.11975067
1764767214.8050685,-3.4335,0.9919,1.25132,0.97961175,-0.022521915,0.11975067
1764767214.8050685,-3.4335,0.9919,1.25132,0.97961175,-0.022521915,0.11975067
1764767214.8050685,-3.4335,0.9919,1.25132,0.97961175,-0.022521915,0.11975067
1764767214.8050685,-3.7387,1.09872,1.32762,0.97924554,-0.02343744,0.119445495
1764767214.8050685,-3.7387,1.09872,1.32762,0.97924554,-0.02343744,0.119445495
1764767214.8050685,-3.7387,1.09872,1.32762,0.97924554,-0.02343744,0.119445495
1764767214.8050685,-3.7387,1.09872,1.32762,0.97924554,-0.02343744,0.119445495
1764767214.8484824,-3.7387,1.09872,1.32762,0.97924554,-0.02343744,0.119445495
1764767214.8484824,-3.7387,1.09872,1.32762,0.97924554,-0.02343744,0.119445495
1764767214.8484824,-3.7387,1.09872,1.32762,0.97924554,-0.02343744,0.119445495
1764767214.8484824,-3.7387,1.09872,1.32762,0.97924554,-0.02343744,0.119445495
1764767214.8484824,-3.7387,1.09872,1.32762,0.97924554,-0.02343744,0.119445495
1764767214.8489904,-3.7387,1.09872,1.32762,0.97924554,-0.02343744,0.119445495
1764767214.8489904,-3.52506,1.1445,0.94612,0.9802221,-0.02392572,0.11926239
1764767214.8489904,-3.52506,1.1445,0.94612,0.9802221,-0.02392572,0.11926239
1764767214.8489904,-3.52506,1.1445,0.94612,0.9802221,-0.02392572,0.11926239
1764767214.8489904,-3.52506,1.1445,0.94612,0.9802221,-0.02392572,0.11926239
1764767214.8489904,-3.52506,1.1445,0.94612,0.9802221,-0.02392572,0.11926239
1764767214.8489904,-3.52506,1.1445,0.94612,0.9802221,-0.02392572,0.11926239
1764767214.8489904,-3.52506,1.1445,0.94612,0.9802221,-0.02392572,0.11926239
1764767214.8489904,-3.52506,1.1445,0.94612,0.9802221,-0.02392572,0.11926239
1764767214.8489904,-3.52506,1.1445,0.94612,0.9802221,-0.02392572,0.11926239
1764767214.8489904,-3.52506,1.1445,0.94612,0.9802221,-0.02392572,0.11926239
1764767214.8504283,-3.75396,1.6633399999999998,0.39676,0.980405205,-0.02514642,0.119323425
1764767214.8504283,-3.75396,1.6633399999999998,0.39676,0.980405205,-0.02514642,0.119323425
1764767214.8504283,-3.75396,1.6633399999999998,0.39676,0.980405205,-0.02514642,0.119323425
1764767214.8504283,-3.75396,1.6633399999999998,0.39676,0.980405205,-0.02514642,0.119323425
1764767214.8504283,-3.75396,1.6633399999999998,0.39676,0.980405205,-0.02514642,0.119323425
1764767214.8504283,-3.75396,1.6633399999999998,0.39676,0.980405205,-0.02514642,0.119323425
1764767214.8965998,-3.75396,1.6633399999999998,0.39676,0.980405205,-0.02514642,0.119323425
1764767214.8965998,-3.75396,1.6633399999999998,0.39676,0.980405205,-0.02514642,0.119323425
1764767214.8965998,-3.75396,1.6633399999999998,0.39676,0.980405205,-0.02514642,0.119323425
1764767214.8965998,-3.75396,1.6633399999999998,0.39676,0.980405205,-0.02514642,0.119323425
1764767214.8965998,-3.5098,0.9156,-0.01526,0.97997796,-0.02648919,0.118591005
1764767214.8965998,-3.5098,0.9156,-0.01526,0.97997796,-0.02648919,0.118591005
1764767214.8965998,-3.5098,0.9156,-0.01526,0.97997796,-0.02648919,0.118591005
1764767214.8965998,-3.5098,0.9156,-0.01526,0.97997796,-0.02648919,0.118591005
1764767214.8965998,-3.5098,0.9156,-0.01526,0.97997796,-0.02648919,0.118591005
1764767214.8965998,-3.5098,0.9156,-0.01526,0.97997796,-0.02648919,0.118591005
1764767214.8965998,-3.5098,0.9156,-0.01526,0.97997796,-0.02648919,0.118591005
1764767214.8965998,-3.5098,0.9156,-0.01526,0.97997796,-0.02648919,0.118591005
1764767214.8965998,-3.5098,0.9156,-0.01526,0.97997796,-0.02648919,0.118591005
1764767214.8965998,-3.5098,0.9156,-0.01526,0.97997796,-0.02648919,0.118591005
1764767214.8965998,-3.55558,0.94612,-0.12208,0.980649345,-0.0268554,0.11865204
1764767214.8965998,-3.55558,0.94612,-0.12208,0.980649345,-0.0268554,0.11865204
1764767214.8965998,-3.55558,0.94612,-0.12208,0.980649345,-0.0268554,0.11865204
1764767214.8965998,-3.55558,0.94612,-0.12208,0.980649345,-0.0268554,0.11865204
1764767214.8965998,-3.55558,0.94612,-0.12208,0.980649345,-0.0268554,0.11865204
1764767214.8965998,-3.55558,0.94612,-0.12208,0.980649345,-0.0268554,0.11865204
1764767214.8965998,-3.55558,0.94612,-0.12208,0.980649345,-0.0268554,0.11865204
1764767214.8965998,-3.55558,0.94612,-0.12208,0.980649345,-0.0268554,0.11865204
1764767214.8965998,-3.55558,0.94612,-0.12208,0.980649345,-0.0268554,0.11865204
1764767214.8965998,-3.55558,0.94612,-0.12208,0.980649345,-0.0268554,0.11865204
1764767214.9432127,-3.83026,0.85456,-0.59514,0.98254143,-0.025085385,0.118468935
1764767214.9432127,-3.83026,0.85456,-0.59514,0.98254143,-0.025085385,0.118468935
1764767214.9432127,-3.83026,0.85456,-0.59514,0.98254143,-0.025085385,0.118468935
1764767214.9432127,-3.83026,0.85456,-0.59514,0.98254143,-0.025085385,0.118468935
1764767214.9432127,-3.83026,0.85456,-0.59514,0.98254143,-0.025085385,0.118468935
1764767214.9446828,-3.83026,0.85456,-0.59514,0.98254143,-0.025085385,0.118468935
1764767214.9446828,-3.83026,0.85456,-0.59514,0.98254143,-0.025085385,0.118468935
1764767214.9446828,-3.83026,0.85456,-0.59514,0.98254143,-0.025085385,0.118468935
1764767214.9446828,-3.83026,0.85456,-0.59514,0.98254143,-0.025085385,0.118468935
1764767214.9446828,-3.83026,0.85456,-0.59514,0.98254143,-0.025085385,0.118468935
1764767214.9446828,-4.28806,1.28184,-0.71722,0.981625905,-0.02355951,0.119567565
1764767214.9446828,-4.28806,1.28184,-0.71722,0.981625905,-0.02355951,0.119567565
1764767214.9446828,-4.28806,1.28184,-0.71722,0.981625905,-0.02355951,0.119567565
1764767214.9446828,-4.28806,1.28184,-0.71722,0.981625905,-0.02355951,0.119567565
1764767214.9446828,-4.28806,1.28184,-0.71722,0.981625905,-0.02355951,0.119567565
1764767214.9446828,-4.28806,1.28184,-0.71722,0.981625905,-0.02355951,0.119567565
1764767214.9446828,-4.28806,1.28184,-0.71722,0.981625905,-0.02355951,0.119567565
1764767214.9446828,-4.28806,1.28184,-0.71722,0.981625905,-0.02355951,0.119567565
1764767214.9446828,-4.28806,1.28184,-0.71722,0.981625905,-0.02355951,0.119567565
1764767214.9446828,-4.28806,1.28184,-0.71722,0.981625905,-0.02355951,0.119567565
1764767214.9446828,-4.45592,1.58704,-0.6103999999999999,0.97973382,-0.022033635,0.11926239
1764767214.9446828,-4.45592,1.58704,-0.6103999999999999,0.97973382,-0.022033635,0.11926239
1764767214.9446828,-4.45592,1.58704,-0.6103999999999999,0.97973382,-0.022033635,0.11926239
1764767214.9446828,-4.45592,1.58704,-0.6103999999999999,0.97973382,-0.022033635,0.11926239
1764767214.990832,-4.45592,1.58704,-0.6103999999999999,0.97973382,-0.022033635,0.11926239
1764767214.990832,-4.45592,1.58704,-0.6103999999999999,0.97973382,-0.022033635,0.11926239
1764767214.990832,-4.45592,1.58704,-0.6103999999999999,0.97973382,-0.022033635,0.11926239
1764767214.990832,-4.45592,1.58704,-0.6103999999999999,0.97973382,-0.022033635,0.11926239
1764767214.990832,-4.45592,1.58704,-0.6103999999999999,0.97973382,-0.022033635,0.11926239
1764767214.990832,-4.45592,1.58704,-0.6103999999999999,0.97973382,-0.022033635,0.11926239
1764767214.990832,-4.77638,1.86172,-0.9003399999999999,0.97948968,-0.02124018,0.11901825
1764767214.990832,-4.77638,1.86172,-0.9003399999999999,0.97948968,-0.02124018,0.11901825
1764767214.990832,-4.77638,1.86172,-0.9003399999999999,0.97948968,-0.02124018,0.11901825
1764767214.990832,-4.77638,1.86172,-0.9003399999999999,0.97948968,-0.02124018,0.11901825
1764767214.990832,-4.77638,1.86172,-0.9003399999999999,0.97948968,-0.02124018,0.11901825
1764767214.990832,-4.77638,1.86172,-0.9003399999999999,0.97948968,-0.02124018,0.11901825
1764767214.990832,-4.77638,1.86172,-0.9003399999999999,0.97948968,-0.02124018,0.11901825
1764767214.990832,-4.77638,1.86172,-0.9003399999999999,0.97948968,-0.02124018,0.11901825
1764767214.990832,-4.77638,1.86172,-0.9003399999999999,0.97948968,-0.02124018,0.11901825
1764767214.990832,-4.77638,1.86172,-0.9003399999999999,0.97948968,-0.02124018,0.11901825
1764767214.990832,-4.51696,1.73964,-0.77826,0.979794855,-0.020935005,0.120055845
1764767214.990832,-4.51696,1.73964,-0.77826,0.979794855,-0.020935005,0.120055845
1764767214.990832,-4.51696,1.73964,-0.77826,0.979794855,-0.020935005,0.120055845
1764767214.9918394,-4.51696,1.73964,-0.77826,0.979794855,-0.020935005,0.120055845
1764767214.9918394,-4.51696,1.73964,-0.77826,0.979794855,-0.020935005,0.120055845
1764767214.9918394,-4.51696,1.73964,-0.77826,0.979794855,-0.020935005,0.120055845
1764767214.9918394,-4.51696,1.73964,-0.77826,0.979794855,-0.020935005,0.120055845
1764767214.9918394,-4.51696,1.73964,-0.77826,0.979794855,-0.020935005,0.120055845
1764767215.0378444,-4.51696,1.73964,-0.77826,0.979794855,-0.020935005,0.120055845
1764767215.0378444,-4.51696,1.73964,-0.77826,0.979794855,-0.020935005,0.120055845
1764767215.0378444,-4.07442,1.61756,-0.0762999999999999,0.978696225,-0.022155705,0.121032405
1764767215.0378444,-4.07442,1.61756,-0.0762999999999999,0.978696225,-0.022155705,0.121032405
1764767215.0378444,-4.07442,1.61756,-0.0762999999999999,0.978696225,-0.022155705,0.121032405
1764767215.0378444,-4.07442,1.61756,-0.0762999999999999,0.978696225,-0.022155705,0.121032405
1764767215.0389788,-4.07442,1.61756,-0.0762999999999999,0.978696225,-0.022155705,0.121032405
1764767215.0389788,-4.07442,1.61756,-0.0762999999999999,0.978696225,-0.022155705,0.121032405
1764767215.0389788,-4.07442,1.61756,-0.0762999999999999,0.978696225,-0.022155705,0.121032405
1764767215.0389788,-4.07442,1.61756,-0.0762999999999999,0.978696225,-0.022155705,0.121032405
1764767215.0389788,-4.07442,1.61756,-0.0762999999999999,0.978696225,-0.022155705,0.121032405
1764767215.0389788,-4.07442,1.61756,-0.0762999999999999,0.978696225,-0.022155705,0.121032405
1764767215.0389788,-3.37246,0.9003399999999999,1.2208,0.978330015,-0.02331537,0.122497245
1764767215.0394838,-3.37246,0.9003399999999999,1.2208,0.978330015,-0.02331537,0.122497245
1764767215.0394838,-3.37246,0.9003399999999999,1.2208,0.978330015,-0.02331537,0.122497245
1764767215.0394838,-3.37246,0.9003399999999999,1.2208,0.978330015,-0.02331537,0.122497245
1764767215.0394838,-3.37246,0.9003399999999999,1.2208,0.978330015,-0.02331537,0.122497245
1764767215.0394838,-3.37246,0.9003399999999999,1.2208,0.978330015,-0.02331537,0.122497245
1764767215.0394838,-3.37246,0.9003399999999999,1.2208,0.978330015,-0.02331537,0.122497245
1764767215.0394838,-3.37246,0.9003399999999999,1.2208,0.978330015,-0.02331537,0.122497245
1764767215.0394838,-3.37246,0.9003399999999999,1.2208,0.978330015,-0.02331537,0.122497245
1764767215.0394838,-3.37246,0.9003399999999999,1.2208,0.978330015,-0.02331537,0.122497245
1764767215.0394838,-1.1445,0.28994,0.9919,0.97814691,-0.025329525,0.12414519
1764767215.0394838,-1.1445,0.28994,0.9919,0.97814691,-0.025329525,0.12414519
1764767215.0827663,-1.1445,0.28994,0.9919,0.97814691,-0.025329525,0.12414519
1764767215.0827663,-1.1445,0.28994,0.9919,0.97814691,-0.025329525,0.12414519
1764767215.0827663,-1.1445,0.28994,0.9919,0.97814691,-0.025329525,0.12414519
1764767215.0827663,-1.1445,0.28994,0.9919,0.97814691,-0.025329525,0.12414519
1764767215.1335487,-1.1445,0.28994,0.9919,0.97814691,-0.025329525,0.12414519
1764767215.1335487,-1.1445,0.28994,0.9919,0.97814691,-0.025329525,0.12414519
1764767215.1335487,-1.1445,0.28994,0.9919,0.97814691,-0.025329525,0.12414519
1764767215.1335487,-1.1445,0.28994,0.9919,0.97814691,-0.025329525,0.12414519
1764767215.1335487,-0.93086,-0.77826,1.57178,0.97887933,-0.02587884,0.1245114
1764767215.1335487,-0.93086,-0.77826,1.57178,0.97887933,-0.02587884,0.1245114
1764767215.1335487,-0.93086,-0.77826,1.57178,0.97887933,-0.02587884,0.1245114
1764767215.1335487,-0.93086,-0.77826,1.57178,0.97887933,-0.02587884,0.1245114
1764767215.1335487,-0.93086,-0.77826,1.57178,0.97887933,-0.02587884,0.1245114
1764767215.1335487,-0.93086,-0.77826,1.57178,0.97887933,-0.02587884,0.1245114
1764767215.1335487,-0.93086,-0.77826,1.57178,0.97887933,-0.02587884,0.1245114
1764767215.1335487,-0.93086,-0.77826,1.57178,0.97887933,-0.02587884,0.1245114
1764767215.1335487,-0.93086,-0.77826,1.57178,0.97887933,-0.02587884,0.1245114
1764767215.1335487,-0.93086,-0.77826,1.57178,0.97887933,-0.02587884,0.1245114
1764767215.1335487,-1.0682,-0.93086,1.2971,0.979550715,-0.024597105,0.123595875
1764767215.1335487,-1.0682,-0.93086,1.2971,0.979550715,-0.024597105,0.123595875
1764767215.1335487,-1.0682,-0.93086,1.2971,0.979550715,-0.024597105,0.123595875
1764767215.1335487,-1.0682,-0.93086,1.2971,0.979550715,-0.024597105,0.123595875
1764767215.1335487,-1.0682,-0.93086,1.2971,0.979550715,-0.024597105,0.123595875
1764767215.1335487,-1.0682,-0.93086,1.2971,0.979550715,-0.024597105,0.123595875
1764767215.1335487,-1.0682,-0.93086,1.2971,0.979550715,-0.024597105,0.123595875
1764767215.1335487,-1.0682,-0.93086,1.2971,0.979550715,-0.024597105,0.123595875
1764767215.1335487,-1.0682,-0.93086,1.2971,0.979550715,-0.024597105,0.123595875
1764767215.1335487,-1.0682,-0.93086,1.2971,0.979550715,-0.024597105,0.123595875
1764767215.1335487,-1.84646,-0.3051999999999999,0.3051999999999999,0.98058831,-0.02124018,0.122253105
1764767215.1335487,-1.84646,-0.3051999999999999,0.3051999999999999,0.98058831,-0.02124018,0.122253105
1764767215.1335487,-1.84646,-0.3051999999999999,0.3051999999999999,0.98058831,-0.02124018,0.122253105
1764767215.1335487,-1.84646,-0.3051999999999999,0.3051999999999999,0.98058831,-0.02124018,0.122253105
1764767215.1335487,-1.84646,-0.3051999999999999,0.3051999999999999,0.98058831,-0.02124018,0.122253105
1764767215.1335487,-1.84646,-0.3051999999999999,0.3051999999999999,0.98058831,-0.02124018,0.122253105
1764767215.1335487,-1.84646,-0.3051999999999999,0.3051999999999999,0.98058831,-0.02124018,0.122253105
1764767215.1335487,-1.84646,-0.3051999999999999,0.3051999999999999,0.98058831,-0.02124018,0.122253105
1764767215.1335487,-1.84646,-0.3051999999999999,0.3051999999999999,0.98058831,-0.02124018,0.122253105
1764767215.1335487,-1.84646,-0.3051999999999999,0.3051999999999999,0.98058831,-0.02124018,0.122253105
1764767215.1335487,-3.32668,0.3509799999999999,-0.13734,0.981381765,-0.018127395,0.121276545
1764767215.1335487,-3.32668,0.3509799999999999,-0.13734,0.981381765,-0.018127395,0.121276545
1764767215.1335487,-3.32668,0.3509799999999999,-0.13734,0.981381765,-0.018127395,0.121276545
1764767215.1335487,-3.32668,0.3509799999999999,-0.13734,0.981381765,-0.018127395,0.121276545
1764767215.1335487,-3.32668,0.3509799999999999,-0.13734,0.981381765,-0.018127395,0.121276545
1764767215.1335487,-3.32668,0.3509799999999999,-0.13734,0.981381765,-0.018127395,0.121276545
1764767215.1335487,-3.32668,0.3509799999999999,-0.13734,0.981381765,-0.018127395,0.121276545
1764767215.1335487,-3.32668,0.3509799999999999,-0.13734,0.981381765,-0.018127395,0.121276545
1764767215.175739,-3.32668,0.3509799999999999,-0.13734,0.981381765,-0.018127395,0.121276545
1764767215.175739,-3.32668,0.3509799999999999,-0.13734,0.981381765,-0.018127395,0.121276545
1764767215.175739,-5.29522,0.24416,-0.74774,0.98046624,-0.015563925,0.119689635
1764767215.175739,-5.29522,0.24416,-0.74774,0.98046624,-0.015563925,0.119689635
1764767215.1762872,-5.29522,0.24416,-0.74774,0.98046624,-0.015563925,0.119689635
1764767215.1762872,-5.29522,0.24416,-0.74774,0.98046624,-0.015563925,0.119689635
1764767215.1762872,-5.29522,0.24416,-0.74774,0.98046624,-0.015563925,0.119689635
1764767215.1762872,-5.29522,0.24416,-0.74774,0.98046624,-0.015563925,0.119689635
1764767215.1762872,-5.29522,0.24416,-0.74774,0.98046624,-0.015563925,0.119689635
1764767215.1762872,-5.29522,0.24416,-0.74774,0.98046624,-0.015563925,0.119689635
1764767215.1762872,-5.29522,0.24416,-0.74774,0.98046624,-0.015563925,0.119689635
1764767215.1762872,-5.29522,0.24416,-0.74774,0.98046624,-0.015563925,0.119689635
1764767215.1762872,-6.62284,0.85456,0.0,0.979794855,-0.015808065,0.118713075
1764767215.1762872,-6.62284,0.85456,0.0,0.979794855,-0.015808065,0.118713075
1764767215.1762872,-6.62284,0.85456,0.0,0.979794855,-0.015808065,0.118713075
1764767215.1762872,-6.62284,0.85456,0.0,0.979794855,-0.015808065,0.118713075
1764767215.1762872,-6.62284,0.85456,0.0,0.979794855,-0.015808065,0.118713075
1764767215.1762872,-6.62284,0.85456,0.0,0.979794855,-0.015808065,0.118713075
1764767215.1772995,-6.62284,0.85456,0.0,0.979794855,-0.015808065,0.118713075
1764767215.1772995,-6.62284,0.85456,0.0,0.979794855,-0.015808065,0.118713075
1764767215.1772995,-6.62284,0.85456,0.0,0.979794855,-0.015808065,0.118713075
1764767215.1772995,-6.62284,0.85456,0.0,0.979794855,-0.015808065,0.118713075
1764767215.223607,-6.69914,0.1678599999999999,0.50358,0.979428645,-0.018127395,0.11914032
1764767215.223607,-6.69914,0.1678599999999999,0.50358,0.979428645,-0.018127395,0.11914032
1764767215.223607,-6.69914,0.1678599999999999,0.50358,0.979428645,-0.018127395,0.11914032
1764767215.223607,-6.69914,0.1678599999999999,0.50358,0.979428645,-0.018127395,0.11914032
1764767215.223607,-6.69914,0.1678599999999999,0.50358,0.979428645,-0.018127395,0.11914032
1764767215.223607,-6.69914,0.1678599999999999,0.50358,0.979428645,-0.018127395,0.11914032
1764767215.223607,-6.69914,0.1678599999999999,0.50358,0.979428645,-0.018127395,0.11914032
1764767215.223607,-6.69914,0.1678599999999999,0.50358,0.979428645,-0.018127395,0.11914032
1764767215.223607,-6.69914,0.1678599999999999,0.50358,0.979428645,-0.018127395,0.11914032
1764767215.223607,-6.69914,0.1678599999999999,0.50358,0.979428645,-0.018127395,0.11914032
1764767215.223607,-5.93614,-0.50358,0.88508,0.97912347,-0.02136225,0.118957215
1764767215.223607,-5.93614,-0.50358,0.88508,0.97912347,-0.02136225,0.118957215
1764767215.223607,-5.93614,-0.50358,0.88508,0.97912347,-0.02136225,0.118957215
1764767215.223607,-5.93614,-0.50358,0.88508,0.97912347,-0.02136225,0.118957215
1764767215.223607,-5.93614,-0.50358,0.88508,0.97912347,-0.02136225,0.118957215
1764767215.223607,-5.93614,-0.50358,0.88508,0.97912347,-0.02136225,0.118957215
1764767215.223607,-5.93614,-0.50358,0.88508,0.97912347,-0.02136225,0.118957215
1764767215.223607,-5.93614,-0.50358,0.88508,0.97912347,-0.02136225,0.118957215
1764767215.223607,-5.93614,-0.50358,0.88508,0.97912347,-0.02136225,0.118957215
1764767215.223607,-5.93614,-0.50358,0.88508,0.97912347,-0.02136225,0.118957215
1764767215.223607,-4.62378,-0.1525999999999999,1.31236,0.980405205,-0.024352965,0.11889618
1764767215.223607,-4.62378,-0.1525999999999999,1.31236,0.980405205,-0.024352965,0.11889618
1764767215.223607,-4.62378,-0.1525999999999999,1.31236,0.980405205,-0.024352965,0.11889618
1764767215.223607,-4.62378,-0.1525999999999999,1.31236,0.980405205,-0.024352965,0.11889618
1764767215.2721164,-4.62378,-0.1525999999999999,1.31236,0.980405205,-0.024352965,0.11889618
1764767215.2721164,-4.62378,-0.1525999999999999,1.31236,0.980405205,-0.024352965,0.11889618
1764767215.2721164,-4.62378,-0.1525999999999999,1.31236,0.980405205,-0.024352965,0.11889618
1764767215.2721164,-4.62378,-0.1525999999999999,1.31236,0.980405205,-0.024352965,0.11889618
1764767215.2721164,-4.62378,-0.1525999999999999,1.31236,0.980405205,-0.024352965,0.11889618
1764767215.2721164,-4.62378,-0.1525999999999999,1.31236,0.980405205,-0.024352965,0.11889618
1764767215.2721164,-3.21986,0.44254,1.3734,0.981625905,-0.02636712,0.117980655
1764767215.2721164,-3.21986,0.44254,1.3734,0.981625905,-0.02636712,0.117980655
1764767215.2721164,-3.21986,0.44254,1.3734,0.981625905,-0.02636712,0.117980655
1764767215.2721164,-3.21986,0.44254,1.3734,0.981625905,-0.02636712,0.117980655
1764767215.2721164,-3.21986,0.44254,1.3734,0.981625905,-0.02636712,0.117980655
1764767215.2721164,-3.21986,0.44254,1.3734,0.981625905,-0.02636712,0.117980655
1764767215.2721164,-3.21986,0.44254,1.3734,0.981625905,-0.02636712,0.117980655
1764767215.2721164,-3.21986,0.44254,1.3734,0.981625905,-0.02636712,0.117980655
1764767215.2721164,-3.21986,0.44254,1.3734,0.981625905,-0.02636712,0.117980655
1764767215.2721164,-3.21986,0.44254,1.3734,0.981625905,-0.02636712,0.117980655
1764767215.2721164,-2.45686,0.82404,1.28184,0.98254143,-0.025939875,0.11743134
1764767215.2721164,-2.45686,0.82404,1.28184,0.98254143,-0.025939875,0.11743134
1764767215.2721164,-2.45686,0.82404,1.28184,0.98254143,-0.025939875,0.11743134
1764767215.2721164,-2.45686,0.82404,1.28184,0.98254143,-0.025939875,0.11743134
1764767215.2721164,-2.45686,0.82404,1.28184,0.98254143,-0.025939875,0.11743134
1764767215.2721164,-2.45686,0.82404,1.28184,0.98254143,-0.025939875,0.11743134
1764767215.3150604,-2.45686,0.82404,1.28184,0.98254143,-0.025939875,0.11743134
1764767215.3150604,-2.45686,0.82404,1.28184,0.98254143,-0.025939875,0.11743134
1764767215.3150604,-2.45686,0.82404,1.28184,0.98254143,-0.025939875,0.11743134
1764767215.3150604,-2.45686,0.82404,1.28184,0.98254143,-0.025939875,0.11743134
1764767215.3160748,-2.30426,0.8698199999999999,0.82404,0.98241936,-0.02453607,0.11669892
1764767215.3160748,-2.30426,0.8698199999999999,0.82404,0.98241936,-0.02453607,0.11669892
1764767215.3160748,-2.30426,0.8698199999999999,0.82404,0.98241936,-0.02453607,0.11669892
1764767215.3160748,-2.30426,0.8698199999999999,0.82404,0.98241936,-0.02453607,0.11669892
1764767215.3160748,-2.30426,0.8698199999999999,0.82404,0.98241936,-0.02453607,0.11669892
1764767215.3160748,-2.30426,0.8698199999999999,0.82404,0.98241936,-0.02453607,0.11669892
1764767215.3160748,-2.30426,0.8698199999999999,0.82404,0.98241936,-0.02453607,0.11669892
1764767215.3160748,-2.30426,0.8698199999999999,0.82404,0.98241936,-0.02453607,0.11669892
1764767215.3160748,-2.30426,0.8698199999999999,0.82404,0.98241936,-0.02453607,0.11669892
1764767215.3160748,-2.30426,0.8698199999999999,0.82404,0.98241936,-0.02453607,0.11669892
1764767215.3160748,-2.65524,0.62566,0.6714399999999999,0.98107659,-0.022033635,0.11633271
1764767215.3160748,-2.65524,0.62566,0.6714399999999999,0.98107659,-0.022033635,0.11633271
1764767215.3160748,-2.65524,0.62566,0.6714399999999999,0.98107659,-0.022033635,0.11633271
1764767215.3160748,-2.65524,0.62566,0.6714399999999999,0.98107659,-0.022033635,0.11633271
1764767215.3160748,-2.65524,0.62566,0.6714399999999999,0.98107659,-0.022033635,0.11633271
1764767215.3160748,-2.65524,0.62566,0.6714399999999999,0.98107659,-0.022033635,0.11633271
1764767215.3160748,-2.65524,0.62566,0.6714399999999999,0.98107659,-0.022033635,0.11633271
1764767215.3160748,-2.65524,0.62566,0.6714399999999999,0.98107659,-0.022033635,0.11633271
1764767215.3160748,-2.65524,0.62566,0.6714399999999999,0.98107659,-0.022033635,0.11633271
1764767215.3160748,-2.65524,0.62566,0.6714399999999999,0.98107659,-0.022033635,0.11633271
1764767215.317071,-3.29616,0.44254,0.59514,0.97948968,-0.02038569,0.117126165
1764767215.317071,-3.29616,0.44254,0.59514,0.97948968,-0.02038569,0.117126165
1764767215.3665018,-3.29616,0.44254,0.59514,0.97948968,-0.02038569,0.117126165
1764767215.3665018,-3.29616,0.44254,0.59514,0.97948968,-0.02038569,0.117126165
1764767215.3665018,-3.29616,0.44254,0.59514,0.97948968,-0.02038569,0.117126165
1764767215.3675225,-3.29616,0.44254,0.59514,0.97948968,-0.02038569,0.117126165
1764767215.3675225,-3.29616,0.44254,0.59514,0.97948968,-0.02038569,0.117126165
1764767215.3675225,-3.29616,0.44254,0.59514,0.97948968,-0.02038569,0.117126165
1764767215.3675225,-3.29616,0.44254,0.59514,0.97948968,-0.02038569,0.117126165
1764767215.3675225,-3.29616,0.44254,0.59514,0.97948968,-0.02038569,0.117126165
1764767215.3675225,-4.13546,0.97664,1.38866,0.979672785,-0.019592235,0.11694306
1764767215.3675225,-4.13546,0.97664,1.38866,0.979672785,-0.019592235,0.11694306
1764767215.3675225,-4.13546,0.97664,1.38866,0.979672785,-0.019592235,0.11694306
1764767215.3675225,-4.13546,0.97664,1.38866,0.979672785,-0.019592235,0.11694306
1764767215.3675225,-4.13546,0.97664,1.38866,0.979672785,-0.019592235,0.11694306
1764767215.3675225,-4.13546,0.97664,1.38866,0.979672785,-0.019592235,0.11694306
1764767215.3675225,-4.13546,0.97664,1.38866,0.979672785,-0.019592235,0.11694306
1764767215.3675225,-4.13546,0.97664,1.38866,0.979672785,-0.019592235,0.11694306
1764767215.3675225,-4.13546,0.97664,1.38866,0.979672785,-0.019592235,0.11694306
1764767215.3675225,-4.13546,0.97664,1.38866,0.979672785,-0.019592235,0.11694306
1764767215.3675225,-4.41014,0.71722,1.34288,0.979062435,-0.01928706,0.11730927
1764767215.3675225,-4.41014,0.71722,1.34288,0.979062435,-0.01928706,0.11730927
1764767215.3675225,-4.41014,0.71722,1.34288,0.979062435,-0.01928706,0.11730927
1764767215.3675225,-4.41014,0.71722,1.34288,0.979062435,-0.01928706,0.11730927
1764767215.3675225,-4.41014,0.71722,1.34288,0.979062435,-0.01928706,0.11730927
1764767215.3675225,-4.41014,0.71722,1.34288,0.979062435,-0.01928706,0.11730927
1764767215.4114203,-4.41014,0.71722,1.34288,0.979062435,-0.01928706,0.11730927
1764767215.4114203,-4.41014,0.71722,1.34288,0.979062435,-0.01928706,0.11730927
1764767215.4114203,-4.41014,0.71722,1.34288,0.979062435,-0.01928706,0.11730927
1764767215.4114203,-4.41014,0.71722,1.34288,0.979062435,-0.01928706,0.11730927
1764767215.4114203,-4.54748,0.56462,1.31236,0.97948968,-0.019958445,0.117248235
1764767215.4114203,-4.54748,0.56462,1.31236,0.97948968,-0.019958445,0.117248235
1764767215.4114203,-4.54748,0.56462,1.31236,0.97948968,-0.019958445,0.117248235
1764767215.4114203,-4.54748,0.56462,1.31236,0.97948968,-0.019958445,0.117248235
1764767215.4114203,-4.54748,0.56462,1.31236,0.97948968,-0.019958445,0.117248235
1764767215.4114203,-4.54748,0.56462,1.31236,0.97948968,-0.019958445,0.117248235
1764767215.4114203,-4.54748,0.56462,1.31236,0.97948968,-0.019958445,0.117248235
1764767215.4114203,-4.54748,0.56462,1.31236,0.97948968,-0.019958445,0.117248235
1764767215.4114203,-4.54748,0.56462,1.31236,0.97948968,-0.019958445,0.117248235
1764767215.4114203,-4.54748,0.56462,1.31236,0.97948968,-0.019958445,0.117248235
1764767215.4114203,-4.92898,1.1445,1.28184,0.981137625,-0.020690865,0.117858585
1764767215.4114203,-4.92898,1.1445,1.28184,0.981137625,-0.020690865,0.117858585
1764767215.4114203,-4.92898,1.1445,1.28184,0.981137625,-0.020690865,0.117858585
1764767215.4114203,-4.92898,1.1445,1.28184,0.981137625,-0.020690865,0.117858585
1764767215.4114203,-4.92898,1.1445,1.28184,0.981137625,-0.020690865,0.117858585
1764767215.4114203,-4.92898,1.1445,1.28184,0.981137625,-0.020690865,0.117858585
1764767215.4588196,-4.92898,1.1445,1.28184,0.981137625,-0.020690865,0.117858585
1764767215.4588196,-4.92898,1.1445,1.28184,0.981137625,-0.020690865,0.117858585
1764767215.4588196,-4.92898,1.1445,1.28184,0.981137625,-0.020690865,0.117858585
1764767215.4588196,-4.92898,1.1445,1.28184,0.981137625,-0.020690865,0.117858585
1764767215.4598212,-4.45592,0.97664,1.38866,0.981381765,-0.022033635,0.117736515
1764767215.4598212,-4.45592,0.97664,1.38866,0.981381765,-0.022033635,0.117736515
1764767215.4598212,-4.45592,0.97664,1.38866,0.981381765,-0.022033635,0.117736515
1764767215.4598212,-4.45592,0.97664,1.38866,0.981381765,-0.022033635,0.117736515
1764767215.4598212,-4.45592,0.97664,1.38866,0.981381765,-0.022033635,0.117736515
1764767215.4598212,-4.45592,0.97664,1.38866,0.981381765,-0.022033635,0.117736515
1764767215.4598212,-4.45592,0.97664,1.38866,0.981381765,-0.022033635,0.117736515
1764767215.4598212,-4.45592,0.97664,1.38866,0.981381765,-0.022033635,0.117736515
1764767215.4598212,-4.45592,0.97664,1.38866,0.981381765,-0.022033635,0.117736515
1764767215.4598212,-4.45592,0.97664,1.38866,0.981381765,-0.022033635,0.117736515
1764767215.4598212,-3.6624,1.19028,1.54126,0.98095452,-0.0231933,0.118468935
1764767215.4598212,-3.6624,1.19028,1.54126,0.98095452,-0.0231933,0.118468935
1764767215.4598212,-3.6624,1.19028,1.54126,0.98095452,-0.0231933,0.118468935
1764767215.4598212,-3.6624,1.19028,1.54126,0.98095452,-0.0231933,0.118468935
1764767215.4598212,-3.6624,1.19028,1.54126,0.98095452,-0.0231933,0.118468935
1764767215.4598212,-3.6624,1.19028,1.54126,0.98095452,-0.0231933,0.118468935
1764767215.4598212,-3.6624,1.19028,1.54126,0.98095452,-0.0231933,0.118468935
1764767215.4598212,-3.6624,1.19028,1.54126,0.98095452,-0.0231933,0.118468935
1764767215.4598212,-3.6624,1.19028,1.54126,0.98095452,-0.0231933,0.118468935
1764767215.4598212,-3.6624,1.19028,1.54126,0.98095452,-0.0231933,0.118468935
1764767215.5023131,-3.5098,1.09872,1.58704,0.980527275,-0.02416986,0.11791962
1764767215.5023131,-3.5098,1.09872,1.58704,0.980527275,-0.02416986,0.11791962
1764767215.5023131,-3.5098,1.09872,1.58704,0.980527275,-0.02416986,0.11791962
1764767215.5023131,-3.5098,1.09872,1.58704,0.980527275,-0.02416986,0.11791962
1764767215.5023131,-3.5098,1.09872,1.58704,0.980527275,-0.02416986,0.11791962
1764767215.5023131,-3.5098,1.09872,1.58704,0.980527275,-0.02416986,0.11791962
1764767215.5023131,-3.5098,1.09872,1.58704,0.980527275,-0.02416986,0.11791962
1764767215.5023131,-3.5098,1.09872,1.58704,0.980527275,-0.02416986,0.11791962
1764767215.5023131,-3.5098,1.09872,1.58704,0.980527275,-0.02416986,0.11791962
1764767215.5023131,-3.5098,1.09872,1.58704,0.980527275,-0.02416986,0.11791962
1764767215.5023131,-3.02148,0.9156,1.526,0.980527275,-0.024352965,0.117370305
1764767215.5023131,-3.02148,0.9156,1.526,0.980527275,-0.024352965,0.117370305
1764767215.5023131,-3.02148,0.9156,1.526,0.980527275,-0.024352965,0.117370305
1764767215.5023131,-3.02148,0.9156,1.526,0.980527275,-0.024352965,0.117370305
1764767215.5023131,-3.02148,0.9156,1.526,0.980527275,-0.024352965,0.117370305
1764767215.5023131,-3.02148,0.9156,1.526,0.980527275,-0.024352965,0.117370305
1764767215.5023131,-3.02148,0.9156,1.526,0.980527275,-0.024352965,0.117370305
1764767215.5023131,-3.02148,0.9156,1.526,0.980527275,-0.024352965,0.117370305
1764767215.5023131,-3.02148,0.9156,1.526,0.980527275,-0.024352965,0.117370305
1764767215.5023131,-3.02148,0.9156,1.526,0.980527275,-0.024352965,0.117370305
1764767215.5023131,-3.03674,1.0682,1.2971,0.979672785,-0.024475035,0.11767548
1764767215.5023131,-3.03674,1.0682,1.2971,0.979672785,-0.024475035,0.11767548
1764767215.5023131,-3.03674,1.0682,1.2971,0.979672785,-0.024475035,0.11767548
1764767215.503344,-3.03674,1.0682,1.2971,0.979672785,-0.024475035,0.11767548
1764767215.555137,-3.03674,1.0682,1.2971,0.979672785,-0.024475035,0.11767548
1764767215.555137,-3.03674,1.0682,1.2971,0.979672785,-0.024475035,0.11767548
1764767215.555137,-3.03674,1.0682,1.2971,0.979672785,-0.024475035,0.11767548
1764767215.555137,-3.03674,1.0682,1.2971,0.979672785,-0.024475035,0.11767548
1764767215.555137,-3.03674,1.0682,1.2971,0.979672785,-0.024475035,0.11767548
1764767215.555137,-3.03674,1.0682,1.2971,0.979672785,-0.024475035,0.11767548
1764767215.555137,-2.63998,1.54126,0.97664,0.97985589,-0.023742615,0.11706513
1764767215.555137,-2.63998,1.54126,0.97664,0.97985589,-0.023742615,0.11706513
1764767215.555137,-2.63998,1.54126,0.97664,0.97985589,-0.023742615,0.11706513
1764767215.555137,-2.63998,1.54126,0.97664,0.97985589,-0.023742615,0.11706513
1764767215.555137,-2.63998,1.54126,0.97664,0.97985589,-0.023742615,0.11706513
1764767215.555137,-2.63998,1.54126,0.97664,0.97985589,-0.023742615,0.11706513
1764767215.555137,-2.63998,1.54126,0.97664,0.97985589,-0.023742615,0.11706513
1764767215.555137,-2.63998,1.54126,0.97664,0.97985589,-0.023742615,0.11706513
1764767215.555137,-2.63998,1.54126,0.97664,0.97985589,-0.023742615,0.11706513
1764767215.555137,-2.63998,1.54126,0.97664,0.97985589,-0.023742615,0.11706513
1764767215.555137,-2.57894,1.63282,0.763,0.98034417,-0.023132265,0.11706513
1764767215.555137,-2.57894,1.63282,0.763,0.98034417,-0.023132265,0.11706513
1764767215.555137,-2.57894,1.63282,0.763,0.98034417,-0.023132265,0.11706513
1764767215.555137,-2.57894,1.63282,0.763,0.98034417,-0.023132265,0.11706513
1764767215.555137,-2.57894,1.63282,0.763,0.98034417,-0.023132265,0.11706513
1764767215.555137,-2.57894,1.63282,0.763,0.98034417,-0.023132265,0.11706513
1764767215.555137,-2.57894,1.63282,0.763,0.98034417,-0.023132265,0.11706513
1764767215.555137,-2.57894,1.63282,0.763,0.98034417,-0.023132265,0.11706513
1764767215.5986557,-2.57894,1.63282,0.763,0.98034417,-0.023132265,0.11706513
1764767215.5986557,-2.57894,1.63282,0.763,0.98034417,-0.023132265,0.11706513
1764767215.5986557,-2.62472,1.78542,0.88508,0.98071038,-0.02294916,0.116759955
1764767215.5991654,-2.62472,1.78542,0.88508,0.98071038,-0.02294916,0.116759955
1764767215.5991654,-2.62472,1.78542,0.88508,0.98071038,-0.02294916,0.116759955
1764767215.5991654,-2.62472,1.78542,0.88508,0.98071038,-0.02294916,0.116759955
1764767215.5991654,-2.62472,1.78542,0.88508,0.98071038,-0.02294916,0.116759955
1764767215.5991654,-2.62472,1.78542,0.88508,0.98071038,-0.02294916,0.116759955
1764767215.5991654,-2.62472,1.78542,0.88508,0.98071038,-0.02294916,0.116759955
1764767215.5991654,-2.62472,1.78542,0.88508,0.98071038,-0.02294916,0.116759955
1764767215.5991654,-2.62472,1.78542,0.88508,0.98071038,-0.02294916,0.116759955
1764767215.5991654,-2.62472,1.78542,0.88508,0.98071038,-0.02294916,0.116759955
1764767215.5991654,-2.71628,1.6022999999999998,0.9156,0.97997796,-0.02270502,0.117980655
1764767215.5991654,-2.71628,1.6022999999999998,0.9156,0.97997796,-0.02270502,0.117980655
1764767215.5991654,-2.71628,1.6022999999999998,0.9156,0.97997796,-0.02270502,0.117980655
1764767215.5991654,-2.71628,1.6022999999999998,0.9156,0.97997796,-0.02270502,0.117980655
1764767215.5991654,-2.71628,1.6022999999999998,0.9156,0.97997796,-0.02270502,0.117980655
1764767215.5996995,-2.71628,1.6022999999999998,0.9156,0.97997796,-0.02270502,0.117980655
1764767215.5996995,-2.71628,1.6022999999999998,0.9156,0.97997796,-0.02270502,0.117980655
1764767215.5996995,-2.71628,1.6022999999999998,0.9156,0.97997796,-0.02270502,0.117980655
1764767215.5996995,-2.71628,1.6022999999999998,0.9156,0.97997796,-0.02270502,0.117980655
1764767215.5996995,-2.71628,1.6022999999999998,0.9156,0.97997796,-0.02270502,0.117980655
1764767215.5996995,-3.2809,1.58704,1.2971,0.981015555,-0.022033635,0.117614445
1764767215.5996995,-3.2809,1.58704,1.2971,0.981015555,-0.022033635,0.117614445
1764767215.6460853,-3.2809,1.58704,1.2971,0.981015555,-0.022033635,0.117614445
1764767215.6460853,-3.2809,1.58704,1.2971,0.981015555,-0.022033635,0.117614445
1764767215.6460853,-3.2809,1.58704,1.2971,0.981015555,-0.022033635,0.117614445
1764767215.6460853,-3.2809,1.58704,1.2971,0.981015555,-0.022033635,0.117614445
1764767215.6460853,-3.2809,1.58704,1.2971,0.981015555,-0.022033635,0.117614445
1764767215.6460853,-3.2809,1.58704,1.2971,0.981015555,-0.022033635,0.117614445
1764767215.6460853,-3.2809,1.58704,1.2971,0.981015555,-0.022033635,0.117614445
1764767215.6460853,-3.2809,1.58704,1.2971,0.981015555,-0.022033635,0.117614445
1764767215.6460853,-3.18934,1.8006799999999998,1.12924,0.981503835,-0.02258295,0.118713075
1764767215.6460853,-3.18934,1.8006799999999998,1.12924,0.981503835,-0.02258295,0.118713075
1764767215.6460853,-3.18934,1.8006799999999998,1.12924,0.981503835,-0.02258295,0.118713075
1764767215.6460853,-3.18934,1.8006799999999998,1.12924,0.981503835,-0.02258295,0.118713075
1764767215.6460853,-3.18934,1.8006799999999998,1.12924,0.981503835,-0.02258295,0.118713075
1764767215.6460853,-3.18934,1.8006799999999998,1.12924,0.981503835,-0.02258295,0.118713075
1764767215.6460853,-3.18934,1.8006799999999998,1.12924,0.981503835,-0.02258295,0.118713075
1764767215.6460853,-3.18934,1.8006799999999998,1.12924,0.981503835,-0.02258295,0.118713075
1764767215.6460853,-3.18934,1.8006799999999998,1.12924,0.981503835,-0.02258295,0.118713075
1764767215.6460853,-3.18934,1.8006799999999998,1.12924,0.981503835,-0.02258295,0.118713075
1764767215.6460853,-3.2809,2.01432,1.58704,0.981137625,-0.0231933,0.118835145
1764767215.6460853,-3.2809,2.01432,1.58704,0.981137625,-0.0231933,0.118835145
1764767215.6460853,-3.2809,2.01432,1.58704,0.981137625,-0.0231933,0.118835145
1764767215.6460853,-3.2809,2.01432,1.58704,0.981137625,-0.0231933,0.118835145
1764767215.6929777,-3.2809,2.01432,1.58704,0.981137625,-0.0231933,0.118835145
1764767215.6929777,-3.2809,2.01432,1.58704,0.981137625,-0.0231933,0.118835145
1764767215.6929777,-3.2809,2.01432,1.58704,0.981137625,-0.0231933,0.118835145
1764767215.6929777,-3.2809,2.01432,1.58704,0.981137625,-0.0231933,0.118835145
1764767215.6929777,-3.2809,2.01432,1.58704,0.981137625,-0.0231933,0.118835145
1764767215.6929777,-3.2809,2.01432,1.58704,0.981137625,-0.0231933,0.118835145
1764767215.6929777,-3.25038,2.45686,1.57178,0.980038995,-0.023742615,0.11901825
1764767215.6929777,-3.25038,2.45686,1.57178,0.980038995,-0.023742615,0.11901825
1764767215.6929777,-3.25038,2.45686,1.57178,0.980038995,-0.023742615,0.11901825
1764767215.6929777,-3.25038,2.45686,1.57178,0.980038995,-0.023742615,0.11901825
1764767215.6929777,-3.25038,2.45686,1.57178,0.980038995,-0.023742615,0.11901825
1764767215.6929777,-3.25038,2.45686,1.57178,0.980038995,-0.023742615,0.11901825
1764767215.6929777,-3.25038,2.45686,1.57178,0.980038995,-0.023742615,0.11901825
1764767215.6929777,-3.25038,2.45686,1.57178,0.980038995,-0.023742615,0.11901825
1764767215.6929777,-3.25038,2.45686,1.57178,0.980038995,-0.023742615,0.11901825
1764767215.6929777,-3.25038,2.45686,1.57178,0.980038995,-0.023742615,0.11901825
1764767215.6929777,-2.9757,2.31952,1.72438,0.979672785,-0.024597105,0.11987274
1764767215.6929777,-2.9757,2.31952,1.72438,0.979672785,-0.024597105,0.11987274
1764767215.6929777,-2.9757,2.31952,1.72438,0.979672785,-0.024597105,0.11987274
1764767215.6929777,-2.9757,2.31952,1.72438,0.979672785,-0.024597105,0.11987274
1764767215.6929777,-2.9757,2.31952,1.72438,0.979672785,-0.024597105,0.11987274
1764767215.6929777,-2.9757,2.31952,1.72438,0.979672785,-0.024597105,0.11987274
1764767215.6929777,-2.9757,2.31952,1.72438,0.979672785,-0.024597105,0.11987274
1764767215.6929777,-2.9757,2.31952,1.72438,0.979672785,-0.024597105,0.11987274
1764767215.7392025,-2.9757,2.31952,1.72438,0.979672785,-0.024597105,0.11987274
1764767215.7392025,-2.9757,2.31952,1.72438,0.979672785,-0.024597105,0.11987274
1764767215.7392025,-2.47212,1.84646,2.12114,0.979306575,-0.02465814,0.120299985
1764767215.7392025,-2.47212,1.84646,2.12114,0.979306575,-0.02465814,0.120299985
1764767215.7392025,-2.47212,1.84646,2.12114,0.979306575,-0.02465814,0.120299985
1764767215.7392025,-2.47212,1.84646,2.12114,0.979306575,-0.02465814,0.120299985
1764767215.7392025,-2.47212,1.84646,2.12114,0.979306575,-0.02465814,0.120299985
1764767215.7392025,-2.47212,1.84646,2.12114,0.979306575,-0.02465814,0.120299985
1764767215.7859037,-2.47212,1.84646,2.12114,0.979306575,-0.02465814,0.120299985
1764767215.7859037,-2.47212,1.84646,2.12114,0.979306575,-0.02465814,0.120299985
1764767215.7859037,-2.47212,1.84646,2.12114,0.979306575,-0.02465814,0.120299985
1764767215.7859037,-2.47212,1.84646,2.12114,0.979306575,-0.02465814,0.120299985
1764767215.7859037,-2.99096,1.55652,1.84646,0.97936761,-0.02490228,0.12145965
1764767215.7859037,-2.99096,1.55652,1.84646,0.97936761,-0.02490228,0.12145965
1764767215.7859037,-2.99096,1.55652,1.84646,0.97936761,-0.02490228,0.12145965
1764767215.7859037,-2.99096,1.55652,1.84646,0.97936761,-0.02490228,0.12145965
1764767215.7859037,-2.99096,1.55652,1.84646,0.97936761,-0.02490228,0.12145965
1764767215.7859037,-2.99096,1.55652,1.84646,0.97936761,-0.02490228,0.12145965
1764767215.7859037,-2.99096,1.55652,1.84646,0.97936761,-0.02490228,0.12145965
1764767215.7859037,-2.99096,1.55652,1.84646,0.97936761,-0.02490228,0.12145965
1764767215.7859037,-2.99096,1.55652,1.84646,0.97936761,-0.02490228,0.12145965
1764767215.7859037,-2.99096,1.55652,1.84646,0.97936761,-0.02490228,0.12145965
1764767215.7859037,-2.25848,1.8006799999999998,1.96854,0.97961175,-0.02502435,0.121886895
1764767215.7859037,-2.25848,1.8006799999999998,1.96854,0.97961175,-0.02502435,0.121886895
1764767215.7859037,-2.25848,1.8006799999999998,1.96854,0.97961175,-0.02502435,0.121886895
1764767215.7859037,-2.25848,1.8006799999999998,1.96854,0.97961175,-0.02502435,0.121886895
1764767215.7859037,-2.25848,1.8006799999999998,1.96854,0.97961175,-0.02502435,0.121886895
1764767215.7859037,-2.25848,1.8006799999999998,1.96854,0.97961175,-0.02502435,0.121886895
1764767215.7859037,-2.25848,1.8006799999999998,1.96854,0.97961175,-0.02502435,0.121886895
1764767215.7859037,-2.25848,1.8006799999999998,1.96854,0.97961175,-0.02502435,0.121886895
1764767215.7859037,-2.25848,1.8006799999999998,1.96854,0.97961175,-0.02502435,0.121886895
1764767215.7859037,-2.25848,1.8006799999999998,1.96854,0.97961175,-0.02502435,0.121886895
1764767215.7859037,-2.12114,1.95328,1.96854,0.97875726,-0.025329525,0.12280242
1764767215.7859037,-2.12114,1.95328,1.96854,0.97875726,-0.025329525,0.12280242
1764767215.7859037,-2.12114,1.95328,1.96854,0.97875726,-0.025329525,0.12280242
1764767215.7859037,-2.12114,1.95328,1.96854,0.97875726,-0.025329525,0.12280242
1764767215.7859037,-2.12114,1.95328,1.96854,0.97875726,-0.025329525,0.12280242
1764767215.7859037,-2.12114,1.95328,1.96854,0.97875726,-0.025329525,0.12280242
1764767215.7859037,-2.12114,1.95328,1.96854,0.97875726,-0.025329525,0.12280242
1764767215.7859037,-2.12114,1.95328,1.96854,0.97875726,-0.025329525,0.12280242
1764767215.7859037,-2.12114,1.95328,1.96854,0.97875726,-0.025329525,0.12280242
1764767215.7859037,-2.12114,1.95328,1.96854,0.97875726,-0.025329525,0.12280242
1764767215.7859037,-2.54842,1.35814,1.73964,0.978940365,-0.02526849,0.122985525
1764767215.7859037,-2.54842,1.35814,1.73964,0.978940365,-0.02526849,0.122985525
1764767215.7859037,-2.54842,1.35814,1.73964,0.978940365,-0.02526849,0.122985525
1764767215.7859037,-2.54842,1.35814,1.73964,0.978940365,-0.02526849,0.122985525
1764767215.7859037,-2.54842,1.35814,1.73964,0.978940365,-0.02526849,0.122985525
1764767215.7859037,-2.54842,1.35814,1.73964,0.978940365,-0.02526849,0.122985525
1764767215.8325918,-2.54842,1.35814,1.73964,0.978940365,-0.02526849,0.122985525
1764767215.8325918,-2.54842,1.35814,1.73964,0.978940365,-0.02526849,0.122985525
1764767215.8325918,-2.54842,1.35814,1.73964,0.978940365,-0.02526849,0.122985525
1764767215.8325918,-2.54842,1.35814,1.73964,0.978940365,-0.02526849,0.122985525
1764767215.8325918,-2.76206,1.49548,1.15976,0.97912347,-0.02526849,0.12243621
1764767215.8325918,-2.76206,1.49548,1.15976,0.97912347,-0.02526849,0.12243621
1764767215.8325918,-2.76206,1.49548,1.15976,0.97912347,-0.02526849,0.12243621
1764767215.8325918,-2.76206,1.49548,1.15976,0.97912347,-0.02526849,0.12243621
1764767215.8325918,-2.76206,1.49548,1.15976,0.97912347,-0.02526849,0.12243621
1764767215.8325918,-2.76206,1.49548,1.15976,0.97912347,-0.02526849,0.12243621
1764767215.8325918,-2.76206,1.49548,1.15976,0.97912347,-0.02526849,0.12243621
1764767215.8325918,-2.76206,1.49548,1.15976,0.97912347,-0.02526849,0.12243621
1764767215.8325918,-2.76206,1.49548,1.15976,0.97912347,-0.02526849,0.12243621
1764767215.8325918,-2.76206,1.49548,1.15976,0.97912347,-0.02526849,0.12243621
1764767215.8325918,-3.2046,1.23606,1.12924,0.979550715,-0.02465814,0.123107595
1764767215.8325918,-3.2046,1.23606,1.12924,0.979550715,-0.02465814,0.123107595
1764767215.833987,-3.2046,1.23606,1.12924,0.979550715,-0.02465814,0.123107595
1764767215.833987,-3.2046,1.23606,1.12924,0.979550715,-0.02465814,0.123107595
1764767215.833987,-3.2046,1.23606,1.12924,0.979550715,-0.02465814,0.123107595
1764767215.833987,-3.2046,1.23606,1.12924,0.979550715,-0.02465814,0.123107595
1764767215.833987,-3.2046,1.23606,1.12924,0.979550715,-0.02465814,0.123107595
1764767215.833987,-3.2046,1.23606,1.12924,0.979550715,-0.02465814,0.123107595
1764767215.881305,-3.2046,1.23606,1.12924,0.979550715,-0.02465814,0.123107595
1764767215.881305,-3.2046,1.23606,1.12924,0.979550715,-0.02465814,0.123107595
1764767215.881305,-3.40298,1.08346,0.8087799999999999,0.97961175,-0.024414,0.122741385
1764767215.881305,-3.40298,1.08346,0.8087799999999999,0.97961175,-0.024414,0.122741385
1764767215.881305,-3.40298,1.08346,0.8087799999999999,0.97961175,-0.024414,0.122741385
1764767215.881305,-3.40298,1.08346,0.8087799999999999,0.97961175,-0.024414,0.122741385
1764767215.881305,-3.40298,1.08346,0.8087799999999999,0.97961175,-0.024414,0.122741385
1764767215.881305,-3.40298,1.08346,0.8087799999999999,0.97961175,-0.024414,0.122741385
1764767215.881305,-3.40298,1.08346,0.8087799999999999,0.97961175,-0.024414,0.122741385
1764767215.881305,-3.40298,1.08346,0.8087799999999999,0.97961175,-0.024414,0.122741385
1764767215.881305,-3.40298,1.08346,0.8087799999999999,0.97961175,-0.024414,0.122741385
1764767215.881305,-3.40298,1.08346,0.8087799999999999,0.97961175,-0.024414,0.122741385
1764767215.881305,-3.84552,1.1445,1.02242,0.979672785,-0.024719175,0.12194793
1764767215.881305,-3.84552,1.1445,1.02242,0.979672785,-0.024719175,0.12194793
1764767215.881305,-3.84552,1.1445,1.02242,0.979672785,-0.024719175,0.12194793
1764767215.881305,-3.84552,1.1445,1.02242,0.979672785,-0.024719175,0.12194793
1764767215.881305,-3.84552,1.1445,1.02242,0.979672785,-0.024719175,0.12194793
1764767215.881305,-3.84552,1.1445,1.02242,0.979672785,-0.024719175,0.12194793
1764767215.881305,-3.84552,1.1445,1.02242,0.979672785,-0.024719175,0.12194793
1764767215.881305,-3.84552,1.1445,1.02242,0.979672785,-0.024719175,0.12194793
1764767215.881305,-3.84552,1.1445,1.02242,0.979672785,-0.024719175,0.12194793
1764767215.8823133,-3.84552,1.1445,1.02242,0.979672785,-0.024719175,0.12194793
1764767215.8823133,-4.0439,1.03768,1.09872,0.979672785,-0.02416986,0.122863455
1764767215.8823133,-4.0439,1.03768,1.09872,0.979672785,-0.02416986,0.122863455
1764767215.925739,-4.0439,1.03768,1.09872,0.979672785,-0.02416986,0.122863455
1764767215.925739,-4.0439,1.03768,1.09872,0.979672785,-0.02416986,0.122863455
1764767215.925739,-4.0439,1.03768,1.09872,0.979672785,-0.02416986,0.122863455
1764767215.925739,-4.0439,1.03768,1.09872,0.979672785,-0.02416986,0.122863455
1764767215.925739,-4.0439,1.03768,1.09872,0.979672785,-0.02416986,0.122863455
1764767215.925739,-4.0439,1.03768,1.09872,0.979672785,-0.02416986,0.122863455
1764767215.925739,-4.0439,1.03768,1.09872,0.979672785,-0.02416986,0.122863455
1764767215.925739,-4.0439,1.03768,1.09872,0.979672785,-0.02416986,0.122863455
1764767215.9267695,-4.2728,1.11398,1.28184,0.979794855,-0.024719175,0.122985525
1764767215.9267695,-4.2728,1.11398,1.28184,0.979794855,-0.024719175,0.122985525
1764767215.9267695,-4.2728,1.11398,1.28184,0.979794855,-0.024719175,0.122985525
1764767215.9267695,-4.2728,1.11398,1.28184,0.979794855,-0.024719175,0.122985525
1764767215.9267695,-4.2728,1.11398,1.28184,0.979794855,-0.024719175,0.122985525
1764767215.927787,-4.2728,1.11398,1.28184,0.979794855,-0.024719175,0.122985525
1764767215.927787,-4.2728,1.11398,1.28184,0.979794855,-0.024719175,0.122985525
1764767215.927787,-4.2728,1.11398,1.28184,0.979794855,-0.024719175,0.122985525
1764767215.927787,-4.2728,1.11398,1.28184,0.979794855,-0.024719175,0.122985525
1764767215.927787,-4.2728,1.11398,1.28184,0.979794855,-0.024719175,0.122985525
1764767215.927787,-4.24228,0.27468,0.8392999999999999,0.979306575,-0.02539056,0.12268035
1764767215.927787,-4.24228,0.27468,0.8392999999999999,0.979306575,-0.02539056,0.12268035
1764767215.927787,-4.24228,0.27468,0.8392999999999999,0.979306575,-0.02539056,0.12268035
1764767215.927787,-4.24228,0.27468,0.8392999999999999,0.979306575,-0.02539056,0.12268035
1764767215.927787,-4.24228,0.27468,0.8392999999999999,0.979306575,-0.02539056,0.12268035
1764767215.927787,-4.24228,0.27468,0.8392999999999999,0.979306575,-0.02539056,0.12268035
1764767215.9709227,-4.24228,0.27468,0.8392999999999999,0.979306575,-0.02539056,0.12268035
1764767215.9709227,-4.24228,0.27468,0.8392999999999999,0.979306575,-0.02539056,0.12268035
1764767215.9709227,-4.24228,0.27468,0.8392999999999999,0.979306575,-0.02539056,0.12268035
1764767215.9709227,-4.24228,0.27468,0.8392999999999999,0.979306575,-0.02539056,0.12268035
1764767215.9709227,-4.01338,0.2289,0.8698199999999999,0.979794855,-0.026306085,0.12280242
1764767215.9709227,-4.01338,0.2289,0.8698199999999999,0.979794855,-0.026306085,0.12280242
1764767215.9709227,-4.01338,0.2289,0.8698199999999999,0.979794855,-0.026306085,0.12280242
1764767215.9709227,-4.01338,0.2289,0.8698199999999999,0.979794855,-0.026306085,0.12280242
1764767215.9709227,-4.01338,0.2289,0.8698199999999999,0.979794855,-0.026306085,0.12280242
1764767215.9709227,-4.01338,0.2289,0.8698199999999999,0.979794855,-0.026306085,0.12280242
1764767215.9709227,-4.01338,0.2289,0.8698199999999999,0.979794855,-0.026306085,0.12280242
1764767215.9709227,-4.01338,0.2289,0.8698199999999999,0.979794855,-0.026306085,0.12280242
1764767215.9709227,-4.01338,0.2289,0.8698199999999999,0.979794855,-0.026306085,0.12280242
1764767215.9709227,-4.01338,0.2289,0.8698199999999999,0.979794855,-0.026306085,0.12280242
1764767215.9709227,-3.3572,-0.03052,1.34288,0.978330015,-0.027282645,0.12182586
1764767215.9709227,-3.3572,-0.03052,1.34288,0.978330015,-0.027282645,0.12182586
1764767215.9709227,-3.3572,-0.03052,1.34288,0.978330015,-0.027282645,0.12182586
1764767215.9709227,-3.3572,-0.03052,1.34288,0.978330015,-0.027282645,0.12182586
1764767216.0176983,-3.3572,-0.03052,1.34288,0.978330015,-0.027282645,0.12182586
1764767216.0176983,-3.3572,-0.03052,1.34288,0.978330015,-0.027282645,0.12182586
1764767216.0176983,-3.3572,-0.03052,1.34288,0.978330015,-0.027282645,0.12182586
1764767216.0176983,-3.3572,-0.03052,1.34288,0.978330015,-0.027282645,0.12182586
1764767216.0176983,-3.3572,-0.03052,1.34288,0.978330015,-0.027282645,0.12182586
1764767216.0176983,-3.3572,-0.03052,1.34288,0.978330015,-0.027282645,0.12182586
1764767216.0176983,-3.26564,0.13734,1.4039199999999998,0.977841735,-0.028015065,0.121276545
1764767216.0176983,-3.26564,0.13734,1.4039199999999998,0.977841735,-0.028015065,0.121276545
1764767216.0176983,-3.26564,0.13734,1.4039199999999998,0.977841735,-0.028015065,0.121276545
1764767216.0176983,-3.26564,0.13734,1.4039199999999998,0.977841735,-0.028015065,0.121276545
1764767216.0176983,-3.26564,0.13734,1.4039199999999998,0.977841735,-0.028015065,0.121276545
1764767216.0176983,-3.26564,0.13734,1.4039199999999998,0.977841735,-0.028015065,0.121276545
1764767216.0176983,-3.26564,0.13734,1.4039199999999998,0.977841735,-0.028015065,0.121276545
1764767216.0176983,-3.26564,0.13734,1.4039199999999998,0.977841735,-0.028015065,0.121276545
1764767216.0176983,-3.26564,0.13734,1.4039199999999998,0.977841735,-0.028015065,0.121276545
1764767216.0176983,-3.26564,0.13734,1.4039199999999998,0.977841735,-0.028015065,0.121276545
1764767216.0176983,-2.99096,-0.12208,0.97664,0.980038995,-0.028137135,0.12036102
1764767216.0176983,-2.99096,-0.12208,0.97664,0.980038995,-0.028137135,0.12036102
1764767216.0176983,-2.99096,-0.12208,0.97664,0.980038995,-0.028137135,0.12036102
1764767216.0176983,-2.99096,-0.12208,0.97664,0.980038995,-0.028137135,0.12036102
1764767216.0188718,-2.99096,-0.12208,0.97664,0.980038995,-0.028137135,0.12036102
1764767216.0188718,-2.99096,-0.12208,0.97664,0.980038995,-0.028137135,0.12036102
1764767216.0188718,-2.99096,-0.12208,0.97664,0.980038995,-0.028137135,0.12036102
1764767216.0188718,-2.99096,-0.12208,0.97664,0.980038995,-0.028137135,0.12036102
1764767216.0188718,-2.99096,-0.12208,0.97664,0.980038995,-0.028137135,0.12036102
1764767216.0188718,-2.99096,-0.12208,0.97664,0.980038995,-0.028137135,0.12036102
1764767216.0188718,-3.21986,0.48832,0.19838,0.982358325,-0.02709954,0.11950653
1764767216.0188718,-3.21986,0.48832,0.19838,0.982358325,-0.02709954,0.11950653
1764767216.064757,-3.21986,0.48832,0.19838,0.982358325,-0.02709954,0.11950653
1764767216.064757,-3.21986,0.48832,0.19838,0.982358325,-0.02709954,0.11950653
1764767216.064757,-3.21986,0.48832,0.19838,0.982358325,-0.02709954,0.11950653
1764767216.064757,-3.21986,0.48832,0.19838,0.982358325,-0.02709954,0.11950653
1764767216.064757,-3.21986,0.48832,0.19838,0.982358325,-0.02709954,0.11950653
1764767216.064757,-3.21986,0.48832,0.19838,0.982358325,-0.02709954,0.11950653
1764767216.064757,-3.21986,0.48832,0.19838,0.982358325,-0.02709954,0.11950653
1764767216.064757,-3.21986,0.48832,0.19838,0.982358325,-0.02709954,0.11950653
1764767216.064757,-3.64714,1.05294,0.36624,0.980893485,-0.02648919,0.119323425
1764767216.064757,-3.64714,1.05294,0.36624,0.980893485,-0.02648919,0.119323425
1764767216.064757,-3.64714,1.05294,0.36624,0.980893485,-0.02648919,0.119323425
1764767216.064757,-3.64714,1.05294,0.36624,0.980893485,-0.02648919,0.119323425
1764767216.064757,-3.64714,1.05294,0.36624,0.980893485,-0.02648919,0.119323425
1764767216.064757,-3.64714,1.05294,0.36624,0.980893485,-0.02648919,0.119323425
1764767216.064757,-3.64714,1.05294,0.36624,0.980893485,-0.02648919,0.119323425
1764767216.064757,-3.64714,1.05294,0.36624,0.980893485,-0.02648919,0.119323425
1764767216.0660155,-3.64714,1.05294,0.36624,0.980893485,-0.02648919,0.119323425
1764767216.0660155,-3.64714,1.05294,0.36624,0.980893485,-0.02648919,0.119323425
1764767216.0660155,-3.95234,1.12924,-0.56462,0.979550715,-0.02551263,0.119567565
1764767216.0660155,-3.95234,1.12924,-0.56462,0.979550715,-0.02551263,0.119567565
1764767216.0660155,-3.95234,1.12924,-0.56462,0.979550715,-0.02551263,0.119567565
1764767216.0660155,-3.95234,1.12924,-0.56462,0.979550715,-0.02551263,0.119567565
1764767216.1137805,-3.95234,1.12924,-0.56462,0.979550715,-0.02551263,0.119567565
1764767216.1137805,-3.95234,1.12924,-0.56462,0.979550715,-0.02551263,0.119567565
1764767216.1137805,-3.95234,1.12924,-0.56462,0.979550715,-0.02551263,0.119567565
1764767216.1137805,-3.95234,1.12924,-0.56462,0.979550715,-0.02551263,0.119567565
1764767216.1137805,-3.95234,1.12924,-0.56462,0.979550715,-0.02551263,0.119567565
1764767216.1137805,-3.95234,1.12924,-0.56462,0.979550715,-0.02551263,0.119567565
1764767216.1137805,-4.76112,1.70912,-0.62566,0.979550715,-0.024230895,0.119567565
1764767216.1137805,-4.76112,1.70912,-0.62566,0.979550715,-0.024230895,0.119567565
1764767216.1137805,-4.76112,1.70912,-0.62566,0.979550715,-0.024230895,0.119567565
1764767216.1137805,-4.76112,1.70912,-0.62566,0.979550715,-0.024230895,0.119567565
1764767216.1137805,-4.76112,1.70912,-0.62566,0.979550715,-0.024230895,0.119567565
1764767216.1137805,-4.76112,1.70912,-0.62566,0.979550715,-0.024230895,0.119567565
1764767216.1137805,-4.76112,1.70912,-0.62566,0.979550715,-0.024230895,0.119567565
1764767216.1137805,-4.76112,1.70912,-0.62566,0.979550715,-0.024230895,0.119567565
1764767216.1137805,-4.76112,1.70912,-0.62566,0.979550715,-0.024230895,0.119567565
1764767216.1137805,-4.76112,1.70912,-0.62566,0.979550715,-0.024230895,0.119567565
1764767216.1137805,-4.74586,1.25132,-0.19838,0.97912347,-0.023376405,0.11999481
1764767216.114801,-4.74586,1.25132,-0.19838,0.97912347,-0.023376405,0.11999481
1764767216.114801,-4.74586,1.25132,-0.19838,0.97912347,-0.023376405,0.11999481
1764767216.114801,-4.74586,1.25132,-0.19838,0.97912347,-0.023376405,0.11999481
1764767216.158205,-4.74586,1.25132,-0.19838,0.97912347,-0.023376405,0.11999481
1764767216.158205,-4.74586,1.25132,-0.19838,0.97912347,-0.023376405,0.11999481
1764767216.158205,-4.74586,1.25132,-0.19838,0.97912347,-0.023376405,0.11999481
1764767216.158205,-4.74586,1.25132,-0.19838,0.97912347,-0.023376405,0.11999481
1764767216.158205,-4.74586,1.25132,-0.19838,0.97912347,-0.023376405,0.11999481
1764767216.158205,-4.74586,1.25132,-0.19838,0.97912347,-0.023376405,0.11999481
1764767216.158205,-4.852679999999999,1.54126,0.39676,0.97936761,-0.02270502,0.120788265
1764767216.1587276,-4.852679999999999,1.54126,0.39676,0.97936761,-0.02270502,0.120788265
1764767216.1587276,-4.852679999999999,1.54126,0.39676,0.97936761,-0.02270502,0.120788265
1764767216.1587276,-4.852679999999999,1.54126,0.39676,0.97936761,-0.02270502,0.120788265
1764767216.1587276,-4.852679999999999,1.54126,0.39676,0.97936761,-0.02270502,0.120788265
1764767216.1587276,-4.852679999999999,1.54126,0.39676,0.97936761,-0.02270502,0.120788265
1764767216.1587276,-4.852679999999999,1.54126,0.39676,0.97936761,-0.02270502,0.120788265
1764767216.1587276,-4.852679999999999,1.54126,0.39676,0.97936761,-0.02270502,0.120788265
1764767216.1587276,-4.852679999999999,1.54126,0.39676,0.97936761,-0.02270502,0.120788265
1764767216.1587276,-4.852679999999999,1.54126,0.39676,0.97936761,-0.02270502,0.120788265
1764767216.1587276,-4.440659999999999,0.9156,0.41202,0.979672785,-0.023010195,0.12145965
1764767216.1587276,-4.440659999999999,0.9156,0.41202,0.979672785,-0.023010195,0.12145965
1764767216.1587276,-4.440659999999999,0.9156,0.41202,0.979672785,-0.023010195,0.12145965
1764767216.1587276,-4.440659999999999,0.9156,0.41202,0.979672785,-0.023010195,0.12145965
1764767216.1587276,-4.440659999999999,0.9156,0.41202,0.979672785,-0.023010195,0.12145965
1764767216.1587276,-4.440659999999999,0.9156,0.41202,0.979672785,-0.023010195,0.12145965
1764767216.1587276,-4.440659999999999,0.9156,0.41202,0.979672785,-0.023010195,0.12145965
1764767216.1587276,-4.440659999999999,0.9156,0.41202,0.979672785,-0.023010195,0.12145965
1764767216.1587276,-4.440659999999999,0.9156,0.41202,0.979672785,-0.023010195,0.12145965
1764767216.1587276,-4.440659999999999,0.9156,0.41202,0.979672785,-0.023010195,0.12145965
1764767216.1587276,-3.76922,0.9156,0.96138,0.9802221,-0.02307123,0.12133758
1764767216.1587276,-3.76922,0.9156,0.96138,0.9802221,-0.02307123,0.12133758
1764767216.2047803,-3.76922,0.9156,0.96138,0.9802221,-0.02307123,0.12133758
1764767216.2052965,-3.76922,0.9156,0.96138,0.9802221,-0.02307123,0.12133758
1764767216.2052965,-3.76922,0.9156,0.96138,0.9802221,-0.02307123,0.12133758
1764767216.2052965,-3.76922,0.9156,0.96138,0.9802221,-0.02307123,0.12133758
1764767216.2052965,-3.76922,0.9156,0.96138,0.9802221,-0.02307123,0.12133758
1764767216.2052965,-3.76922,0.9156,0.96138,0.9802221,-0.02307123,0.12133758
1764767216.2052965,-3.76922,0.9156,0.96138,0.9802221,-0.02307123,0.12133758
1764767216.2052965,-3.76922,0.9156,0.96138,0.9802221,-0.02307123,0.12133758
1764767216.2052965,-3.7387,0.51884,1.2208,0.97997796,-0.024597105,0.121764825
1764767216.2052965,-3.7387,0.51884,1.2208,0.97997796,-0.024597105,0.121764825
1764767216.2052965,-3.7387,0.51884,1.2208,0.97997796,-0.024597105,0.121764825
1764767216.2052965,-3.7387,0.51884,1.2208,0.97997796,-0.024597105,0.121764825
1764767216.2052965,-3.7387,0.51884,1.2208,0.97997796,-0.024597105,0.121764825
1764767216.2052965,-3.7387,0.51884,1.2208,0.97997796,-0.024597105,0.121764825
1764767216.2052965,-3.7387,0.51884,1.2208,0.97997796,-0.024597105,0.121764825
1764767216.2052965,-3.7387,0.51884,1.2208,0.97997796,-0.024597105,0.121764825
1764767216.2052965,-3.7387,0.51884,1.2208,0.97997796,-0.024597105,0.121764825
1764767216.2052965,-3.7387,0.51884,1.2208,0.97997796,-0.024597105,0.121764825
1764767216.2052965,-2.91466,0.94612,1.3734,0.97961175,-0.025085385,0.12158172
1764767216.2052965,-2.91466,0.94612,1.3734,0.97961175,-0.025085385,0.12158172
1764767216.2052965,-2.91466,0.94612,1.3734,0.97961175,-0.025085385,0.12158172
1764767216.2052965,-2.91466,0.94612,1.3734,0.97961175,-0.025085385,0.12158172
1764767216.2511754,-2.91466,0.94612,1.3734,0.97961175,-0.025085385,0.12158172
1764767216.2511754,-2.91466,0.94612,1.3734,0.97961175,-0.025085385,0.12158172
1764767216.2511754,-2.91466,0.94612,1.3734,0.97961175,-0.025085385,0.12158172
1764767216.2511754,-2.91466,0.94612,1.3734,0.97961175,-0.025085385,0.12158172
1764767216.2511754,-2.91466,0.94612,1.3734,0.97961175,-0.025085385,0.12158172
1764767216.2511754,-2.91466,0.94612,1.3734,0.97961175,-0.025085385,0.12158172
1764767216.2511754,-2.92992,0.79352,1.2208,0.97948968,-0.02465814,0.120788265
1764767216.2511754,-2.92992,0.79352,1.2208,0.97948968,-0.02465814,0.120788265
1764767216.2511754,-2.92992,0.79352,1.2208,0.97948968,-0.02465814,0.120788265
1764767216.2511754,-2.92992,0.79352,1.2208,0.97948968,-0.02465814,0.120788265
1764767216.2511754,-2.92992,0.79352,1.2208,0.97948968,-0.02465814,0.120788265
1764767216.2511754,-2.92992,0.79352,1.2208,0.97948968,-0.02465814,0.120788265
1764767216.2511754,-2.92992,0.79352,1.2208,0.97948968,-0.02465814,0.120788265
1764767216.2511754,-2.92992,0.79352,1.2208,0.97948968,-0.02465814,0.120788265
1764767216.2511754,-2.92992,0.79352,1.2208,0.97948968,-0.02465814,0.120788265
1764767216.2511754,-2.92992,0.79352,1.2208,0.97948968,-0.02465814,0.120788265
1764767216.2511754,-3.03674,0.6409199999999999,1.2055399999999998,0.9790014,-0.024597105,0.12097137
1764767216.2521985,-3.03674,0.6409199999999999,1.2055399999999998,0.9790014,-0.024597105,0.12097137
1764767216.2521985,-3.03674,0.6409199999999999,1.2055399999999998,0.9790014,-0.024597105,0.12097137
1764767216.2521985,-3.03674,0.6409199999999999,1.2055399999999998,0.9790014,-0.024597105,0.12097137
1764767216.2521985,-3.03674,0.6409199999999999,1.2055399999999998,0.9790014,-0.024597105,0.12097137
1764767216.2521985,-3.03674,0.6409199999999999,1.2055399999999998,0.9790014,-0.024597105,0.12097137
1764767216.2521985,-3.03674,0.6409199999999999,1.2055399999999998,0.9790014,-0.024597105,0.12097137
1764767216.2521985,-3.03674,0.6409199999999999,1.2055399999999998,0.9790014,-0.024597105,0.12097137
1764767216.2985942,-3.03674,0.6409199999999999,1.2055399999999998,0.9790014,-0.024597105,0.12097137
1764767216.2985942,-3.03674,0.6409199999999999,1.2055399999999998,0.9790014,-0.024597105,0.12097137
1764767216.2985942,-2.83836,0.6867,1.0682,0.978818295,-0.02343744,0.12048309
1764767216.2985942,-2.83836,0.6867,1.0682,0.978818295,-0.02343744,0.12048309
1764767216.2985942,-2.83836,0.6867,1.0682,0.978818295,-0.02343744,0.12048309
1764767216.2985942,-2.83836,0.6867,1.0682,0.978818295,-0.02343744,0.12048309
1764767216.2985942,-2.83836,0.6867,1.0682,0.978818295,-0.02343744,0.12048309
1764767216.2985942,-2.83836,0.6867,1.0682,0.978818295,-0.02343744,0.12048309
1764767216.2985942,-2.83836,0.6867,1.0682,0.978818295,-0.02343744,0.12048309
1764767216.2985942,-2.83836,0.6867,1.0682,0.978818295,-0.02343744,0.12048309
1764767216.2985942,-2.83836,0.6867,1.0682,0.978818295,-0.02343744,0.12048309
1764767216.2985942,-2.83836,0.6867,1.0682,0.978818295,-0.02343744,0.12048309
1764767216.2985942,-3.72344,0.9003399999999999,1.8006799999999998,0.97924554,-0.024230895,0.11987274
1764767216.2985942,-3.72344,0.9003399999999999,1.8006799999999998,0.97924554,-0.024230895,0.11987274
1764767216.2985942,-3.72344,0.9003399999999999,1.8006799999999998,0.97924554,-0.024230895,0.11987274
1764767216.2985942,-3.72344,0.9003399999999999,1.8006799999999998,0.97924554,-0.024230895,0.11987274
1764767216.2985942,-3.72344,0.9003399999999999,1.8006799999999998,0.97924554,-0.024230895,0.11987274
1764767216.2985942,-3.72344,0.9003399999999999,1.8006799999999998,0.97924554,-0.024230895,0.11987274
1764767216.2985942,-3.72344,0.9003399999999999,1.8006799999999998,0.97924554,-0.024230895,0.11987274
1764767216.2985942,-3.72344,0.9003399999999999,1.8006799999999998,0.97924554,-0.024230895,0.11987274
1764767216.2985942,-3.72344,0.9003399999999999,1.8006799999999998,0.97924554,-0.024230895,0.11987274
1764767216.2985942,-3.72344,0.9003399999999999,1.8006799999999998,0.97924554,-0.024230895,0.11987274
1764767216.2985942,-4.1202,0.41202,1.6022999999999998,0.97912347,-0.02343744,0.11816376
1764767216.2985942,-4.1202,0.41202,1.6022999999999998,0.97912347,-0.02343744,0.11816376
1764767216.3471584,-4.1202,0.41202,1.6022999999999998,0.97912347,-0.02343744,0.11816376
1764767216.3471584,-4.1202,0.41202,1.6022999999999998,0.97912347,-0.02343744,0.11816376
1764767216.3471584,-4.1202,0.41202,1.6022999999999998,0.97912347,-0.02343744,0.11816376
1764767216.3471584,-4.1202,0.41202,1.6022999999999998,0.97912347,-0.02343744,0.11816376
1764767216.3471584,-4.1202,0.41202,1.6022999999999998,0.97912347,-0.02343744,0.11816376
1764767216.3471584,-4.1202,0.41202,1.6022999999999998,0.97912347,-0.02343744,0.11816376
1764767216.3471584,-4.1202,0.41202,1.6022999999999998,0.97912347,-0.02343744,0.11816376
1764767216.3471584,-4.1202,0.41202,1.6022999999999998,0.97912347,-0.02343744,0.11816376
1764767216.3471584,-4.45592,0.56462,1.0682,0.97997796,-0.02355951,0.11791962
1764767216.3471584,-4.45592,0.56462,1.0682,0.97997796,-0.02355951,0.11791962
1764767216.3471584,-4.45592,0.56462,1.0682,0.97997796,-0.02355951,0.11791962
1764767216.3471584,-4.45592,0.56462,1.0682,0.97997796,-0.02355951,0.11791962
1764767216.3471584,-4.45592,0.56462,1.0682,0.97997796,-0.02355951,0.11791962
1764767216.3471584,-4.45592,0.56462,1.0682,0.97997796,-0.02355951,0.11791962
1764767216.3471584,-4.45592,0.56462,1.0682,0.97997796,-0.02355951,0.11791962
1764767216.3471584,-4.45592,0.56462,1.0682,0.97997796,-0.02355951,0.11791962
1764767216.3471584,-4.45592,0.56462,1.0682,0.97997796,-0.02355951,0.11791962
1764767216.3471584,-4.45592,0.56462,1.0682,0.97997796,-0.02355951,0.11791962
1764767216.3471584,-4.86794,0.62566,1.2055399999999998,0.9814428,-0.024719175,0.11852997
1764767216.3471584,-4.86794,0.62566,1.2055399999999998,0.9814428,-0.024719175,0.11852997
1764767216.3471584,-4.86794,0.62566,1.2055399999999998,0.9814428,-0.024719175,0.11852997
1764767216.3471584,-4.86794,0.62566,1.2055399999999998,0.9814428,-0.024719175,0.11852997
1764767216.3910398,-4.86794,0.62566,1.2055399999999998,0.9814428,-0.024719175,0.11852997
1764767216.391548,-4.86794,0.62566,1.2055399999999998,0.9814428,-0.024719175,0.11852997
1764767216.391548,-4.86794,0.62566,1.2055399999999998,0.9814428,-0.024719175,0.11852997
1764767216.391548,-4.86794,0.62566,1.2055399999999998,0.9814428,-0.024719175,0.11852997
1764767216.391548,-4.86794,0.62566,1.2055399999999998,0.9814428,-0.024719175,0.11852997
1764767216.391548,-4.86794,0.62566,1.2055399999999998,0.9814428,-0.024719175,0.11852997
1764767216.391548,-4.7306,1.02242,1.28184,0.981503835,-0.02551263,0.11877411
1764767216.391548,-4.7306,1.02242,1.28184,0.981503835,-0.02551263,0.11877411
1764767216.391548,-4.7306,1.02242,1.28184,0.981503835,-0.02551263,0.11877411
1764767216.391548,-4.7306,1.02242,1.28184,0.981503835,-0.02551263,0.11877411
1764767216.391548,-4.7306,1.02242,1.28184,0.981503835,-0.02551263,0.11877411
1764767216.391548,-4.7306,1.02242,1.28184,0.981503835,-0.02551263,0.11877411
1764767216.391548,-4.7306,1.02242,1.28184,0.981503835,-0.02551263,0.11877411
1764767216.3925643,-4.7306,1.02242,1.28184,0.981503835,-0.02551263,0.11877411
1764767216.3925643,-4.7306,1.02242,1.28184,0.981503835,-0.02551263,0.11877411
1764767216.3925643,-4.7306,1.02242,1.28184,0.981503835,-0.02551263,0.11877411
1764767216.3925643,-3.90656,0.96138,0.6103999999999999,0.98107659,-0.0268554,0.11914032
1764767216.3925643,-3.90656,0.96138,0.6103999999999999,0.98107659,-0.0268554,0.11914032
1764767216.3925643,-3.90656,0.96138,0.6103999999999999,0.98107659,-0.0268554,0.11914032
1764767216.3935394,-3.90656,0.96138,0.6103999999999999,0.98107659,-0.0268554,0.11914032
1764767216.3935394,-3.90656,0.96138,0.6103999999999999,0.98107659,-0.0268554,0.11914032
1764767216.3935394,-3.90656,0.96138,0.6103999999999999,0.98107659,-0.0268554,0.11914032
1764767216.3935394,-3.90656,0.96138,0.6103999999999999,0.98107659,-0.0268554,0.11914032
1764767216.3935394,-3.90656,0.96138,0.6103999999999999,0.98107659,-0.0268554,0.11914032
1764767216.440393,-3.90656,0.96138,0.6103999999999999,0.98107659,-0.0268554,0.11914032
1764767216.440393,-3.90656,0.96138,0.6103999999999999,0.98107659,-0.0268554,0.11914032
1764767216.4413989,-3.61662,1.4039199999999998,0.8087799999999999,0.981259695,-0.027160575,0.12023895
1764767216.4413989,-3.61662,1.4039199999999998,0.8087799999999999,0.981259695,-0.027160575,0.12023895
1764767216.4413989,-3.61662,1.4039199999999998,0.8087799999999999,0.981259695,-0.027160575,0.12023895
1764767216.4413989,-3.61662,1.4039199999999998,0.8087799999999999,0.981259695,-0.027160575,0.12023895
1764767216.4413989,-3.61662,1.4039199999999998,0.8087799999999999,0.981259695,-0.027160575,0.12023895
1764767216.4413989,-3.61662,1.4039199999999998,0.8087799999999999,0.981259695,-0.027160575,0.12023895
1764767216.4413989,-3.61662,1.4039199999999998,0.8087799999999999,0.981259695,-0.027160575,0.12023895
1764767216.4413989,-3.61662,1.4039199999999998,0.8087799999999999,0.981259695,-0.027160575,0.12023895
1764767216.4413989,-3.61662,1.4039199999999998,0.8087799999999999,0.981259695,-0.027160575,0.12023895
1764767216.4413989,-3.61662,1.4039199999999998,0.8087799999999999,0.981259695,-0.027160575,0.12023895
1764767216.4413989,-2.92992,1.4497,0.763,0.98095452,-0.026672295,0.12048309
1764767216.4413989,-2.92992,1.4497,0.763,0.98095452,-0.026672295,0.12048309
1764767216.4413989,-2.92992,1.4497,0.763,0.98095452,-0.026672295,0.12048309
1764767216.4413989,-2.92992,1.4497,0.763,0.98095452,-0.026672295,0.12048309
1764767216.4413989,-2.92992,1.4497,0.763,0.98095452,-0.026672295,0.12048309
1764767216.4413989,-2.92992,1.4497,0.763,0.98095452,-0.026672295,0.12048309
1764767216.4413989,-2.92992,1.4497,0.763,0.98095452,-0.026672295,0.12048309
1764767216.4413989,-2.92992,1.4497,0.763,0.98095452,-0.026672295,0.12048309
1764767216.4413989,-2.92992,1.4497,0.763,0.98095452,-0.026672295,0.12048309
1764767216.4413989,-2.92992,1.4497,0.763,0.98095452,-0.026672295,0.12048309
1764767216.4413989,-2.6705,0.93086,1.12924,0.980161065,-0.0256347,0.121276545
1764767216.4413989,-2.6705,0.93086,1.12924,0.980161065,-0.0256347,0.121276545
1764767216.4837396,-2.6705,0.93086,1.12924,0.980161065,-0.0256347,0.121276545
1764767216.4837396,-2.6705,0.93086,1.12924,0.980161065,-0.0256347,0.121276545
1764767216.4837396,-2.6705,0.93086,1.12924,0.980161065,-0.0256347,0.121276545
1764767216.4837396,-2.6705,0.93086,1.12924,0.980161065,-0.0256347,0.121276545
1764767216.4837396,-2.6705,0.93086,1.12924,0.980161065,-0.0256347,0.121276545
1764767216.4837396,-2.6705,0.93086,1.12924,0.980161065,-0.0256347,0.121276545
1764767216.4837396,-2.6705,0.93086,1.12924,0.980161065,-0.0256347,0.121276545
1764767216.4837396,-2.6705,0.93086,1.12924,0.980161065,-0.0256347,0.121276545
1764767216.4837396,-2.79258,1.34288,1.61756,0.979306575,-0.024597105,0.12109344
1764767216.4837396,-2.79258,1.34288,1.61756,0.979306575,-0.024597105,0.12109344
1764767216.484761,-2.79258,1.34288,1.61756,0.979306575,-0.024597105,0.12109344
1764767216.484761,-2.79258,1.34288,1.61756,0.979306575,-0.024597105,0.12109344
1764767216.484761,-2.79258,1.34288,1.61756,0.979306575,-0.024597105,0.12109344
1764767216.484761,-2.79258,1.34288,1.61756,0.979306575,-0.024597105,0.12109344
1764767216.484761,-2.79258,1.34288,1.61756,0.979306575,-0.024597105,0.12109344
1764767216.484761,-2.79258,1.34288,1.61756,0.979306575,-0.024597105,0.12109344
1764767216.484761,-2.79258,1.34288,1.61756,0.979306575,-0.024597105,0.12109344
1764767216.484761,-2.79258,1.34288,1.61756,0.979306575,-0.024597105,0.12109344
1764767216.484761,-3.23512,1.2055399999999998,1.1445,0.97948968,-0.023254335,0.12072723
1764767216.484761,-3.23512,1.2055399999999998,1.1445,0.97948968,-0.023254335,0.12072723
1764767216.484761,-3.23512,1.2055399999999998,1.1445,0.97948968,-0.023254335,0.12072723
1764767216.484761,-3.23512,1.2055399999999998,1.1445,0.97948968,-0.023254335,0.12072723
1764767216.5308416,-3.23512,1.2055399999999998,1.1445,0.97948968,-0.023254335,0.12072723
1764767216.5308416,-3.23512,1.2055399999999998,1.1445,0.97948968,-0.023254335,0.12072723
1764767216.5308416,-3.23512,1.2055399999999998,1.1445,0.97948968,-0.023254335,0.12072723
1764767216.5308416,-3.23512,1.2055399999999998,1.1445,0.97948968,-0.023254335,0.12072723
1764767216.5308416,-3.23512,1.2055399999999998,1.1445,0.97948968,-0.023254335,0.12072723
1764767216.5308416,-3.23512,1.2055399999999998,1.1445,0.97948968,-0.023254335,0.12072723
1764767216.5308416,-3.47928,1.25132,1.2055399999999998,0.980283135,-0.022643985,0.120788265
1764767216.5308416,-3.47928,1.25132,1.2055399999999998,0.980283135,-0.022643985,0.120788265
1764767216.5308416,-3.47928,1.25132,1.2055399999999998,0.980283135,-0.022643985,0.120788265
1764767216.5308416,-3.47928,1.25132,1.2055399999999998,0.980283135,-0.022643985,0.120788265
1764767216.5308416,-3.47928,1.25132,1.2055399999999998,0.980283135,-0.022643985,0.120788265
1764767216.5308416,-3.47928,1.25132,1.2055399999999998,0.980283135,-0.022643985,0.120788265
1764767216.5308416,-3.47928,1.25132,1.2055399999999998,0.980283135,-0.022643985,0.120788265
1764767216.5308416,-3.47928,1.25132,1.2055399999999998,0.980283135,-0.022643985,0.120788265
1764767216.5308416,-3.47928,1.25132,1.2055399999999998,0.980283135,-0.022643985,0.120788265
1764767216.5308416,-3.47928,1.25132,1.2055399999999998,0.980283135,-0.022643985,0.120788265
1764767216.5318463,-3.38772,0.9919,1.54126,0.980527275,-0.02307123,0.12158172
1764767216.5318463,-3.38772,0.9919,1.54126,0.980527275,-0.02307123,0.12158172
1764767216.5318463,-3.38772,0.9919,1.54126,0.980527275,-0.02307123,0.12158172
1764767216.5328496,-3.38772,0.9919,1.54126,0.980527275,-0.02307123,0.12158172
1764767216.5328496,-3.38772,0.9919,1.54126,0.980527275,-0.02307123,0.12158172
1764767216.5328496,-3.38772,0.9919,1.54126,0.980527275,-0.02307123,0.12158172
1764767216.5328496,-3.38772,0.9919,1.54126,0.980527275,-0.02307123,0.12158172
1764767216.5328496,-3.38772,0.9919,1.54126,0.980527275,-0.02307123,0.12158172
1764767216.5793972,-3.38772,0.9919,1.54126,0.980527275,-0.02307123,0.12158172
1764767216.5793972,-3.38772,0.9919,1.54126,0.980527275,-0.02307123,0.12158172
1764767216.5793972,-4.18124,1.00716,1.63282,0.980038995,-0.02343744,0.122253105
1764767216.5793972,-4.18124,1.00716,1.63282,0.980038995,-0.02343744,0.122253105
1764767216.5799203,-4.18124,1.00716,1.63282,0.980038995,-0.02343744,0.122253105
1764767216.5799203,-4.18124,1.00716,1.63282,0.980038995,-0.02343744,0.122253105
1764767216.5799203,-4.18124,1.00716,1.63282,0.980038995,-0.02343744,0.122253105
1764767216.5799203,-4.18124,1.00716,1.63282,0.980038995,-0.02343744,0.122253105
1764767216.5799203,-4.18124,1.00716,1.63282,0.980038995,-0.02343744,0.122253105
1764767216.5799203,-4.18124,1.00716,1.63282,0.980038995,-0.02343744,0.122253105
1764767216.5799203,-4.18124,1.00716,1.63282,0.980038995,-0.02343744,0.122253105
1764767216.5799203,-4.18124,1.00716,1.63282,0.980038995,-0.02343744,0.122253105
1764767216.5799203,-4.13546,0.97664,1.526,0.97997796,-0.02490228,0.122375175
1764767216.5799203,-4.13546,0.97664,1.526,0.97997796,-0.02490228,0.122375175
1764767216.5799203,-4.13546,0.97664,1.526,0.97997796,-0.02490228,0.122375175
1764767216.5799203,-4.13546,0.97664,1.526,0.97997796,-0.02490228,0.122375175
1764767216.5799203,-4.13546,0.97664,1.526,0.97997796,-0.02490228,0.122375175
1764767216.5799203,-4.13546,0.97664,1.526,0.97997796,-0.02490228,0.122375175
1764767216.5799203,-4.13546,0.97664,1.526,0.97997796,-0.02490228,0.122375175
1764767216.5799203,-4.13546,0.97664,1.526,0.97997796,-0.02490228,0.122375175
1764767216.5799203,-4.13546,0.97664,1.526,0.97997796,-0.02490228,0.122375175
1764767216.5799203,-4.13546,0.97664,1.526,0.97997796,-0.02490228,0.122375175
1764767216.6234431,-3.67766,0.79352,1.69386,0.97851312,-0.02587884,0.12268035
1764767216.6234431,-3.67766,0.79352,1.69386,0.97851312,-0.02587884,0.12268035
1764767216.6234431,-3.67766,0.79352,1.69386,0.97851312,-0.02587884,0.12268035
1764767216.6234431,-3.67766,0.79352,1.69386,0.97851312,-0.02587884,0.12268035
1764767216.6234431,-3.67766,0.79352,1.69386,0.97851312,-0.02587884,0.12268035
1764767216.6234431,-3.67766,0.79352,1.69386,0.97851312,-0.02587884,0.12268035
1764767216.6234431,-3.67766,0.79352,1.69386,0.97851312,-0.02587884,0.12268035
1764767216.6234431,-3.67766,0.79352,1.69386,0.97851312,-0.02587884,0.12268035
1764767216.6234431,-3.67766,0.79352,1.69386,0.97851312,-0.02587884,0.12268035
1764767216.6234431,-3.67766,0.79352,1.69386,0.97851312,-0.02587884,0.12268035
1764767216.6244545,-3.3572,0.7019599999999999,1.70912,0.97863519,-0.026428155,0.12268035
1764767216.6244545,-3.3572,0.7019599999999999,1.70912,0.97863519,-0.026428155,0.12268035
1764767216.6244545,-3.3572,0.7019599999999999,1.70912,0.97863519,-0.026428155,0.12268035
1764767216.6244545,-3.3572,0.7019599999999999,1.70912,0.97863519,-0.026428155,0.12268035
1764767216.6249611,-3.3572,0.7019599999999999,1.70912,0.97863519,-0.026428155,0.12268035
1764767216.6249611,-3.3572,0.7019599999999999,1.70912,0.97863519,-0.026428155,0.12268035
1764767216.6249611,-3.3572,0.7019599999999999,1.70912,0.97863519,-0.026428155,0.12268035
1764767216.6249611,-3.3572,0.7019599999999999,1.70912,0.97863519,-0.026428155,0.12268035
1764767216.6249611,-3.3572,0.7019599999999999,1.70912,0.97863519,-0.026428155,0.12268035
1764767216.6249611,-3.3572,0.7019599999999999,1.70912,0.97863519,-0.026428155,0.12268035
1764767216.6249611,-3.29616,0.6103999999999999,1.58704,0.97826898,-0.02734368,0.12194793
1764767216.6249611,-3.29616,0.6103999999999999,1.58704,0.97826898,-0.02734368,0.12194793
1764767216.6259804,-3.29616,0.6103999999999999,1.58704,0.97826898,-0.02734368,0.12194793
1764767216.6259804,-3.29616,0.6103999999999999,1.58704,0.97826898,-0.02734368,0.12194793
1764767216.669291,-3.29616,0.6103999999999999,1.58704,0.97826898,-0.02734368,0.12194793
1764767216.669291,-3.29616,0.6103999999999999,1.58704,0.97826898,-0.02734368,0.12194793
1764767216.669291,-3.29616,0.6103999999999999,1.58704,0.97826898,-0.02734368,0.12194793
1764767216.669291,-3.29616,0.6103999999999999,1.58704,0.97826898,-0.02734368,0.12194793
1764767216.669291,-3.29616,0.6103999999999999,1.58704,0.97826898,-0.02734368,0.12194793
1764767216.669291,-3.29616,0.6103999999999999,1.58704,0.97826898,-0.02734368,0.12194793
1764767216.669291,-3.08252,1.02242,1.3734,0.979062435,-0.0280761,0.121520685
1764767216.669291,-3.08252,1.02242,1.3734,0.979062435,-0.0280761,0.121520685
1764767216.669291,-3.08252,1.02242,1.3734,0.979062435,-0.0280761,0.121520685
1764767216.669291,-3.08252,1.02242,1.3734,0.979062435,-0.0280761,0.121520685
1764767216.669291,-3.08252,1.02242,1.3734,0.979062435,-0.0280761,0.121520685
1764767216.669291,-3.08252,1.02242,1.3734,0.979062435,-0.0280761,0.121520685
1764767216.6705365,-3.08252,1.02242,1.3734,0.979062435,-0.0280761,0.121520685
1764767216.6705365,-3.08252,1.02242,1.3734,0.979062435,-0.0280761,0.121520685
1764767216.6705365,-3.08252,1.02242,1.3734,0.979062435,-0.0280761,0.121520685
1764767216.6705365,-3.08252,1.02242,1.3734,0.979062435,-0.0280761,0.121520685
1764767216.6705365,-2.85362,1.17502,1.25132,0.97997796,-0.02770989,0.122131035
1764767216.6705365,-2.85362,1.17502,1.25132,0.97997796,-0.02770989,0.122131035
1764767216.6705365,-2.85362,1.17502,1.25132,0.97997796,-0.02770989,0.122131035
1764767216.6705365,-2.85362,1.17502,1.25132,0.97997796,-0.02770989,0.122131035
1764767216.6705365,-2.85362,1.17502,1.25132,0.97997796,-0.02770989,0.122131035
1764767216.6705365,-2.85362,1.17502,1.25132,0.97997796,-0.02770989,0.122131035
1764767216.7166667,-2.85362,1.17502,1.25132,0.97997796,-0.02770989,0.122131035
1764767216.7166667,-2.85362,1.17502,1.25132,0.97997796,-0.02770989,0.122131035
1764767216.7166667,-2.85362,1.17502,1.25132,0.97997796,-0.02770989,0.122131035
1764767216.7166667,-2.85362,1.17502,1.25132,0.97997796,-0.02770989,0.122131035
1764767216.7166667,-3.37246,0.97664,1.02242,0.97924554,-0.02746575,0.121398615
1764767216.7166667,-3.37246,0.97664,1.02242,0.97924554,-0.02746575,0.121398615
1764767216.7166667,-3.37246,0.97664,1.02242,0.97924554,-0.02746575,0.121398615
1764767216.7166667,-3.37246,0.97664,1.02242,0.97924554,-0.02746575,0.121398615
1764767216.7166667,-3.37246,0.97664,1.02242,0.97924554,-0.02746575,0.121398615
1764767216.7166667,-3.37246,0.97664,1.02242,0.97924554,-0.02746575,0.121398615
1764767216.7166667,-3.37246,0.97664,1.02242,0.97924554,-0.02746575,0.121398615
1764767216.7166667,-3.37246,0.97664,1.02242,0.97924554,-0.02746575,0.121398615
1764767216.7166667,-3.37246,0.97664,1.02242,0.97924554,-0.02746575,0.121398615
1764767216.7166667,-3.37246,0.97664,1.02242,0.97924554,-0.02746575,0.121398615
1764767216.7166667,-3.2809,0.6714399999999999,1.35814,0.979428645,-0.02697747,0.12145965
1764767216.7166667,-3.2809,0.6714399999999999,1.35814,0.979428645,-0.02697747,0.12145965
1764767216.7166667,-3.2809,0.6714399999999999,1.35814,0.979428645,-0.02697747,0.12145965
1764767216.7177343,-3.2809,0.6714399999999999,1.35814,0.979428645,-0.02697747,0.12145965
1764767216.7177343,-3.2809,0.6714399999999999,1.35814,0.979428645,-0.02697747,0.12145965
1764767216.7177343,-3.2809,0.6714399999999999,1.35814,0.979428645,-0.02697747,0.12145965
1764767216.7177343,-3.2809,0.6714399999999999,1.35814,0.979428645,-0.02697747,0.12145965
1764767216.7177343,-3.2809,0.6714399999999999,1.35814,0.979428645,-0.02697747,0.12145965
1764767216.7649684,-3.2809,0.6714399999999999,1.35814,0.979428645,-0.02697747,0.12145965
1764767216.7649684,-3.2809,0.6714399999999999,1.35814,0.979428645,-0.02697747,0.12145965
1764767216.7649684,-3.75396,1.02242,1.31236,0.98010003,-0.026306085,0.12097137
1764767216.7649684,-3.75396,1.02242,1.31236,0.98010003,-0.026306085,0.12097137
1764767216.7649684,-3.75396,1.02242,1.31236,0.98010003,-0.026306085,0.12097137
1764767216.7649684,-3.75396,1.02242,1.31236,0.98010003,-0.026306085,0.12097137
1764767216.7649684,-3.75396,1.02242,1.31236,0.98010003,-0.026306085,0.12097137
1764767216.7649684,-3.75396,1.02242,1.31236,0.98010003,-0.026306085,0.12097137
1764767216.7649684,-3.75396,1.02242,1.31236,0.98010003,-0.026306085,0.12097137
1764767216.7649684,-3.75396,1.02242,1.31236,0.98010003,-0.026306085,0.12097137
1764767216.7649684,-3.75396,1.02242,1.31236,0.98010003,-0.026306085,0.12097137
1764767216.7659836,-3.75396,1.02242,1.31236,0.98010003,-0.026306085,0.12097137
1764767216.7659836,-3.9676,1.00716,1.28184,0.98046624,-0.02709954,0.1208493
1764767216.7659836,-3.9676,1.00716,1.28184,0.98046624,-0.02709954,0.1208493
1764767216.7659836,-3.9676,1.00716,1.28184,0.98046624,-0.02709954,0.1208493
1764767216.7659836,-3.9676,1.00716,1.28184,0.98046624,-0.02709954,0.1208493
1764767216.7659836,-3.9676,1.00716,1.28184,0.98046624,-0.02709954,0.1208493
1764767216.7659836,-3.9676,1.00716,1.28184,0.98046624,-0.02709954,0.1208493
1764767216.7659836,-3.9676,1.00716,1.28184,0.98046624,-0.02709954,0.1208493
1764767216.766984,-3.9676,1.00716,1.28184,0.98046624,-0.02709954,0.1208493
1764767216.766984,-3.9676,1.00716,1.28184,0.98046624,-0.02709954,0.1208493
1764767216.766984,-3.9676,1.00716,1.28184,0.98046624,-0.02709954,0.1208493
1764767216.766984,-3.76922,1.2208,1.43444,0.97997796,-0.02783196,0.120910335
1764767216.766984,-3.76922,1.2208,1.43444,0.97997796,-0.02783196,0.120910335
1764767216.8100364,-3.76922,1.2208,1.43444,0.97997796,-0.02783196,0.120910335
1764767216.8100364,-3.76922,1.2208,1.43444,0.97997796,-0.02783196,0.120910335
1764767216.8100364,-3.76922,1.2208,1.43444,0.97997796,-0.02783196,0.120910335
1764767216.8100364,-3.76922,1.2208,1.43444,0.97997796,-0.02783196,0.120910335
1764767216.8100364,-3.76922,1.2208,1.43444,0.97997796,-0.02783196,0.120910335
1764767216.8100364,-3.76922,1.2208,1.43444,0.97997796,-0.02783196,0.120910335
1764767216.8100364,-3.76922,1.2208,1.43444,0.97997796,-0.02783196,0.120910335
1764767216.8100364,-3.76922,1.2208,1.43444,0.97997796,-0.02783196,0.120910335
1764767216.8100364,-3.63188,0.9919,0.9156,0.98010003,-0.02795403,0.12060516
1764767216.810573,-3.63188,0.9919,0.9156,0.98010003,-0.02795403,0.12060516
1764767216.810573,-3.63188,0.9919,0.9156,0.98010003,-0.02795403,0.12060516
1764767216.810573,-3.63188,0.9919,0.9156,0.98010003,-0.02795403,0.12060516
1764767216.810573,-3.63188,0.9919,0.9156,0.98010003,-0.02795403,0.12060516
1764767216.810573,-3.63188,0.9919,0.9156,0.98010003,-0.02795403,0.12060516
1764767216.810573,-3.63188,0.9919,0.9156,0.98010003,-0.02795403,0.12060516
1764767216.8117163,-3.63188,0.9919,0.9156,0.98010003,-0.02795403,0.12060516
1764767216.8117163,-3.63188,0.9919,0.9156,0.98010003,-0.02795403,0.12060516
1764767216.8117163,-3.63188,0.9919,0.9156,0.98010003,-0.02795403,0.12060516
1764767216.8117163,-3.34194,1.17502,0.44254,0.97997796,-0.027892995,0.121032405
1764767216.8117163,-3.34194,1.17502,0.44254,0.97997796,-0.027892995,0.121032405
1764767216.8117163,-3.34194,1.17502,0.44254,0.97997796,-0.027892995,0.121032405
1764767216.8117163,-3.34194,1.17502,0.44254,0.97997796,-0.027892995,0.121032405
1764767216.8117163,-3.34194,1.17502,0.44254,0.97997796,-0.027892995,0.121032405
1764767216.8117163,-3.34194,1.17502,0.44254,0.97997796,-0.027892995,0.121032405
1764767216.858843,-3.34194,1.17502,0.44254,0.97997796,-0.027892995,0.121032405
1764767216.858843,-3.34194,1.17502,0.44254,0.97997796,-0.027892995,0.121032405
1764767216.858843,-3.34194,1.17502,0.44254,0.97997796,-0.027892995,0.121032405
1764767216.858843,-3.34194,1.17502,0.44254,0.97997796,-0.027892995,0.121032405
1764767216.858843,-3.15882,1.11398,0.85456,0.978940365,-0.02832024,0.12133758
1764767216.858843,-3.15882,1.11398,0.85456,0.978940365,-0.02832024,0.12133758
1764767216.858843,-3.15882,1.11398,0.85456,0.978940365,-0.02832024,0.12133758
1764767216.858843,-3.15882,1.11398,0.85456,0.978940365,-0.02832024,0.12133758
1764767216.858843,-3.15882,1.11398,0.85456,0.978940365,-0.02832024,0.12133758
1764767216.858843,-3.15882,1.11398,0.85456,0.978940365,-0.02832024,0.12133758
1764767216.858843,-3.15882,1.11398,0.85456,0.978940365,-0.02832024,0.12133758
1764767216.858843,-3.15882,1.11398,0.85456,0.978940365,-0.02832024,0.12133758
1764767216.858843,-3.15882,1.11398,0.85456,0.978940365,-0.02832024,0.12133758
1764767216.858843,-3.15882,1.11398,0.85456,0.978940365,-0.02832024,0.12133758
1764767216.858843,-3.23512,0.94612,1.35814,0.979184505,-0.02746575,0.12158172
1764767216.858843,-3.23512,0.94612,1.35814,0.979184505,-0.02746575,0.12158172
1764767216.858843,-3.23512,0.94612,1.35814,0.979184505,-0.02746575,0.12158172
1764767216.858843,-3.23512,0.94612,1.35814,0.979184505,-0.02746575,0.12158172
1764767216.858843,-3.23512,0.94612,1.35814,0.979184505,-0.02746575,0.12158172
1764767216.858843,-3.23512,0.94612,1.35814,0.979184505,-0.02746575,0.12158172
1764767216.858843,-3.23512,0.94612,1.35814,0.979184505,-0.02746575,0.12158172
1764767216.858843,-3.23512,0.94612,1.35814,0.979184505,-0.02746575,0.12158172
1764767216.858843,-3.23512,0.94612,1.35814,0.979184505,-0.02746575,0.12158172
1764767216.858843,-3.23512,0.94612,1.35814,0.979184505,-0.02746575,0.12158172
1764767216.858843,-3.63188,0.88508,0.9919,0.978818295,-0.02709954,0.12121551
1764767216.858843,-3.63188,0.88508,0.9919,0.978818295,-0.02709954,0.12121551
1764767216.9102414,-3.63188,0.88508,0.9919,0.978818295,-0.02709954,0.12121551
1764767216.9102414,-3.63188,0.88508,0.9919,0.978818295,-0.02709954,0.12121551
1764767216.9102414,-3.63188,0.88508,0.9919,0.978818295,-0.02709954,0.12121551
1764767216.9102414,-3.63188,0.88508,0.9919,0.978818295,-0.02709954,0.12121551
1764767216.9102414,-3.63188,0.88508,0.9919,0.978818295,-0.02709954,0.12121551
1764767216.9102414,-3.63188,0.88508,0.9919,0.978818295,-0.02709954,0.12121551
1764767216.9102414,-3.63188,0.88508,0.9919,0.978818295,-0.02709954,0.12121551
1764767216.9102414,-3.63188,0.88508,0.9919,0.978818295,-0.02709954,0.12121551
1764767216.9102414,-3.55558,1.11398,1.15976,0.97961175,-0.027038505,0.12097137
1764767216.9102414,-3.55558,1.11398,1.15976,0.97961175,-0.027038505,0.12097137
1764767216.9102414,-3.55558,1.11398,1.15976,0.97961175,-0.027038505,0.12097137
1764767216.9102414,-3.55558,1.11398,1.15976,0.97961175,-0.027038505,0.12097137
1764767216.9102414,-3.55558,1.11398,1.15976,0.97961175,-0.027038505,0.12097137
1764767216.9102414,-3.55558,1.11398,1.15976,0.97961175,-0.027038505,0.12097137
1764767216.911234,-3.55558,1.11398,1.15976,0.97961175,-0.027038505,0.12097137
1764767216.911234,-3.55558,1.11398,1.15976,0.97961175,-0.027038505,0.12097137
1764767216.911234,-3.55558,1.11398,1.15976,0.97961175,-0.027038505,0.12097137
1764767216.911234,-3.55558,1.11398,1.15976,0.97961175,-0.027038505,0.12097137
1764767216.911234,-3.5861,1.41918,0.57988,0.98034417,-0.02783196,0.1208493
1764767216.911234,-3.5861,1.41918,0.57988,0.98034417,-0.02783196,0.1208493
1764767216.911234,-3.5861,1.41918,0.57988,0.98034417,-0.02783196,0.1208493
1764767216.911234,-3.5861,1.41918,0.57988,0.98034417,-0.02783196,0.1208493
1764767216.9540043,-3.5861,1.41918,0.57988,0.98034417,-0.02783196,0.1208493
1764767216.9540043,-3.5861,1.41918,0.57988,0.98034417,-0.02783196,0.1208493
1764767216.9540043,-3.5861,1.41918,0.57988,0.98034417,-0.02783196,0.1208493
1764767216.9540043,-3.5861,1.41918,0.57988,0.98034417,-0.02783196,0.1208493
1764767216.9540043,-3.5861,1.41918,0.57988,0.98034417,-0.02783196,0.1208493
1764767216.9540043,-3.5861,1.41918,0.57988,0.98034417,-0.02783196,0.1208493
1764767216.9550142,-3.76922,1.38866,0.18312,0.9802221,-0.0280761,0.121154475
1764767216.9550142,-3.76922,1.38866,0.18312,0.9802221,-0.0280761,0.121154475
1764767216.9550142,-3.76922,1.38866,0.18312,0.9802221,-0.0280761,0.121154475
1764767216.9550142,-3.76922,1.38866,0.18312,0.9802221,-0.0280761,0.121154475
1764767216.9550142,-3.76922,1.38866,0.18312,0.9802221,-0.0280761,0.121154475
1764767216.9550142,-3.76922,1.38866,0.18312,0.9802221,-0.0280761,0.121154475
1764767216.9550142,-3.76922,1.38866,0.18312,0.9802221,-0.0280761,0.121154475
1764767216.9550142,-3.76922,1.38866,0.18312,0.9802221,-0.0280761,0.121154475
1764767216.9550142,-3.76922,1.38866,0.18312,0.9802221,-0.0280761,0.121154475
1764767216.9550142,-3.76922,1.38866,0.18312,0.9802221,-0.0280761,0.121154475
1764767216.9550142,-3.98286,0.82404,0.59514,0.979062435,-0.028137135,0.12170379
1764767216.9550142,-3.98286,0.82404,0.59514,0.979062435,-0.028137135,0.12170379
1764767216.9550142,-3.98286,0.82404,0.59514,0.979062435,-0.028137135,0.12170379
1764767216.9550142,-3.98286,0.82404,0.59514,0.979062435,-0.028137135,0.12170379
1764767216.9550142,-3.98286,0.82404,0.59514,0.979062435,-0.028137135,0.12170379
1764767216.9550142,-3.98286,0.82404,0.59514,0.979062435,-0.028137135,0.12170379
1764767216.9550142,-3.98286,0.82404,0.59514,0.979062435,-0.028137135,0.12170379
1764767216.9550142,-3.98286,0.82404,0.59514,0.979062435,-0.028137135,0.12170379
1764767217.0022464,-3.98286,0.82404,0.59514,0.979062435,-0.028137135,0.12170379
1764767217.0022464,-3.98286,0.82404,0.59514,0.979062435,-0.028137135,0.12170379
1764767217.0022464,-3.46402,0.9919,0.77826,0.978696225,-0.027648855,0.12219207
1764767217.0022464,-3.46402,0.9919,0.77826,0.978696225,-0.027648855,0.12219207
1764767217.0022464,-3.46402,0.9919,0.77826,0.978696225,-0.027648855,0.12219207
1764767217.0022464,-3.46402,0.9919,0.77826,0.978696225,-0.027648855,0.12219207
1764767217.0022464,-3.46402,0.9919,0.77826,0.978696225,-0.027648855,0.12219207
1764767217.0022464,-3.46402,0.9919,0.77826,0.978696225,-0.027648855,0.12219207
1764767217.0022464,-3.46402,0.9919,0.77826,0.978696225,-0.027648855,0.12219207
1764767217.0022464,-3.46402,0.9919,0.77826,0.978696225,-0.027648855,0.12219207
1764767217.0022464,-3.46402,0.9919,0.77826,0.978696225,-0.027648855,0.12219207
1764767217.0022464,-3.46402,0.9919,0.77826,0.978696225,-0.027648855,0.12219207
1764767217.0022464,-3.78448,1.0682,1.15976,0.979306575,-0.02795403,0.12219207
1764767217.003332,-3.78448,1.0682,1.15976,0.979306575,-0.02795403,0.12219207
1764767217.003332,-3.78448,1.0682,1.15976,0.979306575,-0.02795403,0.12219207
1764767217.003332,-3.78448,1.0682,1.15976,0.979306575,-0.02795403,0.12219207
1764767217.003332,-3.78448,1.0682,1.15976,0.979306575,-0.02795403,0.12219207
1764767217.003332,-3.78448,1.0682,1.15976,0.979306575,-0.02795403,0.12219207
1764767217.003332,-3.78448,1.0682,1.15976,0.979306575,-0.02795403,0.12219207
1764767217.003332,-3.78448,1.0682,1.15976,0.979306575,-0.02795403,0.12219207
1764767217.003332,-3.78448,1.0682,1.15976,0.979306575,-0.02795403,0.12219207
1764767217.003332,-3.78448,1.0682,1.15976,0.979306575,-0.02795403,0.12219207
1764767217.003332,-3.44876,1.19028,0.39676,0.980161065,-0.027282645,0.12207
1764767217.003332,-3.44876,1.19028,0.39676,0.980161065,-0.027282645,0.12207
1764767217.0458355,-3.44876,1.19028,0.39676,0.980161065,-0.027282645,0.12207
1764767217.0458355,-3.44876,1.19028,0.39676,0.980161065,-0.027282645,0.12207
1764767217.0463593,-3.44876,1.19028,0.39676,0.980161065,-0.027282645,0.12207
1764767217.0463593,-3.44876,1.19028,0.39676,0.980161065,-0.027282645,0.12207
1764767217.0463593,-3.44876,1.19028,0.39676,0.980161065,-0.027282645,0.12207
1764767217.0463593,-3.44876,1.19028,0.39676,0.980161065,-0.027282645,0.12207
1764767217.0463593,-3.44876,1.19028,0.39676,0.980161065,-0.027282645,0.12207
1764767217.0463593,-3.44876,1.19028,0.39676,0.980161065,-0.027282645,0.12207
1764767217.0463593,-3.4335,1.11398,0.12208,0.98083245,-0.026184015,0.121154475
1764767217.0463593,-3.4335,1.11398,0.12208,0.98083245,-0.026184015,0.121154475
1764767217.0463593,-3.4335,1.11398,0.12208,0.98083245,-0.026184015,0.121154475
1764767217.0463593,-3.4335,1.11398,0.12208,0.98083245,-0.026184015,0.121154475
1764767217.0463593,-3.4335,1.11398,0.12208,0.98083245,-0.026184015,0.121154475
1764767217.0463593,-3.4335,1.11398,0.12208,0.98083245,-0.026184015,0.121154475
1764767217.0463593,-3.4335,1.11398,0.12208,0.98083245,-0.026184015,0.121154475
1764767217.0463593,-3.4335,1.11398,0.12208,0.98083245,-0.026184015,0.121154475
1764767217.0463593,-3.4335,1.11398,0.12208,0.98083245,-0.026184015,0.121154475
1764767217.0473723,-3.4335,1.11398,0.12208,0.98083245,-0.026184015,0.121154475
1764767217.0473723,-3.67766,1.51074,0.93086,0.980038995,-0.02575677,0.120910335
1764767217.0473723,-3.67766,1.51074,0.93086,0.980038995,-0.02575677,0.120910335
1764767217.0473723,-3.67766,1.51074,0.93086,0.980038995,-0.02575677,0.120910335
1764767217.0473723,-3.67766,1.51074,0.93086,0.980038995,-0.02575677,0.120910335
1764767217.0473723,-3.67766,1.51074,0.93086,0.980038995,-0.02575677,0.120910335
1764767217.0473723,-3.67766,1.51074,0.93086,0.980038995,-0.02575677,0.120910335
1764767217.0966408,-3.67766,1.51074,0.93086,0.980038995,-0.02575677,0.120910335
1764767217.0966408,-3.67766,1.51074,0.93086,0.980038995,-0.02575677,0.120910335
1764767217.0966408,-3.67766,1.51074,0.93086,0.980038995,-0.02575677,0.120910335
1764767217.0966408,-3.67766,1.51074,0.93086,0.980038995,-0.02575677,0.120910335
1764767217.0966408,-3.79974,1.4497,1.28184,0.97997796,-0.025817805,0.12097137
1764767217.0966408,-3.79974,1.4497,1.28184,0.97997796,-0.025817805,0.12097137
1764767217.0966408,-3.79974,1.4497,1.28184,0.97997796,-0.025817805,0.12097137
1764767217.0966408,-3.79974,1.4497,1.28184,0.97997796,-0.025817805,0.12097137
1764767217.0966408,-3.79974,1.4497,1.28184,0.97997796,-0.025817805,0.12097137
1764767217.0966408,-3.79974,1.4497,1.28184,0.97997796,-0.025817805,0.12097137
1764767217.0966408,-3.79974,1.4497,1.28184,0.97997796,-0.025817805,0.12097137
1764767217.0966408,-3.79974,1.4497,1.28184,0.97997796,-0.025817805,0.12097137
1764767217.0966408,-3.79974,1.4497,1.28184,0.97997796,-0.025817805,0.12097137
1764767217.0966408,-3.79974,1.4497,1.28184,0.97997796,-0.025817805,0.12097137
1764767217.0966408,-3.61662,1.0682,1.38866,0.97814691,-0.02758782,0.1208493
1764767217.0966408,-3.61662,1.0682,1.38866,0.97814691,-0.02758782,0.1208493
1764767217.0966408,-3.61662,1.0682,1.38866,0.97814691,-0.02758782,0.1208493
1764767217.0966408,-3.61662,1.0682,1.38866,0.97814691,-0.02758782,0.1208493
1764767217.0966408,-3.61662,1.0682,1.38866,0.97814691,-0.02758782,0.1208493
1764767217.0966408,-3.61662,1.0682,1.38866,0.97814691,-0.02758782,0.1208493
1764767217.0966408,-3.61662,1.0682,1.38866,0.97814691,-0.02758782,0.1208493
1764767217.0966408,-3.61662,1.0682,1.38866,0.97814691,-0.02758782,0.1208493
1764767217.0976503,-3.61662,1.0682,1.38866,0.97814691,-0.02758782,0.1208493
1764767217.0976503,-3.61662,1.0682,1.38866,0.97814691,-0.02758782,0.1208493
1764767217.1431556,-3.5098,1.0682,0.96138,0.97936761,-0.02893059,0.12170379
1764767217.1431556,-3.5098,1.0682,0.96138,0.97936761,-0.02893059,0.12170379
1764767217.1431556,-3.5098,1.0682,0.96138,0.97936761,-0.02893059,0.12170379
1764767217.1431556,-3.5098,1.0682,0.96138,0.97936761,-0.02893059,0.12170379
1764767217.1431556,-3.5098,1.0682,0.96138,0.97936761,-0.02893059,0.12170379
1764767217.1431556,-3.5098,1.0682,0.96138,0.97936761,-0.02893059,0.12170379
1764767217.1431556,-3.5098,1.0682,0.96138,0.97936761,-0.02893059,0.12170379
1764767217.1431556,-3.5098,1.0682,0.96138,0.97936761,-0.02893059,0.12170379
1764767217.1431556,-3.5098,1.0682,0.96138,0.97936761,-0.02893059,0.12170379
1764767217.1431556,-3.5098,1.0682,0.96138,0.97936761,-0.02893059,0.12170379
1764767217.1431556,-3.052,1.31236,1.02242,0.978940365,-0.03015129,0.12243621
1764767217.1431556,-3.052,1.31236,1.02242,0.978940365,-0.03015129,0.12243621
1764767217.1431556,-3.052,1.31236,1.02242,0.978940365,-0.03015129,0.12243621
1764767217.1431556,-3.052,1.31236,1.02242,0.978940365,-0.03015129,0.12243621
1764767217.1431556,-3.052,1.31236,1.02242,0.978940365,-0.03015129,0.12243621
1764767217.1431556,-3.052,1.31236,1.02242,0.978940365,-0.03015129,0.12243621
1764767217.1431556,-3.052,1.31236,1.02242,0.978940365,-0.03015129,0.12243621
1764767217.1431556,-3.052,1.31236,1.02242,0.978940365,-0.03015129,0.12243621
1764767217.1431556,-3.052,1.31236,1.02242,0.978940365,-0.03015129,0.12243621
1764767217.1431556,-3.052,1.31236,1.02242,0.978940365,-0.03015129,0.12243621
1764767217.1888504,-2.56368,0.24416,1.2208,0.977719665,-0.031310955,0.122131035
1764767217.1888504,-2.56368,0.24416,1.2208,0.977719665,-0.031310955,0.122131035
1764767217.1888504,-2.56368,0.24416,1.2208,0.977719665,-0.031310955,0.122131035
1764767217.1888504,-2.56368,0.24416,1.2208,0.977719665,-0.031310955,0.122131035
1764767217.1888504,-2.56368,0.24416,1.2208,0.977719665,-0.031310955,0.122131035
1764767217.1888504,-2.56368,0.24416,1.2208,0.977719665,-0.031310955,0.122131035
1764767217.1888504,-2.56368,0.24416,1.2208,0.977719665,-0.031310955,0.122131035
1764767217.1898596,-2.56368,0.24416,1.2208,0.977719665,-0.031310955,0.122131035
1764767217.1898596,-2.56368,0.24416,1.2208,0.977719665,-0.031310955,0.122131035
1764767217.1898596,-2.56368,0.24416,1.2208,0.977719665,-0.031310955,0.122131035
1764767217.1898596,-2.86888,0.3509799999999999,0.59514,0.97973382,-0.03039543,0.12145965
1764767217.1898596,-2.86888,0.3509799999999999,0.59514,0.97973382,-0.03039543,0.12145965
1764767217.1898596,-2.86888,0.3509799999999999,0.59514,0.97973382,-0.03039543,0.12145965
1764767217.1898596,-2.86888,0.3509799999999999,0.59514,0.97973382,-0.03039543,0.12145965
1764767217.1898596,-2.86888,0.3509799999999999,0.59514,0.97973382,-0.03039543,0.12145965
1764767217.1898596,-2.86888,0.3509799999999999,0.59514,0.97973382,-0.03039543,0.12145965
1764767217.1898596,-2.86888,0.3509799999999999,0.59514,0.97973382,-0.03039543,0.12145965
1764767217.19086,-2.86888,0.3509799999999999,0.59514,0.97973382,-0.03039543,0.12145965
1764767217.19086,-2.86888,0.3509799999999999,0.59514,0.97973382,-0.03039543,0.12145965
1764767217.19086,-2.86888,0.3509799999999999,0.59514,0.97973382,-0.03039543,0.12145965
1764767217.19086,-3.03674,0.79352,0.5341,0.98132073,-0.02880852,0.12158172
1764767217.19086,-3.03674,0.79352,0.5341,0.98132073,-0.02880852,0.12158172
1764767217.19086,-3.03674,0.79352,0.5341,0.98132073,-0.02880852,0.12158172
1764767217.19086,-3.03674,0.79352,0.5341,0.98132073,-0.02880852,0.12158172
1764767217.1915245,-3.03674,0.79352,0.5341,0.98132073,-0.02880852,0.12158172
1764767217.1915245,-3.03674,0.79352,0.5341,0.98132073,-0.02880852,0.12158172
1764767217.2335606,-3.03674,0.79352,0.5341,0.98132073,-0.02880852,0.12158172
1764767217.2335606,-3.03674,0.79352,0.5341,0.98132073,-0.02880852,0.12158172
1764767217.2335606,-3.03674,0.79352,0.5341,0.98132073,-0.02880852,0.12158172
1764767217.234067,-3.03674,0.79352,0.5341,0.98132073,-0.02880852,0.12158172
1764767217.234067,-3.3572,1.41918,0.77826,0.980771415,-0.028259205,0.12133758
1764767217.234067,-3.3572,1.41918,0.77826,0.980771415,-0.028259205,0.12133758
1764767217.234067,-3.3572,1.41918,0.77826,0.980771415,-0.028259205,0.12133758
1764767217.234067,-3.3572,1.41918,0.77826,0.980771415,-0.028259205,0.12133758
1764767217.234067,-3.3572,1.41918,0.77826,0.980771415,-0.028259205,0.12133758
1764767217.234067,-3.3572,1.41918,0.77826,0.980771415,-0.028259205,0.12133758
1764767217.234067,-3.3572,1.41918,0.77826,0.980771415,-0.028259205,0.12133758
1764767217.234067,-3.3572,1.41918,0.77826,0.980771415,-0.028259205,0.12133758
1764767217.234067,-3.3572,1.41918,0.77826,0.980771415,-0.028259205,0.12133758
1764767217.234067,-3.3572,1.41918,0.77826,0.980771415,-0.028259205,0.12133758
1764767217.234067,-3.86078,1.26658,-0.24416,0.979428645,-0.027282645,0.120788265
1764767217.234067,-3.86078,1.26658,-0.24416,0.979428645,-0.027282645,0.120788265
1764767217.234067,-3.86078,1.26658,-0.24416,0.979428645,-0.027282645,0.120788265
1764767217.234067,-3.86078,1.26658,-0.24416,0.979428645,-0.027282645,0.120788265
1764767217.234067,-3.86078,1.26658,-0.24416,0.979428645,-0.027282645,0.120788265
1764767217.2352445,-3.86078,1.26658,-0.24416,0.979428645,-0.027282645,0.120788265
1764767217.2352445,-3.86078,1.26658,-0.24416,0.979428645,-0.027282645,0.120788265
1764767217.2352445,-3.86078,1.26658,-0.24416,0.979428645,-0.027282645,0.120788265
1764767217.2810209,-3.86078,1.26658,-0.24416,0.979428645,-0.027282645,0.120788265
1764767217.2810209,-3.86078,1.26658,-0.24416,0.979428645,-0.027282645,0.120788265
1764767217.2810209,-4.1965,1.63282,-1.05294,0.979184505,-0.02624505,0.12097137
1764767217.2810209,-4.1965,1.63282,-1.05294,0.979184505,-0.02624505,0.12097137
1764767217.2810209,-4.1965,1.63282,-1.05294,0.979184505,-0.02624505,0.12097137
1764767217.2810209,-4.1965,1.63282,-1.05294,0.979184505,-0.02624505,0.12097137
1764767217.2810209,-4.1965,1.63282,-1.05294,0.979184505,-0.02624505,0.12097137
1764767217.2810209,-4.1965,1.63282,-1.05294,0.979184505,-0.02624505,0.12097137
1764767217.2810209,-4.1965,1.63282,-1.05294,0.979184505,-0.02624505,0.12097137
1764767217.2810209,-4.1965,1.63282,-1.05294,0.979184505,-0.02624505,0.12097137
1764767217.2810209,-4.1965,1.63282,-1.05294,0.979184505,-0.02624505,0.12097137
1764767217.2810209,-4.1965,1.63282,-1.05294,0.979184505,-0.02624505,0.12097137
1764767217.2810209,-4.25754,1.73964,-0.21364,0.9802221,-0.025451595,0.121154475
1764767217.2810209,-4.25754,1.73964,-0.21364,0.9802221,-0.025451595,0.121154475
1764767217.2810209,-4.25754,1.73964,-0.21364,0.9802221,-0.025451595,0.121154475
1764767217.2810209,-4.25754,1.73964,-0.21364,0.9802221,-0.025451595,0.121154475
1764767217.2810209,-4.25754,1.73964,-0.21364,0.9802221,-0.025451595,0.121154475
1764767217.2810209,-4.25754,1.73964,-0.21364,0.9802221,-0.025451595,0.121154475
1764767217.2810209,-4.25754,1.73964,-0.21364,0.9802221,-0.025451595,0.121154475
1764767217.2810209,-4.25754,1.73964,-0.21364,0.9802221,-0.025451595,0.121154475
1764767217.2810209,-4.25754,1.73964,-0.21364,0.9802221,-0.025451595,0.121154475
1764767217.2810209,-4.25754,1.73964,-0.21364,0.9802221,-0.025451595,0.121154475
1764767217.2810209,-4.303319999999999,1.526,0.56462,0.97961175,-0.02600091,0.121886895
1764767217.2810209,-4.303319999999999,1.526,0.56462,0.97961175,-0.02600091,0.121886895
1764767217.3273263,-4.303319999999999,1.526,0.56462,0.97961175,-0.02600091,0.121886895
1764767217.3273263,-4.303319999999999,1.526,0.56462,0.97961175,-0.02600091,0.121886895
1764767217.3273263,-4.303319999999999,1.526,0.56462,0.97961175,-0.02600091,0.121886895
1764767217.3273263,-4.303319999999999,1.526,0.56462,0.97961175,-0.02600091,0.121886895
1764767217.3273263,-4.303319999999999,1.526,0.56462,0.97961175,-0.02600091,0.121886895
1764767217.3273263,-4.303319999999999,1.526,0.56462,0.97961175,-0.02600091,0.121886895
1764767217.3273263,-4.303319999999999,1.526,0.56462,0.97961175,-0.02600091,0.121886895
1764767217.3273263,-4.303319999999999,1.526,0.56462,0.97961175,-0.02600091,0.121886895
1764767217.3273263,-4.01338,1.00716,1.0682,0.97936761,-0.02624505,0.12243621
1764767217.3273263,-4.01338,1.00716,1.0682,0.97936761,-0.02624505,0.12243621
1764767217.3273263,-4.01338,1.00716,1.0682,0.97936761,-0.02624505,0.12243621
1764767217.3273263,-4.01338,1.00716,1.0682,0.97936761,-0.02624505,0.12243621
1764767217.3273263,-4.01338,1.00716,1.0682,0.97936761,-0.02624505,0.12243621
1764767217.3273263,-4.01338,1.00716,1.0682,0.97936761,-0.02624505,0.12243621
1764767217.3273263,-4.01338,1.00716,1.0682,0.97936761,-0.02624505,0.12243621
1764767217.3273263,-4.01338,1.00716,1.0682,0.97936761,-0.02624505,0.12243621
1764767217.328375,-4.01338,1.00716,1.0682,0.97936761,-0.02624505,0.12243621
1764767217.328375,-4.01338,1.00716,1.0682,0.97936761,-0.02624505,0.12243621
1764767217.3750997,-3.49454,1.12924,1.28184,0.97961175,-0.027038505,0.123351735
1764767217.3750997,-3.49454,1.12924,1.28184,0.97961175,-0.027038505,0.123351735
1764767217.3750997,-3.49454,1.12924,1.28184,0.97961175,-0.027038505,0.123351735
1764767217.3750997,-3.49454,1.12924,1.28184,0.97961175,-0.027038505,0.123351735
1764767217.3750997,-3.49454,1.12924,1.28184,0.97961175,-0.027038505,0.123351735
1764767217.3750997,-3.49454,1.12924,1.28184,0.97961175,-0.027038505,0.123351735
1764767217.3750997,-3.49454,1.12924,1.28184,0.97961175,-0.027038505,0.123351735
1764767217.3750997,-3.49454,1.12924,1.28184,0.97961175,-0.027038505,0.123351735
1764767217.3750997,-3.49454,1.12924,1.28184,0.97961175,-0.027038505,0.123351735
1764767217.3750997,-3.49454,1.12924,1.28184,0.97961175,-0.027038505,0.123351735
1764767217.3750997,-3.1283,1.12924,1.35814,0.979794855,-0.02746575,0.123717945
1764767217.3750997,-3.1283,1.12924,1.35814,0.979794855,-0.02746575,0.123717945
1764767217.3750997,-3.1283,1.12924,1.35814,0.979794855,-0.02746575,0.123717945
1764767217.3750997,-3.1283,1.12924,1.35814,0.979794855,-0.02746575,0.123717945
1764767217.3750997,-3.1283,1.12924,1.35814,0.979794855,-0.02746575,0.123717945
1764767217.3750997,-3.1283,1.12924,1.35814,0.979794855,-0.02746575,0.123717945
1764767217.3750997,-3.1283,1.12924,1.35814,0.979794855,-0.02746575,0.123717945
1764767217.3750997,-3.1283,1.12924,1.35814,0.979794855,-0.02746575,0.123717945
1764767217.3750997,-3.1283,1.12924,1.35814,0.979794855,-0.02746575,0.123717945
1764767217.3750997,-3.1283,1.12924,1.35814,0.979794855,-0.02746575,0.123717945
1764767217.3750997,-3.08252,1.02242,1.38866,0.97997796,-0.027892995,0.123229665
1764767217.3750997,-3.08252,1.02242,1.38866,0.97997796,-0.027892995,0.123229665
1764767217.3750997,-3.08252,1.02242,1.38866,0.97997796,-0.027892995,0.123229665
1764767217.3750997,-3.08252,1.02242,1.38866,0.97997796,-0.027892995,0.123229665
1764767217.3750997,-3.08252,1.02242,1.38866,0.97997796,-0.027892995,0.123229665
1764767217.3750997,-3.08252,1.02242,1.38866,0.97997796,-0.027892995,0.123229665
1764767217.3750997,-3.08252,1.02242,1.38866,0.97997796,-0.027892995,0.123229665
1764767217.3750997,-3.08252,1.02242,1.38866,0.97997796,-0.027892995,0.123229665
1764767217.4186034,-3.08252,1.02242,1.38866,0.97997796,-0.027892995,0.123229665
1764767217.4186034,-3.08252,1.02242,1.38866,0.97997796,-0.027892995,0.123229665
1764767217.4186034,-2.70102,1.05294,1.03768,0.979550715,-0.02856438,0.122863455
1764767217.4186034,-2.70102,1.05294,1.03768,0.979550715,-0.02856438,0.122863455
1764767217.4186034,-2.70102,1.05294,1.03768,0.979550715,-0.02856438,0.122863455
1764767217.4186034,-2.70102,1.05294,1.03768,0.979550715,-0.02856438,0.122863455
1764767217.4186034,-2.70102,1.05294,1.03768,0.979550715,-0.02856438,0.122863455
1764767217.4186034,-2.70102,1.05294,1.03768,0.979550715,-0.02856438,0.122863455
1764767217.4186034,-2.70102,1.05294,1.03768,0.979550715,-0.02856438,0.122863455
1764767217.4186034,-2.70102,1.05294,1.03768,0.979550715,-0.02856438,0.122863455
1764767217.4186034,-2.70102,1.05294,1.03768,0.979550715,-0.02856438,0.122863455
1764767217.4186034,-2.70102,1.05294,1.03768,0.979550715,-0.02856438,0.122863455
1764767217.4186034,-2.96044,0.7019599999999999,1.46496,0.97936761,-0.02844231,0.12243621
1764767217.4186034,-2.96044,0.7019599999999999,1.46496,0.97936761,-0.02844231,0.12243621
1764767217.4186034,-2.96044,0.7019599999999999,1.46496,0.97936761,-0.02844231,0.12243621
1764767217.4186034,-2.96044,0.7019599999999999,1.46496,0.97936761,-0.02844231,0.12243621
1764767217.4186034,-2.96044,0.7019599999999999,1.46496,0.97936761,-0.02844231,0.12243621
1764767217.4186034,-2.96044,0.7019599999999999,1.46496,0.97936761,-0.02844231,0.12243621
1764767217.4186034,-2.96044,0.7019599999999999,1.46496,0.97936761,-0.02844231,0.12243621
1764767217.4186034,-2.96044,0.7019599999999999,1.46496,0.97936761,-0.02844231,0.12243621
1764767217.4186034,-2.96044,0.7019599999999999,1.46496,0.97936761,-0.02844231,0.12243621
1764767217.4186034,-2.96044,0.7019599999999999,1.46496,0.97936761,-0.02844231,0.12243621
1764767217.419716,-3.08252,1.31236,0.65618,0.979184505,-0.028137135,0.121398615
1764767217.419716,-3.08252,1.31236,0.65618,0.979184505,-0.028137135,0.121398615
1764767217.464893,-3.08252,1.31236,0.65618,0.979184505,-0.028137135,0.121398615
1764767217.464893,-3.08252,1.31236,0.65618,0.979184505,-0.028137135,0.121398615
1764767217.464893,-3.08252,1.31236,0.65618,0.979184505,-0.028137135,0.121398615
1764767217.464893,-3.08252,1.31236,0.65618,0.979184505,-0.028137135,0.121398615
1764767217.464893,-3.08252,1.31236,0.65618,0.979184505,-0.028137135,0.121398615
1764767217.464893,-3.08252,1.31236,0.65618,0.979184505,-0.028137135,0.121398615
1764767217.464893,-3.08252,1.31236,0.65618,0.979184505,-0.028137135,0.121398615
1764767217.464893,-3.08252,1.31236,0.65618,0.979184505,-0.028137135,0.121398615
1764767217.464893,-3.64714,1.7549,1.02242,0.97985589,-0.028259205,0.121154475
1764767217.464893,-3.64714,1.7549,1.02242,0.97985589,-0.028259205,0.121154475
1764767217.464893,-3.64714,1.7549,1.02242,0.97985589,-0.028259205,0.121154475
1764767217.464893,-3.64714,1.7549,1.02242,0.97985589,-0.028259205,0.121154475
1764767217.464893,-3.64714,1.7549,1.02242,0.97985589,-0.028259205,0.121154475
1764767217.464893,-3.64714,1.7549,1.02242,0.97985589,-0.028259205,0.121154475
1764767217.464893,-3.64714,1.7549,1.02242,0.97985589,-0.028259205,0.121154475
1764767217.464893,-3.64714,1.7549,1.02242,0.97985589,-0.028259205,0.121154475
1764767217.464893,-3.64714,1.7549,1.02242,0.97985589,-0.028259205,0.121154475
1764767217.464893,-3.64714,1.7549,1.02242,0.97985589,-0.028259205,0.121154475
1764767217.464893,-3.84552,1.0682,0.3509799999999999,0.979184505,-0.0292968,0.12109344
1764767217.464893,-3.84552,1.0682,0.3509799999999999,0.979184505,-0.0292968,0.12109344
1764767217.464893,-3.84552,1.0682,0.3509799999999999,0.979184505,-0.0292968,0.12109344
1764767217.464893,-3.84552,1.0682,0.3509799999999999,0.979184505,-0.0292968,0.12109344
1764767217.51538,-3.84552,1.0682,0.3509799999999999,0.979184505,-0.0292968,0.12109344
1764767217.51538,-3.84552,1.0682,0.3509799999999999,0.979184505,-0.0292968,0.12109344
1764767217.51538,-3.84552,1.0682,0.3509799999999999,0.979184505,-0.0292968,0.12109344
1764767217.51538,-3.84552,1.0682,0.3509799999999999,0.979184505,-0.0292968,0.12109344
1764767217.51538,-3.84552,1.0682,0.3509799999999999,0.979184505,-0.0292968,0.12109344
1764767217.5163994,-3.84552,1.0682,0.3509799999999999,0.979184505,-0.0292968,0.12109344
1764767217.5163994,-3.92182,1.08346,0.39676,0.97802484,-0.02941887,0.121154475
1764767217.5163994,-3.92182,1.08346,0.39676,0.97802484,-0.02941887,0.121154475
1764767217.5163994,-3.92182,1.08346,0.39676,0.97802484,-0.02941887,0.121154475
1764767217.5163994,-3.92182,1.08346,0.39676,0.97802484,-0.02941887,0.121154475
1764767217.5163994,-3.92182,1.08346,0.39676,0.97802484,-0.02941887,0.121154475
1764767217.5163994,-3.92182,1.08346,0.39676,0.97802484,-0.02941887,0.121154475
1764767217.5163994,-3.92182,1.08346,0.39676,0.97802484,-0.02941887,0.121154475
1764767217.5163994,-3.92182,1.08346,0.39676,0.97802484,-0.02941887,0.121154475
1764767217.5163994,-3.92182,1.08346,0.39676,0.97802484,-0.02941887,0.121154475
1764767217.5163994,-3.92182,1.08346,0.39676,0.97802484,-0.02941887,0.121154475
1764767217.5163994,-4.059159999999999,1.05294,-0.01526,0.978696225,-0.029601975,0.121764825
1764767217.5163994,-4.059159999999999,1.05294,-0.01526,0.978696225,-0.029601975,0.121764825
1764767217.5173995,-4.059159999999999,1.05294,-0.01526,0.978696225,-0.029601975,0.121764825
