Timestamp,GyroX,GyroY,GyroZ,AccX,AccY,AccZ
1764769008.6269882,-4.56274,0.9003399999999999,-0.27468,-0.90771252,0.347106045,0.155822355
1764769008.6269882,-4.56274,0.9003399999999999,-0.27468,-0.90771252,0.347106045,0.155822355
1764769008.6269882,-4.56274,0.9003399999999999,-0.27468,-0.90771252,0.347106045,0.155822355
1764769008.6269882,-4.56274,0.9003399999999999,-0.27468,-0.90771252,0.347106045,0.155822355
1764769008.6269882,-4.56274,0.9003399999999999,-0.27468,-0.90771252,0.347106045,0.155822355
1764769008.6269882,-4.577999999999999,0.88508,0.06104,-0.907407345,0.347838465,0.15515097
1764769008.6269882,-4.577999999999999,0.88508,0.06104,-0.907407345,0.347838465,0.15515097
1764769008.6269882,-4.577999999999999,0.88508,0.06104,-0.907407345,0.347838465,0.15515097
1764769008.6269882,-4.577999999999999,0.88508,0.06104,-0.907407345,0.347838465,0.15515097
1764769008.6269882,-4.577999999999999,0.88508,0.06104,-0.907407345,0.347838465,0.15515097
1764769008.6269882,-4.577999999999999,0.88508,0.06104,-0.907407345,0.347838465,0.15515097
1764769008.6269882,-4.577999999999999,0.88508,0.06104,-0.907407345,0.347838465,0.15515097
1764769008.6269882,-4.577999999999999,0.88508,0.06104,-0.907407345,0.347838465,0.15515097
1764769008.6269882,-4.577999999999999,0.88508,0.06104,-0.907407345,0.347838465,0.15515097
1764769008.6269882,-4.577999999999999,0.88508,0.06104,-0.907407345,0.347838465,0.15515097
1764769008.6283205,-4.89846,1.03768,-0.19838,-0.90905529,0.348082605,0.155089935
1764769008.6283205,-4.89846,1.03768,-0.19838,-0.90905529,0.348082605,0.155089935
1764769008.6283205,-4.89846,1.03768,-0.19838,-0.90905529,0.348082605,0.155089935
1764769008.6283205,-4.89846,1.03768,-0.19838,-0.90905529,0.348082605,0.155089935
1764769008.6283205,-4.89846,1.03768,-0.19838,-0.90905529,0.348082605,0.155089935
1764769008.6283205,-4.89846,1.03768,-0.19838,-0.90905529,0.348082605,0.155089935
1764769008.6741383,-4.89846,1.03768,-0.19838,-0.90905529,0.348082605,0.155089935
1764769008.6741383,-4.89846,1.03768,-0.19838,-0.90905529,0.348082605,0.155089935
1764769008.6741383,-4.89846,1.03768,-0.19838,-0.90905529,0.348082605,0.155089935
1764769008.6741383,-4.89846,1.03768,-0.19838,-0.90905529,0.348082605,0.155089935
1764769008.6741383,-4.60852,1.2208,-0.27468,-0.91015392,0.346129485,0.155700285
1764769008.6741383,-4.60852,1.2208,-0.27468,-0.91015392,0.346129485,0.155700285
1764769008.6741383,-4.60852,1.2208,-0.27468,-0.91015392,0.346129485,0.155700285
1764769008.6741383,-4.60852,1.2208,-0.27468,-0.91015392,0.346129485,0.155700285
1764769008.6746511,-4.60852,1.2208,-0.27468,-0.91015392,0.346129485,0.155700285
1764769008.6746511,-4.60852,1.2208,-0.27468,-0.91015392,0.346129485,0.155700285
1764769008.6746511,-4.60852,1.2208,-0.27468,-0.91015392,0.346129485,0.155700285
1764769008.6746511,-4.60852,1.2208,-0.27468,-0.91015392,0.346129485,0.155700285
1764769008.6746511,-4.60852,1.2208,-0.27468,-0.91015392,0.346129485,0.155700285
1764769008.6746511,-4.60852,1.2208,-0.27468,-0.91015392,0.346129485,0.155700285
1764769008.6746511,-4.15072,1.26658,-0.7019599999999999,-0.910703235,0.34484775,0.15661581
1764769008.6746511,-4.15072,1.26658,-0.7019599999999999,-0.910703235,0.34484775,0.15661581
1764769008.6746511,-4.15072,1.26658,-0.7019599999999999,-0.910703235,0.34484775,0.15661581
1764769008.6746511,-4.15072,1.26658,-0.7019599999999999,-0.910703235,0.34484775,0.15661581
1764769008.6746511,-4.15072,1.26658,-0.7019599999999999,-0.910703235,0.34484775,0.15661581
1764769008.6746511,-4.15072,1.26658,-0.7019599999999999,-0.910703235,0.34484775,0.15661581
1764769008.6746511,-4.15072,1.26658,-0.7019599999999999,-0.910703235,0.34484775,0.15661581
1764769008.6746511,-4.15072,1.26658,-0.7019599999999999,-0.910703235,0.34484775,0.15661581
1764769008.7224371,-4.15072,1.26658,-0.7019599999999999,-0.910703235,0.34484775,0.15661581
1764769008.722963,-4.15072,1.26658,-0.7019599999999999,-0.910703235,0.34484775,0.15661581
1764769008.722963,-4.1965,1.55652,-0.3815,-0.91076427,0.344298435,0.15637167
1764769008.722963,-4.1965,1.55652,-0.3815,-0.91076427,0.344298435,0.15637167
1764769008.722963,-4.1965,1.55652,-0.3815,-0.91076427,0.344298435,0.15637167
1764769008.722963,-4.1965,1.55652,-0.3815,-0.91076427,0.344298435,0.15637167
1764769008.722963,-4.1965,1.55652,-0.3815,-0.91076427,0.344298435,0.15637167
1764769008.722963,-4.1965,1.55652,-0.3815,-0.91076427,0.344298435,0.15637167
1764769008.722963,-4.1965,1.55652,-0.3815,-0.91076427,0.344298435,0.15637167
1764769008.722963,-4.1965,1.55652,-0.3815,-0.91076427,0.344298435,0.15637167
1764769008.722963,-4.1965,1.55652,-0.3815,-0.91076427,0.344298435,0.15637167
1764769008.722963,-4.1965,1.55652,-0.3815,-0.91076427,0.344298435,0.15637167
1764769008.722963,-3.61662,1.19028,-0.13734,-0.9106422,0.34496982,0.154845795
1764769008.722963,-3.61662,1.19028,-0.13734,-0.9106422,0.34496982,0.154845795
1764769008.722963,-3.61662,1.19028,-0.13734,-0.9106422,0.34496982,0.154845795
1764769008.722963,-3.61662,1.19028,-0.13734,-0.9106422,0.34496982,0.154845795
1764769008.722963,-3.61662,1.19028,-0.13734,-0.9106422,0.34496982,0.154845795
1764769008.722963,-3.61662,1.19028,-0.13734,-0.9106422,0.34496982,0.154845795
1764769008.722963,-3.61662,1.19028,-0.13734,-0.9106422,0.34496982,0.154845795
1764769008.722963,-3.61662,1.19028,-0.13734,-0.9106422,0.34496982,0.154845795
1764769008.722963,-3.61662,1.19028,-0.13734,-0.9106422,0.34496982,0.154845795
1764769008.722963,-3.61662,1.19028,-0.13734,-0.9106422,0.34496982,0.154845795
1764769008.722963,-3.26564,1.32762,-0.09156,-0.909604605,0.344786715,0.154723725
1764769008.722963,-3.26564,1.32762,-0.09156,-0.909604605,0.344786715,0.154723725
1764769008.722963,-3.26564,1.32762,-0.09156,-0.909604605,0.344786715,0.154723725
1764769008.722963,-3.26564,1.32762,-0.09156,-0.909604605,0.344786715,0.154723725
1764769008.7693543,-3.26564,1.32762,-0.09156,-0.909604605,0.344786715,0.154723725
1764769008.7693543,-3.26564,1.32762,-0.09156,-0.909604605,0.344786715,0.154723725
1764769008.7693543,-3.26564,1.32762,-0.09156,-0.909604605,0.344786715,0.154723725
1764769008.7693543,-3.26564,1.32762,-0.09156,-0.909604605,0.344786715,0.154723725
1764769008.7693543,-3.26564,1.32762,-0.09156,-0.909604605,0.344786715,0.154723725
1764769008.7693543,-3.26564,1.32762,-0.09156,-0.909604605,0.344786715,0.154723725
1764769008.7693543,-3.34194,1.73964,0.54936,-0.908872185,0.34509189,0.154845795
1764769008.7693543,-3.34194,1.73964,0.54936,-0.908872185,0.34509189,0.154845795
1764769008.7693543,-3.34194,1.73964,0.54936,-0.908872185,0.34509189,0.154845795
1764769008.7693543,-3.34194,1.73964,0.54936,-0.908872185,0.34509189,0.154845795
1764769008.7693543,-3.34194,1.73964,0.54936,-0.908872185,0.34509189,0.154845795
1764769008.7693543,-3.34194,1.73964,0.54936,-0.908872185,0.34509189,0.154845795
1764769008.7693543,-3.34194,1.73964,0.54936,-0.908872185,0.34509189,0.154845795
1764769008.7693543,-3.34194,1.73964,0.54936,-0.908872185,0.34509189,0.154845795
1764769008.7693543,-3.34194,1.73964,0.54936,-0.908872185,0.34509189,0.154845795
1764769008.7693543,-3.34194,1.73964,0.54936,-0.908872185,0.34509189,0.154845795
1764769008.7693543,-3.52506,1.58704,0.19838,-0.908750115,0.346007415,0.15441855
1764769008.7693543,-3.52506,1.58704,0.19838,-0.908750115,0.346007415,0.15441855
1764769008.7693543,-3.52506,1.58704,0.19838,-0.908750115,0.346007415,0.15441855
1764769008.7708046,-3.52506,1.58704,0.19838,-0.908750115,0.346007415,0.15441855
1764769008.7708046,-3.52506,1.58704,0.19838,-0.908750115,0.346007415,0.15441855
1764769008.7708046,-3.52506,1.58704,0.19838,-0.908750115,0.346007415,0.15441855
1764769008.7708046,-3.52506,1.58704,0.19838,-0.908750115,0.346007415,0.15441855
1764769008.7708046,-3.52506,1.58704,0.19838,-0.908750115,0.346007415,0.15441855
1764769008.816347,-3.52506,1.58704,0.19838,-0.908750115,0.346007415,0.15441855
1764769008.816347,-3.52506,1.58704,0.19838,-0.908750115,0.346007415,0.15441855
1764769008.816347,-3.76922,1.6022999999999998,-0.12208,-0.90881115,0.346373625,0.154357515
1764769008.816347,-3.76922,1.6022999999999998,-0.12208,-0.90881115,0.346373625,0.154357515
1764769008.816347,-3.76922,1.6022999999999998,-0.12208,-0.90881115,0.346373625,0.154357515
1764769008.816347,-3.76922,1.6022999999999998,-0.12208,-0.90881115,0.346373625,0.154357515
1764769008.816347,-3.76922,1.6022999999999998,-0.12208,-0.90881115,0.346373625,0.154357515
1764769008.816347,-3.76922,1.6022999999999998,-0.12208,-0.90881115,0.346373625,0.154357515
1764769008.8168762,-3.76922,1.6022999999999998,-0.12208,-0.90881115,0.346373625,0.154357515
1764769008.8168762,-3.76922,1.6022999999999998,-0.12208,-0.90881115,0.346373625,0.154357515
1764769008.8168762,-3.76922,1.6022999999999998,-0.12208,-0.90881115,0.346373625,0.154357515
1764769008.8168762,-3.76922,1.6022999999999998,-0.12208,-0.90881115,0.346373625,0.154357515
1764769008.8168762,-4.36436,1.51074,0.3204599999999999,-0.90929943,0.34765536,0.154845795
1764769008.8168762,-4.36436,1.51074,0.3204599999999999,-0.90929943,0.34765536,0.154845795
1764769008.8168762,-4.36436,1.51074,0.3204599999999999,-0.90929943,0.34765536,0.154845795
1764769008.8168762,-4.36436,1.51074,0.3204599999999999,-0.90929943,0.34765536,0.154845795
1764769008.8168762,-4.36436,1.51074,0.3204599999999999,-0.90929943,0.34765536,0.154845795
1764769008.8168762,-4.36436,1.51074,0.3204599999999999,-0.90929943,0.34765536,0.154845795
1764769008.8168762,-4.36436,1.51074,0.3204599999999999,-0.90929943,0.34765536,0.154845795
1764769008.8168762,-4.36436,1.51074,0.3204599999999999,-0.90929943,0.34765536,0.154845795
1764769008.8168762,-4.36436,1.51074,0.3204599999999999,-0.90929943,0.34765536,0.154845795
1764769008.8168762,-4.36436,1.51074,0.3204599999999999,-0.90929943,0.34765536,0.154845795
1764769008.863632,-4.70008,1.72438,0.01526,-0.90954357,0.34777743,0.15466269
1764769008.863632,-4.70008,1.72438,0.01526,-0.90954357,0.34777743,0.15466269
1764769008.863632,-4.70008,1.72438,0.01526,-0.90954357,0.34777743,0.15466269
1764769008.863632,-4.70008,1.72438,0.01526,-0.90954357,0.34777743,0.15466269
1764769008.863632,-4.70008,1.72438,0.01526,-0.90954357,0.34777743,0.15466269
1764769008.863632,-4.70008,1.72438,0.01526,-0.90954357,0.34777743,0.15466269
1764769008.863632,-4.70008,1.72438,0.01526,-0.90954357,0.34777743,0.15466269
1764769008.863632,-4.70008,1.72438,0.01526,-0.90954357,0.34777743,0.15466269
1764769008.863632,-4.70008,1.72438,0.01526,-0.90954357,0.34777743,0.15466269
1764769008.863632,-4.70008,1.72438,0.01526,-0.90954357,0.34777743,0.15466269
1764769008.8646474,-4.7306,1.78542,0.27468,-0.91027599,0.34826571,0.154601655
1764769008.8646474,-4.7306,1.78542,0.27468,-0.91027599,0.34826571,0.154601655
1764769008.8646474,-4.7306,1.78542,0.27468,-0.91027599,0.34826571,0.154601655
1764769008.8646474,-4.7306,1.78542,0.27468,-0.91027599,0.34826571,0.154601655
1764769008.8646474,-4.7306,1.78542,0.27468,-0.91027599,0.34826571,0.154601655
1764769008.8646474,-4.7306,1.78542,0.27468,-0.91027599,0.34826571,0.154601655
1764769008.8646474,-4.7306,1.78542,0.27468,-0.91027599,0.34826571,0.154601655
1764769008.8646474,-4.7306,1.78542,0.27468,-0.91027599,0.34826571,0.154601655
1764769008.8646474,-4.7306,1.78542,0.27468,-0.91027599,0.34826571,0.154601655
1764769008.8646474,-4.7306,1.78542,0.27468,-0.91027599,0.34826571,0.154601655
1764769008.8651538,-5.14262,2.07536,-0.42728,-0.90990978,0.346861905,0.15478476
1764769008.8651538,-5.14262,2.07536,-0.42728,-0.90990978,0.346861905,0.15478476
1764769008.8651538,-5.14262,2.07536,-0.42728,-0.90990978,0.346861905,0.15478476
1764769008.8651538,-5.14262,2.07536,-0.42728,-0.90990978,0.346861905,0.15478476
1764769008.8651538,-5.14262,2.07536,-0.42728,-0.90990978,0.346861905,0.15478476
1764769008.8651538,-5.14262,2.07536,-0.42728,-0.90990978,0.346861905,0.15478476
1764769008.9113824,-5.14262,2.07536,-0.42728,-0.90990978,0.346861905,0.15478476
1764769008.9113824,-5.14262,2.07536,-0.42728,-0.90990978,0.346861905,0.15478476
1764769008.9113824,-5.14262,2.07536,-0.42728,-0.90990978,0.346861905,0.15478476
1764769008.9113824,-5.14262,2.07536,-0.42728,-0.90990978,0.346861905,0.15478476
1764769008.9113824,-4.33384,1.4039199999999998,0.36624,-0.910581165,0.34521396,0.15478476
1764769008.9113824,-4.33384,1.4039199999999998,0.36624,-0.910581165,0.34521396,0.15478476
1764769008.9113824,-4.33384,1.4039199999999998,0.36624,-0.910581165,0.34521396,0.15478476
1764769008.9113824,-4.33384,1.4039199999999998,0.36624,-0.910581165,0.34521396,0.15478476
1764769008.9113824,-4.33384,1.4039199999999998,0.36624,-0.910581165,0.34521396,0.15478476
1764769008.9113824,-4.33384,1.4039199999999998,0.36624,-0.910581165,0.34521396,0.15478476
1764769008.9113824,-4.33384,1.4039199999999998,0.36624,-0.910581165,0.34521396,0.15478476
1764769008.9113824,-4.33384,1.4039199999999998,0.36624,-0.910581165,0.34521396,0.15478476
1764769008.9113824,-4.33384,1.4039199999999998,0.36624,-0.910581165,0.34521396,0.15478476
1764769008.9113824,-4.33384,1.4039199999999998,0.36624,-0.910581165,0.34521396,0.15478476
1764769008.9113824,-4.51696,1.2208,0.4578,-0.910947375,0.344176365,0.155212005
1764769008.9113824,-4.51696,1.2208,0.4578,-0.910947375,0.344176365,0.155212005
1764769008.9113824,-4.51696,1.2208,0.4578,-0.910947375,0.344176365,0.155212005
1764769008.9113824,-4.51696,1.2208,0.4578,-0.910947375,0.344176365,0.155212005
1764769008.9113824,-4.51696,1.2208,0.4578,-0.910947375,0.344176365,0.155212005
1764769008.9113824,-4.51696,1.2208,0.4578,-0.910947375,0.344176365,0.155212005
1764769008.9113824,-4.51696,1.2208,0.4578,-0.910947375,0.344176365,0.155212005
1764769008.9113824,-4.51696,1.2208,0.4578,-0.910947375,0.344176365,0.155212005
1764769008.9584117,-4.51696,1.2208,0.4578,-0.910947375,0.344176365,0.155212005
1764769008.9584117,-4.51696,1.2208,0.4578,-0.910947375,0.344176365,0.155212005
1764769008.9584117,-4.62378,1.54126,0.73248,-0.910825305,0.344420505,0.15551718
1764769008.9584117,-4.62378,1.54126,0.73248,-0.910825305,0.344420505,0.15551718
1764769008.9584117,-4.62378,1.54126,0.73248,-0.910825305,0.344420505,0.15551718
1764769008.9584117,-4.62378,1.54126,0.73248,-0.910825305,0.344420505,0.15551718
1764769008.9584117,-4.62378,1.54126,0.73248,-0.910825305,0.344420505,0.15551718
1764769008.9584117,-4.62378,1.54126,0.73248,-0.910825305,0.344420505,0.15551718
1764769008.9584117,-4.62378,1.54126,0.73248,-0.910825305,0.344420505,0.15551718
1764769008.9584117,-4.62378,1.54126,0.73248,-0.910825305,0.344420505,0.15551718
1764769008.9584117,-4.62378,1.54126,0.73248,-0.910825305,0.344420505,0.15551718
1764769008.9584117,-4.62378,1.54126,0.73248,-0.910825305,0.344420505,0.15551718
1764769008.9584117,-4.6543,1.3734,1.26658,-0.911313585,0.344908785,0.154845795
1764769008.9584117,-4.6543,1.3734,1.26658,-0.911313585,0.344908785,0.154845795
1764769008.9584117,-4.6543,1.3734,1.26658,-0.911313585,0.344908785,0.154845795
1764769008.9584117,-4.6543,1.3734,1.26658,-0.911313585,0.344908785,0.154845795
1764769008.9584117,-4.6543,1.3734,1.26658,-0.911313585,0.344908785,0.154845795
1764769008.9584117,-4.6543,1.3734,1.26658,-0.911313585,0.344908785,0.154845795
1764769008.9584117,-4.6543,1.3734,1.26658,-0.911313585,0.344908785,0.154845795
1764769008.9584117,-4.6543,1.3734,1.26658,-0.911313585,0.344908785,0.154845795
1764769008.9584117,-4.6543,1.3734,1.26658,-0.911313585,0.344908785,0.154845795
1764769008.9584117,-4.6543,1.3734,1.26658,-0.911313585,0.344908785,0.154845795
1764769009.0054178,-5.15788,1.9075,0.73248,-0.91125255,0.345397065,0.155456145
1764769009.0054178,-5.15788,1.9075,0.73248,-0.91125255,0.345397065,0.155456145
1764769009.0054178,-5.15788,1.9075,0.73248,-0.91125255,0.345397065,0.155456145
1764769009.0054178,-5.15788,1.9075,0.73248,-0.91125255,0.345397065,0.155456145
1764769009.0054178,-5.15788,1.9075,0.73248,-0.91125255,0.345397065,0.155456145
1764769009.0054178,-5.15788,1.9075,0.73248,-0.91125255,0.345397065,0.155456145
1764769009.0054178,-5.15788,1.9075,0.73248,-0.91125255,0.345397065,0.155456145
1764769009.0054178,-5.15788,1.9075,0.73248,-0.91125255,0.345397065,0.155456145
1764769009.0054178,-5.15788,1.9075,0.73248,-0.91125255,0.345397065,0.155456145
1764769009.0054178,-5.15788,1.9075,0.73248,-0.91125255,0.345397065,0.155456145
1764769009.0054178,-4.08968,1.1445,0.44254,-0.911801865,0.346373625,0.155578215
1764769009.0054178,-4.08968,1.1445,0.44254,-0.911801865,0.346373625,0.155578215
1764769009.0054178,-4.08968,1.1445,0.44254,-0.911801865,0.346373625,0.155578215
1764769009.0054178,-4.08968,1.1445,0.44254,-0.911801865,0.346373625,0.155578215
1764769009.0054178,-4.08968,1.1445,0.44254,-0.911801865,0.346373625,0.155578215
1764769009.0054178,-4.08968,1.1445,0.44254,-0.911801865,0.346373625,0.155578215
1764769009.0054178,-4.08968,1.1445,0.44254,-0.911801865,0.346373625,0.155578215
1764769009.0054178,-4.08968,1.1445,0.44254,-0.911801865,0.346373625,0.155578215
1764769009.0054178,-4.08968,1.1445,0.44254,-0.911801865,0.346373625,0.155578215
1764769009.0054178,-4.08968,1.1445,0.44254,-0.911801865,0.346373625,0.155578215
1764769009.0054178,-4.89846,1.03768,0.19838,-0.91113048,0.34716708,0.1562496
1764769009.0054178,-4.89846,1.03768,0.19838,-0.91113048,0.34716708,0.1562496
1764769009.0054178,-4.89846,1.03768,0.19838,-0.91113048,0.34716708,0.1562496
1764769009.0054178,-4.89846,1.03768,0.19838,-0.91113048,0.34716708,0.1562496
1764769009.0511432,-4.89846,1.03768,0.19838,-0.91113048,0.34716708,0.1562496
1764769009.0511432,-4.89846,1.03768,0.19838,-0.91113048,0.34716708,0.1562496
1764769009.0511432,-4.89846,1.03768,0.19838,-0.91113048,0.34716708,0.1562496
1764769009.0511432,-4.89846,1.03768,0.19838,-0.91113048,0.34716708,0.1562496
1764769009.0511432,-4.89846,1.03768,0.19838,-0.91113048,0.34716708,0.1562496
1764769009.0511432,-4.89846,1.03768,0.19838,-0.91113048,0.34716708,0.1562496
1764769009.0511432,-5.82932,0.97664,0.42728,-0.909604605,0.34802157,0.15576132
1764769009.0511432,-5.82932,0.97664,0.42728,-0.909604605,0.34802157,0.15576132
1764769009.0511432,-5.82932,0.97664,0.42728,-0.909604605,0.34802157,0.15576132
1764769009.0511432,-5.82932,0.97664,0.42728,-0.909604605,0.34802157,0.15576132
1764769009.0511432,-5.82932,0.97664,0.42728,-0.909604605,0.34802157,0.15576132
1764769009.0511432,-5.82932,0.97664,0.42728,-0.909604605,0.34802157,0.15576132
1764769009.0511432,-5.82932,0.97664,0.42728,-0.909604605,0.34802157,0.15576132
1764769009.0511432,-5.82932,0.97664,0.42728,-0.909604605,0.34802157,0.15576132
1764769009.0511432,-5.82932,0.97664,0.42728,-0.909604605,0.34802157,0.15576132
1764769009.0511432,-5.82932,0.97664,0.42728,-0.909604605,0.34802157,0.15576132
1764769009.0511432,-6.027699999999999,0.51884,0.39676,-0.908994255,0.34655673,0.154479585
1764769009.0511432,-6.027699999999999,0.51884,0.39676,-0.908994255,0.34655673,0.154479585
1764769009.0511432,-6.027699999999999,0.51884,0.39676,-0.908994255,0.34655673,0.154479585
1764769009.0511432,-6.027699999999999,0.51884,0.39676,-0.908994255,0.34655673,0.154479585
1764769009.0511432,-6.027699999999999,0.51884,0.39676,-0.908994255,0.34655673,0.154479585
1764769009.0511432,-6.027699999999999,0.51884,0.39676,-0.908994255,0.34655673,0.154479585
1764769009.0511432,-6.027699999999999,0.51884,0.39676,-0.908994255,0.34655673,0.154479585
1764769009.0511432,-6.027699999999999,0.51884,0.39676,-0.908994255,0.34655673,0.154479585
1764769009.0980587,-6.027699999999999,0.51884,0.39676,-0.908994255,0.34655673,0.154479585
1764769009.0980587,-6.027699999999999,0.51884,0.39676,-0.908994255,0.34655673,0.154479585
1764769009.0980587,-5.32574,0.57988,0.48832,-0.909726675,0.34448154,0.15368613
1764769009.0980587,-5.32574,0.57988,0.48832,-0.909726675,0.34448154,0.15368613
1764769009.0980587,-5.32574,0.57988,0.48832,-0.909726675,0.34448154,0.15368613
1764769009.0980587,-5.32574,0.57988,0.48832,-0.909726675,0.34448154,0.15368613
1764769009.0980587,-5.32574,0.57988,0.48832,-0.909726675,0.34448154,0.15368613
1764769009.0980587,-5.32574,0.57988,0.48832,-0.909726675,0.34448154,0.15368613
1764769009.0980587,-5.32574,0.57988,0.48832,-0.909726675,0.34448154,0.15368613
1764769009.0980587,-5.32574,0.57988,0.48832,-0.909726675,0.34448154,0.15368613
1764769009.0980587,-5.32574,0.57988,0.48832,-0.909726675,0.34448154,0.15368613
1764769009.0980587,-5.32574,0.57988,0.48832,-0.909726675,0.34448154,0.15368613
1764769009.0980587,-4.303319999999999,0.77826,0.36624,-0.91052013,0.342711525,0.154357515
1764769009.0980587,-4.303319999999999,0.77826,0.36624,-0.91052013,0.342711525,0.154357515
1764769009.0980587,-4.303319999999999,0.77826,0.36624,-0.91052013,0.342711525,0.154357515
1764769009.0980587,-4.303319999999999,0.77826,0.36624,-0.91052013,0.342711525,0.154357515
1764769009.0980587,-4.303319999999999,0.77826,0.36624,-0.91052013,0.342711525,0.154357515
1764769009.0980587,-4.303319999999999,0.77826,0.36624,-0.91052013,0.342711525,0.154357515
1764769009.0980587,-4.303319999999999,0.77826,0.36624,-0.91052013,0.342711525,0.154357515
1764769009.0980587,-4.303319999999999,0.77826,0.36624,-0.91052013,0.342711525,0.154357515
1764769009.0980587,-4.303319999999999,0.77826,0.36624,-0.91052013,0.342711525,0.154357515
1764769009.0980587,-4.303319999999999,0.77826,0.36624,-0.91052013,0.342711525,0.154357515
1764769009.1447935,-3.00622,0.47306,0.48832,-0.91052013,0.34204014,0.1550289
1764769009.1447935,-3.00622,0.47306,0.48832,-0.91052013,0.34204014,0.1550289
1764769009.1447935,-3.00622,0.47306,0.48832,-0.91052013,0.34204014,0.1550289
1764769009.1447935,-3.00622,0.47306,0.48832,-0.91052013,0.34204014,0.1550289
1764769009.1447935,-3.00622,0.47306,0.48832,-0.91052013,0.34204014,0.1550289
1764769009.1447935,-3.00622,0.47306,0.48832,-0.91052013,0.34204014,0.1550289
1764769009.1447935,-3.00622,0.47306,0.48832,-0.91052013,0.34204014,0.1550289
1764769009.1454532,-3.00622,0.47306,0.48832,-0.91052013,0.34204014,0.1550289
1764769009.1454532,-3.00622,0.47306,0.48832,-0.91052013,0.34204014,0.1550289
1764769009.1454532,-3.00622,0.47306,0.48832,-0.91052013,0.34204014,0.1550289
1764769009.1454532,-2.60946,0.6867,0.97664,-0.910459095,0.34252842,0.15551718
1764769009.1454532,-2.60946,0.6867,0.97664,-0.910459095,0.34252842,0.15551718
1764769009.1454532,-2.60946,0.6867,0.97664,-0.910459095,0.34252842,0.15551718
1764769009.1454532,-2.60946,0.6867,0.97664,-0.910459095,0.34252842,0.15551718
1764769009.1454532,-2.60946,0.6867,0.97664,-0.910459095,0.34252842,0.15551718
1764769009.1454532,-2.60946,0.6867,0.97664,-0.910459095,0.34252842,0.15551718
1764769009.1454532,-2.60946,0.6867,0.97664,-0.910459095,0.34252842,0.15551718
1764769009.1454532,-2.60946,0.6867,0.97664,-0.910459095,0.34252842,0.15551718
1764769009.1454532,-2.60946,0.6867,0.97664,-0.910459095,0.34252842,0.15551718
1764769009.1454532,-2.60946,0.6867,0.97664,-0.910459095,0.34252842,0.15551718
1764769009.1454532,-2.9757,0.85456,0.28994,-0.9094215,0.344176365,0.155944425
1764769009.1454532,-2.9757,0.85456,0.28994,-0.9094215,0.344176365,0.155944425
1764769009.1454532,-2.9757,0.85456,0.28994,-0.9094215,0.344176365,0.155944425
1764769009.1454532,-2.9757,0.85456,0.28994,-0.9094215,0.344176365,0.155944425
1764769009.191144,-2.9757,0.85456,0.28994,-0.9094215,0.344176365,0.155944425
1764769009.191144,-2.9757,0.85456,0.28994,-0.9094215,0.344176365,0.155944425
1764769009.191144,-2.9757,0.85456,0.28994,-0.9094215,0.344176365,0.155944425
1764769009.191144,-2.9757,0.85456,0.28994,-0.9094215,0.344176365,0.155944425
1764769009.191144,-2.9757,0.85456,0.28994,-0.9094215,0.344176365,0.155944425
1764769009.191144,-2.9757,0.85456,0.28994,-0.9094215,0.344176365,0.155944425
1764769009.191144,-3.23512,0.9919,0.04578,-0.908261835,0.345152925,0.154723725
1764769009.191144,-3.23512,0.9919,0.04578,-0.908261835,0.345152925,0.154723725
1764769009.1921513,-3.23512,0.9919,0.04578,-0.908261835,0.345152925,0.154723725
1764769009.1921513,-3.23512,0.9919,0.04578,-0.908261835,0.345152925,0.154723725
1764769009.1921513,-3.23512,0.9919,0.04578,-0.908261835,0.345152925,0.154723725
1764769009.1921513,-3.23512,0.9919,0.04578,-0.908261835,0.345152925,0.154723725
1764769009.1921513,-3.23512,0.9919,0.04578,-0.908261835,0.345152925,0.154723725
1764769009.1921513,-3.23512,0.9919,0.04578,-0.908261835,0.345152925,0.154723725
1764769009.1921513,-3.23512,0.9919,0.04578,-0.908261835,0.345152925,0.154723725
1764769009.1921513,-3.23512,0.9919,0.04578,-0.908261835,0.345152925,0.154723725
1764769009.1921513,-3.54032,0.74774,0.1525999999999999,-0.90771252,0.34594638,0.154601655
1764769009.1921513,-3.54032,0.74774,0.1525999999999999,-0.90771252,0.34594638,0.154601655
1764769009.1921513,-3.54032,0.74774,0.1525999999999999,-0.90771252,0.34594638,0.154601655
1764769009.1921513,-3.54032,0.74774,0.1525999999999999,-0.90771252,0.34594638,0.154601655
1764769009.1921513,-3.54032,0.74774,0.1525999999999999,-0.90771252,0.34594638,0.154601655
1764769009.1921513,-3.54032,0.74774,0.1525999999999999,-0.90771252,0.34594638,0.154601655
1764769009.2347405,-3.54032,0.74774,0.1525999999999999,-0.90771252,0.34594638,0.154601655
1764769009.2347405,-3.54032,0.74774,0.1525999999999999,-0.90771252,0.34594638,0.154601655
1764769009.2347405,-3.54032,0.74774,0.1525999999999999,-0.90771252,0.34594638,0.154601655
1764769009.2347405,-3.54032,0.74774,0.1525999999999999,-0.90771252,0.34594638,0.154601655
1764769009.2347405,-4.99002,0.9003399999999999,-0.48832,-0.90795666,0.34814364,0.154479585
1764769009.2347405,-4.99002,0.9003399999999999,-0.48832,-0.90795666,0.34814364,0.154479585
1764769009.2347405,-4.99002,0.9003399999999999,-0.48832,-0.90795666,0.34814364,0.154479585
1764769009.2347405,-4.99002,0.9003399999999999,-0.48832,-0.90795666,0.34814364,0.154479585
1764769009.2347405,-4.99002,0.9003399999999999,-0.48832,-0.90795666,0.34814364,0.154479585
1764769009.2347405,-4.99002,0.9003399999999999,-0.48832,-0.90795666,0.34814364,0.154479585
1764769009.2347405,-4.99002,0.9003399999999999,-0.48832,-0.90795666,0.34814364,0.154479585
1764769009.2347405,-4.99002,0.9003399999999999,-0.48832,-0.90795666,0.34814364,0.154479585
1764769009.2347405,-4.99002,0.9003399999999999,-0.48832,-0.90795666,0.34814364,0.154479585
1764769009.2347405,-4.99002,0.9003399999999999,-0.48832,-0.90795666,0.34814364,0.154479585
1764769009.2347405,-5.5699,1.03768,-0.62566,-0.908750115,0.34899813,0.15417441
1764769009.2347405,-5.5699,1.03768,-0.62566,-0.908750115,0.34899813,0.15417441
1764769009.2347405,-5.5699,1.03768,-0.62566,-0.908750115,0.34899813,0.15417441
1764769009.2347405,-5.5699,1.03768,-0.62566,-0.908750115,0.34899813,0.15417441
1764769009.2347405,-5.5699,1.03768,-0.62566,-0.908750115,0.34899813,0.15417441
1764769009.2347405,-5.5699,1.03768,-0.62566,-0.908750115,0.34899813,0.15417441
1764769009.2347405,-5.5699,1.03768,-0.62566,-0.908750115,0.34899813,0.15417441
1764769009.2347405,-5.5699,1.03768,-0.62566,-0.908750115,0.34899813,0.15417441
1764769009.2347405,-5.5699,1.03768,-0.62566,-0.908750115,0.34899813,0.15417441
1764769009.2347405,-5.5699,1.03768,-0.62566,-0.908750115,0.34899813,0.15417441
1764769009.2814307,-6.14978,1.87698,-0.42728,-0.90856701,0.346617765,0.15490683
1764769009.2814307,-6.14978,1.87698,-0.42728,-0.90856701,0.346617765,0.15490683
1764769009.2814307,-6.14978,1.87698,-0.42728,-0.90856701,0.346617765,0.15490683
1764769009.2814307,-6.14978,1.87698,-0.42728,-0.90856701,0.346617765,0.15490683
1764769009.281941,-6.14978,1.87698,-0.42728,-0.90856701,0.346617765,0.15490683
1764769009.281941,-6.14978,1.87698,-0.42728,-0.90856701,0.346617765,0.15490683
1764769009.281941,-6.14978,1.87698,-0.42728,-0.90856701,0.346617765,0.15490683
1764769009.281941,-6.14978,1.87698,-0.42728,-0.90856701,0.346617765,0.15490683
1764769009.281941,-6.14978,1.87698,-0.42728,-0.90856701,0.346617765,0.15490683
1764769009.281941,-6.14978,1.87698,-0.42728,-0.90856701,0.346617765,0.15490683
1764769009.281941,-5.24944,1.61756,0.57988,-0.908383905,0.34374912,0.154845795
1764769009.281941,-5.24944,1.61756,0.57988,-0.908383905,0.34374912,0.154845795
1764769009.281941,-5.24944,1.61756,0.57988,-0.908383905,0.34374912,0.154845795
1764769009.281941,-5.24944,1.61756,0.57988,-0.908383905,0.34374912,0.154845795
1764769009.281941,-5.24944,1.61756,0.57988,-0.908383905,0.34374912,0.154845795
1764769009.281941,-5.24944,1.61756,0.57988,-0.908383905,0.34374912,0.154845795
1764769009.281941,-5.24944,1.61756,0.57988,-0.908383905,0.34374912,0.154845795
1764769009.281941,-5.24944,1.61756,0.57988,-0.908383905,0.34374912,0.154845795
1764769009.281941,-5.24944,1.61756,0.57988,-0.908383905,0.34374912,0.154845795
1764769009.281941,-5.24944,1.61756,0.57988,-0.908383905,0.34374912,0.154845795
1764769009.281941,-4.39488,1.05294,0.8392999999999999,-0.910459095,0.341490825,0.155456145
1764769009.281941,-4.39488,1.05294,0.8392999999999999,-0.910459095,0.341490825,0.155456145
1764769009.281941,-4.39488,1.05294,0.8392999999999999,-0.910459095,0.341490825,0.155456145
1764769009.281941,-4.39488,1.05294,0.8392999999999999,-0.910459095,0.341490825,0.155456145
1764769009.328727,-4.39488,1.05294,0.8392999999999999,-0.910459095,0.341490825,0.155456145
1764769009.328727,-4.39488,1.05294,0.8392999999999999,-0.910459095,0.341490825,0.155456145
1764769009.328727,-4.39488,1.05294,0.8392999999999999,-0.910459095,0.341490825,0.155456145
1764769009.328727,-4.39488,1.05294,0.8392999999999999,-0.910459095,0.341490825,0.155456145
1764769009.328727,-4.39488,1.05294,0.8392999999999999,-0.910459095,0.341490825,0.155456145
1764769009.328727,-4.39488,1.05294,0.8392999999999999,-0.910459095,0.341490825,0.155456145
1764769009.328727,-3.86078,0.6103999999999999,1.46496,-0.91100841,0.34155186,0.155456145
1764769009.328727,-3.86078,0.6103999999999999,1.46496,-0.91100841,0.34155186,0.155456145
1764769009.328727,-3.86078,0.6103999999999999,1.46496,-0.91100841,0.34155186,0.155456145
1764769009.328727,-3.86078,0.6103999999999999,1.46496,-0.91100841,0.34155186,0.155456145
1764769009.328727,-3.86078,0.6103999999999999,1.46496,-0.91100841,0.34155186,0.155456145
1764769009.328727,-3.86078,0.6103999999999999,1.46496,-0.91100841,0.34155186,0.155456145
1764769009.328727,-3.86078,0.6103999999999999,1.46496,-0.91100841,0.34155186,0.155456145
1764769009.328727,-3.86078,0.6103999999999999,1.46496,-0.91100841,0.34155186,0.155456145
1764769009.328727,-3.86078,0.6103999999999999,1.46496,-0.91100841,0.34155186,0.155456145
1764769009.328727,-3.86078,0.6103999999999999,1.46496,-0.91100841,0.34155186,0.155456145
1764769009.328727,-3.5861,1.02242,0.65618,-0.910947375,0.34069737,0.156920985
1764769009.328727,-3.5861,1.02242,0.65618,-0.910947375,0.34069737,0.156920985
1764769009.328727,-3.5861,1.02242,0.65618,-0.910947375,0.34069737,0.156920985
1764769009.328727,-3.5861,1.02242,0.65618,-0.910947375,0.34069737,0.156920985
1764769009.328727,-3.5861,1.02242,0.65618,-0.910947375,0.34069737,0.156920985
1764769009.328727,-3.5861,1.02242,0.65618,-0.910947375,0.34069737,0.156920985
1764769009.374655,-3.5861,1.02242,0.65618,-0.910947375,0.34069737,0.156920985
1764769009.374655,-3.5861,1.02242,0.65618,-0.910947375,0.34069737,0.156920985
1764769009.374655,-3.5861,1.02242,0.65618,-0.910947375,0.34069737,0.156920985
1764769009.374655,-3.5861,1.02242,0.65618,-0.910947375,0.34069737,0.156920985
1764769009.374655,-2.85362,1.00716,1.25132,-0.910581165,0.341857035,0.1574703
1764769009.374655,-2.85362,1.00716,1.25132,-0.910581165,0.341857035,0.1574703
1764769009.374655,-2.85362,1.00716,1.25132,-0.910581165,0.341857035,0.1574703
1764769009.374655,-2.85362,1.00716,1.25132,-0.910581165,0.341857035,0.1574703
1764769009.374655,-2.85362,1.00716,1.25132,-0.910581165,0.341857035,0.1574703
1764769009.374655,-2.85362,1.00716,1.25132,-0.910581165,0.341857035,0.1574703
1764769009.374655,-2.85362,1.00716,1.25132,-0.910581165,0.341857035,0.1574703
1764769009.374655,-2.85362,1.00716,1.25132,-0.910581165,0.341857035,0.1574703
1764769009.374655,-2.85362,1.00716,1.25132,-0.910581165,0.341857035,0.1574703
1764769009.374655,-2.85362,1.00716,1.25132,-0.910581165,0.341857035,0.1574703
1764769009.374655,-3.93708,0.79352,0.48832,-0.910459095,0.34521396,0.157043055
1764769009.374655,-3.93708,0.79352,0.48832,-0.910459095,0.34521396,0.157043055
1764769009.374655,-3.93708,0.79352,0.48832,-0.910459095,0.34521396,0.157043055
1764769009.374655,-3.93708,0.79352,0.48832,-0.910459095,0.34521396,0.157043055
1764769009.374655,-3.93708,0.79352,0.48832,-0.910459095,0.34521396,0.157043055
1764769009.374655,-3.93708,0.79352,0.48832,-0.910459095,0.34521396,0.157043055
1764769009.374655,-3.93708,0.79352,0.48832,-0.910459095,0.34521396,0.157043055
1764769009.374655,-3.93708,0.79352,0.48832,-0.910459095,0.34521396,0.157043055
1764769009.3758278,-3.93708,0.79352,0.48832,-0.910459095,0.34521396,0.157043055
1764769009.3758278,-3.93708,0.79352,0.48832,-0.910459095,0.34521396,0.157043055
1764769009.4218738,-4.60852,1.05294,0.6409199999999999,-0.909360465,0.347838465,0.154967865
1764769009.4218738,-4.60852,1.05294,0.6409199999999999,-0.909360465,0.347838465,0.154967865
1764769009.4218738,-4.60852,1.05294,0.6409199999999999,-0.909360465,0.347838465,0.154967865
1764769009.4218738,-4.60852,1.05294,0.6409199999999999,-0.909360465,0.347838465,0.154967865
1764769009.4218738,-4.60852,1.05294,0.6409199999999999,-0.909360465,0.347838465,0.154967865
1764769009.4218738,-4.60852,1.05294,0.6409199999999999,-0.909360465,0.347838465,0.154967865
1764769009.4218738,-4.60852,1.05294,0.6409199999999999,-0.909360465,0.347838465,0.154967865
1764769009.4218738,-4.60852,1.05294,0.6409199999999999,-0.909360465,0.347838465,0.154967865
1764769009.4218738,-4.60852,1.05294,0.6409199999999999,-0.909360465,0.347838465,0.154967865
1764769009.4218738,-4.60852,1.05294,0.6409199999999999,-0.909360465,0.347838465,0.154967865
1764769009.4218738,-4.74586,0.93086,0.3051999999999999,-0.90917736,0.34887606,0.153991305
1764769009.4218738,-4.74586,0.93086,0.3051999999999999,-0.90917736,0.34887606,0.153991305
1764769009.4218738,-4.74586,0.93086,0.3051999999999999,-0.90917736,0.34887606,0.153991305
1764769009.4218738,-4.74586,0.93086,0.3051999999999999,-0.90917736,0.34887606,0.153991305
1764769009.4218738,-4.74586,0.93086,0.3051999999999999,-0.90917736,0.34887606,0.153991305
1764769009.4218738,-4.74586,0.93086,0.3051999999999999,-0.90917736,0.34887606,0.153991305
1764769009.4218738,-4.74586,0.93086,0.3051999999999999,-0.90917736,0.34887606,0.153991305
1764769009.4228852,-4.74586,0.93086,0.3051999999999999,-0.90917736,0.34887606,0.153991305
1764769009.4228852,-4.74586,0.93086,0.3051999999999999,-0.90917736,0.34887606,0.153991305
1764769009.4228852,-4.74586,0.93086,0.3051999999999999,-0.90917736,0.34887606,0.153991305
1764769009.4228852,-5.096839999999999,1.46496,0.57988,-0.908505975,0.34850985,0.15356406
1764769009.4228852,-5.096839999999999,1.46496,0.57988,-0.908505975,0.34850985,0.15356406
1764769009.465721,-5.096839999999999,1.46496,0.57988,-0.908505975,0.34850985,0.15356406
1764769009.465721,-5.096839999999999,1.46496,0.57988,-0.908505975,0.34850985,0.15356406
1764769009.465721,-5.096839999999999,1.46496,0.57988,-0.908505975,0.34850985,0.15356406
1764769009.465721,-5.096839999999999,1.46496,0.57988,-0.908505975,0.34850985,0.15356406
1764769009.465721,-5.096839999999999,1.46496,0.57988,-0.908505975,0.34850985,0.15356406
1764769009.465721,-5.096839999999999,1.46496,0.57988,-0.908505975,0.34850985,0.15356406
1764769009.465721,-5.096839999999999,1.46496,0.57988,-0.908505975,0.34850985,0.15356406
1764769009.465721,-5.096839999999999,1.46496,0.57988,-0.908505975,0.34850985,0.15356406
1764769009.4667332,-4.6543,1.4039199999999998,0.13734,-0.90868908,0.346251555,0.155089935
1764769009.4667332,-4.6543,1.4039199999999998,0.13734,-0.90868908,0.346251555,0.155089935
1764769009.4667332,-4.6543,1.4039199999999998,0.13734,-0.90868908,0.346251555,0.155089935
1764769009.4667332,-4.6543,1.4039199999999998,0.13734,-0.90868908,0.346251555,0.155089935
1764769009.4667332,-4.6543,1.4039199999999998,0.13734,-0.90868908,0.346251555,0.155089935
1764769009.4667332,-4.6543,1.4039199999999998,0.13734,-0.90868908,0.346251555,0.155089935
1764769009.4667332,-4.6543,1.4039199999999998,0.13734,-0.90868908,0.346251555,0.155089935
1764769009.4667332,-4.6543,1.4039199999999998,0.13734,-0.90868908,0.346251555,0.155089935
1764769009.4667332,-4.6543,1.4039199999999998,0.13734,-0.90868908,0.346251555,0.155089935
1764769009.4667332,-4.6543,1.4039199999999998,0.13734,-0.90868908,0.346251555,0.155089935
1764769009.4667332,-4.33384,0.79352,-0.1678599999999999,-0.909970815,0.345641205,0.15649374
1764769009.4667332,-4.33384,0.79352,-0.1678599999999999,-0.909970815,0.345641205,0.15649374
1764769009.4677308,-4.33384,0.79352,-0.1678599999999999,-0.909970815,0.345641205,0.15649374
1764769009.4677308,-4.33384,0.79352,-0.1678599999999999,-0.909970815,0.345641205,0.15649374
1764769009.4677308,-4.33384,0.79352,-0.1678599999999999,-0.909970815,0.345641205,0.15649374
1764769009.4677308,-4.33384,0.79352,-0.1678599999999999,-0.909970815,0.345641205,0.15649374
1764769009.5180843,-4.33384,0.79352,-0.1678599999999999,-0.909970815,0.345641205,0.15649374
1764769009.5180843,-4.33384,0.79352,-0.1678599999999999,-0.909970815,0.345641205,0.15649374
1764769009.5180843,-4.33384,0.79352,-0.1678599999999999,-0.909970815,0.345641205,0.15649374
1764769009.5180843,-4.33384,0.79352,-0.1678599999999999,-0.909970815,0.345641205,0.15649374
1764769009.5180843,-4.31858,0.6867,-0.01526,-0.91015392,0.34521396,0.15649374
1764769009.5180843,-4.31858,0.6867,-0.01526,-0.91015392,0.34521396,0.15649374
1764769009.5180843,-4.31858,0.6867,-0.01526,-0.91015392,0.34521396,0.15649374
1764769009.5180843,-4.31858,0.6867,-0.01526,-0.91015392,0.34521396,0.15649374
1764769009.5180843,-4.31858,0.6867,-0.01526,-0.91015392,0.34521396,0.15649374
1764769009.5180843,-4.31858,0.6867,-0.01526,-0.91015392,0.34521396,0.15649374
1764769009.5180843,-4.31858,0.6867,-0.01526,-0.91015392,0.34521396,0.15649374
1764769009.5180843,-4.31858,0.6867,-0.01526,-0.91015392,0.34521396,0.15649374
1764769009.5180843,-4.31858,0.6867,-0.01526,-0.91015392,0.34521396,0.15649374
1764769009.5180843,-4.31858,0.6867,-0.01526,-0.91015392,0.34521396,0.15649374
1764769009.5180843,-4.24228,0.77826,-0.09156,-0.910825305,0.34448154,0.156798915
1764769009.5180843,-4.24228,0.77826,-0.09156,-0.910825305,0.34448154,0.156798915
1764769009.5180843,-4.24228,0.77826,-0.09156,-0.910825305,0.34448154,0.156798915
1764769009.5180843,-4.24228,0.77826,-0.09156,-0.910825305,0.34448154,0.156798915
1764769009.5180843,-4.24228,0.77826,-0.09156,-0.910825305,0.34448154,0.156798915
1764769009.5180843,-4.24228,0.77826,-0.09156,-0.910825305,0.34448154,0.156798915
1764769009.5180843,-4.24228,0.77826,-0.09156,-0.910825305,0.34448154,0.156798915
1764769009.5180843,-4.24228,0.77826,-0.09156,-0.910825305,0.34448154,0.156798915
1764769009.5180843,-4.24228,0.77826,-0.09156,-0.910825305,0.34448154,0.156798915
1764769009.5180843,-4.24228,0.77826,-0.09156,-0.910825305,0.34448154,0.156798915
1764769009.5622118,-3.79974,1.05294,0.06104,-0.910581165,0.344542575,0.155700285
1764769009.5622118,-3.79974,1.05294,0.06104,-0.910581165,0.344542575,0.155700285
1764769009.5622118,-3.79974,1.05294,0.06104,-0.910581165,0.344542575,0.155700285
1764769009.5622118,-3.79974,1.05294,0.06104,-0.910581165,0.344542575,0.155700285
1764769009.5622118,-3.79974,1.05294,0.06104,-0.910581165,0.344542575,0.155700285
1764769009.5622118,-3.79974,1.05294,0.06104,-0.910581165,0.344542575,0.155700285
1764769009.5622118,-3.79974,1.05294,0.06104,-0.910581165,0.344542575,0.155700285
1764769009.5622118,-3.79974,1.05294,0.06104,-0.910581165,0.344542575,0.155700285
1764769009.5622118,-3.79974,1.05294,0.06104,-0.910581165,0.344542575,0.155700285
1764769009.5622118,-3.79974,1.05294,0.06104,-0.910581165,0.344542575,0.155700285
1764769009.5622118,-3.61662,1.2055399999999998,0.04578,-0.910214955,0.344542575,0.154723725
1764769009.5622118,-3.61662,1.2055399999999998,0.04578,-0.910214955,0.344542575,0.154723725
1764769009.5622118,-3.61662,1.2055399999999998,0.04578,-0.910214955,0.344542575,0.154723725
1764769009.5622118,-3.61662,1.2055399999999998,0.04578,-0.910214955,0.344542575,0.154723725
1764769009.5622118,-3.61662,1.2055399999999998,0.04578,-0.910214955,0.344542575,0.154723725
1764769009.5622118,-3.61662,1.2055399999999998,0.04578,-0.910214955,0.344542575,0.154723725
1764769009.5622118,-3.61662,1.2055399999999998,0.04578,-0.910214955,0.344542575,0.154723725
1764769009.5622118,-3.61662,1.2055399999999998,0.04578,-0.910214955,0.344542575,0.154723725
1764769009.5622118,-3.61662,1.2055399999999998,0.04578,-0.910214955,0.344542575,0.154723725
1764769009.5622118,-3.61662,1.2055399999999998,0.04578,-0.910214955,0.344542575,0.154723725
1764769009.5622118,-3.5098,0.97664,0.21364,-0.910214955,0.344176365,0.154357515
1764769009.5622118,-3.5098,0.97664,0.21364,-0.910214955,0.344176365,0.154357515
1764769009.6090846,-3.5098,0.97664,0.21364,-0.910214955,0.344176365,0.154357515
1764769009.6090846,-3.5098,0.97664,0.21364,-0.910214955,0.344176365,0.154357515
1764769009.6090846,-3.5098,0.97664,0.21364,-0.910214955,0.344176365,0.154357515
1764769009.6090846,-3.5098,0.97664,0.21364,-0.910214955,0.344176365,0.154357515
1764769009.6090846,-3.5098,0.97664,0.21364,-0.910214955,0.344176365,0.154357515
1764769009.6090846,-3.5098,0.97664,0.21364,-0.910214955,0.344176365,0.154357515
1764769009.6090846,-3.5098,0.97664,0.21364,-0.910214955,0.344176365,0.154357515
1764769009.6090846,-3.5098,0.97664,0.21364,-0.910214955,0.344176365,0.154357515
1764769009.6090846,-3.03674,0.82404,0.27468,-0.910214955,0.343199805,0.15466269
1764769009.6090846,-3.03674,0.82404,0.27468,-0.910214955,0.343199805,0.15466269
1764769009.6090846,-3.03674,0.82404,0.27468,-0.910214955,0.343199805,0.15466269
1764769009.6090846,-3.03674,0.82404,0.27468,-0.910214955,0.343199805,0.15466269
1764769009.6090846,-3.03674,0.82404,0.27468,-0.910214955,0.343199805,0.15466269
1764769009.6090846,-3.03674,0.82404,0.27468,-0.910214955,0.343199805,0.15466269
1764769009.6090846,-3.03674,0.82404,0.27468,-0.910214955,0.343199805,0.15466269
1764769009.6090846,-3.03674,0.82404,0.27468,-0.910214955,0.343199805,0.15466269
1764769009.6090846,-3.03674,0.82404,0.27468,-0.910214955,0.343199805,0.15466269
1764769009.6090846,-3.03674,0.82404,0.27468,-0.910214955,0.343199805,0.15466269
1764769009.6090846,-2.45686,0.77826,0.77826,-0.91027599,0.34387119,0.15563925
1764769009.6090846,-2.45686,0.77826,0.77826,-0.91027599,0.34387119,0.15563925
1764769009.6090846,-2.45686,0.77826,0.77826,-0.91027599,0.34387119,0.15563925
1764769009.6090846,-2.45686,0.77826,0.77826,-0.91027599,0.34387119,0.15563925
1764769009.6555955,-2.45686,0.77826,0.77826,-0.91027599,0.34387119,0.15563925
1764769009.6555955,-2.45686,0.77826,0.77826,-0.91027599,0.34387119,0.15563925
1764769009.6555955,-2.45686,0.77826,0.77826,-0.91027599,0.34387119,0.15563925
1764769009.6555955,-2.45686,0.77826,0.77826,-0.91027599,0.34387119,0.15563925
1764769009.6555955,-2.45686,0.77826,0.77826,-0.91027599,0.34387119,0.15563925
1764769009.6555955,-2.45686,0.77826,0.77826,-0.91027599,0.34387119,0.15563925
1764769009.6555955,-2.30426,0.79352,0.57988,-0.910459095,0.34496982,0.15563925
1764769009.6555955,-2.30426,0.79352,0.57988,-0.910459095,0.34496982,0.15563925
1764769009.6555955,-2.30426,0.79352,0.57988,-0.910459095,0.34496982,0.15563925
1764769009.656603,-2.30426,0.79352,0.57988,-0.910459095,0.34496982,0.15563925
1764769009.656603,-2.30426,0.79352,0.57988,-0.910459095,0.34496982,0.15563925
1764769009.656603,-2.30426,0.79352,0.57988,-0.910459095,0.34496982,0.15563925
1764769009.656603,-2.30426,0.79352,0.57988,-0.910459095,0.34496982,0.15563925
1764769009.656603,-2.30426,0.79352,0.57988,-0.910459095,0.34496982,0.15563925
1764769009.656603,-2.30426,0.79352,0.57988,-0.910459095,0.34496982,0.15563925
1764769009.656603,-2.30426,0.79352,0.57988,-0.910459095,0.34496982,0.15563925
1764769009.656603,-3.32668,1.09872,0.3815,-0.909970815,0.346251555,0.155822355
1764769009.656603,-3.32668,1.09872,0.3815,-0.909970815,0.346251555,0.155822355
1764769009.656603,-3.32668,1.09872,0.3815,-0.909970815,0.346251555,0.155822355
1764769009.656603,-3.32668,1.09872,0.3815,-0.909970815,0.346251555,0.155822355
1764769009.656603,-3.32668,1.09872,0.3815,-0.909970815,0.346251555,0.155822355
1764769009.656603,-3.32668,1.09872,0.3815,-0.909970815,0.346251555,0.155822355
1764769009.656603,-3.32668,1.09872,0.3815,-0.909970815,0.346251555,0.155822355
1764769009.656603,-3.32668,1.09872,0.3815,-0.909970815,0.346251555,0.155822355
1764769009.656603,-3.32668,1.09872,0.3815,-0.909970815,0.346251555,0.155822355
1764769009.656603,-3.32668,1.09872,0.3815,-0.909970815,0.346251555,0.155822355
1764769009.702993,-2.99096,0.77826,0.51884,-0.909848745,0.346739835,0.155212005
1764769009.702993,-2.99096,0.77826,0.51884,-0.909848745,0.346739835,0.155212005
1764769009.702993,-2.99096,0.77826,0.51884,-0.909848745,0.346739835,0.155212005
1764769009.702993,-2.99096,0.77826,0.51884,-0.909848745,0.346739835,0.155212005
1764769009.7035036,-2.99096,0.77826,0.51884,-0.909848745,0.346739835,0.155212005
1764769009.7035036,-2.99096,0.77826,0.51884,-0.909848745,0.346739835,0.155212005
1764769009.7035036,-2.99096,0.77826,0.51884,-0.909848745,0.346739835,0.155212005
1764769009.7035036,-2.99096,0.77826,0.51884,-0.909848745,0.346739835,0.155212005
1764769009.7035036,-2.99096,0.77826,0.51884,-0.909848745,0.346739835,0.155212005
1764769009.7035036,-2.99096,0.77826,0.51884,-0.909848745,0.346739835,0.155212005
1764769009.7035036,-3.86078,0.47306,0.6867,-0.9094215,0.34692294,0.15478476
1764769009.7035036,-3.86078,0.47306,0.6867,-0.9094215,0.34692294,0.15478476
1764769009.7035036,-3.86078,0.47306,0.6867,-0.9094215,0.34692294,0.15478476
1764769009.7035036,-3.86078,0.47306,0.6867,-0.9094215,0.34692294,0.15478476
1764769009.7035036,-3.86078,0.47306,0.6867,-0.9094215,0.34692294,0.15478476
1764769009.7035036,-3.86078,0.47306,0.6867,-0.9094215,0.34692294,0.15478476
1764769009.7035036,-3.86078,0.47306,0.6867,-0.9094215,0.34692294,0.15478476
1764769009.7035036,-3.86078,0.47306,0.6867,-0.9094215,0.34692294,0.15478476
1764769009.7035036,-3.86078,0.47306,0.6867,-0.9094215,0.34692294,0.15478476
1764769009.7035036,-3.86078,0.47306,0.6867,-0.9094215,0.34692294,0.15478476
1764769009.7035036,-3.23512,0.36624,0.6867,-0.909238395,0.346373625,0.15515097
1764769009.7035036,-3.23512,0.36624,0.6867,-0.909238395,0.346373625,0.15515097
1764769009.750348,-3.23512,0.36624,0.6867,-0.909238395,0.346373625,0.15515097
1764769009.750348,-3.23512,0.36624,0.6867,-0.909238395,0.346373625,0.15515097
1764769009.750348,-3.23512,0.36624,0.6867,-0.909238395,0.346373625,0.15515097
1764769009.750348,-3.23512,0.36624,0.6867,-0.909238395,0.346373625,0.15515097
1764769009.750348,-3.23512,0.36624,0.6867,-0.909238395,0.346373625,0.15515097
1764769009.750348,-3.23512,0.36624,0.6867,-0.909238395,0.346373625,0.15515097
1764769009.750348,-3.23512,0.36624,0.6867,-0.909238395,0.346373625,0.15515097
1764769009.750348,-3.23512,0.36624,0.6867,-0.909238395,0.346373625,0.15515097
1764769009.750348,-3.67766,0.24416,1.38866,-0.908994255,0.34570224,0.15539511
1764769009.750348,-3.67766,0.24416,1.38866,-0.908994255,0.34570224,0.15539511
1764769009.750348,-3.67766,0.24416,1.38866,-0.908994255,0.34570224,0.15539511
1764769009.750348,-3.67766,0.24416,1.38866,-0.908994255,0.34570224,0.15539511
1764769009.750348,-3.67766,0.24416,1.38866,-0.908994255,0.34570224,0.15539511
1764769009.750348,-3.67766,0.24416,1.38866,-0.908994255,0.34570224,0.15539511
1764769009.750348,-3.67766,0.24416,1.38866,-0.908994255,0.34570224,0.15539511
1764769009.750348,-3.67766,0.24416,1.38866,-0.908994255,0.34570224,0.15539511
1764769009.750348,-3.67766,0.24416,1.38866,-0.908994255,0.34570224,0.15539511
1764769009.750348,-3.67766,0.24416,1.38866,-0.908994255,0.34570224,0.15539511
1764769009.750348,-3.2809,0.59514,1.63282,-0.909604605,0.345397065,0.15539511
1764769009.750348,-3.2809,0.59514,1.63282,-0.909604605,0.345397065,0.15539511
1764769009.750348,-3.2809,0.59514,1.63282,-0.909604605,0.345397065,0.15539511
1764769009.750348,-3.2809,0.59514,1.63282,-0.909604605,0.345397065,0.15539511
1764769009.750348,-3.2809,0.59514,1.63282,-0.909604605,0.345397065,0.15539511
1764769009.750348,-3.2809,0.59514,1.63282,-0.909604605,0.345397065,0.15539511
1764769009.7968538,-3.2809,0.59514,1.63282,-0.909604605,0.345397065,0.15539511
1764769009.7968538,-3.2809,0.59514,1.63282,-0.909604605,0.345397065,0.15539511
1764769009.7968538,-3.2809,0.59514,1.63282,-0.909604605,0.345397065,0.15539511
1764769009.7968538,-3.2809,0.59514,1.63282,-0.909604605,0.345397065,0.15539511
1764769009.7968538,-3.6624,0.74774,1.8312,-0.909116325,0.34533603,0.15539511
1764769009.7968538,-3.6624,0.74774,1.8312,-0.909116325,0.34533603,0.15539511
1764769009.7968538,-3.6624,0.74774,1.8312,-0.909116325,0.34533603,0.15539511
1764769009.7968538,-3.6624,0.74774,1.8312,-0.909116325,0.34533603,0.15539511
1764769009.7968538,-3.6624,0.74774,1.8312,-0.909116325,0.34533603,0.15539511
1764769009.7968538,-3.6624,0.74774,1.8312,-0.909116325,0.34533603,0.15539511
1764769009.7968538,-3.6624,0.74774,1.8312,-0.909116325,0.34533603,0.15539511
1764769009.7968538,-3.6624,0.74774,1.8312,-0.909116325,0.34533603,0.15539511
1764769009.7968538,-3.6624,0.74774,1.8312,-0.909116325,0.34533603,0.15539511
1764769009.7968538,-3.6624,0.74774,1.8312,-0.909116325,0.34533603,0.15539511
1764769009.7968538,-3.99812,1.34288,1.526,-0.91027599,0.34619052,0.15527304
1764769009.7978537,-3.99812,1.34288,1.526,-0.91027599,0.34619052,0.15527304
1764769009.7978537,-3.99812,1.34288,1.526,-0.91027599,0.34619052,0.15527304
1764769009.7978537,-3.99812,1.34288,1.526,-0.91027599,0.34619052,0.15527304
1764769009.7978537,-3.99812,1.34288,1.526,-0.91027599,0.34619052,0.15527304
1764769009.7978537,-3.99812,1.34288,1.526,-0.91027599,0.34619052,0.15527304
1764769009.7978537,-3.99812,1.34288,1.526,-0.91027599,0.34619052,0.15527304
1764769009.7978537,-3.99812,1.34288,1.526,-0.91027599,0.34619052,0.15527304
1764769009.8449862,-3.99812,1.34288,1.526,-0.91027599,0.34619052,0.15527304
1764769009.8449862,-3.99812,1.34288,1.526,-0.91027599,0.34619052,0.15527304
1764769009.8449862,-3.98286,1.08346,2.19744,-0.910214955,0.347106045,0.155700285
1764769009.8449862,-3.98286,1.08346,2.19744,-0.910214955,0.347106045,0.155700285
1764769009.8449862,-3.98286,1.08346,2.19744,-0.910214955,0.347106045,0.155700285
1764769009.8449862,-3.98286,1.08346,2.19744,-0.910214955,0.347106045,0.155700285
1764769009.8449862,-3.98286,1.08346,2.19744,-0.910214955,0.347106045,0.155700285
1764769009.8449862,-3.98286,1.08346,2.19744,-0.910214955,0.347106045,0.155700285
1764769009.8449862,-3.98286,1.08346,2.19744,-0.910214955,0.347106045,0.155700285
1764769009.8449862,-3.98286,1.08346,2.19744,-0.910214955,0.347106045,0.155700285
1764769009.8449862,-3.98286,1.08346,2.19744,-0.910214955,0.347106045,0.155700285
1764769009.8449862,-3.98286,1.08346,2.19744,-0.910214955,0.347106045,0.155700285
1764769009.8449862,-3.76922,0.9003399999999999,1.92276,-0.91015392,0.346983975,0.155822355
1764769009.8449862,-3.76922,0.9003399999999999,1.92276,-0.91015392,0.346983975,0.155822355
1764769009.8449862,-3.76922,0.9003399999999999,1.92276,-0.91015392,0.346983975,0.155822355
1764769009.8449862,-3.76922,0.9003399999999999,1.92276,-0.91015392,0.346983975,0.155822355
1764769009.8449862,-3.76922,0.9003399999999999,1.92276,-0.91015392,0.346983975,0.155822355
1764769009.8449862,-3.76922,0.9003399999999999,1.92276,-0.91015392,0.346983975,0.155822355
1764769009.8449862,-3.76922,0.9003399999999999,1.92276,-0.91015392,0.346983975,0.155822355
1764769009.8449862,-3.76922,0.9003399999999999,1.92276,-0.91015392,0.346983975,0.155822355
1764769009.8449862,-3.76922,0.9003399999999999,1.92276,-0.91015392,0.346983975,0.155822355
1764769009.8449862,-3.76922,0.9003399999999999,1.92276,-0.91015392,0.346983975,0.155822355
1764769009.8449862,-3.4335,1.25132,1.51074,-0.910214955,0.34741122,0.15588339
1764769009.8449862,-3.4335,1.25132,1.51074,-0.910214955,0.34741122,0.15588339
1764769009.8883858,-3.4335,1.25132,1.51074,-0.910214955,0.34741122,0.15588339
1764769009.8883858,-3.4335,1.25132,1.51074,-0.910214955,0.34741122,0.15588339
1764769009.8883858,-3.4335,1.25132,1.51074,-0.910214955,0.34741122,0.15588339
1764769009.8883858,-3.4335,1.25132,1.51074,-0.910214955,0.34741122,0.15588339
1764769009.8883858,-3.4335,1.25132,1.51074,-0.910214955,0.34741122,0.15588339
1764769009.8883858,-3.4335,1.25132,1.51074,-0.910214955,0.34741122,0.15588339
1764769009.8883858,-3.4335,1.25132,1.51074,-0.910214955,0.34741122,0.15588339
1764769009.8883858,-3.4335,1.25132,1.51074,-0.910214955,0.34741122,0.15588339
1764769009.8899555,-3.86078,0.8698199999999999,1.61756,-0.909970815,0.34899813,0.15612753
1764769009.8899555,-3.86078,0.8698199999999999,1.61756,-0.909970815,0.34899813,0.15612753
1764769009.8899555,-3.86078,0.8698199999999999,1.61756,-0.909970815,0.34899813,0.15612753
1764769009.8899555,-3.86078,0.8698199999999999,1.61756,-0.909970815,0.34899813,0.15612753
1764769009.8899555,-3.86078,0.8698199999999999,1.61756,-0.909970815,0.34899813,0.15612753
1764769009.8899555,-3.86078,0.8698199999999999,1.61756,-0.909970815,0.34899813,0.15612753
1764769009.8899555,-3.86078,0.8698199999999999,1.61756,-0.909970815,0.34899813,0.15612753
1764769009.8899555,-3.86078,0.8698199999999999,1.61756,-0.909970815,0.34899813,0.15612753
1764769009.8899555,-3.86078,0.8698199999999999,1.61756,-0.909970815,0.34899813,0.15612753
1764769009.8899555,-3.86078,0.8698199999999999,1.61756,-0.909970815,0.34899813,0.15612753
1764769009.890319,-4.25754,1.23606,1.48022,-0.90905529,0.349669515,0.15490683
1764769009.890319,-4.25754,1.23606,1.48022,-0.90905529,0.349669515,0.15490683
1764769009.890319,-4.25754,1.23606,1.48022,-0.90905529,0.349669515,0.15490683
1764769009.890319,-4.25754,1.23606,1.48022,-0.90905529,0.349669515,0.15490683
1764769009.890319,-4.25754,1.23606,1.48022,-0.90905529,0.349669515,0.15490683
1764769009.890319,-4.25754,1.23606,1.48022,-0.90905529,0.349669515,0.15490683
1764769009.9359126,-4.25754,1.23606,1.48022,-0.90905529,0.349669515,0.15490683
1764769009.9359126,-4.25754,1.23606,1.48022,-0.90905529,0.349669515,0.15490683
1764769009.9359126,-4.25754,1.23606,1.48022,-0.90905529,0.349669515,0.15490683
1764769009.9359126,-4.25754,1.23606,1.48022,-0.90905529,0.349669515,0.15490683
1764769009.9359126,-4.63904,0.7019599999999999,1.57178,-0.90881115,0.348448815,0.154357515
1764769009.9359126,-4.63904,0.7019599999999999,1.57178,-0.90881115,0.348448815,0.154357515
1764769009.9369218,-4.63904,0.7019599999999999,1.57178,-0.90881115,0.348448815,0.154357515
1764769009.9369218,-4.63904,0.7019599999999999,1.57178,-0.90881115,0.348448815,0.154357515
1764769009.9369218,-4.63904,0.7019599999999999,1.57178,-0.90881115,0.348448815,0.154357515
1764769009.9369218,-4.63904,0.7019599999999999,1.57178,-0.90881115,0.348448815,0.154357515
1764769009.9369218,-4.63904,0.7019599999999999,1.57178,-0.90881115,0.348448815,0.154357515
1764769009.9369218,-4.63904,0.7019599999999999,1.57178,-0.90881115,0.348448815,0.154357515
1764769009.9369218,-4.63904,0.7019599999999999,1.57178,-0.90881115,0.348448815,0.154357515
1764769009.9369218,-4.63904,0.7019599999999999,1.57178,-0.90881115,0.348448815,0.154357515
1764769009.9369218,-4.3491,0.50358,1.55652,-0.90905529,0.34704501,0.1538082
1764769009.9369218,-4.3491,0.50358,1.55652,-0.90905529,0.34704501,0.1538082
1764769009.9369218,-4.3491,0.50358,1.55652,-0.90905529,0.34704501,0.1538082
1764769009.9369218,-4.3491,0.50358,1.55652,-0.90905529,0.34704501,0.1538082
1764769009.9369218,-4.3491,0.50358,1.55652,-0.90905529,0.34704501,0.1538082
1764769009.9369218,-4.3491,0.50358,1.55652,-0.90905529,0.34704501,0.1538082
1764769009.9369218,-4.3491,0.50358,1.55652,-0.90905529,0.34704501,0.1538082
1764769009.9369218,-4.3491,0.50358,1.55652,-0.90905529,0.34704501,0.1538082
1764769009.9369218,-4.3491,0.50358,1.55652,-0.90905529,0.34704501,0.1538082
1764769009.9369218,-4.3491,0.50358,1.55652,-0.90905529,0.34704501,0.1538082
1764769009.9823549,-3.76922,0.50358,1.86172,-0.90893322,0.346983975,0.15441855
1764769009.9828808,-3.76922,0.50358,1.86172,-0.90893322,0.346983975,0.15441855
1764769009.9828808,-3.76922,0.50358,1.86172,-0.90893322,0.346983975,0.15441855
1764769009.9828808,-3.76922,0.50358,1.86172,-0.90893322,0.346983975,0.15441855
1764769009.9828808,-3.76922,0.50358,1.86172,-0.90893322,0.346983975,0.15441855
1764769009.9828808,-3.76922,0.50358,1.86172,-0.90893322,0.346983975,0.15441855
1764769009.9828808,-3.76922,0.50358,1.86172,-0.90893322,0.346983975,0.15441855
1764769009.9828808,-3.76922,0.50358,1.86172,-0.90893322,0.346983975,0.15441855
1764769009.9828808,-3.76922,0.50358,1.86172,-0.90893322,0.346983975,0.15441855
1764769009.9828808,-3.76922,0.50358,1.86172,-0.90893322,0.346983975,0.15441855
1764769009.9828808,-3.55558,0.6714399999999999,1.64808,-0.908750115,0.347960535,0.1550289
1764769009.9828808,-3.55558,0.6714399999999999,1.64808,-0.908750115,0.347960535,0.1550289
1764769009.9828808,-3.55558,0.6714399999999999,1.64808,-0.908750115,0.347960535,0.1550289
1764769009.9828808,-3.55558,0.6714399999999999,1.64808,-0.908750115,0.347960535,0.1550289
1764769009.9828808,-3.55558,0.6714399999999999,1.64808,-0.908750115,0.347960535,0.1550289
1764769009.9828808,-3.55558,0.6714399999999999,1.64808,-0.908750115,0.347960535,0.1550289
1764769009.9828808,-3.55558,0.6714399999999999,1.64808,-0.908750115,0.347960535,0.1550289
1764769009.9828808,-3.55558,0.6714399999999999,1.64808,-0.908750115,0.347960535,0.1550289
1764769009.9828808,-3.55558,0.6714399999999999,1.64808,-0.908750115,0.347960535,0.1550289
1764769009.9828808,-3.55558,0.6714399999999999,1.64808,-0.908750115,0.347960535,0.1550289
1764769009.9828808,-3.5861,0.77826,1.4039199999999998,-0.90868908,0.346983975,0.15563925
1764769009.9828808,-3.5861,0.77826,1.4039199999999998,-0.90868908,0.346983975,0.15563925
1764769010.0285144,-3.5861,0.77826,1.4039199999999998,-0.90868908,0.346983975,0.15563925
1764769010.0285144,-3.5861,0.77826,1.4039199999999998,-0.90868908,0.346983975,0.15563925
1764769010.0285144,-3.5861,0.77826,1.4039199999999998,-0.90868908,0.346983975,0.15563925
1764769010.0285144,-3.5861,0.77826,1.4039199999999998,-0.90868908,0.346983975,0.15563925
1764769010.0285144,-3.5861,0.77826,1.4039199999999998,-0.90868908,0.346983975,0.15563925
1764769010.0285144,-3.5861,0.77826,1.4039199999999998,-0.90868908,0.346983975,0.15563925
1764769010.0285144,-3.5861,0.77826,1.4039199999999998,-0.90868908,0.346983975,0.15563925
1764769010.0285144,-3.5861,0.77826,1.4039199999999998,-0.90868908,0.346983975,0.15563925
1764769010.0285144,-3.64714,0.42728,1.2971,-0.90954357,0.347716395,0.15588339
1764769010.0285144,-3.64714,0.42728,1.2971,-0.90954357,0.347716395,0.15588339
1764769010.0285144,-3.64714,0.42728,1.2971,-0.90954357,0.347716395,0.15588339
1764769010.0285144,-3.64714,0.42728,1.2971,-0.90954357,0.347716395,0.15588339
1764769010.0285144,-3.64714,0.42728,1.2971,-0.90954357,0.347716395,0.15588339
1764769010.0285144,-3.64714,0.42728,1.2971,-0.90954357,0.347716395,0.15588339
1764769010.0285144,-3.64714,0.42728,1.2971,-0.90954357,0.347716395,0.15588339
1764769010.0285144,-3.64714,0.42728,1.2971,-0.90954357,0.347716395,0.15588339
1764769010.0285144,-3.64714,0.42728,1.2971,-0.90954357,0.347716395,0.15588339
1764769010.0285144,-3.64714,0.42728,1.2971,-0.90954357,0.347716395,0.15588339
1764769010.0285144,-3.75396,0.51884,1.03768,-0.90978771,0.347716395,0.155822355
1764769010.0285144,-3.75396,0.51884,1.03768,-0.90978771,0.347716395,0.155822355
1764769010.0285144,-3.75396,0.51884,1.03768,-0.90978771,0.347716395,0.155822355
1764769010.0285144,-3.75396,0.51884,1.03768,-0.90978771,0.347716395,0.155822355
1764769010.0285144,-3.75396,0.51884,1.03768,-0.90978771,0.347716395,0.155822355
1764769010.0285144,-3.75396,0.51884,1.03768,-0.90978771,0.347716395,0.155822355
1764769010.0783362,-3.75396,0.51884,1.03768,-0.90978771,0.347716395,0.155822355
1764769010.0788395,-3.75396,0.51884,1.03768,-0.90978771,0.347716395,0.155822355
1764769010.0788395,-3.75396,0.51884,1.03768,-0.90978771,0.347716395,0.155822355
1764769010.0788395,-3.75396,0.51884,1.03768,-0.90978771,0.347716395,0.155822355
1764769010.0788395,-4.1202,0.6103999999999999,0.97664,-0.908505975,0.34741122,0.156432705
1764769010.0788395,-4.1202,0.6103999999999999,0.97664,-0.908505975,0.34741122,0.156432705
1764769010.0788395,-4.1202,0.6103999999999999,0.97664,-0.908505975,0.34741122,0.156432705
1764769010.0788395,-4.1202,0.6103999999999999,0.97664,-0.908505975,0.34741122,0.156432705
1764769010.0788395,-4.1202,0.6103999999999999,0.97664,-0.908505975,0.34741122,0.156432705
1764769010.0788395,-4.1202,0.6103999999999999,0.97664,-0.908505975,0.34741122,0.156432705
1764769010.0788395,-4.1202,0.6103999999999999,0.97664,-0.908505975,0.34741122,0.156432705
1764769010.0788395,-4.1202,0.6103999999999999,0.97664,-0.908505975,0.34741122,0.156432705
1764769010.0788395,-4.1202,0.6103999999999999,0.97664,-0.908505975,0.34741122,0.156432705
1764769010.0788395,-4.1202,0.6103999999999999,0.97664,-0.908505975,0.34741122,0.156432705
1764769010.0788395,-3.75396,0.9919,0.21364,-0.90771252,0.346739835,0.15588339
1764769010.0788395,-3.75396,0.9919,0.21364,-0.90771252,0.346739835,0.15588339
1764769010.0788395,-3.75396,0.9919,0.21364,-0.90771252,0.346739835,0.15588339
1764769010.0788395,-3.75396,0.9919,0.21364,-0.90771252,0.346739835,0.15588339
1764769010.0788395,-3.75396,0.9919,0.21364,-0.90771252,0.346739835,0.15588339
1764769010.0788395,-3.75396,0.9919,0.21364,-0.90771252,0.346739835,0.15588339
1764769010.0788395,-3.75396,0.9919,0.21364,-0.90771252,0.346739835,0.15588339
1764769010.0788395,-3.75396,0.9919,0.21364,-0.90771252,0.346739835,0.15588339
1764769010.0788395,-3.75396,0.9919,0.21364,-0.90771252,0.346739835,0.15588339
1764769010.0788395,-3.75396,0.9919,0.21364,-0.90771252,0.346739835,0.15588339
1764769010.1247578,-4.1202,0.62566,0.42728,-0.908139765,0.35046297,0.154479585
1764769010.1247578,-4.1202,0.62566,0.42728,-0.908139765,0.35046297,0.154479585
1764769010.1247578,-4.1202,0.62566,0.42728,-0.908139765,0.35046297,0.154479585
1764769010.1247578,-4.1202,0.62566,0.42728,-0.908139765,0.35046297,0.154479585
1764769010.1247578,-4.1202,0.62566,0.42728,-0.908139765,0.35046297,0.154479585
1764769010.1247578,-4.1202,0.62566,0.42728,-0.908139765,0.35046297,0.154479585
1764769010.1247578,-4.1202,0.62566,0.42728,-0.908139765,0.35046297,0.154479585
1764769010.1247578,-4.1202,0.62566,0.42728,-0.908139765,0.35046297,0.154479585
1764769010.1247578,-4.1202,0.62566,0.42728,-0.908139765,0.35046297,0.154479585
1764769010.1247578,-4.1202,0.62566,0.42728,-0.908139765,0.35046297,0.154479585
1764769010.1247578,-5.32574,0.56462,0.5341,-0.90868908,0.352355055,0.15429648
1764769010.1247578,-5.32574,0.56462,0.5341,-0.90868908,0.352355055,0.15429648
1764769010.1247578,-5.32574,0.56462,0.5341,-0.90868908,0.352355055,0.15429648
1764769010.1247578,-5.32574,0.56462,0.5341,-0.90868908,0.352355055,0.15429648
1764769010.1247578,-5.32574,0.56462,0.5341,-0.90868908,0.352355055,0.15429648
1764769010.1247578,-5.32574,0.56462,0.5341,-0.90868908,0.352355055,0.15429648
1764769010.12577,-5.32574,0.56462,0.5341,-0.90868908,0.352355055,0.15429648
1764769010.12577,-5.32574,0.56462,0.5341,-0.90868908,0.352355055,0.15429648
1764769010.12577,-5.32574,0.56462,0.5341,-0.90868908,0.352355055,0.15429648
1764769010.12577,-5.32574,0.56462,0.5341,-0.90868908,0.352355055,0.15429648
1764769010.12577,-5.096839999999999,1.35814,1.0682,-0.9082008,0.349547445,0.154357515
1764769010.12577,-5.096839999999999,1.35814,1.0682,-0.9082008,0.349547445,0.154357515
1764769010.12577,-5.096839999999999,1.35814,1.0682,-0.9082008,0.349547445,0.154357515
1764769010.12577,-5.096839999999999,1.35814,1.0682,-0.9082008,0.349547445,0.154357515
1764769010.1726716,-5.096839999999999,1.35814,1.0682,-0.9082008,0.349547445,0.154357515
1764769010.1726716,-5.096839999999999,1.35814,1.0682,-0.9082008,0.349547445,0.154357515
1764769010.1726716,-5.096839999999999,1.35814,1.0682,-0.9082008,0.349547445,0.154357515
1764769010.1726716,-5.096839999999999,1.35814,1.0682,-0.9082008,0.349547445,0.154357515
1764769010.1726716,-5.096839999999999,1.35814,1.0682,-0.9082008,0.349547445,0.154357515
1764769010.1726716,-5.096839999999999,1.35814,1.0682,-0.9082008,0.349547445,0.154357515
1764769010.1726716,-4.33384,1.12924,0.74774,-0.90783459,0.34533603,0.15551718
1764769010.1726716,-4.33384,1.12924,0.74774,-0.90783459,0.34533603,0.15551718
1764769010.1726716,-4.33384,1.12924,0.74774,-0.90783459,0.34533603,0.15551718
1764769010.1726716,-4.33384,1.12924,0.74774,-0.90783459,0.34533603,0.15551718
1764769010.1726716,-4.33384,1.12924,0.74774,-0.90783459,0.34533603,0.15551718
1764769010.1726716,-4.33384,1.12924,0.74774,-0.90783459,0.34533603,0.15551718
1764769010.1726716,-4.33384,1.12924,0.74774,-0.90783459,0.34533603,0.15551718
1764769010.1726716,-4.33384,1.12924,0.74774,-0.90783459,0.34533603,0.15551718
1764769010.1726716,-4.33384,1.12924,0.74774,-0.90783459,0.34533603,0.15551718
1764769010.1726716,-4.33384,1.12924,0.74774,-0.90783459,0.34533603,0.15551718
1764769010.1726716,-3.31142,1.32762,1.02242,-0.908261835,0.34326084,0.15612753
1764769010.1726716,-3.31142,1.32762,1.02242,-0.908261835,0.34326084,0.15612753
1764769010.1726716,-3.31142,1.32762,1.02242,-0.908261835,0.34326084,0.15612753
1764769010.1726716,-3.31142,1.32762,1.02242,-0.908261835,0.34326084,0.15612753
1764769010.1726716,-3.31142,1.32762,1.02242,-0.908261835,0.34326084,0.15612753
1764769010.1726716,-3.31142,1.32762,1.02242,-0.908261835,0.34326084,0.15612753
1764769010.1726716,-3.31142,1.32762,1.02242,-0.908261835,0.34326084,0.15612753
1764769010.1726716,-3.31142,1.32762,1.02242,-0.908261835,0.34326084,0.15612753
1764769010.2201214,-3.31142,1.32762,1.02242,-0.908261835,0.34326084,0.15612753
1764769010.2201214,-3.31142,1.32762,1.02242,-0.908261835,0.34326084,0.15612753
1764769010.2201214,-2.6705,0.6103999999999999,1.6022999999999998,-0.90868908,0.344420505,0.15698202
1764769010.2201214,-2.6705,0.6103999999999999,1.6022999999999998,-0.90868908,0.344420505,0.15698202
1764769010.2201214,-2.6705,0.6103999999999999,1.6022999999999998,-0.90868908,0.344420505,0.15698202
1764769010.2201214,-2.6705,0.6103999999999999,1.6022999999999998,-0.90868908,0.344420505,0.15698202
1764769010.2201214,-2.6705,0.6103999999999999,1.6022999999999998,-0.90868908,0.344420505,0.15698202
1764769010.2201214,-2.6705,0.6103999999999999,1.6022999999999998,-0.90868908,0.344420505,0.15698202
1764769010.2201214,-2.6705,0.6103999999999999,1.6022999999999998,-0.90868908,0.344420505,0.15698202
1764769010.2201214,-2.6705,0.6103999999999999,1.6022999999999998,-0.90868908,0.344420505,0.15698202
1764769010.2201214,-2.6705,0.6103999999999999,1.6022999999999998,-0.90868908,0.344420505,0.15698202
1764769010.2201214,-2.6705,0.6103999999999999,1.6022999999999998,-0.90868908,0.344420505,0.15698202
1764769010.2201214,-3.00622,0.763,1.63282,-0.908505975,0.3466788,0.157409265
1764769010.2201214,-3.00622,0.763,1.63282,-0.908505975,0.3466788,0.157409265
1764769010.2201214,-3.00622,0.763,1.63282,-0.908505975,0.3466788,0.157409265
1764769010.2201214,-3.00622,0.763,1.63282,-0.908505975,0.3466788,0.157409265
1764769010.2201214,-3.00622,0.763,1.63282,-0.908505975,0.3466788,0.157409265
1764769010.2201214,-3.00622,0.763,1.63282,-0.908505975,0.3466788,0.157409265
1764769010.2201214,-3.00622,0.763,1.63282,-0.908505975,0.3466788,0.157409265
1764769010.2201214,-3.00622,0.763,1.63282,-0.908505975,0.3466788,0.157409265
1764769010.2201214,-3.00622,0.763,1.63282,-0.908505975,0.3466788,0.157409265
1764769010.2201214,-3.00622,0.763,1.63282,-0.908505975,0.3466788,0.157409265
1764769010.2201214,-2.77732,0.3509799999999999,1.32762,-0.90954357,0.34850985,0.15698202
1764769010.2201214,-2.77732,0.3509799999999999,1.32762,-0.90954357,0.34850985,0.15698202
1764769010.2634945,-2.77732,0.3509799999999999,1.32762,-0.90954357,0.34850985,0.15698202
1764769010.2634945,-2.77732,0.3509799999999999,1.32762,-0.90954357,0.34850985,0.15698202
1764769010.2634945,-2.77732,0.3509799999999999,1.32762,-0.90954357,0.34850985,0.15698202
1764769010.2634945,-2.77732,0.3509799999999999,1.32762,-0.90954357,0.34850985,0.15698202
1764769010.2634945,-2.77732,0.3509799999999999,1.32762,-0.90954357,0.34850985,0.15698202
1764769010.2634945,-2.77732,0.3509799999999999,1.32762,-0.90954357,0.34850985,0.15698202
1764769010.2634945,-2.77732,0.3509799999999999,1.32762,-0.90954357,0.34850985,0.15698202
1764769010.2634945,-2.77732,0.3509799999999999,1.32762,-0.90954357,0.34850985,0.15698202
1764769010.2634945,-3.98286,0.9156,1.11398,-0.909360465,0.351134355,0.15490683
1764769010.2650352,-3.98286,0.9156,1.11398,-0.909360465,0.351134355,0.15490683
1764769010.2650352,-3.98286,0.9156,1.11398,-0.909360465,0.351134355,0.15490683
1764769010.2650352,-3.98286,0.9156,1.11398,-0.909360465,0.351134355,0.15490683
1764769010.2650352,-3.98286,0.9156,1.11398,-0.909360465,0.351134355,0.15490683
1764769010.2650352,-3.98286,0.9156,1.11398,-0.909360465,0.351134355,0.15490683
1764769010.2650352,-3.98286,0.9156,1.11398,-0.909360465,0.351134355,0.15490683
1764769010.2650352,-3.98286,0.9156,1.11398,-0.909360465,0.351134355,0.15490683
1764769010.2650352,-3.98286,0.9156,1.11398,-0.909360465,0.351134355,0.15490683
1764769010.2650352,-3.98286,0.9156,1.11398,-0.909360465,0.351134355,0.15490683
1764769010.2650352,-4.45592,0.88508,1.02242,-0.908139765,0.352355055,0.1550289
1764769010.2650352,-4.45592,0.88508,1.02242,-0.908139765,0.352355055,0.1550289
1764769010.2650352,-4.45592,0.88508,1.02242,-0.908139765,0.352355055,0.1550289
1764769010.2650352,-4.45592,0.88508,1.02242,-0.908139765,0.352355055,0.1550289
1764769010.2650352,-4.45592,0.88508,1.02242,-0.908139765,0.352355055,0.1550289
1764769010.2650352,-4.45592,0.88508,1.02242,-0.908139765,0.352355055,0.1550289
1764769010.3111122,-4.45592,0.88508,1.02242,-0.908139765,0.352355055,0.1550289
1764769010.3111122,-4.45592,0.88508,1.02242,-0.908139765,0.352355055,0.1550289
1764769010.3111122,-4.45592,0.88508,1.02242,-0.908139765,0.352355055,0.1550289
1764769010.3111122,-4.45592,0.88508,1.02242,-0.908139765,0.352355055,0.1550289
1764769010.3111122,-4.21176,0.8087799999999999,1.11398,-0.908139765,0.352843335,0.15490683
1764769010.3111122,-4.21176,0.8087799999999999,1.11398,-0.908139765,0.352843335,0.15490683
1764769010.3111122,-4.21176,0.8087799999999999,1.11398,-0.908139765,0.352843335,0.15490683
1764769010.3111122,-4.21176,0.8087799999999999,1.11398,-0.908139765,0.352843335,0.15490683
1764769010.3111122,-4.21176,0.8087799999999999,1.11398,-0.908139765,0.352843335,0.15490683
1764769010.3111122,-4.21176,0.8087799999999999,1.11398,-0.908139765,0.352843335,0.15490683
1764769010.3111122,-4.21176,0.8087799999999999,1.11398,-0.908139765,0.352843335,0.15490683
1764769010.3111122,-4.21176,0.8087799999999999,1.11398,-0.908139765,0.352843335,0.15490683
1764769010.3111122,-4.21176,0.8087799999999999,1.11398,-0.908139765,0.352843335,0.15490683
1764769010.311623,-4.21176,0.8087799999999999,1.11398,-0.908139765,0.352843335,0.15490683
1764769010.311623,-4.22702,1.08346,1.03768,-0.90673596,0.352110915,0.155578215
1764769010.311623,-4.22702,1.08346,1.03768,-0.90673596,0.352110915,0.155578215
1764769010.311623,-4.22702,1.08346,1.03768,-0.90673596,0.352110915,0.155578215
1764769010.311623,-4.22702,1.08346,1.03768,-0.90673596,0.352110915,0.155578215
1764769010.311623,-4.22702,1.08346,1.03768,-0.90673596,0.352110915,0.155578215
1764769010.311623,-4.22702,1.08346,1.03768,-0.90673596,0.352110915,0.155578215
1764769010.3576438,-4.22702,1.08346,1.03768,-0.90673596,0.352110915,0.155578215
1764769010.3576438,-4.22702,1.08346,1.03768,-0.90673596,0.352110915,0.155578215
1764769010.3576438,-4.22702,1.08346,1.03768,-0.90673596,0.352110915,0.155578215
1764769010.3576438,-4.22702,1.08346,1.03768,-0.90673596,0.352110915,0.155578215
1764769010.3576438,-4.15072,1.00716,0.85456,-0.90673596,0.34960848,0.15710409
1764769010.3586483,-4.15072,1.00716,0.85456,-0.90673596,0.34960848,0.15710409
1764769010.3586483,-4.15072,1.00716,0.85456,-0.90673596,0.34960848,0.15710409
1764769010.3586483,-4.15072,1.00716,0.85456,-0.90673596,0.34960848,0.15710409
1764769010.3586483,-4.15072,1.00716,0.85456,-0.90673596,0.34960848,0.15710409
1764769010.3586483,-4.15072,1.00716,0.85456,-0.90673596,0.34960848,0.15710409
1764769010.3586483,-4.15072,1.00716,0.85456,-0.90673596,0.34960848,0.15710409
1764769010.3586483,-4.15072,1.00716,0.85456,-0.90673596,0.34960848,0.15710409
1764769010.3586483,-4.15072,1.00716,0.85456,-0.90673596,0.34960848,0.15710409
1764769010.3586483,-4.15072,1.00716,0.85456,-0.90673596,0.34960848,0.15710409
1764769010.3586483,-4.02864,0.54936,1.17502,-0.906674925,0.349059165,0.158019615
1764769010.3586483,-4.02864,0.54936,1.17502,-0.906674925,0.349059165,0.158019615
1764769010.3586483,-4.02864,0.54936,1.17502,-0.906674925,0.349059165,0.158019615
1764769010.3586483,-4.02864,0.54936,1.17502,-0.906674925,0.349059165,0.158019615
1764769010.3586483,-4.02864,0.54936,1.17502,-0.906674925,0.349059165,0.158019615
1764769010.3586483,-4.02864,0.54936,1.17502,-0.906674925,0.349059165,0.158019615
1764769010.3586483,-4.02864,0.54936,1.17502,-0.906674925,0.349059165,0.158019615
1764769010.3586483,-4.02864,0.54936,1.17502,-0.906674925,0.349059165,0.158019615
1764769010.3586483,-4.02864,0.54936,1.17502,-0.906674925,0.349059165,0.158019615
1764769010.3586483,-4.02864,0.54936,1.17502,-0.906674925,0.349059165,0.158019615
1764769010.3586483,-4.41014,0.42728,1.28184,-0.90746838,0.34899813,0.15734823
1764769010.3586483,-4.41014,0.42728,1.28184,-0.90746838,0.34899813,0.15734823
1764769010.4053247,-4.41014,0.42728,1.28184,-0.90746838,0.34899813,0.15734823
1764769010.4053247,-4.41014,0.42728,1.28184,-0.90746838,0.34899813,0.15734823
1764769010.4053247,-4.41014,0.42728,1.28184,-0.90746838,0.34899813,0.15734823
1764769010.4053247,-4.41014,0.42728,1.28184,-0.90746838,0.34899813,0.15734823
1764769010.4053247,-4.41014,0.42728,1.28184,-0.90746838,0.34899813,0.15734823
1764769010.4053247,-4.41014,0.42728,1.28184,-0.90746838,0.34899813,0.15734823
1764769010.4053247,-4.41014,0.42728,1.28184,-0.90746838,0.34899813,0.15734823
1764769010.4053247,-4.41014,0.42728,1.28184,-0.90746838,0.34899813,0.15734823
1764769010.4053247,-3.92182,0.8087799999999999,1.03768,-0.90893322,0.349059165,0.15576132
1764769010.4053247,-3.92182,0.8087799999999999,1.03768,-0.90893322,0.349059165,0.15576132
1764769010.4053247,-3.92182,0.8087799999999999,1.03768,-0.90893322,0.349059165,0.15576132
1764769010.4053247,-3.92182,0.8087799999999999,1.03768,-0.90893322,0.349059165,0.15576132
1764769010.4053247,-3.92182,0.8087799999999999,1.03768,-0.90893322,0.349059165,0.15576132
1764769010.4058063,-3.92182,0.8087799999999999,1.03768,-0.90893322,0.349059165,0.15576132
1764769010.4058063,-3.92182,0.8087799999999999,1.03768,-0.90893322,0.349059165,0.15576132
1764769010.4058063,-3.92182,0.8087799999999999,1.03768,-0.90893322,0.349059165,0.15576132
1764769010.4058063,-3.92182,0.8087799999999999,1.03768,-0.90893322,0.349059165,0.15576132
1764769010.4058063,-3.92182,0.8087799999999999,1.03768,-0.90893322,0.349059165,0.15576132
1764769010.4058063,-3.9676,1.11398,0.96138,-0.908261835,0.34973055,0.155578215
1764769010.4058063,-3.9676,1.11398,0.96138,-0.908261835,0.34973055,0.155578215
1764769010.4058063,-3.9676,1.11398,0.96138,-0.908261835,0.34973055,0.155578215
1764769010.4058063,-3.9676,1.11398,0.96138,-0.908261835,0.34973055,0.155578215
1764769010.451757,-3.9676,1.11398,0.96138,-0.908261835,0.34973055,0.155578215
1764769010.451757,-3.9676,1.11398,0.96138,-0.908261835,0.34973055,0.155578215
1764769010.451757,-3.9676,1.11398,0.96138,-0.908261835,0.34973055,0.155578215
1764769010.452762,-3.9676,1.11398,0.96138,-0.908261835,0.34973055,0.155578215
1764769010.452762,-3.9676,1.11398,0.96138,-0.908261835,0.34973055,0.155578215
1764769010.452762,-3.9676,1.11398,0.96138,-0.908261835,0.34973055,0.155578215
1764769010.452762,-3.99812,0.73248,0.6867,-0.908139765,0.350279865,0.15551718
1764769010.452762,-3.99812,0.73248,0.6867,-0.908139765,0.350279865,0.15551718
1764769010.452762,-3.99812,0.73248,0.6867,-0.908139765,0.350279865,0.15551718
1764769010.452762,-3.99812,0.73248,0.6867,-0.908139765,0.350279865,0.15551718
1764769010.452762,-3.99812,0.73248,0.6867,-0.908139765,0.350279865,0.15551718
1764769010.452762,-3.99812,0.73248,0.6867,-0.908139765,0.350279865,0.15551718
1764769010.452762,-3.99812,0.73248,0.6867,-0.908139765,0.350279865,0.15551718
1764769010.452762,-3.99812,0.73248,0.6867,-0.908139765,0.350279865,0.15551718
1764769010.452762,-3.99812,0.73248,0.6867,-0.908139765,0.350279865,0.15551718
1764769010.452762,-3.99812,0.73248,0.6867,-0.908139765,0.350279865,0.15551718
1764769010.452762,-4.07442,1.35814,0.74774,-0.907895625,0.350035725,0.15515097
1764769010.452762,-4.07442,1.35814,0.74774,-0.907895625,0.350035725,0.15515097
1764769010.452762,-4.07442,1.35814,0.74774,-0.907895625,0.350035725,0.15515097
1764769010.452762,-4.07442,1.35814,0.74774,-0.907895625,0.350035725,0.15515097
1764769010.452762,-4.07442,1.35814,0.74774,-0.907895625,0.350035725,0.15515097
1764769010.452762,-4.07442,1.35814,0.74774,-0.907895625,0.350035725,0.15515097
1764769010.452762,-4.07442,1.35814,0.74774,-0.907895625,0.350035725,0.15515097
1764769010.452762,-4.07442,1.35814,0.74774,-0.907895625,0.350035725,0.15515097
1764769010.4987535,-4.07442,1.35814,0.74774,-0.907895625,0.350035725,0.15515097
1764769010.4987535,-4.07442,1.35814,0.74774,-0.907895625,0.350035725,0.15515097
1764769010.4987535,-3.79974,1.17502,0.5341,-0.90759045,0.350035725,0.15576132
1764769010.4987535,-3.79974,1.17502,0.5341,-0.90759045,0.350035725,0.15576132
1764769010.4987535,-3.79974,1.17502,0.5341,-0.90759045,0.350035725,0.15576132
1764769010.4987535,-3.79974,1.17502,0.5341,-0.90759045,0.350035725,0.15576132
1764769010.4987535,-3.79974,1.17502,0.5341,-0.90759045,0.350035725,0.15576132
1764769010.4987535,-3.79974,1.17502,0.5341,-0.90759045,0.350035725,0.15576132
1764769010.4987535,-3.79974,1.17502,0.5341,-0.90759045,0.350035725,0.15576132
1764769010.4987535,-3.79974,1.17502,0.5341,-0.90759045,0.350035725,0.15576132
1764769010.4987535,-3.79974,1.17502,0.5341,-0.90759045,0.350035725,0.15576132
1764769010.4987535,-3.79974,1.17502,0.5341,-0.90759045,0.350035725,0.15576132
1764769010.4987535,-3.37246,1.00716,0.44254,-0.907773555,0.34960848,0.155334075
1764769010.4987535,-3.37246,1.00716,0.44254,-0.907773555,0.34960848,0.155334075
1764769010.4987535,-3.37246,1.00716,0.44254,-0.907773555,0.34960848,0.155334075
1764769010.4987535,-3.37246,1.00716,0.44254,-0.907773555,0.34960848,0.155334075
1764769010.4987535,-3.37246,1.00716,0.44254,-0.907773555,0.34960848,0.155334075
1764769010.4987535,-3.37246,1.00716,0.44254,-0.907773555,0.34960848,0.155334075
1764769010.4987535,-3.37246,1.00716,0.44254,-0.907773555,0.34960848,0.155334075
1764769010.4987535,-3.37246,1.00716,0.44254,-0.907773555,0.34960848,0.155334075
1764769010.4987535,-3.37246,1.00716,0.44254,-0.907773555,0.34960848,0.155334075
1764769010.4987535,-3.37246,1.00716,0.44254,-0.907773555,0.34960848,0.155334075
1764769010.4987535,-3.79974,0.88508,0.19838,-0.907285275,0.349913655,0.155700285
1764769010.4987535,-3.79974,0.88508,0.19838,-0.907285275,0.349913655,0.155700285
1764769010.5460236,-3.79974,0.88508,0.19838,-0.907285275,0.349913655,0.155700285
1764769010.5460236,-3.79974,0.88508,0.19838,-0.907285275,0.349913655,0.155700285
1764769010.5460236,-3.79974,0.88508,0.19838,-0.907285275,0.349913655,0.155700285
1764769010.5460236,-3.79974,0.88508,0.19838,-0.907285275,0.349913655,0.155700285
1764769010.5460236,-3.79974,0.88508,0.19838,-0.907285275,0.349913655,0.155700285
1764769010.5460236,-3.79974,0.88508,0.19838,-0.907285275,0.349913655,0.155700285
1764769010.5460236,-3.79974,0.88508,0.19838,-0.907285275,0.349913655,0.155700285
1764769010.5460236,-3.79974,0.88508,0.19838,-0.907285275,0.349913655,0.155700285
1764769010.5460236,-3.7387,0.8087799999999999,-0.09156,-0.907285275,0.350157795,0.15539511
1764769010.5460236,-3.7387,0.8087799999999999,-0.09156,-0.907285275,0.350157795,0.15539511
1764769010.5460236,-3.7387,0.8087799999999999,-0.09156,-0.907285275,0.350157795,0.15539511
1764769010.5460236,-3.7387,0.8087799999999999,-0.09156,-0.907285275,0.350157795,0.15539511
1764769010.5460236,-3.7387,0.8087799999999999,-0.09156,-0.907285275,0.350157795,0.15539511
1764769010.5460236,-3.7387,0.8087799999999999,-0.09156,-0.907285275,0.350157795,0.15539511
1764769010.5460236,-3.7387,0.8087799999999999,-0.09156,-0.907285275,0.350157795,0.15539511
1764769010.5460236,-3.7387,0.8087799999999999,-0.09156,-0.907285275,0.350157795,0.15539511
1764769010.5464015,-3.7387,0.8087799999999999,-0.09156,-0.907285275,0.350157795,0.15539511
1764769010.5464015,-3.7387,0.8087799999999999,-0.09156,-0.907285275,0.350157795,0.15539511
1764769010.5464015,-4.10494,0.6867,-0.54936,-0.907041135,0.351256425,0.15563925
1764769010.5464015,-4.10494,0.6867,-0.54936,-0.907041135,0.351256425,0.15563925
1764769010.5464015,-4.10494,0.6867,-0.54936,-0.907041135,0.351256425,0.15563925
1764769010.5464015,-4.10494,0.6867,-0.54936,-0.907041135,0.351256425,0.15563925
1764769010.588476,-4.10494,0.6867,-0.54936,-0.907041135,0.351256425,0.15563925
1764769010.588476,-4.10494,0.6867,-0.54936,-0.907041135,0.351256425,0.15563925
1764769010.588476,-4.10494,0.6867,-0.54936,-0.907041135,0.351256425,0.15563925
1764769010.588476,-4.10494,0.6867,-0.54936,-0.907041135,0.351256425,0.15563925
1764769010.588476,-4.10494,0.6867,-0.54936,-0.907041135,0.351256425,0.15563925
1764769010.588476,-4.10494,0.6867,-0.54936,-0.907041135,0.351256425,0.15563925
1764769010.588476,-4.577999999999999,1.28184,0.7019599999999999,-0.907895625,0.35119539,0.15600546
1764769010.588476,-4.577999999999999,1.28184,0.7019599999999999,-0.907895625,0.35119539,0.15600546
1764769010.588476,-4.577999999999999,1.28184,0.7019599999999999,-0.907895625,0.35119539,0.15600546
1764769010.588476,-4.577999999999999,1.28184,0.7019599999999999,-0.907895625,0.35119539,0.15600546
1764769010.588476,-4.577999999999999,1.28184,0.7019599999999999,-0.907895625,0.35119539,0.15600546
1764769010.588476,-4.577999999999999,1.28184,0.7019599999999999,-0.907895625,0.35119539,0.15600546
1764769010.589514,-4.577999999999999,1.28184,0.7019599999999999,-0.907895625,0.35119539,0.15600546
1764769010.589514,-4.577999999999999,1.28184,0.7019599999999999,-0.907895625,0.35119539,0.15600546
1764769010.589514,-4.577999999999999,1.28184,0.7019599999999999,-0.907895625,0.35119539,0.15600546
1764769010.589514,-4.577999999999999,1.28184,0.7019599999999999,-0.907895625,0.35119539,0.15600546
1764769010.589514,-3.46402,1.0682,0.48832,-0.908505975,0.349181235,0.156188565
1764769010.589514,-3.46402,1.0682,0.48832,-0.908505975,0.349181235,0.156188565
1764769010.589514,-3.46402,1.0682,0.48832,-0.908505975,0.349181235,0.156188565
1764769010.589514,-3.46402,1.0682,0.48832,-0.908505975,0.349181235,0.156188565
1764769010.589514,-3.46402,1.0682,0.48832,-0.908505975,0.349181235,0.156188565
1764769010.589514,-3.46402,1.0682,0.48832,-0.908505975,0.349181235,0.156188565
1764769010.6354115,-3.46402,1.0682,0.48832,-0.908505975,0.349181235,0.156188565
1764769010.6354115,-3.46402,1.0682,0.48832,-0.908505975,0.349181235,0.156188565
1764769010.6354115,-3.46402,1.0682,0.48832,-0.908505975,0.349181235,0.156188565
1764769010.6354115,-3.46402,1.0682,0.48832,-0.908505975,0.349181235,0.156188565
1764769010.6354115,-3.63188,1.12924,0.88508,-0.90759045,0.34997469,0.15576132
1764769010.6354115,-3.63188,1.12924,0.88508,-0.90759045,0.34997469,0.15576132
1764769010.6354115,-3.63188,1.12924,0.88508,-0.90759045,0.34997469,0.15576132
1764769010.6354115,-3.63188,1.12924,0.88508,-0.90759045,0.34997469,0.15576132
1764769010.6354115,-3.63188,1.12924,0.88508,-0.90759045,0.34997469,0.15576132
1764769010.6354115,-3.63188,1.12924,0.88508,-0.90759045,0.34997469,0.15576132
1764769010.6354115,-3.63188,1.12924,0.88508,-0.90759045,0.34997469,0.15576132
1764769010.6354115,-3.63188,1.12924,0.88508,-0.90759045,0.34997469,0.15576132
1764769010.6354115,-3.63188,1.12924,0.88508,-0.90759045,0.34997469,0.15576132
1764769010.6354115,-3.63188,1.12924,0.88508,-0.90759045,0.34997469,0.15576132
1764769010.6354115,-4.24228,1.31236,0.48832,-0.90807873,0.35046297,0.15563925
1764769010.6354115,-4.24228,1.31236,0.48832,-0.90807873,0.35046297,0.15563925
1764769010.6354115,-4.24228,1.31236,0.48832,-0.90807873,0.35046297,0.15563925
1764769010.6354115,-4.24228,1.31236,0.48832,-0.90807873,0.35046297,0.15563925
1764769010.6354115,-4.24228,1.31236,0.48832,-0.90807873,0.35046297,0.15563925
1764769010.6354115,-4.24228,1.31236,0.48832,-0.90807873,0.35046297,0.15563925
1764769010.6354115,-4.24228,1.31236,0.48832,-0.90807873,0.35046297,0.15563925
1764769010.6354115,-4.24228,1.31236,0.48832,-0.90807873,0.35046297,0.15563925
1764769010.6354115,-4.24228,1.31236,0.48832,-0.90807873,0.35046297,0.15563925
1764769010.6354115,-4.24228,1.31236,0.48832,-0.90807873,0.35046297,0.15563925
1764769010.6828418,-4.4254,1.08346,0.77826,-0.908383905,0.34985262,0.15563925
1764769010.6828418,-4.4254,1.08346,0.77826,-0.908383905,0.34985262,0.15563925
1764769010.6828418,-4.4254,1.08346,0.77826,-0.908383905,0.34985262,0.15563925
1764769010.6828418,-4.4254,1.08346,0.77826,-0.908383905,0.34985262,0.15563925
1764769010.6828418,-4.4254,1.08346,0.77826,-0.908383905,0.34985262,0.15563925
1764769010.6828418,-4.4254,1.08346,0.77826,-0.908383905,0.34985262,0.15563925
1764769010.6828418,-4.4254,1.08346,0.77826,-0.908383905,0.34985262,0.15563925
1764769010.6828418,-4.4254,1.08346,0.77826,-0.908383905,0.34985262,0.15563925
1764769010.6828418,-4.4254,1.08346,0.77826,-0.908383905,0.34985262,0.15563925
1764769010.6828418,-4.4254,1.08346,0.77826,-0.908383905,0.34985262,0.15563925
1764769010.6828418,-4.440659999999999,1.41918,0.9919,-0.90783459,0.35046297,0.15588339
1764769010.6828418,-4.440659999999999,1.41918,0.9919,-0.90783459,0.35046297,0.15588339
1764769010.6828418,-4.440659999999999,1.41918,0.9919,-0.90783459,0.35046297,0.15588339
1764769010.6828418,-4.440659999999999,1.41918,0.9919,-0.90783459,0.35046297,0.15588339
1764769010.6828418,-4.440659999999999,1.41918,0.9919,-0.90783459,0.35046297,0.15588339
1764769010.6828418,-4.440659999999999,1.41918,0.9919,-0.90783459,0.35046297,0.15588339
1764769010.6828418,-4.440659999999999,1.41918,0.9919,-0.90783459,0.35046297,0.15588339
1764769010.6828418,-4.440659999999999,1.41918,0.9919,-0.90783459,0.35046297,0.15588339
1764769010.6828418,-4.440659999999999,1.41918,0.9919,-0.90783459,0.35046297,0.15588339
1764769010.6828418,-4.440659999999999,1.41918,0.9919,-0.90783459,0.35046297,0.15588339
1764769010.6828418,-4.62378,0.9156,0.8698199999999999,-0.907895625,0.35180574,0.156188565
1764769010.6838586,-4.62378,0.9156,0.8698199999999999,-0.907895625,0.35180574,0.156188565
1764769010.6838586,-4.62378,0.9156,0.8698199999999999,-0.907895625,0.35180574,0.156188565
1764769010.6838586,-4.62378,0.9156,0.8698199999999999,-0.907895625,0.35180574,0.156188565
1764769010.72982,-4.62378,0.9156,0.8698199999999999,-0.907895625,0.35180574,0.156188565
1764769010.72982,-4.62378,0.9156,0.8698199999999999,-0.907895625,0.35180574,0.156188565
1764769010.72982,-4.62378,0.9156,0.8698199999999999,-0.907895625,0.35180574,0.156188565
1764769010.72982,-4.62378,0.9156,0.8698199999999999,-0.907895625,0.35180574,0.156188565
1764769010.72982,-4.62378,0.9156,0.8698199999999999,-0.907895625,0.35180574,0.156188565
1764769010.72982,-4.62378,0.9156,0.8698199999999999,-0.907895625,0.35180574,0.156188565
1764769010.72982,-5.20366,1.12924,1.08346,-0.907529415,0.35168367,0.15612753
1764769010.72982,-5.20366,1.12924,1.08346,-0.907529415,0.35168367,0.15612753
1764769010.72982,-5.20366,1.12924,1.08346,-0.907529415,0.35168367,0.15612753
1764769010.72982,-5.20366,1.12924,1.08346,-0.907529415,0.35168367,0.15612753
1764769010.72982,-5.20366,1.12924,1.08346,-0.907529415,0.35168367,0.15612753
1764769010.72982,-5.20366,1.12924,1.08346,-0.907529415,0.35168367,0.15612753
1764769010.72982,-5.20366,1.12924,1.08346,-0.907529415,0.35168367,0.15612753
1764769010.72982,-5.20366,1.12924,1.08346,-0.907529415,0.35168367,0.15612753
1764769010.72982,-5.20366,1.12924,1.08346,-0.907529415,0.35168367,0.15612753
1764769010.72982,-5.20366,1.12924,1.08346,-0.907529415,0.35168367,0.15612753
1764769010.72982,-5.753019999999999,1.51074,0.9156,-0.90649182,0.35119539,0.15612753
1764769010.72982,-5.753019999999999,1.51074,0.9156,-0.90649182,0.35119539,0.15612753
1764769010.72982,-5.753019999999999,1.51074,0.9156,-0.90649182,0.35119539,0.15612753
1764769010.72982,-5.753019999999999,1.51074,0.9156,-0.90649182,0.35119539,0.15612753
1764769010.72982,-5.753019999999999,1.51074,0.9156,-0.90649182,0.35119539,0.15612753
1764769010.72982,-5.753019999999999,1.51074,0.9156,-0.90649182,0.35119539,0.15612753
1764769010.72982,-5.753019999999999,1.51074,0.9156,-0.90649182,0.35119539,0.15612753
1764769010.72982,-5.753019999999999,1.51074,0.9156,-0.90649182,0.35119539,0.15612753
1764769010.7759907,-5.753019999999999,1.51074,0.9156,-0.90649182,0.35119539,0.15612753
1764769010.7759907,-5.753019999999999,1.51074,0.9156,-0.90649182,0.35119539,0.15612753
1764769010.7759907,-5.29522,1.46496,0.73248,-0.906552855,0.35009676,0.1550289
1764769010.7759907,-5.29522,1.46496,0.73248,-0.906552855,0.35009676,0.1550289
1764769010.7759907,-5.29522,1.46496,0.73248,-0.906552855,0.35009676,0.1550289
1764769010.7759907,-5.29522,1.46496,0.73248,-0.906552855,0.35009676,0.1550289
1764769010.7759907,-5.29522,1.46496,0.73248,-0.906552855,0.35009676,0.1550289
1764769010.7759907,-5.29522,1.46496,0.73248,-0.906552855,0.35009676,0.1550289
1764769010.7759907,-5.29522,1.46496,0.73248,-0.906552855,0.35009676,0.1550289
1764769010.7759907,-5.29522,1.46496,0.73248,-0.906552855,0.35009676,0.1550289
1764769010.7759907,-5.29522,1.46496,0.73248,-0.906552855,0.35009676,0.1550289
1764769010.7759907,-5.29522,1.46496,0.73248,-0.906552855,0.35009676,0.1550289
1764769010.7759907,-5.646199999999999,1.51074,1.00716,-0.906796995,0.35009676,0.154845795
1764769010.7759907,-5.646199999999999,1.51074,1.00716,-0.906796995,0.35009676,0.154845795
1764769010.777164,-5.646199999999999,1.51074,1.00716,-0.906796995,0.35009676,0.154845795
1764769010.777164,-5.646199999999999,1.51074,1.00716,-0.906796995,0.35009676,0.154845795
1764769010.777164,-5.646199999999999,1.51074,1.00716,-0.906796995,0.35009676,0.154845795
1764769010.777164,-5.646199999999999,1.51074,1.00716,-0.906796995,0.35009676,0.154845795
1764769010.777164,-5.646199999999999,1.51074,1.00716,-0.906796995,0.35009676,0.154845795
1764769010.777164,-5.646199999999999,1.51074,1.00716,-0.906796995,0.35009676,0.154845795
1764769010.777164,-5.646199999999999,1.51074,1.00716,-0.906796995,0.35009676,0.154845795
1764769010.777164,-5.646199999999999,1.51074,1.00716,-0.906796995,0.35009676,0.154845795
1764769010.777164,-5.44782,1.93802,0.6409199999999999,-0.90685803,0.34924227,0.155456145
1764769010.777164,-5.44782,1.93802,0.6409199999999999,-0.90685803,0.34924227,0.155456145
1764769010.8231535,-5.44782,1.93802,0.6409199999999999,-0.90685803,0.34924227,0.155456145
1764769010.8231535,-5.44782,1.93802,0.6409199999999999,-0.90685803,0.34924227,0.155456145
1764769010.8231535,-5.44782,1.93802,0.6409199999999999,-0.90685803,0.34924227,0.155456145
1764769010.8231535,-5.44782,1.93802,0.6409199999999999,-0.90685803,0.34924227,0.155456145
1764769010.8231535,-5.44782,1.93802,0.6409199999999999,-0.90685803,0.34924227,0.155456145
1764769010.8231535,-5.44782,1.93802,0.6409199999999999,-0.90685803,0.34924227,0.155456145
1764769010.8231535,-5.44782,1.93802,0.6409199999999999,-0.90685803,0.34924227,0.155456145
1764769010.8231535,-5.44782,1.93802,0.6409199999999999,-0.90685803,0.34924227,0.155456145
1764769010.8231535,-4.959499999999999,1.32762,0.73248,-0.90759045,0.34802157,0.15673788
1764769010.8231535,-4.959499999999999,1.32762,0.73248,-0.90759045,0.34802157,0.15673788
1764769010.8236704,-4.959499999999999,1.32762,0.73248,-0.90759045,0.34802157,0.15673788
1764769010.8236704,-4.959499999999999,1.32762,0.73248,-0.90759045,0.34802157,0.15673788
1764769010.8236704,-4.959499999999999,1.32762,0.73248,-0.90759045,0.34802157,0.15673788
1764769010.8236704,-4.959499999999999,1.32762,0.73248,-0.90759045,0.34802157,0.15673788
1764769010.8236704,-4.959499999999999,1.32762,0.73248,-0.90759045,0.34802157,0.15673788
1764769010.8236704,-4.959499999999999,1.32762,0.73248,-0.90759045,0.34802157,0.15673788
1764769010.8236704,-4.959499999999999,1.32762,0.73248,-0.90759045,0.34802157,0.15673788
1764769010.8236704,-4.959499999999999,1.32762,0.73248,-0.90759045,0.34802157,0.15673788
1764769010.8236704,-4.303319999999999,1.05294,0.6867,-0.90795666,0.348448815,0.157165125
1764769010.8236704,-4.303319999999999,1.05294,0.6867,-0.90795666,0.348448815,0.157165125
1764769010.8236704,-4.303319999999999,1.05294,0.6867,-0.90795666,0.348448815,0.157165125
1764769010.8236704,-4.303319999999999,1.05294,0.6867,-0.90795666,0.348448815,0.157165125
1764769010.870262,-4.303319999999999,1.05294,0.6867,-0.90795666,0.348448815,0.157165125
1764769010.8707736,-4.303319999999999,1.05294,0.6867,-0.90795666,0.348448815,0.157165125
1764769010.8707736,-4.303319999999999,1.05294,0.6867,-0.90795666,0.348448815,0.157165125
1764769010.8707736,-4.303319999999999,1.05294,0.6867,-0.90795666,0.348448815,0.157165125
1764769010.8707736,-4.303319999999999,1.05294,0.6867,-0.90795666,0.348448815,0.157165125
1764769010.8707736,-4.303319999999999,1.05294,0.6867,-0.90795666,0.348448815,0.157165125
1764769010.8707736,-4.56274,1.32762,-0.12208,-0.90783459,0.34850985,0.156554775
1764769010.8707736,-4.56274,1.32762,-0.12208,-0.90783459,0.34850985,0.156554775
1764769010.8707736,-4.56274,1.32762,-0.12208,-0.90783459,0.34850985,0.156554775
1764769010.8707736,-4.56274,1.32762,-0.12208,-0.90783459,0.34850985,0.156554775
1764769010.8707736,-4.56274,1.32762,-0.12208,-0.90783459,0.34850985,0.156554775
1764769010.8707736,-4.56274,1.32762,-0.12208,-0.90783459,0.34850985,0.156554775
1764769010.8707736,-4.56274,1.32762,-0.12208,-0.90783459,0.34850985,0.156554775
1764769010.8707736,-4.56274,1.32762,-0.12208,-0.90783459,0.34850985,0.156554775
1764769010.8707736,-4.56274,1.32762,-0.12208,-0.90783459,0.34850985,0.156554775
1764769010.8707736,-4.56274,1.32762,-0.12208,-0.90783459,0.34850985,0.156554775
1764769010.8707736,-4.62378,1.28184,-0.6714399999999999,-0.90661389,0.348326745,0.155822355
1764769010.8707736,-4.62378,1.28184,-0.6714399999999999,-0.90661389,0.348326745,0.155822355
1764769010.8707736,-4.62378,1.28184,-0.6714399999999999,-0.90661389,0.348326745,0.155822355
1764769010.8707736,-4.62378,1.28184,-0.6714399999999999,-0.90661389,0.348326745,0.155822355
1764769010.8707736,-4.62378,1.28184,-0.6714399999999999,-0.90661389,0.348326745,0.155822355
1764769010.8707736,-4.62378,1.28184,-0.6714399999999999,-0.90661389,0.348326745,0.155822355
1764769010.9172645,-4.62378,1.28184,-0.6714399999999999,-0.90661389,0.348326745,0.155822355
1764769010.9172645,-4.62378,1.28184,-0.6714399999999999,-0.90661389,0.348326745,0.155822355
1764769010.9172645,-4.62378,1.28184,-0.6714399999999999,-0.90661389,0.348326745,0.155822355
1764769010.9172645,-4.62378,1.28184,-0.6714399999999999,-0.90661389,0.348326745,0.155822355
1764769010.9172645,-4.22702,1.25132,-0.763,-0.904233525,0.3491202,0.153869235
1764769010.9172645,-4.22702,1.25132,-0.763,-0.904233525,0.3491202,0.153869235
1764769010.9172645,-4.22702,1.25132,-0.763,-0.904233525,0.3491202,0.153869235
1764769010.9172645,-4.22702,1.25132,-0.763,-0.904233525,0.3491202,0.153869235
1764769010.9172645,-4.22702,1.25132,-0.763,-0.904233525,0.3491202,0.153869235
1764769010.9172645,-4.22702,1.25132,-0.763,-0.904233525,0.3491202,0.153869235
1764769010.9172645,-4.22702,1.25132,-0.763,-0.904233525,0.3491202,0.153869235
1764769010.9172645,-4.22702,1.25132,-0.763,-0.904233525,0.3491202,0.153869235
1764769010.9172645,-4.22702,1.25132,-0.763,-0.904233525,0.3491202,0.153869235
1764769010.9172645,-4.22702,1.25132,-0.763,-0.904233525,0.3491202,0.153869235
1764769010.9172645,-5.12736,1.64808,-0.59514,-0.905454225,0.35143953,0.153503025
1764769010.9172645,-5.12736,1.64808,-0.59514,-0.905454225,0.35143953,0.153503025
1764769010.9172645,-5.12736,1.64808,-0.59514,-0.905454225,0.35143953,0.153503025
1764769010.9172645,-5.12736,1.64808,-0.59514,-0.905454225,0.35143953,0.153503025
1764769010.9172645,-5.12736,1.64808,-0.59514,-0.905454225,0.35143953,0.153503025
1764769010.9172645,-5.12736,1.64808,-0.59514,-0.905454225,0.35143953,0.153503025
1764769010.9182703,-5.12736,1.64808,-0.59514,-0.905454225,0.35143953,0.153503025
1764769010.9182703,-5.12736,1.64808,-0.59514,-0.905454225,0.35143953,0.153503025
1764769010.9182703,-5.12736,1.64808,-0.59514,-0.905454225,0.35143953,0.153503025
1764769010.9182703,-5.12736,1.64808,-0.59514,-0.905454225,0.35143953,0.153503025
1764769010.9614885,-5.44782,1.78542,-0.79352,-0.907895625,0.35131746,0.154723725
1764769010.9614885,-5.44782,1.78542,-0.79352,-0.907895625,0.35131746,0.154723725
1764769010.9614885,-5.44782,1.78542,-0.79352,-0.907895625,0.35131746,0.154723725
1764769010.9614885,-5.44782,1.78542,-0.79352,-0.907895625,0.35131746,0.154723725
1764769010.9614885,-5.44782,1.78542,-0.79352,-0.907895625,0.35131746,0.154723725
1764769010.9614885,-5.44782,1.78542,-0.79352,-0.907895625,0.35131746,0.154723725
1764769010.9614885,-5.44782,1.78542,-0.79352,-0.907895625,0.35131746,0.154723725
1764769010.9614885,-5.44782,1.78542,-0.79352,-0.907895625,0.35131746,0.154723725
1764769010.9614885,-5.44782,1.78542,-0.79352,-0.907895625,0.35131746,0.154723725
1764769010.9614885,-5.44782,1.78542,-0.79352,-0.907895625,0.35131746,0.154723725
1764769010.9614885,-5.20366,1.7549,-0.73248,-0.909116325,0.34826571,0.15600546
1764769010.9630096,-5.20366,1.7549,-0.73248,-0.909116325,0.34826571,0.15600546
1764769010.9630096,-5.20366,1.7549,-0.73248,-0.909116325,0.34826571,0.15600546
1764769010.9630096,-5.20366,1.7549,-0.73248,-0.909116325,0.34826571,0.15600546
1764769010.9630096,-5.20366,1.7549,-0.73248,-0.909116325,0.34826571,0.15600546
1764769010.9630096,-5.20366,1.7549,-0.73248,-0.909116325,0.34826571,0.15600546
1764769010.9630096,-5.20366,1.7549,-0.73248,-0.909116325,0.34826571,0.15600546
1764769010.9630096,-5.20366,1.7549,-0.73248,-0.909116325,0.34826571,0.15600546
1764769010.9630096,-5.20366,1.7549,-0.73248,-0.909116325,0.34826571,0.15600546
1764769010.9630096,-5.20366,1.7549,-0.73248,-0.909116325,0.34826571,0.15600546
1764769010.9630096,-4.440659999999999,1.96854,-0.6409199999999999,-0.90844494,0.34570224,0.15637167
1764769010.9630096,-4.440659999999999,1.96854,-0.6409199999999999,-0.90844494,0.34570224,0.15637167
1764769010.9630096,-4.440659999999999,1.96854,-0.6409199999999999,-0.90844494,0.34570224,0.15637167
1764769010.9630096,-4.440659999999999,1.96854,-0.6409199999999999,-0.90844494,0.34570224,0.15637167
1764769011.0089247,-4.440659999999999,1.96854,-0.6409199999999999,-0.90844494,0.34570224,0.15637167
1764769011.0089247,-4.440659999999999,1.96854,-0.6409199999999999,-0.90844494,0.34570224,0.15637167
1764769011.0094297,-4.440659999999999,1.96854,-0.6409199999999999,-0.90844494,0.34570224,0.15637167
1764769011.0094297,-4.440659999999999,1.96854,-0.6409199999999999,-0.90844494,0.34570224,0.15637167
1764769011.0094297,-4.440659999999999,1.96854,-0.6409199999999999,-0.90844494,0.34570224,0.15637167
1764769011.0094297,-4.440659999999999,1.96854,-0.6409199999999999,-0.90844494,0.34570224,0.15637167
1764769011.0094297,-3.67766,1.6786,-0.3204599999999999,-0.908750115,0.345274995,0.15588339
1764769011.0094297,-3.67766,1.6786,-0.3204599999999999,-0.908750115,0.345274995,0.15588339
1764769011.0094297,-3.67766,1.6786,-0.3204599999999999,-0.908750115,0.345274995,0.15588339
1764769011.0094297,-3.67766,1.6786,-0.3204599999999999,-0.908750115,0.345274995,0.15588339
1764769011.0094297,-3.67766,1.6786,-0.3204599999999999,-0.908750115,0.345274995,0.15588339
1764769011.0094297,-3.67766,1.6786,-0.3204599999999999,-0.908750115,0.345274995,0.15588339
1764769011.0094297,-3.67766,1.6786,-0.3204599999999999,-0.908750115,0.345274995,0.15588339
1764769011.0094297,-3.67766,1.6786,-0.3204599999999999,-0.908750115,0.345274995,0.15588339
1764769011.0094297,-3.67766,1.6786,-0.3204599999999999,-0.908750115,0.345274995,0.15588339
1764769011.0094297,-3.67766,1.6786,-0.3204599999999999,-0.908750115,0.345274995,0.15588339
1764769011.0094297,-3.47928,1.2971,-0.54936,-0.909238395,0.34533603,0.156066495
1764769011.0094297,-3.47928,1.2971,-0.54936,-0.909238395,0.34533603,0.156066495
1764769011.0099485,-3.47928,1.2971,-0.54936,-0.909238395,0.34533603,0.156066495
1764769011.0099485,-3.47928,1.2971,-0.54936,-0.909238395,0.34533603,0.156066495
1764769011.0099485,-3.47928,1.2971,-0.54936,-0.909238395,0.34533603,0.156066495
1764769011.0099485,-3.47928,1.2971,-0.54936,-0.909238395,0.34533603,0.156066495
1764769011.0099485,-3.47928,1.2971,-0.54936,-0.909238395,0.34533603,0.156066495
1764769011.0099485,-3.47928,1.2971,-0.54936,-0.909238395,0.34533603,0.156066495
1764769011.0551553,-3.47928,1.2971,-0.54936,-0.909238395,0.34533603,0.156066495
1764769011.0556798,-3.47928,1.2971,-0.54936,-0.909238395,0.34533603,0.156066495
1764769011.0556798,-3.14356,1.4039199999999998,-0.39676,-0.90905529,0.34716708,0.156554775
1764769011.0556798,-3.14356,1.4039199999999998,-0.39676,-0.90905529,0.34716708,0.156554775
1764769011.0556798,-3.14356,1.4039199999999998,-0.39676,-0.90905529,0.34716708,0.156554775
1764769011.0556798,-3.14356,1.4039199999999998,-0.39676,-0.90905529,0.34716708,0.156554775
1764769011.0556798,-3.14356,1.4039199999999998,-0.39676,-0.90905529,0.34716708,0.156554775
1764769011.0556798,-3.14356,1.4039199999999998,-0.39676,-0.90905529,0.34716708,0.156554775
1764769011.0556798,-3.14356,1.4039199999999998,-0.39676,-0.90905529,0.34716708,0.156554775
1764769011.0556798,-3.14356,1.4039199999999998,-0.39676,-0.90905529,0.34716708,0.156554775
1764769011.0556798,-3.14356,1.4039199999999998,-0.39676,-0.90905529,0.34716708,0.156554775
1764769011.0556798,-3.14356,1.4039199999999998,-0.39676,-0.90905529,0.34716708,0.156554775
1764769011.0556798,-3.40298,1.11398,-0.36624,-0.90929943,0.34814364,0.15673788
1764769011.0556798,-3.40298,1.11398,-0.36624,-0.90929943,0.34814364,0.15673788
1764769011.0556798,-3.40298,1.11398,-0.36624,-0.90929943,0.34814364,0.15673788
1764769011.0556798,-3.40298,1.11398,-0.36624,-0.90929943,0.34814364,0.15673788
1764769011.0556798,-3.40298,1.11398,-0.36624,-0.90929943,0.34814364,0.15673788
1764769011.0556798,-3.40298,1.11398,-0.36624,-0.90929943,0.34814364,0.15673788
1764769011.0556798,-3.40298,1.11398,-0.36624,-0.90929943,0.34814364,0.15673788
1764769011.0556798,-3.40298,1.11398,-0.36624,-0.90929943,0.34814364,0.15673788
1764769011.1020453,-3.40298,1.11398,-0.36624,-0.90929943,0.34814364,0.15673788
1764769011.102568,-3.40298,1.11398,-0.36624,-0.90929943,0.34814364,0.15673788
1764769011.102568,-3.86078,0.9919,-0.56462,-0.908505975,0.35058504,0.15612753
1764769011.102568,-3.86078,0.9919,-0.56462,-0.908505975,0.35058504,0.15612753
1764769011.102568,-3.86078,0.9919,-0.56462,-0.908505975,0.35058504,0.15612753
1764769011.102568,-3.86078,0.9919,-0.56462,-0.908505975,0.35058504,0.15612753
1764769011.102568,-3.86078,0.9919,-0.56462,-0.908505975,0.35058504,0.15612753
1764769011.102568,-3.86078,0.9919,-0.56462,-0.908505975,0.35058504,0.15612753
1764769011.102568,-3.86078,0.9919,-0.56462,-0.908505975,0.35058504,0.15612753
1764769011.102568,-3.86078,0.9919,-0.56462,-0.908505975,0.35058504,0.15612753
1764769011.102568,-3.86078,0.9919,-0.56462,-0.908505975,0.35058504,0.15612753
1764769011.102568,-3.86078,0.9919,-0.56462,-0.908505975,0.35058504,0.15612753
1764769011.102568,-4.18124,1.64808,-0.73248,-0.90734631,0.351744705,0.155578215
1764769011.102568,-4.18124,1.64808,-0.73248,-0.90734631,0.351744705,0.155578215
1764769011.102568,-4.18124,1.64808,-0.73248,-0.90734631,0.351744705,0.155578215
1764769011.102568,-4.18124,1.64808,-0.73248,-0.90734631,0.351744705,0.155578215
1764769011.102568,-4.18124,1.64808,-0.73248,-0.90734631,0.351744705,0.155578215
1764769011.102568,-4.18124,1.64808,-0.73248,-0.90734631,0.351744705,0.155578215
1764769011.102568,-4.18124,1.64808,-0.73248,-0.90734631,0.351744705,0.155578215
1764769011.102568,-4.18124,1.64808,-0.73248,-0.90734631,0.351744705,0.155578215
1764769011.102568,-4.18124,1.64808,-0.73248,-0.90734631,0.351744705,0.155578215
1764769011.102568,-4.18124,1.64808,-0.73248,-0.90734631,0.351744705,0.155578215
1764769011.102568,-4.5017,1.6022999999999998,-0.1525999999999999,-0.90759045,0.35266023,0.154967865
1764769011.102568,-4.5017,1.6022999999999998,-0.1525999999999999,-0.90759045,0.35266023,0.154967865
1764769011.148728,-4.5017,1.6022999999999998,-0.1525999999999999,-0.90759045,0.35266023,0.154967865
1764769011.148728,-4.5017,1.6022999999999998,-0.1525999999999999,-0.90759045,0.35266023,0.154967865
1764769011.148728,-4.5017,1.6022999999999998,-0.1525999999999999,-0.90759045,0.35266023,0.154967865
1764769011.148728,-4.5017,1.6022999999999998,-0.1525999999999999,-0.90759045,0.35266023,0.154967865
1764769011.149245,-4.5017,1.6022999999999998,-0.1525999999999999,-0.90759045,0.35266023,0.154967865
1764769011.149245,-4.5017,1.6022999999999998,-0.1525999999999999,-0.90759045,0.35266023,0.154967865
1764769011.149245,-4.5017,1.6022999999999998,-0.1525999999999999,-0.90759045,0.35266023,0.154967865
1764769011.149245,-4.5017,1.6022999999999998,-0.1525999999999999,-0.90759045,0.35266023,0.154967865
1764769011.149245,-4.77638,1.8312,-0.3509799999999999,-0.90856701,0.35192781,0.155212005
1764769011.149245,-4.77638,1.8312,-0.3509799999999999,-0.90856701,0.35192781,0.155212005
1764769011.149245,-4.77638,1.8312,-0.3509799999999999,-0.90856701,0.35192781,0.155212005
1764769011.149245,-4.77638,1.8312,-0.3509799999999999,-0.90856701,0.35192781,0.155212005
1764769011.149245,-4.77638,1.8312,-0.3509799999999999,-0.90856701,0.35192781,0.155212005
1764769011.149245,-4.77638,1.8312,-0.3509799999999999,-0.90856701,0.35192781,0.155212005
1764769011.149245,-4.77638,1.8312,-0.3509799999999999,-0.90856701,0.35192781,0.155212005
1764769011.149245,-4.77638,1.8312,-0.3509799999999999,-0.90856701,0.35192781,0.155212005
1764769011.149245,-4.77638,1.8312,-0.3509799999999999,-0.90856701,0.35192781,0.155212005
1764769011.149245,-4.77638,1.8312,-0.3509799999999999,-0.90856701,0.35192781,0.155212005
1764769011.149245,-4.68482,0.9156,-0.4578,-0.907651485,0.34887606,0.15637167
1764769011.149245,-4.68482,0.9156,-0.4578,-0.907651485,0.34887606,0.15637167
1764769011.149245,-4.68482,0.9156,-0.4578,-0.907651485,0.34887606,0.15637167
1764769011.149245,-4.68482,0.9156,-0.4578,-0.907651485,0.34887606,0.15637167
1764769011.149245,-4.68482,0.9156,-0.4578,-0.907651485,0.34887606,0.15637167
1764769011.149245,-4.68482,0.9156,-0.4578,-0.907651485,0.34887606,0.15637167
1764769011.1951172,-4.68482,0.9156,-0.4578,-0.907651485,0.34887606,0.15637167
1764769011.1951172,-4.68482,0.9156,-0.4578,-0.907651485,0.34887606,0.15637167
1764769011.1951172,-4.68482,0.9156,-0.4578,-0.907651485,0.34887606,0.15637167
1764769011.1951172,-4.68482,0.9156,-0.4578,-0.907651485,0.34887606,0.15637167
1764769011.1951172,-4.4254,1.3734,-0.0762999999999999,-0.907773555,0.3478995,0.157043055
1764769011.1951172,-4.4254,1.3734,-0.0762999999999999,-0.907773555,0.3478995,0.157043055
1764769011.1951172,-4.4254,1.3734,-0.0762999999999999,-0.907773555,0.3478995,0.157043055
1764769011.1951172,-4.4254,1.3734,-0.0762999999999999,-0.907773555,0.3478995,0.157043055
1764769011.1951172,-4.4254,1.3734,-0.0762999999999999,-0.907773555,0.3478995,0.157043055
1764769011.1951172,-4.4254,1.3734,-0.0762999999999999,-0.907773555,0.3478995,0.157043055
1764769011.1951172,-4.4254,1.3734,-0.0762999999999999,-0.907773555,0.3478995,0.157043055
1764769011.1951172,-4.4254,1.3734,-0.0762999999999999,-0.907773555,0.3478995,0.157043055
1764769011.1951172,-4.4254,1.3734,-0.0762999999999999,-0.907773555,0.3478995,0.157043055
1764769011.1951172,-4.4254,1.3734,-0.0762999999999999,-0.907773555,0.3478995,0.157043055
1764769011.1951172,-5.12736,1.54126,0.0,-0.90856701,0.348692955,0.156676845
1764769011.1951172,-5.12736,1.54126,0.0,-0.90856701,0.348692955,0.156676845
1764769011.1951172,-5.12736,1.54126,0.0,-0.90856701,0.348692955,0.156676845
1764769011.1951172,-5.12736,1.54126,0.0,-0.90856701,0.348692955,0.156676845
1764769011.1951172,-5.12736,1.54126,0.0,-0.90856701,0.348692955,0.156676845
1764769011.1951172,-5.12736,1.54126,0.0,-0.90856701,0.348692955,0.156676845
1764769011.1951172,-5.12736,1.54126,0.0,-0.90856701,0.348692955,0.156676845
1764769011.1951172,-5.12736,1.54126,0.0,-0.90856701,0.348692955,0.156676845
1764769011.1951172,-5.12736,1.54126,0.0,-0.90856701,0.348692955,0.156676845
1764769011.1951172,-5.12736,1.54126,0.0,-0.90856701,0.348692955,0.156676845
1764769011.2415235,-4.97476,1.32762,-0.13734,-0.91015392,0.34997469,0.15612753
1764769011.2415235,-4.97476,1.32762,-0.13734,-0.91015392,0.34997469,0.15612753
1764769011.2415235,-4.97476,1.32762,-0.13734,-0.91015392,0.34997469,0.15612753
1764769011.2415235,-4.97476,1.32762,-0.13734,-0.91015392,0.34997469,0.15612753
1764769011.2415235,-4.97476,1.32762,-0.13734,-0.91015392,0.34997469,0.15612753
1764769011.2415235,-4.97476,1.32762,-0.13734,-0.91015392,0.34997469,0.15612753
1764769011.2415235,-4.97476,1.32762,-0.13734,-0.91015392,0.34997469,0.15612753
1764769011.2415235,-4.97476,1.32762,-0.13734,-0.91015392,0.34997469,0.15612753
1764769011.2415235,-4.97476,1.32762,-0.13734,-0.91015392,0.34997469,0.15612753
1764769011.2415235,-4.97476,1.32762,-0.13734,-0.91015392,0.34997469,0.15612753
1764769011.2415235,-4.76112,1.58704,-0.18312,-0.909604605,0.349303305,0.154845795
1764769011.2415235,-4.76112,1.58704,-0.18312,-0.909604605,0.349303305,0.154845795
1764769011.2415235,-4.76112,1.58704,-0.18312,-0.909604605,0.349303305,0.154845795
1764769011.2415235,-4.76112,1.58704,-0.18312,-0.909604605,0.349303305,0.154845795
1764769011.2415235,-4.76112,1.58704,-0.18312,-0.909604605,0.349303305,0.154845795
1764769011.2415235,-4.76112,1.58704,-0.18312,-0.909604605,0.349303305,0.154845795
1764769011.2415235,-4.76112,1.58704,-0.18312,-0.909604605,0.349303305,0.154845795
1764769011.2415235,-4.76112,1.58704,-0.18312,-0.909604605,0.349303305,0.154845795
1764769011.2415235,-4.76112,1.58704,-0.18312,-0.909604605,0.349303305,0.154845795
1764769011.2415235,-4.76112,1.58704,-0.18312,-0.909604605,0.349303305,0.154845795
1764769011.2415235,-4.79164,1.6786,0.18312,-0.909726675,0.3491202,0.15478476
1764769011.2415235,-4.79164,1.6786,0.18312,-0.909726675,0.3491202,0.15478476
1764769011.2883346,-4.79164,1.6786,0.18312,-0.909726675,0.3491202,0.15478476
1764769011.2883346,-4.79164,1.6786,0.18312,-0.909726675,0.3491202,0.15478476
1764769011.2883346,-4.79164,1.6786,0.18312,-0.909726675,0.3491202,0.15478476
1764769011.2893517,-4.79164,1.6786,0.18312,-0.909726675,0.3491202,0.15478476
1764769011.2893517,-4.79164,1.6786,0.18312,-0.909726675,0.3491202,0.15478476
1764769011.2893517,-4.79164,1.6786,0.18312,-0.909726675,0.3491202,0.15478476
1764769011.2893517,-4.79164,1.6786,0.18312,-0.909726675,0.3491202,0.15478476
1764769011.2893517,-4.79164,1.6786,0.18312,-0.909726675,0.3491202,0.15478476
1764769011.2893517,-4.99002,1.43444,0.10682,-0.909482535,0.34838778,0.155456145
1764769011.2893517,-4.99002,1.43444,0.10682,-0.909482535,0.34838778,0.155456145
1764769011.2893517,-4.99002,1.43444,0.10682,-0.909482535,0.34838778,0.155456145
1764769011.2893517,-4.99002,1.43444,0.10682,-0.909482535,0.34838778,0.155456145
1764769011.2893517,-4.99002,1.43444,0.10682,-0.909482535,0.34838778,0.155456145
1764769011.2893517,-4.99002,1.43444,0.10682,-0.909482535,0.34838778,0.155456145
1764769011.2893517,-4.99002,1.43444,0.10682,-0.909482535,0.34838778,0.155456145
1764769011.2893517,-4.99002,1.43444,0.10682,-0.909482535,0.34838778,0.155456145
1764769011.2893517,-4.99002,1.43444,0.10682,-0.909482535,0.34838778,0.155456145
1764769011.2893517,-4.99002,1.43444,0.10682,-0.909482535,0.34838778,0.155456145
1764769011.2893517,-4.74586,1.49548,0.18312,-0.90905529,0.347106045,0.15576132
1764769011.2893517,-4.74586,1.49548,0.18312,-0.90905529,0.347106045,0.15576132
1764769011.2893517,-4.74586,1.49548,0.18312,-0.90905529,0.347106045,0.15576132
1764769011.2893517,-4.74586,1.49548,0.18312,-0.90905529,0.347106045,0.15576132
1764769011.2893517,-4.74586,1.49548,0.18312,-0.90905529,0.347106045,0.15576132
1764769011.2893517,-4.74586,1.49548,0.18312,-0.90905529,0.347106045,0.15576132
1764769011.2893517,-4.74586,1.49548,0.18312,-0.90905529,0.347106045,0.15576132
1764769011.2902136,-4.74586,1.49548,0.18312,-0.90905529,0.347106045,0.15576132
1764769011.3355842,-4.74586,1.49548,0.18312,-0.90905529,0.347106045,0.15576132
1764769011.3355842,-4.74586,1.49548,0.18312,-0.90905529,0.347106045,0.15576132
1764769011.3355842,-4.70008,1.43444,0.06104,-0.909116325,0.347228115,0.155334075
1764769011.3355842,-4.70008,1.43444,0.06104,-0.909116325,0.347228115,0.155334075
1764769011.3355842,-4.70008,1.43444,0.06104,-0.909116325,0.347228115,0.155334075
1764769011.3355842,-4.70008,1.43444,0.06104,-0.909116325,0.347228115,0.155334075
1764769011.3360896,-4.70008,1.43444,0.06104,-0.909116325,0.347228115,0.155334075
1764769011.3360896,-4.70008,1.43444,0.06104,-0.909116325,0.347228115,0.155334075
1764769011.3360896,-4.70008,1.43444,0.06104,-0.909116325,0.347228115,0.155334075
1764769011.3360896,-4.70008,1.43444,0.06104,-0.909116325,0.347228115,0.155334075
1764769011.3360896,-4.70008,1.43444,0.06104,-0.909116325,0.347228115,0.155334075
1764769011.3360896,-4.70008,1.43444,0.06104,-0.909116325,0.347228115,0.155334075
1764769011.3360896,-4.74586,1.4039199999999998,-0.01526,-0.90929943,0.34704501,0.15478476
1764769011.3360896,-4.74586,1.4039199999999998,-0.01526,-0.90929943,0.34704501,0.15478476
1764769011.3360896,-4.74586,1.4039199999999998,-0.01526,-0.90929943,0.34704501,0.15478476
1764769011.3360896,-4.74586,1.4039199999999998,-0.01526,-0.90929943,0.34704501,0.15478476
1764769011.3360896,-4.74586,1.4039199999999998,-0.01526,-0.90929943,0.34704501,0.15478476
1764769011.3360896,-4.74586,1.4039199999999998,-0.01526,-0.90929943,0.34704501,0.15478476
1764769011.3360896,-4.74586,1.4039199999999998,-0.01526,-0.90929943,0.34704501,0.15478476
1764769011.3360896,-4.74586,1.4039199999999998,-0.01526,-0.90929943,0.34704501,0.15478476
1764769011.3816452,-4.74586,1.4039199999999998,-0.01526,-0.90929943,0.34704501,0.15478476
1764769011.3816452,-4.74586,1.4039199999999998,-0.01526,-0.90929943,0.34704501,0.15478476
1764769011.3816452,-4.59326,1.32762,0.04578,-0.909360465,0.348570885,0.15405234
1764769011.3816452,-4.59326,1.32762,0.04578,-0.909360465,0.348570885,0.15405234
1764769011.3816452,-4.59326,1.32762,0.04578,-0.909360465,0.348570885,0.15405234
1764769011.3816452,-4.59326,1.32762,0.04578,-0.909360465,0.348570885,0.15405234
1764769011.3816452,-4.59326,1.32762,0.04578,-0.909360465,0.348570885,0.15405234
1764769011.3816452,-4.59326,1.32762,0.04578,-0.909360465,0.348570885,0.15405234
1764769011.3816452,-4.59326,1.32762,0.04578,-0.909360465,0.348570885,0.15405234
1764769011.3821516,-4.59326,1.32762,0.04578,-0.909360465,0.348570885,0.15405234
1764769011.3821516,-4.59326,1.32762,0.04578,-0.909360465,0.348570885,0.15405234
1764769011.3821516,-4.59326,1.32762,0.04578,-0.909360465,0.348570885,0.15405234
1764769011.3821516,-4.74586,1.25132,-0.21364,-0.909482535,0.34863192,0.15405234
1764769011.3821516,-4.74586,1.25132,-0.21364,-0.909482535,0.34863192,0.15405234
1764769011.3821516,-4.74586,1.25132,-0.21364,-0.909482535,0.34863192,0.15405234
1764769011.3821516,-4.74586,1.25132,-0.21364,-0.909482535,0.34863192,0.15405234
1764769011.3821516,-4.74586,1.25132,-0.21364,-0.909482535,0.34863192,0.15405234
1764769011.3821516,-4.74586,1.25132,-0.21364,-0.909482535,0.34863192,0.15405234
1764769011.3821516,-4.74586,1.25132,-0.21364,-0.909482535,0.34863192,0.15405234
1764769011.3821516,-4.74586,1.25132,-0.21364,-0.909482535,0.34863192,0.15405234
1764769011.3821516,-4.74586,1.25132,-0.21364,-0.909482535,0.34863192,0.15405234
1764769011.3821516,-4.74586,1.25132,-0.21364,-0.909482535,0.34863192,0.15405234
1764769011.3821516,-5.508859999999999,1.6633399999999998,-0.12208,-0.90905529,0.348204675,0.153258885
1764769011.3821516,-5.508859999999999,1.6633399999999998,-0.12208,-0.90905529,0.348204675,0.153258885
1764769011.4282448,-5.508859999999999,1.6633399999999998,-0.12208,-0.90905529,0.348204675,0.153258885
1764769011.4282448,-5.508859999999999,1.6633399999999998,-0.12208,-0.90905529,0.348204675,0.153258885
1764769011.4282448,-5.508859999999999,1.6633399999999998,-0.12208,-0.90905529,0.348204675,0.153258885
1764769011.4282448,-5.508859999999999,1.6633399999999998,-0.12208,-0.90905529,0.348204675,0.153258885
1764769011.4282448,-5.508859999999999,1.6633399999999998,-0.12208,-0.90905529,0.348204675,0.153258885
1764769011.4282448,-5.508859999999999,1.6633399999999998,-0.12208,-0.90905529,0.348204675,0.153258885
1764769011.4282448,-5.508859999999999,1.6633399999999998,-0.12208,-0.90905529,0.348204675,0.153258885
1764769011.4282448,-5.508859999999999,1.6633399999999998,-0.12208,-0.90905529,0.348204675,0.153258885
1764769011.4282448,-4.51696,1.23606,-0.19838,-0.908872185,0.34680087,0.15331992
1764769011.4282448,-4.51696,1.23606,-0.19838,-0.908872185,0.34680087,0.15331992
1764769011.4282448,-4.51696,1.23606,-0.19838,-0.908872185,0.34680087,0.15331992
1764769011.4282448,-4.51696,1.23606,-0.19838,-0.908872185,0.34680087,0.15331992
1764769011.4282448,-4.51696,1.23606,-0.19838,-0.908872185,0.34680087,0.15331992
1764769011.4282448,-4.51696,1.23606,-0.19838,-0.908872185,0.34680087,0.15331992
1764769011.4282448,-4.51696,1.23606,-0.19838,-0.908872185,0.34680087,0.15331992
1764769011.4282448,-4.51696,1.23606,-0.19838,-0.908872185,0.34680087,0.15331992
1764769011.4282448,-4.51696,1.23606,-0.19838,-0.908872185,0.34680087,0.15331992
1764769011.4282448,-4.51696,1.23606,-0.19838,-0.908872185,0.34680087,0.15331992
1764769011.4282448,-4.60852,1.6786,-0.13734,-0.908750115,0.34619052,0.15429648
1764769011.4282448,-4.60852,1.6786,-0.13734,-0.908750115,0.34619052,0.15429648
1764769011.4282448,-4.60852,1.6786,-0.13734,-0.908750115,0.34619052,0.15429648
1764769011.4282448,-4.60852,1.6786,-0.13734,-0.908750115,0.34619052,0.15429648
1764769011.4282448,-4.60852,1.6786,-0.13734,-0.908750115,0.34619052,0.15429648
1764769011.4282448,-4.60852,1.6786,-0.13734,-0.908750115,0.34619052,0.15429648
1764769011.4747343,-4.60852,1.6786,-0.13734,-0.908750115,0.34619052,0.15429648
1764769011.4747343,-4.60852,1.6786,-0.13734,-0.908750115,0.34619052,0.15429648
1764769011.4747343,-4.60852,1.6786,-0.13734,-0.908750115,0.34619052,0.15429648
1764769011.4747343,-4.60852,1.6786,-0.13734,-0.908750115,0.34619052,0.15429648
1764769011.4747343,-4.25754,1.31236,0.27468,-0.909604605,0.34643466,0.15417441
1764769011.4747343,-4.25754,1.31236,0.27468,-0.909604605,0.34643466,0.15417441
1764769011.4747343,-4.25754,1.31236,0.27468,-0.909604605,0.34643466,0.15417441
1764769011.4747343,-4.25754,1.31236,0.27468,-0.909604605,0.34643466,0.15417441
1764769011.4747343,-4.25754,1.31236,0.27468,-0.909604605,0.34643466,0.15417441
1764769011.4747343,-4.25754,1.31236,0.27468,-0.909604605,0.34643466,0.15417441
1764769011.4747343,-4.25754,1.31236,0.27468,-0.909604605,0.34643466,0.15417441
1764769011.4747343,-4.25754,1.31236,0.27468,-0.909604605,0.34643466,0.15417441
1764769011.4747343,-4.25754,1.31236,0.27468,-0.909604605,0.34643466,0.15417441
1764769011.4747343,-4.25754,1.31236,0.27468,-0.909604605,0.34643466,0.15417441
1764769011.4747343,-4.76112,1.54126,0.12208,-0.90990978,0.34741122,0.154235445
1764769011.4747343,-4.76112,1.54126,0.12208,-0.90990978,0.34741122,0.154235445
1764769011.4747343,-4.76112,1.54126,0.12208,-0.90990978,0.34741122,0.154235445
1764769011.4747343,-4.76112,1.54126,0.12208,-0.90990978,0.34741122,0.154235445
1764769011.4747343,-4.76112,1.54126,0.12208,-0.90990978,0.34741122,0.154235445
1764769011.4747343,-4.76112,1.54126,0.12208,-0.90990978,0.34741122,0.154235445
1764769011.4747343,-4.76112,1.54126,0.12208,-0.90990978,0.34741122,0.154235445
1764769011.4747343,-4.76112,1.54126,0.12208,-0.90990978,0.34741122,0.154235445
1764769011.521201,-4.76112,1.54126,0.12208,-0.90990978,0.34741122,0.154235445
1764769011.521201,-4.76112,1.54126,0.12208,-0.90990978,0.34741122,0.154235445
1764769011.521201,-4.97476,1.78542,-0.03052,-0.909482535,0.34692294,0.15429648
1764769011.521201,-4.97476,1.78542,-0.03052,-0.909482535,0.34692294,0.15429648
1764769011.521201,-4.97476,1.78542,-0.03052,-0.909482535,0.34692294,0.15429648
1764769011.521201,-4.97476,1.78542,-0.03052,-0.909482535,0.34692294,0.15429648
