Timestamp,GyroX,GyroY,GyroZ,AccX,AccY,AccZ
1764767916.6836278,-4.28806,0.48832,1.08346,-0.91637949,0.32446206,0.128966955
1764767916.6836278,-2.47212,-0.25942,0.85456,-0.91711191,0.321471345,0.13146939
1764767916.6836278,-2.47212,-0.25942,0.85456,-0.91711191,0.321471345,0.13146939
1764767916.6836278,-2.47212,-0.25942,0.85456,-0.91711191,0.321471345,0.13146939
1764767916.6836278,-2.47212,-0.25942,0.85456,-0.91711191,0.321471345,0.13146939
1764767916.6836278,-2.47212,-0.25942,0.85456,-0.91711191,0.321471345,0.13146939
1764767916.6836278,-2.47212,-0.25942,0.85456,-0.91711191,0.321471345,0.13146939
1764767916.6836278,-2.47212,-0.25942,0.85456,-0.91711191,0.321471345,0.13146939
1764767916.6836278,-2.47212,-0.25942,0.85456,-0.91711191,0.321471345,0.13146939
1764767916.6836278,-2.47212,-0.25942,0.85456,-0.91711191,0.321471345,0.13146939
1764767916.6836278,-2.47212,-0.25942,0.85456,-0.91711191,0.321471345,0.13146939
1764767916.6836278,-0.97664,-0.6714399999999999,0.9919,-0.919248135,0.32263101,0.133605615
1764767916.6836278,-0.97664,-0.6714399999999999,0.9919,-0.919248135,0.32263101,0.133605615
1764767916.6836278,-0.97664,-0.6714399999999999,0.9919,-0.919248135,0.32263101,0.133605615
1764767916.6836278,-0.97664,-0.6714399999999999,0.9919,-0.919248135,0.32263101,0.133605615
1764767916.6836278,-0.97664,-0.6714399999999999,0.9919,-0.919248135,0.32263101,0.133605615
1764767916.6836278,-0.97664,-0.6714399999999999,0.9919,-0.919248135,0.32263101,0.133605615
1764767916.6836278,-0.97664,-0.6714399999999999,0.9919,-0.919248135,0.32263101,0.133605615
1764767916.6836278,-0.97664,-0.6714399999999999,0.9919,-0.919248135,0.32263101,0.133605615
1764767916.6851723,-0.97664,-0.6714399999999999,0.9919,-0.919248135,0.32263101,0.133605615
1764767916.6851723,-0.97664,-0.6714399999999999,0.9919,-0.919248135,0.32263101,0.133605615
1764767916.6851723,-0.94612,-1.2055399999999998,0.12208,-0.92187264,0.324767235,0.134093895
1764767916.6851723,-0.94612,-1.2055399999999998,0.12208,-0.92187264,0.324767235,0.134093895
1764767916.6851723,-0.94612,-1.2055399999999998,0.12208,-0.92187264,0.324767235,0.134093895
1764767916.6851723,-0.94612,-1.2055399999999998,0.12208,-0.92187264,0.324767235,0.134093895
1764767916.7316833,-0.94612,-1.2055399999999998,0.12208,-0.92187264,0.324767235,0.134093895
1764767916.7316833,-0.94612,-1.2055399999999998,0.12208,-0.92187264,0.324767235,0.134093895
1764767916.7316833,-0.94612,-1.2055399999999998,0.12208,-0.92187264,0.324767235,0.134093895
1764767916.7316833,-0.94612,-1.2055399999999998,0.12208,-0.92187264,0.324767235,0.134093895
1764767916.7316833,-0.94612,-1.2055399999999998,0.12208,-0.92187264,0.324767235,0.134093895
1764767916.7316833,-0.94612,-1.2055399999999998,0.12208,-0.92187264,0.324767235,0.134093895
1764767916.7316833,-0.54936,-1.1445,-0.65618,-0.92382576,0.32751381,0.132995265
1764767916.7316833,-0.54936,-1.1445,-0.65618,-0.92382576,0.32751381,0.132995265
1764767916.7316833,-0.54936,-1.1445,-0.65618,-0.92382576,0.32751381,0.132995265
1764767916.7316833,-0.54936,-1.1445,-0.65618,-0.92382576,0.32751381,0.132995265
1764767916.7316833,-0.54936,-1.1445,-0.65618,-0.92382576,0.32751381,0.132995265
1764767916.7316833,-0.54936,-1.1445,-0.65618,-0.92382576,0.32751381,0.132995265
1764767916.7316833,-0.54936,-1.1445,-0.65618,-0.92382576,0.32751381,0.132995265
1764767916.7316833,-0.54936,-1.1445,-0.65618,-0.92382576,0.32751381,0.132995265
1764767916.7316833,-0.54936,-1.1445,-0.65618,-0.92382576,0.32751381,0.132995265
1764767916.7316833,-0.54936,-1.1445,-0.65618,-0.92382576,0.32751381,0.132995265
1764767916.7316833,-0.9919,-0.71722,-1.11398,-0.923276445,0.330382455,0.130187655
1764767916.7316833,-0.9919,-0.71722,-1.11398,-0.923276445,0.330382455,0.130187655
1764767916.7316833,-0.9919,-0.71722,-1.11398,-0.923276445,0.330382455,0.130187655
1764767916.7316833,-0.9919,-0.71722,-1.11398,-0.923276445,0.330382455,0.130187655
1764767916.7782605,-0.9919,-0.71722,-1.11398,-0.923276445,0.330382455,0.130187655
1764767916.7782605,-0.9919,-0.71722,-1.11398,-0.923276445,0.330382455,0.130187655
1764767916.7782605,-0.9919,-0.71722,-1.11398,-0.923276445,0.330382455,0.130187655
1764767916.7782605,-0.9919,-0.71722,-1.11398,-0.923276445,0.330382455,0.130187655
1764767916.7782605,-0.9919,-0.71722,-1.11398,-0.923276445,0.330382455,0.130187655
1764767916.7782605,-0.9919,-0.71722,-1.11398,-0.923276445,0.330382455,0.130187655
1764767916.7788014,-1.61756,-0.6409199999999999,-0.74774,-0.921689535,0.33178626,0.12792936
1764767916.7788014,-1.61756,-0.6409199999999999,-0.74774,-0.921689535,0.33178626,0.12792936
1764767916.7788014,-1.61756,-0.6409199999999999,-0.74774,-0.921689535,0.33178626,0.12792936
1764767916.7788014,-1.61756,-0.6409199999999999,-0.74774,-0.921689535,0.33178626,0.12792936
1764767916.7788014,-1.61756,-0.6409199999999999,-0.74774,-0.921689535,0.33178626,0.12792936
1764767916.7788014,-1.61756,-0.6409199999999999,-0.74774,-0.921689535,0.33178626,0.12792936
1764767916.7788014,-1.61756,-0.6409199999999999,-0.74774,-0.921689535,0.33178626,0.12792936
1764767916.7788014,-1.61756,-0.6409199999999999,-0.74774,-0.921689535,0.33178626,0.12792936
1764767916.7788014,-1.61756,-0.6409199999999999,-0.74774,-0.921689535,0.33178626,0.12792936
1764767916.7788014,-1.61756,-0.6409199999999999,-0.74774,-0.921689535,0.33178626,0.12792936
1764767916.7788014,-2.1364,0.21364,-0.85456,-0.91894296,0.331725225,0.12646452
1764767916.7788014,-2.1364,0.21364,-0.85456,-0.91894296,0.331725225,0.12646452
1764767916.7788014,-2.1364,0.21364,-0.85456,-0.91894296,0.331725225,0.12646452
1764767916.7788014,-2.1364,0.21364,-0.85456,-0.91894296,0.331725225,0.12646452
1764767916.7788014,-2.1364,0.21364,-0.85456,-0.91894296,0.331725225,0.12646452
1764767916.7788014,-2.1364,0.21364,-0.85456,-0.91894296,0.331725225,0.12646452
1764767916.7788014,-2.1364,0.21364,-0.85456,-0.91894296,0.331725225,0.12646452
1764767916.7788014,-2.1364,0.21364,-0.85456,-0.91894296,0.331725225,0.12646452
1764767916.7788014,-2.1364,0.21364,-0.85456,-0.91894296,0.331725225,0.12646452
1764767916.7788014,-2.1364,0.21364,-0.85456,-0.91894296,0.331725225,0.12646452
1764767916.824577,-2.33478,0.79352,-0.8698199999999999,-0.91723398,0.33215247,0.12561003
1764767916.824577,-2.33478,0.79352,-0.8698199999999999,-0.91723398,0.33215247,0.12561003
1764767916.824577,-2.33478,0.79352,-0.8698199999999999,-0.91723398,0.33215247,0.12561003
1764767916.824577,-2.33478,0.79352,-0.8698199999999999,-0.91723398,0.33215247,0.12561003
1764767916.824577,-2.33478,0.79352,-0.8698199999999999,-0.91723398,0.33215247,0.12561003
1764767916.824577,-2.33478,0.79352,-0.8698199999999999,-0.91723398,0.33215247,0.12561003
1764767916.824577,-2.33478,0.79352,-0.8698199999999999,-0.91723398,0.33215247,0.12561003
1764767916.824577,-2.33478,0.79352,-0.8698199999999999,-0.91723398,0.33215247,0.12561003
1764767916.824577,-2.33478,0.79352,-0.8698199999999999,-0.91723398,0.33215247,0.12561003
1764767916.824577,-2.33478,0.79352,-0.8698199999999999,-0.91723398,0.33215247,0.12561003
1764767916.824577,-3.15882,1.34288,-0.77826,-0.91760019,0.33166419,0.12646452
1764767916.824577,-3.15882,1.34288,-0.77826,-0.91760019,0.33166419,0.12646452
1764767916.824577,-3.15882,1.34288,-0.77826,-0.91760019,0.33166419,0.12646452
1764767916.824577,-3.15882,1.34288,-0.77826,-0.91760019,0.33166419,0.12646452
1764767916.824577,-3.15882,1.34288,-0.77826,-0.91760019,0.33166419,0.12646452
1764767916.824577,-3.15882,1.34288,-0.77826,-0.91760019,0.33166419,0.12646452
1764767916.8255856,-3.15882,1.34288,-0.77826,-0.91760019,0.33166419,0.12646452
1764767916.8255856,-3.15882,1.34288,-0.77826,-0.91760019,0.33166419,0.12646452
1764767916.8255856,-3.15882,1.34288,-0.77826,-0.91760019,0.33166419,0.12646452
1764767916.8255856,-3.15882,1.34288,-0.77826,-0.91760019,0.33166419,0.12646452
1764767916.8255856,-2.73154,1.89224,-0.8698199999999999,-0.91747812,0.33056556,0.12805143
1764767916.8255856,-2.73154,1.89224,-0.8698199999999999,-0.91747812,0.33056556,0.12805143
1764767916.8719604,-2.73154,1.89224,-0.8698199999999999,-0.91747812,0.33056556,0.12805143
1764767916.8719604,-2.73154,1.89224,-0.8698199999999999,-0.91747812,0.33056556,0.12805143
1764767916.8719604,-2.73154,1.89224,-0.8698199999999999,-0.91747812,0.33056556,0.12805143
1764767916.8719604,-2.73154,1.89224,-0.8698199999999999,-0.91747812,0.33056556,0.12805143
1764767916.8719604,-2.73154,1.89224,-0.8698199999999999,-0.91747812,0.33056556,0.12805143
1764767916.8719604,-2.73154,1.89224,-0.8698199999999999,-0.91747812,0.33056556,0.12805143
1764767916.8719604,-2.73154,1.89224,-0.8698199999999999,-0.91747812,0.33056556,0.12805143
1764767916.8719604,-2.73154,1.89224,-0.8698199999999999,-0.91747812,0.33056556,0.12805143
1764767916.8719604,-2.10588,1.28184,-0.8087799999999999,-0.91845468,0.329589,0.12951627
1764767916.8719604,-2.10588,1.28184,-0.8087799999999999,-0.91845468,0.329589,0.12951627
1764767916.8719604,-2.10588,1.28184,-0.8087799999999999,-0.91845468,0.329589,0.12951627
1764767916.8719604,-2.10588,1.28184,-0.8087799999999999,-0.91845468,0.329589,0.12951627
1764767916.8719604,-2.10588,1.28184,-0.8087799999999999,-0.91845468,0.329589,0.12951627
1764767916.8719604,-2.10588,1.28184,-0.8087799999999999,-0.91845468,0.329589,0.12951627
1764767916.8719604,-2.10588,1.28184,-0.8087799999999999,-0.91845468,0.329589,0.12951627
1764767916.8719604,-2.10588,1.28184,-0.8087799999999999,-0.91845468,0.329589,0.12951627
1764767916.8719604,-2.10588,1.28184,-0.8087799999999999,-0.91845468,0.329589,0.12951627
1764767916.8719604,-2.10588,1.28184,-0.8087799999999999,-0.91845468,0.329589,0.12951627
1764767916.8719604,-2.38056,1.8312,-0.51884,-0.919492275,0.330138315,0.131164215
1764767916.8719604,-2.38056,1.8312,-0.51884,-0.919492275,0.330138315,0.131164215
1764767916.8719604,-2.38056,1.8312,-0.51884,-0.919492275,0.330138315,0.131164215
1764767916.8719604,-2.38056,1.8312,-0.51884,-0.919492275,0.330138315,0.131164215
1764767916.8719604,-2.38056,1.8312,-0.51884,-0.919492275,0.330138315,0.131164215
1764767916.8719604,-2.38056,1.8312,-0.51884,-0.919492275,0.330138315,0.131164215
1764767916.9177048,-2.38056,1.8312,-0.51884,-0.919492275,0.330138315,0.131164215
1764767916.9177048,-2.38056,1.8312,-0.51884,-0.919492275,0.330138315,0.131164215
1764767916.9177048,-2.38056,1.8312,-0.51884,-0.919492275,0.330138315,0.131164215
1764767916.9177048,-2.38056,1.8312,-0.51884,-0.919492275,0.330138315,0.131164215
1764767916.9177048,-2.85362,1.99906,0.21364,-0.920590905,0.331847295,0.13159146
1764767916.9177048,-2.85362,1.99906,0.21364,-0.920590905,0.331847295,0.13159146
1764767916.9177048,-2.85362,1.99906,0.21364,-0.920590905,0.331847295,0.13159146
1764767916.9177048,-2.85362,1.99906,0.21364,-0.920590905,0.331847295,0.13159146
1764767916.9177048,-2.85362,1.99906,0.21364,-0.920590905,0.331847295,0.13159146
1764767916.9177048,-2.85362,1.99906,0.21364,-0.920590905,0.331847295,0.13159146
1764767916.9177048,-2.85362,1.99906,0.21364,-0.920590905,0.331847295,0.13159146
1764767916.9177048,-2.85362,1.99906,0.21364,-0.920590905,0.331847295,0.13159146
1764767916.9177048,-2.85362,1.99906,0.21364,-0.920590905,0.331847295,0.13159146
1764767916.9177048,-2.85362,1.99906,0.21364,-0.920590905,0.331847295,0.13159146
1764767916.9177048,-3.72344,1.8312,0.51884,-0.92114022,0.333067995,0.130553865
1764767916.9177048,-3.72344,1.8312,0.51884,-0.92114022,0.333067995,0.130553865
1764767916.9177048,-3.72344,1.8312,0.51884,-0.92114022,0.333067995,0.130553865
1764767916.9177048,-3.72344,1.8312,0.51884,-0.92114022,0.333067995,0.130553865
1764767916.9177048,-3.72344,1.8312,0.51884,-0.92114022,0.333067995,0.130553865
1764767916.9177048,-3.72344,1.8312,0.51884,-0.92114022,0.333067995,0.130553865
1764767916.9177048,-3.72344,1.8312,0.51884,-0.92114022,0.333067995,0.130553865
1764767916.9177048,-3.72344,1.8312,0.51884,-0.92114022,0.333067995,0.130553865
1764767916.9177048,-3.72344,1.8312,0.51884,-0.92114022,0.333067995,0.130553865
1764767916.9177048,-3.72344,1.8312,0.51884,-0.92114022,0.333067995,0.130553865
1764767916.9654117,-3.93708,2.24322,0.48832,-0.920224695,0.33251868,0.13049283
1764767916.9654117,-3.93708,2.24322,0.48832,-0.920224695,0.33251868,0.13049283
1764767916.9654117,-3.93708,2.24322,0.48832,-0.920224695,0.33251868,0.13049283
1764767916.9654117,-3.93708,2.24322,0.48832,-0.920224695,0.33251868,0.13049283
1764767916.9654117,-3.93708,2.24322,0.48832,-0.920224695,0.33251868,0.13049283
1764767916.9654117,-3.93708,2.24322,0.48832,-0.920224695,0.33251868,0.13049283
1764767916.9654117,-3.93708,2.24322,0.48832,-0.920224695,0.33251868,0.13049283
1764767916.9654117,-3.93708,2.24322,0.48832,-0.920224695,0.33251868,0.13049283
1764767916.9654117,-3.93708,2.24322,0.48832,-0.920224695,0.33251868,0.13049283
1764767916.9654117,-3.93708,2.24322,0.48832,-0.920224695,0.33251868,0.13049283
1764767916.9654117,-4.7306,2.0601,0.8392999999999999,-0.91906503,0.33410559,0.12988248
1764767916.9654117,-4.7306,2.0601,0.8392999999999999,-0.91906503,0.33410559,0.12988248
1764767916.9654117,-4.7306,2.0601,0.8392999999999999,-0.91906503,0.33410559,0.12988248
1764767916.9654117,-4.7306,2.0601,0.8392999999999999,-0.91906503,0.33410559,0.12988248
1764767916.9654117,-4.7306,2.0601,0.8392999999999999,-0.91906503,0.33410559,0.12988248
1764767916.9659166,-4.7306,2.0601,0.8392999999999999,-0.91906503,0.33410559,0.12988248
1764767916.9659166,-4.7306,2.0601,0.8392999999999999,-0.91906503,0.33410559,0.12988248
1764767916.9659166,-4.7306,2.0601,0.8392999999999999,-0.91906503,0.33410559,0.12988248
1764767916.9659166,-4.7306,2.0601,0.8392999999999999,-0.91906503,0.33410559,0.12988248
1764767916.9659166,-4.7306,2.0601,0.8392999999999999,-0.91906503,0.33410559,0.12988248
1764767916.9659166,-6.2566,2.3653,1.02242,-0.918759855,0.333312135,0.1293942
1764767916.9659166,-6.2566,2.3653,1.02242,-0.918759855,0.333312135,0.1293942
1764767917.0119364,-6.2566,2.3653,1.02242,-0.918759855,0.333312135,0.1293942
1764767917.0119364,-6.2566,2.3653,1.02242,-0.918759855,0.333312135,0.1293942
1764767917.0119364,-6.2566,2.3653,1.02242,-0.918759855,0.333312135,0.1293942
1764767917.0119364,-6.2566,2.3653,1.02242,-0.918759855,0.333312135,0.1293942
1764767917.0119364,-6.2566,2.3653,1.02242,-0.918759855,0.333312135,0.1293942
1764767917.0119364,-6.2566,2.3653,1.02242,-0.918759855,0.333312135,0.1293942
1764767917.0119364,-6.2566,2.3653,1.02242,-0.918759855,0.333312135,0.1293942
1764767917.0119364,-6.2566,2.3653,1.02242,-0.918759855,0.333312135,0.1293942
1764767917.0119364,-6.9433,2.48738,1.55652,-0.91943124,0.332213505,0.12988248
1764767917.0119364,-6.9433,2.48738,1.55652,-0.91943124,0.332213505,0.12988248
1764767917.0119364,-6.9433,2.48738,1.55652,-0.91943124,0.332213505,0.12988248
1764767917.0119364,-6.9433,2.48738,1.55652,-0.91943124,0.332213505,0.12988248
1764767917.0119364,-6.9433,2.48738,1.55652,-0.91943124,0.332213505,0.12988248
1764767917.0119364,-6.9433,2.48738,1.55652,-0.91943124,0.332213505,0.12988248
1764767917.0119364,-6.9433,2.48738,1.55652,-0.91943124,0.332213505,0.12988248
1764767917.0119364,-6.9433,2.48738,1.55652,-0.91943124,0.332213505,0.12988248
1764767917.0119364,-6.9433,2.48738,1.55652,-0.91943124,0.332213505,0.12988248
1764767917.0119364,-6.9433,2.48738,1.55652,-0.91943124,0.332213505,0.12988248
1764767917.0119364,-6.74492,2.15166,1.92276,-0.921079185,0.33166419,0.131530425
1764767917.0119364,-6.74492,2.15166,1.92276,-0.921079185,0.33166419,0.131530425
1764767917.0119364,-6.74492,2.15166,1.92276,-0.921079185,0.33166419,0.131530425
1764767917.0119364,-6.74492,2.15166,1.92276,-0.921079185,0.33166419,0.131530425
1764767917.0576713,-6.74492,2.15166,1.92276,-0.921079185,0.33166419,0.131530425
1764767917.0576713,-6.74492,2.15166,1.92276,-0.921079185,0.33166419,0.131530425
1764767917.0576713,-6.74492,2.15166,1.92276,-0.921079185,0.33166419,0.131530425
1764767917.0576713,-6.74492,2.15166,1.92276,-0.921079185,0.33166419,0.131530425
1764767917.0576713,-6.74492,2.15166,1.92276,-0.921079185,0.33166419,0.131530425
1764767917.0576713,-6.74492,2.15166,1.92276,-0.921079185,0.33166419,0.131530425
1764767917.0576713,-6.683879999999999,1.70912,1.6633399999999998,-0.92248299,0.329589,0.132995265
1764767917.0576713,-6.683879999999999,1.70912,1.6633399999999998,-0.92248299,0.329589,0.132995265
1764767917.0576713,-6.683879999999999,1.70912,1.6633399999999998,-0.92248299,0.329589,0.132995265
1764767917.0576713,-6.683879999999999,1.70912,1.6633399999999998,-0.92248299,0.329589,0.132995265
1764767917.0576713,-6.683879999999999,1.70912,1.6633399999999998,-0.92248299,0.329589,0.132995265
1764767917.0576713,-6.683879999999999,1.70912,1.6633399999999998,-0.92248299,0.329589,0.132995265
1764767917.0576713,-6.683879999999999,1.70912,1.6633399999999998,-0.92248299,0.329589,0.132995265
1764767917.0576713,-6.683879999999999,1.70912,1.6633399999999998,-0.92248299,0.329589,0.132995265
1764767917.0576713,-6.683879999999999,1.70912,1.6633399999999998,-0.92248299,0.329589,0.132995265
1764767917.0576713,-6.683879999999999,1.70912,1.6633399999999998,-0.92248299,0.329589,0.132995265
1764767917.0576713,-5.82932,1.17502,1.26658,-0.922788165,0.32775795,0.133849755
1764767917.0576713,-5.82932,1.17502,1.26658,-0.922788165,0.32775795,0.133849755
1764767917.0576713,-5.82932,1.17502,1.26658,-0.922788165,0.32775795,0.133849755
1764767917.0576713,-5.82932,1.17502,1.26658,-0.922788165,0.32775795,0.133849755
1764767917.0576713,-5.82932,1.17502,1.26658,-0.922788165,0.32775795,0.133849755
1764767917.0586822,-5.82932,1.17502,1.26658,-0.922788165,0.32775795,0.133849755
1764767917.0586822,-5.82932,1.17502,1.26658,-0.922788165,0.32775795,0.133849755
1764767917.0586822,-5.82932,1.17502,1.26658,-0.922788165,0.32775795,0.133849755
1764767917.1051552,-5.82932,1.17502,1.26658,-0.922788165,0.32775795,0.133849755
1764767917.1051552,-5.82932,1.17502,1.26658,-0.922788165,0.32775795,0.133849755
1764767917.1051552,-5.5699,1.0682,0.97664,-0.921323325,0.326110005,0.133971825
1764767917.1051552,-5.5699,1.0682,0.97664,-0.921323325,0.326110005,0.133971825
1764767917.1051552,-5.5699,1.0682,0.97664,-0.921323325,0.326110005,0.133971825
1764767917.1051552,-5.5699,1.0682,0.97664,-0.921323325,0.326110005,0.133971825
1764767917.1051552,-5.5699,1.0682,0.97664,-0.921323325,0.326110005,0.133971825
1764767917.1051552,-5.5699,1.0682,0.97664,-0.921323325,0.326110005,0.133971825
1764767917.1051552,-5.5699,1.0682,0.97664,-0.921323325,0.326110005,0.133971825
1764767917.1051552,-5.5699,1.0682,0.97664,-0.921323325,0.326110005,0.133971825
1764767917.1051552,-5.5699,1.0682,0.97664,-0.921323325,0.326110005,0.133971825
1764767917.1051552,-5.5699,1.0682,0.97664,-0.921323325,0.326110005,0.133971825
1764767917.1051552,-4.79164,0.85456,1.0682,-0.9204078,0.32556069,0.13342251
1764767917.1051552,-4.79164,0.85456,1.0682,-0.9204078,0.32556069,0.13342251
1764767917.1051552,-4.79164,0.85456,1.0682,-0.9204078,0.32556069,0.13342251
1764767917.1051552,-4.79164,0.85456,1.0682,-0.9204078,0.32556069,0.13342251
1764767917.1051552,-4.79164,0.85456,1.0682,-0.9204078,0.32556069,0.13342251
1764767917.1051552,-4.79164,0.85456,1.0682,-0.9204078,0.32556069,0.13342251
1764767917.1051552,-4.79164,0.85456,1.0682,-0.9204078,0.32556069,0.13342251
1764767917.1051552,-4.79164,0.85456,1.0682,-0.9204078,0.32556069,0.13342251
1764767917.1051552,-4.79164,0.85456,1.0682,-0.9204078,0.32556069,0.13342251
1764767917.1051552,-4.79164,0.85456,1.0682,-0.9204078,0.32556069,0.13342251
1764767917.1520977,-4.91372,0.94612,1.41918,-0.92004159,0.325499655,0.13195767
1764767917.1520977,-4.91372,0.94612,1.41918,-0.92004159,0.325499655,0.13195767
1764767917.1520977,-4.91372,0.94612,1.41918,-0.92004159,0.325499655,0.13195767
1764767917.1520977,-4.91372,0.94612,1.41918,-0.92004159,0.325499655,0.13195767
1764767917.1520977,-4.91372,0.94612,1.41918,-0.92004159,0.325499655,0.13195767
1764767917.1520977,-4.91372,0.94612,1.41918,-0.92004159,0.325499655,0.13195767
1764767917.1520977,-4.91372,0.94612,1.41918,-0.92004159,0.325499655,0.13195767
1764767917.1520977,-4.91372,0.94612,1.41918,-0.92004159,0.325499655,0.13195767
1764767917.1520977,-4.91372,0.94612,1.41918,-0.92004159,0.325499655,0.13195767
1764767917.1520977,-4.91372,0.94612,1.41918,-0.92004159,0.325499655,0.13195767
1764767917.1520977,-4.45592,0.9156,1.15976,-0.91979745,0.32617104,0.131042145
1764767917.1520977,-4.45592,0.9156,1.15976,-0.91979745,0.32617104,0.131042145
1764767917.1520977,-4.45592,0.9156,1.15976,-0.91979745,0.32617104,0.131042145
1764767917.1520977,-4.45592,0.9156,1.15976,-0.91979745,0.32617104,0.131042145
1764767917.1520977,-4.45592,0.9156,1.15976,-0.91979745,0.32617104,0.131042145
1764767917.1520977,-4.45592,0.9156,1.15976,-0.91979745,0.32617104,0.131042145
1764767917.1520977,-4.45592,0.9156,1.15976,-0.91979745,0.32617104,0.131042145
1764767917.1520977,-4.45592,0.9156,1.15976,-0.91979745,0.32617104,0.131042145
1764767917.1520977,-4.45592,0.9156,1.15976,-0.91979745,0.32617104,0.131042145
1764767917.1520977,-4.45592,0.9156,1.15976,-0.91979745,0.32617104,0.131042145
1764767917.1520977,-4.83742,0.77826,0.73248,-0.91955331,0.32556069,0.131042145
1764767917.1520977,-4.83742,0.77826,0.73248,-0.91955331,0.32556069,0.131042145
1764767917.1520977,-4.83742,0.77826,0.73248,-0.91955331,0.32556069,0.131042145
1764767917.1520977,-4.83742,0.77826,0.73248,-0.91955331,0.32556069,0.131042145
1764767917.1520977,-4.83742,0.77826,0.73248,-0.91955331,0.32556069,0.131042145
1764767917.1520977,-4.83742,0.77826,0.73248,-0.91955331,0.32556069,0.131042145
1764767917.1960616,-4.83742,0.77826,0.73248,-0.91955331,0.32556069,0.131042145
1764767917.1960616,-4.83742,0.77826,0.73248,-0.91955331,0.32556069,0.131042145
1764767917.1960616,-4.83742,0.77826,0.73248,-0.91955331,0.32556069,0.131042145
1764767917.1960616,-4.83742,0.77826,0.73248,-0.91955331,0.32556069,0.131042145
1764767917.1960616,-5.38678,0.6714399999999999,1.02242,-0.919980555,0.326476215,0.130431795
1764767917.1960616,-5.38678,0.6714399999999999,1.02242,-0.919980555,0.326476215,0.130431795
1764767917.1960616,-5.38678,0.6714399999999999,1.02242,-0.919980555,0.326476215,0.130431795
1764767917.1960616,-5.38678,0.6714399999999999,1.02242,-0.919980555,0.326476215,0.130431795
1764767917.1960616,-5.38678,0.6714399999999999,1.02242,-0.919980555,0.326476215,0.130431795
1764767917.1960616,-5.38678,0.6714399999999999,1.02242,-0.919980555,0.326476215,0.130431795
1764767917.1960616,-5.38678,0.6714399999999999,1.02242,-0.919980555,0.326476215,0.130431795
1764767917.1960616,-5.38678,0.6714399999999999,1.02242,-0.919980555,0.326476215,0.130431795
1764767917.1960616,-5.38678,0.6714399999999999,1.02242,-0.919980555,0.326476215,0.130431795
1764767917.1965714,-5.38678,0.6714399999999999,1.02242,-0.919980555,0.326476215,0.130431795
1764767917.1965714,-5.7225,0.57988,1.0682,-0.920468835,0.3259269,0.12976041
1764767917.1965714,-5.7225,0.57988,1.0682,-0.920468835,0.3259269,0.12976041
1764767917.1965714,-5.7225,0.57988,1.0682,-0.920468835,0.3259269,0.12976041
1764767917.1965714,-5.7225,0.57988,1.0682,-0.920468835,0.3259269,0.12976041
1764767917.1965714,-5.7225,0.57988,1.0682,-0.920468835,0.3259269,0.12976041
1764767917.1965714,-5.7225,0.57988,1.0682,-0.920468835,0.3259269,0.12976041
1764767917.2430508,-5.7225,0.57988,1.0682,-0.920468835,0.3259269,0.12976041
1764767917.2430508,-5.7225,0.57988,1.0682,-0.920468835,0.3259269,0.12976041
1764767917.2430508,-5.7225,0.57988,1.0682,-0.920468835,0.3259269,0.12976041
1764767917.2430508,-5.7225,0.57988,1.0682,-0.920468835,0.3259269,0.12976041
1764767917.2430508,-4.86794,0.59514,1.23606,-0.92248299,0.3247062,0.13073697
1764767917.2430508,-4.86794,0.59514,1.23606,-0.92248299,0.3247062,0.13073697
1764767917.2430508,-4.86794,0.59514,1.23606,-0.92248299,0.3247062,0.13073697
1764767917.2430508,-4.86794,0.59514,1.23606,-0.92248299,0.3247062,0.13073697
1764767917.2430508,-4.86794,0.59514,1.23606,-0.92248299,0.3247062,0.13073697
1764767917.2430508,-4.86794,0.59514,1.23606,-0.92248299,0.3247062,0.13073697
1764767917.2430508,-4.86794,0.59514,1.23606,-0.92248299,0.3247062,0.13073697
1764767917.2430508,-4.86794,0.59514,1.23606,-0.92248299,0.3247062,0.13073697
1764767917.2430508,-4.86794,0.59514,1.23606,-0.92248299,0.3247062,0.13073697
1764767917.2430508,-4.86794,0.59514,1.23606,-0.92248299,0.3247062,0.13073697
1764767917.2430508,-3.1283,0.21364,0.8087799999999999,-0.92236092,0.32299722,0.13244595
1764767917.2430508,-3.1283,0.21364,0.8087799999999999,-0.92236092,0.32299722,0.13244595
1764767917.2430508,-3.1283,0.21364,0.8087799999999999,-0.92236092,0.32299722,0.13244595
1764767917.2430508,-3.1283,0.21364,0.8087799999999999,-0.92236092,0.32299722,0.13244595
1764767917.2430508,-3.1283,0.21364,0.8087799999999999,-0.92236092,0.32299722,0.13244595
1764767917.2430508,-3.1283,0.21364,0.8087799999999999,-0.92236092,0.32299722,0.13244595
1764767917.2430508,-3.1283,0.21364,0.8087799999999999,-0.92236092,0.32299722,0.13244595
1764767917.2430508,-3.1283,0.21364,0.8087799999999999,-0.92236092,0.32299722,0.13244595
1764767917.2440658,-3.1283,0.21364,0.8087799999999999,-0.92236092,0.32299722,0.13244595
1764767917.2440658,-3.1283,0.21364,0.8087799999999999,-0.92236092,0.32299722,0.13244595
1764767917.2440658,-2.16692,0.36624,0.27468,-0.9216285,0.323912745,0.133117335
1764767917.2440658,-2.16692,0.36624,0.27468,-0.9216285,0.323912745,0.133117335
1764767917.2904637,-2.16692,0.36624,0.27468,-0.9216285,0.323912745,0.133117335
1764767917.2904637,-2.16692,0.36624,0.27468,-0.9216285,0.323912745,0.133117335
1764767917.2904637,-2.16692,0.36624,0.27468,-0.9216285,0.323912745,0.133117335
1764767917.2904637,-2.16692,0.36624,0.27468,-0.9216285,0.323912745,0.133117335
1764767917.2904637,-2.16692,0.36624,0.27468,-0.9216285,0.323912745,0.133117335
1764767917.2904637,-2.16692,0.36624,0.27468,-0.9216285,0.323912745,0.133117335
1764767917.2904637,-2.16692,0.36624,0.27468,-0.9216285,0.323912745,0.133117335
1764767917.2904637,-2.16692,0.36624,0.27468,-0.9216285,0.323912745,0.133117335
1764767917.2904637,-1.58704,0.0,-0.06104,-0.92016366,0.324645165,0.13269009
1764767917.2904637,-1.58704,0.0,-0.06104,-0.92016366,0.324645165,0.13269009
1764767917.2904637,-1.58704,0.0,-0.06104,-0.92016366,0.324645165,0.13269009
1764767917.2904637,-1.58704,0.0,-0.06104,-0.92016366,0.324645165,0.13269009
1764767917.2904637,-1.58704,0.0,-0.06104,-0.92016366,0.324645165,0.13269009
1764767917.2904637,-1.58704,0.0,-0.06104,-0.92016366,0.324645165,0.13269009
1764767917.2904637,-1.58704,0.0,-0.06104,-0.92016366,0.324645165,0.13269009
1764767917.2904637,-1.58704,0.0,-0.06104,-0.92016366,0.324645165,0.13269009
1764767917.2904637,-1.58704,0.0,-0.06104,-0.92016366,0.324645165,0.13269009
1764767917.2904637,-1.58704,0.0,-0.06104,-0.92016366,0.324645165,0.13269009
1764767917.2904637,-1.09872,0.41202,-0.21364,-0.918637785,0.325377585,0.13159146
1764767917.2904637,-1.09872,0.41202,-0.21364,-0.918637785,0.325377585,0.13159146
1764767917.2904637,-1.09872,0.41202,-0.21364,-0.918637785,0.325377585,0.13159146
1764767917.2904637,-1.09872,0.41202,-0.21364,-0.918637785,0.325377585,0.13159146
1764767917.337421,-1.09872,0.41202,-0.21364,-0.918637785,0.325377585,0.13159146
1764767917.337421,-1.09872,0.41202,-0.21364,-0.918637785,0.325377585,0.13159146
1764767917.337421,-1.09872,0.41202,-0.21364,-0.918637785,0.325377585,0.13159146
1764767917.337421,-1.09872,0.41202,-0.21364,-0.918637785,0.325377585,0.13159146
1764767917.337421,-1.09872,0.41202,-0.21364,-0.918637785,0.325377585,0.13159146
1764767917.337421,-1.09872,0.41202,-0.21364,-0.918637785,0.325377585,0.13159146
1764767917.337421,-1.26658,0.0,-0.3357199999999999,-0.91686777,0.32751381,0.131042145
1764767917.337421,-1.26658,0.0,-0.3357199999999999,-0.91686777,0.32751381,0.131042145
1764767917.337421,-1.26658,0.0,-0.3357199999999999,-0.91686777,0.32751381,0.131042145
1764767917.337421,-1.26658,0.0,-0.3357199999999999,-0.91686777,0.32751381,0.131042145
1764767917.337421,-1.26658,0.0,-0.3357199999999999,-0.91686777,0.32751381,0.131042145
1764767917.337421,-1.26658,0.0,-0.3357199999999999,-0.91686777,0.32751381,0.131042145
1764767917.337421,-1.26658,0.0,-0.3357199999999999,-0.91686777,0.32751381,0.131042145
1764767917.337421,-1.26658,0.0,-0.3357199999999999,-0.91686777,0.32751381,0.131042145
1764767917.337421,-1.26658,0.0,-0.3357199999999999,-0.91686777,0.32751381,0.131042145
1764767917.337421,-1.26658,0.0,-0.3357199999999999,-0.91686777,0.32751381,0.131042145
1764767917.337421,-3.11304,0.65618,-0.2289,-0.91613535,0.33264075,0.12841764
1764767917.337421,-3.11304,0.65618,-0.2289,-0.91613535,0.33264075,0.12841764
1764767917.337421,-3.11304,0.65618,-0.2289,-0.91613535,0.33264075,0.12841764
1764767917.337421,-3.11304,0.65618,-0.2289,-0.91613535,0.33264075,0.12841764
1764767917.337421,-3.11304,0.65618,-0.2289,-0.91613535,0.33264075,0.12841764
1764767917.337421,-3.11304,0.65618,-0.2289,-0.91613535,0.33264075,0.12841764
1764767917.337421,-3.11304,0.65618,-0.2289,-0.91613535,0.33264075,0.12841764
1764767917.337421,-3.11304,0.65618,-0.2289,-0.91613535,0.33264075,0.12841764
1764767917.3818088,-3.11304,0.65618,-0.2289,-0.91613535,0.33264075,0.12841764
1764767917.3818088,-3.11304,0.65618,-0.2289,-0.91613535,0.33264075,0.12841764
1764767917.3828187,-5.05106,0.96138,-0.6714399999999999,-0.91821054,0.336241815,0.12646452
1764767917.3828187,-5.05106,0.96138,-0.6714399999999999,-0.91821054,0.336241815,0.12646452
1764767917.3828187,-5.05106,0.96138,-0.6714399999999999,-0.91821054,0.336241815,0.12646452
1764767917.3828187,-5.05106,0.96138,-0.6714399999999999,-0.91821054,0.336241815,0.12646452
1764767917.3828187,-5.05106,0.96138,-0.6714399999999999,-0.91821054,0.336241815,0.12646452
1764767917.3828187,-5.05106,0.96138,-0.6714399999999999,-0.91821054,0.336241815,0.12646452
1764767917.3828187,-5.05106,0.96138,-0.6714399999999999,-0.91821054,0.336241815,0.12646452
1764767917.3828187,-5.05106,0.96138,-0.6714399999999999,-0.91821054,0.336241815,0.12646452
1764767917.3828187,-5.05106,0.96138,-0.6714399999999999,-0.91821054,0.336241815,0.12646452
1764767917.3828187,-5.05106,0.96138,-0.6714399999999999,-0.91821054,0.336241815,0.12646452
1764767917.3828187,-6.43972,1.63282,-0.71722,-0.918027435,0.335875605,0.127135905
1764767917.3828187,-6.43972,1.63282,-0.71722,-0.918027435,0.335875605,0.127135905
1764767917.3828187,-6.43972,1.63282,-0.71722,-0.918027435,0.335875605,0.127135905
1764767917.3828187,-6.43972,1.63282,-0.71722,-0.918027435,0.335875605,0.127135905
1764767917.3828187,-6.43972,1.63282,-0.71722,-0.918027435,0.335875605,0.127135905
1764767917.3828187,-6.43972,1.63282,-0.71722,-0.918027435,0.335875605,0.127135905
1764767917.3828187,-6.43972,1.63282,-0.71722,-0.918027435,0.335875605,0.127135905
1764767917.3828187,-6.43972,1.63282,-0.71722,-0.918027435,0.335875605,0.127135905
1764767917.3828187,-6.43972,1.63282,-0.71722,-0.918027435,0.335875605,0.127135905
1764767917.3828187,-6.43972,1.63282,-0.71722,-0.918027435,0.335875605,0.127135905
1764767917.429917,-6.42446,1.526,-0.47306,-0.91784433,0.33312903,0.12902799
1764767917.429917,-6.42446,1.526,-0.47306,-0.91784433,0.33312903,0.12902799
1764767917.429917,-6.42446,1.526,-0.47306,-0.91784433,0.33312903,0.12902799
1764767917.429917,-6.42446,1.526,-0.47306,-0.91784433,0.33312903,0.12902799
1764767917.429917,-6.42446,1.526,-0.47306,-0.91784433,0.33312903,0.12902799
1764767917.429917,-6.42446,1.526,-0.47306,-0.91784433,0.33312903,0.12902799
1764767917.429917,-6.42446,1.526,-0.47306,-0.91784433,0.33312903,0.12902799
1764767917.429917,-6.42446,1.526,-0.47306,-0.91784433,0.33312903,0.12902799
1764767917.429917,-6.42446,1.526,-0.47306,-0.91784433,0.33312903,0.12902799
1764767917.429917,-6.42446,1.526,-0.47306,-0.91784433,0.33312903,0.12902799
1764767917.429917,-6.37868,1.6022999999999998,0.3509799999999999,-0.91735605,0.33044349,0.130187655
1764767917.429917,-6.37868,1.6022999999999998,0.3509799999999999,-0.91735605,0.33044349,0.130187655
1764767917.429917,-6.37868,1.6022999999999998,0.3509799999999999,-0.91735605,0.33044349,0.130187655
1764767917.429917,-6.37868,1.6022999999999998,0.3509799999999999,-0.91735605,0.33044349,0.130187655
1764767917.429917,-6.37868,1.6022999999999998,0.3509799999999999,-0.91735605,0.33044349,0.130187655
1764767917.429917,-6.37868,1.6022999999999998,0.3509799999999999,-0.91735605,0.33044349,0.130187655
1764767917.429917,-6.37868,1.6022999999999998,0.3509799999999999,-0.91735605,0.33044349,0.130187655
1764767917.429917,-6.37868,1.6022999999999998,0.3509799999999999,-0.91735605,0.33044349,0.130187655
1764767917.429917,-6.37868,1.6022999999999998,0.3509799999999999,-0.91735605,0.33044349,0.130187655
1764767917.429917,-6.37868,1.6022999999999998,0.3509799999999999,-0.91735605,0.33044349,0.130187655
1764767917.429917,-5.66146,1.9075,0.0,-0.919614345,0.32665932,0.13110318
1764767917.429917,-5.66146,1.9075,0.0,-0.919614345,0.32665932,0.13110318
1764767917.429917,-5.66146,1.9075,0.0,-0.919614345,0.32665932,0.13110318
1764767917.429917,-5.66146,1.9075,0.0,-0.919614345,0.32665932,0.13110318
1764767917.4786358,-5.66146,1.9075,0.0,-0.919614345,0.32665932,0.13110318
1764767917.4786358,-5.66146,1.9075,0.0,-0.919614345,0.32665932,0.13110318
1764767917.4786358,-5.66146,1.9075,0.0,-0.919614345,0.32665932,0.13110318
1764767917.4786358,-5.66146,1.9075,0.0,-0.919614345,0.32665932,0.13110318
1764767917.4786358,-5.66146,1.9075,0.0,-0.919614345,0.32665932,0.13110318
1764767917.4786358,-5.66146,1.9075,0.0,-0.919614345,0.32665932,0.13110318
1764767917.4786358,-4.10494,1.92276,0.4578,-0.92114022,0.32385171,0.131896635
1764767917.479171,-4.10494,1.92276,0.4578,-0.92114022,0.32385171,0.131896635
1764767917.479171,-4.10494,1.92276,0.4578,-0.92114022,0.32385171,0.131896635
1764767917.479171,-4.10494,1.92276,0.4578,-0.92114022,0.32385171,0.131896635
1764767917.479171,-4.10494,1.92276,0.4578,-0.92114022,0.32385171,0.131896635
1764767917.479171,-4.10494,1.92276,0.4578,-0.92114022,0.32385171,0.131896635
1764767917.479171,-4.10494,1.92276,0.4578,-0.92114022,0.32385171,0.131896635
1764767917.479171,-4.10494,1.92276,0.4578,-0.92114022,0.32385171,0.131896635
1764767917.479171,-4.10494,1.92276,0.4578,-0.92114022,0.32385171,0.131896635
1764767917.479171,-4.10494,1.92276,0.4578,-0.92114022,0.32385171,0.131896635
1764767917.4797072,-3.08252,1.38866,0.48832,-0.92223885,0.32409585,0.132506985
1764767917.4797072,-3.08252,1.38866,0.48832,-0.92223885,0.32409585,0.132506985
1764767917.4797072,-3.08252,1.38866,0.48832,-0.92223885,0.32409585,0.132506985
1764767917.4797072,-3.08252,1.38866,0.48832,-0.92223885,0.32409585,0.132506985
1764767917.4797072,-3.08252,1.38866,0.48832,-0.92223885,0.32409585,0.132506985
1764767917.4797072,-3.08252,1.38866,0.48832,-0.92223885,0.32409585,0.132506985
1764767917.4797072,-3.08252,1.38866,0.48832,-0.92223885,0.32409585,0.132506985
1764767917.4797072,-3.08252,1.38866,0.48832,-0.92223885,0.32409585,0.132506985
1764767917.525588,-3.08252,1.38866,0.48832,-0.92223885,0.32409585,0.132506985
1764767917.525588,-3.08252,1.38866,0.48832,-0.92223885,0.32409585,0.132506985
1764767917.525588,-2.99096,1.38866,0.56462,-0.922055745,0.326720355,0.131896635
1764767917.525588,-2.99096,1.38866,0.56462,-0.922055745,0.326720355,0.131896635
1764767917.525588,-2.99096,1.38866,0.56462,-0.922055745,0.326720355,0.131896635
1764767917.525588,-2.99096,1.38866,0.56462,-0.922055745,0.326720355,0.131896635
1764767917.525588,-2.99096,1.38866,0.56462,-0.922055745,0.326720355,0.131896635
1764767917.525588,-2.99096,1.38866,0.56462,-0.922055745,0.326720355,0.131896635
1764767917.525588,-2.99096,1.38866,0.56462,-0.922055745,0.326720355,0.131896635
1764767917.525588,-2.99096,1.38866,0.56462,-0.922055745,0.326720355,0.131896635
1764767917.525588,-2.99096,1.38866,0.56462,-0.922055745,0.326720355,0.131896635
1764767917.525588,-2.99096,1.38866,0.56462,-0.922055745,0.326720355,0.131896635
1764767917.525588,-3.9676,1.48022,0.1678599999999999,-0.92089608,0.329894175,0.13171353
1764767917.525588,-3.9676,1.48022,0.1678599999999999,-0.92089608,0.329894175,0.13171353
1764767917.5265963,-3.9676,1.48022,0.1678599999999999,-0.92089608,0.329894175,0.13171353
1764767917.5265963,-3.9676,1.48022,0.1678599999999999,-0.92089608,0.329894175,0.13171353
1764767917.5265963,-3.9676,1.48022,0.1678599999999999,-0.92089608,0.329894175,0.13171353
1764767917.5265963,-3.9676,1.48022,0.1678599999999999,-0.92089608,0.329894175,0.13171353
1764767917.5265963,-3.9676,1.48022,0.1678599999999999,-0.92089608,0.329894175,0.13171353
1764767917.5265963,-3.9676,1.48022,0.1678599999999999,-0.92089608,0.329894175,0.13171353
1764767917.5265963,-3.9676,1.48022,0.1678599999999999,-0.92089608,0.329894175,0.13171353
1764767917.5265963,-3.9676,1.48022,0.1678599999999999,-0.92089608,0.329894175,0.13171353
1764767917.5265963,-5.02054,1.35814,0.42728,-0.9191871,0.331603155,0.131042145
1764767917.5265963,-5.02054,1.35814,0.42728,-0.9191871,0.331603155,0.131042145
1764767917.5733924,-5.02054,1.35814,0.42728,-0.9191871,0.331603155,0.131042145
1764767917.5733924,-5.02054,1.35814,0.42728,-0.9191871,0.331603155,0.131042145
1764767917.5733924,-5.02054,1.35814,0.42728,-0.9191871,0.331603155,0.131042145
1764767917.5733924,-5.02054,1.35814,0.42728,-0.9191871,0.331603155,0.131042145
1764767917.5733924,-5.02054,1.35814,0.42728,-0.9191871,0.331603155,0.131042145
1764767917.5733924,-5.02054,1.35814,0.42728,-0.9191871,0.331603155,0.131042145
1764767917.5733924,-5.02054,1.35814,0.42728,-0.9191871,0.331603155,0.131042145
1764767917.5733924,-5.02054,1.35814,0.42728,-0.9191871,0.331603155,0.131042145
1764767917.5733924,-5.63094,2.12114,0.3509799999999999,-0.918515715,0.332579715,0.13012662
1764767917.5733924,-5.63094,2.12114,0.3509799999999999,-0.918515715,0.332579715,0.13012662
1764767917.5733924,-5.63094,2.12114,0.3509799999999999,-0.918515715,0.332579715,0.13012662
1764767917.5733924,-5.63094,2.12114,0.3509799999999999,-0.918515715,0.332579715,0.13012662
1764767917.5733924,-5.63094,2.12114,0.3509799999999999,-0.918515715,0.332579715,0.13012662
1764767917.5733924,-5.63094,2.12114,0.3509799999999999,-0.918515715,0.332579715,0.13012662
1764767917.5733924,-5.63094,2.12114,0.3509799999999999,-0.918515715,0.332579715,0.13012662
1764767917.5733924,-5.63094,2.12114,0.3509799999999999,-0.918515715,0.332579715,0.13012662
1764767917.5733924,-5.63094,2.12114,0.3509799999999999,-0.918515715,0.332579715,0.13012662
1764767917.5733924,-5.63094,2.12114,0.3509799999999999,-0.918515715,0.332579715,0.13012662
1764767917.5733924,-6.60758,2.50264,0.25942,-0.917539155,0.33215247,0.130187655
1764767917.5733924,-6.60758,2.50264,0.25942,-0.917539155,0.33215247,0.130187655
1764767917.5733924,-6.60758,2.50264,0.25942,-0.917539155,0.33215247,0.130187655
1764767917.5733924,-6.60758,2.50264,0.25942,-0.917539155,0.33215247,0.130187655
1764767917.5733924,-6.60758,2.50264,0.25942,-0.917539155,0.33215247,0.130187655
1764767917.5733924,-6.60758,2.50264,0.25942,-0.917539155,0.33215247,0.130187655
1764767917.62053,-6.60758,2.50264,0.25942,-0.917539155,0.33215247,0.130187655
1764767917.62053,-6.60758,2.50264,0.25942,-0.917539155,0.33215247,0.130187655
1764767917.62053,-6.60758,2.50264,0.25942,-0.917539155,0.33215247,0.130187655
1764767917.62053,-6.60758,2.50264,0.25942,-0.917539155,0.33215247,0.130187655
1764767917.62053,-6.42446,2.12114,0.3509799999999999,-0.917661225,0.33117591,0.13110318
1764767917.62053,-6.42446,2.12114,0.3509799999999999,-0.917661225,0.33117591,0.13110318
1764767917.62053,-6.42446,2.12114,0.3509799999999999,-0.917661225,0.33117591,0.13110318
1764767917.62053,-6.42446,2.12114,0.3509799999999999,-0.917661225,0.33117591,0.13110318
1764767917.62053,-6.42446,2.12114,0.3509799999999999,-0.917661225,0.33117591,0.13110318
1764767917.62053,-6.42446,2.12114,0.3509799999999999,-0.917661225,0.33117591,0.13110318
1764767917.62053,-6.42446,2.12114,0.3509799999999999,-0.917661225,0.33117591,0.13110318
1764767917.62053,-6.42446,2.12114,0.3509799999999999,-0.917661225,0.33117591,0.13110318
1764767917.62053,-6.42446,2.12114,0.3509799999999999,-0.917661225,0.33117591,0.13110318
1764767917.62053,-6.42446,2.12114,0.3509799999999999,-0.917661225,0.33117591,0.13110318
1764767917.62053,-6.47024,2.33478,0.3815,-0.91882089,0.329527965,0.13220181
1764767917.62053,-6.47024,2.33478,0.3815,-0.91882089,0.329527965,0.13220181
1764767917.62053,-6.47024,2.33478,0.3815,-0.91882089,0.329527965,0.13220181
1764767917.62053,-6.47024,2.33478,0.3815,-0.91882089,0.329527965,0.13220181
1764767917.62053,-6.47024,2.33478,0.3815,-0.91882089,0.329527965,0.13220181
1764767917.62053,-6.47024,2.33478,0.3815,-0.91882089,0.329527965,0.13220181
1764767917.62053,-6.47024,2.33478,0.3815,-0.91882089,0.329527965,0.13220181
1764767917.62053,-6.47024,2.33478,0.3815,-0.91882089,0.329527965,0.13220181
1764767917.62053,-6.47024,2.33478,0.3815,-0.91882089,0.329527965,0.13220181
1764767917.62053,-6.47024,2.33478,0.3815,-0.91882089,0.329527965,0.13220181
1764767917.6675775,-5.98192,2.02958,-0.01526,-0.920712975,0.327452775,0.13244595
1764767917.6675775,-5.98192,2.02958,-0.01526,-0.920712975,0.327452775,0.13244595
1764767917.6675775,-5.98192,2.02958,-0.01526,-0.920712975,0.327452775,0.13244595
1764767917.6675775,-5.98192,2.02958,-0.01526,-0.920712975,0.327452775,0.13244595
1764767917.6675775,-5.98192,2.02958,-0.01526,-0.920712975,0.327452775,0.13244595
1764767917.6675775,-5.98192,2.02958,-0.01526,-0.920712975,0.327452775,0.13244595
1764767917.6675775,-5.98192,2.02958,-0.01526,-0.920712975,0.327452775,0.13244595
1764767917.6675775,-5.98192,2.02958,-0.01526,-0.920712975,0.327452775,0.13244595
1764767917.6675775,-5.98192,2.02958,-0.01526,-0.920712975,0.327452775,0.13244595
1764767917.6675775,-5.98192,2.02958,-0.01526,-0.920712975,0.327452775,0.13244595
1764767917.6675775,-5.4936,1.87698,0.50358,-0.92199471,0.32568276,0.132751125
1764767917.6675775,-5.4936,1.87698,0.50358,-0.92199471,0.32568276,0.132751125
1764767917.6675775,-5.4936,1.87698,0.50358,-0.92199471,0.32568276,0.132751125
1764767917.6675775,-5.4936,1.87698,0.50358,-0.92199471,0.32568276,0.132751125
1764767917.6675775,-5.4936,1.87698,0.50358,-0.92199471,0.32568276,0.132751125
1764767917.6675775,-5.4936,1.87698,0.50358,-0.92199471,0.32568276,0.132751125
1764767917.6675775,-5.4936,1.87698,0.50358,-0.92199471,0.32568276,0.132751125
1764767917.6675775,-5.4936,1.87698,0.50358,-0.92199471,0.32568276,0.132751125
1764767917.668096,-5.4936,1.87698,0.50358,-0.92199471,0.32568276,0.132751125
1764767917.668096,-5.4936,1.87698,0.50358,-0.92199471,0.32568276,0.132751125
1764767917.710568,-4.76112,1.23606,0.28994,-0.92260506,0.32458413,0.132506985
1764767917.710568,-4.76112,1.23606,0.28994,-0.92260506,0.32458413,0.132506985
1764767917.710568,-4.76112,1.23606,0.28994,-0.92260506,0.32458413,0.132506985
1764767917.710568,-4.76112,1.23606,0.28994,-0.92260506,0.32458413,0.132506985
1764767917.710568,-4.76112,1.23606,0.28994,-0.92260506,0.32458413,0.132506985
1764767917.710568,-4.76112,1.23606,0.28994,-0.92260506,0.32458413,0.132506985
1764767917.710568,-4.76112,1.23606,0.28994,-0.92260506,0.32458413,0.132506985
1764767917.710568,-4.76112,1.23606,0.28994,-0.92260506,0.32458413,0.132506985
1764767917.710568,-4.76112,1.23606,0.28994,-0.92260506,0.32458413,0.132506985
1764767917.710568,-4.76112,1.23606,0.28994,-0.92260506,0.32458413,0.132506985
1764767917.710568,-4.33384,1.00716,0.47306,-0.923642655,0.3247062,0.13171353
1764767917.710568,-4.33384,1.00716,0.47306,-0.923642655,0.3247062,0.13171353
1764767917.710568,-4.33384,1.00716,0.47306,-0.923642655,0.3247062,0.13171353
1764767917.710568,-4.33384,1.00716,0.47306,-0.923642655,0.3247062,0.13171353
1764767917.710568,-4.33384,1.00716,0.47306,-0.923642655,0.3247062,0.13171353
1764767917.710568,-4.33384,1.00716,0.47306,-0.923642655,0.3247062,0.13171353
1764767917.710568,-4.33384,1.00716,0.47306,-0.923642655,0.3247062,0.13171353
1764767917.710568,-4.33384,1.00716,0.47306,-0.923642655,0.3247062,0.13171353
1764767917.710568,-4.33384,1.00716,0.47306,-0.923642655,0.3247062,0.13171353
1764767917.710568,-4.33384,1.00716,0.47306,-0.923642655,0.3247062,0.13171353
1764767917.710568,-3.60136,0.71722,0.51884,-0.92297127,0.32519448,0.13134732
1764767917.710568,-3.60136,0.71722,0.51884,-0.92297127,0.32519448,0.13134732
1764767917.710568,-3.60136,0.71722,0.51884,-0.92297127,0.32519448,0.13134732
1764767917.710568,-3.60136,0.71722,0.51884,-0.92297127,0.32519448,0.13134732
1764767917.7575512,-3.60136,0.71722,0.51884,-0.92297127,0.32519448,0.13134732
1764767917.7575512,-3.60136,0.71722,0.51884,-0.92297127,0.32519448,0.13134732
1764767917.7575512,-3.60136,0.71722,0.51884,-0.92297127,0.32519448,0.13134732
1764767917.7575512,-3.60136,0.71722,0.51884,-0.92297127,0.32519448,0.13134732
1764767917.7575512,-3.60136,0.71722,0.51884,-0.92297127,0.32519448,0.13134732
1764767917.7575512,-3.60136,0.71722,0.51884,-0.92297127,0.32519448,0.13134732
1764767917.7575512,-3.69292,0.74774,0.88508,-0.9216285,0.32519448,0.130675935
1764767917.7575512,-3.69292,0.74774,0.88508,-0.9216285,0.32519448,0.130675935
1764767917.7575512,-3.69292,0.74774,0.88508,-0.9216285,0.32519448,0.130675935
1764767917.7575512,-3.69292,0.74774,0.88508,-0.9216285,0.32519448,0.130675935
1764767917.7575512,-3.69292,0.74774,0.88508,-0.9216285,0.32519448,0.130675935
1764767917.7575512,-3.69292,0.74774,0.88508,-0.9216285,0.32519448,0.130675935
1764767917.7575512,-3.69292,0.74774,0.88508,-0.9216285,0.32519448,0.130675935
1764767917.7575512,-3.69292,0.74774,0.88508,-0.9216285,0.32519448,0.130675935
1764767917.7575512,-3.69292,0.74774,0.88508,-0.9216285,0.32519448,0.130675935
1764767917.7580686,-3.69292,0.74774,0.88508,-0.9216285,0.32519448,0.130675935
1764767917.7580686,-3.18934,1.12924,0.4578,-0.920957115,0.325743795,0.130798005
1764767917.7580686,-3.18934,1.12924,0.4578,-0.920957115,0.325743795,0.130798005
1764767917.7580686,-3.18934,1.12924,0.4578,-0.920957115,0.325743795,0.130798005
1764767917.7580686,-3.18934,1.12924,0.4578,-0.920957115,0.325743795,0.130798005
1764767917.7580686,-3.18934,1.12924,0.4578,-0.920957115,0.325743795,0.130798005
1764767917.7580686,-3.18934,1.12924,0.4578,-0.920957115,0.325743795,0.130798005
1764767917.7580686,-3.18934,1.12924,0.4578,-0.920957115,0.325743795,0.130798005
1764767917.7580686,-3.18934,1.12924,0.4578,-0.920957115,0.325743795,0.130798005
1764767917.8048184,-3.18934,1.12924,0.4578,-0.920957115,0.325743795,0.130798005
1764767917.8048184,-3.18934,1.12924,0.4578,-0.920957115,0.325743795,0.130798005
1764767917.8048184,-3.09778,0.74774,0.57988,-0.92150643,0.327330705,0.13037076
1764767917.8048184,-3.09778,0.74774,0.57988,-0.92150643,0.327330705,0.13037076
1764767917.8048184,-3.09778,0.74774,0.57988,-0.92150643,0.327330705,0.13037076
1764767917.8048184,-3.09778,0.74774,0.57988,-0.92150643,0.327330705,0.13037076
1764767917.8048184,-3.09778,0.74774,0.57988,-0.92150643,0.327330705,0.13037076
1764767917.8048184,-3.09778,0.74774,0.57988,-0.92150643,0.327330705,0.13037076
1764767917.8048184,-3.09778,0.74774,0.57988,-0.92150643,0.327330705,0.13037076
1764767917.8048184,-3.09778,0.74774,0.57988,-0.92150643,0.327330705,0.13037076
1764767917.8048184,-3.09778,0.74774,0.57988,-0.92150643,0.327330705,0.13037076
1764767917.8048184,-3.09778,0.74774,0.57988,-0.92150643,0.327330705,0.13037076
1764767917.8048184,-3.37246,0.4578,0.51884,-0.921811605,0.3283683,0.130553865
1764767917.8048184,-3.37246,0.4578,0.51884,-0.921811605,0.3283683,0.130553865
1764767917.8048184,-3.37246,0.4578,0.51884,-0.921811605,0.3283683,0.130553865
1764767917.8048184,-3.37246,0.4578,0.51884,-0.921811605,0.3283683,0.130553865
1764767917.8048184,-3.37246,0.4578,0.51884,-0.921811605,0.3283683,0.130553865
1764767917.8048184,-3.37246,0.4578,0.51884,-0.921811605,0.3283683,0.130553865
1764767917.8048184,-3.37246,0.4578,0.51884,-0.921811605,0.3283683,0.130553865
1764767917.8048184,-3.37246,0.4578,0.51884,-0.921811605,0.3283683,0.130553865
1764767917.8048184,-3.37246,0.4578,0.51884,-0.921811605,0.3283683,0.130553865
1764767917.8048184,-3.37246,0.4578,0.51884,-0.921811605,0.3283683,0.130553865
1764767917.848951,-3.44876,0.6103999999999999,0.54936,-0.92077401,0.32910072,0.130553865
1764767917.848951,-3.44876,0.6103999999999999,0.54936,-0.92077401,0.32910072,0.130553865
1764767917.848951,-3.44876,0.6103999999999999,0.54936,-0.92077401,0.32910072,0.130553865
1764767917.848951,-3.44876,0.6103999999999999,0.54936,-0.92077401,0.32910072,0.130553865
1764767917.848951,-3.44876,0.6103999999999999,0.54936,-0.92077401,0.32910072,0.130553865
1764767917.848951,-3.44876,0.6103999999999999,0.54936,-0.92077401,0.32910072,0.130553865
1764767917.8502266,-3.44876,0.6103999999999999,0.54936,-0.92077401,0.32910072,0.130553865
1764767917.8502266,-3.44876,0.6103999999999999,0.54936,-0.92077401,0.32910072,0.130553865
1764767917.8502266,-3.44876,0.6103999999999999,0.54936,-0.92077401,0.32910072,0.130553865
1764767917.8502266,-3.44876,0.6103999999999999,0.54936,-0.92077401,0.32910072,0.130553865
1764767917.8502266,-3.38772,0.1525999999999999,0.1678599999999999,-0.919736415,0.329650035,0.131164215
1764767917.8502266,-3.38772,0.1525999999999999,0.1678599999999999,-0.919736415,0.329650035,0.131164215
1764767917.8502266,-3.38772,0.1525999999999999,0.1678599999999999,-0.919736415,0.329650035,0.131164215
1764767917.8502266,-3.38772,0.1525999999999999,0.1678599999999999,-0.919736415,0.329650035,0.131164215
1764767917.8502266,-3.38772,0.1525999999999999,0.1678599999999999,-0.919736415,0.329650035,0.131164215
1764767917.8502266,-3.38772,0.1525999999999999,0.1678599999999999,-0.919736415,0.329650035,0.131164215
1764767917.8502266,-3.38772,0.1525999999999999,0.1678599999999999,-0.919736415,0.329650035,0.131164215
1764767917.8502266,-3.38772,0.1525999999999999,0.1678599999999999,-0.919736415,0.329650035,0.131164215
1764767917.8502266,-3.38772,0.1525999999999999,0.1678599999999999,-0.919736415,0.329650035,0.131164215
1764767917.8502266,-3.38772,0.1525999999999999,0.1678599999999999,-0.919736415,0.329650035,0.131164215
1764767917.8502266,-3.4335,0.9156,0.57988,-0.919614345,0.32971107,0.13024869
1764767917.8502266,-3.4335,0.9156,0.57988,-0.919614345,0.32971107,0.13024869
1764767917.8502266,-3.4335,0.9156,0.57988,-0.919614345,0.32971107,0.13024869
1764767917.8502266,-3.4335,0.9156,0.57988,-0.919614345,0.32971107,0.13024869
1764767917.895887,-3.4335,0.9156,0.57988,-0.919614345,0.32971107,0.13024869
1764767917.895887,-3.4335,0.9156,0.57988,-0.919614345,0.32971107,0.13024869
1764767917.895887,-3.4335,0.9156,0.57988,-0.919614345,0.32971107,0.13024869
1764767917.895887,-3.4335,0.9156,0.57988,-0.919614345,0.32971107,0.13024869
1764767917.895887,-3.4335,0.9156,0.57988,-0.919614345,0.32971107,0.13024869
1764767917.895887,-3.4335,0.9156,0.57988,-0.919614345,0.32971107,0.13024869
1764767917.895887,-3.84552,0.8698199999999999,0.10682,-0.919736415,0.32885658,0.13024869
1764767917.895887,-3.84552,0.8698199999999999,0.10682,-0.919736415,0.32885658,0.13024869
1764767917.895887,-3.84552,0.8698199999999999,0.10682,-0.919736415,0.32885658,0.13024869
1764767917.895887,-3.84552,0.8698199999999999,0.10682,-0.919736415,0.32885658,0.13024869
1764767917.895887,-3.84552,0.8698199999999999,0.10682,-0.919736415,0.32885658,0.13024869
1764767917.895887,-3.84552,0.8698199999999999,0.10682,-0.919736415,0.32885658,0.13024869
1764767917.895887,-3.84552,0.8698199999999999,0.10682,-0.919736415,0.32885658,0.13024869
1764767917.895887,-3.84552,0.8698199999999999,0.10682,-0.919736415,0.32885658,0.13024869
1764767917.8969057,-3.84552,0.8698199999999999,0.10682,-0.919736415,0.32885658,0.13024869
1764767917.8969057,-3.84552,0.8698199999999999,0.10682,-0.919736415,0.32885658,0.13024869
1764767917.8969057,-3.78448,0.25942,0.21364,-0.91967538,0.328551405,0.13024869
1764767917.8969057,-3.78448,0.25942,0.21364,-0.91967538,0.328551405,0.13024869
1764767917.8969057,-3.78448,0.25942,0.21364,-0.91967538,0.328551405,0.13024869
1764767917.8969057,-3.78448,0.25942,0.21364,-0.91967538,0.328551405,0.13024869
1764767917.8969057,-3.78448,0.25942,0.21364,-0.91967538,0.328551405,0.13024869
1764767917.8969057,-3.78448,0.25942,0.21364,-0.91967538,0.328551405,0.13024869
1764767917.8969057,-3.78448,0.25942,0.21364,-0.91967538,0.328551405,0.13024869
1764767917.8969057,-3.78448,0.25942,0.21364,-0.91967538,0.328551405,0.13024869
1764767917.943093,-3.78448,0.25942,0.21364,-0.91967538,0.328551405,0.13024869
1764767917.945627,-3.78448,0.25942,0.21364,-0.91967538,0.328551405,0.13024869
1764767917.945627,-4.60852,0.44254,0.1678599999999999,-0.919858485,0.329039685,0.12976041
1764767917.945627,-4.60852,0.44254,0.1678599999999999,-0.919858485,0.329039685,0.12976041
1764767917.945627,-4.60852,0.44254,0.1678599999999999,-0.919858485,0.329039685,0.12976041
1764767917.945627,-4.60852,0.44254,0.1678599999999999,-0.919858485,0.329039685,0.12976041
1764767917.945627,-4.60852,0.44254,0.1678599999999999,-0.919858485,0.329039685,0.12976041
1764767917.945627,-4.60852,0.44254,0.1678599999999999,-0.919858485,0.329039685,0.12976041
1764767917.945627,-4.60852,0.44254,0.1678599999999999,-0.919858485,0.329039685,0.12976041
1764767917.945627,-4.60852,0.44254,0.1678599999999999,-0.919858485,0.329039685,0.12976041
1764767917.945627,-4.60852,0.44254,0.1678599999999999,-0.919858485,0.329039685,0.12976041
1764767917.945627,-4.60852,0.44254,0.1678599999999999,-0.919858485,0.329039685,0.12976041
1764767917.945627,-4.440659999999999,0.763,0.3509799999999999,-0.919614345,0.32922279,0.12927213
1764767917.945627,-4.440659999999999,0.763,0.3509799999999999,-0.919614345,0.32922279,0.12927213
1764767917.945627,-4.440659999999999,0.763,0.3509799999999999,-0.919614345,0.32922279,0.12927213
1764767917.945627,-4.440659999999999,0.763,0.3509799999999999,-0.919614345,0.32922279,0.12927213
1764767917.945627,-4.440659999999999,0.763,0.3509799999999999,-0.919614345,0.32922279,0.12927213
1764767917.945627,-4.440659999999999,0.763,0.3509799999999999,-0.919614345,0.32922279,0.12927213
1764767917.945627,-4.440659999999999,0.763,0.3509799999999999,-0.919614345,0.32922279,0.12927213
1764767917.947031,-4.440659999999999,0.763,0.3509799999999999,-0.919614345,0.32922279,0.12927213
1764767917.947031,-4.440659999999999,0.763,0.3509799999999999,-0.919614345,0.32922279,0.12927213
1764767917.947031,-4.440659999999999,0.763,0.3509799999999999,-0.919614345,0.32922279,0.12927213
1764767917.9906046,-4.0439,0.97664,0.24416,-0.919492275,0.327941055,0.1293942
1764767917.9906046,-4.0439,0.97664,0.24416,-0.919492275,0.327941055,0.1293942
1764767917.9906046,-4.0439,0.97664,0.24416,-0.919492275,0.327941055,0.1293942
1764767917.9906046,-4.0439,0.97664,0.24416,-0.919492275,0.327941055,0.1293942
1764767917.9906046,-4.0439,0.97664,0.24416,-0.919492275,0.327941055,0.1293942
1764767917.9906046,-4.0439,0.97664,0.24416,-0.919492275,0.327941055,0.1293942
1764767917.9906046,-4.0439,0.97664,0.24416,-0.919492275,0.327941055,0.1293942
1764767917.9906046,-4.0439,0.97664,0.24416,-0.919492275,0.327941055,0.1293942
1764767917.9906046,-4.0439,0.97664,0.24416,-0.919492275,0.327941055,0.1293942
1764767917.9906046,-4.0439,0.97664,0.24416,-0.919492275,0.327941055,0.1293942
1764767917.9906046,-3.60136,1.05294,0.94612,-0.919614345,0.32775795,0.13037076
1764767917.9906046,-3.60136,1.05294,0.94612,-0.919614345,0.32775795,0.13037076
1764767917.9906046,-3.60136,1.05294,0.94612,-0.919614345,0.32775795,0.13037076
1764767917.9911442,-3.60136,1.05294,0.94612,-0.919614345,0.32775795,0.13037076
1764767917.9911442,-3.60136,1.05294,0.94612,-0.919614345,0.32775795,0.13037076
1764767917.9911442,-3.60136,1.05294,0.94612,-0.919614345,0.32775795,0.13037076
1764767917.9911442,-3.60136,1.05294,0.94612,-0.919614345,0.32775795,0.13037076
1764767917.9911442,-3.60136,1.05294,0.94612,-0.919614345,0.32775795,0.13037076
1764767917.9911442,-3.60136,1.05294,0.94612,-0.919614345,0.32775795,0.13037076
1764767917.9911442,-3.60136,1.05294,0.94612,-0.919614345,0.32775795,0.13037076
1764767917.9911442,-3.63188,1.49548,0.48832,-0.92052987,0.328551405,0.13024869
1764767917.9911442,-3.63188,1.49548,0.48832,-0.92052987,0.328551405,0.13024869
1764767917.9911442,-3.63188,1.49548,0.48832,-0.92052987,0.328551405,0.13024869
1764767917.9911442,-3.63188,1.49548,0.48832,-0.92052987,0.328551405,0.13024869
1764767918.0371218,-3.63188,1.49548,0.48832,-0.92052987,0.328551405,0.13024869
1764767918.0371218,-3.63188,1.49548,0.48832,-0.92052987,0.328551405,0.13024869
1764767918.0371218,-3.63188,1.49548,0.48832,-0.92052987,0.328551405,0.13024869
1764767918.0371218,-3.63188,1.49548,0.48832,-0.92052987,0.328551405,0.13024869
1764767918.0371218,-3.63188,1.49548,0.48832,-0.92052987,0.328551405,0.13024869
1764767918.0371218,-3.63188,1.49548,0.48832,-0.92052987,0.328551405,0.13024869
1764767918.0371218,-3.99812,1.51074,-0.2289,-0.92089608,0.329405895,0.130920075
1764767918.0371218,-3.99812,1.51074,-0.2289,-0.92089608,0.329405895,0.130920075
1764767918.0371218,-3.99812,1.51074,-0.2289,-0.92089608,0.329405895,0.130920075
1764767918.0371218,-3.99812,1.51074,-0.2289,-0.92089608,0.329405895,0.130920075
1764767918.0371218,-3.99812,1.51074,-0.2289,-0.92089608,0.329405895,0.130920075
1764767918.0371218,-3.99812,1.51074,-0.2289,-0.92089608,0.329405895,0.130920075
1764767918.0371218,-3.99812,1.51074,-0.2289,-0.92089608,0.329405895,0.130920075
1764767918.0371218,-3.99812,1.51074,-0.2289,-0.92089608,0.329405895,0.130920075
1764767918.0371218,-3.99812,1.51074,-0.2289,-0.92089608,0.329405895,0.130920075
1764767918.0371218,-3.99812,1.51074,-0.2289,-0.92089608,0.329405895,0.130920075
1764767918.0371218,-3.90656,1.4497,0.0,-0.9204078,0.32897865,0.131164215
1764767918.0371218,-3.90656,1.4497,0.0,-0.9204078,0.32897865,0.131164215
1764767918.0371218,-3.90656,1.4497,0.0,-0.9204078,0.32897865,0.131164215
1764767918.0371218,-3.90656,1.4497,0.0,-0.9204078,0.32897865,0.131164215
1764767918.0371218,-3.90656,1.4497,0.0,-0.9204078,0.32897865,0.131164215
1764767918.0371218,-3.90656,1.4497,0.0,-0.9204078,0.32897865,0.131164215
1764767918.0371218,-3.90656,1.4497,0.0,-0.9204078,0.32897865,0.131164215
1764767918.0371218,-3.90656,1.4497,0.0,-0.9204078,0.32897865,0.131164215
1764767918.0844753,-3.90656,1.4497,0.0,-0.9204078,0.32897865,0.131164215
1764767918.0844753,-3.90656,1.4497,0.0,-0.9204078,0.32897865,0.131164215
1764767918.0844753,-3.72344,1.32762,0.3051999999999999,-0.91857675,0.32885658,0.130309725
1764767918.0844753,-3.72344,1.32762,0.3051999999999999,-0.91857675,0.32885658,0.130309725
1764767918.0844753,-3.72344,1.32762,0.3051999999999999,-0.91857675,0.32885658,0.130309725
1764767918.0844753,-3.72344,1.32762,0.3051999999999999,-0.91857675,0.32885658,0.130309725
1764767918.0844753,-3.72344,1.32762,0.3051999999999999,-0.91857675,0.32885658,0.130309725
1764767918.0844753,-3.72344,1.32762,0.3051999999999999,-0.91857675,0.32885658,0.130309725
1764767918.0844753,-3.72344,1.32762,0.3051999999999999,-0.91857675,0.32885658,0.130309725
1764767918.0844753,-3.72344,1.32762,0.3051999999999999,-0.91857675,0.32885658,0.130309725
1764767918.0844753,-3.72344,1.32762,0.3051999999999999,-0.91857675,0.32885658,0.130309725
1764767918.0844753,-3.72344,1.32762,0.3051999999999999,-0.91857675,0.32885658,0.130309725
1764767918.0844753,-4.36436,1.81594,0.03052,-0.91845468,0.331236945,0.12902799
1764767918.0844753,-4.36436,1.81594,0.03052,-0.91845468,0.331236945,0.12902799
1764767918.0844753,-4.36436,1.81594,0.03052,-0.91845468,0.331236945,0.12902799
1764767918.0844753,-4.36436,1.81594,0.03052,-0.91845468,0.331236945,0.12902799
1764767918.0844753,-4.36436,1.81594,0.03052,-0.91845468,0.331236945,0.12902799
1764767918.0844753,-4.36436,1.81594,0.03052,-0.91845468,0.331236945,0.12902799
1764767918.0844753,-4.36436,1.81594,0.03052,-0.91845468,0.331236945,0.12902799
1764767918.0844753,-4.36436,1.81594,0.03052,-0.91845468,0.331236945,0.12902799
1764767918.0844753,-4.36436,1.81594,0.03052,-0.91845468,0.331236945,0.12902799
1764767918.0844753,-4.36436,1.81594,0.03052,-0.91845468,0.331236945,0.12902799
1764767918.131545,-6.516019999999999,2.45686,-0.03052,-0.920224695,0.33300696,0.127990395
1764767918.131545,-6.516019999999999,2.45686,-0.03052,-0.920224695,0.33300696,0.127990395
1764767918.131545,-6.516019999999999,2.45686,-0.03052,-0.920224695,0.33300696,0.127990395
1764767918.131545,-6.516019999999999,2.45686,-0.03052,-0.920224695,0.33300696,0.127990395
1764767918.131545,-6.516019999999999,2.45686,-0.03052,-0.920224695,0.33300696,0.127990395
1764767918.131545,-6.516019999999999,2.45686,-0.03052,-0.920224695,0.33300696,0.127990395
1764767918.131545,-6.516019999999999,2.45686,-0.03052,-0.920224695,0.33300696,0.127990395
1764767918.131545,-6.516019999999999,2.45686,-0.03052,-0.920224695,0.33300696,0.127990395
1764767918.131545,-6.516019999999999,2.45686,-0.03052,-0.920224695,0.33300696,0.127990395
1764767918.131545,-6.516019999999999,2.45686,-0.03052,-0.920224695,0.33300696,0.127990395
1764767918.131545,-7.12642,2.47212,-0.28994,-0.91991952,0.332091435,0.127990395
1764767918.131545,-7.12642,2.47212,-0.28994,-0.91991952,0.332091435,0.127990395
1764767918.131545,-7.12642,2.47212,-0.28994,-0.91991952,0.332091435,0.127990395
1764767918.131545,-7.12642,2.47212,-0.28994,-0.91991952,0.332091435,0.127990395
1764767918.1325655,-7.12642,2.47212,-0.28994,-0.91991952,0.332091435,0.127990395
1764767918.1325655,-7.12642,2.47212,-0.28994,-0.91991952,0.332091435,0.127990395
1764767918.1325655,-7.12642,2.47212,-0.28994,-0.91991952,0.332091435,0.127990395
1764767918.1325655,-7.12642,2.47212,-0.28994,-0.91991952,0.332091435,0.127990395
1764767918.1325655,-7.12642,2.47212,-0.28994,-0.91991952,0.332091435,0.127990395
1764767918.1325655,-7.12642,2.47212,-0.28994,-0.91991952,0.332091435,0.127990395
1764767918.1325655,-6.72966,2.3653,0.41202,-0.91930917,0.328917615,0.129577305
1764767918.1325655,-6.72966,2.3653,0.41202,-0.91930917,0.328917615,0.129577305
1764767918.1325655,-6.72966,2.3653,0.41202,-0.91930917,0.328917615,0.129577305
1764767918.1325655,-6.72966,2.3653,0.41202,-0.91930917,0.328917615,0.129577305
1764767918.1755884,-6.72966,2.3653,0.41202,-0.91930917,0.328917615,0.129577305
1764767918.1755884,-6.72966,2.3653,0.41202,-0.91930917,0.328917615,0.129577305
1764767918.1755884,-6.72966,2.3653,0.41202,-0.91930917,0.328917615,0.129577305
1764767918.1755884,-6.72966,2.3653,0.41202,-0.91930917,0.328917615,0.129577305
1764767918.1755884,-6.72966,2.3653,0.41202,-0.91930917,0.328917615,0.129577305
1764767918.1755884,-6.72966,2.3653,0.41202,-0.91930917,0.328917615,0.129577305
1764767918.1761043,-5.58516,2.2127,0.6867,-0.91894296,0.326598285,0.130675935
1764767918.1761043,-5.58516,2.2127,0.6867,-0.91894296,0.326598285,0.130675935
1764767918.1761043,-5.58516,2.2127,0.6867,-0.91894296,0.326598285,0.130675935
1764767918.1761043,-5.58516,2.2127,0.6867,-0.91894296,0.326598285,0.130675935
1764767918.1761043,-5.58516,2.2127,0.6867,-0.91894296,0.326598285,0.130675935
1764767918.1761043,-5.58516,2.2127,0.6867,-0.91894296,0.326598285,0.130675935
1764767918.1761043,-5.58516,2.2127,0.6867,-0.91894296,0.326598285,0.130675935
1764767918.1761043,-5.58516,2.2127,0.6867,-0.91894296,0.326598285,0.130675935
1764767918.1761043,-5.58516,2.2127,0.6867,-0.91894296,0.326598285,0.130675935
1764767918.1761043,-5.58516,2.2127,0.6867,-0.91894296,0.326598285,0.130675935
1764767918.1761043,-5.58516,2.09062,0.8087799999999999,-0.919980555,0.32446206,0.13146939
1764767918.1761043,-5.58516,2.09062,0.8087799999999999,-0.919980555,0.32446206,0.13146939
1764767918.1761043,-5.58516,2.09062,0.8087799999999999,-0.919980555,0.32446206,0.13146939
1764767918.1761043,-5.58516,2.09062,0.8087799999999999,-0.919980555,0.32446206,0.13146939
1764767918.1761043,-5.58516,2.09062,0.8087799999999999,-0.919980555,0.32446206,0.13146939
1764767918.1761043,-5.58516,2.09062,0.8087799999999999,-0.919980555,0.32446206,0.13146939
1764767918.1761043,-5.58516,2.09062,0.8087799999999999,-0.919980555,0.32446206,0.13146939
1764767918.1761043,-5.58516,2.09062,0.8087799999999999,-0.919980555,0.32446206,0.13146939
1764767918.2244148,-5.58516,2.09062,0.8087799999999999,-0.919980555,0.32446206,0.13146939
1764767918.2244148,-5.58516,2.09062,0.8087799999999999,-0.919980555,0.32446206,0.13146939
1764767918.2244148,-4.3491,1.17502,0.9919,-0.92101815,0.323058255,0.132262845
1764767918.2244148,-4.3491,1.17502,0.9919,-0.92101815,0.323058255,0.132262845
1764767918.2244148,-4.3491,1.17502,0.9919,-0.92101815,0.323058255,0.132262845
1764767918.2244148,-4.3491,1.17502,0.9919,-0.92101815,0.323058255,0.132262845
1764767918.2244148,-4.3491,1.17502,0.9919,-0.92101815,0.323058255,0.132262845
1764767918.2244148,-4.3491,1.17502,0.9919,-0.92101815,0.323058255,0.132262845
1764767918.2244148,-4.3491,1.17502,0.9919,-0.92101815,0.323058255,0.132262845
1764767918.2244148,-4.3491,1.17502,0.9919,-0.92101815,0.323058255,0.132262845
1764767918.2244148,-4.3491,1.17502,0.9919,-0.92101815,0.323058255,0.132262845
1764767918.2244148,-4.3491,1.17502,0.9919,-0.92101815,0.323058255,0.132262845
1764767918.2244148,-3.34194,1.0682,1.02242,-0.92248299,0.324034815,0.132506985
1764767918.2244148,-3.34194,1.0682,1.02242,-0.92248299,0.324034815,0.132506985
1764767918.2244148,-3.34194,1.0682,1.02242,-0.92248299,0.324034815,0.132506985
1764767918.2244148,-3.34194,1.0682,1.02242,-0.92248299,0.324034815,0.132506985
1764767918.2244148,-3.34194,1.0682,1.02242,-0.92248299,0.324034815,0.132506985
1764767918.2244148,-3.34194,1.0682,1.02242,-0.92248299,0.324034815,0.132506985
1764767918.2244148,-3.34194,1.0682,1.02242,-0.92248299,0.324034815,0.132506985
1764767918.2244148,-3.34194,1.0682,1.02242,-0.92248299,0.324034815,0.132506985
1764767918.2244148,-3.34194,1.0682,1.02242,-0.92248299,0.324034815,0.132506985
1764767918.2244148,-3.34194,1.0682,1.02242,-0.92248299,0.324034815,0.132506985
1764767918.2244148,-3.32668,0.79352,0.6867,-0.92321541,0.32531655,0.132262845
1764767918.2244148,-3.32668,0.79352,0.6867,-0.92321541,0.32531655,0.132262845
1764767918.270416,-3.32668,0.79352,0.6867,-0.92321541,0.32531655,0.132262845
1764767918.270416,-3.32668,0.79352,0.6867,-0.92321541,0.32531655,0.132262845
1764767918.270416,-3.32668,0.79352,0.6867,-0.92321541,0.32531655,0.132262845
1764767918.270416,-3.32668,0.79352,0.6867,-0.92321541,0.32531655,0.132262845
1764767918.270416,-3.32668,0.79352,0.6867,-0.92321541,0.32531655,0.132262845
1764767918.270416,-3.32668,0.79352,0.6867,-0.92321541,0.32531655,0.132262845
1764767918.270416,-3.32668,0.79352,0.6867,-0.92321541,0.32531655,0.132262845
1764767918.270416,-3.32668,0.79352,0.6867,-0.92321541,0.32531655,0.132262845
1764767918.270416,-3.70818,0.79352,0.8698199999999999,-0.92297127,0.327941055,0.13146939
1764767918.270416,-3.70818,0.79352,0.8698199999999999,-0.92297127,0.327941055,0.13146939
1764767918.270416,-3.70818,0.79352,0.8698199999999999,-0.92297127,0.327941055,0.13146939
1764767918.270416,-3.70818,0.79352,0.8698199999999999,-0.92297127,0.327941055,0.13146939
1764767918.270416,-3.70818,0.79352,0.8698199999999999,-0.92297127,0.327941055,0.13146939
1764767918.270416,-3.70818,0.79352,0.8698199999999999,-0.92297127,0.327941055,0.13146939
1764767918.270416,-3.70818,0.79352,0.8698199999999999,-0.92297127,0.327941055,0.13146939
1764767918.270416,-3.70818,0.79352,0.8698199999999999,-0.92297127,0.327941055,0.13146939
1764767918.270416,-3.70818,0.79352,0.8698199999999999,-0.92297127,0.327941055,0.13146939
1764767918.270416,-3.70818,0.79352,0.8698199999999999,-0.92297127,0.327941055,0.13146939
1764767918.270416,-3.46402,0.85456,0.41202,-0.922177815,0.32861244,0.130431795
1764767918.270416,-3.46402,0.85456,0.41202,-0.922177815,0.32861244,0.130431795
1764767918.270416,-3.46402,0.85456,0.41202,-0.922177815,0.32861244,0.130431795
1764767918.270416,-3.46402,0.85456,0.41202,-0.922177815,0.32861244,0.130431795
1764767918.3168886,-3.46402,0.85456,0.41202,-0.922177815,0.32861244,0.130431795
1764767918.3168886,-3.46402,0.85456,0.41202,-0.922177815,0.32861244,0.130431795
1764767918.3168886,-3.46402,0.85456,0.41202,-0.922177815,0.32861244,0.130431795
1764767918.3168886,-3.46402,0.85456,0.41202,-0.922177815,0.32861244,0.130431795
1764767918.3168886,-3.46402,0.85456,0.41202,-0.922177815,0.32861244,0.130431795
1764767918.3168886,-3.46402,0.85456,0.41202,-0.922177815,0.32861244,0.130431795
1764767918.3168886,-3.815,0.77826,0.41202,-0.920590905,0.329161755,0.1293942
1764767918.3168886,-3.815,0.77826,0.41202,-0.920590905,0.329161755,0.1293942
1764767918.3168886,-3.815,0.77826,0.41202,-0.920590905,0.329161755,0.1293942
1764767918.3168886,-3.815,0.77826,0.41202,-0.920590905,0.329161755,0.1293942
1764767918.3168886,-3.815,0.77826,0.41202,-0.920590905,0.329161755,0.1293942
1764767918.3168886,-3.815,0.77826,0.41202,-0.920590905,0.329161755,0.1293942
1764767918.3168886,-3.815,0.77826,0.41202,-0.920590905,0.329161755,0.1293942
1764767918.3168886,-3.815,0.77826,0.41202,-0.920590905,0.329161755,0.1293942
1764767918.3168886,-3.815,0.77826,0.41202,-0.920590905,0.329161755,0.1293942
1764767918.3168886,-3.815,0.77826,0.41202,-0.920590905,0.329161755,0.1293942
1764767918.3168886,-3.57084,0.88508,0.3357199999999999,-0.919492275,0.32861244,0.12988248
1764767918.3168886,-3.57084,0.88508,0.3357199999999999,-0.919492275,0.32861244,0.12988248
1764767918.3184414,-3.57084,0.88508,0.3357199999999999,-0.919492275,0.32861244,0.12988248
1764767918.3184414,-3.57084,0.88508,0.3357199999999999,-0.919492275,0.32861244,0.12988248
1764767918.3184414,-3.57084,0.88508,0.3357199999999999,-0.919492275,0.32861244,0.12988248
1764767918.3184414,-3.57084,0.88508,0.3357199999999999,-0.919492275,0.32861244,0.12988248
1764767918.3184414,-3.57084,0.88508,0.3357199999999999,-0.919492275,0.32861244,0.12988248
1764767918.3184414,-3.57084,0.88508,0.3357199999999999,-0.919492275,0.32861244,0.12988248
1764767918.3609035,-3.57084,0.88508,0.3357199999999999,-0.919492275,0.32861244,0.12988248
1764767918.3609035,-3.57084,0.88508,0.3357199999999999,-0.919492275,0.32861244,0.12988248
1764767918.3609035,-3.49454,0.6409199999999999,0.56462,-0.91857675,0.32824623,0.13037076
1764767918.3609035,-3.49454,0.6409199999999999,0.56462,-0.91857675,0.32824623,0.13037076
1764767918.3609035,-3.49454,0.6409199999999999,0.56462,-0.91857675,0.32824623,0.13037076
1764767918.3609035,-3.49454,0.6409199999999999,0.56462,-0.91857675,0.32824623,0.13037076
1764767918.3609035,-3.49454,0.6409199999999999,0.56462,-0.91857675,0.32824623,0.13037076
1764767918.3609035,-3.49454,0.6409199999999999,0.56462,-0.91857675,0.32824623,0.13037076
1764767918.3609035,-3.49454,0.6409199999999999,0.56462,-0.91857675,0.32824623,0.13037076
1764767918.3609035,-3.49454,0.6409199999999999,0.56462,-0.91857675,0.32824623,0.13037076
1764767918.3609035,-3.49454,0.6409199999999999,0.56462,-0.91857675,0.32824623,0.13037076
1764767918.3609035,-3.49454,0.6409199999999999,0.56462,-0.91857675,0.32824623,0.13037076
1764767918.3609035,-3.76922,0.3357199999999999,0.59514,-0.919614345,0.327574845,0.13171353
1764767918.3609035,-3.76922,0.3357199999999999,0.59514,-0.919614345,0.327574845,0.13171353
1764767918.3609035,-3.76922,0.3357199999999999,0.59514,-0.919614345,0.327574845,0.13171353
1764767918.3609035,-3.76922,0.3357199999999999,0.59514,-0.919614345,0.327574845,0.13171353
1764767918.3609035,-3.76922,0.3357199999999999,0.59514,-0.919614345,0.327574845,0.13171353
1764767918.3609035,-3.76922,0.3357199999999999,0.59514,-0.919614345,0.327574845,0.13171353
1764767918.3609035,-3.76922,0.3357199999999999,0.59514,-0.919614345,0.327574845,0.13171353
1764767918.3609035,-3.76922,0.3357199999999999,0.59514,-0.919614345,0.327574845,0.13171353
1764767918.3609035,-3.76922,0.3357199999999999,0.59514,-0.919614345,0.327574845,0.13171353
1764767918.3609035,-3.76922,0.3357199999999999,0.59514,-0.919614345,0.327574845,0.13171353
1764767918.4069028,-2.91466,0.25942,0.51884,-0.92077401,0.326964495,0.13220181
1764767918.4069028,-2.91466,0.25942,0.51884,-0.92077401,0.326964495,0.13220181
1764767918.4069028,-2.91466,0.25942,0.51884,-0.92077401,0.326964495,0.13220181
1764767918.4069028,-2.91466,0.25942,0.51884,-0.92077401,0.326964495,0.13220181
1764767918.4069028,-2.91466,0.25942,0.51884,-0.92077401,0.326964495,0.13220181
1764767918.4069028,-2.91466,0.25942,0.51884,-0.92077401,0.326964495,0.13220181
1764767918.4069028,-2.91466,0.25942,0.51884,-0.92077401,0.326964495,0.13220181
1764767918.4069028,-2.91466,0.25942,0.51884,-0.92077401,0.326964495,0.13220181
1764767918.4079187,-2.91466,0.25942,0.51884,-0.92077401,0.326964495,0.13220181
1764767918.4079187,-2.91466,0.25942,0.51884,-0.92077401,0.326964495,0.13220181
1764767918.4079187,-2.62472,0.18312,0.7019599999999999,-0.922299885,0.327208635,0.132018705
1764767918.4079187,-2.62472,0.18312,0.7019599999999999,-0.922299885,0.327208635,0.132018705
1764767918.4079187,-2.62472,0.18312,0.7019599999999999,-0.922299885,0.327208635,0.132018705
1764767918.4079187,-2.62472,0.18312,0.7019599999999999,-0.922299885,0.327208635,0.132018705
1764767918.4079187,-2.62472,0.18312,0.7019599999999999,-0.922299885,0.327208635,0.132018705
1764767918.4079187,-2.62472,0.18312,0.7019599999999999,-0.922299885,0.327208635,0.132018705
1764767918.4079187,-2.62472,0.18312,0.7019599999999999,-0.922299885,0.327208635,0.132018705
1764767918.4079187,-2.62472,0.18312,0.7019599999999999,-0.922299885,0.327208635,0.132018705
1764767918.4079187,-2.62472,0.18312,0.7019599999999999,-0.922299885,0.327208635,0.132018705
1764767918.4079187,-2.62472,0.18312,0.7019599999999999,-0.922299885,0.327208635,0.132018705
1764767918.4079187,-2.60946,0.2289,0.41202,-0.92297127,0.32812416,0.131408355
1764767918.4079187,-2.60946,0.2289,0.41202,-0.92297127,0.32812416,0.131408355
1764767918.4079187,-2.60946,0.2289,0.41202,-0.92297127,0.32812416,0.131408355
1764767918.4079187,-2.60946,0.2289,0.41202,-0.92297127,0.32812416,0.131408355
1764767918.455094,-2.60946,0.2289,0.41202,-0.92297127,0.32812416,0.131408355
1764767918.455094,-2.60946,0.2289,0.41202,-0.92297127,0.32812416,0.131408355
1764767918.455094,-2.60946,0.2289,0.41202,-0.92297127,0.32812416,0.131408355
1764767918.455094,-2.60946,0.2289,0.41202,-0.92297127,0.32812416,0.131408355
1764767918.455094,-2.60946,0.2289,0.41202,-0.92297127,0.32812416,0.131408355
1764767918.455094,-2.60946,0.2289,0.41202,-0.92297127,0.32812416,0.131408355
1764767918.455094,-2.289,-0.41202,0.8087799999999999,-0.922788165,0.328063125,0.13073697
1764767918.455094,-2.289,-0.41202,0.8087799999999999,-0.922788165,0.328063125,0.13073697
1764767918.455094,-2.289,-0.41202,0.8087799999999999,-0.922788165,0.328063125,0.13073697
1764767918.455094,-2.289,-0.41202,0.8087799999999999,-0.922788165,0.328063125,0.13073697
1764767918.455094,-2.289,-0.41202,0.8087799999999999,-0.922788165,0.328063125,0.13073697
1764767918.455094,-2.289,-0.41202,0.8087799999999999,-0.922788165,0.328063125,0.13073697
1764767918.455094,-2.289,-0.41202,0.8087799999999999,-0.922788165,0.328063125,0.13073697
1764767918.455094,-2.289,-0.41202,0.8087799999999999,-0.922788165,0.328063125,0.13073697
1764767918.455094,-2.289,-0.41202,0.8087799999999999,-0.922788165,0.328063125,0.13073697
1764767918.455094,-2.289,-0.41202,0.8087799999999999,-0.922788165,0.328063125,0.13073697
1764767918.455094,-1.99906,-0.0762999999999999,0.8392999999999999,-0.922788165,0.328307265,0.12988248
1764767918.455094,-1.99906,-0.0762999999999999,0.8392999999999999,-0.922788165,0.328307265,0.12988248
1764767918.455094,-1.99906,-0.0762999999999999,0.8392999999999999,-0.922788165,0.328307265,0.12988248
1764767918.455094,-1.99906,-0.0762999999999999,0.8392999999999999,-0.922788165,0.328307265,0.12988248
1764767918.455094,-1.99906,-0.0762999999999999,0.8392999999999999,-0.922788165,0.328307265,0.12988248
1764767918.455094,-1.99906,-0.0762999999999999,0.8392999999999999,-0.922788165,0.328307265,0.12988248
1764767918.5018563,-1.99906,-0.0762999999999999,0.8392999999999999,-0.922788165,0.328307265,0.12988248
1764767918.5018563,-1.99906,-0.0762999999999999,0.8392999999999999,-0.922788165,0.328307265,0.12988248
1764767918.5018563,-1.99906,-0.0762999999999999,0.8392999999999999,-0.922788165,0.328307265,0.12988248
1764767918.5018563,-1.99906,-0.0762999999999999,0.8392999999999999,-0.922788165,0.328307265,0.12988248
1764767918.5018563,-1.6786,-0.0762999999999999,1.64808,-0.921689535,0.32873451,0.130065585
1764767918.5018563,-1.6786,-0.0762999999999999,1.64808,-0.921689535,0.32873451,0.130065585
1764767918.5018563,-1.6786,-0.0762999999999999,1.64808,-0.921689535,0.32873451,0.130065585
1764767918.5018563,-1.6786,-0.0762999999999999,1.64808,-0.921689535,0.32873451,0.130065585
1764767918.5018563,-1.6786,-0.0762999999999999,1.64808,-0.921689535,0.32873451,0.130065585
1764767918.5018563,-1.6786,-0.0762999999999999,1.64808,-0.921689535,0.32873451,0.130065585
1764767918.5018563,-1.6786,-0.0762999999999999,1.64808,-0.921689535,0.32873451,0.130065585
1764767918.5018563,-1.6786,-0.0762999999999999,1.64808,-0.921689535,0.32873451,0.130065585
1764767918.5018563,-1.6786,-0.0762999999999999,1.64808,-0.921689535,0.32873451,0.130065585
1764767918.5023637,-1.6786,-0.0762999999999999,1.64808,-0.921689535,0.32873451,0.130065585
1764767918.5023637,-1.526,0.06104,1.54126,-0.92065194,0.32946693,0.130187655
1764767918.5023637,-1.526,0.06104,1.54126,-0.92065194,0.32946693,0.130187655
1764767918.5023637,-1.526,0.06104,1.54126,-0.92065194,0.32946693,0.130187655
1764767918.5023637,-1.526,0.06104,1.54126,-0.92065194,0.32946693,0.130187655
1764767918.5023637,-1.526,0.06104,1.54126,-0.92065194,0.32946693,0.130187655
1764767918.5023637,-1.526,0.06104,1.54126,-0.92065194,0.32946693,0.130187655
1764767918.5023637,-1.526,0.06104,1.54126,-0.92065194,0.32946693,0.130187655
1764767918.5023637,-1.526,0.06104,1.54126,-0.92065194,0.32946693,0.130187655
1764767918.5023637,-1.526,0.06104,1.54126,-0.92065194,0.32946693,0.130187655
1764767918.5023637,-1.526,0.06104,1.54126,-0.92065194,0.32946693,0.130187655
1764767918.548608,-1.6786,0.1678599999999999,1.6633399999999998,-0.920102625,0.330870735,0.13085904
1764767918.548608,-1.6786,0.1678599999999999,1.6633399999999998,-0.920102625,0.330870735,0.13085904
1764767918.548608,-1.6786,0.1678599999999999,1.6633399999999998,-0.920102625,0.330870735,0.13085904
1764767918.548608,-1.6786,0.1678599999999999,1.6633399999999998,-0.920102625,0.330870735,0.13085904
1764767918.548608,-1.6786,0.1678599999999999,1.6633399999999998,-0.920102625,0.330870735,0.13085904
1764767918.548608,-1.6786,0.1678599999999999,1.6633399999999998,-0.920102625,0.330870735,0.13085904
1764767918.548608,-1.6786,0.1678599999999999,1.6633399999999998,-0.920102625,0.330870735,0.13085904
1764767918.548608,-1.6786,0.1678599999999999,1.6633399999999998,-0.920102625,0.330870735,0.13085904
1764767918.548608,-1.6786,0.1678599999999999,1.6633399999999998,-0.920102625,0.330870735,0.13085904
1764767918.548608,-1.6786,0.1678599999999999,1.6633399999999998,-0.920102625,0.330870735,0.13085904
1764767918.548608,-2.33478,0.12208,1.64808,-0.920102625,0.330626595,0.131286285
1764767918.548608,-2.33478,0.12208,1.64808,-0.920102625,0.330626595,0.131286285
1764767918.548608,-2.33478,0.12208,1.64808,-0.920102625,0.330626595,0.131286285
1764767918.548608,-2.33478,0.12208,1.64808,-0.920102625,0.330626595,0.131286285
1764767918.548608,-2.33478,0.12208,1.64808,-0.920102625,0.330626595,0.131286285
1764767918.548608,-2.33478,0.12208,1.64808,-0.920102625,0.330626595,0.131286285
1764767918.548608,-2.33478,0.12208,1.64808,-0.920102625,0.330626595,0.131286285
1764767918.548608,-2.33478,0.12208,1.64808,-0.920102625,0.330626595,0.131286285
1764767918.548608,-2.33478,0.12208,1.64808,-0.920102625,0.330626595,0.131286285
1764767918.548608,-2.33478,0.12208,1.64808,-0.920102625,0.330626595,0.131286285
1764767918.548608,-2.31952,0.10682,1.6633399999999998,-0.91967538,0.330870735,0.130920075
1764767918.548608,-2.31952,0.10682,1.6633399999999998,-0.91967538,0.330870735,0.130920075
1764767918.595975,-2.31952,0.10682,1.6633399999999998,-0.91967538,0.330870735,0.130920075
1764767918.595975,-2.31952,0.10682,1.6633399999999998,-0.91967538,0.330870735,0.130920075
1764767918.595975,-2.31952,0.10682,1.6633399999999998,-0.91967538,0.330870735,0.130920075
1764767918.595975,-2.31952,0.10682,1.6633399999999998,-0.91967538,0.330870735,0.130920075
1764767918.595975,-2.31952,0.10682,1.6633399999999998,-0.91967538,0.330870735,0.130920075
1764767918.595975,-2.31952,0.10682,1.6633399999999998,-0.91967538,0.330870735,0.130920075
1764767918.595975,-2.31952,0.10682,1.6633399999999998,-0.91967538,0.330870735,0.130920075
1764767918.595975,-2.31952,0.10682,1.6633399999999998,-0.91967538,0.330870735,0.130920075
1764767918.595975,-2.77732,-0.01526,2.1364,-0.919492275,0.332091435,0.130065585
1764767918.595975,-2.77732,-0.01526,2.1364,-0.919492275,0.332091435,0.130065585
1764767918.595975,-2.77732,-0.01526,2.1364,-0.919492275,0.332091435,0.130065585
1764767918.595975,-2.77732,-0.01526,2.1364,-0.919492275,0.332091435,0.130065585
1764767918.595975,-2.77732,-0.01526,2.1364,-0.919492275,0.332091435,0.130065585
1764767918.595975,-2.77732,-0.01526,2.1364,-0.919492275,0.332091435,0.130065585
1764767918.595975,-2.77732,-0.01526,2.1364,-0.919492275,0.332091435,0.130065585
1764767918.595975,-2.77732,-0.01526,2.1364,-0.919492275,0.332091435,0.130065585
1764767918.595975,-2.77732,-0.01526,2.1364,-0.919492275,0.332091435,0.130065585
1764767918.595975,-2.77732,-0.01526,2.1364,-0.919492275,0.332091435,0.130065585
1764767918.595975,-3.00622,0.8392999999999999,1.89224,-0.919126065,0.332457645,0.129943515
1764767918.595975,-3.00622,0.8392999999999999,1.89224,-0.919126065,0.332457645,0.129943515
1764767918.595975,-3.00622,0.8392999999999999,1.89224,-0.919126065,0.332457645,0.129943515
1764767918.595975,-3.00622,0.8392999999999999,1.89224,-0.919126065,0.332457645,0.129943515
1764767918.595975,-3.00622,0.8392999999999999,1.89224,-0.919126065,0.332457645,0.129943515
1764767918.595975,-3.00622,0.8392999999999999,1.89224,-0.919126065,0.332457645,0.129943515
1764767918.642671,-3.00622,0.8392999999999999,1.89224,-0.919126065,0.332457645,0.129943515
1764767918.643679,-3.00622,0.8392999999999999,1.89224,-0.919126065,0.332457645,0.129943515
1764767918.643679,-3.00622,0.8392999999999999,1.89224,-0.919126065,0.332457645,0.129943515
1764767918.643679,-3.00622,0.8392999999999999,1.89224,-0.919126065,0.332457645,0.129943515
1764767918.643679,-2.30426,0.6714399999999999,2.02958,-0.918393645,0.331969365,0.12988248
1764767918.643679,-2.30426,0.6714399999999999,2.02958,-0.918393645,0.331969365,0.12988248
1764767918.643679,-2.30426,0.6714399999999999,2.02958,-0.918393645,0.331969365,0.12988248
1764767918.643679,-2.30426,0.6714399999999999,2.02958,-0.918393645,0.331969365,0.12988248
1764767918.643679,-2.30426,0.6714399999999999,2.02958,-0.918393645,0.331969365,0.12988248
1764767918.643679,-2.30426,0.6714399999999999,2.02958,-0.918393645,0.331969365,0.12988248
1764767918.643679,-2.30426,0.6714399999999999,2.02958,-0.918393645,0.331969365,0.12988248
1764767918.643679,-2.30426,0.6714399999999999,2.02958,-0.918393645,0.331969365,0.12988248
1764767918.643679,-2.30426,0.6714399999999999,2.02958,-0.918393645,0.331969365,0.12988248
1764767918.643679,-2.30426,0.6714399999999999,2.02958,-0.918393645,0.331969365,0.12988248
1764767918.643679,-2.24322,0.8392999999999999,2.38056,-0.91772226,0.3320304,0.130309725
1764767918.643679,-2.24322,0.8392999999999999,2.38056,-0.91772226,0.3320304,0.130309725
1764767918.643679,-2.24322,0.8392999999999999,2.38056,-0.91772226,0.3320304,0.130309725
1764767918.643679,-2.24322,0.8392999999999999,2.38056,-0.91772226,0.3320304,0.130309725
1764767918.643679,-2.24322,0.8392999999999999,2.38056,-0.91772226,0.3320304,0.130309725
1764767918.643679,-2.24322,0.8392999999999999,2.38056,-0.91772226,0.3320304,0.130309725
1764767918.643679,-2.24322,0.8392999999999999,2.38056,-0.91772226,0.3320304,0.130309725
1764767918.643679,-2.24322,0.8392999999999999,2.38056,-0.91772226,0.3320304,0.130309725
1764767918.643679,-2.24322,0.8392999999999999,2.38056,-0.91772226,0.3320304,0.130309725
1764767918.643679,-2.24322,0.8392999999999999,2.38056,-0.91772226,0.3320304,0.130309725
1764767918.6869793,-3.00622,1.02242,2.2127,-0.91894296,0.33312903,0.130920075
1764767918.6869793,-3.00622,1.02242,2.2127,-0.91894296,0.33312903,0.130920075
1764767918.6869793,-3.00622,1.02242,2.2127,-0.91894296,0.33312903,0.130920075
1764767918.6869793,-3.00622,1.02242,2.2127,-0.91894296,0.33312903,0.130920075
1764767918.6869793,-3.00622,1.02242,2.2127,-0.91894296,0.33312903,0.130920075
1764767918.6869793,-3.00622,1.02242,2.2127,-0.91894296,0.33312903,0.130920075
1764767918.6869793,-3.00622,1.02242,2.2127,-0.91894296,0.33312903,0.130920075
1764767918.6869793,-3.00622,1.02242,2.2127,-0.91894296,0.33312903,0.130920075
1764767918.6869793,-3.00622,1.02242,2.2127,-0.91894296,0.33312903,0.130920075
1764767918.6869793,-3.00622,1.02242,2.2127,-0.91894296,0.33312903,0.130920075
1764767918.6869793,-3.52506,0.57988,2.24322,-0.919858485,0.333556275,0.130798005
1764767918.6869793,-3.52506,0.57988,2.24322,-0.919858485,0.333556275,0.130798005
1764767918.6869793,-3.52506,0.57988,2.24322,-0.919858485,0.333556275,0.130798005
1764767918.6869793,-3.52506,0.57988,2.24322,-0.919858485,0.333556275,0.130798005
1764767918.6869793,-3.52506,0.57988,2.24322,-0.919858485,0.333556275,0.130798005
1764767918.6869793,-3.52506,0.57988,2.24322,-0.919858485,0.333556275,0.130798005
1764767918.6869793,-3.52506,0.57988,2.24322,-0.919858485,0.333556275,0.130798005
1764767918.6869793,-3.52506,0.57988,2.24322,-0.919858485,0.333556275,0.130798005
1764767918.6869793,-3.52506,0.57988,2.24322,-0.919858485,0.333556275,0.130798005
1764767918.6869793,-3.52506,0.57988,2.24322,-0.919858485,0.333556275,0.130798005
1764767918.6869793,-3.98286,0.93086,2.0601,-0.92004159,0.33410559,0.12976041
1764767918.6869793,-3.98286,0.93086,2.0601,-0.92004159,0.33410559,0.12976041
1764767918.6869793,-3.98286,0.93086,2.0601,-0.92004159,0.33410559,0.12976041
1764767918.6869793,-3.98286,0.93086,2.0601,-0.92004159,0.33410559,0.12976041
1764767918.7335584,-3.98286,0.93086,2.0601,-0.92004159,0.33410559,0.12976041
1764767918.7335584,-3.98286,0.93086,2.0601,-0.92004159,0.33410559,0.12976041
1764767918.7335584,-3.98286,0.93086,2.0601,-0.92004159,0.33410559,0.12976041
1764767918.7335584,-3.98286,0.93086,2.0601,-0.92004159,0.33410559,0.12976041
1764767918.7335584,-3.98286,0.93086,2.0601,-0.92004159,0.33410559,0.12976041
1764767918.7335584,-3.98286,0.93086,2.0601,-0.92004159,0.33410559,0.12976041
1764767918.7335584,-4.31858,1.2055399999999998,1.95328,-0.91943124,0.33337317,0.1293942
1764767918.7335584,-4.31858,1.2055399999999998,1.95328,-0.91943124,0.33337317,0.1293942
1764767918.7335584,-4.31858,1.2055399999999998,1.95328,-0.91943124,0.33337317,0.1293942
1764767918.7335584,-4.31858,1.2055399999999998,1.95328,-0.91943124,0.33337317,0.1293942
1764767918.7335584,-4.31858,1.2055399999999998,1.95328,-0.91943124,0.33337317,0.1293942
1764767918.7335584,-4.31858,1.2055399999999998,1.95328,-0.91943124,0.33337317,0.1293942
1764767918.7335584,-4.31858,1.2055399999999998,1.95328,-0.91943124,0.33337317,0.1293942
1764767918.7335584,-4.31858,1.2055399999999998,1.95328,-0.91943124,0.33337317,0.1293942
1764767918.7335584,-4.31858,1.2055399999999998,1.95328,-0.91943124,0.33337317,0.1293942
1764767918.7335584,-4.31858,1.2055399999999998,1.95328,-0.91943124,0.33337317,0.1293942
1764767918.7335584,-4.303319999999999,0.9919,2.15166,-0.918637785,0.33251868,0.12853971
1764767918.7335584,-4.303319999999999,0.9919,2.15166,-0.918637785,0.33251868,0.12853971
1764767918.7802515,-4.303319999999999,0.9919,2.15166,-0.918637785,0.33251868,0.12853971
1764767918.7802515,-4.303319999999999,0.9919,2.15166,-0.918637785,0.33251868,0.12853971
1764767918.7802515,-4.303319999999999,0.9919,2.15166,-0.918637785,0.33251868,0.12853971
1764767918.7802515,-4.303319999999999,0.9919,2.15166,-0.918637785,0.33251868,0.12853971
1764767918.7802515,-4.303319999999999,0.9919,2.15166,-0.918637785,0.33251868,0.12853971
1764767918.7802515,-4.303319999999999,0.9919,2.15166,-0.918637785,0.33251868,0.12853971
1764767918.7802515,-4.303319999999999,0.9919,2.15166,-0.918637785,0.33251868,0.12853971
1764767918.7802515,-4.303319999999999,0.9919,2.15166,-0.918637785,0.33251868,0.12853971
1764767918.7802515,-4.01338,1.28184,2.22796,-0.917539155,0.331114875,0.128722815
1764767918.7802515,-4.01338,1.28184,2.22796,-0.917539155,0.331114875,0.128722815
1764767918.7802515,-4.01338,1.28184,2.22796,-0.917539155,0.331114875,0.128722815
1764767918.7802515,-4.01338,1.28184,2.22796,-0.917539155,0.331114875,0.128722815
1764767918.7802515,-4.01338,1.28184,2.22796,-0.917539155,0.331114875,0.128722815
1764767918.7802515,-4.01338,1.28184,2.22796,-0.917539155,0.331114875,0.128722815
1764767918.7802515,-4.01338,1.28184,2.22796,-0.917539155,0.331114875,0.128722815
1764767918.7802515,-4.01338,1.28184,2.22796,-0.917539155,0.331114875,0.128722815
1764767918.7802515,-4.01338,1.28184,2.22796,-0.917539155,0.331114875,0.128722815
1764767918.7802515,-4.01338,1.28184,2.22796,-0.917539155,0.331114875,0.128722815
1764767918.7802515,-3.92182,1.19028,2.33478,-0.91723398,0.33105384,0.128722815
1764767918.7802515,-3.92182,1.19028,2.33478,-0.91723398,0.33105384,0.128722815
1764767918.7802515,-3.92182,1.19028,2.33478,-0.91723398,0.33105384,0.128722815
1764767918.7802515,-3.92182,1.19028,2.33478,-0.91723398,0.33105384,0.128722815
1764767918.7802515,-3.92182,1.19028,2.33478,-0.91723398,0.33105384,0.128722815
1764767918.7802515,-3.92182,1.19028,2.33478,-0.91723398,0.33105384,0.128722815
1764767918.7812665,-3.92182,1.19028,2.33478,-0.91723398,0.33105384,0.128722815
1764767918.7812665,-3.92182,1.19028,2.33478,-0.91723398,0.33105384,0.128722815
1764767918.8277447,-3.92182,1.19028,2.33478,-0.91723398,0.33105384,0.128722815
1764767918.8277447,-3.92182,1.19028,2.33478,-0.91723398,0.33105384,0.128722815
1764767918.8277447,-3.7387,1.3734,1.99906,-0.918271575,0.33093177,0.12963834
1764767918.8277447,-3.7387,1.3734,1.99906,-0.918271575,0.33093177,0.12963834
1764767918.8277447,-3.7387,1.3734,1.99906,-0.918271575,0.33093177,0.12963834
1764767918.8277447,-3.7387,1.3734,1.99906,-0.918271575,0.33093177,0.12963834
1764767918.8277447,-3.7387,1.3734,1.99906,-0.918271575,0.33093177,0.12963834
1764767918.8277447,-3.7387,1.3734,1.99906,-0.918271575,0.33093177,0.12963834
1764767918.8277447,-3.7387,1.3734,1.99906,-0.918271575,0.33093177,0.12963834
1764767918.8277447,-3.7387,1.3734,1.99906,-0.918271575,0.33093177,0.12963834
1764767918.8277447,-3.7387,1.3734,1.99906,-0.918271575,0.33093177,0.12963834
1764767918.8277447,-3.7387,1.3734,1.99906,-0.918271575,0.33093177,0.12963834
1764767918.8277447,-3.95234,1.4497,1.87698,-0.91894296,0.331236945,0.130431795
1764767918.8277447,-3.95234,1.4497,1.87698,-0.91894296,0.331236945,0.130431795
1764767918.8277447,-3.95234,1.4497,1.87698,-0.91894296,0.331236945,0.130431795
1764767918.8277447,-3.95234,1.4497,1.87698,-0.91894296,0.331236945,0.130431795
1764767918.8277447,-3.95234,1.4497,1.87698,-0.91894296,0.331236945,0.130431795
1764767918.8277447,-3.95234,1.4497,1.87698,-0.91894296,0.331236945,0.130431795
1764767918.8277447,-3.95234,1.4497,1.87698,-0.91894296,0.331236945,0.130431795
1764767918.8277447,-3.95234,1.4497,1.87698,-0.91894296,0.331236945,0.130431795
1764767918.8277447,-3.95234,1.4497,1.87698,-0.91894296,0.331236945,0.130431795
1764767918.8277447,-3.95234,1.4497,1.87698,-0.91894296,0.331236945,0.130431795
1764767918.871407,-4.3491,1.34288,1.2055399999999998,-0.918271575,0.33093177,0.12951627
1764767918.871407,-4.3491,1.34288,1.2055399999999998,-0.918271575,0.33093177,0.12951627
1764767918.871407,-4.3491,1.34288,1.2055399999999998,-0.918271575,0.33093177,0.12951627
1764767918.871407,-4.3491,1.34288,1.2055399999999998,-0.918271575,0.33093177,0.12951627
1764767918.871407,-4.3491,1.34288,1.2055399999999998,-0.918271575,0.33093177,0.12951627
1764767918.871407,-4.3491,1.34288,1.2055399999999998,-0.918271575,0.33093177,0.12951627
1764767918.871407,-4.3491,1.34288,1.2055399999999998,-0.918271575,0.33093177,0.12951627
1764767918.871407,-4.3491,1.34288,1.2055399999999998,-0.918271575,0.33093177,0.12951627
1764767918.871407,-4.3491,1.34288,1.2055399999999998,-0.918271575,0.33093177,0.12951627
1764767918.8719163,-4.3491,1.34288,1.2055399999999998,-0.918271575,0.33093177,0.12951627
1764767918.8719163,-4.56274,0.85456,1.15976,-0.91845468,0.330626595,0.129211095
1764767918.8719163,-4.56274,0.85456,1.15976,-0.91845468,0.330626595,0.129211095
1764767918.8719163,-4.56274,0.85456,1.15976,-0.91845468,0.330626595,0.129211095
1764767918.8719163,-4.56274,0.85456,1.15976,-0.91845468,0.330626595,0.129211095
1764767918.8719163,-4.56274,0.85456,1.15976,-0.91845468,0.330626595,0.129211095
1764767918.8719163,-4.56274,0.85456,1.15976,-0.91845468,0.330626595,0.129211095
1764767918.8719163,-4.56274,0.85456,1.15976,-0.91845468,0.330626595,0.129211095
1764767918.8719163,-4.56274,0.85456,1.15976,-0.91845468,0.330626595,0.129211095
1764767918.8719163,-4.56274,0.85456,1.15976,-0.91845468,0.330626595,0.129211095
1764767918.8719163,-4.56274,0.85456,1.15976,-0.91845468,0.330626595,0.129211095
1764767918.8719163,-5.1884,0.97664,0.8087799999999999,-0.919248135,0.33312903,0.128112465
1764767918.8719163,-5.1884,0.97664,0.8087799999999999,-0.919248135,0.33312903,0.128112465
1764767918.8719163,-5.1884,0.97664,0.8087799999999999,-0.919248135,0.33312903,0.128112465
1764767918.8719163,-5.1884,0.97664,0.8087799999999999,-0.919248135,0.33312903,0.128112465
1764767918.8719163,-5.1884,0.97664,0.8087799999999999,-0.919248135,0.33312903,0.128112465
1764767918.8719163,-5.1884,0.97664,0.8087799999999999,-0.919248135,0.33312903,0.128112465
1764767918.9210634,-5.1884,0.97664,0.8087799999999999,-0.919248135,0.33312903,0.128112465
1764767918.9210634,-5.1884,0.97664,0.8087799999999999,-0.919248135,0.33312903,0.128112465
1764767918.9210634,-5.1884,0.97664,0.8087799999999999,-0.919248135,0.33312903,0.128112465
1764767918.9210634,-5.1884,0.97664,0.8087799999999999,-0.919248135,0.33312903,0.128112465
1764767918.9210634,-5.9514,1.48022,0.54936,-0.92077401,0.33349524,0.127380045
1764767918.9210634,-5.9514,1.48022,0.54936,-0.92077401,0.33349524,0.127380045
1764767918.9210634,-5.9514,1.48022,0.54936,-0.92077401,0.33349524,0.127380045
1764767918.9210634,-5.9514,1.48022,0.54936,-0.92077401,0.33349524,0.127380045
1764767918.9210634,-5.9514,1.48022,0.54936,-0.92077401,0.33349524,0.127380045
1764767918.9210634,-5.9514,1.48022,0.54936,-0.92077401,0.33349524,0.127380045
1764767918.9210634,-5.9514,1.48022,0.54936,-0.92077401,0.33349524,0.127380045
1764767918.9220772,-5.9514,1.48022,0.54936,-0.92077401,0.33349524,0.127380045
1764767918.9220772,-5.9514,1.48022,0.54936,-0.92077401,0.33349524,0.127380045
1764767918.9220772,-5.9514,1.48022,0.54936,-0.92077401,0.33349524,0.127380045
1764767918.9220772,-5.32574,1.34288,0.4578,-0.919980555,0.33129798,0.12744108
1764767918.9220772,-5.32574,1.34288,0.4578,-0.919980555,0.33129798,0.12744108
1764767918.9220772,-5.32574,1.34288,0.4578,-0.919980555,0.33129798,0.12744108
1764767918.9220772,-5.32574,1.34288,0.4578,-0.919980555,0.33129798,0.12744108
1764767918.9220772,-5.32574,1.34288,0.4578,-0.919980555,0.33129798,0.12744108
1764767918.9220772,-5.32574,1.34288,0.4578,-0.919980555,0.33129798,0.12744108
1764767918.9220772,-5.32574,1.34288,0.4578,-0.919980555,0.33129798,0.12744108
1764767918.9220772,-5.32574,1.34288,0.4578,-0.919980555,0.33129798,0.12744108
1764767918.965774,-5.32574,1.34288,0.4578,-0.919980555,0.33129798,0.12744108
1764767918.9663086,-5.32574,1.34288,0.4578,-0.919980555,0.33129798,0.12744108
1764767918.9663086,-4.715339999999999,1.3734,0.8392999999999999,-0.91869882,0.32910072,0.12878385
1764767918.9663086,-4.715339999999999,1.3734,0.8392999999999999,-0.91869882,0.32910072,0.12878385
1764767918.9663086,-4.715339999999999,1.3734,0.8392999999999999,-0.91869882,0.32910072,0.12878385
1764767918.9663086,-4.715339999999999,1.3734,0.8392999999999999,-0.91869882,0.32910072,0.12878385
1764767918.9663086,-4.715339999999999,1.3734,0.8392999999999999,-0.91869882,0.32910072,0.12878385
1764767918.9663086,-4.715339999999999,1.3734,0.8392999999999999,-0.91869882,0.32910072,0.12878385
1764767918.9663086,-4.715339999999999,1.3734,0.8392999999999999,-0.91869882,0.32910072,0.12878385
1764767918.9663086,-4.715339999999999,1.3734,0.8392999999999999,-0.91869882,0.32910072,0.12878385
1764767918.9663086,-4.715339999999999,1.3734,0.8392999999999999,-0.91869882,0.32910072,0.12878385
1764767918.9663086,-4.715339999999999,1.3734,0.8392999999999999,-0.91869882,0.32910072,0.12878385
1764767918.9674854,-4.45592,0.8087799999999999,0.54936,-0.918149505,0.328185195,0.130065585
1764767918.9674854,-4.45592,0.8087799999999999,0.54936,-0.918149505,0.328185195,0.130065585
1764767918.9674854,-4.45592,0.8087799999999999,0.54936,-0.918149505,0.328185195,0.130065585
1764767918.9674854,-4.45592,0.8087799999999999,0.54936,-0.918149505,0.328185195,0.130065585
1764767918.9674854,-4.45592,0.8087799999999999,0.54936,-0.918149505,0.328185195,0.130065585
1764767918.9674854,-4.45592,0.8087799999999999,0.54936,-0.918149505,0.328185195,0.130065585
1764767918.9674854,-4.45592,0.8087799999999999,0.54936,-0.918149505,0.328185195,0.130065585
1764767918.9674854,-4.45592,0.8087799999999999,0.54936,-0.918149505,0.328185195,0.130065585
1764767918.9674854,-4.45592,0.8087799999999999,0.54936,-0.918149505,0.328185195,0.130065585
1764767918.9674854,-4.45592,0.8087799999999999,0.54936,-0.918149505,0.328185195,0.130065585
1764767918.9674854,-4.70008,1.08346,0.0762999999999999,-0.91943124,0.32800209,0.13085904
1764767918.9674854,-4.70008,1.08346,0.0762999999999999,-0.91943124,0.32800209,0.13085904
1764767919.0162091,-4.70008,1.08346,0.0762999999999999,-0.91943124,0.32800209,0.13085904
1764767919.017231,-4.70008,1.08346,0.0762999999999999,-0.91943124,0.32800209,0.13085904
1764767919.017231,-4.70008,1.08346,0.0762999999999999,-0.91943124,0.32800209,0.13085904
1764767919.017231,-4.70008,1.08346,0.0762999999999999,-0.91943124,0.32800209,0.13085904
1764767919.017231,-4.70008,1.08346,0.0762999999999999,-0.91943124,0.32800209,0.13085904
1764767919.017231,-4.70008,1.08346,0.0762999999999999,-0.91943124,0.32800209,0.13085904
1764767919.017231,-4.70008,1.08346,0.0762999999999999,-0.91943124,0.32800209,0.13085904
1764767919.017231,-4.70008,1.08346,0.0762999999999999,-0.91943124,0.32800209,0.13085904
1764767919.017231,-3.61662,0.47306,-0.0762999999999999,-0.92028573,0.32812416,0.13195767
1764767919.017231,-3.61662,0.47306,-0.0762999999999999,-0.92028573,0.32812416,0.13195767
1764767919.017231,-3.61662,0.47306,-0.0762999999999999,-0.92028573,0.32812416,0.13195767
1764767919.017231,-3.61662,0.47306,-0.0762999999999999,-0.92028573,0.32812416,0.13195767
1764767919.017231,-3.61662,0.47306,-0.0762999999999999,-0.92028573,0.32812416,0.13195767
1764767919.017231,-3.61662,0.47306,-0.0762999999999999,-0.92028573,0.32812416,0.13195767
1764767919.017231,-3.61662,0.47306,-0.0762999999999999,-0.92028573,0.32812416,0.13195767
1764767919.017231,-3.61662,0.47306,-0.0762999999999999,-0.92028573,0.32812416,0.13195767
1764767919.017231,-3.61662,0.47306,-0.0762999999999999,-0.92028573,0.32812416,0.13195767
1764767919.0183742,-3.61662,0.47306,-0.0762999999999999,-0.92028573,0.32812416,0.13195767
1764767919.0183742,-2.92992,0.10682,-0.3509799999999999,-0.92089608,0.329589,0.131774565
1764767919.0183742,-2.92992,0.10682,-0.3509799999999999,-0.92089608,0.329589,0.131774565
1764767919.0183742,-2.92992,0.10682,-0.3509799999999999,-0.92089608,0.329589,0.131774565
1764767919.0183742,-2.92992,0.10682,-0.3509799999999999,-0.92089608,0.329589,0.131774565
1764767919.0183742,-2.92992,0.10682,-0.3509799999999999,-0.92089608,0.329589,0.131774565
1764767919.0183742,-2.92992,0.10682,-0.3509799999999999,-0.92089608,0.329589,0.131774565
1764767919.0602942,-2.92992,0.10682,-0.3509799999999999,-0.92089608,0.329589,0.131774565
1764767919.0602942,-2.92992,0.10682,-0.3509799999999999,-0.92089608,0.329589,0.131774565
1764767919.0602942,-2.92992,0.10682,-0.3509799999999999,-0.92089608,0.329589,0.131774565
1764767919.0602942,-2.92992,0.10682,-0.3509799999999999,-0.92089608,0.329589,0.131774565
1764767919.0602942,-2.79258,0.19838,-0.44254,-0.92077401,0.33215247,0.13085904
1764767919.0602942,-2.79258,0.19838,-0.44254,-0.92077401,0.33215247,0.13085904
1764767919.0602942,-2.79258,0.19838,-0.44254,-0.92077401,0.33215247,0.13085904
1764767919.0602942,-2.79258,0.19838,-0.44254,-0.92077401,0.33215247,0.13085904
1764767919.0602942,-2.79258,0.19838,-0.44254,-0.92077401,0.33215247,0.13085904
1764767919.0602942,-2.79258,0.19838,-0.44254,-0.92077401,0.33215247,0.13085904
1764767919.0602942,-2.79258,0.19838,-0.44254,-0.92077401,0.33215247,0.13085904
1764767919.0602942,-2.79258,0.19838,-0.44254,-0.92077401,0.33215247,0.13085904
1764767919.0613017,-2.79258,0.19838,-0.44254,-0.92077401,0.33215247,0.13085904
1764767919.0613017,-2.79258,0.19838,-0.44254,-0.92077401,0.33215247,0.13085904
1764767919.0613017,-3.03674,-0.10682,-0.59514,-0.92028573,0.334166625,0.129943515
1764767919.0613017,-3.03674,-0.10682,-0.59514,-0.92028573,0.334166625,0.129943515
1764767919.0613017,-3.03674,-0.10682,-0.59514,-0.92028573,0.334166625,0.129943515
1764767919.0613017,-3.03674,-0.10682,-0.59514,-0.92028573,0.334166625,0.129943515
1764767919.0613017,-3.03674,-0.10682,-0.59514,-0.92028573,0.334166625,0.129943515
1764767919.0613017,-3.03674,-0.10682,-0.59514,-0.92028573,0.334166625,0.129943515
1764767919.0613017,-3.03674,-0.10682,-0.59514,-0.92028573,0.334166625,0.129943515
1764767919.0613017,-3.03674,-0.10682,-0.59514,-0.92028573,0.334166625,0.129943515
1764767919.0613017,-3.03674,-0.10682,-0.59514,-0.92028573,0.334166625,0.129943515
1764767919.0613017,-3.03674,-0.10682,-0.59514,-0.92028573,0.334166625,0.129943515
1764767919.1070075,-3.63188,0.03052,-0.3051999999999999,-0.919126065,0.335387325,0.12951627
1764767919.1070075,-3.63188,0.03052,-0.3051999999999999,-0.919126065,0.335387325,0.12951627
1764767919.1070075,-3.63188,0.03052,-0.3051999999999999,-0.919126065,0.335387325,0.12951627
1764767919.1070075,-3.63188,0.03052,-0.3051999999999999,-0.919126065,0.335387325,0.12951627
1764767919.1070075,-3.63188,0.03052,-0.3051999999999999,-0.919126065,0.335387325,0.12951627
1764767919.1070075,-3.63188,0.03052,-0.3051999999999999,-0.919126065,0.335387325,0.12951627
1764767919.1070075,-3.63188,0.03052,-0.3051999999999999,-0.919126065,0.335387325,0.12951627
1764767919.1070075,-3.63188,0.03052,-0.3051999999999999,-0.919126065,0.335387325,0.12951627
1764767919.1070075,-3.63188,0.03052,-0.3051999999999999,-0.919126065,0.335387325,0.12951627
1764767919.1070075,-3.63188,0.03052,-0.3051999999999999,-0.919126065,0.335387325,0.12951627
1764767919.1070075,-3.815,0.0762999999999999,-0.71722,-0.91711191,0.334899045,0.130065585
1764767919.1080248,-3.815,0.0762999999999999,-0.71722,-0.91711191,0.334899045,0.130065585
1764767919.1080248,-3.815,0.0762999999999999,-0.71722,-0.91711191,0.334899045,0.130065585
1764767919.1080248,-3.815,0.0762999999999999,-0.71722,-0.91711191,0.334899045,0.130065585
1764767919.1080248,-3.815,0.0762999999999999,-0.71722,-0.91711191,0.334899045,0.130065585
1764767919.1080248,-3.815,0.0762999999999999,-0.71722,-0.91711191,0.334899045,0.130065585
1764767919.1080248,-3.815,0.0762999999999999,-0.71722,-0.91711191,0.334899045,0.130065585
1764767919.1080248,-3.815,0.0762999999999999,-0.71722,-0.91711191,0.334899045,0.130065585
1764767919.1080248,-3.815,0.0762999999999999,-0.71722,-0.91711191,0.334899045,0.130065585
1764767919.1080248,-3.815,0.0762999999999999,-0.71722,-0.91711191,0.334899045,0.130065585
1764767919.1080248,-3.98286,0.51884,-0.7019599999999999,-0.915219825,0.33496008,0.1306149
1764767919.1080248,-3.98286,0.51884,-0.7019599999999999,-0.915219825,0.33496008,0.1306149
1764767919.1080248,-3.98286,0.51884,-0.7019599999999999,-0.915219825,0.33496008,0.1306149
1764767919.1080248,-3.98286,0.51884,-0.7019599999999999,-0.915219825,0.33496008,0.1306149
1764767919.1545267,-3.98286,0.51884,-0.7019599999999999,-0.915219825,0.33496008,0.1306149
1764767919.1552126,-3.98286,0.51884,-0.7019599999999999,-0.915219825,0.33496008,0.1306149
1764767919.1552126,-3.98286,0.51884,-0.7019599999999999,-0.915219825,0.33496008,0.1306149
1764767919.1552126,-3.98286,0.51884,-0.7019599999999999,-0.915219825,0.33496008,0.1306149
1764767919.1552126,-3.98286,0.51884,-0.7019599999999999,-0.915219825,0.33496008,0.1306149
1764767919.1552126,-3.98286,0.51884,-0.7019599999999999,-0.915219825,0.33496008,0.1306149
1764767919.1552126,-4.715339999999999,0.41202,-0.9003399999999999,-0.91528086,0.334899045,0.131286285
1764767919.1552126,-4.715339999999999,0.41202,-0.9003399999999999,-0.91528086,0.334899045,0.131286285
1764767919.1552126,-4.715339999999999,0.41202,-0.9003399999999999,-0.91528086,0.334899045,0.131286285
1764767919.1552126,-4.715339999999999,0.41202,-0.9003399999999999,-0.91528086,0.334899045,0.131286285
1764767919.1552126,-4.715339999999999,0.41202,-0.9003399999999999,-0.91528086,0.334899045,0.131286285
1764767919.1552126,-4.715339999999999,0.41202,-0.9003399999999999,-0.91528086,0.334899045,0.131286285
1764767919.1552126,-4.715339999999999,0.41202,-0.9003399999999999,-0.91528086,0.334899045,0.131286285
1764767919.1552126,-4.715339999999999,0.41202,-0.9003399999999999,-0.91528086,0.334899045,0.131286285
1764767919.1552126,-4.715339999999999,0.41202,-0.9003399999999999,-0.91528086,0.334899045,0.131286285
1764767919.1552126,-4.715339999999999,0.41202,-0.9003399999999999,-0.91528086,0.334899045,0.131286285
1764767919.1552126,-4.822159999999999,0.36624,-0.6867,-0.91698984,0.33361731,0.131286285
1764767919.1552126,-4.822159999999999,0.36624,-0.6867,-0.91698984,0.33361731,0.131286285
1764767919.1552126,-4.822159999999999,0.36624,-0.6867,-0.91698984,0.33361731,0.131286285
1764767919.1552126,-4.822159999999999,0.36624,-0.6867,-0.91698984,0.33361731,0.131286285
1764767919.1552126,-4.822159999999999,0.36624,-0.6867,-0.91698984,0.33361731,0.131286285
1764767919.1552126,-4.822159999999999,0.36624,-0.6867,-0.91698984,0.33361731,0.131286285
1764767919.2002416,-4.822159999999999,0.36624,-0.6867,-0.91698984,0.33361731,0.131286285
1764767919.2002416,-4.822159999999999,0.36624,-0.6867,-0.91698984,0.33361731,0.131286285
1764767919.2002416,-4.822159999999999,0.36624,-0.6867,-0.91698984,0.33361731,0.131286285
1764767919.2002416,-4.822159999999999,0.36624,-0.6867,-0.91698984,0.33361731,0.131286285
1764767919.2002416,-4.45592,0.44254,-0.54936,-0.918637785,0.333678345,0.13134732
1764767919.2002416,-4.45592,0.44254,-0.54936,-0.918637785,0.333678345,0.13134732
1764767919.2002416,-4.45592,0.44254,-0.54936,-0.918637785,0.333678345,0.13134732
1764767919.2002416,-4.45592,0.44254,-0.54936,-0.918637785,0.333678345,0.13134732
1764767919.2002416,-4.45592,0.44254,-0.54936,-0.918637785,0.333678345,0.13134732
1764767919.2002416,-4.45592,0.44254,-0.54936,-0.918637785,0.333678345,0.13134732
1764767919.2002416,-4.45592,0.44254,-0.54936,-0.918637785,0.333678345,0.13134732
1764767919.2002416,-4.45592,0.44254,-0.54936,-0.918637785,0.333678345,0.13134732
1764767919.2002416,-4.45592,0.44254,-0.54936,-0.918637785,0.333678345,0.13134732
1764767919.2002416,-4.45592,0.44254,-0.54936,-0.918637785,0.333678345,0.13134732
1764767919.2002416,-4.22702,0.74774,-0.6103999999999999,-0.91955331,0.333434205,0.131164215
1764767919.2002416,-4.22702,0.74774,-0.6103999999999999,-0.91955331,0.333434205,0.131164215
1764767919.2002416,-4.22702,0.74774,-0.6103999999999999,-0.91955331,0.333434205,0.131164215
1764767919.2002416,-4.22702,0.74774,-0.6103999999999999,-0.91955331,0.333434205,0.131164215
1764767919.2002416,-4.22702,0.74774,-0.6103999999999999,-0.91955331,0.333434205,0.131164215
1764767919.2002416,-4.22702,0.74774,-0.6103999999999999,-0.91955331,0.333434205,0.131164215
1764767919.2002416,-4.22702,0.74774,-0.6103999999999999,-0.91955331,0.333434205,0.131164215
1764767919.2015357,-4.22702,0.74774,-0.6103999999999999,-0.91955331,0.333434205,0.131164215
1764767919.2015357,-4.22702,0.74774,-0.6103999999999999,-0.91955331,0.333434205,0.131164215
1764767919.2015357,-4.22702,0.74774,-0.6103999999999999,-0.91955331,0.333434205,0.131164215
1764767919.247434,-4.53222,0.77826,-0.57988,-0.91894296,0.333434205,0.13037076
1764767919.2479577,-4.53222,0.77826,-0.57988,-0.91894296,0.333434205,0.13037076
1764767919.2479577,-4.53222,0.77826,-0.57988,-0.91894296,0.333434205,0.13037076
1764767919.2479577,-4.53222,0.77826,-0.57988,-0.91894296,0.333434205,0.13037076
1764767919.2479577,-4.53222,0.77826,-0.57988,-0.91894296,0.333434205,0.13037076
1764767919.2479577,-4.53222,0.77826,-0.57988,-0.91894296,0.333434205,0.13037076
1764767919.2479577,-4.53222,0.77826,-0.57988,-0.91894296,0.333434205,0.13037076
1764767919.2479577,-4.53222,0.77826,-0.57988,-0.91894296,0.333434205,0.13037076
1764767919.2479577,-4.53222,0.77826,-0.57988,-0.91894296,0.333434205,0.13037076
1764767919.2479577,-4.53222,0.77826,-0.57988,-0.91894296,0.333434205,0.13037076
1764767919.2479577,-4.51696,1.32762,-0.3204599999999999,-0.91808847,0.333434205,0.12963834
1764767919.2479577,-4.51696,1.32762,-0.3204599999999999,-0.91808847,0.333434205,0.12963834
1764767919.2479577,-4.51696,1.32762,-0.3204599999999999,-0.91808847,0.333434205,0.12963834
1764767919.2479577,-4.51696,1.32762,-0.3204599999999999,-0.91808847,0.333434205,0.12963834
1764767919.2479577,-4.51696,1.32762,-0.3204599999999999,-0.91808847,0.333434205,0.12963834
1764767919.2479577,-4.51696,1.32762,-0.3204599999999999,-0.91808847,0.333434205,0.12963834
1764767919.2479577,-4.51696,1.32762,-0.3204599999999999,-0.91808847,0.333434205,0.12963834
1764767919.2479577,-4.51696,1.32762,-0.3204599999999999,-0.91808847,0.333434205,0.12963834
1764767919.2479577,-4.51696,1.32762,-0.3204599999999999,-0.91808847,0.333434205,0.12963834
1764767919.2479577,-4.51696,1.32762,-0.3204599999999999,-0.91808847,0.333434205,0.12963834
1764767919.2479577,-4.303319999999999,1.2208,0.27468,-0.91711191,0.332701785,0.128966955
1764767919.2479577,-4.303319999999999,1.2208,0.27468,-0.91711191,0.332701785,0.128966955
1764767919.2479577,-4.303319999999999,1.2208,0.27468,-0.91711191,0.332701785,0.128966955
1764767919.2479577,-4.303319999999999,1.2208,0.27468,-0.91711191,0.332701785,0.128966955
1764767919.2946994,-4.303319999999999,1.2208,0.27468,-0.91711191,0.332701785,0.128966955
1764767919.2946994,-4.303319999999999,1.2208,0.27468,-0.91711191,0.332701785,0.128966955
1764767919.2946994,-4.303319999999999,1.2208,0.27468,-0.91711191,0.332701785,0.128966955
1764767919.2946994,-4.303319999999999,1.2208,0.27468,-0.91711191,0.332701785,0.128966955
1764767919.2946994,-4.303319999999999,1.2208,0.27468,-0.91711191,0.332701785,0.128966955
1764767919.2946994,-4.303319999999999,1.2208,0.27468,-0.91711191,0.332701785,0.128966955
1764767919.2946994,-4.79164,1.26658,0.3204599999999999,-0.916562595,0.332457645,0.129455235
1764767919.2946994,-4.79164,1.26658,0.3204599999999999,-0.916562595,0.332457645,0.129455235
1764767919.2946994,-4.79164,1.26658,0.3204599999999999,-0.916562595,0.332457645,0.129455235
1764767919.2946994,-4.79164,1.26658,0.3204599999999999,-0.916562595,0.332457645,0.129455235
1764767919.2946994,-4.79164,1.26658,0.3204599999999999,-0.916562595,0.332457645,0.129455235
1764767919.2946994,-4.79164,1.26658,0.3204599999999999,-0.916562595,0.332457645,0.129455235
1764767919.2946994,-4.79164,1.26658,0.3204599999999999,-0.916562595,0.332457645,0.129455235
1764767919.2946994,-4.79164,1.26658,0.3204599999999999,-0.916562595,0.332457645,0.129455235
1764767919.2946994,-4.79164,1.26658,0.3204599999999999,-0.916562595,0.332457645,0.129455235
1764767919.2946994,-4.79164,1.26658,0.3204599999999999,-0.916562595,0.332457645,0.129455235
1764767919.2946994,-4.91372,1.84646,0.19838,-0.91637949,0.33288489,0.13000455
1764767919.2946994,-4.91372,1.84646,0.19838,-0.91637949,0.33288489,0.13000455
1764767919.2946994,-4.91372,1.84646,0.19838,-0.91637949,0.33288489,0.13000455
1764767919.2946994,-4.91372,1.84646,0.19838,-0.91637949,0.33288489,0.13000455
1764767919.2946994,-4.91372,1.84646,0.19838,-0.91637949,0.33288489,0.13000455
1764767919.2946994,-4.91372,1.84646,0.19838,-0.91637949,0.33288489,0.13000455
1764767919.3410811,-4.91372,1.84646,0.19838,-0.91637949,0.33288489,0.13000455
1764767919.3410811,-4.91372,1.84646,0.19838,-0.91637949,0.33288489,0.13000455
1764767919.3410811,-4.91372,1.84646,0.19838,-0.91637949,0.33288489,0.13000455
1764767919.3410811,-4.91372,1.84646,0.19838,-0.91637949,0.33288489,0.13000455
1764767919.3410811,-5.12736,2.09062,-0.13734,-0.91637949,0.332701785,0.1306149
1764767919.3410811,-5.12736,2.09062,-0.13734,-0.91637949,0.332701785,0.1306149
1764767919.3410811,-5.12736,2.09062,-0.13734,-0.91637949,0.332701785,0.1306149
1764767919.3410811,-5.12736,2.09062,-0.13734,-0.91637949,0.332701785,0.1306149
1764767919.3410811,-5.12736,2.09062,-0.13734,-0.91637949,0.332701785,0.1306149
1764767919.3410811,-5.12736,2.09062,-0.13734,-0.91637949,0.332701785,0.1306149
1764767919.3410811,-5.12736,2.09062,-0.13734,-0.91637949,0.332701785,0.1306149
1764767919.3410811,-5.12736,2.09062,-0.13734,-0.91637949,0.332701785,0.1306149
1764767919.3410811,-5.12736,2.09062,-0.13734,-0.91637949,0.332701785,0.1306149
1764767919.3410811,-5.12736,2.09062,-0.13734,-0.91637949,0.332701785,0.1306149
1764767919.3410811,-5.371519999999999,2.289,0.10682,-0.917539155,0.332335575,0.130675935
1764767919.3410811,-5.371519999999999,2.289,0.10682,-0.917539155,0.332335575,0.130675935
1764767919.3410811,-5.371519999999999,2.289,0.10682,-0.917539155,0.332335575,0.130675935
1764767919.3410811,-5.371519999999999,2.289,0.10682,-0.917539155,0.332335575,0.130675935
1764767919.3410811,-5.371519999999999,2.289,0.10682,-0.917539155,0.332335575,0.130675935
1764767919.3410811,-5.371519999999999,2.289,0.10682,-0.917539155,0.332335575,0.130675935
1764767919.342091,-5.371519999999999,2.289,0.10682,-0.917539155,0.332335575,0.130675935
1764767919.342091,-5.371519999999999,2.289,0.10682,-0.917539155,0.332335575,0.130675935
1764767919.342091,-5.371519999999999,2.289,0.10682,-0.917539155,0.332335575,0.130675935
1764767919.342091,-5.371519999999999,2.289,0.10682,-0.917539155,0.332335575,0.130675935
1764767919.3876886,-6.104,2.16692,-0.18312,-0.91735605,0.33215247,0.13110318
1764767919.3876886,-6.104,2.16692,-0.18312,-0.91735605,0.33215247,0.13110318
1764767919.3876886,-6.104,2.16692,-0.18312,-0.91735605,0.33215247,0.13110318
1764767919.3876886,-6.104,2.16692,-0.18312,-0.91735605,0.33215247,0.13110318
1764767919.3876886,-6.104,2.16692,-0.18312,-0.91735605,0.33215247,0.13110318
1764767919.3876886,-6.104,2.16692,-0.18312,-0.91735605,0.33215247,0.13110318
1764767919.3876886,-6.104,2.16692,-0.18312,-0.91735605,0.33215247,0.13110318
1764767919.3876886,-6.104,2.16692,-0.18312,-0.91735605,0.33215247,0.13110318
1764767919.3882194,-6.104,2.16692,-0.18312,-0.91735605,0.33215247,0.13110318
1764767919.3882194,-6.104,2.16692,-0.18312,-0.91735605,0.33215247,0.13110318
1764767919.3882194,-5.66146,2.42634,-0.1678599999999999,-0.91833261,0.332091435,0.130675935
1764767919.3882194,-5.66146,2.42634,-0.1678599999999999,-0.91833261,0.332091435,0.130675935
1764767919.3882194,-5.66146,2.42634,-0.1678599999999999,-0.91833261,0.332091435,0.130675935
1764767919.3882194,-5.66146,2.42634,-0.1678599999999999,-0.91833261,0.332091435,0.130675935
1764767919.3882194,-5.66146,2.42634,-0.1678599999999999,-0.91833261,0.332091435,0.130675935
1764767919.3882194,-5.66146,2.42634,-0.1678599999999999,-0.91833261,0.332091435,0.130675935
1764767919.3882194,-5.66146,2.42634,-0.1678599999999999,-0.91833261,0.332091435,0.130675935
1764767919.3882194,-5.66146,2.42634,-0.1678599999999999,-0.91833261,0.332091435,0.130675935
1764767919.3882194,-5.66146,2.42634,-0.1678599999999999,-0.91833261,0.332091435,0.130675935
1764767919.3882194,-5.66146,2.42634,-0.1678599999999999,-0.91833261,0.332091435,0.130675935
1764767919.3882194,-5.76828,3.11304,-0.12208,-0.91821054,0.33154212,0.12988248
1764767919.3882194,-5.76828,3.11304,-0.12208,-0.91821054,0.33154212,0.12988248
1764767919.4338305,-5.76828,3.11304,-0.12208,-0.91821054,0.33154212,0.12988248
1764767919.4338305,-5.76828,3.11304,-0.12208,-0.91821054,0.33154212,0.12988248
1764767919.4338305,-5.76828,3.11304,-0.12208,-0.91821054,0.33154212,0.12988248
1764767919.4338305,-5.76828,3.11304,-0.12208,-0.91821054,0.33154212,0.12988248
1764767919.4338305,-5.76828,3.11304,-0.12208,-0.91821054,0.33154212,0.12988248
1764767919.4338305,-5.76828,3.11304,-0.12208,-0.91821054,0.33154212,0.12988248
1764767919.4338305,-5.76828,3.11304,-0.12208,-0.91821054,0.33154212,0.12988248
1764767919.4338305,-5.76828,3.11304,-0.12208,-0.91821054,0.33154212,0.12988248
1764767919.4338305,-5.35626,3.052,0.1678599999999999,-0.919248135,0.330016245,0.13000455
1764767919.4338305,-5.35626,3.052,0.1678599999999999,-0.919248135,0.330016245,0.13000455
1764767919.4338305,-5.35626,3.052,0.1678599999999999,-0.919248135,0.330016245,0.13000455
1764767919.4338305,-5.35626,3.052,0.1678599999999999,-0.919248135,0.330016245,0.13000455
1764767919.4338305,-5.35626,3.052,0.1678599999999999,-0.919248135,0.330016245,0.13000455
1764767919.4338305,-5.35626,3.052,0.1678599999999999,-0.919248135,0.330016245,0.13000455
1764767919.4338305,-5.35626,3.052,0.1678599999999999,-0.919248135,0.330016245,0.13000455
1764767919.4338305,-5.35626,3.052,0.1678599999999999,-0.919248135,0.330016245,0.13000455
1764767919.4338305,-5.35626,3.052,0.1678599999999999,-0.919248135,0.330016245,0.13000455
1764767919.4338305,-5.35626,3.052,0.1678599999999999,-0.919248135,0.330016245,0.13000455
1764767919.4338305,-5.4173,2.57894,-0.06104,-0.919614345,0.330626595,0.129943515
1764767919.4338305,-5.4173,2.57894,-0.06104,-0.919614345,0.330626595,0.129943515
1764767919.4338305,-5.4173,2.57894,-0.06104,-0.919614345,0.330626595,0.129943515
1764767919.4338305,-5.4173,2.57894,-0.06104,-0.919614345,0.330626595,0.129943515
1764767919.4338305,-5.4173,2.57894,-0.06104,-0.919614345,0.330626595,0.129943515
1764767919.4338305,-5.4173,2.57894,-0.06104,-0.919614345,0.330626595,0.129943515
1764767919.483892,-5.4173,2.57894,-0.06104,-0.919614345,0.330626595,0.129943515
1764767919.483892,-5.4173,2.57894,-0.06104,-0.919614345,0.330626595,0.129943515
1764767919.483892,-5.4173,2.57894,-0.06104,-0.919614345,0.330626595,0.129943515
1764767919.483892,-5.4173,2.57894,-0.06104,-0.919614345,0.330626595,0.129943515
1764767919.483892,-5.70724,2.19744,0.13734,-0.919980555,0.33093177,0.13037076
1764767919.483892,-5.70724,2.19744,0.13734,-0.919980555,0.33093177,0.13037076
1764767919.483892,-5.70724,2.19744,0.13734,-0.919980555,0.33093177,0.13037076
1764767919.483892,-5.70724,2.19744,0.13734,-0.919980555,0.33093177,0.13037076
1764767919.483892,-5.70724,2.19744,0.13734,-0.919980555,0.33093177,0.13037076
1764767919.483892,-5.70724,2.19744,0.13734,-0.919980555,0.33093177,0.13037076
1764767919.483892,-5.70724,2.19744,0.13734,-0.919980555,0.33093177,0.13037076
1764767919.483892,-5.70724,2.19744,0.13734,-0.919980555,0.33093177,0.13037076
1764767919.483892,-5.70724,2.19744,0.13734,-0.919980555,0.33093177,0.13037076
1764767919.483892,-5.70724,2.19744,0.13734,-0.919980555,0.33093177,0.13037076
1764767919.483892,-5.66146,2.53316,0.06104,-0.92028573,0.329772105,0.130553865
1764767919.483892,-5.66146,2.53316,0.06104,-0.92028573,0.329772105,0.130553865
1764767919.483892,-5.66146,2.53316,0.06104,-0.92028573,0.329772105,0.130553865
1764767919.483892,-5.66146,2.53316,0.06104,-0.92028573,0.329772105,0.130553865
1764767919.483892,-5.66146,2.53316,0.06104,-0.92028573,0.329772105,0.130553865
1764767919.483892,-5.66146,2.53316,0.06104,-0.92028573,0.329772105,0.130553865
1764767919.483892,-5.66146,2.53316,0.06104,-0.92028573,0.329772105,0.130553865
1764767919.483892,-5.66146,2.53316,0.06104,-0.92028573,0.329772105,0.130553865
1764767919.483892,-5.66146,2.53316,0.06104,-0.92028573,0.329772105,0.130553865
1764767919.483892,-5.66146,2.53316,0.06104,-0.92028573,0.329772105,0.130553865
1764767919.527455,-5.53938,1.95328,0.12208,-0.920590905,0.329039685,0.1306149
1764767919.527455,-5.53938,1.95328,0.12208,-0.920590905,0.329039685,0.1306149
1764767919.527455,-5.53938,1.95328,0.12208,-0.920590905,0.329039685,0.1306149
1764767919.527455,-5.53938,1.95328,0.12208,-0.920590905,0.329039685,0.1306149
1764767919.527455,-5.53938,1.95328,0.12208,-0.920590905,0.329039685,0.1306149
1764767919.527455,-5.53938,1.95328,0.12208,-0.920590905,0.329039685,0.1306149
1764767919.527455,-5.53938,1.95328,0.12208,-0.920590905,0.329039685,0.1306149
1764767919.527455,-5.53938,1.95328,0.12208,-0.920590905,0.329039685,0.1306149
1764767919.527455,-5.53938,1.95328,0.12208,-0.920590905,0.329039685,0.1306149
1764767919.527455,-5.53938,1.95328,0.12208,-0.920590905,0.329039685,0.1306149
1764767919.527455,-4.68482,2.12114,0.10682,-0.92028573,0.327818985,0.129821445
1764767919.527455,-4.68482,2.12114,0.10682,-0.92028573,0.327818985,0.129821445
