Timestamp,GyroX,GyroY,GyroZ,AccX,AccY,AccZ
1764767370.646156,-3.87604,0.54936,-0.85456,0.978940365,-0.03601065,0.121032405
1764767370.646669,-3.87604,0.54936,-0.85456,0.978940365,-0.03601065,0.121032405
1764767370.646669,-3.87604,0.54936,-0.85456,0.978940365,-0.03601065,0.121032405
1764767370.646669,-3.87604,0.54936,-0.85456,0.978940365,-0.03601065,0.121032405
1764767370.646669,-3.87604,0.54936,-0.85456,0.978940365,-0.03601065,0.121032405
1764767370.646669,-3.87604,0.54936,-0.85456,0.978940365,-0.03601065,0.121032405
1764767370.646669,-3.98286,0.6867,-0.7019599999999999,0.97973382,-0.034728915,0.121886895
1764767370.646669,-3.98286,0.6867,-0.7019599999999999,0.97973382,-0.034728915,0.121886895
1764767370.646669,-3.98286,0.6867,-0.7019599999999999,0.97973382,-0.034728915,0.121886895
1764767370.646669,-3.98286,0.6867,-0.7019599999999999,0.97973382,-0.034728915,0.121886895
1764767370.646669,-3.98286,0.6867,-0.7019599999999999,0.97973382,-0.034728915,0.121886895
1764767370.646669,-3.98286,0.6867,-0.7019599999999999,0.97973382,-0.034728915,0.121886895
1764767370.646669,-3.98286,0.6867,-0.7019599999999999,0.97973382,-0.034728915,0.121886895
1764767370.646669,-3.98286,0.6867,-0.7019599999999999,0.97973382,-0.034728915,0.121886895
1764767370.646669,-3.98286,0.6867,-0.7019599999999999,0.97973382,-0.034728915,0.121886895
1764767370.646669,-3.98286,0.6867,-0.7019599999999999,0.97973382,-0.034728915,0.121886895
1764767370.646669,-4.63904,-0.04578,-0.3204599999999999,0.97802484,-0.03332511,0.12170379
1764767370.646669,-4.63904,-0.04578,-0.3204599999999999,0.97802484,-0.03332511,0.12170379
1764767370.646669,-4.63904,-0.04578,-0.3204599999999999,0.97802484,-0.03332511,0.12170379
1764767370.646669,-4.63904,-0.04578,-0.3204599999999999,0.97802484,-0.03332511,0.12170379
1764767370.646669,-4.63904,-0.04578,-0.3204599999999999,0.97802484,-0.03332511,0.12170379
1764767370.646669,-4.63904,-0.04578,-0.3204599999999999,0.97802484,-0.03332511,0.12170379
1764767370.646669,-4.63904,-0.04578,-0.3204599999999999,0.97802484,-0.03332511,0.12170379
1764767370.646669,-4.63904,-0.04578,-0.3204599999999999,0.97802484,-0.03332511,0.12170379
1764767370.6928685,-4.63904,-0.04578,-0.3204599999999999,0.97802484,-0.03332511,0.12170379
1764767370.6928685,-4.63904,-0.04578,-0.3204599999999999,0.97802484,-0.03332511,0.12170379
1764767370.6933773,-4.77638,0.12208,0.04578,0.978574155,-0.03332511,0.121276545
1764767370.6933773,-4.77638,0.12208,0.04578,0.978574155,-0.03332511,0.121276545
1764767370.6933773,-4.77638,0.12208,0.04578,0.978574155,-0.03332511,0.121276545
1764767370.6933773,-4.77638,0.12208,0.04578,0.978574155,-0.03332511,0.121276545
1764767370.6933773,-4.77638,0.12208,0.04578,0.978574155,-0.03332511,0.121276545
1764767370.6933773,-4.77638,0.12208,0.04578,0.978574155,-0.03332511,0.121276545
1764767370.6933773,-4.77638,0.12208,0.04578,0.978574155,-0.03332511,0.121276545
1764767370.6933773,-4.77638,0.12208,0.04578,0.978574155,-0.03332511,0.121276545
1764767370.6933773,-4.77638,0.12208,0.04578,0.978574155,-0.03332511,0.121276545
1764767370.6933773,-4.77638,0.12208,0.04578,0.978574155,-0.03332511,0.121276545
1764767370.6933773,-4.6543,-0.36624,0.79352,0.977719665,-0.03442374,0.120544125
1764767370.6933773,-4.6543,-0.36624,0.79352,0.977719665,-0.03442374,0.120544125
1764767370.6933773,-4.6543,-0.36624,0.79352,0.977719665,-0.03442374,0.120544125
1764767370.6933773,-4.6543,-0.36624,0.79352,0.977719665,-0.03442374,0.120544125
1764767370.6933773,-4.6543,-0.36624,0.79352,0.977719665,-0.03442374,0.120544125
1764767370.6933773,-4.6543,-0.36624,0.79352,0.977719665,-0.03442374,0.120544125
1764767370.6933773,-4.6543,-0.36624,0.79352,0.977719665,-0.03442374,0.120544125
1764767370.6933773,-4.6543,-0.36624,0.79352,0.977719665,-0.03442374,0.120544125
1764767370.6933773,-4.6543,-0.36624,0.79352,0.977719665,-0.03442374,0.120544125
1764767370.6933773,-4.6543,-0.36624,0.79352,0.977719665,-0.03442374,0.120544125
1764767370.7364547,-4.15072,-0.5341,0.88508,0.977475525,-0.03637686,0.12036102
1764767370.7364547,-4.15072,-0.5341,0.88508,0.977475525,-0.03637686,0.12036102
1764767370.7364547,-4.15072,-0.5341,0.88508,0.977475525,-0.03637686,0.12036102
1764767370.7364547,-4.15072,-0.5341,0.88508,0.977475525,-0.03637686,0.12036102
1764767370.7364547,-4.15072,-0.5341,0.88508,0.977475525,-0.03637686,0.12036102
1764767370.7364547,-4.15072,-0.5341,0.88508,0.977475525,-0.03637686,0.12036102
1764767370.7369611,-4.15072,-0.5341,0.88508,0.977475525,-0.03637686,0.12036102
1764767370.7369611,-4.15072,-0.5341,0.88508,0.977475525,-0.03637686,0.12036102
1764767370.7369611,-4.15072,-0.5341,0.88508,0.977475525,-0.03637686,0.12036102
1764767370.7369611,-4.15072,-0.5341,0.88508,0.977475525,-0.03637686,0.12036102
1764767370.7369611,-3.63188,-0.4578,-0.09156,0.98046624,-0.03771963,0.11938446
1764767370.7369611,-3.63188,-0.4578,-0.09156,0.98046624,-0.03771963,0.11938446
1764767370.7369611,-3.63188,-0.4578,-0.09156,0.98046624,-0.03771963,0.11938446
1764767370.7369611,-3.63188,-0.4578,-0.09156,0.98046624,-0.03771963,0.11938446
1764767370.7369611,-3.63188,-0.4578,-0.09156,0.98046624,-0.03771963,0.11938446
1764767370.7369611,-3.63188,-0.4578,-0.09156,0.98046624,-0.03771963,0.11938446
1764767370.7369611,-3.63188,-0.4578,-0.09156,0.98046624,-0.03771963,0.11938446
1764767370.7369611,-3.63188,-0.4578,-0.09156,0.98046624,-0.03771963,0.11938446
1764767370.7369611,-3.63188,-0.4578,-0.09156,0.98046624,-0.03771963,0.11938446
1764767370.7369611,-3.63188,-0.4578,-0.09156,0.98046624,-0.03771963,0.11938446
1764767370.7369611,-3.23512,0.50358,-0.79352,0.981870045,-0.03857412,0.11914032
1764767370.7369611,-3.23512,0.50358,-0.79352,0.981870045,-0.03857412,0.11914032
1764767370.7369611,-3.23512,0.50358,-0.79352,0.981870045,-0.03857412,0.11914032
1764767370.7369611,-3.23512,0.50358,-0.79352,0.981870045,-0.03857412,0.11914032
1764767370.783718,-3.23512,0.50358,-0.79352,0.981870045,-0.03857412,0.11914032
1764767370.783718,-3.23512,0.50358,-0.79352,0.981870045,-0.03857412,0.11914032
1764767370.783718,-3.23512,0.50358,-0.79352,0.981870045,-0.03857412,0.11914032
1764767370.783718,-3.23512,0.50358,-0.79352,0.981870045,-0.03857412,0.11914032
1764767370.783718,-3.23512,0.50358,-0.79352,0.981870045,-0.03857412,0.11914032
1764767370.783718,-3.23512,0.50358,-0.79352,0.981870045,-0.03857412,0.11914032
1764767370.783718,-2.99096,0.96138,-1.19028,0.98107659,-0.037414455,0.11865204
1764767370.783718,-2.99096,0.96138,-1.19028,0.98107659,-0.037414455,0.11865204
1764767370.783718,-2.99096,0.96138,-1.19028,0.98107659,-0.037414455,0.11865204
1764767370.783718,-2.99096,0.96138,-1.19028,0.98107659,-0.037414455,0.11865204
1764767370.783718,-2.99096,0.96138,-1.19028,0.98107659,-0.037414455,0.11865204
1764767370.783718,-2.99096,0.96138,-1.19028,0.98107659,-0.037414455,0.11865204
1764767370.783718,-2.99096,0.96138,-1.19028,0.98107659,-0.037414455,0.11865204
1764767370.783718,-2.99096,0.96138,-1.19028,0.98107659,-0.037414455,0.11865204
1764767370.783718,-2.99096,0.96138,-1.19028,0.98107659,-0.037414455,0.11865204
1764767370.783718,-2.99096,0.96138,-1.19028,0.98107659,-0.037414455,0.11865204
1764767370.783718,-3.54032,1.00716,-1.61756,0.98058831,-0.035217195,0.118957215
1764767370.783718,-3.54032,1.00716,-1.61756,0.98058831,-0.035217195,0.118957215
1764767370.783718,-3.54032,1.00716,-1.61756,0.98058831,-0.035217195,0.118957215
1764767370.783718,-3.54032,1.00716,-1.61756,0.98058831,-0.035217195,0.118957215
1764767370.783718,-3.54032,1.00716,-1.61756,0.98058831,-0.035217195,0.118957215
1764767370.783718,-3.54032,1.00716,-1.61756,0.98058831,-0.035217195,0.118957215
1764767370.8316128,-3.54032,1.00716,-1.61756,0.98058831,-0.035217195,0.118957215
1764767370.8316128,-3.54032,1.00716,-1.61756,0.98058831,-0.035217195,0.118957215
1764767370.8316128,-3.54032,1.00716,-1.61756,0.98058831,-0.035217195,0.118957215
1764767370.8316128,-3.54032,1.00716,-1.61756,0.98058831,-0.035217195,0.118957215
1764767370.8316128,-3.815,0.7019599999999999,-1.8006799999999998,0.97961175,-0.03320304,0.11889618
1764767370.8316128,-3.815,0.7019599999999999,-1.8006799999999998,0.97961175,-0.03320304,0.11889618
1764767370.8316128,-3.815,0.7019599999999999,-1.8006799999999998,0.97961175,-0.03320304,0.11889618
1764767370.8316128,-3.815,0.7019599999999999,-1.8006799999999998,0.97961175,-0.03320304,0.11889618
1764767370.8316128,-3.815,0.7019599999999999,-1.8006799999999998,0.97961175,-0.03320304,0.11889618
1764767370.8316128,-3.815,0.7019599999999999,-1.8006799999999998,0.97961175,-0.03320304,0.11889618
1764767370.8316128,-3.815,0.7019599999999999,-1.8006799999999998,0.97961175,-0.03320304,0.11889618
1764767370.8316128,-3.815,0.7019599999999999,-1.8006799999999998,0.97961175,-0.03320304,0.11889618
1764767370.8316128,-3.815,0.7019599999999999,-1.8006799999999998,0.97961175,-0.03320304,0.11889618
1764767370.8316128,-3.815,0.7019599999999999,-1.8006799999999998,0.97961175,-0.03320304,0.11889618
1764767370.8316128,-4.22702,0.8087799999999999,-1.19028,0.979672785,-0.03088371,0.119445495
1764767370.8316128,-4.22702,0.8087799999999999,-1.19028,0.979672785,-0.03088371,0.119445495
1764767370.8316128,-4.22702,0.8087799999999999,-1.19028,0.979672785,-0.03088371,0.119445495
1764767370.8316128,-4.22702,0.8087799999999999,-1.19028,0.979672785,-0.03088371,0.119445495
1764767370.8316128,-4.22702,0.8087799999999999,-1.19028,0.979672785,-0.03088371,0.119445495
1764767370.8316128,-4.22702,0.8087799999999999,-1.19028,0.979672785,-0.03088371,0.119445495
1764767370.8316128,-4.22702,0.8087799999999999,-1.19028,0.979672785,-0.03088371,0.119445495
1764767370.832616,-4.22702,0.8087799999999999,-1.19028,0.979672785,-0.03088371,0.119445495
1764767370.832616,-4.22702,0.8087799999999999,-1.19028,0.979672785,-0.03088371,0.119445495
1764767370.832616,-4.22702,0.8087799999999999,-1.19028,0.979672785,-0.03088371,0.119445495
1764767370.8797696,-4.56274,0.7019599999999999,-0.3815,0.97961175,-0.02941887,0.11975067
1764767370.8797696,-4.56274,0.7019599999999999,-0.3815,0.97961175,-0.02941887,0.11975067
1764767370.8797696,-4.56274,0.7019599999999999,-0.3815,0.97961175,-0.02941887,0.11975067
1764767370.8797696,-4.56274,0.7019599999999999,-0.3815,0.97961175,-0.02941887,0.11975067
1764767370.8797696,-4.56274,0.7019599999999999,-0.3815,0.97961175,-0.02941887,0.11975067
1764767370.8797696,-4.56274,0.7019599999999999,-0.3815,0.97961175,-0.02941887,0.11975067
1764767370.8797696,-4.56274,0.7019599999999999,-0.3815,0.97961175,-0.02941887,0.11975067
1764767370.8797696,-4.56274,0.7019599999999999,-0.3815,0.97961175,-0.02941887,0.11975067
1764767370.8797696,-4.56274,0.7019599999999999,-0.3815,0.97961175,-0.02941887,0.11975067
1764767370.8797696,-4.56274,0.7019599999999999,-0.3815,0.97961175,-0.02941887,0.11975067
1764767370.8797696,-4.89846,0.06104,-0.09156,0.979916925,-0.02941887,0.119567565
1764767370.8797696,-4.89846,0.06104,-0.09156,0.979916925,-0.02941887,0.119567565
1764767370.8797696,-4.89846,0.06104,-0.09156,0.979916925,-0.02941887,0.119567565
1764767370.8797696,-4.89846,0.06104,-0.09156,0.979916925,-0.02941887,0.119567565
1764767370.8797696,-4.89846,0.06104,-0.09156,0.979916925,-0.02941887,0.119567565
1764767370.8797696,-4.89846,0.06104,-0.09156,0.979916925,-0.02941887,0.119567565
1764767370.8797696,-4.89846,0.06104,-0.09156,0.979916925,-0.02941887,0.119567565
1764767370.880274,-4.89846,0.06104,-0.09156,0.979916925,-0.02941887,0.119567565
1764767370.880274,-4.89846,0.06104,-0.09156,0.979916925,-0.02941887,0.119567565
1764767370.880274,-4.89846,0.06104,-0.09156,0.979916925,-0.02941887,0.119567565
1764767370.880274,-4.99002,0.3509799999999999,0.21364,0.979672785,-0.030090255,0.119811705
1764767370.880274,-4.99002,0.3509799999999999,0.21364,0.979672785,-0.030090255,0.119811705
1764767370.880274,-4.99002,0.3509799999999999,0.21364,0.979672785,-0.030090255,0.119811705
1764767370.880274,-4.99002,0.3509799999999999,0.21364,0.979672785,-0.030090255,0.119811705
1764767370.9231975,-4.99002,0.3509799999999999,0.21364,0.979672785,-0.030090255,0.119811705
1764767370.9231975,-4.99002,0.3509799999999999,0.21364,0.979672785,-0.030090255,0.119811705
1764767370.9231975,-4.99002,0.3509799999999999,0.21364,0.979672785,-0.030090255,0.119811705
1764767370.9231975,-4.99002,0.3509799999999999,0.21364,0.979672785,-0.030090255,0.119811705
1764767370.9231975,-4.99002,0.3509799999999999,0.21364,0.979672785,-0.030090255,0.119811705
1764767370.9231975,-4.99002,0.3509799999999999,0.21364,0.979672785,-0.030090255,0.119811705
1764767370.9231975,-4.97476,0.12208,0.3509799999999999,0.9790014,-0.03137199,0.11975067
1764767370.9231975,-4.97476,0.12208,0.3509799999999999,0.9790014,-0.03137199,0.11975067
1764767370.9231975,-4.97476,0.12208,0.3509799999999999,0.9790014,-0.03137199,0.11975067
1764767370.9244556,-4.97476,0.12208,0.3509799999999999,0.9790014,-0.03137199,0.11975067
1764767370.9244556,-4.97476,0.12208,0.3509799999999999,0.9790014,-0.03137199,0.11975067
1764767370.9244556,-4.97476,0.12208,0.3509799999999999,0.9790014,-0.03137199,0.11975067
1764767370.9244556,-4.97476,0.12208,0.3509799999999999,0.9790014,-0.03137199,0.11975067
1764767370.9244556,-4.97476,0.12208,0.3509799999999999,0.9790014,-0.03137199,0.11975067
1764767370.9244556,-4.97476,0.12208,0.3509799999999999,0.9790014,-0.03137199,0.11975067
1764767370.9244556,-4.97476,0.12208,0.3509799999999999,0.9790014,-0.03137199,0.11975067
1764767370.9244556,-4.8069,0.21364,0.6409199999999999,0.97936761,-0.031799235,0.11938446
1764767370.9244556,-4.8069,0.21364,0.6409199999999999,0.97936761,-0.031799235,0.11938446
1764767370.9244556,-4.8069,0.21364,0.6409199999999999,0.97936761,-0.031799235,0.11938446
1764767370.9244556,-4.8069,0.21364,0.6409199999999999,0.97936761,-0.031799235,0.11938446
1764767370.9244556,-4.8069,0.21364,0.6409199999999999,0.97936761,-0.031799235,0.11938446
1764767370.9244556,-4.8069,0.21364,0.6409199999999999,0.97936761,-0.031799235,0.11938446
1764767370.9702842,-4.8069,0.21364,0.6409199999999999,0.97936761,-0.031799235,0.11938446
1764767370.9702842,-4.8069,0.21364,0.6409199999999999,0.97936761,-0.031799235,0.11938446
1764767370.9702842,-4.8069,0.21364,0.6409199999999999,0.97936761,-0.031799235,0.11938446
1764767370.9702842,-4.8069,0.21364,0.6409199999999999,0.97936761,-0.031799235,0.11938446
1764767370.9702842,-4.440659999999999,0.0,0.10682,0.979916925,-0.033508215,0.118591005
1764767370.9712956,-4.440659999999999,0.0,0.10682,0.979916925,-0.033508215,0.118591005
1764767370.9712956,-4.440659999999999,0.0,0.10682,0.979916925,-0.033508215,0.118591005
1764767370.9712956,-4.440659999999999,0.0,0.10682,0.979916925,-0.033508215,0.118591005
1764767370.9712956,-4.440659999999999,0.0,0.10682,0.979916925,-0.033508215,0.118591005
1764767370.9712956,-4.440659999999999,0.0,0.10682,0.979916925,-0.033508215,0.118591005
1764767370.9712956,-4.440659999999999,0.0,0.10682,0.979916925,-0.033508215,0.118591005
1764767370.9712956,-4.440659999999999,0.0,0.10682,0.979916925,-0.033508215,0.118591005
1764767370.9712956,-4.440659999999999,0.0,0.10682,0.979916925,-0.033508215,0.118591005
1764767370.9712956,-4.440659999999999,0.0,0.10682,0.979916925,-0.033508215,0.118591005
1764767370.9712956,-4.0439,0.6409199999999999,0.763,0.97973382,-0.033752355,0.11852997
1764767370.9712956,-4.0439,0.6409199999999999,0.763,0.97973382,-0.033752355,0.11852997
1764767370.9712956,-4.0439,0.6409199999999999,0.763,0.97973382,-0.033752355,0.11852997
1764767370.9712956,-4.0439,0.6409199999999999,0.763,0.97973382,-0.033752355,0.11852997
1764767370.9712956,-4.0439,0.6409199999999999,0.763,0.97973382,-0.033752355,0.11852997
1764767370.9712956,-4.0439,0.6409199999999999,0.763,0.97973382,-0.033752355,0.11852997
1764767370.9712956,-4.0439,0.6409199999999999,0.763,0.97973382,-0.033752355,0.11852997
1764767370.9712956,-4.0439,0.6409199999999999,0.763,0.97973382,-0.033752355,0.11852997
1764767371.018374,-4.0439,0.6409199999999999,0.763,0.97973382,-0.033752355,0.11852997
1764767371.018374,-4.0439,0.6409199999999999,0.763,0.97973382,-0.033752355,0.11852997
1764767371.018374,-3.92182,0.25942,1.00716,0.978574155,-0.0354003,0.11791962
1764767371.018374,-3.92182,0.25942,1.00716,0.978574155,-0.0354003,0.11791962
1764767371.018374,-3.92182,0.25942,1.00716,0.978574155,-0.0354003,0.11791962
1764767371.018374,-3.92182,0.25942,1.00716,0.978574155,-0.0354003,0.11791962
1764767371.018374,-3.92182,0.25942,1.00716,0.978574155,-0.0354003,0.11791962
1764767371.018374,-3.92182,0.25942,1.00716,0.978574155,-0.0354003,0.11791962
1764767371.018374,-3.92182,0.25942,1.00716,0.978574155,-0.0354003,0.11791962
1764767371.018374,-3.92182,0.25942,1.00716,0.978574155,-0.0354003,0.11791962
1764767371.018374,-3.92182,0.25942,1.00716,0.978574155,-0.0354003,0.11791962
1764767371.018374,-3.92182,0.25942,1.00716,0.978574155,-0.0354003,0.11791962
1764767371.018374,-3.52506,0.44254,1.0682,0.979428645,-0.035705475,0.11743134
1764767371.018374,-3.52506,0.44254,1.0682,0.979428645,-0.035705475,0.11743134
1764767371.018374,-3.52506,0.44254,1.0682,0.979428645,-0.035705475,0.11743134
1764767371.018374,-3.52506,0.44254,1.0682,0.979428645,-0.035705475,0.11743134
1764767371.018374,-3.52506,0.44254,1.0682,0.979428645,-0.035705475,0.11743134
1764767371.018374,-3.52506,0.44254,1.0682,0.979428645,-0.035705475,0.11743134
1764767371.0199018,-3.52506,0.44254,1.0682,0.979428645,-0.035705475,0.11743134
1764767371.0199018,-3.52506,0.44254,1.0682,0.979428645,-0.035705475,0.11743134
1764767371.0199018,-3.52506,0.44254,1.0682,0.979428645,-0.035705475,0.11743134
1764767371.0199018,-3.52506,0.44254,1.0682,0.979428645,-0.035705475,0.11743134
1764767371.0199018,-3.61662,0.74774,1.00716,0.98034417,-0.03588858,0.11706513
1764767371.0199018,-3.61662,0.74774,1.00716,0.98034417,-0.03588858,0.11706513
1764767371.062467,-3.61662,0.74774,1.00716,0.98034417,-0.03588858,0.11706513
1764767371.062467,-3.61662,0.74774,1.00716,0.98034417,-0.03588858,0.11706513
1764767371.062467,-3.61662,0.74774,1.00716,0.98034417,-0.03588858,0.11706513
1764767371.062467,-3.61662,0.74774,1.00716,0.98034417,-0.03588858,0.11706513
1764767371.062467,-3.61662,0.74774,1.00716,0.98034417,-0.03588858,0.11706513
1764767371.062467,-3.61662,0.74774,1.00716,0.98034417,-0.03588858,0.11706513
1764767371.062467,-3.61662,0.74774,1.00716,0.98034417,-0.03588858,0.11706513
1764767371.062467,-3.61662,0.74774,1.00716,0.98034417,-0.03588858,0.11706513
1764767371.062467,-3.47928,0.7019599999999999,0.93086,0.98034417,-0.035217195,0.11682099
1764767371.062467,-3.47928,0.7019599999999999,0.93086,0.98034417,-0.035217195,0.11682099
1764767371.062467,-3.47928,0.7019599999999999,0.93086,0.98034417,-0.035217195,0.11682099
1764767371.062467,-3.47928,0.7019599999999999,0.93086,0.98034417,-0.035217195,0.11682099
1764767371.062467,-3.47928,0.7019599999999999,0.93086,0.98034417,-0.035217195,0.11682099
1764767371.062467,-3.47928,0.7019599999999999,0.93086,0.98034417,-0.035217195,0.11682099
1764767371.062467,-3.47928,0.7019599999999999,0.93086,0.98034417,-0.035217195,0.11682099
1764767371.062467,-3.47928,0.7019599999999999,0.93086,0.98034417,-0.035217195,0.11682099
1764767371.062467,-3.47928,0.7019599999999999,0.93086,0.98034417,-0.035217195,0.11682099
1764767371.062467,-3.47928,0.7019599999999999,0.93086,0.98034417,-0.035217195,0.11682099
1764767371.062467,-3.5098,1.15976,0.85456,0.98132073,-0.035461335,0.117614445
1764767371.062467,-3.5098,1.15976,0.85456,0.98132073,-0.035461335,0.117614445
1764767371.062467,-3.5098,1.15976,0.85456,0.98132073,-0.035461335,0.117614445
1764767371.062467,-3.5098,1.15976,0.85456,0.98132073,-0.035461335,0.117614445
1764767371.062467,-3.5098,1.15976,0.85456,0.98132073,-0.035461335,0.117614445
1764767371.062467,-3.5098,1.15976,0.85456,0.98132073,-0.035461335,0.117614445
1764767371.110439,-3.5098,1.15976,0.85456,0.98132073,-0.035461335,0.117614445
1764767371.110439,-3.5098,1.15976,0.85456,0.98132073,-0.035461335,0.117614445
1764767371.110439,-3.5098,1.15976,0.85456,0.98132073,-0.035461335,0.117614445
1764767371.110439,-3.5098,1.15976,0.85456,0.98132073,-0.035461335,0.117614445
1764767371.110439,-3.67766,1.1445,0.62566,0.979916925,-0.035339265,0.11767548
1764767371.110439,-3.67766,1.1445,0.62566,0.979916925,-0.035339265,0.11767548
1764767371.110439,-3.67766,1.1445,0.62566,0.979916925,-0.035339265,0.11767548
1764767371.110439,-3.67766,1.1445,0.62566,0.979916925,-0.035339265,0.11767548
1764767371.110439,-3.67766,1.1445,0.62566,0.979916925,-0.035339265,0.11767548
1764767371.110439,-3.67766,1.1445,0.62566,0.979916925,-0.035339265,0.11767548
1764767371.110439,-3.67766,1.1445,0.62566,0.979916925,-0.035339265,0.11767548
1764767371.110439,-3.67766,1.1445,0.62566,0.979916925,-0.035339265,0.11767548
1764767371.110439,-3.67766,1.1445,0.62566,0.979916925,-0.035339265,0.11767548
1764767371.110439,-3.67766,1.1445,0.62566,0.979916925,-0.035339265,0.11767548
1764767371.110439,-3.6624,1.2055399999999998,0.2289,0.979672785,-0.034118565,0.118468935
1764767371.110439,-3.6624,1.2055399999999998,0.2289,0.979672785,-0.034118565,0.118468935
1764767371.110439,-3.6624,1.2055399999999998,0.2289,0.979672785,-0.034118565,0.118468935
1764767371.110439,-3.6624,1.2055399999999998,0.2289,0.979672785,-0.034118565,0.118468935
1764767371.110439,-3.6624,1.2055399999999998,0.2289,0.979672785,-0.034118565,0.118468935
1764767371.110439,-3.6624,1.2055399999999998,0.2289,0.979672785,-0.034118565,0.118468935
1764767371.110439,-3.6624,1.2055399999999998,0.2289,0.979672785,-0.034118565,0.118468935
1764767371.110439,-3.6624,1.2055399999999998,0.2289,0.979672785,-0.034118565,0.118468935
1764767371.110439,-3.6624,1.2055399999999998,0.2289,0.979672785,-0.034118565,0.118468935
1764767371.110439,-3.6624,1.2055399999999998,0.2289,0.979672785,-0.034118565,0.118468935
1764767371.154249,-3.6624,1.05294,0.01526,0.980038995,-0.033508215,0.118591005
1764767371.154249,-3.6624,1.05294,0.01526,0.980038995,-0.033508215,0.118591005
1764767371.154249,-3.6624,1.05294,0.01526,0.980038995,-0.033508215,0.118591005
1764767371.154249,-3.6624,1.05294,0.01526,0.980038995,-0.033508215,0.118591005
1764767371.154249,-3.6624,1.05294,0.01526,0.980038995,-0.033508215,0.118591005
1764767371.154249,-3.6624,1.05294,0.01526,0.980038995,-0.033508215,0.118591005
1764767371.154249,-3.6624,1.05294,0.01526,0.980038995,-0.033508215,0.118591005
1764767371.154249,-3.6624,1.05294,0.01526,0.980038995,-0.033508215,0.118591005
1764767371.154249,-3.6624,1.05294,0.01526,0.980038995,-0.033508215,0.118591005
1764767371.154249,-3.6624,1.05294,0.01526,0.980038995,-0.033508215,0.118591005
1764767371.154249,-3.3572,1.08346,0.25942,0.9802221,-0.03320304,0.11914032
1764767371.154249,-3.3572,1.08346,0.25942,0.9802221,-0.03320304,0.11914032
1764767371.154249,-3.3572,1.08346,0.25942,0.9802221,-0.03320304,0.11914032
1764767371.154249,-3.3572,1.08346,0.25942,0.9802221,-0.03320304,0.11914032
1764767371.154249,-3.3572,1.08346,0.25942,0.9802221,-0.03320304,0.11914032
1764767371.154249,-3.3572,1.08346,0.25942,0.9802221,-0.03320304,0.11914032
1764767371.154249,-3.3572,1.08346,0.25942,0.9802221,-0.03320304,0.11914032
1764767371.154249,-3.3572,1.08346,0.25942,0.9802221,-0.03320304,0.11914032
1764767371.154249,-3.3572,1.08346,0.25942,0.9802221,-0.03320304,0.11914032
1764767371.154249,-3.3572,1.08346,0.25942,0.9802221,-0.03320304,0.11914032
1764767371.154249,-3.815,0.6409199999999999,0.28994,0.97936761,-0.03259269,0.11914032
1764767371.154249,-3.815,0.6409199999999999,0.28994,0.97936761,-0.03259269,0.11914032
1764767371.204923,-3.815,0.6409199999999999,0.28994,0.97936761,-0.03259269,0.11914032
1764767371.204923,-3.815,0.6409199999999999,0.28994,0.97936761,-0.03259269,0.11914032
1764767371.204923,-3.815,0.6409199999999999,0.28994,0.97936761,-0.03259269,0.11914032
1764767371.204923,-3.815,0.6409199999999999,0.28994,0.97936761,-0.03259269,0.11914032
1764767371.204923,-3.815,0.6409199999999999,0.28994,0.97936761,-0.03259269,0.11914032
1764767371.204923,-3.815,0.6409199999999999,0.28994,0.97936761,-0.03259269,0.11914032
1764767371.204923,-3.815,0.6409199999999999,0.28994,0.97936761,-0.03259269,0.11914032
1764767371.204923,-3.815,0.6409199999999999,0.28994,0.97936761,-0.03259269,0.11914032
1764767371.204923,-4.02864,0.42728,0.4578,0.979062435,-0.032531655,0.11901825
1764767371.204923,-4.02864,0.42728,0.4578,0.979062435,-0.032531655,0.11901825
1764767371.204923,-4.02864,0.42728,0.4578,0.979062435,-0.032531655,0.11901825
1764767371.204923,-4.02864,0.42728,0.4578,0.979062435,-0.032531655,0.11901825
1764767371.204923,-4.02864,0.42728,0.4578,0.979062435,-0.032531655,0.11901825
1764767371.204923,-4.02864,0.42728,0.4578,0.979062435,-0.032531655,0.11901825
1764767371.204923,-4.02864,0.42728,0.4578,0.979062435,-0.032531655,0.11901825
1764767371.204923,-4.02864,0.42728,0.4578,0.979062435,-0.032531655,0.11901825
1764767371.204923,-4.02864,0.42728,0.4578,0.979062435,-0.032531655,0.11901825
1764767371.204923,-4.02864,0.42728,0.4578,0.979062435,-0.032531655,0.11901825
1764767371.204923,-4.01338,0.8087799999999999,0.9156,0.9790014,-0.03210441,0.119079285
1764767371.204923,-4.01338,0.8087799999999999,0.9156,0.9790014,-0.03210441,0.119079285
1764767371.204923,-4.01338,0.8087799999999999,0.9156,0.9790014,-0.03210441,0.119079285
1764767371.204923,-4.01338,0.8087799999999999,0.9156,0.9790014,-0.03210441,0.119079285
1764767371.2478695,-4.01338,0.8087799999999999,0.9156,0.9790014,-0.03210441,0.119079285
1764767371.2478695,-4.01338,0.8087799999999999,0.9156,0.9790014,-0.03210441,0.119079285
1764767371.2478695,-4.01338,0.8087799999999999,0.9156,0.9790014,-0.03210441,0.119079285
1764767371.2478695,-4.01338,0.8087799999999999,0.9156,0.9790014,-0.03210441,0.119079285
1764767371.2478695,-4.01338,0.8087799999999999,0.9156,0.9790014,-0.03210441,0.119079285
1764767371.2478695,-4.01338,0.8087799999999999,0.9156,0.9790014,-0.03210441,0.119079285
1764767371.2478695,-4.15072,0.3509799999999999,1.05294,0.979428645,-0.032653725,0.11914032
1764767371.2478695,-4.15072,0.3509799999999999,1.05294,0.979428645,-0.032653725,0.11914032
1764767371.2478695,-4.15072,0.3509799999999999,1.05294,0.979428645,-0.032653725,0.11914032
1764767371.2478695,-4.15072,0.3509799999999999,1.05294,0.979428645,-0.032653725,0.11914032
1764767371.2478695,-4.15072,0.3509799999999999,1.05294,0.979428645,-0.032653725,0.11914032
1764767371.2478695,-4.15072,0.3509799999999999,1.05294,0.979428645,-0.032653725,0.11914032
1764767371.2478695,-4.15072,0.3509799999999999,1.05294,0.979428645,-0.032653725,0.11914032
1764767371.2478695,-4.15072,0.3509799999999999,1.05294,0.979428645,-0.032653725,0.11914032
1764767371.2478695,-4.15072,0.3509799999999999,1.05294,0.979428645,-0.032653725,0.11914032
1764767371.2478695,-4.15072,0.3509799999999999,1.05294,0.979428645,-0.032653725,0.11914032
1764767371.2478695,-4.18124,0.74774,0.71722,0.979916925,-0.03186027,0.11926239
1764767371.2478695,-4.18124,0.74774,0.71722,0.979916925,-0.03186027,0.11926239
1764767371.2478695,-4.18124,0.74774,0.71722,0.979916925,-0.03186027,0.11926239
1764767371.2478695,-4.18124,0.74774,0.71722,0.979916925,-0.03186027,0.11926239
1764767371.2478695,-4.18124,0.74774,0.71722,0.979916925,-0.03186027,0.11926239
1764767371.2478695,-4.18124,0.74774,0.71722,0.979916925,-0.03186027,0.11926239
1764767371.2478695,-4.18124,0.74774,0.71722,0.979916925,-0.03186027,0.11926239
1764767371.2478695,-4.18124,0.74774,0.71722,0.979916925,-0.03186027,0.11926239
1764767371.295762,-4.18124,0.74774,0.71722,0.979916925,-0.03186027,0.11926239
1764767371.295762,-4.18124,0.74774,0.71722,0.979916925,-0.03186027,0.11926239
1764767371.295762,-4.31858,0.21364,0.9003399999999999,0.97961175,-0.032775795,0.119323425
1764767371.295762,-4.31858,0.21364,0.9003399999999999,0.97961175,-0.032775795,0.119323425
1764767371.295762,-4.31858,0.21364,0.9003399999999999,0.97961175,-0.032775795,0.119323425
1764767371.295762,-4.31858,0.21364,0.9003399999999999,0.97961175,-0.032775795,0.119323425
1764767371.295762,-4.31858,0.21364,0.9003399999999999,0.97961175,-0.032775795,0.119323425
1764767371.295762,-4.31858,0.21364,0.9003399999999999,0.97961175,-0.032775795,0.119323425
1764767371.295762,-4.31858,0.21364,0.9003399999999999,0.97961175,-0.032775795,0.119323425
1764767371.295762,-4.31858,0.21364,0.9003399999999999,0.97961175,-0.032775795,0.119323425
1764767371.295762,-4.31858,0.21364,0.9003399999999999,0.97961175,-0.032775795,0.119323425
1764767371.295762,-4.31858,0.21364,0.9003399999999999,0.97961175,-0.032775795,0.119323425
1764767371.295762,-4.18124,0.54936,0.6867,0.979550715,-0.03369132,0.11889618
1764767371.295762,-4.18124,0.54936,0.6867,0.979550715,-0.03369132,0.11889618
1764767371.295762,-4.18124,0.54936,0.6867,0.979550715,-0.03369132,0.11889618
1764767371.295762,-4.18124,0.54936,0.6867,0.979550715,-0.03369132,0.11889618
1764767371.295762,-4.18124,0.54936,0.6867,0.979550715,-0.03369132,0.11889618
1764767371.295762,-4.18124,0.54936,0.6867,0.979550715,-0.03369132,0.11889618
1764767371.295762,-4.18124,0.54936,0.6867,0.979550715,-0.03369132,0.11889618
1764767371.295762,-4.18124,0.54936,0.6867,0.979550715,-0.03369132,0.11889618
1764767371.295762,-4.18124,0.54936,0.6867,0.979550715,-0.03369132,0.11889618
1764767371.295762,-4.18124,0.54936,0.6867,0.979550715,-0.03369132,0.11889618
1764767371.295762,-4.08968,0.36624,0.8087799999999999,0.97973382,-0.034484775,0.118591005
1764767371.295762,-4.08968,0.36624,0.8087799999999999,0.97973382,-0.034484775,0.118591005
1764767371.3389988,-4.08968,0.36624,0.8087799999999999,0.97973382,-0.034484775,0.118591005
1764767371.3389988,-4.08968,0.36624,0.8087799999999999,0.97973382,-0.034484775,0.118591005
1764767371.3389988,-4.08968,0.36624,0.8087799999999999,0.97973382,-0.034484775,0.118591005
1764767371.3389988,-4.08968,0.36624,0.8087799999999999,0.97973382,-0.034484775,0.118591005
1764767371.3389988,-4.08968,0.36624,0.8087799999999999,0.97973382,-0.034484775,0.118591005
1764767371.3389988,-4.08968,0.36624,0.8087799999999999,0.97973382,-0.034484775,0.118591005
1764767371.3389988,-4.08968,0.36624,0.8087799999999999,0.97973382,-0.034484775,0.118591005
1764767371.3389988,-4.08968,0.36624,0.8087799999999999,0.97973382,-0.034484775,0.118591005
1764767371.3389988,-4.1202,0.6409199999999999,0.73248,0.97973382,-0.03442374,0.11755341
1764767371.3389988,-4.1202,0.6409199999999999,0.73248,0.97973382,-0.03442374,0.11755341
1764767371.3389988,-4.1202,0.6409199999999999,0.73248,0.97973382,-0.03442374,0.11755341
1764767371.3389988,-4.1202,0.6409199999999999,0.73248,0.97973382,-0.03442374,0.11755341
1764767371.3389988,-4.1202,0.6409199999999999,0.73248,0.97973382,-0.03442374,0.11755341
1764767371.3389988,-4.1202,0.6409199999999999,0.73248,0.97973382,-0.03442374,0.11755341
1764767371.3389988,-4.1202,0.6409199999999999,0.73248,0.97973382,-0.03442374,0.11755341
1764767371.3389988,-4.1202,0.6409199999999999,0.73248,0.97973382,-0.03442374,0.11755341
1764767371.3389988,-4.1202,0.6409199999999999,0.73248,0.97973382,-0.03442374,0.11755341
1764767371.340021,-4.1202,0.6409199999999999,0.73248,0.97973382,-0.03442374,0.11755341
1764767371.340021,-4.16598,0.50358,0.77826,0.97948968,-0.034973055,0.118224795
1764767371.340021,-4.16598,0.50358,0.77826,0.97948968,-0.034973055,0.118224795
1764767371.340021,-4.16598,0.50358,0.77826,0.97948968,-0.034973055,0.118224795
1764767371.340021,-4.16598,0.50358,0.77826,0.97948968,-0.034973055,0.118224795
1764767371.3864956,-4.16598,0.50358,0.77826,0.97948968,-0.034973055,0.118224795
1764767371.3864956,-4.16598,0.50358,0.77826,0.97948968,-0.034973055,0.118224795
1764767371.3864956,-4.16598,0.50358,0.77826,0.97948968,-0.034973055,0.118224795
1764767371.3864956,-4.16598,0.50358,0.77826,0.97948968,-0.034973055,0.118224795
1764767371.3864956,-4.16598,0.50358,0.77826,0.97948968,-0.034973055,0.118224795
1764767371.3864956,-4.16598,0.50358,0.77826,0.97948968,-0.034973055,0.118224795
1764767371.3864956,-3.63188,0.3815,0.65618,0.979794855,-0.034850985,0.11816376
1764767371.3864956,-3.63188,0.3815,0.65618,0.979794855,-0.034850985,0.11816376
1764767371.3864956,-3.63188,0.3815,0.65618,0.979794855,-0.034850985,0.11816376
1764767371.3864956,-3.63188,0.3815,0.65618,0.979794855,-0.034850985,0.11816376
1764767371.3864956,-3.63188,0.3815,0.65618,0.979794855,-0.034850985,0.11816376
1764767371.3864956,-3.63188,0.3815,0.65618,0.979794855,-0.034850985,0.11816376
1764767371.3864956,-3.63188,0.3815,0.65618,0.979794855,-0.034850985,0.11816376
1764767371.3864956,-3.63188,0.3815,0.65618,0.979794855,-0.034850985,0.11816376
1764767371.3864956,-3.63188,0.3815,0.65618,0.979794855,-0.034850985,0.11816376
1764767371.3864956,-3.63188,0.3815,0.65618,0.979794855,-0.034850985,0.11816376
1764767371.3864956,-3.61662,0.82404,0.59514,0.980038995,-0.03466788,0.117492375
1764767371.3864956,-3.61662,0.82404,0.59514,0.980038995,-0.03466788,0.117492375
1764767371.3864956,-3.61662,0.82404,0.59514,0.980038995,-0.03466788,0.117492375
1764767371.3864956,-3.61662,0.82404,0.59514,0.980038995,-0.03466788,0.117492375
1764767371.3864956,-3.61662,0.82404,0.59514,0.980038995,-0.03466788,0.117492375
1764767371.3864956,-3.61662,0.82404,0.59514,0.980038995,-0.03466788,0.117492375
1764767371.4336174,-3.61662,0.82404,0.59514,0.980038995,-0.03466788,0.117492375
1764767371.4336174,-3.61662,0.82404,0.59514,0.980038995,-0.03466788,0.117492375
1764767371.4336174,-3.61662,0.82404,0.59514,0.980038995,-0.03466788,0.117492375
1764767371.4336174,-3.61662,0.82404,0.59514,0.980038995,-0.03466788,0.117492375
1764767371.4336174,-3.40298,0.97664,0.6409199999999999,0.980649345,-0.034484775,0.11743134
1764767371.4336174,-3.40298,0.97664,0.6409199999999999,0.980649345,-0.034484775,0.11743134
1764767371.4336174,-3.40298,0.97664,0.6409199999999999,0.980649345,-0.034484775,0.11743134
1764767371.4336174,-3.40298,0.97664,0.6409199999999999,0.980649345,-0.034484775,0.11743134
1764767371.4336174,-3.40298,0.97664,0.6409199999999999,0.980649345,-0.034484775,0.11743134
1764767371.4336174,-3.40298,0.97664,0.6409199999999999,0.980649345,-0.034484775,0.11743134
1764767371.4336174,-3.40298,0.97664,0.6409199999999999,0.980649345,-0.034484775,0.11743134
1764767371.4336174,-3.40298,0.97664,0.6409199999999999,0.980649345,-0.034484775,0.11743134
1764767371.4336174,-3.40298,0.97664,0.6409199999999999,0.980649345,-0.034484775,0.11743134
1764767371.4336174,-3.40298,0.97664,0.6409199999999999,0.980649345,-0.034484775,0.11743134
1764767371.4336174,-3.54032,1.2055399999999998,0.2289,0.98119866,-0.03369132,0.117004095
1764767371.4336174,-3.54032,1.2055399999999998,0.2289,0.98119866,-0.03369132,0.117004095
1764767371.4336174,-3.54032,1.2055399999999998,0.2289,0.98119866,-0.03369132,0.117004095
1764767371.4336174,-3.54032,1.2055399999999998,0.2289,0.98119866,-0.03369132,0.117004095
1764767371.4336174,-3.54032,1.2055399999999998,0.2289,0.98119866,-0.03369132,0.117004095
1764767371.4336174,-3.54032,1.2055399999999998,0.2289,0.98119866,-0.03369132,0.117004095
1764767371.4336174,-3.54032,1.2055399999999998,0.2289,0.98119866,-0.03369132,0.117004095
1764767371.4336174,-3.54032,1.2055399999999998,0.2289,0.98119866,-0.03369132,0.117004095
1764767371.4336174,-3.54032,1.2055399999999998,0.2289,0.98119866,-0.03369132,0.117004095
1764767371.4336174,-3.54032,1.2055399999999998,0.2289,0.98119866,-0.03369132,0.117004095
1764767371.480415,-3.99812,1.26658,0.50358,0.981137625,-0.033019935,0.116759955
1764767371.480415,-3.99812,1.26658,0.50358,0.981137625,-0.033019935,0.116759955
1764767371.480415,-3.99812,1.26658,0.50358,0.981137625,-0.033019935,0.116759955
1764767371.480415,-3.99812,1.26658,0.50358,0.981137625,-0.033019935,0.116759955
1764767371.480415,-3.99812,1.26658,0.50358,0.981137625,-0.033019935,0.116759955
1764767371.480415,-3.99812,1.26658,0.50358,0.981137625,-0.033019935,0.116759955
1764767371.4809268,-3.99812,1.26658,0.50358,0.981137625,-0.033019935,0.116759955
1764767371.4809268,-3.99812,1.26658,0.50358,0.981137625,-0.033019935,0.116759955
1764767371.4809268,-3.99812,1.26658,0.50358,0.981137625,-0.033019935,0.116759955
1764767371.4809268,-3.99812,1.26658,0.50358,0.981137625,-0.033019935,0.116759955
1764767371.4809268,-3.9676,1.00716,0.74774,0.980771415,-0.03283683,0.116882025
1764767371.4809268,-3.9676,1.00716,0.74774,0.980771415,-0.03283683,0.116882025
1764767371.4809268,-3.9676,1.00716,0.74774,0.980771415,-0.03283683,0.116882025
1764767371.4809268,-3.9676,1.00716,0.74774,0.980771415,-0.03283683,0.116882025
1764767371.4809268,-3.9676,1.00716,0.74774,0.980771415,-0.03283683,0.116882025
1764767371.4809268,-3.9676,1.00716,0.74774,0.980771415,-0.03283683,0.116882025
1764767371.4809268,-3.9676,1.00716,0.74774,0.980771415,-0.03283683,0.116882025
1764767371.4809268,-3.9676,1.00716,0.74774,0.980771415,-0.03283683,0.116882025
1764767371.4809268,-3.9676,1.00716,0.74774,0.980771415,-0.03283683,0.116882025
1764767371.4809268,-3.9676,1.00716,0.74774,0.980771415,-0.03283683,0.116882025
1764767371.4809268,-3.64714,1.26658,0.6714399999999999,0.980405205,-0.03320304,0.117614445
1764767371.4809268,-3.64714,1.26658,0.6714399999999999,0.980405205,-0.03320304,0.117614445
1764767371.4809268,-3.64714,1.26658,0.6714399999999999,0.980405205,-0.03320304,0.117614445
1764767371.4809268,-3.64714,1.26658,0.6714399999999999,0.980405205,-0.03320304,0.117614445
1764767371.5275493,-3.64714,1.26658,0.6714399999999999,0.980405205,-0.03320304,0.117614445
1764767371.5275493,-3.64714,1.26658,0.6714399999999999,0.980405205,-0.03320304,0.117614445
1764767371.5275493,-3.64714,1.26658,0.6714399999999999,0.980405205,-0.03320304,0.117614445
1764767371.5275493,-3.64714,1.26658,0.6714399999999999,0.980405205,-0.03320304,0.117614445
1764767371.5275493,-3.64714,1.26658,0.6714399999999999,0.980405205,-0.03320304,0.117614445
1764767371.5275493,-3.64714,1.26658,0.6714399999999999,0.980405205,-0.03320304,0.117614445
1764767371.5275493,-3.40298,1.54126,0.57988,0.979794855,-0.033264075,0.11804169
1764767371.5275493,-3.40298,1.54126,0.57988,0.979794855,-0.033264075,0.11804169
1764767371.5275493,-3.40298,1.54126,0.57988,0.979794855,-0.033264075,0.11804169
1764767371.5275493,-3.40298,1.54126,0.57988,0.979794855,-0.033264075,0.11804169
1764767371.5275493,-3.40298,1.54126,0.57988,0.979794855,-0.033264075,0.11804169
1764767371.5275493,-3.40298,1.54126,0.57988,0.979794855,-0.033264075,0.11804169
1764767371.5275493,-3.40298,1.54126,0.57988,0.979794855,-0.033264075,0.11804169
1764767371.5275493,-3.40298,1.54126,0.57988,0.979794855,-0.033264075,0.11804169
1764767371.5275493,-3.40298,1.54126,0.57988,0.979794855,-0.033264075,0.11804169
1764767371.5275493,-3.40298,1.54126,0.57988,0.979794855,-0.033264075,0.11804169
1764767371.5275493,-3.31142,1.19028,0.04578,0.979794855,-0.033508215,0.11877411
1764767371.5275493,-3.31142,1.19028,0.04578,0.979794855,-0.033508215,0.11877411
1764767371.5275493,-3.31142,1.19028,0.04578,0.979794855,-0.033508215,0.11877411
1764767371.5289087,-3.31142,1.19028,0.04578,0.979794855,-0.033508215,0.11877411
1764767371.5289087,-3.31142,1.19028,0.04578,0.979794855,-0.033508215,0.11877411
1764767371.5289087,-3.31142,1.19028,0.04578,0.979794855,-0.033508215,0.11877411
1764767371.5289087,-3.31142,1.19028,0.04578,0.979794855,-0.033508215,0.11877411
1764767371.5289087,-3.31142,1.19028,0.04578,0.979794855,-0.033508215,0.11877411
1764767371.571392,-3.31142,1.19028,0.04578,0.979794855,-0.033508215,0.11877411
1764767371.571392,-3.31142,1.19028,0.04578,0.979794855,-0.033508215,0.11877411
1764767371.571392,-3.44876,1.02242,0.3509799999999999,0.979916925,-0.033386145,0.11926239
1764767371.571392,-3.44876,1.02242,0.3509799999999999,0.979916925,-0.033386145,0.11926239
1764767371.571392,-3.44876,1.02242,0.3509799999999999,0.979916925,-0.033386145,0.11926239
1764767371.571392,-3.44876,1.02242,0.3509799999999999,0.979916925,-0.033386145,0.11926239
1764767371.571392,-3.44876,1.02242,0.3509799999999999,0.979916925,-0.033386145,0.11926239
1764767371.571392,-3.44876,1.02242,0.3509799999999999,0.979916925,-0.033386145,0.11926239
1764767371.571392,-3.44876,1.02242,0.3509799999999999,0.979916925,-0.033386145,0.11926239
1764767371.571901,-3.44876,1.02242,0.3509799999999999,0.979916925,-0.033386145,0.11926239
1764767371.571901,-3.44876,1.02242,0.3509799999999999,0.979916925,-0.033386145,0.11926239
1764767371.571901,-3.44876,1.02242,0.3509799999999999,0.979916925,-0.033386145,0.11926239
1764767371.571901,-3.18934,1.0682,0.28994,0.97948968,-0.03308097,0.11926239
1764767371.571901,-3.18934,1.0682,0.28994,0.97948968,-0.03308097,0.11926239
1764767371.571901,-3.18934,1.0682,0.28994,0.97948968,-0.03308097,0.11926239
1764767371.571901,-3.18934,1.0682,0.28994,0.97948968,-0.03308097,0.11926239
1764767371.571901,-3.18934,1.0682,0.28994,0.97948968,-0.03308097,0.11926239
1764767371.571901,-3.18934,1.0682,0.28994,0.97948968,-0.03308097,0.11926239
1764767371.571901,-3.18934,1.0682,0.28994,0.97948968,-0.03308097,0.11926239
1764767371.571901,-3.18934,1.0682,0.28994,0.97948968,-0.03308097,0.11926239
1764767371.571901,-3.18934,1.0682,0.28994,0.97948968,-0.03308097,0.11926239
1764767371.571901,-3.18934,1.0682,0.28994,0.97948968,-0.03308097,0.11926239
1764767371.6182823,-3.7387,1.12924,-0.09156,0.97948968,-0.032531655,0.11865204
1764767371.6182823,-3.7387,1.12924,-0.09156,0.97948968,-0.032531655,0.11865204
1764767371.6182823,-3.7387,1.12924,-0.09156,0.97948968,-0.032531655,0.11865204
1764767371.6182823,-3.7387,1.12924,-0.09156,0.97948968,-0.032531655,0.11865204
1764767371.6182823,-3.7387,1.12924,-0.09156,0.97948968,-0.032531655,0.11865204
1764767371.6182823,-3.7387,1.12924,-0.09156,0.97948968,-0.032531655,0.11865204
1764767371.6182823,-3.7387,1.12924,-0.09156,0.97948968,-0.032531655,0.11865204
1764767371.6182823,-3.7387,1.12924,-0.09156,0.97948968,-0.032531655,0.11865204
1764767371.6187973,-3.7387,1.12924,-0.09156,0.97948968,-0.032531655,0.11865204
1764767371.6187973,-3.7387,1.12924,-0.09156,0.97948968,-0.032531655,0.11865204
1764767371.6187973,-4.4254,1.32762,-0.50358,0.980405205,-0.032043375,0.11877411
1764767371.6187973,-4.4254,1.32762,-0.50358,0.980405205,-0.032043375,0.11877411
1764767371.6187973,-4.4254,1.32762,-0.50358,0.980405205,-0.032043375,0.11877411
1764767371.6187973,-4.4254,1.32762,-0.50358,0.980405205,-0.032043375,0.11877411
1764767371.6187973,-4.4254,1.32762,-0.50358,0.980405205,-0.032043375,0.11877411
1764767371.6187973,-4.4254,1.32762,-0.50358,0.980405205,-0.032043375,0.11877411
1764767371.6187973,-4.4254,1.32762,-0.50358,0.980405205,-0.032043375,0.11877411
1764767371.6187973,-4.4254,1.32762,-0.50358,0.980405205,-0.032043375,0.11877411
1764767371.6187973,-4.4254,1.32762,-0.50358,0.980405205,-0.032043375,0.11877411
1764767371.6187973,-4.4254,1.32762,-0.50358,0.980405205,-0.032043375,0.11877411
1764767371.6187973,-4.39488,0.9003399999999999,0.03052,0.98071038,-0.031188885,0.11889618
1764767371.6187973,-4.39488,0.9003399999999999,0.03052,0.98071038,-0.031188885,0.11889618
1764767371.6648774,-4.39488,0.9003399999999999,0.03052,0.98071038,-0.031188885,0.11889618
1764767371.6648774,-4.39488,0.9003399999999999,0.03052,0.98071038,-0.031188885,0.11889618
1764767371.6648774,-4.39488,0.9003399999999999,0.03052,0.98071038,-0.031188885,0.11889618
1764767371.6648774,-4.39488,0.9003399999999999,0.03052,0.98071038,-0.031188885,0.11889618
1764767371.6648774,-4.39488,0.9003399999999999,0.03052,0.98071038,-0.031188885,0.11889618
1764767371.6648774,-4.39488,0.9003399999999999,0.03052,0.98071038,-0.031188885,0.11889618
1764767371.6648774,-4.39488,0.9003399999999999,0.03052,0.98071038,-0.031188885,0.11889618
1764767371.6648774,-4.39488,0.9003399999999999,0.03052,0.98071038,-0.031188885,0.11889618
1764767371.6648774,-4.1965,1.26658,0.54936,0.97948968,-0.03124992,0.119201355
1764767371.6648774,-4.1965,1.26658,0.54936,0.97948968,-0.03124992,0.119201355
1764767371.665408,-4.1965,1.26658,0.54936,0.97948968,-0.03124992,0.119201355
1764767371.665408,-4.1965,1.26658,0.54936,0.97948968,-0.03124992,0.119201355
1764767371.665408,-4.1965,1.26658,0.54936,0.97948968,-0.03124992,0.119201355
1764767371.665408,-4.1965,1.26658,0.54936,0.97948968,-0.03124992,0.119201355
1764767371.665408,-4.1965,1.26658,0.54936,0.97948968,-0.03124992,0.119201355
1764767371.665408,-4.1965,1.26658,0.54936,0.97948968,-0.03124992,0.119201355
1764767371.665408,-4.1965,1.26658,0.54936,0.97948968,-0.03124992,0.119201355
1764767371.665408,-4.1965,1.26658,0.54936,0.97948968,-0.03124992,0.119201355
1764767371.665408,-4.18124,0.6409199999999999,0.9003399999999999,0.977963805,-0.03161613,0.11901825
1764767371.665408,-4.18124,0.6409199999999999,0.9003399999999999,0.977963805,-0.03161613,0.11901825
1764767371.665408,-4.18124,0.6409199999999999,0.9003399999999999,0.977963805,-0.03161613,0.11901825
1764767371.665408,-4.18124,0.6409199999999999,0.9003399999999999,0.977963805,-0.03161613,0.11901825
1764767371.665408,-4.18124,0.6409199999999999,0.9003399999999999,0.977963805,-0.03161613,0.11901825
1764767371.665408,-4.18124,0.6409199999999999,0.9003399999999999,0.977963805,-0.03161613,0.11901825
1764767371.7115052,-4.18124,0.6409199999999999,0.9003399999999999,0.977963805,-0.03161613,0.11901825
1764767371.7115052,-4.18124,0.6409199999999999,0.9003399999999999,0.977963805,-0.03161613,0.11901825
1764767371.7115052,-4.18124,0.6409199999999999,0.9003399999999999,0.977963805,-0.03161613,0.11901825
1764767371.7115052,-4.18124,0.6409199999999999,0.9003399999999999,0.977963805,-0.03161613,0.11901825
1764767371.7115052,-4.07442,0.94612,0.74774,0.97912347,-0.032409585,0.11938446
1764767371.7115052,-4.07442,0.94612,0.74774,0.97912347,-0.032409585,0.11938446
1764767371.7115052,-4.07442,0.94612,0.74774,0.97912347,-0.032409585,0.11938446
1764767371.7115052,-4.07442,0.94612,0.74774,0.97912347,-0.032409585,0.11938446
1764767371.712546,-4.07442,0.94612,0.74774,0.97912347,-0.032409585,0.11938446
1764767371.712546,-4.07442,0.94612,0.74774,0.97912347,-0.032409585,0.11938446
1764767371.712546,-4.07442,0.94612,0.74774,0.97912347,-0.032409585,0.11938446
1764767371.712546,-4.07442,0.94612,0.74774,0.97912347,-0.032409585,0.11938446
1764767371.712546,-4.07442,0.94612,0.74774,0.97912347,-0.032409585,0.11938446
1764767371.712546,-4.07442,0.94612,0.74774,0.97912347,-0.032409585,0.11938446
1764767371.7130637,-3.79974,0.77826,0.71722,0.97912347,-0.033874425,0.119201355
1764767371.7130637,-3.79974,0.77826,0.71722,0.97912347,-0.033874425,0.119201355
1764767371.7130637,-3.79974,0.77826,0.71722,0.97912347,-0.033874425,0.119201355
1764767371.7130637,-3.79974,0.77826,0.71722,0.97912347,-0.033874425,0.119201355
1764767371.7130637,-3.79974,0.77826,0.71722,0.97912347,-0.033874425,0.119201355
1764767371.7130637,-3.79974,0.77826,0.71722,0.97912347,-0.033874425,0.119201355
1764767371.7130637,-3.79974,0.77826,0.71722,0.97912347,-0.033874425,0.119201355
1764767371.7130637,-3.79974,0.77826,0.71722,0.97912347,-0.033874425,0.119201355
1764767371.7130637,-3.79974,0.77826,0.71722,0.97912347,-0.033874425,0.119201355
1764767371.7130637,-3.79974,0.77826,0.71722,0.97912347,-0.033874425,0.119201355
1764767371.7595055,-3.09778,0.48832,0.88508,0.97936761,-0.035095125,0.118957215
1764767371.7595055,-3.09778,0.48832,0.88508,0.97936761,-0.035095125,0.118957215
1764767371.7595055,-3.09778,0.48832,0.88508,0.97936761,-0.035095125,0.118957215
1764767371.7595055,-3.09778,0.48832,0.88508,0.97936761,-0.035095125,0.118957215
1764767371.7595055,-3.09778,0.48832,0.88508,0.97936761,-0.035095125,0.118957215
1764767371.7600114,-3.09778,0.48832,0.88508,0.97936761,-0.035095125,0.118957215
1764767371.7600114,-3.09778,0.48832,0.88508,0.97936761,-0.035095125,0.118957215
1764767371.7600114,-3.09778,0.48832,0.88508,0.97936761,-0.035095125,0.118957215
1764767371.7600114,-3.09778,0.48832,0.88508,0.97936761,-0.035095125,0.118957215
1764767371.7600114,-3.09778,0.48832,0.88508,0.97936761,-0.035095125,0.118957215
1764767371.7600114,-2.53316,0.10682,0.1525999999999999,0.980283135,-0.03491202,0.118468935
1764767371.7600114,-2.53316,0.10682,0.1525999999999999,0.980283135,-0.03491202,0.118468935
1764767371.7600114,-2.53316,0.10682,0.1525999999999999,0.980283135,-0.03491202,0.118468935
1764767371.7600114,-2.53316,0.10682,0.1525999999999999,0.980283135,-0.03491202,0.118468935
1764767371.7600114,-2.53316,0.10682,0.1525999999999999,0.980283135,-0.03491202,0.118468935
1764767371.7600114,-2.53316,0.10682,0.1525999999999999,0.980283135,-0.03491202,0.118468935
1764767371.7600114,-2.53316,0.10682,0.1525999999999999,0.980283135,-0.03491202,0.118468935
1764767371.7600114,-2.53316,0.10682,0.1525999999999999,0.980283135,-0.03491202,0.118468935
1764767371.7600114,-2.53316,0.10682,0.1525999999999999,0.980283135,-0.03491202,0.118468935
1764767371.7600114,-2.53316,0.10682,0.1525999999999999,0.980283135,-0.03491202,0.118468935
1764767371.7600114,-2.6705,1.1445,-0.24416,0.98168694,-0.03454581,0.118591005
1764767371.7600114,-2.6705,1.1445,-0.24416,0.98168694,-0.03454581,0.118591005
1764767371.7600114,-2.6705,1.1445,-0.24416,0.98168694,-0.03454581,0.118591005
1764767371.7600114,-2.6705,1.1445,-0.24416,0.98168694,-0.03454581,0.118591005
1764767371.8066742,-2.6705,1.1445,-0.24416,0.98168694,-0.03454581,0.118591005
1764767371.8066742,-2.6705,1.1445,-0.24416,0.98168694,-0.03454581,0.118591005
1764767371.8066742,-2.6705,1.1445,-0.24416,0.98168694,-0.03454581,0.118591005
1764767371.8066742,-2.6705,1.1445,-0.24416,0.98168694,-0.03454581,0.118591005
1764767371.8066742,-2.6705,1.1445,-0.24416,0.98168694,-0.03454581,0.118591005
1764767371.8066742,-2.6705,1.1445,-0.24416,0.98168694,-0.03454581,0.118591005
1764767371.8066742,-2.83836,1.43444,-0.13734,0.981381765,-0.032287515,0.118468935
1764767371.8066742,-2.83836,1.43444,-0.13734,0.981381765,-0.032287515,0.118468935
1764767371.8066742,-2.83836,1.43444,-0.13734,0.981381765,-0.032287515,0.118468935
1764767371.8066742,-2.83836,1.43444,-0.13734,0.981381765,-0.032287515,0.118468935
1764767371.8066742,-2.83836,1.43444,-0.13734,0.981381765,-0.032287515,0.118468935
1764767371.8066742,-2.83836,1.43444,-0.13734,0.981381765,-0.032287515,0.118468935
1764767371.8066742,-2.83836,1.43444,-0.13734,0.981381765,-0.032287515,0.118468935
1764767371.8066742,-2.83836,1.43444,-0.13734,0.981381765,-0.032287515,0.118468935
1764767371.8066742,-2.83836,1.43444,-0.13734,0.981381765,-0.032287515,0.118468935
1764767371.8066742,-2.83836,1.43444,-0.13734,0.981381765,-0.032287515,0.118468935
1764767371.8066742,-3.29616,1.2208,-0.93086,0.98010003,-0.030456465,0.118591005
1764767371.8066742,-3.29616,1.2208,-0.93086,0.98010003,-0.030456465,0.118591005
1764767371.8066742,-3.29616,1.2208,-0.93086,0.98010003,-0.030456465,0.118591005
1764767371.8066742,-3.29616,1.2208,-0.93086,0.98010003,-0.030456465,0.118591005
1764767371.8066742,-3.29616,1.2208,-0.93086,0.98010003,-0.030456465,0.118591005
1764767371.8066742,-3.29616,1.2208,-0.93086,0.98010003,-0.030456465,0.118591005
1764767371.8509488,-3.29616,1.2208,-0.93086,0.98010003,-0.030456465,0.118591005
1764767371.8509488,-3.29616,1.2208,-0.93086,0.98010003,-0.030456465,0.118591005
1764767371.8509488,-3.29616,1.2208,-0.93086,0.98010003,-0.030456465,0.118591005
1764767371.8509488,-3.29616,1.2208,-0.93086,0.98010003,-0.030456465,0.118591005
1764767371.8509488,-3.98286,1.25132,-1.02242,0.97924554,-0.02880852,0.11877411
1764767371.8509488,-3.98286,1.25132,-1.02242,0.97924554,-0.02880852,0.11877411
1764767371.8509488,-3.98286,1.25132,-1.02242,0.97924554,-0.02880852,0.11877411
1764767371.8509488,-3.98286,1.25132,-1.02242,0.97924554,-0.02880852,0.11877411
1764767371.8509488,-3.98286,1.25132,-1.02242,0.97924554,-0.02880852,0.11877411
1764767371.8509488,-3.98286,1.25132,-1.02242,0.97924554,-0.02880852,0.11877411
1764767371.8509488,-3.98286,1.25132,-1.02242,0.97924554,-0.02880852,0.11877411
1764767371.8509488,-3.98286,1.25132,-1.02242,0.97924554,-0.02880852,0.11877411
1764767371.8509488,-3.98286,1.25132,-1.02242,0.97924554,-0.02880852,0.11877411
1764767371.8509488,-3.98286,1.25132,-1.02242,0.97924554,-0.02880852,0.11877411
1764767371.8509488,-4.89846,0.82404,-0.0762999999999999,0.97765863,-0.027282645,0.118957215
1764767371.8509488,-4.89846,0.82404,-0.0762999999999999,0.97765863,-0.027282645,0.118957215
1764767371.8509488,-4.89846,0.82404,-0.0762999999999999,0.97765863,-0.027282645,0.118957215
1764767371.8509488,-4.89846,0.82404,-0.0762999999999999,0.97765863,-0.027282645,0.118957215
1764767371.8509488,-4.89846,0.82404,-0.0762999999999999,0.97765863,-0.027282645,0.118957215
1764767371.8509488,-4.89846,0.82404,-0.0762999999999999,0.97765863,-0.027282645,0.118957215
1764767371.8509488,-4.89846,0.82404,-0.0762999999999999,0.97765863,-0.027282645,0.118957215
1764767371.8509488,-4.89846,0.82404,-0.0762999999999999,0.97765863,-0.027282645,0.118957215
1764767371.8509488,-4.89846,0.82404,-0.0762999999999999,0.97765863,-0.027282645,0.118957215
1764767371.8509488,-4.89846,0.82404,-0.0762999999999999,0.97765863,-0.027282645,0.118957215
1764767371.897962,-5.00528,0.06104,1.31236,0.97765863,-0.027282645,0.11901825
1764767371.897962,-5.00528,0.06104,1.31236,0.97765863,-0.027282645,0.11901825
1764767371.897962,-5.00528,0.06104,1.31236,0.97765863,-0.027282645,0.11901825
1764767371.897962,-5.00528,0.06104,1.31236,0.97765863,-0.027282645,0.11901825
1764767371.897962,-5.00528,0.06104,1.31236,0.97765863,-0.027282645,0.11901825
1764767371.897962,-5.00528,0.06104,1.31236,0.97765863,-0.027282645,0.11901825
1764767371.897962,-5.00528,0.06104,1.31236,0.97765863,-0.027282645,0.11901825
1764767371.897962,-5.00528,0.06104,1.31236,0.97765863,-0.027282645,0.11901825
1764767371.897962,-5.00528,0.06104,1.31236,0.97765863,-0.027282645,0.11901825
1764767371.897962,-5.00528,0.06104,1.31236,0.97765863,-0.027282645,0.11901825
1764767371.8984864,-5.08158,0.0762999999999999,0.97664,0.97936761,-0.028381275,0.119323425
1764767371.8984864,-5.08158,0.0762999999999999,0.97664,0.97936761,-0.028381275,0.119323425
1764767371.8984864,-5.08158,0.0762999999999999,0.97664,0.97936761,-0.028381275,0.119323425
1764767371.8984864,-5.08158,0.0762999999999999,0.97664,0.97936761,-0.028381275,0.119323425
1764767371.8984864,-5.08158,0.0762999999999999,0.97664,0.97936761,-0.028381275,0.119323425
1764767371.8984864,-5.08158,0.0762999999999999,0.97664,0.97936761,-0.028381275,0.119323425
1764767371.8984864,-5.08158,0.0762999999999999,0.97664,0.97936761,-0.028381275,0.119323425
1764767371.8984864,-5.08158,0.0762999999999999,0.97664,0.97936761,-0.028381275,0.119323425
1764767371.8984864,-5.08158,0.0762999999999999,0.97664,0.97936761,-0.028381275,0.119323425
1764767371.8984864,-5.08158,0.0762999999999999,0.97664,0.97936761,-0.028381275,0.119323425
1764767371.8984864,-4.25754,0.03052,0.54936,0.9802221,-0.030090255,0.118835145
1764767371.8984864,-4.25754,0.03052,0.54936,0.9802221,-0.030090255,0.118835145
1764767371.9444451,-4.25754,0.03052,0.54936,0.9802221,-0.030090255,0.118835145
1764767371.9444451,-4.25754,0.03052,0.54936,0.9802221,-0.030090255,0.118835145
1764767371.9444451,-4.25754,0.03052,0.54936,0.9802221,-0.030090255,0.118835145
1764767371.9444451,-4.25754,0.03052,0.54936,0.9802221,-0.030090255,0.118835145
1764767371.9444451,-4.25754,0.03052,0.54936,0.9802221,-0.030090255,0.118835145
1764767371.9444451,-4.25754,0.03052,0.54936,0.9802221,-0.030090255,0.118835145
1764767371.9444451,-4.25754,0.03052,0.54936,0.9802221,-0.030090255,0.118835145
1764767371.9449568,-4.25754,0.03052,0.54936,0.9802221,-0.030090255,0.118835145
1764767371.9449568,-4.2728,-0.04578,0.6714399999999999,0.9802221,-0.031433025,0.11852997
1764767371.9449568,-4.2728,-0.04578,0.6714399999999999,0.9802221,-0.031433025,0.11852997
1764767371.9449568,-4.2728,-0.04578,0.6714399999999999,0.9802221,-0.031433025,0.11852997
1764767371.9449568,-4.2728,-0.04578,0.6714399999999999,0.9802221,-0.031433025,0.11852997
1764767371.9449568,-4.2728,-0.04578,0.6714399999999999,0.9802221,-0.031433025,0.11852997
1764767371.9449568,-4.2728,-0.04578,0.6714399999999999,0.9802221,-0.031433025,0.11852997
1764767371.9449568,-4.2728,-0.04578,0.6714399999999999,0.9802221,-0.031433025,0.11852997
1764767371.9449568,-4.2728,-0.04578,0.6714399999999999,0.9802221,-0.031433025,0.11852997
1764767371.9449568,-4.2728,-0.04578,0.6714399999999999,0.9802221,-0.031433025,0.11852997
1764767371.9449568,-4.2728,-0.04578,0.6714399999999999,0.9802221,-0.031433025,0.11852997
1764767371.9449568,-4.07442,-0.3357199999999999,0.6714399999999999,0.980527275,-0.031921305,0.11828583
1764767371.9449568,-4.07442,-0.3357199999999999,0.6714399999999999,0.980527275,-0.031921305,0.11828583
1764767371.9449568,-4.07442,-0.3357199999999999,0.6714399999999999,0.980527275,-0.031921305,0.11828583
1764767371.9449568,-4.07442,-0.3357199999999999,0.6714399999999999,0.980527275,-0.031921305,0.11828583
1764767371.9449568,-4.07442,-0.3357199999999999,0.6714399999999999,0.980527275,-0.031921305,0.11828583
1764767371.9449568,-4.07442,-0.3357199999999999,0.6714399999999999,0.980527275,-0.031921305,0.11828583
1764767371.9912312,-4.07442,-0.3357199999999999,0.6714399999999999,0.980527275,-0.031921305,0.11828583
1764767371.9912312,-4.07442,-0.3357199999999999,0.6714399999999999,0.980527275,-0.031921305,0.11828583
1764767371.9912312,-4.07442,-0.3357199999999999,0.6714399999999999,0.980527275,-0.031921305,0.11828583
1764767371.9912312,-4.07442,-0.3357199999999999,0.6714399999999999,0.980527275,-0.031921305,0.11828583
1764767371.9912312,-3.72344,-0.12208,0.3815,0.980038995,-0.03271476,0.11730927
1764767371.9912312,-3.72344,-0.12208,0.3815,0.980038995,-0.03271476,0.11730927
1764767371.9912312,-3.72344,-0.12208,0.3815,0.980038995,-0.03271476,0.11730927
1764767371.9912312,-3.72344,-0.12208,0.3815,0.980038995,-0.03271476,0.11730927
1764767371.9912312,-3.72344,-0.12208,0.3815,0.980038995,-0.03271476,0.11730927
1764767371.9912312,-3.72344,-0.12208,0.3815,0.980038995,-0.03271476,0.11730927
1764767371.9912312,-3.72344,-0.12208,0.3815,0.980038995,-0.03271476,0.11730927
1764767371.9912312,-3.72344,-0.12208,0.3815,0.980038995,-0.03271476,0.11730927
1764767371.9912312,-3.72344,-0.12208,0.3815,0.980038995,-0.03271476,0.11730927
1764767371.9917445,-3.72344,-0.12208,0.3815,0.980038995,-0.03271476,0.11730927
1764767371.9917445,-3.79974,-0.01526,0.3204599999999999,0.98058831,-0.032653725,0.11608857
1764767371.9917445,-3.79974,-0.01526,0.3204599999999999,0.98058831,-0.032653725,0.11608857
1764767371.9917445,-3.79974,-0.01526,0.3204599999999999,0.98058831,-0.032653725,0.11608857
1764767371.9917445,-3.79974,-0.01526,0.3204599999999999,0.98058831,-0.032653725,0.11608857
1764767371.9917445,-3.79974,-0.01526,0.3204599999999999,0.98058831,-0.032653725,0.11608857
1764767371.9917445,-3.79974,-0.01526,0.3204599999999999,0.98058831,-0.032653725,0.11608857
1764767371.9917445,-3.79974,-0.01526,0.3204599999999999,0.98058831,-0.032653725,0.11608857
1764767371.9917445,-3.79974,-0.01526,0.3204599999999999,0.98058831,-0.032653725,0.11608857
1764767372.0374055,-3.79974,-0.01526,0.3204599999999999,0.98058831,-0.032653725,0.11608857
1764767372.0374055,-3.79974,-0.01526,0.3204599999999999,0.98058831,-0.032653725,0.11608857
1764767372.0374055,-3.52506,0.6714399999999999,1.03768,0.98119866,-0.03308097,0.115417185
1764767372.0374055,-3.52506,0.6714399999999999,1.03768,0.98119866,-0.03308097,0.115417185
1764767372.0374055,-3.52506,0.6714399999999999,1.03768,0.98119866,-0.03308097,0.115417185
1764767372.0374055,-3.52506,0.6714399999999999,1.03768,0.98119866,-0.03308097,0.115417185
1764767372.0374055,-3.52506,0.6714399999999999,1.03768,0.98119866,-0.03308097,0.115417185
1764767372.0374055,-3.52506,0.6714399999999999,1.03768,0.98119866,-0.03308097,0.115417185
1764767372.0374055,-3.52506,0.6714399999999999,1.03768,0.98119866,-0.03308097,0.115417185
1764767372.0374055,-3.52506,0.6714399999999999,1.03768,0.98119866,-0.03308097,0.115417185
1764767372.0374055,-3.52506,0.6714399999999999,1.03768,0.98119866,-0.03308097,0.115417185
1764767372.0374055,-3.52506,0.6714399999999999,1.03768,0.98119866,-0.03308097,0.115417185
1764767372.0374055,-3.31142,0.9156,0.8392999999999999,0.98058831,-0.03369132,0.11498994
1764767372.0374055,-3.31142,0.9156,0.8392999999999999,0.98058831,-0.03369132,0.11498994
1764767372.0374055,-3.31142,0.9156,0.8392999999999999,0.98058831,-0.03369132,0.11498994
1764767372.0374055,-3.31142,0.9156,0.8392999999999999,0.98058831,-0.03369132,0.11498994
1764767372.0379312,-3.31142,0.9156,0.8392999999999999,0.98058831,-0.03369132,0.11498994
1764767372.0379312,-3.31142,0.9156,0.8392999999999999,0.98058831,-0.03369132,0.11498994
1764767372.0379312,-3.31142,0.9156,0.8392999999999999,0.98058831,-0.03369132,0.11498994
1764767372.0379312,-3.31142,0.9156,0.8392999999999999,0.98058831,-0.03369132,0.11498994
1764767372.0379312,-3.31142,0.9156,0.8392999999999999,0.98058831,-0.03369132,0.11498994
1764767372.0379312,-3.31142,0.9156,0.8392999999999999,0.98058831,-0.03369132,0.11498994
1764767372.0379312,-3.44876,0.50358,0.82404,0.979794855,-0.033996495,0.115295115
1764767372.0379312,-3.44876,0.50358,0.82404,0.979794855,-0.033996495,0.115295115
1764767372.0836742,-3.44876,0.50358,0.82404,0.979794855,-0.033996495,0.115295115
1764767372.0836742,-3.44876,0.50358,0.82404,0.979794855,-0.033996495,0.115295115
1764767372.0836742,-3.44876,0.50358,0.82404,0.979794855,-0.033996495,0.115295115
1764767372.0836742,-3.44876,0.50358,0.82404,0.979794855,-0.033996495,0.115295115
1764767372.0836742,-3.44876,0.50358,0.82404,0.979794855,-0.033996495,0.115295115
1764767372.0836742,-3.44876,0.50358,0.82404,0.979794855,-0.033996495,0.115295115
1764767372.0836742,-3.44876,0.50358,0.82404,0.979794855,-0.033996495,0.115295115
1764767372.0836742,-3.44876,0.50358,0.82404,0.979794855,-0.033996495,0.115295115
1764767372.0836742,-3.1283,0.48832,0.74774,0.97973382,-0.03320304,0.11511201
1764767372.0836742,-3.1283,0.48832,0.74774,0.97973382,-0.03320304,0.11511201
1764767372.0836742,-3.1283,0.48832,0.74774,0.97973382,-0.03320304,0.11511201
1764767372.0836742,-3.1283,0.48832,0.74774,0.97973382,-0.03320304,0.11511201
1764767372.0836742,-3.1283,0.48832,0.74774,0.97973382,-0.03320304,0.11511201
1764767372.0836742,-3.1283,0.48832,0.74774,0.97973382,-0.03320304,0.11511201
1764767372.0836742,-3.1283,0.48832,0.74774,0.97973382,-0.03320304,0.11511201
1764767372.0836742,-3.1283,0.48832,0.74774,0.97973382,-0.03320304,0.11511201
1764767372.0836742,-3.1283,0.48832,0.74774,0.97973382,-0.03320304,0.11511201
1764767372.0836742,-3.1283,0.48832,0.74774,0.97973382,-0.03320304,0.11511201
1764767372.0836742,-3.69292,0.6714399999999999,0.3509799999999999,0.980527275,-0.03283683,0.11584443
1764767372.0851932,-3.69292,0.6714399999999999,0.3509799999999999,0.980527275,-0.03283683,0.11584443
1764767372.0851932,-3.69292,0.6714399999999999,0.3509799999999999,0.980527275,-0.03283683,0.11584443
1764767372.0851932,-3.69292,0.6714399999999999,0.3509799999999999,0.980527275,-0.03283683,0.11584443
1764767372.1316016,-3.69292,0.6714399999999999,0.3509799999999999,0.980527275,-0.03283683,0.11584443
1764767372.1316016,-3.69292,0.6714399999999999,0.3509799999999999,0.980527275,-0.03283683,0.11584443
1764767372.1316016,-3.69292,0.6714399999999999,0.3509799999999999,0.980527275,-0.03283683,0.11584443
1764767372.1316016,-3.69292,0.6714399999999999,0.3509799999999999,0.980527275,-0.03283683,0.11584443
1764767372.1316016,-3.69292,0.6714399999999999,0.3509799999999999,0.980527275,-0.03283683,0.11584443
1764767372.1316016,-3.69292,0.6714399999999999,0.3509799999999999,0.980527275,-0.03283683,0.11584443
1764767372.1316016,-3.84552,1.23606,0.04578,0.98095452,-0.03186027,0.115295115
1764767372.1316016,-3.84552,1.23606,0.04578,0.98095452,-0.03186027,0.115295115
1764767372.1316016,-3.84552,1.23606,0.04578,0.98095452,-0.03186027,0.115295115
1764767372.1316016,-3.84552,1.23606,0.04578,0.98095452,-0.03186027,0.115295115
1764767372.1316016,-3.84552,1.23606,0.04578,0.98095452,-0.03186027,0.115295115
1764767372.1316016,-3.84552,1.23606,0.04578,0.98095452,-0.03186027,0.115295115
1764767372.1316016,-3.84552,1.23606,0.04578,0.98095452,-0.03186027,0.115295115
1764767372.1316016,-3.84552,1.23606,0.04578,0.98095452,-0.03186027,0.115295115
1764767372.1316016,-3.84552,1.23606,0.04578,0.98095452,-0.03186027,0.115295115
1764767372.1316016,-3.84552,1.23606,0.04578,0.98095452,-0.03186027,0.115295115
1764767372.1316016,-3.93708,1.49548,-0.36624,0.981992115,-0.031310955,0.115417185
1764767372.1316016,-3.93708,1.49548,-0.36624,0.981992115,-0.031310955,0.115417185
1764767372.1316016,-3.93708,1.49548,-0.36624,0.981992115,-0.031310955,0.115417185
1764767372.1316016,-3.93708,1.49548,-0.36624,0.981992115,-0.031310955,0.115417185
1764767372.1316016,-3.93708,1.49548,-0.36624,0.981992115,-0.031310955,0.115417185
1764767372.1316016,-3.93708,1.49548,-0.36624,0.981992115,-0.031310955,0.115417185
1764767372.1316016,-3.93708,1.49548,-0.36624,0.981992115,-0.031310955,0.115417185
1764767372.1316016,-3.93708,1.49548,-0.36624,0.981992115,-0.031310955,0.115417185
1764767372.1316016,-3.93708,1.49548,-0.36624,0.981992115,-0.031310955,0.115417185
1764767372.1316016,-3.93708,1.49548,-0.36624,0.981992115,-0.031310955,0.115417185
1764767372.1786797,-3.79974,1.64808,-0.6409199999999999,0.981137625,-0.030212325,0.11584443
1764767372.1786797,-3.79974,1.64808,-0.6409199999999999,0.981137625,-0.030212325,0.11584443
1764767372.1791923,-3.79974,1.64808,-0.6409199999999999,0.981137625,-0.030212325,0.11584443
1764767372.1791923,-3.79974,1.64808,-0.6409199999999999,0.981137625,-0.030212325,0.11584443
1764767372.1791923,-3.79974,1.64808,-0.6409199999999999,0.981137625,-0.030212325,0.11584443
1764767372.1791923,-3.79974,1.64808,-0.6409199999999999,0.981137625,-0.030212325,0.11584443
1764767372.1791923,-3.79974,1.64808,-0.6409199999999999,0.981137625,-0.030212325,0.11584443
1764767372.1791923,-3.79974,1.64808,-0.6409199999999999,0.981137625,-0.030212325,0.11584443
1764767372.1791923,-3.79974,1.64808,-0.6409199999999999,0.981137625,-0.030212325,0.11584443
1764767372.1791923,-3.79974,1.64808,-0.6409199999999999,0.981137625,-0.030212325,0.11584443
1764767372.1791923,-4.1202,1.6022999999999998,-0.1525999999999999,0.980771415,-0.030334395,0.11682099
1764767372.1791923,-4.1202,1.6022999999999998,-0.1525999999999999,0.980771415,-0.030334395,0.11682099
1764767372.1791923,-4.1202,1.6022999999999998,-0.1525999999999999,0.980771415,-0.030334395,0.11682099
1764767372.1791923,-4.1202,1.6022999999999998,-0.1525999999999999,0.980771415,-0.030334395,0.11682099
1764767372.1791923,-4.1202,1.6022999999999998,-0.1525999999999999,0.980771415,-0.030334395,0.11682099
1764767372.1791923,-4.1202,1.6022999999999998,-0.1525999999999999,0.980771415,-0.030334395,0.11682099
1764767372.1791923,-4.1202,1.6022999999999998,-0.1525999999999999,0.980771415,-0.030334395,0.11682099
1764767372.1791923,-4.1202,1.6022999999999998,-0.1525999999999999,0.980771415,-0.030334395,0.11682099
1764767372.1791923,-4.1202,1.6022999999999998,-0.1525999999999999,0.980771415,-0.030334395,0.11682099
1764767372.1791923,-4.1202,1.6022999999999998,-0.1525999999999999,0.980771415,-0.030334395,0.11682099
1764767372.1791923,-3.67766,1.00716,0.48832,0.97961175,-0.030334395,0.11767548
1764767372.1791923,-3.67766,1.00716,0.48832,0.97961175,-0.030334395,0.11767548
1764767372.2255282,-3.67766,1.00716,0.48832,0.97961175,-0.030334395,0.11767548
1764767372.2255282,-3.67766,1.00716,0.48832,0.97961175,-0.030334395,0.11767548
1764767372.2255282,-3.67766,1.00716,0.48832,0.97961175,-0.030334395,0.11767548
1764767372.2255282,-3.67766,1.00716,0.48832,0.97961175,-0.030334395,0.11767548
1764767372.2255282,-3.67766,1.00716,0.48832,0.97961175,-0.030334395,0.11767548
1764767372.2255282,-3.67766,1.00716,0.48832,0.97961175,-0.030334395,0.11767548
1764767372.2255282,-3.67766,1.00716,0.48832,0.97961175,-0.030334395,0.11767548
1764767372.2255282,-3.67766,1.00716,0.48832,0.97961175,-0.030334395,0.11767548
1764767372.2255282,-3.40298,0.94612,0.93086,0.978452085,-0.030456465,0.118591005
1764767372.2255282,-3.40298,0.94612,0.93086,0.978452085,-0.030456465,0.118591005
1764767372.2255282,-3.40298,0.94612,0.93086,0.978452085,-0.030456465,0.118591005
1764767372.2255282,-3.40298,0.94612,0.93086,0.978452085,-0.030456465,0.118591005
1764767372.2255282,-3.40298,0.94612,0.93086,0.978452085,-0.030456465,0.118591005
1764767372.2255282,-3.40298,0.94612,0.93086,0.978452085,-0.030456465,0.118591005
1764767372.2255282,-3.40298,0.94612,0.93086,0.978452085,-0.030456465,0.118591005
1764767372.2255282,-3.40298,0.94612,0.93086,0.978452085,-0.030456465,0.118591005
1764767372.2255282,-3.40298,0.94612,0.93086,0.978452085,-0.030456465,0.118591005
1764767372.2255282,-3.40298,0.94612,0.93086,0.978452085,-0.030456465,0.118591005
1764767372.2255282,-3.31142,1.12924,-0.12208,0.97924554,-0.03039543,0.118835145
1764767372.2255282,-3.31142,1.12924,-0.12208,0.97924554,-0.03039543,0.118835145
1764767372.2255282,-3.31142,1.12924,-0.12208,0.97924554,-0.03039543,0.118835145
1764767372.2255282,-3.31142,1.12924,-0.12208,0.97924554,-0.03039543,0.118835145
1764767372.2255282,-3.31142,1.12924,-0.12208,0.97924554,-0.03039543,0.118835145
1764767372.2255282,-3.31142,1.12924,-0.12208,0.97924554,-0.03039543,0.118835145
1764767372.2703266,-3.31142,1.12924,-0.12208,0.97924554,-0.03039543,0.118835145
1764767372.2703266,-3.31142,1.12924,-0.12208,0.97924554,-0.03039543,0.118835145
1764767372.2703266,-3.31142,1.12924,-0.12208,0.97924554,-0.03039543,0.118835145
1764767372.2703266,-3.31142,1.12924,-0.12208,0.97924554,-0.03039543,0.118835145
1764767372.2703266,-3.7387,1.31236,-0.36624,0.980283135,-0.02954094,0.11816376
1764767372.2703266,-3.7387,1.31236,-0.36624,0.980283135,-0.02954094,0.11816376
1764767372.2703266,-3.7387,1.31236,-0.36624,0.980283135,-0.02954094,0.11816376
1764767372.2703266,-3.7387,1.31236,-0.36624,0.980283135,-0.02954094,0.11816376
1764767372.2703266,-3.7387,1.31236,-0.36624,0.980283135,-0.02954094,0.11816376
1764767372.2703266,-3.7387,1.31236,-0.36624,0.980283135,-0.02954094,0.11816376
1764767372.2703266,-3.7387,1.31236,-0.36624,0.980283135,-0.02954094,0.11816376
1764767372.2703266,-3.7387,1.31236,-0.36624,0.980283135,-0.02954094,0.11816376
1764767372.2703266,-3.7387,1.31236,-0.36624,0.980283135,-0.02954094,0.11816376
1764767372.2703266,-3.7387,1.31236,-0.36624,0.980283135,-0.02954094,0.11816376
1764767372.2703266,-4.24228,1.0682,-0.54936,0.980649345,-0.0280761,0.11791962
1764767372.2703266,-4.24228,1.0682,-0.54936,0.980649345,-0.0280761,0.11791962
1764767372.2703266,-4.24228,1.0682,-0.54936,0.980649345,-0.0280761,0.11791962
1764767372.2703266,-4.24228,1.0682,-0.54936,0.980649345,-0.0280761,0.11791962
1764767372.2703266,-4.24228,1.0682,-0.54936,0.980649345,-0.0280761,0.11791962
1764767372.2703266,-4.24228,1.0682,-0.54936,0.980649345,-0.0280761,0.11791962
1764767372.2703266,-4.24228,1.0682,-0.54936,0.980649345,-0.0280761,0.11791962
1764767372.2703266,-4.24228,1.0682,-0.54936,0.980649345,-0.0280761,0.11791962
1764767372.2703266,-4.24228,1.0682,-0.54936,0.980649345,-0.0280761,0.11791962
1764767372.2703266,-4.24228,1.0682,-0.54936,0.980649345,-0.0280761,0.11791962
1764767372.3168192,-4.6543,1.38866,-0.25942,0.9802221,-0.027404715,0.118346865
1764767372.3168192,-4.6543,1.38866,-0.25942,0.9802221,-0.027404715,0.118346865
1764767372.3168192,-4.6543,1.38866,-0.25942,0.9802221,-0.027404715,0.118346865
1764767372.3168192,-4.6543,1.38866,-0.25942,0.9802221,-0.027404715,0.118346865
1764767372.3168192,-4.6543,1.38866,-0.25942,0.9802221,-0.027404715,0.118346865
1764767372.3168192,-4.6543,1.38866,-0.25942,0.9802221,-0.027404715,0.118346865
1764767372.3168192,-4.6543,1.38866,-0.25942,0.9802221,-0.027404715,0.118346865
1764767372.3168192,-4.6543,1.38866,-0.25942,0.9802221,-0.027404715,0.118346865
1764767372.3168192,-4.6543,1.38866,-0.25942,0.9802221,-0.027404715,0.118346865
1764767372.3168192,-4.6543,1.38866,-0.25942,0.9802221,-0.027404715,0.118346865
1764767372.3168192,-5.06632,0.85456,0.0,0.979428645,-0.026916435,0.118224795
1764767372.3168192,-5.06632,0.85456,0.0,0.979428645,-0.026916435,0.118224795
1764767372.3168192,-5.06632,0.85456,0.0,0.979428645,-0.026916435,0.118224795
1764767372.3168192,-5.06632,0.85456,0.0,0.979428645,-0.026916435,0.118224795
1764767372.3168192,-5.06632,0.85456,0.0,0.979428645,-0.026916435,0.118224795
1764767372.3168192,-5.06632,0.85456,0.0,0.979428645,-0.026916435,0.118224795
1764767372.3168192,-5.06632,0.85456,0.0,0.979428645,-0.026916435,0.118224795
1764767372.3168192,-5.06632,0.85456,0.0,0.979428645,-0.026916435,0.118224795
1764767372.3168192,-5.06632,0.85456,0.0,0.979428645,-0.026916435,0.118224795
1764767372.3168192,-5.06632,0.85456,0.0,0.979428645,-0.026916435,0.118224795
1764767372.3168192,-5.06632,0.7019599999999999,0.41202,0.979306575,-0.0268554,0.118591005
1764767372.3168192,-5.06632,0.7019599999999999,0.41202,0.979306575,-0.0268554,0.118591005
1764767372.364162,-5.06632,0.7019599999999999,0.41202,0.979306575,-0.0268554,0.118591005
1764767372.364162,-5.06632,0.7019599999999999,0.41202,0.979306575,-0.0268554,0.118591005
1764767372.364162,-5.06632,0.7019599999999999,0.41202,0.979306575,-0.0268554,0.118591005
1764767372.364162,-5.06632,0.7019599999999999,0.41202,0.979306575,-0.0268554,0.118591005
1764767372.364162,-5.06632,0.7019599999999999,0.41202,0.979306575,-0.0268554,0.118591005
1764767372.364162,-5.06632,0.7019599999999999,0.41202,0.979306575,-0.0268554,0.118591005
1764767372.364162,-5.06632,0.7019599999999999,0.41202,0.979306575,-0.0268554,0.118591005
1764767372.364162,-5.06632,0.7019599999999999,0.41202,0.979306575,-0.0268554,0.118591005
1764767372.364162,-4.18124,0.6867,0.8698199999999999,0.979306575,-0.02770989,0.11816376
1764767372.364162,-4.18124,0.6867,0.8698199999999999,0.979306575,-0.02770989,0.11816376
1764767372.364162,-4.18124,0.6867,0.8698199999999999,0.979306575,-0.02770989,0.11816376
1764767372.364162,-4.18124,0.6867,0.8698199999999999,0.979306575,-0.02770989,0.11816376
1764767372.364162,-4.18124,0.6867,0.8698199999999999,0.979306575,-0.02770989,0.11816376
1764767372.364162,-4.18124,0.6867,0.8698199999999999,0.979306575,-0.02770989,0.11816376
1764767372.364162,-4.18124,0.6867,0.8698199999999999,0.979306575,-0.02770989,0.11816376
1764767372.364162,-4.18124,0.6867,0.8698199999999999,0.979306575,-0.02770989,0.11816376
1764767372.364162,-4.18124,0.6867,0.8698199999999999,0.979306575,-0.02770989,0.11816376
1764767372.364162,-4.18124,0.6867,0.8698199999999999,0.979306575,-0.02770989,0.11816376
1764767372.364162,-3.86078,0.93086,1.54126,0.979306575,-0.028869555,0.11755341
1764767372.364162,-3.86078,0.93086,1.54126,0.979306575,-0.028869555,0.11755341
1764767372.364162,-3.86078,0.93086,1.54126,0.979306575,-0.028869555,0.11755341
1764767372.364162,-3.86078,0.93086,1.54126,0.979306575,-0.028869555,0.11755341
1764767372.4104257,-3.86078,0.93086,1.54126,0.979306575,-0.028869555,0.11755341
1764767372.4104257,-3.86078,0.93086,1.54126,0.979306575,-0.028869555,0.11755341
1764767372.4104257,-3.86078,0.93086,1.54126,0.979306575,-0.028869555,0.11755341
1764767372.4104257,-3.86078,0.93086,1.54126,0.979306575,-0.028869555,0.11755341
1764767372.4104257,-3.86078,0.93086,1.54126,0.979306575,-0.028869555,0.11755341
1764767372.4104257,-3.86078,0.93086,1.54126,0.979306575,-0.028869555,0.11755341
1764767372.4104257,-3.5861,1.05294,1.6633399999999998,0.9790014,-0.029235765,0.117004095
1764767372.4104257,-3.5861,1.05294,1.6633399999999998,0.9790014,-0.029235765,0.117004095
1764767372.4104257,-3.5861,1.05294,1.6633399999999998,0.9790014,-0.029235765,0.117004095
1764767372.4104257,-3.5861,1.05294,1.6633399999999998,0.9790014,-0.029235765,0.117004095
1764767372.4104257,-3.5861,1.05294,1.6633399999999998,0.9790014,-0.029235765,0.117004095
1764767372.4104257,-3.5861,1.05294,1.6633399999999998,0.9790014,-0.029235765,0.117004095
1764767372.4104257,-3.5861,1.05294,1.6633399999999998,0.9790014,-0.029235765,0.117004095
1764767372.4104257,-3.5861,1.05294,1.6633399999999998,0.9790014,-0.029235765,0.117004095
1764767372.4104257,-3.5861,1.05294,1.6633399999999998,0.9790014,-0.029235765,0.117004095
1764767372.4104257,-3.5861,1.05294,1.6633399999999998,0.9790014,-0.029235765,0.117004095
1764767372.4109442,-3.23512,1.526,1.61756,0.979428645,-0.030090255,0.116637885
1764767372.4109442,-3.23512,1.526,1.61756,0.979428645,-0.030090255,0.116637885
1764767372.4109442,-3.23512,1.526,1.61756,0.979428645,-0.030090255,0.116637885
1764767372.4109442,-3.23512,1.526,1.61756,0.979428645,-0.030090255,0.116637885
1764767372.4109442,-3.23512,1.526,1.61756,0.979428645,-0.030090255,0.116637885
1764767372.4109442,-3.23512,1.526,1.61756,0.979428645,-0.030090255,0.116637885
1764767372.4109442,-3.23512,1.526,1.61756,0.979428645,-0.030090255,0.116637885
1764767372.4109442,-3.23512,1.526,1.61756,0.979428645,-0.030090255,0.116637885
1764767372.4571283,-3.23512,1.526,1.61756,0.979428645,-0.030090255,0.116637885
1764767372.4571283,-3.23512,1.526,1.61756,0.979428645,-0.030090255,0.116637885
1764767372.4576454,-2.85362,1.8006799999999998,1.28184,0.98010003,-0.030334395,0.116393745
1764767372.4576454,-2.85362,1.8006799999999998,1.28184,0.98010003,-0.030334395,0.116393745
1764767372.4576454,-2.85362,1.8006799999999998,1.28184,0.98010003,-0.030334395,0.116393745
1764767372.4576454,-2.85362,1.8006799999999998,1.28184,0.98010003,-0.030334395,0.116393745
1764767372.4576454,-2.85362,1.8006799999999998,1.28184,0.98010003,-0.030334395,0.116393745
1764767372.4576454,-2.85362,1.8006799999999998,1.28184,0.98010003,-0.030334395,0.116393745
1764767372.4576454,-2.85362,1.8006799999999998,1.28184,0.98010003,-0.030334395,0.116393745
1764767372.4576454,-2.85362,1.8006799999999998,1.28184,0.98010003,-0.030334395,0.116393745
1764767372.4576454,-2.85362,1.8006799999999998,1.28184,0.98010003,-0.030334395,0.116393745
1764767372.4576454,-2.85362,1.8006799999999998,1.28184,0.98010003,-0.030334395,0.116393745
1764767372.4576454,-3.18934,1.6786,1.12924,0.98010003,-0.030700605,0.116882025
1764767372.4576454,-3.18934,1.6786,1.12924,0.98010003,-0.030700605,0.116882025
1764767372.4576454,-3.18934,1.6786,1.12924,0.98010003,-0.030700605,0.116882025
1764767372.4576454,-3.18934,1.6786,1.12924,0.98010003,-0.030700605,0.116882025
1764767372.4586627,-3.18934,1.6786,1.12924,0.98010003,-0.030700605,0.116882025
1764767372.4586627,-3.18934,1.6786,1.12924,0.98010003,-0.030700605,0.116882025
1764767372.4586627,-3.18934,1.6786,1.12924,0.98010003,-0.030700605,0.116882025
1764767372.4586627,-3.18934,1.6786,1.12924,0.98010003,-0.030700605,0.116882025
1764767372.4586627,-3.18934,1.6786,1.12924,0.98010003,-0.030700605,0.116882025
1764767372.4586627,-3.18934,1.6786,1.12924,0.98010003,-0.030700605,0.116882025
1764767372.4586627,-3.2809,1.41918,1.35814,0.979916925,-0.03076164,0.11657685
1764767372.4586627,-3.2809,1.41918,1.35814,0.979916925,-0.03076164,0.11657685
1764767372.4586627,-3.2809,1.41918,1.35814,0.979916925,-0.03076164,0.11657685
1764767372.4586627,-3.2809,1.41918,1.35814,0.979916925,-0.03076164,0.11657685
1764767372.5073776,-3.2809,1.41918,1.35814,0.979916925,-0.03076164,0.11657685
1764767372.5073776,-3.2809,1.41918,1.35814,0.979916925,-0.03076164,0.11657685
1764767372.5073776,-3.2809,1.41918,1.35814,0.979916925,-0.03076164,0.11657685
1764767372.5073776,-3.2809,1.41918,1.35814,0.979916925,-0.03076164,0.11657685
1764767372.5073776,-3.2809,1.41918,1.35814,0.979916925,-0.03076164,0.11657685
1764767372.5073776,-3.2809,1.41918,1.35814,0.979916925,-0.03076164,0.11657685
1764767372.5073776,-3.44876,1.2971,1.32762,0.979916925,-0.02966301,0.117370305
1764767372.5073776,-3.44876,1.2971,1.32762,0.979916925,-0.02966301,0.117370305
1764767372.5073776,-3.44876,1.2971,1.32762,0.979916925,-0.02966301,0.117370305
1764767372.5073776,-3.44876,1.2971,1.32762,0.979916925,-0.02966301,0.117370305
1764767372.5073776,-3.44876,1.2971,1.32762,0.979916925,-0.02966301,0.117370305
1764767372.5073776,-3.44876,1.2971,1.32762,0.979916925,-0.02966301,0.117370305
1764767372.5073776,-3.44876,1.2971,1.32762,0.979916925,-0.02966301,0.117370305
1764767372.5073776,-3.44876,1.2971,1.32762,0.979916925,-0.02966301,0.117370305
1764767372.5073776,-3.44876,1.2971,1.32762,0.979916925,-0.02966301,0.117370305
1764767372.5073776,-3.44876,1.2971,1.32762,0.979916925,-0.02966301,0.117370305
1764767372.5073776,-3.98286,1.48022,1.63282,0.97985589,-0.02941887,0.117248235
1764767372.5073776,-3.98286,1.48022,1.63282,0.97985589,-0.02941887,0.117248235
1764767372.5073776,-3.98286,1.48022,1.63282,0.97985589,-0.02941887,0.117248235
1764767372.5073776,-3.98286,1.48022,1.63282,0.97985589,-0.02941887,0.117248235
1764767372.5073776,-3.98286,1.48022,1.63282,0.97985589,-0.02941887,0.117248235
1764767372.5078678,-3.98286,1.48022,1.63282,0.97985589,-0.02941887,0.117248235
1764767372.5078678,-3.98286,1.48022,1.63282,0.97985589,-0.02941887,0.117248235
1764767372.5078678,-3.98286,1.48022,1.63282,0.97985589,-0.02941887,0.117248235
1764767372.5503223,-3.98286,1.48022,1.63282,0.97985589,-0.02941887,0.117248235
1764767372.5503223,-3.98286,1.48022,1.63282,0.97985589,-0.02941887,0.117248235
1764767372.5503223,-3.95234,1.2208,1.38866,0.9790014,-0.02941887,0.11779755
1764767372.5503223,-3.95234,1.2208,1.38866,0.9790014,-0.02941887,0.11779755
1764767372.5503223,-3.95234,1.2208,1.38866,0.9790014,-0.02941887,0.11779755
1764767372.5503223,-3.95234,1.2208,1.38866,0.9790014,-0.02941887,0.11779755
1764767372.5503223,-3.95234,1.2208,1.38866,0.9790014,-0.02941887,0.11779755
1764767372.5503223,-3.95234,1.2208,1.38866,0.9790014,-0.02941887,0.11779755
1764767372.5503223,-3.95234,1.2208,1.38866,0.9790014,-0.02941887,0.11779755
1764767372.5503223,-3.95234,1.2208,1.38866,0.9790014,-0.02941887,0.11779755
1764767372.5503223,-3.95234,1.2208,1.38866,0.9790014,-0.02941887,0.11779755
1764767372.5503223,-3.95234,1.2208,1.38866,0.9790014,-0.02941887,0.11779755
1764767372.5503223,-4.059159999999999,1.48022,1.38866,0.97973382,-0.0305175,0.117614445
1764767372.5503223,-4.059159999999999,1.48022,1.38866,0.97973382,-0.0305175,0.117614445
1764767372.5503223,-4.059159999999999,1.48022,1.38866,0.97973382,-0.0305175,0.117614445
1764767372.5503223,-4.059159999999999,1.48022,1.38866,0.97973382,-0.0305175,0.117614445
1764767372.5503223,-4.059159999999999,1.48022,1.38866,0.97973382,-0.0305175,0.117614445
1764767372.5503223,-4.059159999999999,1.48022,1.38866,0.97973382,-0.0305175,0.117614445
1764767372.5503223,-4.059159999999999,1.48022,1.38866,0.97973382,-0.0305175,0.117614445
1764767372.5503223,-4.059159999999999,1.48022,1.38866,0.97973382,-0.0305175,0.117614445
1764767372.5967083,-4.059159999999999,1.48022,1.38866,0.97973382,-0.0305175,0.117614445
1764767372.5967083,-4.059159999999999,1.48022,1.38866,0.97973382,-0.0305175,0.117614445
1764767372.5967083,-3.5098,1.57178,1.1445,0.9802221,-0.031188885,0.11791962
1764767372.5967083,-3.5098,1.57178,1.1445,0.9802221,-0.031188885,0.11791962
1764767372.5967083,-3.5098,1.57178,1.1445,0.9802221,-0.031188885,0.11791962
1764767372.5967083,-3.5098,1.57178,1.1445,0.9802221,-0.031188885,0.11791962
1764767372.5967083,-3.5098,1.57178,1.1445,0.9802221,-0.031188885,0.11791962
1764767372.5967083,-3.5098,1.57178,1.1445,0.9802221,-0.031188885,0.11791962
1764767372.5967083,-3.5098,1.57178,1.1445,0.9802221,-0.031188885,0.11791962
1764767372.5967083,-3.5098,1.57178,1.1445,0.9802221,-0.031188885,0.11791962
1764767372.5967083,-3.5098,1.57178,1.1445,0.9802221,-0.031188885,0.11791962
1764767372.5967083,-3.5098,1.57178,1.1445,0.9802221,-0.031188885,0.11791962
1764767372.5967083,-3.70818,1.02242,1.23606,0.97973382,-0.03222648,0.11779755
1764767372.5967083,-3.70818,1.02242,1.23606,0.97973382,-0.03222648,0.11779755
1764767372.5967083,-3.70818,1.02242,1.23606,0.97973382,-0.03222648,0.11779755
1764767372.5967083,-3.70818,1.02242,1.23606,0.97973382,-0.03222648,0.11779755
1764767372.5967083,-3.70818,1.02242,1.23606,0.97973382,-0.03222648,0.11779755
1764767372.5967083,-3.70818,1.02242,1.23606,0.97973382,-0.03222648,0.11779755
1764767372.5967083,-3.70818,1.02242,1.23606,0.97973382,-0.03222648,0.11779755
1764767372.5967083,-3.70818,1.02242,1.23606,0.97973382,-0.03222648,0.11779755
1764767372.5977342,-3.70818,1.02242,1.23606,0.97973382,-0.03222648,0.11779755
1764767372.5977342,-3.70818,1.02242,1.23606,0.97973382,-0.03222648,0.11779755
1764767372.5977342,-3.2809,0.9003399999999999,1.84646,0.97814691,-0.032165445,0.118102725
1764767372.5977342,-3.2809,0.9003399999999999,1.84646,0.97814691,-0.032165445,0.118102725
1764767372.643396,-3.2809,0.9003399999999999,1.84646,0.97814691,-0.032165445,0.118102725
1764767372.643396,-3.2809,0.9003399999999999,1.84646,0.97814691,-0.032165445,0.118102725
1764767372.643396,-3.2809,0.9003399999999999,1.84646,0.97814691,-0.032165445,0.118102725
1764767372.643396,-3.2809,0.9003399999999999,1.84646,0.97814691,-0.032165445,0.118102725
1764767372.643396,-3.2809,0.9003399999999999,1.84646,0.97814691,-0.032165445,0.118102725
1764767372.643396,-3.2809,0.9003399999999999,1.84646,0.97814691,-0.032165445,0.118102725
1764767372.643396,-3.2809,0.9003399999999999,1.84646,0.97814691,-0.032165445,0.118102725
1764767372.643396,-3.2809,0.9003399999999999,1.84646,0.97814691,-0.032165445,0.118102725
1764767372.643396,-3.2046,1.19028,1.84646,0.979550715,-0.031677165,0.11804169
1764767372.643396,-3.2046,1.19028,1.84646,0.979550715,-0.031677165,0.11804169
1764767372.643396,-3.2046,1.19028,1.84646,0.979550715,-0.031677165,0.11804169
1764767372.643396,-3.2046,1.19028,1.84646,0.979550715,-0.031677165,0.11804169
1764767372.643396,-3.2046,1.19028,1.84646,0.979550715,-0.031677165,0.11804169
1764767372.643396,-3.2046,1.19028,1.84646,0.979550715,-0.031677165,0.11804169
1764767372.643396,-3.2046,1.19028,1.84646,0.979550715,-0.031677165,0.11804169
1764767372.643396,-3.2046,1.19028,1.84646,0.979550715,-0.031677165,0.11804169
1764767372.643396,-3.2046,1.19028,1.84646,0.979550715,-0.031677165,0.11804169
1764767372.643396,-3.2046,1.19028,1.84646,0.979550715,-0.031677165,0.11804169
1764767372.643396,-3.25038,0.94612,1.73964,0.97948968,-0.030822675,0.11791962
1764767372.643396,-3.25038,0.94612,1.73964,0.97948968,-0.030822675,0.11791962
1764767372.643396,-3.25038,0.94612,1.73964,0.97948968,-0.030822675,0.11791962
1764767372.643396,-3.25038,0.94612,1.73964,0.97948968,-0.030822675,0.11791962
1764767372.6884634,-3.25038,0.94612,1.73964,0.97948968,-0.030822675,0.11791962
1764767372.6884634,-3.25038,0.94612,1.73964,0.97948968,-0.030822675,0.11791962
1764767372.6884634,-3.25038,0.94612,1.73964,0.97948968,-0.030822675,0.11791962
1764767372.6884634,-3.25038,0.94612,1.73964,0.97948968,-0.030822675,0.11791962
1764767372.6884634,-3.25038,0.94612,1.73964,0.97948968,-0.030822675,0.11791962
1764767372.6884634,-3.25038,0.94612,1.73964,0.97948968,-0.030822675,0.11791962
1764767372.6884634,-3.60136,1.19028,1.6633399999999998,0.979550715,-0.03137199,0.11767548
1764767372.6884634,-3.60136,1.19028,1.6633399999999998,0.979550715,-0.03137199,0.11767548
1764767372.6884634,-3.60136,1.19028,1.6633399999999998,0.979550715,-0.03137199,0.11767548
1764767372.6884634,-3.60136,1.19028,1.6633399999999998,0.979550715,-0.03137199,0.11767548
1764767372.6884634,-3.60136,1.19028,1.6633399999999998,0.979550715,-0.03137199,0.11767548
1764767372.6884634,-3.60136,1.19028,1.6633399999999998,0.979550715,-0.03137199,0.11767548
1764767372.6884634,-3.60136,1.19028,1.6633399999999998,0.979550715,-0.03137199,0.11767548
1764767372.6884634,-3.60136,1.19028,1.6633399999999998,0.979550715,-0.03137199,0.11767548
1764767372.6884634,-3.60136,1.19028,1.6633399999999998,0.979550715,-0.03137199,0.11767548
1764767372.6884634,-3.60136,1.19028,1.6633399999999998,0.979550715,-0.03137199,0.11767548
1764767372.6884634,-3.5098,1.72438,1.6633399999999998,0.98095452,-0.031433025,0.11804169
1764767372.6884634,-3.5098,1.72438,1.6633399999999998,0.98095452,-0.031433025,0.11804169
1764767372.6884634,-3.5098,1.72438,1.6633399999999998,0.98095452,-0.031433025,0.11804169
1764767372.6884634,-3.5098,1.72438,1.6633399999999998,0.98095452,-0.031433025,0.11804169
1764767372.689462,-3.5098,1.72438,1.6633399999999998,0.98095452,-0.031433025,0.11804169
1764767372.689462,-3.5098,1.72438,1.6633399999999998,0.98095452,-0.031433025,0.11804169
1764767372.689462,-3.5098,1.72438,1.6633399999999998,0.98095452,-0.031433025,0.11804169
1764767372.689462,-3.5098,1.72438,1.6633399999999998,0.98095452,-0.031433025,0.11804169
1764767372.689462,-3.5098,1.72438,1.6633399999999998,0.98095452,-0.031433025,0.11804169
1764767372.689462,-3.5098,1.72438,1.6633399999999998,0.98095452,-0.031433025,0.11804169
1764767372.7352169,-3.72344,1.28184,1.73964,0.98058831,-0.03198234,0.11901825
1764767372.7352169,-3.72344,1.28184,1.73964,0.98058831,-0.03198234,0.11901825
1764767372.7352169,-3.72344,1.28184,1.73964,0.98058831,-0.03198234,0.11901825
1764767372.7352169,-3.72344,1.28184,1.73964,0.98058831,-0.03198234,0.11901825
1764767372.7352169,-3.72344,1.28184,1.73964,0.98058831,-0.03198234,0.11901825
1764767372.7352169,-3.72344,1.28184,1.73964,0.98058831,-0.03198234,0.11901825
1764767372.7352169,-3.72344,1.28184,1.73964,0.98058831,-0.03198234,0.11901825
1764767372.7352169,-3.72344,1.28184,1.73964,0.98058831,-0.03198234,0.11901825
1764767372.7352169,-3.72344,1.28184,1.73964,0.98058831,-0.03198234,0.11901825
1764767372.7352169,-3.72344,1.28184,1.73964,0.98058831,-0.03198234,0.11901825
1764767372.7352169,-3.90656,0.74774,1.0682,0.97875726,-0.03198234,0.11938446
1764767372.7352169,-3.90656,0.74774,1.0682,0.97875726,-0.03198234,0.11938446
1764767372.7352169,-3.90656,0.74774,1.0682,0.97875726,-0.03198234,0.11938446
1764767372.7352169,-3.90656,0.74774,1.0682,0.97875726,-0.03198234,0.11938446
1764767372.7352169,-3.90656,0.74774,1.0682,0.97875726,-0.03198234,0.11938446
1764767372.7352169,-3.90656,0.74774,1.0682,0.97875726,-0.03198234,0.11938446
1764767372.7352169,-3.90656,0.74774,1.0682,0.97875726,-0.03198234,0.11938446
1764767372.7352169,-3.90656,0.74774,1.0682,0.97875726,-0.03198234,0.11938446
1764767372.7352169,-3.90656,0.74774,1.0682,0.97875726,-0.03198234,0.11938446
1764767372.7352169,-3.90656,0.74774,1.0682,0.97875726,-0.03198234,0.11938446
1764767372.7352169,-3.61662,0.71722,1.55652,0.9790014,-0.0329589,0.11975067
1764767372.7352169,-3.61662,0.71722,1.55652,0.9790014,-0.0329589,0.11975067
1764767372.781853,-3.61662,0.71722,1.55652,0.9790014,-0.0329589,0.11975067
1764767372.781853,-3.61662,0.71722,1.55652,0.9790014,-0.0329589,0.11975067
1764767372.781853,-3.61662,0.71722,1.55652,0.9790014,-0.0329589,0.11975067
1764767372.7823646,-3.61662,0.71722,1.55652,0.9790014,-0.0329589,0.11975067
1764767372.7823646,-3.61662,0.71722,1.55652,0.9790014,-0.0329589,0.11975067
1764767372.7823646,-3.61662,0.71722,1.55652,0.9790014,-0.0329589,0.11975067
1764767372.7823646,-3.61662,0.71722,1.55652,0.9790014,-0.0329589,0.11975067
1764767372.7823646,-3.61662,0.71722,1.55652,0.9790014,-0.0329589,0.11975067
1764767372.7823646,-3.54032,0.3051999999999999,2.41108,0.977597595,-0.034484775,0.1196286
1764767372.7823646,-3.54032,0.3051999999999999,2.41108,0.977597595,-0.034484775,0.1196286
1764767372.7823646,-3.54032,0.3051999999999999,2.41108,0.977597595,-0.034484775,0.1196286
1764767372.7823646,-3.54032,0.3051999999999999,2.41108,0.977597595,-0.034484775,0.1196286
1764767372.7823646,-3.54032,0.3051999999999999,2.41108,0.977597595,-0.034484775,0.1196286
1764767372.7823646,-3.54032,0.3051999999999999,2.41108,0.977597595,-0.034484775,0.1196286
1764767372.7823646,-3.54032,0.3051999999999999,2.41108,0.977597595,-0.034484775,0.1196286
1764767372.7823646,-3.54032,0.3051999999999999,2.41108,0.977597595,-0.034484775,0.1196286
1764767372.7823646,-3.54032,0.3051999999999999,2.41108,0.977597595,-0.034484775,0.1196286
1764767372.7823646,-3.54032,0.3051999999999999,2.41108,0.977597595,-0.034484775,0.1196286
1764767372.7823646,-3.03674,0.03052,1.46496,0.97863519,-0.03552237,0.119323425
1764767372.7823646,-3.03674,0.03052,1.46496,0.97863519,-0.03552237,0.119323425
1764767372.7823646,-3.03674,0.03052,1.46496,0.97863519,-0.03552237,0.119323425
1764767372.7823646,-3.03674,0.03052,1.46496,0.97863519,-0.03552237,0.119323425
1764767372.8288786,-3.03674,0.03052,1.46496,0.97863519,-0.03552237,0.119323425
1764767372.829418,-3.03674,0.03052,1.46496,0.97863519,-0.03552237,0.119323425
1764767372.829418,-3.03674,0.03052,1.46496,0.97863519,-0.03552237,0.119323425
1764767372.829418,-3.03674,0.03052,1.46496,0.97863519,-0.03552237,0.119323425
1764767372.829418,-3.03674,0.03052,1.46496,0.97863519,-0.03552237,0.119323425
1764767372.829418,-3.03674,0.03052,1.46496,0.97863519,-0.03552237,0.119323425
1764767372.829418,-3.4335,0.2289,0.6714399999999999,0.980527275,-0.034606845,0.118957215
1764767372.829418,-3.4335,0.2289,0.6714399999999999,0.980527275,-0.034606845,0.118957215
1764767372.829418,-3.4335,0.2289,0.6714399999999999,0.980527275,-0.034606845,0.118957215
1764767372.829418,-3.4335,0.2289,0.6714399999999999,0.980527275,-0.034606845,0.118957215
1764767372.829418,-3.4335,0.2289,0.6714399999999999,0.980527275,-0.034606845,0.118957215
1764767372.829418,-3.4335,0.2289,0.6714399999999999,0.980527275,-0.034606845,0.118957215
1764767372.829418,-3.4335,0.2289,0.6714399999999999,0.980527275,-0.034606845,0.118957215
1764767372.829418,-3.4335,0.2289,0.6714399999999999,0.980527275,-0.034606845,0.118957215
1764767372.829418,-3.4335,0.2289,0.6714399999999999,0.980527275,-0.034606845,0.118957215
1764767372.829418,-3.4335,0.2289,0.6714399999999999,0.980527275,-0.034606845,0.118957215
1764767372.829418,-3.14356,1.05294,0.56462,0.98107659,-0.0341796,0.11938446
1764767372.829418,-3.14356,1.05294,0.56462,0.98107659,-0.0341796,0.11938446
1764767372.829418,-3.14356,1.05294,0.56462,0.98107659,-0.0341796,0.11938446
1764767372.829418,-3.14356,1.05294,0.56462,0.98107659,-0.0341796,0.11938446
1764767372.829418,-3.14356,1.05294,0.56462,0.98107659,-0.0341796,0.11938446
1764767372.829418,-3.14356,1.05294,0.56462,0.98107659,-0.0341796,0.11938446
1764767372.8763454,-3.14356,1.05294,0.56462,0.98107659,-0.0341796,0.11938446
1764767372.8763454,-3.14356,1.05294,0.56462,0.98107659,-0.0341796,0.11938446
1764767372.8763454,-3.14356,1.05294,0.56462,0.98107659,-0.0341796,0.11938446
1764767372.8763454,-3.14356,1.05294,0.56462,0.98107659,-0.0341796,0.11938446
1764767372.8763454,-3.4335,0.94612,0.1525999999999999,0.979428645,-0.032409585,0.11901825
1764767372.8763454,-3.4335,0.94612,0.1525999999999999,0.979428645,-0.032409585,0.11901825
1764767372.8763454,-3.4335,0.94612,0.1525999999999999,0.979428645,-0.032409585,0.11901825
1764767372.8763454,-3.4335,0.94612,0.1525999999999999,0.979428645,-0.032409585,0.11901825
1764767372.8763454,-3.4335,0.94612,0.1525999999999999,0.979428645,-0.032409585,0.11901825
1764767372.8763454,-3.4335,0.94612,0.1525999999999999,0.979428645,-0.032409585,0.11901825
1764767372.8763454,-3.4335,0.94612,0.1525999999999999,0.979428645,-0.032409585,0.11901825
1764767372.8763454,-3.4335,0.94612,0.1525999999999999,0.979428645,-0.032409585,0.11901825
1764767372.8763454,-3.4335,0.94612,0.1525999999999999,0.979428645,-0.032409585,0.11901825
1764767372.8763454,-3.4335,0.94612,0.1525999999999999,0.979428645,-0.032409585,0.11901825
1764767372.8763454,-4.059159999999999,1.11398,0.1525999999999999,0.978330015,-0.030578535,0.11914032
1764767372.8763454,-4.059159999999999,1.11398,0.1525999999999999,0.978330015,-0.030578535,0.11914032
1764767372.8763454,-4.059159999999999,1.11398,0.1525999999999999,0.978330015,-0.030578535,0.11914032
1764767372.8763454,-4.059159999999999,1.11398,0.1525999999999999,0.978330015,-0.030578535,0.11914032
1764767372.8763454,-4.059159999999999,1.11398,0.1525999999999999,0.978330015,-0.030578535,0.11914032
1764767372.8763454,-4.059159999999999,1.11398,0.1525999999999999,0.978330015,-0.030578535,0.11914032
1764767372.8763454,-4.059159999999999,1.11398,0.1525999999999999,0.978330015,-0.030578535,0.11914032
1764767372.8763454,-4.059159999999999,1.11398,0.1525999999999999,0.978330015,-0.030578535,0.11914032
1764767372.8763454,-4.059159999999999,1.11398,0.1525999999999999,0.978330015,-0.030578535,0.11914032
1764767372.8763454,-4.059159999999999,1.11398,0.1525999999999999,0.978330015,-0.030578535,0.11914032
1764767372.9189703,-4.07442,0.6103999999999999,0.51884,0.97875726,-0.030090255,0.118957215
1764767372.9189703,-4.07442,0.6103999999999999,0.51884,0.97875726,-0.030090255,0.118957215
1764767372.9195125,-4.07442,0.6103999999999999,0.51884,0.97875726,-0.030090255,0.118957215
1764767372.9195125,-4.07442,0.6103999999999999,0.51884,0.97875726,-0.030090255,0.118957215
1764767372.9195125,-4.07442,0.6103999999999999,0.51884,0.97875726,-0.030090255,0.118957215
1764767372.9195125,-4.07442,0.6103999999999999,0.51884,0.97875726,-0.030090255,0.118957215
1764767372.9195125,-4.07442,0.6103999999999999,0.51884,0.97875726,-0.030090255,0.118957215
1764767372.9195125,-4.07442,0.6103999999999999,0.51884,0.97875726,-0.030090255,0.118957215
1764767372.9195125,-4.07442,0.6103999999999999,0.51884,0.97875726,-0.030090255,0.118957215
1764767372.9195125,-4.07442,0.6103999999999999,0.51884,0.97875726,-0.030090255,0.118957215
1764767372.9195125,-4.24228,0.8087799999999999,1.43444,0.979306575,-0.03015129,0.11950653
1764767372.9195125,-4.24228,0.8087799999999999,1.43444,0.979306575,-0.03015129,0.11950653
1764767372.920046,-4.24228,0.8087799999999999,1.43444,0.979306575,-0.03015129,0.11950653
1764767372.920046,-4.24228,0.8087799999999999,1.43444,0.979306575,-0.03015129,0.11950653
1764767372.920046,-4.24228,0.8087799999999999,1.43444,0.979306575,-0.03015129,0.11950653
1764767372.920046,-4.24228,0.8087799999999999,1.43444,0.979306575,-0.03015129,0.11950653
1764767372.920046,-4.24228,0.8087799999999999,1.43444,0.979306575,-0.03015129,0.11950653
1764767372.920046,-4.24228,0.8087799999999999,1.43444,0.979306575,-0.03015129,0.11950653
1764767372.920046,-4.24228,0.8087799999999999,1.43444,0.979306575,-0.03015129,0.11950653
1764767372.920046,-4.24228,0.8087799999999999,1.43444,0.979306575,-0.03015129,0.11950653
1764767372.920046,-5.02054,0.0,1.95328,0.979794855,-0.03063957,0.11914032
1764767372.920046,-5.02054,0.0,1.95328,0.979794855,-0.03063957,0.11914032
1764767372.920046,-5.02054,0.0,1.95328,0.979794855,-0.03063957,0.11914032
1764767372.920046,-5.02054,0.0,1.95328,0.979794855,-0.03063957,0.11914032
1764767372.9700034,-5.02054,0.0,1.95328,0.979794855,-0.03063957,0.11914032
1764767372.9700034,-5.02054,0.0,1.95328,0.979794855,-0.03063957,0.11914032
1764767372.9700034,-5.02054,0.0,1.95328,0.979794855,-0.03063957,0.11914032
1764767372.9700034,-5.02054,0.0,1.95328,0.979794855,-0.03063957,0.11914032
1764767372.9700034,-5.02054,0.0,1.95328,0.979794855,-0.03063957,0.11914032
1764767372.9700034,-5.02054,0.0,1.95328,0.979794855,-0.03063957,0.11914032
1764767372.9700034,-4.31858,-0.10682,2.0601,0.97961175,-0.03161613,0.119201355
1764767372.9700034,-4.31858,-0.10682,2.0601,0.97961175,-0.03161613,0.119201355
1764767372.9700034,-4.31858,-0.10682,2.0601,0.97961175,-0.03161613,0.119201355
1764767372.9700034,-4.31858,-0.10682,2.0601,0.97961175,-0.03161613,0.119201355
1764767372.9700034,-4.31858,-0.10682,2.0601,0.97961175,-0.03161613,0.119201355
1764767372.9700034,-4.31858,-0.10682,2.0601,0.97961175,-0.03161613,0.119201355
1764767372.9700034,-4.31858,-0.10682,2.0601,0.97961175,-0.03161613,0.119201355
1764767372.9700034,-4.31858,-0.10682,2.0601,0.97961175,-0.03161613,0.119201355
1764767372.9700034,-4.31858,-0.10682,2.0601,0.97961175,-0.03161613,0.119201355
1764767372.9700034,-4.31858,-0.10682,2.0601,0.97961175,-0.03161613,0.119201355
1764767372.9700034,-4.60852,-0.41202,1.96854,0.97961175,-0.032897865,0.11889618
1764767372.9700034,-4.60852,-0.41202,1.96854,0.97961175,-0.032897865,0.11889618
1764767372.9700034,-4.60852,-0.41202,1.96854,0.97961175,-0.032897865,0.11889618
1764767372.9700034,-4.60852,-0.41202,1.96854,0.97961175,-0.032897865,0.11889618
1764767372.9700034,-4.60852,-0.41202,1.96854,0.97961175,-0.032897865,0.11889618
1764767372.9700034,-4.60852,-0.41202,1.96854,0.97961175,-0.032897865,0.11889618
1764767372.9700034,-4.60852,-0.41202,1.96854,0.97961175,-0.032897865,0.11889618
1764767372.9700034,-4.60852,-0.41202,1.96854,0.97961175,-0.032897865,0.11889618
1764767373.0163307,-4.60852,-0.41202,1.96854,0.97961175,-0.032897865,0.11889618
1764767373.0163307,-4.60852,-0.41202,1.96854,0.97961175,-0.032897865,0.11889618
1764767373.0163307,-4.47118,0.04578,1.93802,0.979550715,-0.033508215,0.118102725
1764767373.0163307,-4.47118,0.04578,1.93802,0.979550715,-0.033508215,0.118102725
1764767373.0163307,-4.47118,0.04578,1.93802,0.979550715,-0.033508215,0.118102725
1764767373.0163307,-4.47118,0.04578,1.93802,0.979550715,-0.033508215,0.118102725
1764767373.0163307,-4.47118,0.04578,1.93802,0.979550715,-0.033508215,0.118102725
1764767373.0163307,-4.47118,0.04578,1.93802,0.979550715,-0.033508215,0.118102725
1764767373.0163307,-4.47118,0.04578,1.93802,0.979550715,-0.033508215,0.118102725
1764767373.0163307,-4.47118,0.04578,1.93802,0.979550715,-0.033508215,0.118102725
1764767373.0163307,-4.47118,0.04578,1.93802,0.979550715,-0.033508215,0.118102725
1764767373.0163307,-4.47118,0.04578,1.93802,0.979550715,-0.033508215,0.118102725
1764767373.0163307,-4.33384,-0.3051999999999999,1.92276,0.980038995,-0.03332511,0.117126165
1764767373.0163307,-4.33384,-0.3051999999999999,1.92276,0.980038995,-0.03332511,0.117126165
1764767373.0163307,-4.33384,-0.3051999999999999,1.92276,0.980038995,-0.03332511,0.117126165
1764767373.0163307,-4.33384,-0.3051999999999999,1.92276,0.980038995,-0.03332511,0.117126165
1764767373.0163307,-4.33384,-0.3051999999999999,1.92276,0.980038995,-0.03332511,0.117126165
1764767373.0163307,-4.33384,-0.3051999999999999,1.92276,0.980038995,-0.03332511,0.117126165
1764767373.0163307,-4.33384,-0.3051999999999999,1.92276,0.980038995,-0.03332511,0.117126165
1764767373.0163307,-4.33384,-0.3051999999999999,1.92276,0.980038995,-0.03332511,0.117126165
1764767373.0163307,-4.33384,-0.3051999999999999,1.92276,0.980038995,-0.03332511,0.117126165
1764767373.0163307,-4.33384,-0.3051999999999999,1.92276,0.980038995,-0.03332511,0.117126165
1764767373.0163307,-4.02864,0.3357199999999999,1.99906,0.980649345,-0.033264075,0.116027535
1764767373.0163307,-4.02864,0.3357199999999999,1.99906,0.980649345,-0.033264075,0.116027535
1764767373.0627968,-4.02864,0.3357199999999999,1.99906,0.980649345,-0.033264075,0.116027535
1764767373.0627968,-4.02864,0.3357199999999999,1.99906,0.980649345,-0.033264075,0.116027535
1764767373.0627968,-4.02864,0.3357199999999999,1.99906,0.980649345,-0.033264075,0.116027535
1764767373.0627968,-4.02864,0.3357199999999999,1.99906,0.980649345,-0.033264075,0.116027535
1764767373.0627968,-4.02864,0.3357199999999999,1.99906,0.980649345,-0.033264075,0.116027535
1764767373.0627968,-4.02864,0.3357199999999999,1.99906,0.980649345,-0.033264075,0.116027535
1764767373.0627968,-4.02864,0.3357199999999999,1.99906,0.980649345,-0.033264075,0.116027535
1764767373.0627968,-4.02864,0.3357199999999999,1.99906,0.980649345,-0.033264075,0.116027535
1764767373.0627968,-3.70818,0.44254,2.12114,0.97997796,-0.034240635,0.116027535
1764767373.0627968,-3.70818,0.44254,2.12114,0.97997796,-0.034240635,0.116027535
1764767373.0627968,-3.70818,0.44254,2.12114,0.97997796,-0.034240635,0.116027535
1764767373.0627968,-3.70818,0.44254,2.12114,0.97997796,-0.034240635,0.116027535
1764767373.0627968,-3.70818,0.44254,2.12114,0.97997796,-0.034240635,0.116027535
1764767373.0627968,-3.70818,0.44254,2.12114,0.97997796,-0.034240635,0.116027535
1764767373.0627968,-3.70818,0.44254,2.12114,0.97997796,-0.034240635,0.116027535
1764767373.0627968,-3.70818,0.44254,2.12114,0.97997796,-0.034240635,0.116027535
1764767373.0627968,-3.70818,0.44254,2.12114,0.97997796,-0.034240635,0.116027535
1764767373.0627968,-3.70818,0.44254,2.12114,0.97997796,-0.034240635,0.116027535
1764767373.0627968,-3.83026,0.4578,2.5942,0.978452085,-0.035461335,0.115295115
1764767373.0627968,-3.83026,0.4578,2.5942,0.978452085,-0.035461335,0.115295115
1764767373.0627968,-3.83026,0.4578,2.5942,0.978452085,-0.035461335,0.115295115
1764767373.0627968,-3.83026,0.4578,2.5942,0.978452085,-0.035461335,0.115295115
1764767373.1096313,-3.83026,0.4578,2.5942,0.978452085,-0.035461335,0.115295115
1764767373.1096313,-3.83026,0.4578,2.5942,0.978452085,-0.035461335,0.115295115
1764767373.1096313,-3.83026,0.4578,2.5942,0.978452085,-0.035461335,0.115295115
1764767373.1096313,-3.83026,0.4578,2.5942,0.978452085,-0.035461335,0.115295115
1764767373.1096313,-3.83026,0.4578,2.5942,0.978452085,-0.035461335,0.115295115
1764767373.1096313,-3.83026,0.4578,2.5942,0.978452085,-0.035461335,0.115295115
1764767373.1096313,-3.44876,0.3509799999999999,2.33478,0.979184505,-0.036437895,0.115050975
1764767373.1096313,-3.44876,0.3509799999999999,2.33478,0.979184505,-0.036437895,0.115050975
1764767373.1096313,-3.44876,0.3509799999999999,2.33478,0.979184505,-0.036437895,0.115050975
1764767373.1096313,-3.44876,0.3509799999999999,2.33478,0.979184505,-0.036437895,0.115050975
1764767373.1096313,-3.44876,0.3509799999999999,2.33478,0.979184505,-0.036437895,0.115050975
1764767373.1096313,-3.44876,0.3509799999999999,2.33478,0.979184505,-0.036437895,0.115050975
1764767373.1096313,-3.44876,0.3509799999999999,2.33478,0.979184505,-0.036437895,0.115050975
1764767373.1096313,-3.44876,0.3509799999999999,2.33478,0.979184505,-0.036437895,0.115050975
1764767373.1096313,-3.44876,0.3509799999999999,2.33478,0.979184505,-0.036437895,0.115050975
1764767373.1096313,-3.44876,0.3509799999999999,2.33478,0.979184505,-0.036437895,0.115050975
1764767373.1102853,-3.52506,0.77826,1.93802,0.98010003,-0.03649893,0.114684765
1764767373.1102853,-3.52506,0.77826,1.93802,0.98010003,-0.03649893,0.114684765
1764767373.1102853,-3.52506,0.77826,1.93802,0.98010003,-0.03649893,0.114684765
1764767373.1102853,-3.52506,0.77826,1.93802,0.98010003,-0.03649893,0.114684765
1764767373.1102853,-3.52506,0.77826,1.93802,0.98010003,-0.03649893,0.114684765
1764767373.1102853,-3.52506,0.77826,1.93802,0.98010003,-0.03649893,0.114684765
1764767373.15267,-3.52506,0.77826,1.93802,0.98010003,-0.03649893,0.114684765
1764767373.15267,-3.52506,0.77826,1.93802,0.98010003,-0.03649893,0.114684765
1764767373.15267,-3.52506,0.77826,1.93802,0.98010003,-0.03649893,0.114684765
1764767373.15267,-3.52506,0.77826,1.93802,0.98010003,-0.03649893,0.114684765
1764767373.15267,-3.99812,0.71722,1.63282,0.980771415,-0.03637686,0.114562695
1764767373.15267,-3.99812,0.71722,1.63282,0.980771415,-0.03637686,0.114562695
1764767373.15267,-3.99812,0.71722,1.63282,0.980771415,-0.03637686,0.114562695
1764767373.15267,-3.99812,0.71722,1.63282,0.980771415,-0.03637686,0.114562695
1764767373.15267,-3.99812,0.71722,1.63282,0.980771415,-0.03637686,0.114562695
1764767373.15371,-3.99812,0.71722,1.63282,0.980771415,-0.03637686,0.114562695
1764767373.15371,-3.99812,0.71722,1.63282,0.980771415,-0.03637686,0.114562695
1764767373.15371,-3.99812,0.71722,1.63282,0.980771415,-0.03637686,0.114562695
1764767373.15371,-3.99812,0.71722,1.63282,0.980771415,-0.03637686,0.114562695
1764767373.15371,-3.99812,0.71722,1.63282,0.980771415,-0.03637686,0.114562695
1764767373.15371,-3.93708,1.15976,1.32762,0.981625905,-0.036437895,0.11523408
1764767373.15371,-3.93708,1.15976,1.32762,0.981625905,-0.036437895,0.11523408
1764767373.15371,-3.93708,1.15976,1.32762,0.981625905,-0.036437895,0.11523408
1764767373.15371,-3.93708,1.15976,1.32762,0.981625905,-0.036437895,0.11523408
1764767373.15371,-3.93708,1.15976,1.32762,0.981625905,-0.036437895,0.11523408
1764767373.15371,-3.93708,1.15976,1.32762,0.981625905,-0.036437895,0.11523408
1764767373.15371,-3.93708,1.15976,1.32762,0.981625905,-0.036437895,0.11523408
1764767373.15371,-3.93708,1.15976,1.32762,0.981625905,-0.036437895,0.11523408
1764767373.15371,-3.93708,1.15976,1.32762,0.981625905,-0.036437895,0.11523408
1764767373.15371,-3.93708,1.15976,1.32762,0.981625905,-0.036437895,0.11523408
1764767373.15371,-4.4254,1.48022,0.8698199999999999,0.98168694,-0.03686514,0.11523408
1764767373.15371,-4.4254,1.48022,0.8698199999999999,0.98168694,-0.03686514,0.11523408
1764767373.1998975,-4.4254,1.48022,0.8698199999999999,0.98168694,-0.03686514,0.11523408
1764767373.1998975,-4.4254,1.48022,0.8698199999999999,0.98168694,-0.03686514,0.11523408
1764767373.1998975,-4.4254,1.48022,0.8698199999999999,0.98168694,-0.03686514,0.11523408
1764767373.1998975,-4.4254,1.48022,0.8698199999999999,0.98168694,-0.03686514,0.11523408
1764767373.1998975,-4.4254,1.48022,0.8698199999999999,0.98168694,-0.03686514,0.11523408
1764767373.1998975,-4.4254,1.48022,0.8698199999999999,0.98168694,-0.03686514,0.11523408
1764767373.1998975,-4.4254,1.48022,0.8698199999999999,0.98168694,-0.03686514,0.11523408
1764767373.1998975,-4.4254,1.48022,0.8698199999999999,0.98168694,-0.03686514,0.11523408
1764767373.1998975,-3.98286,1.49548,0.82404,0.980527275,-0.037048245,0.1159665
1764767373.1998975,-3.98286,1.49548,0.82404,0.980527275,-0.037048245,0.1159665
1764767373.1998975,-3.98286,1.49548,0.82404,0.980527275,-0.037048245,0.1159665
1764767373.1998975,-3.98286,1.49548,0.82404,0.980527275,-0.037048245,0.1159665
1764767373.1998975,-3.98286,1.49548,0.82404,0.980527275,-0.037048245,0.1159665
1764767373.1998975,-3.98286,1.49548,0.82404,0.980527275,-0.037048245,0.1159665
1764767373.1998975,-3.98286,1.49548,0.82404,0.980527275,-0.037048245,0.1159665
1764767373.1998975,-3.98286,1.49548,0.82404,0.980527275,-0.037048245,0.1159665
1764767373.1998975,-3.98286,1.49548,0.82404,0.980527275,-0.037048245,0.1159665
1764767373.1998975,-3.98286,1.49548,0.82404,0.980527275,-0.037048245,0.1159665
1764767373.1998975,-3.75396,1.05294,0.56462,0.97924554,-0.037170315,0.116515815
1764767373.1998975,-3.75396,1.05294,0.56462,0.97924554,-0.037170315,0.116515815
1764767373.1998975,-3.75396,1.05294,0.56462,0.97924554,-0.037170315,0.116515815
1764767373.1998975,-3.75396,1.05294,0.56462,0.97924554,-0.037170315,0.116515815
1764767373.2470093,-3.75396,1.05294,0.56462,0.97924554,-0.037170315,0.116515815
1764767373.2470093,-3.75396,1.05294,0.56462,0.97924554,-0.037170315,0.116515815
1764767373.2470093,-3.75396,1.05294,0.56462,0.97924554,-0.037170315,0.116515815
1764767373.2470093,-3.75396,1.05294,0.56462,0.97924554,-0.037170315,0.116515815
1764767373.2475312,-3.75396,1.05294,0.56462,0.97924554,-0.037170315,0.116515815
1764767373.2475312,-3.75396,1.05294,0.56462,0.97924554,-0.037170315,0.116515815
1764767373.2475312,-3.61662,0.763,0.42728,0.97802484,-0.03723135,0.116759955
1764767373.2475312,-3.61662,0.763,0.42728,0.97802484,-0.03723135,0.116759955
1764767373.2475312,-3.61662,0.763,0.42728,0.97802484,-0.03723135,0.116759955
1764767373.2475312,-3.61662,0.763,0.42728,0.97802484,-0.03723135,0.116759955
1764767373.2475312,-3.61662,0.763,0.42728,0.97802484,-0.03723135,0.116759955
1764767373.2475312,-3.61662,0.763,0.42728,0.97802484,-0.03723135,0.116759955
1764767373.2475312,-3.61662,0.763,0.42728,0.97802484,-0.03723135,0.116759955
1764767373.2475312,-3.61662,0.763,0.42728,0.97802484,-0.03723135,0.116759955
1764767373.2475312,-3.61662,0.763,0.42728,0.97802484,-0.03723135,0.116759955
1764767373.2475312,-3.61662,0.763,0.42728,0.97802484,-0.03723135,0.116759955
1764767373.2475312,-3.29616,0.93086,0.1525999999999999,0.978574155,-0.03710928,0.116637885
1764767373.2475312,-3.29616,0.93086,0.1525999999999999,0.978574155,-0.03710928,0.116637885
1764767373.2475312,-3.29616,0.93086,0.1525999999999999,0.978574155,-0.03710928,0.116637885
1764767373.2475312,-3.29616,0.93086,0.1525999999999999,0.978574155,-0.03710928,0.116637885
1764767373.2475312,-3.29616,0.93086,0.1525999999999999,0.978574155,-0.03710928,0.116637885
1764767373.2475312,-3.29616,0.93086,0.1525999999999999,0.978574155,-0.03710928,0.116637885
1764767373.2475312,-3.29616,0.93086,0.1525999999999999,0.978574155,-0.03710928,0.116637885
1764767373.2475312,-3.29616,0.93086,0.1525999999999999,0.978574155,-0.03710928,0.116637885
1764767373.2942643,-3.29616,0.93086,0.1525999999999999,0.978574155,-0.03710928,0.116637885
1764767373.2942643,-3.29616,0.93086,0.1525999999999999,0.978574155,-0.03710928,0.116637885
1764767373.2942643,-3.61662,0.73248,0.1525999999999999,0.980161065,-0.036682035,0.116882025
1764767373.2942643,-3.61662,0.73248,0.1525999999999999,0.980161065,-0.036682035,0.116882025
1764767373.2942643,-3.61662,0.73248,0.1525999999999999,0.980161065,-0.036682035,0.116882025
1764767373.2942643,-3.61662,0.73248,0.1525999999999999,0.980161065,-0.036682035,0.116882025
1764767373.2942643,-3.61662,0.73248,0.1525999999999999,0.980161065,-0.036682035,0.116882025
1764767373.2942643,-3.61662,0.73248,0.1525999999999999,0.980161065,-0.036682035,0.116882025
1764767373.2942643,-3.61662,0.73248,0.1525999999999999,0.980161065,-0.036682035,0.116882025
1764767373.2942643,-3.61662,0.73248,0.1525999999999999,0.980161065,-0.036682035,0.116882025
1764767373.2952826,-3.61662,0.73248,0.1525999999999999,0.980161065,-0.036682035,0.116882025
1764767373.2952826,-3.61662,0.73248,0.1525999999999999,0.980161065,-0.036682035,0.116882025
1764767373.2952826,-3.3572,1.2208,0.19838,0.97948968,-0.03637686,0.11657685
1764767373.2952826,-3.3572,1.2208,0.19838,0.97948968,-0.03637686,0.11657685
1764767373.2952826,-3.3572,1.2208,0.19838,0.97948968,-0.03637686,0.11657685
1764767373.2952826,-3.3572,1.2208,0.19838,0.97948968,-0.03637686,0.11657685
1764767373.2952826,-3.3572,1.2208,0.19838,0.97948968,-0.03637686,0.11657685
1764767373.2952826,-3.3572,1.2208,0.19838,0.97948968,-0.03637686,0.11657685
1764767373.2952826,-3.3572,1.2208,0.19838,0.97948968,-0.03637686,0.11657685
1764767373.2952826,-3.3572,1.2208,0.19838,0.97948968,-0.03637686,0.11657685
1764767373.2952826,-3.3572,1.2208,0.19838,0.97948968,-0.03637686,0.11657685
1764767373.2952826,-3.3572,1.2208,0.19838,0.97948968,-0.03637686,0.11657685
1764767373.341878,-3.76922,0.9156,0.3204599999999999,0.97997796,-0.03576651,0.11694306
1764767373.341878,-3.76922,0.9156,0.3204599999999999,0.97997796,-0.03576651,0.11694306
1764767373.341878,-3.76922,0.9156,0.3204599999999999,0.97997796,-0.03576651,0.11694306
1764767373.341878,-3.76922,0.9156,0.3204599999999999,0.97997796,-0.03576651,0.11694306
1764767373.341878,-3.76922,0.9156,0.3204599999999999,0.97997796,-0.03576651,0.11694306
1764767373.341878,-3.76922,0.9156,0.3204599999999999,0.97997796,-0.03576651,0.11694306
1764767373.341878,-3.76922,0.9156,0.3204599999999999,0.97997796,-0.03576651,0.11694306
1764767373.341878,-3.76922,0.9156,0.3204599999999999,0.97997796,-0.03576651,0.11694306
1764767373.341878,-3.76922,0.9156,0.3204599999999999,0.97997796,-0.03576651,0.11694306
1764767373.341878,-3.76922,0.9156,0.3204599999999999,0.97997796,-0.03576651,0.11694306
1764767373.343017,-3.86078,1.48022,0.13734,0.980405205,-0.03576651,0.116515815
1764767373.343017,-3.86078,1.48022,0.13734,0.980405205,-0.03576651,0.116515815
1764767373.343017,-3.86078,1.48022,0.13734,0.980405205,-0.03576651,0.116515815
1764767373.343017,-3.86078,1.48022,0.13734,0.980405205,-0.03576651,0.116515815
1764767373.343017,-3.86078,1.48022,0.13734,0.980405205,-0.03576651,0.116515815
1764767373.343017,-3.86078,1.48022,0.13734,0.980405205,-0.03576651,0.116515815
1764767373.343017,-3.86078,1.48022,0.13734,0.980405205,-0.03576651,0.116515815
1764767373.343017,-3.86078,1.48022,0.13734,0.980405205,-0.03576651,0.116515815
1764767373.343017,-3.86078,1.48022,0.13734,0.980405205,-0.03576651,0.116515815
1764767373.343017,-3.86078,1.48022,0.13734,0.980405205,-0.03576651,0.116515815
1764767373.343017,-3.52506,1.69386,-0.0762999999999999,0.981137625,-0.03588858,0.117370305
1764767373.343017,-3.52506,1.69386,-0.0762999999999999,0.981137625,-0.03588858,0.117370305
1764767373.386394,-3.52506,1.69386,-0.0762999999999999,0.981137625,-0.03588858,0.117370305
1764767373.386394,-3.52506,1.69386,-0.0762999999999999,0.981137625,-0.03588858,0.117370305
1764767373.386394,-3.52506,1.69386,-0.0762999999999999,0.981137625,-0.03588858,0.117370305
1764767373.386394,-3.52506,1.69386,-0.0762999999999999,0.981137625,-0.03588858,0.117370305
1764767373.386394,-3.52506,1.69386,-0.0762999999999999,0.981137625,-0.03588858,0.117370305
1764767373.386394,-3.52506,1.69386,-0.0762999999999999,0.981137625,-0.03588858,0.117370305
1764767373.386394,-3.52506,1.69386,-0.0762999999999999,0.981137625,-0.03588858,0.117370305
1764767373.386394,-3.52506,1.69386,-0.0762999999999999,0.981137625,-0.03588858,0.117370305
1764767373.386394,-3.69292,1.2055399999999998,-0.3357199999999999,0.980771415,-0.03576651,0.118346865
1764767373.386394,-3.69292,1.2055399999999998,-0.3357199999999999,0.980771415,-0.03576651,0.118346865
1764767373.386394,-3.69292,1.2055399999999998,-0.3357199999999999,0.980771415,-0.03576651,0.118346865
1764767373.386394,-3.69292,1.2055399999999998,-0.3357199999999999,0.980771415,-0.03576651,0.118346865
1764767373.386394,-3.69292,1.2055399999999998,-0.3357199999999999,0.980771415,-0.03576651,0.118346865
1764767373.386394,-3.69292,1.2055399999999998,-0.3357199999999999,0.980771415,-0.03576651,0.118346865
1764767373.386394,-3.69292,1.2055399999999998,-0.3357199999999999,0.980771415,-0.03576651,0.118346865
1764767373.386394,-3.69292,1.2055399999999998,-0.3357199999999999,0.980771415,-0.03576651,0.118346865
1764767373.386394,-3.69292,1.2055399999999998,-0.3357199999999999,0.980771415,-0.03576651,0.118346865
1764767373.386394,-3.69292,1.2055399999999998,-0.3357199999999999,0.980771415,-0.03576651,0.118346865
1764767373.386394,-3.47928,1.3734,-0.0762999999999999,0.9802221,-0.03552237,0.118835145
1764767373.386394,-3.47928,1.3734,-0.0762999999999999,0.9802221,-0.03552237,0.118835145
1764767373.387982,-3.47928,1.3734,-0.0762999999999999,0.9802221,-0.03552237,0.118835145
1764767373.387982,-3.47928,1.3734,-0.0762999999999999,0.9802221,-0.03552237,0.118835145
1764767373.387982,-3.47928,1.3734,-0.0762999999999999,0.9802221,-0.03552237,0.118835145
1764767373.387982,-3.47928,1.3734,-0.0762999999999999,0.9802221,-0.03552237,0.118835145
1764767373.4339335,-3.47928,1.3734,-0.0762999999999999,0.9802221,-0.03552237,0.118835145
1764767373.4339335,-3.47928,1.3734,-0.0762999999999999,0.9802221,-0.03552237,0.118835145
1764767373.4339335,-3.47928,1.3734,-0.0762999999999999,0.9802221,-0.03552237,0.118835145
1764767373.4339335,-3.47928,1.3734,-0.0762999999999999,0.9802221,-0.03552237,0.118835145
1764767373.4339335,-3.18934,0.8087799999999999,1.11398,0.97936761,-0.03478995,0.11914032
1764767373.4339335,-3.18934,0.8087799999999999,1.11398,0.97936761,-0.03478995,0.11914032
1764767373.4339335,-3.18934,0.8087799999999999,1.11398,0.97936761,-0.03478995,0.11914032
1764767373.4339335,-3.18934,0.8087799999999999,1.11398,0.97936761,-0.03478995,0.11914032
1764767373.4339335,-3.18934,0.8087799999999999,1.11398,0.97936761,-0.03478995,0.11914032
1764767373.4339335,-3.18934,0.8087799999999999,1.11398,0.97936761,-0.03478995,0.11914032
1764767373.4339335,-3.18934,0.8087799999999999,1.11398,0.97936761,-0.03478995,0.11914032
1764767373.4339335,-3.18934,0.8087799999999999,1.11398,0.97936761,-0.03478995,0.11914032
1764767373.4339335,-3.18934,0.8087799999999999,1.11398,0.97936761,-0.03478995,0.11914032
1764767373.4339335,-3.18934,0.8087799999999999,1.11398,0.97936761,-0.03478995,0.11914032
1764767373.4339335,-3.31142,0.42728,0.8392999999999999,0.978085875,-0.03442374,0.118835145
1764767373.4339335,-3.31142,0.42728,0.8392999999999999,0.978085875,-0.03442374,0.118835145
1764767373.4339335,-3.31142,0.42728,0.8392999999999999,0.978085875,-0.03442374,0.118835145
1764767373.4339335,-3.31142,0.42728,0.8392999999999999,0.978085875,-0.03442374,0.118835145
1764767373.4339335,-3.31142,0.42728,0.8392999999999999,0.978085875,-0.03442374,0.118835145
1764767373.4339335,-3.31142,0.42728,0.8392999999999999,0.978085875,-0.03442374,0.118835145
1764767373.4339335,-3.31142,0.42728,0.8392999999999999,0.978085875,-0.03442374,0.118835145
1764767373.4339335,-3.31142,0.42728,0.8392999999999999,0.978085875,-0.03442374,0.118835145
1764767373.4339335,-3.31142,0.42728,0.8392999999999999,0.978085875,-0.03442374,0.118835145
1764767373.4339335,-3.31142,0.42728,0.8392999999999999,0.978085875,-0.03442374,0.118835145
1764767373.4807265,-3.5098,0.6714399999999999,1.41918,0.9790014,-0.03344718,0.11828583
1764767373.4807265,-3.5098,0.6714399999999999,1.41918,0.9790014,-0.03344718,0.11828583
1764767373.4807265,-3.5098,0.6714399999999999,1.41918,0.9790014,-0.03344718,0.11828583
1764767373.4807265,-3.5098,0.6714399999999999,1.41918,0.9790014,-0.03344718,0.11828583
1764767373.4807265,-3.5098,0.6714399999999999,1.41918,0.9790014,-0.03344718,0.11828583
1764767373.4807265,-3.5098,0.6714399999999999,1.41918,0.9790014,-0.03344718,0.11828583
1764767373.4807265,-3.5098,0.6714399999999999,1.41918,0.9790014,-0.03344718,0.11828583
1764767373.4807265,-3.5098,0.6714399999999999,1.41918,0.9790014,-0.03344718,0.11828583
1764767373.4807265,-3.5098,0.6714399999999999,1.41918,0.9790014,-0.03344718,0.11828583
1764767373.4807265,-3.5098,0.6714399999999999,1.41918,0.9790014,-0.03344718,0.11828583
1764767373.4807265,-3.26564,1.32762,0.8698199999999999,0.98083245,-0.0329589,0.117858585
