Timestamp,GyroX,GyroY,GyroZ,AccX,AccY,AccZ
1764767526.7107978,-3.90656,1.55652,0.763,0.979916925,-0.04919421,0.12487761
1764767526.7107978,-3.75396,1.4039199999999998,-0.18312,0.97985589,-0.048889035,0.125426925
1764767526.71131,-3.75396,1.4039199999999998,-0.18312,0.97985589,-0.048889035,0.125426925
1764767526.71131,-3.75396,1.4039199999999998,-0.18312,0.97985589,-0.048889035,0.125426925
1764767526.71131,-3.75396,1.4039199999999998,-0.18312,0.97985589,-0.048889035,0.125426925
1764767526.71131,-3.75396,1.4039199999999998,-0.18312,0.97985589,-0.048889035,0.125426925
1764767526.71131,-3.75396,1.4039199999999998,-0.18312,0.97985589,-0.048889035,0.125426925
1764767526.71131,-3.75396,1.4039199999999998,-0.18312,0.97985589,-0.048889035,0.125426925
1764767526.71131,-3.75396,1.4039199999999998,-0.18312,0.97985589,-0.048889035,0.125426925
1764767526.71131,-3.75396,1.4039199999999998,-0.18312,0.97985589,-0.048889035,0.125426925
1764767526.71131,-3.75396,1.4039199999999998,-0.18312,0.97985589,-0.048889035,0.125426925
1764767526.71131,-3.90656,1.58704,0.10682,0.978940365,-0.048766965,0.125304855
1764767526.71131,-3.90656,1.58704,0.10682,0.978940365,-0.048766965,0.125304855
1764767526.71131,-3.90656,1.58704,0.10682,0.978940365,-0.048766965,0.125304855
1764767526.71131,-3.90656,1.58704,0.10682,0.978940365,-0.048766965,0.125304855
1764767526.71131,-3.90656,1.58704,0.10682,0.978940365,-0.048766965,0.125304855
1764767526.71131,-3.90656,1.58704,0.10682,0.978940365,-0.048766965,0.125304855
1764767526.71131,-3.90656,1.58704,0.10682,0.978940365,-0.048766965,0.125304855
1764767526.71131,-3.90656,1.58704,0.10682,0.978940365,-0.048766965,0.125304855
1764767526.71131,-3.90656,1.58704,0.10682,0.978940365,-0.048766965,0.125304855
1764767526.71131,-3.90656,1.58704,0.10682,0.978940365,-0.048766965,0.125304855
1764767526.71131,-3.49454,1.69386,0.09156,0.978452085,-0.048766965,0.12499968
1764767526.71131,-3.49454,1.69386,0.09156,0.978452085,-0.048766965,0.12499968
1764767526.71131,-3.49454,1.69386,0.09156,0.978452085,-0.048766965,0.12499968
1764767526.71131,-3.49454,1.69386,0.09156,0.978452085,-0.048766965,0.12499968
1764767526.7587142,-3.49454,1.69386,0.09156,0.978452085,-0.048766965,0.12499968
1764767526.7587142,-3.49454,1.69386,0.09156,0.978452085,-0.048766965,0.12499968
1764767526.7587142,-3.49454,1.69386,0.09156,0.978452085,-0.048766965,0.12499968
1764767526.7587142,-3.49454,1.69386,0.09156,0.978452085,-0.048766965,0.12499968
1764767526.7587142,-3.49454,1.69386,0.09156,0.978452085,-0.048766965,0.12499968
1764767526.7587142,-3.49454,1.69386,0.09156,0.978452085,-0.048766965,0.12499968
1764767526.7587142,-3.60136,1.48022,0.6867,0.977109315,-0.048644895,0.12512175
1764767526.7587142,-3.60136,1.48022,0.6867,0.977109315,-0.048644895,0.12512175
1764767526.7587142,-3.60136,1.48022,0.6867,0.977109315,-0.048644895,0.12512175
1764767526.7587142,-3.60136,1.48022,0.6867,0.977109315,-0.048644895,0.12512175
1764767526.7587142,-3.60136,1.48022,0.6867,0.977109315,-0.048644895,0.12512175
1764767526.7587142,-3.60136,1.48022,0.6867,0.977109315,-0.048644895,0.12512175
1764767526.7587142,-3.60136,1.48022,0.6867,0.977109315,-0.048644895,0.12512175
1764767526.7587142,-3.60136,1.48022,0.6867,0.977109315,-0.048644895,0.12512175
1764767526.7587142,-3.60136,1.48022,0.6867,0.977109315,-0.048644895,0.12512175
1764767526.7587142,-3.60136,1.48022,0.6867,0.977109315,-0.048644895,0.12512175
1764767526.7587142,-3.69292,1.05294,0.62566,0.977841735,-0.04870593,0.125426925
1764767526.7587142,-3.69292,1.05294,0.62566,0.977841735,-0.04870593,0.125426925
1764767526.7587142,-3.69292,1.05294,0.62566,0.977841735,-0.04870593,0.125426925
1764767526.7587142,-3.69292,1.05294,0.62566,0.977841735,-0.04870593,0.125426925
1764767526.7587142,-3.69292,1.05294,0.62566,0.977841735,-0.04870593,0.125426925
1764767526.7587142,-3.69292,1.05294,0.62566,0.977841735,-0.04870593,0.125426925
1764767526.7587142,-3.69292,1.05294,0.62566,0.977841735,-0.04870593,0.125426925
1764767526.7587142,-3.69292,1.05294,0.62566,0.977841735,-0.04870593,0.125426925
1764767526.8040311,-3.69292,1.05294,0.62566,0.977841735,-0.04870593,0.125426925
1764767526.8040311,-3.69292,1.05294,0.62566,0.977841735,-0.04870593,0.125426925
1764767526.8040311,-3.46402,1.35814,1.28184,0.978696225,-0.04858386,0.126647625
1764767526.8040311,-3.46402,1.35814,1.28184,0.978696225,-0.04858386,0.126647625
1764767526.8040311,-3.46402,1.35814,1.28184,0.978696225,-0.04858386,0.126647625
1764767526.8040311,-3.46402,1.35814,1.28184,0.978696225,-0.04858386,0.126647625
1764767526.8040311,-3.46402,1.35814,1.28184,0.978696225,-0.04858386,0.126647625
1764767526.8040311,-3.46402,1.35814,1.28184,0.978696225,-0.04858386,0.126647625
1764767526.8040311,-3.46402,1.35814,1.28184,0.978696225,-0.04858386,0.126647625
1764767526.8040311,-3.46402,1.35814,1.28184,0.978696225,-0.04858386,0.126647625
1764767526.8040311,-3.46402,1.35814,1.28184,0.978696225,-0.04858386,0.126647625
1764767526.8040311,-3.46402,1.35814,1.28184,0.978696225,-0.04858386,0.126647625
1764767526.8040311,-3.23512,0.6867,1.58704,0.97717035,-0.04980456,0.126403485
1764767526.8040311,-3.23512,0.6867,1.58704,0.97717035,-0.04980456,0.126403485
1764767526.8040311,-3.23512,0.6867,1.58704,0.97717035,-0.04980456,0.126403485
1764767526.8040311,-3.23512,0.6867,1.58704,0.97717035,-0.04980456,0.126403485
1764767526.8040311,-3.23512,0.6867,1.58704,0.97717035,-0.04980456,0.126403485
1764767526.8040311,-3.23512,0.6867,1.58704,0.97717035,-0.04980456,0.126403485
1764767526.8040311,-3.23512,0.6867,1.58704,0.97717035,-0.04980456,0.126403485
1764767526.8040311,-3.23512,0.6867,1.58704,0.97717035,-0.04980456,0.126403485
1764767526.8040311,-3.23512,0.6867,1.58704,0.97717035,-0.04980456,0.126403485
1764767526.8040311,-3.23512,0.6867,1.58704,0.97717035,-0.04980456,0.126403485
1764767526.8494132,-3.14356,0.01526,1.70912,0.97692621,-0.05090319,0.126159345
1764767526.8494132,-3.14356,0.01526,1.70912,0.97692621,-0.05090319,0.126159345
1764767526.8494132,-3.14356,0.01526,1.70912,0.97692621,-0.05090319,0.126159345
1764767526.8494132,-3.14356,0.01526,1.70912,0.97692621,-0.05090319,0.126159345
1764767526.8494132,-3.14356,0.01526,1.70912,0.97692621,-0.05090319,0.126159345
1764767526.8494132,-3.14356,0.01526,1.70912,0.97692621,-0.05090319,0.126159345
1764767526.8494132,-3.14356,0.01526,1.70912,0.97692621,-0.05090319,0.126159345
1764767526.8494132,-3.14356,0.01526,1.70912,0.97692621,-0.05090319,0.126159345
1764767526.8494132,-3.14356,0.01526,1.70912,0.97692621,-0.05090319,0.126159345
1764767526.84992,-3.14356,0.01526,1.70912,0.97692621,-0.05090319,0.126159345
1764767526.84992,-2.91466,0.09156,1.17502,0.978574155,-0.051208365,0.12622038
1764767526.84992,-2.91466,0.09156,1.17502,0.978574155,-0.051208365,0.12622038
1764767526.84992,-2.91466,0.09156,1.17502,0.978574155,-0.051208365,0.12622038
1764767526.84992,-2.91466,0.09156,1.17502,0.978574155,-0.051208365,0.12622038
1764767526.84992,-2.91466,0.09156,1.17502,0.978574155,-0.051208365,0.12622038
1764767526.84992,-2.91466,0.09156,1.17502,0.978574155,-0.051208365,0.12622038
1764767526.84992,-2.91466,0.09156,1.17502,0.978574155,-0.051208365,0.12622038
1764767526.84992,-2.91466,0.09156,1.17502,0.978574155,-0.051208365,0.12622038
1764767526.84992,-2.91466,0.09156,1.17502,0.978574155,-0.051208365,0.12622038
1764767526.84992,-2.91466,0.09156,1.17502,0.978574155,-0.051208365,0.12622038
1764767526.84992,-3.09778,0.65618,0.62566,0.979672785,-0.05078112,0.125915205
1764767526.84992,-3.09778,0.65618,0.62566,0.979672785,-0.05078112,0.125915205
1764767526.84992,-3.09778,0.65618,0.62566,0.979672785,-0.05078112,0.125915205
1764767526.84992,-3.09778,0.65618,0.62566,0.979672785,-0.05078112,0.125915205
1764767526.8989742,-3.09778,0.65618,0.62566,0.979672785,-0.05078112,0.125915205
1764767526.8989742,-3.09778,0.65618,0.62566,0.979672785,-0.05078112,0.125915205
1764767526.8989742,-3.09778,0.65618,0.62566,0.979672785,-0.05078112,0.125915205
1764767526.8989742,-3.09778,0.65618,0.62566,0.979672785,-0.05078112,0.125915205
1764767526.8989742,-3.09778,0.65618,0.62566,0.979672785,-0.05078112,0.125915205
1764767526.8989742,-3.09778,0.65618,0.62566,0.979672785,-0.05078112,0.125915205
1764767526.8989742,-3.46402,1.28184,0.19838,0.978452085,-0.049621455,0.125304855
1764767526.8989742,-3.46402,1.28184,0.19838,0.978452085,-0.049621455,0.125304855
1764767526.8989742,-3.46402,1.28184,0.19838,0.978452085,-0.049621455,0.125304855
1764767526.8989742,-3.46402,1.28184,0.19838,0.978452085,-0.049621455,0.125304855
1764767526.8989742,-3.46402,1.28184,0.19838,0.978452085,-0.049621455,0.125304855
1764767526.8989742,-3.46402,1.28184,0.19838,0.978452085,-0.049621455,0.125304855
1764767526.8989742,-3.46402,1.28184,0.19838,0.978452085,-0.049621455,0.125304855
1764767526.8989742,-3.46402,1.28184,0.19838,0.978452085,-0.049621455,0.125304855
1764767526.8989742,-3.46402,1.28184,0.19838,0.978452085,-0.049621455,0.125304855
1764767526.8989742,-3.46402,1.28184,0.19838,0.978452085,-0.049621455,0.125304855
1764767526.8989742,-3.95234,1.0682,-0.51884,0.977963805,-0.04895007,0.12475554
1764767526.8989742,-3.95234,1.0682,-0.51884,0.977963805,-0.04895007,0.12475554
1764767526.8989742,-3.95234,1.0682,-0.51884,0.977963805,-0.04895007,0.12475554
1764767526.8989742,-3.95234,1.0682,-0.51884,0.977963805,-0.04895007,0.12475554
1764767526.8989742,-3.95234,1.0682,-0.51884,0.977963805,-0.04895007,0.12475554
1764767526.8989742,-3.95234,1.0682,-0.51884,0.977963805,-0.04895007,0.12475554
1764767526.8989742,-3.95234,1.0682,-0.51884,0.977963805,-0.04895007,0.12475554
1764767526.8989742,-3.95234,1.0682,-0.51884,0.977963805,-0.04895007,0.12475554
1764767526.9448428,-3.95234,1.0682,-0.51884,0.977963805,-0.04895007,0.12475554
1764767526.9448428,-3.95234,1.0682,-0.51884,0.977963805,-0.04895007,0.12475554
1764767526.9448428,-4.53222,1.4039199999999998,-0.5341,0.97839105,-0.04772937,0.125060715
1764767526.9448428,-4.53222,1.4039199999999998,-0.5341,0.97839105,-0.04772937,0.125060715
1764767526.9448428,-4.53222,1.4039199999999998,-0.5341,0.97839105,-0.04772937,0.125060715
1764767526.9448428,-4.53222,1.4039199999999998,-0.5341,0.97839105,-0.04772937,0.125060715
1764767526.9448428,-4.53222,1.4039199999999998,-0.5341,0.97839105,-0.04772937,0.125060715
1764767526.9448428,-4.53222,1.4039199999999998,-0.5341,0.97839105,-0.04772937,0.125060715
1764767526.9448428,-4.53222,1.4039199999999998,-0.5341,0.97839105,-0.04772937,0.125060715
1764767526.9448428,-4.53222,1.4039199999999998,-0.5341,0.97839105,-0.04772937,0.125060715
1764767526.9448428,-4.53222,1.4039199999999998,-0.5341,0.97839105,-0.04772937,0.125060715
1764767526.9448428,-4.53222,1.4039199999999998,-0.5341,0.97839105,-0.04772937,0.125060715
1764767526.9448428,-4.21176,1.6786,0.3815,0.978574155,-0.04772937,0.12561003
1764767526.9448428,-4.21176,1.6786,0.3815,0.978574155,-0.04772937,0.12561003
1764767526.9448428,-4.21176,1.6786,0.3815,0.978574155,-0.04772937,0.12561003
1764767526.9448428,-4.21176,1.6786,0.3815,0.978574155,-0.04772937,0.12561003
1764767526.9448428,-4.21176,1.6786,0.3815,0.978574155,-0.04772937,0.12561003
1764767526.9448428,-4.21176,1.6786,0.3815,0.978574155,-0.04772937,0.12561003
1764767526.9448428,-4.21176,1.6786,0.3815,0.978574155,-0.04772937,0.12561003
1764767526.9448428,-4.21176,1.6786,0.3815,0.978574155,-0.04772937,0.12561003
1764767526.9448428,-4.21176,1.6786,0.3815,0.978574155,-0.04772937,0.12561003
1764767526.9448428,-4.21176,1.6786,0.3815,0.978574155,-0.04772937,0.12561003
1764767526.9916575,-4.28806,1.19028,0.56462,0.978818295,-0.04772937,0.12585417
1764767526.9916575,-4.28806,1.19028,0.56462,0.978818295,-0.04772937,0.12585417
1764767526.9916575,-4.28806,1.19028,0.56462,0.978818295,-0.04772937,0.12585417
1764767526.9916575,-4.28806,1.19028,0.56462,0.978818295,-0.04772937,0.12585417
1764767526.9916575,-4.28806,1.19028,0.56462,0.978818295,-0.04772937,0.12585417
1764767526.9916575,-4.28806,1.19028,0.56462,0.978818295,-0.04772937,0.12585417
1764767526.9916575,-4.28806,1.19028,0.56462,0.978818295,-0.04772937,0.12585417
1764767526.9928355,-4.28806,1.19028,0.56462,0.978818295,-0.04772937,0.12585417
1764767526.9928355,-4.28806,1.19028,0.56462,0.978818295,-0.04772937,0.12585417
1764767526.9928355,-4.28806,1.19028,0.56462,0.978818295,-0.04772937,0.12585417
1764767526.9928355,-3.52506,1.35814,0.77826,0.979306575,-0.04821765,0.125915205
1764767526.9928355,-3.52506,1.35814,0.77826,0.979306575,-0.04821765,0.125915205
1764767526.9928355,-3.52506,1.35814,0.77826,0.979306575,-0.04821765,0.125915205
1764767526.9928355,-3.52506,1.35814,0.77826,0.979306575,-0.04821765,0.125915205
1764767526.9928355,-3.52506,1.35814,0.77826,0.979306575,-0.04821765,0.125915205
1764767526.9928355,-3.52506,1.35814,0.77826,0.979306575,-0.04821765,0.125915205
1764767526.9928355,-3.52506,1.35814,0.77826,0.979306575,-0.04821765,0.125915205
1764767526.9928355,-3.52506,1.35814,0.77826,0.979306575,-0.04821765,0.125915205
1764767526.9928355,-3.52506,1.35814,0.77826,0.979306575,-0.04821765,0.125915205
1764767526.9928355,-3.52506,1.35814,0.77826,0.979306575,-0.04821765,0.125915205
1764767526.9928355,-3.55558,1.00716,1.02242,0.97948968,-0.04919421,0.12658659
1764767526.9928355,-3.55558,1.00716,1.02242,0.97948968,-0.04919421,0.12658659
1764767526.9928355,-3.55558,1.00716,1.02242,0.97948968,-0.04919421,0.12658659
1764767526.9928355,-3.55558,1.00716,1.02242,0.97948968,-0.04919421,0.12658659
1764767527.0384798,-3.55558,1.00716,1.02242,0.97948968,-0.04919421,0.12658659
1764767527.0384798,-3.55558,1.00716,1.02242,0.97948968,-0.04919421,0.12658659
1764767527.0384798,-3.55558,1.00716,1.02242,0.97948968,-0.04919421,0.12658659
1764767527.0384798,-3.55558,1.00716,1.02242,0.97948968,-0.04919421,0.12658659
1764767527.0389855,-3.55558,1.00716,1.02242,0.97948968,-0.04919421,0.12658659
1764767527.0389855,-3.55558,1.00716,1.02242,0.97948968,-0.04919421,0.12658659
1764767527.0389855,-3.18934,0.93086,0.8698199999999999,0.978452085,-0.049377315,0.12658659
1764767527.0389855,-3.18934,0.93086,0.8698199999999999,0.978452085,-0.049377315,0.12658659
1764767527.0389855,-3.18934,0.93086,0.8698199999999999,0.978452085,-0.049377315,0.12658659
1764767527.0389855,-3.18934,0.93086,0.8698199999999999,0.978452085,-0.049377315,0.12658659
1764767527.0389855,-3.18934,0.93086,0.8698199999999999,0.978452085,-0.049377315,0.12658659
1764767527.0389855,-3.18934,0.93086,0.8698199999999999,0.978452085,-0.049377315,0.12658659
1764767527.0389855,-3.18934,0.93086,0.8698199999999999,0.978452085,-0.049377315,0.12658659
1764767527.0389855,-3.18934,0.93086,0.8698199999999999,0.978452085,-0.049377315,0.12658659
1764767527.0389855,-3.18934,0.93086,0.8698199999999999,0.978452085,-0.049377315,0.12658659
1764767527.0389855,-3.18934,0.93086,0.8698199999999999,0.978452085,-0.049377315,0.12658659
1764767527.0389855,-2.91466,0.59514,1.4497,0.977597595,-0.049255245,0.12670866
1764767527.0389855,-2.91466,0.59514,1.4497,0.977597595,-0.049255245,0.12670866
1764767527.0389855,-2.91466,0.59514,1.4497,0.977597595,-0.049255245,0.12670866
1764767527.0389855,-2.91466,0.59514,1.4497,0.977597595,-0.049255245,0.12670866
1764767527.0389855,-2.91466,0.59514,1.4497,0.977597595,-0.049255245,0.12670866
1764767527.0389855,-2.91466,0.59514,1.4497,0.977597595,-0.049255245,0.12670866
1764767527.0389855,-2.91466,0.59514,1.4497,0.977597595,-0.049255245,0.12670866
1764767527.0389855,-2.91466,0.59514,1.4497,0.977597595,-0.049255245,0.12670866
1764767527.084969,-2.91466,0.59514,1.4497,0.977597595,-0.049255245,0.12670866
1764767527.084969,-2.91466,0.59514,1.4497,0.977597595,-0.049255245,0.12670866
1764767527.084969,-3.29616,0.56462,1.3734,0.97765863,-0.048766965,0.12585417
1764767527.084969,-3.29616,0.56462,1.3734,0.97765863,-0.048766965,0.12585417
1764767527.084969,-3.29616,0.56462,1.3734,0.97765863,-0.048766965,0.12585417
1764767527.084969,-3.29616,0.56462,1.3734,0.97765863,-0.048766965,0.12585417
1764767527.084969,-3.29616,0.56462,1.3734,0.97765863,-0.048766965,0.12585417
1764767527.084969,-3.29616,0.56462,1.3734,0.97765863,-0.048766965,0.12585417
1764767527.084969,-3.29616,0.56462,1.3734,0.97765863,-0.048766965,0.12585417
1764767527.084969,-3.29616,0.56462,1.3734,0.97765863,-0.048766965,0.12585417
1764767527.084969,-3.29616,0.56462,1.3734,0.97765863,-0.048766965,0.12585417
1764767527.084969,-3.29616,0.56462,1.3734,0.97765863,-0.048766965,0.12585417
1764767527.084969,-3.18934,0.62566,1.43444,0.97753656,-0.048644895,0.125671065
1764767527.084969,-3.18934,0.62566,1.43444,0.97753656,-0.048644895,0.125671065
1764767527.084969,-3.18934,0.62566,1.43444,0.97753656,-0.048644895,0.125671065
1764767527.084969,-3.18934,0.62566,1.43444,0.97753656,-0.048644895,0.125671065
1764767527.084969,-3.18934,0.62566,1.43444,0.97753656,-0.048644895,0.125671065
1764767527.084969,-3.18934,0.62566,1.43444,0.97753656,-0.048644895,0.125671065
1764767527.084969,-3.18934,0.62566,1.43444,0.97753656,-0.048644895,0.125671065
1764767527.084969,-3.18934,0.62566,1.43444,0.97753656,-0.048644895,0.125671065
1764767527.084969,-3.18934,0.62566,1.43444,0.97753656,-0.048644895,0.125671065
1764767527.084969,-3.18934,0.62566,1.43444,0.97753656,-0.048644895,0.125671065
1764767527.084969,-3.38772,0.82404,1.96854,0.977475525,-0.04895007,0.12536589
1764767527.084969,-3.38772,0.82404,1.96854,0.977475525,-0.04895007,0.12536589
1764767527.1315863,-3.38772,0.82404,1.96854,0.977475525,-0.04895007,0.12536589
1764767527.1315863,-3.38772,0.82404,1.96854,0.977475525,-0.04895007,0.12536589
1764767527.1315863,-3.38772,0.82404,1.96854,0.977475525,-0.04895007,0.12536589
1764767527.1315863,-3.38772,0.82404,1.96854,0.977475525,-0.04895007,0.12536589
1764767527.1315863,-3.38772,0.82404,1.96854,0.977475525,-0.04895007,0.12536589
1764767527.1315863,-3.38772,0.82404,1.96854,0.977475525,-0.04895007,0.12536589
1764767527.1315863,-3.38772,0.82404,1.96854,0.977475525,-0.04895007,0.12536589
1764767527.1315863,-3.38772,0.82404,1.96854,0.977475525,-0.04895007,0.12536589
1764767527.1315863,-3.5861,0.6867,1.96854,0.978330015,-0.050109735,0.1245114
1764767527.1315863,-3.5861,0.6867,1.96854,0.978330015,-0.050109735,0.1245114
1764767527.1315863,-3.5861,0.6867,1.96854,0.978330015,-0.050109735,0.1245114
1764767527.1315863,-3.5861,0.6867,1.96854,0.978330015,-0.050109735,0.1245114
1764767527.1315863,-3.5861,0.6867,1.96854,0.978330015,-0.050109735,0.1245114
1764767527.1315863,-3.5861,0.6867,1.96854,0.978330015,-0.050109735,0.1245114
1764767527.1315863,-3.5861,0.6867,1.96854,0.978330015,-0.050109735,0.1245114
1764767527.1315863,-3.5861,0.6867,1.96854,0.978330015,-0.050109735,0.1245114
1764767527.132594,-3.5861,0.6867,1.96854,0.978330015,-0.050109735,0.1245114
1764767527.132594,-3.5861,0.6867,1.96854,0.978330015,-0.050109735,0.1245114
1764767527.132594,-3.25038,0.42728,1.63282,0.97851312,-0.051086295,0.124084155
1764767527.132594,-3.25038,0.42728,1.63282,0.97851312,-0.051086295,0.124084155
1764767527.132594,-3.25038,0.42728,1.63282,0.97851312,-0.051086295,0.124084155
1764767527.132594,-3.25038,0.42728,1.63282,0.97851312,-0.051086295,0.124084155
1764767527.1785522,-3.25038,0.42728,1.63282,0.97851312,-0.051086295,0.124084155
1764767527.1785522,-3.25038,0.42728,1.63282,0.97851312,-0.051086295,0.124084155
1764767527.1785522,-3.25038,0.42728,1.63282,0.97851312,-0.051086295,0.124084155
1764767527.1785522,-3.25038,0.42728,1.63282,0.97851312,-0.051086295,0.124084155
1764767527.1785522,-3.25038,0.42728,1.63282,0.97851312,-0.051086295,0.124084155
1764767527.1785522,-3.25038,0.42728,1.63282,0.97851312,-0.051086295,0.124084155
1764767527.1785522,-2.80784,0.85456,1.35814,0.97851312,-0.05212389,0.12414519
1764767527.1785522,-2.80784,0.85456,1.35814,0.97851312,-0.05212389,0.12414519
1764767527.1785522,-2.80784,0.85456,1.35814,0.97851312,-0.05212389,0.12414519
1764767527.1785522,-2.80784,0.85456,1.35814,0.97851312,-0.05212389,0.12414519
1764767527.1785522,-2.80784,0.85456,1.35814,0.97851312,-0.05212389,0.12414519
1764767527.1785522,-2.80784,0.85456,1.35814,0.97851312,-0.05212389,0.12414519
1764767527.1785522,-2.80784,0.85456,1.35814,0.97851312,-0.05212389,0.12414519
1764767527.179073,-2.80784,0.85456,1.35814,0.97851312,-0.05212389,0.12414519
1764767527.179073,-2.80784,0.85456,1.35814,0.97851312,-0.05212389,0.12414519
1764767527.179073,-2.80784,0.85456,1.35814,0.97851312,-0.05212389,0.12414519
1764767527.179073,-3.4335,1.15976,0.7019599999999999,0.97936761,-0.05224596,0.123962085
1764767527.179073,-3.4335,1.15976,0.7019599999999999,0.97936761,-0.05224596,0.123962085
1764767527.179073,-3.4335,1.15976,0.7019599999999999,0.97936761,-0.05224596,0.123962085
1764767527.179073,-3.4335,1.15976,0.7019599999999999,0.97936761,-0.05224596,0.123962085
1764767527.179073,-3.4335,1.15976,0.7019599999999999,0.97936761,-0.05224596,0.123962085
1764767527.179073,-3.4335,1.15976,0.7019599999999999,0.97936761,-0.05224596,0.123962085
1764767527.2235217,-3.4335,1.15976,0.7019599999999999,0.97936761,-0.05224596,0.123962085
1764767527.2235217,-3.4335,1.15976,0.7019599999999999,0.97936761,-0.05224596,0.123962085
1764767527.2235217,-3.4335,1.15976,0.7019599999999999,0.97936761,-0.05224596,0.123962085
1764767527.2235217,-3.4335,1.15976,0.7019599999999999,0.97936761,-0.05224596,0.123962085
1764767527.224027,-3.69292,1.32762,0.06104,0.97985589,-0.05139147,0.12426726
1764767527.224027,-3.69292,1.32762,0.06104,0.97985589,-0.05139147,0.12426726
1764767527.224027,-3.69292,1.32762,0.06104,0.97985589,-0.05139147,0.12426726
1764767527.224027,-3.69292,1.32762,0.06104,0.97985589,-0.05139147,0.12426726
1764767527.224027,-3.69292,1.32762,0.06104,0.97985589,-0.05139147,0.12426726
1764767527.224027,-3.69292,1.32762,0.06104,0.97985589,-0.05139147,0.12426726
1764767527.224027,-3.69292,1.32762,0.06104,0.97985589,-0.05139147,0.12426726
1764767527.224027,-3.69292,1.32762,0.06104,0.97985589,-0.05139147,0.12426726
1764767527.224027,-3.69292,1.32762,0.06104,0.97985589,-0.05139147,0.12426726
1764767527.224027,-3.69292,1.32762,0.06104,0.97985589,-0.05139147,0.12426726
1764767527.224027,-3.52506,1.70912,-0.12208,0.9802221,-0.050964225,0.1245114
1764767527.224027,-3.52506,1.70912,-0.12208,0.9802221,-0.050964225,0.1245114
1764767527.224027,-3.52506,1.70912,-0.12208,0.9802221,-0.050964225,0.1245114
1764767527.224027,-3.52506,1.70912,-0.12208,0.9802221,-0.050964225,0.1245114
1764767527.224027,-3.52506,1.70912,-0.12208,0.9802221,-0.050964225,0.1245114
1764767527.224027,-3.52506,1.70912,-0.12208,0.9802221,-0.050964225,0.1245114
1764767527.224027,-3.52506,1.70912,-0.12208,0.9802221,-0.050964225,0.1245114
1764767527.224027,-3.52506,1.70912,-0.12208,0.9802221,-0.050964225,0.1245114
1764767527.224027,-3.52506,1.70912,-0.12208,0.9802221,-0.050964225,0.1245114
1764767527.224027,-3.52506,1.70912,-0.12208,0.9802221,-0.050964225,0.1245114
1764767527.2705276,-3.76922,1.89224,-0.3815,0.97887933,-0.049987665,0.125426925
1764767527.2705276,-3.76922,1.89224,-0.3815,0.97887933,-0.049987665,0.125426925
1764767527.2705276,-3.76922,1.89224,-0.3815,0.97887933,-0.049987665,0.125426925
1764767527.2705276,-3.76922,1.89224,-0.3815,0.97887933,-0.049987665,0.125426925
1764767527.2705276,-3.76922,1.89224,-0.3815,0.97887933,-0.049987665,0.125426925
1764767527.2705276,-3.76922,1.89224,-0.3815,0.97887933,-0.049987665,0.125426925
1764767527.2705276,-3.76922,1.89224,-0.3815,0.97887933,-0.049987665,0.125426925
1764767527.2705276,-3.76922,1.89224,-0.3815,0.97887933,-0.049987665,0.125426925
1764767527.2705276,-3.76922,1.89224,-0.3815,0.97887933,-0.049987665,0.125426925
1764767527.2705276,-3.76922,1.89224,-0.3815,0.97887933,-0.049987665,0.125426925
1764767527.2705276,-4.0439,1.73964,0.4578,0.9777807,-0.0500487,0.12646452
1764767527.2705276,-4.0439,1.73964,0.4578,0.9777807,-0.0500487,0.12646452
1764767527.2705276,-4.0439,1.73964,0.4578,0.9777807,-0.0500487,0.12646452
1764767527.2710464,-4.0439,1.73964,0.4578,0.9777807,-0.0500487,0.12646452
1764767527.2710464,-4.0439,1.73964,0.4578,0.9777807,-0.0500487,0.12646452
1764767527.2710464,-4.0439,1.73964,0.4578,0.9777807,-0.0500487,0.12646452
1764767527.2710464,-4.0439,1.73964,0.4578,0.9777807,-0.0500487,0.12646452
1764767527.2710464,-4.0439,1.73964,0.4578,0.9777807,-0.0500487,0.12646452
1764767527.2710464,-4.0439,1.73964,0.4578,0.9777807,-0.0500487,0.12646452
1764767527.2710464,-4.0439,1.73964,0.4578,0.9777807,-0.0500487,0.12646452
1764767527.2710464,-3.78448,0.97664,0.27468,0.97680414,-0.049865595,0.127257975
1764767527.2710464,-3.78448,0.97664,0.27468,0.97680414,-0.049865595,0.127257975
1764767527.2710464,-3.78448,0.97664,0.27468,0.97680414,-0.049865595,0.127257975
1764767527.2710464,-3.78448,0.97664,0.27468,0.97680414,-0.049865595,0.127257975
1764767527.316609,-3.78448,0.97664,0.27468,0.97680414,-0.049865595,0.127257975
1764767527.3171258,-3.78448,0.97664,0.27468,0.97680414,-0.049865595,0.127257975
1764767527.3171258,-3.78448,0.97664,0.27468,0.97680414,-0.049865595,0.127257975
1764767527.3171258,-3.78448,0.97664,0.27468,0.97680414,-0.049865595,0.127257975
1764767527.3171258,-3.78448,0.97664,0.27468,0.97680414,-0.049865595,0.127257975
1764767527.3171258,-3.78448,0.97664,0.27468,0.97680414,-0.049865595,0.127257975
1764767527.3171258,-3.63188,0.50358,-0.13734,0.976254825,-0.049743525,0.127990395
1764767527.3171258,-3.63188,0.50358,-0.13734,0.976254825,-0.049743525,0.127990395
1764767527.3171258,-3.63188,0.50358,-0.13734,0.976254825,-0.049743525,0.127990395
1764767527.3171258,-3.63188,0.50358,-0.13734,0.976254825,-0.049743525,0.127990395
1764767527.3171258,-3.63188,0.50358,-0.13734,0.976254825,-0.049743525,0.127990395
1764767527.3171258,-3.63188,0.50358,-0.13734,0.976254825,-0.049743525,0.127990395
1764767527.3171258,-3.63188,0.50358,-0.13734,0.976254825,-0.049743525,0.127990395
1764767527.3171258,-3.63188,0.50358,-0.13734,0.976254825,-0.049743525,0.127990395
1764767527.3171258,-3.63188,0.50358,-0.13734,0.976254825,-0.049743525,0.127990395
1764767527.3176432,-3.63188,0.50358,-0.13734,0.976254825,-0.049743525,0.127990395
1764767527.3176432,-3.38772,0.3204599999999999,-0.5341,0.97741449,-0.04968249,0.128478675
1764767527.3176432,-3.38772,0.3204599999999999,-0.5341,0.97741449,-0.04968249,0.128478675
1764767527.3176432,-3.38772,0.3204599999999999,-0.5341,0.97741449,-0.04968249,0.128478675
1764767527.3176432,-3.38772,0.3204599999999999,-0.5341,0.97741449,-0.04968249,0.128478675
1764767527.3176432,-3.38772,0.3204599999999999,-0.5341,0.97741449,-0.04968249,0.128478675
1764767527.3176432,-3.38772,0.3204599999999999,-0.5341,0.97741449,-0.04968249,0.128478675
1764767527.3176432,-3.38772,0.3204599999999999,-0.5341,0.97741449,-0.04968249,0.128478675
1764767527.3176432,-3.38772,0.3204599999999999,-0.5341,0.97741449,-0.04968249,0.128478675
1764767527.3635485,-3.38772,0.3204599999999999,-0.5341,0.97741449,-0.04968249,0.128478675
1764767527.3635485,-3.38772,0.3204599999999999,-0.5341,0.97741449,-0.04968249,0.128478675
1764767527.3635485,-3.61662,0.4578,0.2289,0.978207945,-0.04919421,0.127380045
1764767527.3635485,-3.61662,0.4578,0.2289,0.978207945,-0.04919421,0.127380045
1764767527.3635485,-3.61662,0.4578,0.2289,0.978207945,-0.04919421,0.127380045
1764767527.3635485,-3.61662,0.4578,0.2289,0.978207945,-0.04919421,0.127380045
1764767527.3635485,-3.61662,0.4578,0.2289,0.978207945,-0.04919421,0.127380045
1764767527.3635485,-3.61662,0.4578,0.2289,0.978207945,-0.04919421,0.127380045
1764767527.3640556,-3.61662,0.4578,0.2289,0.978207945,-0.04919421,0.127380045
1764767527.3640556,-3.61662,0.4578,0.2289,0.978207945,-0.04919421,0.127380045
1764767527.3640556,-3.61662,0.4578,0.2289,0.978207945,-0.04919421,0.127380045
1764767527.3640556,-3.61662,0.4578,0.2289,0.978207945,-0.04919421,0.127380045
1764767527.3640556,-3.76922,0.3509799999999999,0.6103999999999999,0.978207945,-0.04846179,0.127135905
1764767527.3640556,-3.76922,0.3509799999999999,0.6103999999999999,0.978207945,-0.04846179,0.127135905
1764767527.3640556,-3.76922,0.3509799999999999,0.6103999999999999,0.978207945,-0.04846179,0.127135905
1764767527.3640556,-3.76922,0.3509799999999999,0.6103999999999999,0.978207945,-0.04846179,0.127135905
1764767527.3640556,-3.76922,0.3509799999999999,0.6103999999999999,0.978207945,-0.04846179,0.127135905
1764767527.3640556,-3.76922,0.3509799999999999,0.6103999999999999,0.978207945,-0.04846179,0.127135905
1764767527.3640556,-3.76922,0.3509799999999999,0.6103999999999999,0.978207945,-0.04846179,0.127135905
1764767527.3640556,-3.76922,0.3509799999999999,0.6103999999999999,0.978207945,-0.04846179,0.127135905
1764767527.3640556,-3.76922,0.3509799999999999,0.6103999999999999,0.978207945,-0.04846179,0.127135905
1764767527.3640556,-3.76922,0.3509799999999999,0.6103999999999999,0.978207945,-0.04846179,0.127135905
1764767527.40982,-3.84552,0.79352,0.57988,0.979062435,-0.047668335,0.12646452
1764767527.40982,-3.84552,0.79352,0.57988,0.979062435,-0.047668335,0.12646452
1764767527.40982,-3.84552,0.79352,0.57988,0.979062435,-0.047668335,0.12646452
1764767527.4103255,-3.84552,0.79352,0.57988,0.979062435,-0.047668335,0.12646452
1764767527.4103255,-3.84552,0.79352,0.57988,0.979062435,-0.047668335,0.12646452
1764767527.4103255,-3.84552,0.79352,0.57988,0.979062435,-0.047668335,0.12646452
1764767527.4103255,-3.84552,0.79352,0.57988,0.979062435,-0.047668335,0.12646452
1764767527.4103255,-3.84552,0.79352,0.57988,0.979062435,-0.047668335,0.12646452
1764767527.4103255,-3.84552,0.79352,0.57988,0.979062435,-0.047668335,0.12646452
1764767527.4103255,-3.84552,0.79352,0.57988,0.979062435,-0.047668335,0.12646452
1764767527.4103255,-3.76922,0.8087799999999999,0.6103999999999999,0.978574155,-0.04748523,0.1257321
1764767527.4103255,-3.76922,0.8087799999999999,0.6103999999999999,0.978574155,-0.04748523,0.1257321
1764767527.4103255,-3.76922,0.8087799999999999,0.6103999999999999,0.978574155,-0.04748523,0.1257321
1764767527.4103255,-3.76922,0.8087799999999999,0.6103999999999999,0.978574155,-0.04748523,0.1257321
1764767527.4103255,-3.76922,0.8087799999999999,0.6103999999999999,0.978574155,-0.04748523,0.1257321
1764767527.4103255,-3.76922,0.8087799999999999,0.6103999999999999,0.978574155,-0.04748523,0.1257321
1764767527.4103255,-3.76922,0.8087799999999999,0.6103999999999999,0.978574155,-0.04748523,0.1257321
1764767527.4103255,-3.76922,0.8087799999999999,0.6103999999999999,0.978574155,-0.04748523,0.1257321
1764767527.4103255,-3.76922,0.8087799999999999,0.6103999999999999,0.978574155,-0.04748523,0.1257321
1764767527.4103255,-3.76922,0.8087799999999999,0.6103999999999999,0.978574155,-0.04748523,0.1257321
1764767527.4103255,-3.4335,0.763,0.97664,0.978940365,-0.048278685,0.125793135
1764767527.4108377,-3.4335,0.763,0.97664,0.978940365,-0.048278685,0.125793135
1764767527.4108377,-3.4335,0.763,0.97664,0.978940365,-0.048278685,0.125793135
1764767527.4108377,-3.4335,0.763,0.97664,0.978940365,-0.048278685,0.125793135
1764767527.4559393,-3.4335,0.763,0.97664,0.978940365,-0.048278685,0.125793135
1764767527.4559393,-3.4335,0.763,0.97664,0.978940365,-0.048278685,0.125793135
1764767527.4559393,-3.4335,0.763,0.97664,0.978940365,-0.048278685,0.125793135
1764767527.4559393,-3.4335,0.763,0.97664,0.978940365,-0.048278685,0.125793135
1764767527.4559393,-3.4335,0.763,0.97664,0.978940365,-0.048278685,0.125793135
1764767527.4559393,-3.4335,0.763,0.97664,0.978940365,-0.048278685,0.125793135
1764767527.4559393,-3.32668,0.94612,0.96138,0.979184505,-0.04919421,0.12634245
1764767527.4559393,-3.32668,0.94612,0.96138,0.979184505,-0.04919421,0.12634245
1764767527.4564457,-3.32668,0.94612,0.96138,0.979184505,-0.04919421,0.12634245
1764767527.4564457,-3.32668,0.94612,0.96138,0.979184505,-0.04919421,0.12634245
1764767527.4564457,-3.32668,0.94612,0.96138,0.979184505,-0.04919421,0.12634245
1764767527.4564457,-3.32668,0.94612,0.96138,0.979184505,-0.04919421,0.12634245
1764767527.4564457,-3.32668,0.94612,0.96138,0.979184505,-0.04919421,0.12634245
1764767527.4564457,-3.32668,0.94612,0.96138,0.979184505,-0.04919421,0.12634245
1764767527.4564457,-3.32668,0.94612,0.96138,0.979184505,-0.04919421,0.12634245
1764767527.4564457,-3.32668,0.94612,0.96138,0.979184505,-0.04919421,0.12634245
1764767527.4564457,-2.96044,0.9003399999999999,0.6409199999999999,0.978574155,-0.04980456,0.12622038
1764767527.4564457,-2.96044,0.9003399999999999,0.6409199999999999,0.978574155,-0.04980456,0.12622038
1764767527.4564457,-2.96044,0.9003399999999999,0.6409199999999999,0.978574155,-0.04980456,0.12622038
1764767527.4564457,-2.96044,0.9003399999999999,0.6409199999999999,0.978574155,-0.04980456,0.12622038
1764767527.4564457,-2.96044,0.9003399999999999,0.6409199999999999,0.978574155,-0.04980456,0.12622038
1764767527.4564457,-2.96044,0.9003399999999999,0.6409199999999999,0.978574155,-0.04980456,0.12622038
1764767527.5036807,-2.96044,0.9003399999999999,0.6409199999999999,0.978574155,-0.04980456,0.12622038
1764767527.5036807,-2.96044,0.9003399999999999,0.6409199999999999,0.978574155,-0.04980456,0.12622038
1764767527.5036807,-2.96044,0.9003399999999999,0.6409199999999999,0.978574155,-0.04980456,0.12622038
1764767527.5036807,-2.96044,0.9003399999999999,0.6409199999999999,0.978574155,-0.04980456,0.12622038
1764767527.5036807,-3.09778,0.57988,0.51884,0.979062435,-0.04956042,0.125793135
1764767527.5036807,-3.09778,0.57988,0.51884,0.979062435,-0.04956042,0.125793135
1764767527.5036807,-3.09778,0.57988,0.51884,0.979062435,-0.04956042,0.125793135
1764767527.5036807,-3.09778,0.57988,0.51884,0.979062435,-0.04956042,0.125793135
1764767527.5036807,-3.09778,0.57988,0.51884,0.979062435,-0.04956042,0.125793135
1764767527.5036807,-3.09778,0.57988,0.51884,0.979062435,-0.04956042,0.125793135
1764767527.5036807,-3.09778,0.57988,0.51884,0.979062435,-0.04956042,0.125793135
1764767527.5036807,-3.09778,0.57988,0.51884,0.979062435,-0.04956042,0.125793135
1764767527.5036807,-3.09778,0.57988,0.51884,0.979062435,-0.04956042,0.125793135
1764767527.5052302,-3.09778,0.57988,0.51884,0.979062435,-0.04956042,0.125793135
1764767527.5052302,-3.02148,0.85456,0.09156,0.97912347,-0.04895007,0.125915205
1764767527.5052302,-3.02148,0.85456,0.09156,0.97912347,-0.04895007,0.125915205
1764767527.5052302,-3.02148,0.85456,0.09156,0.97912347,-0.04895007,0.125915205
1764767527.5052302,-3.02148,0.85456,0.09156,0.97912347,-0.04895007,0.125915205
1764767527.5057533,-3.02148,0.85456,0.09156,0.97912347,-0.04895007,0.125915205
1764767527.5057533,-3.02148,0.85456,0.09156,0.97912347,-0.04895007,0.125915205
1764767527.5057533,-3.02148,0.85456,0.09156,0.97912347,-0.04895007,0.125915205
1764767527.5057533,-3.02148,0.85456,0.09156,0.97912347,-0.04895007,0.125915205
1764767527.5057533,-3.02148,0.85456,0.09156,0.97912347,-0.04895007,0.125915205
1764767527.5057533,-3.02148,0.85456,0.09156,0.97912347,-0.04895007,0.125915205
1764767527.5530934,-3.54032,0.9919,0.24416,0.979306575,-0.04809558,0.12609831
1764767527.5530934,-3.54032,0.9919,0.24416,0.979306575,-0.04809558,0.12609831
1764767527.5530934,-3.54032,0.9919,0.24416,0.979306575,-0.04809558,0.12609831
1764767527.5530934,-3.54032,0.9919,0.24416,0.979306575,-0.04809558,0.12609831
1764767527.5530934,-3.54032,0.9919,0.24416,0.979306575,-0.04809558,0.12609831
1764767527.5530934,-3.54032,0.9919,0.24416,0.979306575,-0.04809558,0.12609831
1764767527.5530934,-3.54032,0.9919,0.24416,0.979306575,-0.04809558,0.12609831
1764767527.5530934,-3.54032,0.9919,0.24416,0.979306575,-0.04809558,0.12609831
1764767527.5530934,-3.54032,0.9919,0.24416,0.979306575,-0.04809558,0.12609831
1764767527.5530934,-3.54032,0.9919,0.24416,0.979306575,-0.04809558,0.12609831
1764767527.5530934,-4.13546,0.763,0.28994,0.97875726,-0.046935915,0.125793135
1764767527.5530934,-4.13546,0.763,0.28994,0.97875726,-0.046935915,0.125793135
1764767527.5530934,-4.13546,0.763,0.28994,0.97875726,-0.046935915,0.125793135
1764767527.5530934,-4.13546,0.763,0.28994,0.97875726,-0.046935915,0.125793135
1764767527.5530934,-4.13546,0.763,0.28994,0.97875726,-0.046935915,0.125793135
1764767527.5530934,-4.13546,0.763,0.28994,0.97875726,-0.046935915,0.125793135
1764767527.5530934,-4.13546,0.763,0.28994,0.97875726,-0.046935915,0.125793135
1764767527.5530934,-4.13546,0.763,0.28994,0.97875726,-0.046935915,0.125793135
1764767527.5530934,-4.13546,0.763,0.28994,0.97875726,-0.046935915,0.125793135
1764767527.5530934,-4.13546,0.763,0.28994,0.97875726,-0.046935915,0.125793135
1764767527.5530934,-4.10494,0.50358,0.50358,0.97790277,-0.04663074,0.126037275
1764767527.5530934,-4.10494,0.50358,0.50358,0.97790277,-0.04663074,0.126037275
1764767527.5530934,-4.10494,0.50358,0.50358,0.97790277,-0.04663074,0.126037275
1764767527.5530934,-4.10494,0.50358,0.50358,0.97790277,-0.04663074,0.126037275
1764767527.5988536,-4.10494,0.50358,0.50358,0.97790277,-0.04663074,0.126037275
1764767527.5988536,-4.10494,0.50358,0.50358,0.97790277,-0.04663074,0.126037275
1764767527.5988536,-4.10494,0.50358,0.50358,0.97790277,-0.04663074,0.126037275
1764767527.5988536,-4.10494,0.50358,0.50358,0.97790277,-0.04663074,0.126037275
1764767527.5988536,-4.10494,0.50358,0.50358,0.97790277,-0.04663074,0.126037275
1764767527.5988536,-4.10494,0.50358,0.50358,0.97790277,-0.04663074,0.126037275
1764767527.5988536,-4.60852,0.3815,0.5341,0.977597595,-0.047180055,0.125426925
1764767527.5988536,-4.60852,0.3815,0.5341,0.977597595,-0.047180055,0.125426925
1764767527.5988536,-4.60852,0.3815,0.5341,0.977597595,-0.047180055,0.125426925
1764767527.5988536,-4.60852,0.3815,0.5341,0.977597595,-0.047180055,0.125426925
1764767527.5988536,-4.60852,0.3815,0.5341,0.977597595,-0.047180055,0.125426925
1764767527.5988536,-4.60852,0.3815,0.5341,0.977597595,-0.047180055,0.125426925
1764767527.5988536,-4.60852,0.3815,0.5341,0.977597595,-0.047180055,0.125426925
1764767527.5988536,-4.60852,0.3815,0.5341,0.977597595,-0.047180055,0.125426925
1764767527.5988536,-4.60852,0.3815,0.5341,0.977597595,-0.047180055,0.125426925
1764767527.5988536,-4.60852,0.3815,0.5341,0.977597595,-0.047180055,0.125426925
1764767527.5993717,-4.440659999999999,0.94612,0.9156,0.978330015,-0.047424195,0.12548796
1764767527.5993717,-4.440659999999999,0.94612,0.9156,0.978330015,-0.047424195,0.12548796
1764767527.5993717,-4.440659999999999,0.94612,0.9156,0.978330015,-0.047424195,0.12548796
1764767527.5993717,-4.440659999999999,0.94612,0.9156,0.978330015,-0.047424195,0.12548796
1764767527.5993717,-4.440659999999999,0.94612,0.9156,0.978330015,-0.047424195,0.12548796
1764767527.5993717,-4.440659999999999,0.94612,0.9156,0.978330015,-0.047424195,0.12548796
1764767527.5993717,-4.440659999999999,0.94612,0.9156,0.978330015,-0.047424195,0.12548796
1764767527.5993717,-4.440659999999999,0.94612,0.9156,0.978330015,-0.047424195,0.12548796
1764767527.6455784,-4.440659999999999,0.94612,0.9156,0.978330015,-0.047424195,0.12548796
1764767527.6455784,-4.440659999999999,0.94612,0.9156,0.978330015,-0.047424195,0.12548796
1764767527.6455784,-3.99812,0.56462,1.2055399999999998,0.978085875,-0.04895007,0.12524382
1764767527.6455784,-3.99812,0.56462,1.2055399999999998,0.978085875,-0.04895007,0.12524382
1764767527.6455784,-3.99812,0.56462,1.2055399999999998,0.978085875,-0.04895007,0.12524382
1764767527.6455784,-3.99812,0.56462,1.2055399999999998,0.978085875,-0.04895007,0.12524382
1764767527.6455784,-3.99812,0.56462,1.2055399999999998,0.978085875,-0.04895007,0.12524382
1764767527.6455784,-3.99812,0.56462,1.2055399999999998,0.978085875,-0.04895007,0.12524382
1764767527.6455784,-3.99812,0.56462,1.2055399999999998,0.978085875,-0.04895007,0.12524382
1764767527.6455784,-3.99812,0.56462,1.2055399999999998,0.978085875,-0.04895007,0.12524382
1764767527.6455784,-3.99812,0.56462,1.2055399999999998,0.978085875,-0.04895007,0.12524382
1764767527.6455784,-3.99812,0.56462,1.2055399999999998,0.978085875,-0.04895007,0.12524382
1764767527.6455784,-3.52506,0.27468,1.09872,0.977841735,-0.04931628,0.12499968
1764767527.6455784,-3.52506,0.27468,1.09872,0.977841735,-0.04931628,0.12499968
1764767527.6455784,-3.52506,0.27468,1.09872,0.977841735,-0.04931628,0.12499968
1764767527.6455784,-3.52506,0.27468,1.09872,0.977841735,-0.04931628,0.12499968
1764767527.6455784,-3.52506,0.27468,1.09872,0.977841735,-0.04931628,0.12499968
1764767527.6455784,-3.52506,0.27468,1.09872,0.977841735,-0.04931628,0.12499968
1764767527.6455784,-3.52506,0.27468,1.09872,0.977841735,-0.04931628,0.12499968
1764767527.6455784,-3.52506,0.27468,1.09872,0.977841735,-0.04931628,0.12499968
1764767527.6455784,-3.52506,0.27468,1.09872,0.977841735,-0.04931628,0.12499968
1764767527.6455784,-3.52506,0.27468,1.09872,0.977841735,-0.04931628,0.12499968
1764767527.6923976,-3.815,0.6867,1.51074,0.97851312,-0.050109735,0.12548796
1764767527.6923976,-3.815,0.6867,1.51074,0.97851312,-0.050109735,0.12548796
1764767527.6923976,-3.815,0.6867,1.51074,0.97851312,-0.050109735,0.12548796
1764767527.692908,-3.815,0.6867,1.51074,0.97851312,-0.050109735,0.12548796
1764767527.692908,-3.815,0.6867,1.51074,0.97851312,-0.050109735,0.12548796
1764767527.692908,-3.815,0.6867,1.51074,0.97851312,-0.050109735,0.12548796
1764767527.692908,-3.815,0.6867,1.51074,0.97851312,-0.050109735,0.12548796
1764767527.692908,-3.815,0.6867,1.51074,0.97851312,-0.050109735,0.12548796
1764767527.692908,-3.815,0.6867,1.51074,0.97851312,-0.050109735,0.12548796
1764767527.692908,-3.815,0.6867,1.51074,0.97851312,-0.050109735,0.12548796
1764767527.692908,-3.46402,1.11398,0.8087799999999999,0.979916925,-0.049133175,0.124694505
1764767527.692908,-3.46402,1.11398,0.8087799999999999,0.979916925,-0.049133175,0.124694505
1764767527.692908,-3.46402,1.11398,0.8087799999999999,0.979916925,-0.049133175,0.124694505
1764767527.692908,-3.46402,1.11398,0.8087799999999999,0.979916925,-0.049133175,0.124694505
1764767527.692908,-3.46402,1.11398,0.8087799999999999,0.979916925,-0.049133175,0.124694505
1764767527.692908,-3.46402,1.11398,0.8087799999999999,0.979916925,-0.049133175,0.124694505
1764767527.692908,-3.46402,1.11398,0.8087799999999999,0.979916925,-0.049133175,0.124694505
1764767527.692908,-3.46402,1.11398,0.8087799999999999,0.979916925,-0.049133175,0.124694505
1764767527.692908,-3.46402,1.11398,0.8087799999999999,0.979916925,-0.049133175,0.124694505
1764767527.692908,-3.46402,1.11398,0.8087799999999999,0.979916925,-0.049133175,0.124694505
1764767527.692908,-4.1965,0.96138,0.65618,0.980161065,-0.04772937,0.124206225
1764767527.692908,-4.1965,0.96138,0.65618,0.980161065,-0.04772937,0.124206225
1764767527.7394893,-4.1965,0.96138,0.65618,0.980161065,-0.04772937,0.124206225
1764767527.7399938,-4.1965,0.96138,0.65618,0.980161065,-0.04772937,0.124206225
1764767527.7399938,-4.1965,0.96138,0.65618,0.980161065,-0.04772937,0.124206225
1764767527.7399938,-4.1965,0.96138,0.65618,0.980161065,-0.04772937,0.124206225
1764767527.7399938,-4.1965,0.96138,0.65618,0.980161065,-0.04772937,0.124206225
1764767527.7399938,-4.1965,0.96138,0.65618,0.980161065,-0.04772937,0.124206225
1764767527.7399938,-4.1965,0.96138,0.65618,0.980161065,-0.04772937,0.124206225
1764767527.7399938,-4.1965,0.96138,0.65618,0.980161065,-0.04772937,0.124206225
1764767527.7399938,-4.07442,0.94612,0.0762999999999999,0.97912347,-0.04772937,0.12426726
1764767527.7399938,-4.07442,0.94612,0.0762999999999999,0.97912347,-0.04772937,0.12426726
1764767527.7399938,-4.07442,0.94612,0.0762999999999999,0.97912347,-0.04772937,0.12426726
1764767527.7399938,-4.07442,0.94612,0.0762999999999999,0.97912347,-0.04772937,0.12426726
1764767527.7399938,-4.07442,0.94612,0.0762999999999999,0.97912347,-0.04772937,0.12426726
1764767527.7399938,-4.07442,0.94612,0.0762999999999999,0.97912347,-0.04772937,0.12426726
1764767527.7399938,-4.07442,0.94612,0.0762999999999999,0.97912347,-0.04772937,0.12426726
1764767527.7399938,-4.07442,0.94612,0.0762999999999999,0.97912347,-0.04772937,0.12426726
1764767527.7399938,-4.07442,0.94612,0.0762999999999999,0.97912347,-0.04772937,0.12426726
1764767527.7399938,-4.07442,0.94612,0.0762999999999999,0.97912347,-0.04772937,0.12426726
1764767527.7399938,-3.98286,1.41918,0.8087799999999999,0.979062435,-0.04772937,0.1245114
1764767527.7399938,-3.98286,1.41918,0.8087799999999999,0.979062435,-0.04772937,0.1245114
1764767527.7399938,-3.98286,1.41918,0.8087799999999999,0.979062435,-0.04772937,0.1245114
1764767527.7399938,-3.98286,1.41918,0.8087799999999999,0.979062435,-0.04772937,0.1245114
1764767527.7399938,-3.98286,1.41918,0.8087799999999999,0.979062435,-0.04772937,0.1245114
1764767527.7399938,-3.98286,1.41918,0.8087799999999999,0.979062435,-0.04772937,0.1245114
1764767527.7399938,-3.98286,1.41918,0.8087799999999999,0.979062435,-0.04772937,0.1245114
1764767527.7399938,-3.98286,1.41918,0.8087799999999999,0.979062435,-0.04772937,0.1245114
1764767527.7863436,-3.98286,1.41918,0.8087799999999999,0.979062435,-0.04772937,0.1245114
1764767527.7863436,-3.98286,1.41918,0.8087799999999999,0.979062435,-0.04772937,0.1245114
1764767527.7863436,-3.67766,1.28184,0.763,0.97851312,-0.04833972,0.125060715
1764767527.7863436,-3.67766,1.28184,0.763,0.97851312,-0.04833972,0.125060715
1764767527.7863436,-3.67766,1.28184,0.763,0.97851312,-0.04833972,0.125060715
1764767527.7863436,-3.67766,1.28184,0.763,0.97851312,-0.04833972,0.125060715
1764767527.7863436,-3.67766,1.28184,0.763,0.97851312,-0.04833972,0.125060715
1764767527.7863436,-3.67766,1.28184,0.763,0.97851312,-0.04833972,0.125060715
1764767527.7863436,-3.67766,1.28184,0.763,0.97851312,-0.04833972,0.125060715
1764767527.7863436,-3.67766,1.28184,0.763,0.97851312,-0.04833972,0.125060715
1764767527.7863436,-3.67766,1.28184,0.763,0.97851312,-0.04833972,0.125060715
1764767527.7863436,-3.67766,1.28184,0.763,0.97851312,-0.04833972,0.125060715
1764767527.7863436,-3.83026,0.6409199999999999,0.57988,0.97704828,-0.049255245,0.12499968
1764767527.7863436,-3.83026,0.6409199999999999,0.57988,0.97704828,-0.049255245,0.12499968
1764767527.7863436,-3.83026,0.6409199999999999,0.57988,0.97704828,-0.049255245,0.12499968
1764767527.7863436,-3.83026,0.6409199999999999,0.57988,0.97704828,-0.049255245,0.12499968
1764767527.7863436,-3.83026,0.6409199999999999,0.57988,0.97704828,-0.049255245,0.12499968
1764767527.7863436,-3.83026,0.6409199999999999,0.57988,0.97704828,-0.049255245,0.12499968
1764767527.7863436,-3.83026,0.6409199999999999,0.57988,0.97704828,-0.049255245,0.12499968
1764767527.7863436,-3.83026,0.6409199999999999,0.57988,0.97704828,-0.049255245,0.12499968
1764767527.7863436,-3.83026,0.6409199999999999,0.57988,0.97704828,-0.049255245,0.12499968
1764767527.7863436,-3.83026,0.6409199999999999,0.57988,0.97704828,-0.049255245,0.12499968
1764767527.8337376,-3.75396,0.97664,0.57988,0.97765863,-0.049499385,0.12548796
1764767527.8337376,-3.75396,0.97664,0.57988,0.97765863,-0.049499385,0.12548796
1764767527.8337376,-3.75396,0.97664,0.57988,0.97765863,-0.049499385,0.12548796
1764767527.8337376,-3.75396,0.97664,0.57988,0.97765863,-0.049499385,0.12548796
1764767527.8337376,-3.75396,0.97664,0.57988,0.97765863,-0.049499385,0.12548796
1764767527.8337376,-3.75396,0.97664,0.57988,0.97765863,-0.049499385,0.12548796
1764767527.8337376,-3.75396,0.97664,0.57988,0.97765863,-0.049499385,0.12548796
1764767527.8337376,-3.75396,0.97664,0.57988,0.97765863,-0.049499385,0.12548796
1764767527.8337376,-3.75396,0.97664,0.57988,0.97765863,-0.049499385,0.12548796
1764767527.8337376,-3.75396,0.97664,0.57988,0.97765863,-0.049499385,0.12548796
1764767527.8337376,-3.38772,0.51884,1.11398,0.97753656,-0.050720085,0.125793135
1764767527.8337376,-3.38772,0.51884,1.11398,0.97753656,-0.050720085,0.125793135
1764767527.8337376,-3.38772,0.51884,1.11398,0.97753656,-0.050720085,0.125793135
1764767527.8337376,-3.38772,0.51884,1.11398,0.97753656,-0.050720085,0.125793135
1764767527.8337376,-3.38772,0.51884,1.11398,0.97753656,-0.050720085,0.125793135
1764767527.8337376,-3.38772,0.51884,1.11398,0.97753656,-0.050720085,0.125793135
1764767527.8337376,-3.38772,0.51884,1.11398,0.97753656,-0.050720085,0.125793135
1764767527.8337376,-3.38772,0.51884,1.11398,0.97753656,-0.050720085,0.125793135
1764767527.8337376,-3.38772,0.51884,1.11398,0.97753656,-0.050720085,0.125793135
1764767527.8337376,-3.38772,0.51884,1.11398,0.97753656,-0.050720085,0.125793135
1764767527.8337376,-2.9757,0.13734,1.46496,0.976743105,-0.051574575,0.125304855
1764767527.8337376,-2.9757,0.13734,1.46496,0.976743105,-0.051574575,0.125304855
1764767527.8337376,-2.9757,0.13734,1.46496,0.976743105,-0.051574575,0.125304855
1764767527.8337376,-2.9757,0.13734,1.46496,0.976743105,-0.051574575,0.125304855
1764767527.8768225,-2.9757,0.13734,1.46496,0.976743105,-0.051574575,0.125304855
1764767527.8768225,-2.9757,0.13734,1.46496,0.976743105,-0.051574575,0.125304855
1764767527.8768225,-2.9757,0.13734,1.46496,0.976743105,-0.051574575,0.125304855
1764767527.8768225,-2.9757,0.13734,1.46496,0.976743105,-0.051574575,0.125304855
1764767527.8768225,-2.9757,0.13734,1.46496,0.976743105,-0.051574575,0.125304855
1764767527.8768225,-2.9757,0.13734,1.46496,0.976743105,-0.051574575,0.125304855
1764767527.8768225,-3.11304,-0.10682,0.42728,0.978818295,-0.050720085,0.12512175
1764767527.8768225,-3.11304,-0.10682,0.42728,0.978818295,-0.050720085,0.12512175
1764767527.8768225,-3.11304,-0.10682,0.42728,0.978818295,-0.050720085,0.12512175
1764767527.8768225,-3.11304,-0.10682,0.42728,0.978818295,-0.050720085,0.12512175
1764767527.8768225,-3.11304,-0.10682,0.42728,0.978818295,-0.050720085,0.12512175
1764767527.8768225,-3.11304,-0.10682,0.42728,0.978818295,-0.050720085,0.12512175
1764767527.8768225,-3.11304,-0.10682,0.42728,0.978818295,-0.050720085,0.12512175
1764767527.8768225,-3.11304,-0.10682,0.42728,0.978818295,-0.050720085,0.12512175
1764767527.8768225,-3.11304,-0.10682,0.42728,0.978818295,-0.050720085,0.12512175
1764767527.8773274,-3.11304,-0.10682,0.42728,0.978818295,-0.050720085,0.12512175
1764767527.8773274,-3.02148,0.54936,0.01526,0.980405205,-0.049987665,0.125671065
1764767527.8773274,-3.02148,0.54936,0.01526,0.980405205,-0.049987665,0.125671065
1764767527.8773274,-3.02148,0.54936,0.01526,0.980405205,-0.049987665,0.125671065
1764767527.8773274,-3.02148,0.54936,0.01526,0.980405205,-0.049987665,0.125671065
1764767527.8773274,-3.02148,0.54936,0.01526,0.980405205,-0.049987665,0.125671065
1764767527.8773274,-3.02148,0.54936,0.01526,0.980405205,-0.049987665,0.125671065
1764767527.8773274,-3.02148,0.54936,0.01526,0.980405205,-0.049987665,0.125671065
1764767527.8773274,-3.02148,0.54936,0.01526,0.980405205,-0.049987665,0.125671065
1764767527.923372,-3.02148,0.54936,0.01526,0.980405205,-0.049987665,0.125671065
1764767527.923372,-3.02148,0.54936,0.01526,0.980405205,-0.049987665,0.125671065
1764767527.923372,-3.23512,1.02242,-0.763,0.979184505,-0.048400755,0.125548995
1764767527.923372,-3.23512,1.02242,-0.763,0.979184505,-0.048400755,0.125548995
1764767527.923372,-3.23512,1.02242,-0.763,0.979184505,-0.048400755,0.125548995
1764767527.923372,-3.23512,1.02242,-0.763,0.979184505,-0.048400755,0.125548995
1764767527.923372,-3.23512,1.02242,-0.763,0.979184505,-0.048400755,0.125548995
1764767527.923372,-3.23512,1.02242,-0.763,0.979184505,-0.048400755,0.125548995
1764767527.923372,-3.23512,1.02242,-0.763,0.979184505,-0.048400755,0.125548995
1764767527.923372,-3.23512,1.02242,-0.763,0.979184505,-0.048400755,0.125548995
1764767527.923372,-3.23512,1.02242,-0.763,0.979184505,-0.048400755,0.125548995
1764767527.923372,-3.23512,1.02242,-0.763,0.979184505,-0.048400755,0.125548995
1764767527.923372,-4.18124,1.05294,-1.70912,0.978207945,-0.0463866,0.12487761
1764767527.923372,-4.18124,1.05294,-1.70912,0.978207945,-0.0463866,0.12487761
1764767527.923372,-4.18124,1.05294,-1.70912,0.978207945,-0.0463866,0.12487761
1764767527.923372,-4.18124,1.05294,-1.70912,0.978207945,-0.0463866,0.12487761
1764767527.923372,-4.18124,1.05294,-1.70912,0.978207945,-0.0463866,0.12487761
1764767527.923372,-4.18124,1.05294,-1.70912,0.978207945,-0.0463866,0.12487761
1764767527.923372,-4.18124,1.05294,-1.70912,0.978207945,-0.0463866,0.12487761
1764767527.923372,-4.18124,1.05294,-1.70912,0.978207945,-0.0463866,0.12487761
1764767527.9249277,-4.18124,1.05294,-1.70912,0.978207945,-0.0463866,0.12487761
1764767527.9249277,-4.18124,1.05294,-1.70912,0.978207945,-0.0463866,0.12487761
1764767527.9249277,-4.18124,1.34288,-0.94612,0.977719665,-0.04541004,0.12438933
1764767527.9249277,-4.18124,1.34288,-0.94612,0.977719665,-0.04541004,0.12438933
1764767527.9732003,-4.18124,1.34288,-0.94612,0.977719665,-0.04541004,0.12438933
1764767527.9732003,-4.18124,1.34288,-0.94612,0.977719665,-0.04541004,0.12438933
1764767527.9732003,-4.18124,1.34288,-0.94612,0.977719665,-0.04541004,0.12438933
1764767527.9732003,-4.18124,1.34288,-0.94612,0.977719665,-0.04541004,0.12438933
1764767527.9732003,-4.18124,1.34288,-0.94612,0.977719665,-0.04541004,0.12438933
1764767527.9732003,-4.18124,1.34288,-0.94612,0.977719665,-0.04541004,0.12438933
1764767527.9732003,-4.18124,1.34288,-0.94612,0.977719665,-0.04541004,0.12438933
1764767527.9732003,-4.18124,1.34288,-0.94612,0.977719665,-0.04541004,0.12438933
1764767527.9732003,-4.92898,0.96138,0.04578,0.97692621,-0.045715215,0.124816575
1764767527.9732003,-4.92898,0.96138,0.04578,0.97692621,-0.045715215,0.124816575
1764767527.9732003,-4.92898,0.96138,0.04578,0.97692621,-0.045715215,0.124816575
1764767527.9732003,-4.92898,0.96138,0.04578,0.97692621,-0.045715215,0.124816575
1764767527.9732003,-4.92898,0.96138,0.04578,0.97692621,-0.045715215,0.124816575
1764767527.9732003,-4.92898,0.96138,0.04578,0.97692621,-0.045715215,0.124816575
1764767527.9732003,-4.92898,0.96138,0.04578,0.97692621,-0.045715215,0.124816575
1764767527.9732003,-4.92898,0.96138,0.04578,0.97692621,-0.045715215,0.124816575
1764767527.9732003,-4.92898,0.96138,0.04578,0.97692621,-0.045715215,0.124816575
1764767527.9732003,-4.92898,0.96138,0.04578,0.97692621,-0.045715215,0.124816575
1764767527.9732003,-4.39488,0.28994,0.6714399999999999,0.977109315,-0.045593145,0.12536589
1764767527.9732003,-4.39488,0.28994,0.6714399999999999,0.977109315,-0.045593145,0.12536589
1764767527.9732003,-4.39488,0.28994,0.6714399999999999,0.977109315,-0.045593145,0.12536589
1764767527.9732003,-4.39488,0.28994,0.6714399999999999,0.977109315,-0.045593145,0.12536589
1764767528.016475,-4.39488,0.28994,0.6714399999999999,0.977109315,-0.045593145,0.12536589
1764767528.016475,-4.39488,0.28994,0.6714399999999999,0.977109315,-0.045593145,0.12536589
1764767528.016475,-4.39488,0.28994,0.6714399999999999,0.977109315,-0.045593145,0.12536589
1764767528.016475,-4.39488,0.28994,0.6714399999999999,0.977109315,-0.045593145,0.12536589
1764767528.016475,-4.39488,0.28994,0.6714399999999999,0.977109315,-0.045593145,0.12536589
1764767528.016475,-4.39488,0.28994,0.6714399999999999,0.977109315,-0.045593145,0.12536589
1764767528.016475,-4.8832,0.5341,0.54936,0.978574155,-0.045593145,0.1257321
1764767528.016475,-4.8832,0.5341,0.54936,0.978574155,-0.045593145,0.1257321
1764767528.016475,-4.8832,0.5341,0.54936,0.978574155,-0.045593145,0.1257321
1764767528.016475,-4.8832,0.5341,0.54936,0.978574155,-0.045593145,0.1257321
1764767528.016475,-4.8832,0.5341,0.54936,0.978574155,-0.045593145,0.1257321
1764767528.016992,-4.8832,0.5341,0.54936,0.978574155,-0.045593145,0.1257321
1764767528.016992,-4.8832,0.5341,0.54936,0.978574155,-0.045593145,0.1257321
1764767528.016992,-4.8832,0.5341,0.54936,0.978574155,-0.045593145,0.1257321
1764767528.016992,-4.8832,0.5341,0.54936,0.978574155,-0.045593145,0.1257321
1764767528.016992,-4.8832,0.5341,0.54936,0.978574155,-0.045593145,0.1257321
1764767528.016992,-4.6543,0.5341,0.9919,0.97875726,-0.04675281,0.125915205
1764767528.016992,-4.6543,0.5341,0.9919,0.97875726,-0.04675281,0.125915205
1764767528.016992,-4.6543,0.5341,0.9919,0.97875726,-0.04675281,0.125915205
1764767528.016992,-4.6543,0.5341,0.9919,0.97875726,-0.04675281,0.125915205
1764767528.016992,-4.6543,0.5341,0.9919,0.97875726,-0.04675281,0.125915205
1764767528.016992,-4.6543,0.5341,0.9919,0.97875726,-0.04675281,0.125915205
1764767528.0632386,-4.6543,0.5341,0.9919,0.97875726,-0.04675281,0.125915205
1764767528.0632386,-4.6543,0.5341,0.9919,0.97875726,-0.04675281,0.125915205
1764767528.0632386,-4.6543,0.5341,0.9919,0.97875726,-0.04675281,0.125915205
1764767528.0632386,-4.6543,0.5341,0.9919,0.97875726,-0.04675281,0.125915205
1764767528.0632386,-4.059159999999999,0.3815,1.00716,0.979184505,-0.04809558,0.1257321
1764767528.0632386,-4.059159999999999,0.3815,1.00716,0.979184505,-0.04809558,0.1257321
1764767528.0632386,-4.059159999999999,0.3815,1.00716,0.979184505,-0.04809558,0.1257321
1764767528.0632386,-4.059159999999999,0.3815,1.00716,0.979184505,-0.04809558,0.1257321
1764767528.0632386,-4.059159999999999,0.3815,1.00716,0.979184505,-0.04809558,0.1257321
1764767528.0632386,-4.059159999999999,0.3815,1.00716,0.979184505,-0.04809558,0.1257321
1764767528.0632386,-4.059159999999999,0.3815,1.00716,0.979184505,-0.04809558,0.1257321
1764767528.0632386,-4.059159999999999,0.3815,1.00716,0.979184505,-0.04809558,0.1257321
1764767528.0632386,-4.059159999999999,0.3815,1.00716,0.979184505,-0.04809558,0.1257321
1764767528.0632386,-4.059159999999999,0.3815,1.00716,0.979184505,-0.04809558,0.1257321
1764767528.0632386,-3.26564,0.6103999999999999,0.44254,0.97851312,-0.047912475,0.125671065
1764767528.0632386,-3.26564,0.6103999999999999,0.44254,0.97851312,-0.047912475,0.125671065
1764767528.0632386,-3.26564,0.6103999999999999,0.44254,0.97851312,-0.047912475,0.125671065
1764767528.0632386,-3.26564,0.6103999999999999,0.44254,0.97851312,-0.047912475,0.125671065
1764767528.0632386,-3.26564,0.6103999999999999,0.44254,0.97851312,-0.047912475,0.125671065
1764767528.0632386,-3.26564,0.6103999999999999,0.44254,0.97851312,-0.047912475,0.125671065
1764767528.0632386,-3.26564,0.6103999999999999,0.44254,0.97851312,-0.047912475,0.125671065
1764767528.0632386,-3.26564,0.6103999999999999,0.44254,0.97851312,-0.047912475,0.125671065
1764767528.0632386,-3.26564,0.6103999999999999,0.44254,0.97851312,-0.047912475,0.125671065
1764767528.0632386,-3.26564,0.6103999999999999,0.44254,0.97851312,-0.047912475,0.125671065
1764767528.110059,-2.4416,0.3204599999999999,0.8698199999999999,0.977841735,-0.048644895,0.124816575
1764767528.110059,-2.4416,0.3204599999999999,0.8698199999999999,0.977841735,-0.048644895,0.124816575
1764767528.110059,-2.4416,0.3204599999999999,0.8698199999999999,0.977841735,-0.048644895,0.124816575
1764767528.110059,-2.4416,0.3204599999999999,0.8698199999999999,0.977841735,-0.048644895,0.124816575
1764767528.110059,-2.4416,0.3204599999999999,0.8698199999999999,0.977841735,-0.048644895,0.124816575
1764767528.110059,-2.4416,0.3204599999999999,0.8698199999999999,0.977841735,-0.048644895,0.124816575
1764767528.110059,-2.4416,0.3204599999999999,0.8698199999999999,0.977841735,-0.048644895,0.124816575
1764767528.110059,-2.4416,0.3204599999999999,0.8698199999999999,0.977841735,-0.048644895,0.124816575
1764767528.110059,-2.4416,0.3204599999999999,0.8698199999999999,0.977841735,-0.048644895,0.124816575
1764767528.110059,-2.4416,0.3204599999999999,0.8698199999999999,0.977841735,-0.048644895,0.124816575
1764767528.110059,-1.6786,0.36624,0.79352,0.9777807,-0.04980456,0.12414519
1764767528.110059,-1.6786,0.36624,0.79352,0.9777807,-0.04980456,0.12414519
1764767528.110059,-1.6786,0.36624,0.79352,0.9777807,-0.04980456,0.12414519
1764767528.110059,-1.6786,0.36624,0.79352,0.9777807,-0.04980456,0.12414519
1764767528.110059,-1.6786,0.36624,0.79352,0.9777807,-0.04980456,0.12414519
1764767528.110059,-1.6786,0.36624,0.79352,0.9777807,-0.04980456,0.12414519
1764767528.110059,-1.6786,0.36624,0.79352,0.9777807,-0.04980456,0.12414519
1764767528.110059,-1.6786,0.36624,0.79352,0.9777807,-0.04980456,0.12414519
1764767528.110059,-1.6786,0.36624,0.79352,0.9777807,-0.04980456,0.12414519
1764767528.110059,-1.6786,0.36624,0.79352,0.9777807,-0.04980456,0.12414519
1764767528.110059,-1.64808,0.1678599999999999,1.2055399999999998,0.977231385,-0.050720085,0.123473805
1764767528.110059,-1.64808,0.1678599999999999,1.2055399999999998,0.977231385,-0.050720085,0.123473805
1764767528.110059,-1.64808,0.1678599999999999,1.2055399999999998,0.977231385,-0.050720085,0.123473805
1764767528.1110682,-1.64808,0.1678599999999999,1.2055399999999998,0.977231385,-0.050720085,0.123473805
1764767528.159752,-1.64808,0.1678599999999999,1.2055399999999998,0.977231385,-0.050720085,0.123473805
1764767528.159752,-1.64808,0.1678599999999999,1.2055399999999998,0.977231385,-0.050720085,0.123473805
1764767528.159752,-1.64808,0.1678599999999999,1.2055399999999998,0.977231385,-0.050720085,0.123473805
1764767528.159752,-1.64808,0.1678599999999999,1.2055399999999998,0.977231385,-0.050720085,0.123473805
1764767528.159752,-1.64808,0.1678599999999999,1.2055399999999998,0.977231385,-0.050720085,0.123473805
1764767528.159752,-1.64808,0.1678599999999999,1.2055399999999998,0.977231385,-0.050720085,0.123473805
1764767528.159752,-1.9838,0.6409199999999999,0.8087799999999999,0.97851312,-0.04943835,0.122863455
1764767528.159752,-1.9838,0.6409199999999999,0.8087799999999999,0.97851312,-0.04943835,0.122863455
1764767528.159752,-1.9838,0.6409199999999999,0.8087799999999999,0.97851312,-0.04943835,0.122863455
1764767528.159752,-1.9838,0.6409199999999999,0.8087799999999999,0.97851312,-0.04943835,0.122863455
1764767528.159752,-1.9838,0.6409199999999999,0.8087799999999999,0.97851312,-0.04943835,0.122863455
1764767528.159752,-1.9838,0.6409199999999999,0.8087799999999999,0.97851312,-0.04943835,0.122863455
1764767528.159752,-1.9838,0.6409199999999999,0.8087799999999999,0.97851312,-0.04943835,0.122863455
1764767528.159752,-1.9838,0.6409199999999999,0.8087799999999999,0.97851312,-0.04943835,0.122863455
1764767528.159752,-1.9838,0.6409199999999999,0.8087799999999999,0.97851312,-0.04943835,0.122863455
1764767528.159752,-1.9838,0.6409199999999999,0.8087799999999999,0.97851312,-0.04943835,0.122863455
1764767528.159752,-1.9838,0.65618,1.0682,0.98010003,-0.04895007,0.12280242
1764767528.159752,-1.9838,0.65618,1.0682,0.98010003,-0.04895007,0.12280242
1764767528.159752,-1.9838,0.65618,1.0682,0.98010003,-0.04895007,0.12280242
1764767528.159752,-1.9838,0.65618,1.0682,0.98010003,-0.04895007,0.12280242
1764767528.159752,-1.9838,0.65618,1.0682,0.98010003,-0.04895007,0.12280242
1764767528.159752,-1.9838,0.65618,1.0682,0.98010003,-0.04895007,0.12280242
1764767528.159752,-1.9838,0.65618,1.0682,0.98010003,-0.04895007,0.12280242
1764767528.159752,-1.9838,0.65618,1.0682,0.98010003,-0.04895007,0.12280242
1764767528.2031865,-1.9838,0.65618,1.0682,0.98010003,-0.04895007,0.12280242
1764767528.2031865,-1.9838,0.65618,1.0682,0.98010003,-0.04895007,0.12280242
1764767528.2031865,-3.15882,1.00716,1.03768,0.97936761,-0.04772937,0.12304656
1764767528.2031865,-3.15882,1.00716,1.03768,0.97936761,-0.04772937,0.12304656
1764767528.2031865,-3.15882,1.00716,1.03768,0.97936761,-0.04772937,0.12304656
1764767528.2031865,-3.15882,1.00716,1.03768,0.97936761,-0.04772937,0.12304656
1764767528.2031865,-3.15882,1.00716,1.03768,0.97936761,-0.04772937,0.12304656
1764767528.2031865,-3.15882,1.00716,1.03768,0.97936761,-0.04772937,0.12304656
1764767528.2031865,-3.15882,1.00716,1.03768,0.97936761,-0.04772937,0.12304656
1764767528.2031865,-3.15882,1.00716,1.03768,0.97936761,-0.04772937,0.12304656
1764767528.2031865,-3.15882,1.00716,1.03768,0.97936761,-0.04772937,0.12304656
1764767528.2031865,-3.15882,1.00716,1.03768,0.97936761,-0.04772937,0.12304656
1764767528.2031865,-3.75396,1.31236,0.763,0.979306575,-0.046813845,0.123107595
1764767528.2031865,-3.75396,1.31236,0.763,0.979306575,-0.046813845,0.123107595
1764767528.2031865,-3.75396,1.31236,0.763,0.979306575,-0.046813845,0.123107595
1764767528.2031865,-3.75396,1.31236,0.763,0.979306575,-0.046813845,0.123107595
1764767528.2031865,-3.75396,1.31236,0.763,0.979306575,-0.046813845,0.123107595
1764767528.2031865,-3.75396,1.31236,0.763,0.979306575,-0.046813845,0.123107595
1764767528.2051,-3.75396,1.31236,0.763,0.979306575,-0.046813845,0.123107595
1764767528.2051,-3.75396,1.31236,0.763,0.979306575,-0.046813845,0.123107595
1764767528.2051,-3.75396,1.31236,0.763,0.979306575,-0.046813845,0.123107595
1764767528.2051,-3.75396,1.31236,0.763,0.979306575,-0.046813845,0.123107595
1764767528.2505496,-3.93708,1.35814,0.1525999999999999,0.979550715,-0.046569705,0.122741385
1764767528.2505496,-3.93708,1.35814,0.1525999999999999,0.979550715,-0.046569705,0.122741385
1764767528.2505496,-3.93708,1.35814,0.1525999999999999,0.979550715,-0.046569705,0.122741385
1764767528.2505496,-3.93708,1.35814,0.1525999999999999,0.979550715,-0.046569705,0.122741385
1764767528.2505496,-3.93708,1.35814,0.1525999999999999,0.979550715,-0.046569705,0.122741385
1764767528.2505496,-3.93708,1.35814,0.1525999999999999,0.979550715,-0.046569705,0.122741385
1764767528.2505496,-3.93708,1.35814,0.1525999999999999,0.979550715,-0.046569705,0.122741385
1764767528.2505496,-3.93708,1.35814,0.1525999999999999,0.979550715,-0.046569705,0.122741385
1764767528.2505496,-3.93708,1.35814,0.1525999999999999,0.979550715,-0.046569705,0.122741385
1764767528.2505496,-3.93708,1.35814,0.1525999999999999,0.979550715,-0.046569705,0.122741385
1764767528.2505496,-4.02864,1.15976,0.18312,0.97887933,-0.047546265,0.12377898
1764767528.2505496,-4.02864,1.15976,0.18312,0.97887933,-0.047546265,0.12377898
1764767528.2505496,-4.02864,1.15976,0.18312,0.97887933,-0.047546265,0.12377898
1764767528.2505496,-4.02864,1.15976,0.18312,0.97887933,-0.047546265,0.12377898
1764767528.2505496,-4.02864,1.15976,0.18312,0.97887933,-0.047546265,0.12377898
1764767528.2505496,-4.02864,1.15976,0.18312,0.97887933,-0.047546265,0.12377898
1764767528.2505496,-4.02864,1.15976,0.18312,0.97887933,-0.047546265,0.12377898
1764767528.2505496,-4.02864,1.15976,0.18312,0.97887933,-0.047546265,0.12377898
1764767528.2505496,-4.02864,1.15976,0.18312,0.97887933,-0.047546265,0.12377898
1764767528.2505496,-4.02864,1.15976,0.18312,0.97887933,-0.047546265,0.12377898
1764767528.2505496,-4.1202,0.93086,-0.10682,0.979184505,-0.04833972,0.123962085
1764767528.2505496,-4.1202,0.93086,-0.10682,0.979184505,-0.04833972,0.123962085
1764767528.2505496,-4.1202,0.93086,-0.10682,0.979184505,-0.04833972,0.123962085
1764767528.2505496,-4.1202,0.93086,-0.10682,0.979184505,-0.04833972,0.123962085
1764767528.297996,-4.1202,0.93086,-0.10682,0.979184505,-0.04833972,0.123962085
1764767528.297996,-4.1202,0.93086,-0.10682,0.979184505,-0.04833972,0.123962085
1764767528.297996,-4.1202,0.93086,-0.10682,0.979184505,-0.04833972,0.123962085
1764767528.297996,-4.1202,0.93086,-0.10682,0.979184505,-0.04833972,0.123962085
1764767528.297996,-4.1202,0.93086,-0.10682,0.979184505,-0.04833972,0.123962085
1764767528.297996,-4.1202,0.93086,-0.10682,0.979184505,-0.04833972,0.123962085
1764767528.297996,-3.9676,0.8392999999999999,-0.3051999999999999,0.9790014,-0.04895007,0.1245114
1764767528.297996,-3.9676,0.8392999999999999,-0.3051999999999999,0.9790014,-0.04895007,0.1245114
1764767528.297996,-3.9676,0.8392999999999999,-0.3051999999999999,0.9790014,-0.04895007,0.1245114
1764767528.297996,-3.9676,0.8392999999999999,-0.3051999999999999,0.9790014,-0.04895007,0.1245114
1764767528.299002,-3.9676,0.8392999999999999,-0.3051999999999999,0.9790014,-0.04895007,0.1245114
1764767528.299002,-3.9676,0.8392999999999999,-0.3051999999999999,0.9790014,-0.04895007,0.1245114
1764767528.299002,-3.9676,0.8392999999999999,-0.3051999999999999,0.9790014,-0.04895007,0.1245114
1764767528.299002,-3.9676,0.8392999999999999,-0.3051999999999999,0.9790014,-0.04895007,0.1245114
1764767528.299002,-3.9676,0.8392999999999999,-0.3051999999999999,0.9790014,-0.04895007,0.1245114
1764767528.299002,-3.9676,0.8392999999999999,-0.3051999999999999,0.9790014,-0.04895007,0.1245114
1764767528.299002,-3.92182,1.08346,-0.6714399999999999,0.979062435,-0.048522825,0.124450365
1764767528.299002,-3.92182,1.08346,-0.6714399999999999,0.979062435,-0.048522825,0.124450365
1764767528.299002,-3.92182,1.08346,-0.6714399999999999,0.979062435,-0.048522825,0.124450365
1764767528.299002,-3.92182,1.08346,-0.6714399999999999,0.979062435,-0.048522825,0.124450365
1764767528.299002,-3.92182,1.08346,-0.6714399999999999,0.979062435,-0.048522825,0.124450365
1764767528.299002,-3.92182,1.08346,-0.6714399999999999,0.979062435,-0.048522825,0.124450365
1764767528.3459558,-3.92182,1.08346,-0.6714399999999999,0.979062435,-0.048522825,0.124450365
1764767528.3459558,-3.92182,1.08346,-0.6714399999999999,0.979062435,-0.048522825,0.124450365
1764767528.3459558,-3.92182,1.08346,-0.6714399999999999,0.979062435,-0.048522825,0.124450365
1764767528.3459558,-3.92182,1.08346,-0.6714399999999999,0.979062435,-0.048522825,0.124450365
1764767528.3459558,-3.55558,0.77826,-0.5341,0.97924554,-0.047546265,0.123351735
1764767528.3459558,-3.55558,0.77826,-0.5341,0.97924554,-0.047546265,0.123351735
1764767528.3459558,-3.55558,0.77826,-0.5341,0.97924554,-0.047546265,0.123351735
1764767528.3459558,-3.55558,0.77826,-0.5341,0.97924554,-0.047546265,0.123351735
1764767528.3459558,-3.55558,0.77826,-0.5341,0.97924554,-0.047546265,0.123351735
1764767528.3459558,-3.55558,0.77826,-0.5341,0.97924554,-0.047546265,0.123351735
1764767528.3459558,-3.55558,0.77826,-0.5341,0.97924554,-0.047546265,0.123351735
1764767528.3459558,-3.55558,0.77826,-0.5341,0.97924554,-0.047546265,0.123351735
1764767528.3459558,-3.55558,0.77826,-0.5341,0.97924554,-0.047546265,0.123351735
1764767528.3459558,-3.55558,0.77826,-0.5341,0.97924554,-0.047546265,0.123351735
1764767528.3459558,-4.22702,0.8087799999999999,-0.12208,0.978696225,-0.046325565,0.123962085
1764767528.3459558,-4.22702,0.8087799999999999,-0.12208,0.978696225,-0.046325565,0.123962085
1764767528.3459558,-4.22702,0.8087799999999999,-0.12208,0.978696225,-0.046325565,0.123962085
1764767528.3459558,-4.22702,0.8087799999999999,-0.12208,0.978696225,-0.046325565,0.123962085
1764767528.3459558,-4.22702,0.8087799999999999,-0.12208,0.978696225,-0.046325565,0.123962085
1764767528.3459558,-4.22702,0.8087799999999999,-0.12208,0.978696225,-0.046325565,0.123962085
1764767528.3459558,-4.22702,0.8087799999999999,-0.12208,0.978696225,-0.046325565,0.123962085
1764767528.3459558,-4.22702,0.8087799999999999,-0.12208,0.978696225,-0.046325565,0.123962085
1764767528.3459558,-4.22702,0.8087799999999999,-0.12208,0.978696225,-0.046325565,0.123962085
1764767528.3459558,-4.22702,0.8087799999999999,-0.12208,0.978696225,-0.046325565,0.123962085
1764767528.393168,-4.45592,0.5341,-0.03052,0.97839105,-0.04528797,0.124206225
1764767528.393168,-4.45592,0.5341,-0.03052,0.97839105,-0.04528797,0.124206225
1764767528.393168,-4.45592,0.5341,-0.03052,0.97839105,-0.04528797,0.124206225
1764767528.393168,-4.45592,0.5341,-0.03052,0.97839105,-0.04528797,0.124206225
1764767528.393168,-4.45592,0.5341,-0.03052,0.97839105,-0.04528797,0.124206225
1764767528.393168,-4.45592,0.5341,-0.03052,0.97839105,-0.04528797,0.124206225
1764767528.393168,-4.45592,0.5341,-0.03052,0.97839105,-0.04528797,0.124206225
1764767528.393168,-4.45592,0.5341,-0.03052,0.97839105,-0.04528797,0.124206225
1764767528.393168,-4.45592,0.5341,-0.03052,0.97839105,-0.04528797,0.124206225
1764767528.393168,-4.45592,0.5341,-0.03052,0.97839105,-0.04528797,0.124206225
1764767528.393168,-4.56274,0.79352,0.6103999999999999,0.97863519,-0.04492176,0.12414519
1764767528.393168,-4.56274,0.79352,0.6103999999999999,0.97863519,-0.04492176,0.12414519
1764767528.393168,-4.56274,0.79352,0.6103999999999999,0.97863519,-0.04492176,0.12414519
1764767528.393168,-4.56274,0.79352,0.6103999999999999,0.97863519,-0.04492176,0.12414519
1764767528.393168,-4.56274,0.79352,0.6103999999999999,0.97863519,-0.04492176,0.12414519
1764767528.393168,-4.56274,0.79352,0.6103999999999999,0.97863519,-0.04492176,0.12414519
1764767528.393168,-4.56274,0.79352,0.6103999999999999,0.97863519,-0.04492176,0.12414519
1764767528.393168,-4.56274,0.79352,0.6103999999999999,0.97863519,-0.04492176,0.12414519
1764767528.393168,-4.56274,0.79352,0.6103999999999999,0.97863519,-0.04492176,0.12414519
1764767528.393168,-4.56274,0.79352,0.6103999999999999,0.97863519,-0.04492176,0.12414519
1764767528.393168,-4.24228,0.763,0.9156,0.979306575,-0.044982795,0.124816575
1764767528.393168,-4.24228,0.763,0.9156,0.979306575,-0.044982795,0.124816575
1764767528.4385135,-4.24228,0.763,0.9156,0.979306575,-0.044982795,0.124816575
1764767528.4385135,-4.24228,0.763,0.9156,0.979306575,-0.044982795,0.124816575
1764767528.4385135,-4.24228,0.763,0.9156,0.979306575,-0.044982795,0.124816575
1764767528.4385135,-4.24228,0.763,0.9156,0.979306575,-0.044982795,0.124816575
1764767528.4385135,-4.24228,0.763,0.9156,0.979306575,-0.044982795,0.124816575
1764767528.4385135,-4.24228,0.763,0.9156,0.979306575,-0.044982795,0.124816575
1764767528.4385135,-4.24228,0.763,0.9156,0.979306575,-0.044982795,0.124816575
1764767528.4385135,-4.24228,0.763,0.9156,0.979306575,-0.044982795,0.124816575
1764767528.4385135,-3.9676,0.6714399999999999,1.02242,0.978818295,-0.045959355,0.124816575
1764767528.4385135,-3.9676,0.6714399999999999,1.02242,0.978818295,-0.045959355,0.124816575
1764767528.4385135,-3.9676,0.6714399999999999,1.02242,0.978818295,-0.045959355,0.124816575
1764767528.4385135,-3.9676,0.6714399999999999,1.02242,0.978818295,-0.045959355,0.124816575
1764767528.4385135,-3.9676,0.6714399999999999,1.02242,0.978818295,-0.045959355,0.124816575
1764767528.4385135,-3.9676,0.6714399999999999,1.02242,0.978818295,-0.045959355,0.124816575
1764767528.4385135,-3.9676,0.6714399999999999,1.02242,0.978818295,-0.045959355,0.124816575
1764767528.4385135,-3.9676,0.6714399999999999,1.02242,0.978818295,-0.045959355,0.124816575
1764767528.4385135,-3.9676,0.6714399999999999,1.02242,0.978818295,-0.045959355,0.124816575
1764767528.4385135,-3.9676,0.6714399999999999,1.02242,0.978818295,-0.045959355,0.124816575
1764767528.4385135,-3.8913,0.9919,0.9003399999999999,0.97851312,-0.046813845,0.123962085
1764767528.4385135,-3.8913,0.9919,0.9003399999999999,0.97851312,-0.046813845,0.123962085
1764767528.4385135,-3.8913,0.9919,0.9003399999999999,0.97851312,-0.046813845,0.123962085
1764767528.4400482,-3.8913,0.9919,0.9003399999999999,0.97851312,-0.046813845,0.123962085
1764767528.4400482,-3.8913,0.9919,0.9003399999999999,0.97851312,-0.046813845,0.123962085
1764767528.4400482,-3.8913,0.9919,0.9003399999999999,0.97851312,-0.046813845,0.123962085
1764767528.4400482,-3.8913,0.9919,0.9003399999999999,0.97851312,-0.046813845,0.123962085
1764767528.4400482,-3.8913,0.9919,0.9003399999999999,0.97851312,-0.046813845,0.123962085
1764767528.4868858,-3.8913,0.9919,0.9003399999999999,0.97851312,-0.046813845,0.123962085
1764767528.4868858,-3.8913,0.9919,0.9003399999999999,0.97851312,-0.046813845,0.123962085
1764767528.4868858,-3.3572,0.7019599999999999,0.763,0.97839105,-0.046447635,0.12377898
1764767528.4868858,-3.3572,0.7019599999999999,0.763,0.97839105,-0.046447635,0.12377898
1764767528.4868858,-3.3572,0.7019599999999999,0.763,0.97839105,-0.046447635,0.12377898
1764767528.4868858,-3.3572,0.7019599999999999,0.763,0.97839105,-0.046447635,0.12377898
1764767528.4868858,-3.3572,0.7019599999999999,0.763,0.97839105,-0.046447635,0.12377898
1764767528.4868858,-3.3572,0.7019599999999999,0.763,0.97839105,-0.046447635,0.12377898
1764767528.4868858,-3.3572,0.7019599999999999,0.763,0.97839105,-0.046447635,0.12377898
1764767528.4868858,-3.3572,0.7019599999999999,0.763,0.97839105,-0.046447635,0.12377898
1764767528.4868858,-3.3572,0.7019599999999999,0.763,0.97839105,-0.046447635,0.12377898
1764767528.4868858,-3.3572,0.7019599999999999,0.763,0.97839105,-0.046447635,0.12377898
1764767528.4868858,-3.75396,1.26658,0.59514,0.978940365,-0.045959355,0.123229665
1764767528.4868858,-3.75396,1.26658,0.59514,0.978940365,-0.045959355,0.123229665
1764767528.4868858,-3.75396,1.26658,0.59514,0.978940365,-0.045959355,0.123229665
1764767528.4868858,-3.75396,1.26658,0.59514,0.978940365,-0.045959355,0.123229665
1764767528.4868858,-3.75396,1.26658,0.59514,0.978940365,-0.045959355,0.123229665
1764767528.4868858,-3.75396,1.26658,0.59514,0.978940365,-0.045959355,0.123229665
1764767528.4868858,-3.75396,1.26658,0.59514,0.978940365,-0.045959355,0.123229665
1764767528.4878917,-3.75396,1.26658,0.59514,0.978940365,-0.045959355,0.123229665
1764767528.4878917,-3.75396,1.26658,0.59514,0.978940365,-0.045959355,0.123229665
1764767528.4878917,-3.75396,1.26658,0.59514,0.978940365,-0.045959355,0.123229665
1764767528.5336602,-3.5098,1.54126,0.21364,0.980038995,-0.045593145,0.123229665
1764767528.5336602,-3.5098,1.54126,0.21364,0.980038995,-0.045593145,0.123229665
1764767528.5336602,-3.5098,1.54126,0.21364,0.980038995,-0.045593145,0.123229665
1764767528.5336602,-3.5098,1.54126,0.21364,0.980038995,-0.045593145,0.123229665
1764767528.5336602,-3.5098,1.54126,0.21364,0.980038995,-0.045593145,0.123229665
1764767528.5336602,-3.5098,1.54126,0.21364,0.980038995,-0.045593145,0.123229665
1764767528.5336602,-3.5098,1.54126,0.21364,0.980038995,-0.045593145,0.123229665
1764767528.5336602,-3.5098,1.54126,0.21364,0.980038995,-0.045593145,0.123229665
1764767528.5336602,-3.5098,1.54126,0.21364,0.980038995,-0.045593145,0.123229665
1764767528.5336602,-3.5098,1.54126,0.21364,0.980038995,-0.045593145,0.123229665
1764767528.5336602,-4.07442,1.73964,0.25942,0.97985589,-0.04504383,0.122985525
1764767528.5336602,-4.07442,1.73964,0.25942,0.97985589,-0.04504383,0.122985525
1764767528.5336602,-4.07442,1.73964,0.25942,0.97985589,-0.04504383,0.122985525
1764767528.5336602,-4.07442,1.73964,0.25942,0.97985589,-0.04504383,0.122985525
1764767528.5336602,-4.07442,1.73964,0.25942,0.97985589,-0.04504383,0.122985525
1764767528.5336602,-4.07442,1.73964,0.25942,0.97985589,-0.04504383,0.122985525
1764767528.5336602,-4.07442,1.73964,0.25942,0.97985589,-0.04504383,0.122985525
1764767528.5336602,-4.07442,1.73964,0.25942,0.97985589,-0.04504383,0.122985525
1764767528.5336602,-4.07442,1.73964,0.25942,0.97985589,-0.04504383,0.122985525
1764767528.5336602,-4.07442,1.73964,0.25942,0.97985589,-0.04504383,0.122985525
1764767528.5336602,-3.93708,1.63282,1.15976,0.97936761,-0.04479969,0.12292449
1764767528.5336602,-3.93708,1.63282,1.15976,0.97936761,-0.04479969,0.12292449
1764767528.5336602,-3.93708,1.63282,1.15976,0.97936761,-0.04479969,0.12292449
1764767528.5336602,-3.93708,1.63282,1.15976,0.97936761,-0.04479969,0.12292449
1764767528.580469,-3.93708,1.63282,1.15976,0.97936761,-0.04479969,0.12292449
1764767528.580469,-3.93708,1.63282,1.15976,0.97936761,-0.04479969,0.12292449
1764767528.580469,-3.93708,1.63282,1.15976,0.97936761,-0.04479969,0.12292449
1764767528.580469,-3.93708,1.63282,1.15976,0.97936761,-0.04479969,0.12292449
1764767528.580469,-3.93708,1.63282,1.15976,0.97936761,-0.04479969,0.12292449
1764767528.580469,-3.93708,1.63282,1.15976,0.97936761,-0.04479969,0.12292449
1764767528.580469,-3.5098,1.6786,1.58704,0.978696225,-0.044494515,0.12377898
1764767528.580469,-3.5098,1.6786,1.58704,0.978696225,-0.044494515,0.12377898
1764767528.580469,-3.5098,1.6786,1.58704,0.978696225,-0.044494515,0.12377898
1764767528.580469,-3.5098,1.6786,1.58704,0.978696225,-0.044494515,0.12377898
1764767528.580469,-3.5098,1.6786,1.58704,0.978696225,-0.044494515,0.12377898
1764767528.580469,-3.5098,1.6786,1.58704,0.978696225,-0.044494515,0.12377898
1764767528.580469,-3.5098,1.6786,1.58704,0.978696225,-0.044494515,0.12377898
1764767528.580469,-3.5098,1.6786,1.58704,0.978696225,-0.044494515,0.12377898
1764767528.580469,-3.5098,1.6786,1.58704,0.978696225,-0.044494515,0.12377898
1764767528.580469,-3.5098,1.6786,1.58704,0.978696225,-0.044494515,0.12377898
1764767528.580469,-3.3572,1.70912,1.72438,0.979306575,-0.04553211,0.123962085
1764767528.580469,-3.3572,1.70912,1.72438,0.979306575,-0.04553211,0.123962085
1764767528.580469,-3.3572,1.70912,1.72438,0.979306575,-0.04553211,0.123962085
1764767528.580469,-3.3572,1.70912,1.72438,0.979306575,-0.04553211,0.123962085
1764767528.580469,-3.3572,1.70912,1.72438,0.979306575,-0.04553211,0.123962085
1764767528.580469,-3.3572,1.70912,1.72438,0.979306575,-0.04553211,0.123962085
1764767528.580469,-3.3572,1.70912,1.72438,0.979306575,-0.04553211,0.123962085
1764767528.580469,-3.3572,1.70912,1.72438,0.979306575,-0.04553211,0.123962085
1764767528.6273732,-3.3572,1.70912,1.72438,0.979306575,-0.04553211,0.123962085
1764767528.6273732,-3.3572,1.70912,1.72438,0.979306575,-0.04553211,0.123962085
1764767528.6273732,-3.4335,1.72438,1.87698,0.97936761,-0.046203495,0.124328295
1764767528.6273732,-3.4335,1.72438,1.87698,0.97936761,-0.046203495,0.124328295
1764767528.6273732,-3.4335,1.72438,1.87698,0.97936761,-0.046203495,0.124328295
1764767528.6273732,-3.4335,1.72438,1.87698,0.97936761,-0.046203495,0.124328295
1764767528.6273732,-3.4335,1.72438,1.87698,0.97936761,-0.046203495,0.124328295
1764767528.6273732,-3.4335,1.72438,1.87698,0.97936761,-0.046203495,0.124328295
1764767528.6273732,-3.4335,1.72438,1.87698,0.97936761,-0.046203495,0.124328295
1764767528.6273732,-3.4335,1.72438,1.87698,0.97936761,-0.046203495,0.124328295
1764767528.6273732,-3.4335,1.72438,1.87698,0.97936761,-0.046203495,0.124328295
1764767528.6273732,-3.4335,1.72438,1.87698,0.97936761,-0.046203495,0.124328295
1764767528.6273732,-2.91466,1.55652,1.72438,0.978696225,-0.0476073,0.124572435
1764767528.6273732,-2.91466,1.55652,1.72438,0.978696225,-0.0476073,0.124572435
1764767528.6273732,-2.91466,1.55652,1.72438,0.978696225,-0.0476073,0.124572435
1764767528.6273732,-2.91466,1.55652,1.72438,0.978696225,-0.0476073,0.124572435
1764767528.6273732,-2.91466,1.55652,1.72438,0.978696225,-0.0476073,0.124572435
1764767528.6273732,-2.91466,1.55652,1.72438,0.978696225,-0.0476073,0.124572435
1764767528.6273732,-2.91466,1.55652,1.72438,0.978696225,-0.0476073,0.124572435
1764767528.6273732,-2.91466,1.55652,1.72438,0.978696225,-0.0476073,0.124572435
1764767528.6273732,-2.91466,1.55652,1.72438,0.978696225,-0.0476073,0.124572435
1764767528.6273732,-2.91466,1.55652,1.72438,0.978696225,-0.0476073,0.124572435
1764767528.6733298,-2.62472,1.2208,1.86172,0.977963805,-0.048400755,0.12499968
1764767528.6733298,-2.62472,1.2208,1.86172,0.977963805,-0.048400755,0.12499968
1764767528.6733298,-2.62472,1.2208,1.86172,0.977963805,-0.048400755,0.12499968
1764767528.6733298,-2.62472,1.2208,1.86172,0.977963805,-0.048400755,0.12499968
1764767528.6733298,-2.62472,1.2208,1.86172,0.977963805,-0.048400755,0.12499968
1764767528.6733298,-2.62472,1.2208,1.86172,0.977963805,-0.048400755,0.12499968
1764767528.6733298,-2.62472,1.2208,1.86172,0.977963805,-0.048400755,0.12499968
1764767528.6733298,-2.62472,1.2208,1.86172,0.977963805,-0.048400755,0.12499968
1764767528.6733298,-2.62472,1.2208,1.86172,0.977963805,-0.048400755,0.12499968
1764767528.6733298,-2.62472,1.2208,1.86172,0.977963805,-0.048400755,0.12499968
1764767528.6733298,-3.2809,0.9919,1.4039199999999998,0.97863519,-0.04809558,0.12463347
1764767528.6733298,-3.2809,0.9919,1.4039199999999998,0.97863519,-0.04809558,0.12463347
1764767528.6733298,-3.2809,0.9919,1.4039199999999998,0.97863519,-0.04809558,0.12463347
1764767528.6733298,-3.2809,0.9919,1.4039199999999998,0.97863519,-0.04809558,0.12463347
1764767528.6733298,-3.2809,0.9919,1.4039199999999998,0.97863519,-0.04809558,0.12463347
1764767528.6733298,-3.2809,0.9919,1.4039199999999998,0.97863519,-0.04809558,0.12463347
1764767528.6733298,-3.2809,0.9919,1.4039199999999998,0.97863519,-0.04809558,0.12463347
1764767528.674657,-3.2809,0.9919,1.4039199999999998,0.97863519,-0.04809558,0.12463347
1764767528.674657,-3.2809,0.9919,1.4039199999999998,0.97863519,-0.04809558,0.12463347
1764767528.674657,-3.2809,0.9919,1.4039199999999998,0.97863519,-0.04809558,0.12463347
1764767528.674657,-3.4335,0.97664,0.65618,0.97851312,-0.0476073,0.124084155
1764767528.674657,-3.4335,0.97664,0.65618,0.97851312,-0.0476073,0.124084155
1764767528.674657,-3.4335,0.97664,0.65618,0.97851312,-0.0476073,0.124084155
1764767528.674657,-3.4335,0.97664,0.65618,0.97851312,-0.0476073,0.124084155
1764767528.7203188,-3.4335,0.97664,0.65618,0.97851312,-0.0476073,0.124084155
1764767528.7203188,-3.4335,0.97664,0.65618,0.97851312,-0.0476073,0.124084155
1764767528.7203188,-3.4335,0.97664,0.65618,0.97851312,-0.0476073,0.124084155
1764767528.7203188,-3.4335,0.97664,0.65618,0.97851312,-0.0476073,0.124084155
1764767528.7203188,-3.4335,0.97664,0.65618,0.97851312,-0.0476073,0.124084155
1764767528.7203188,-3.4335,0.97664,0.65618,0.97851312,-0.0476073,0.124084155
1764767528.7203188,-3.815,1.15976,0.57988,0.979794855,-0.048644895,0.12487761
1764767528.7203188,-3.815,1.15976,0.57988,0.979794855,-0.048644895,0.12487761
1764767528.7203188,-3.815,1.15976,0.57988,0.979794855,-0.048644895,0.12487761
1764767528.7203188,-3.815,1.15976,0.57988,0.979794855,-0.048644895,0.12487761
1764767528.7203188,-3.815,1.15976,0.57988,0.979794855,-0.048644895,0.12487761
1764767528.7203188,-3.815,1.15976,0.57988,0.979794855,-0.048644895,0.12487761
1764767528.7203188,-3.815,1.15976,0.57988,0.979794855,-0.048644895,0.12487761
1764767528.7203188,-3.815,1.15976,0.57988,0.979794855,-0.048644895,0.12487761
1764767528.7203188,-3.815,1.15976,0.57988,0.979794855,-0.048644895,0.12487761
1764767528.7203188,-3.815,1.15976,0.57988,0.979794855,-0.048644895,0.12487761
1764767528.7203188,-4.21176,1.28184,0.62566,0.97814691,-0.049621455,0.12512175
1764767528.7203188,-4.21176,1.28184,0.62566,0.97814691,-0.049621455,0.12512175
1764767528.721335,-4.21176,1.28184,0.62566,0.97814691,-0.049621455,0.12512175
1764767528.721335,-4.21176,1.28184,0.62566,0.97814691,-0.049621455,0.12512175
1764767528.721335,-4.21176,1.28184,0.62566,0.97814691,-0.049621455,0.12512175
1764767528.721335,-4.21176,1.28184,0.62566,0.97814691,-0.049621455,0.12512175
1764767528.721335,-4.21176,1.28184,0.62566,0.97814691,-0.049621455,0.12512175
1764767528.721335,-4.21176,1.28184,0.62566,0.97814691,-0.049621455,0.12512175
1764767528.7668695,-4.21176,1.28184,0.62566,0.97814691,-0.049621455,0.12512175
1764767528.7668695,-4.21176,1.28184,0.62566,0.97814691,-0.049621455,0.12512175
1764767528.7668695,-3.69292,1.03768,0.36624,0.978330015,-0.050475945,0.124816575
1764767528.7668695,-3.69292,1.03768,0.36624,0.978330015,-0.050475945,0.124816575
1764767528.7668695,-3.69292,1.03768,0.36624,0.978330015,-0.050475945,0.124816575
1764767528.7668695,-3.69292,1.03768,0.36624,0.978330015,-0.050475945,0.124816575
1764767528.7668695,-3.69292,1.03768,0.36624,0.978330015,-0.050475945,0.124816575
1764767528.7668695,-3.69292,1.03768,0.36624,0.978330015,-0.050475945,0.124816575
1764767528.7668695,-3.69292,1.03768,0.36624,0.978330015,-0.050475945,0.124816575
1764767528.7668695,-3.69292,1.03768,0.36624,0.978330015,-0.050475945,0.124816575
1764767528.7668695,-3.69292,1.03768,0.36624,0.978330015,-0.050475945,0.124816575
1764767528.7668695,-3.69292,1.03768,0.36624,0.978330015,-0.050475945,0.124816575
1764767528.7668695,-3.815,0.77826,-0.12208,0.979550715,-0.049743525,0.12438933
1764767528.7668695,-3.815,0.77826,-0.12208,0.979550715,-0.049743525,0.12438933
1764767528.7673974,-3.815,0.77826,-0.12208,0.979550715,-0.049743525,0.12438933
1764767528.7673974,-3.815,0.77826,-0.12208,0.979550715,-0.049743525,0.12438933
1764767528.7673974,-3.815,0.77826,-0.12208,0.979550715,-0.049743525,0.12438933
1764767528.7673974,-3.815,0.77826,-0.12208,0.979550715,-0.049743525,0.12438933
1764767528.7673974,-3.815,0.77826,-0.12208,0.979550715,-0.049743525,0.12438933
1764767528.7673974,-3.815,0.77826,-0.12208,0.979550715,-0.049743525,0.12438933
1764767528.7673974,-3.815,0.77826,-0.12208,0.979550715,-0.049743525,0.12438933
1764767528.7673974,-3.815,0.77826,-0.12208,0.979550715,-0.049743525,0.12438933
1764767528.7673974,-3.90656,1.4497,-0.28994,0.98034417,-0.048889035,0.124938645
1764767528.7673974,-3.90656,1.4497,-0.28994,0.98034417,-0.048889035,0.124938645
1764767528.8134556,-3.90656,1.4497,-0.28994,0.98034417,-0.048889035,0.124938645
1764767528.8134556,-3.90656,1.4497,-0.28994,0.98034417,-0.048889035,0.124938645
1764767528.8139815,-3.90656,1.4497,-0.28994,0.98034417,-0.048889035,0.124938645
1764767528.8139815,-3.90656,1.4497,-0.28994,0.98034417,-0.048889035,0.124938645
1764767528.8139815,-3.90656,1.4497,-0.28994,0.98034417,-0.048889035,0.124938645
1764767528.8139815,-3.90656,1.4497,-0.28994,0.98034417,-0.048889035,0.124938645
1764767528.8139815,-3.90656,1.4497,-0.28994,0.98034417,-0.048889035,0.124938645
1764767528.8139815,-3.90656,1.4497,-0.28994,0.98034417,-0.048889035,0.124938645
1764767528.8139815,-3.60136,1.6022999999999998,-0.8087799999999999,0.978574155,-0.047302125,0.125548995
1764767528.8139815,-3.60136,1.6022999999999998,-0.8087799999999999,0.978574155,-0.047302125,0.125548995
1764767528.8139815,-3.60136,1.6022999999999998,-0.8087799999999999,0.978574155,-0.047302125,0.125548995
1764767528.8139815,-3.60136,1.6022999999999998,-0.8087799999999999,0.978574155,-0.047302125,0.125548995
1764767528.8139815,-3.60136,1.6022999999999998,-0.8087799999999999,0.978574155,-0.047302125,0.125548995
1764767528.8139815,-3.60136,1.6022999999999998,-0.8087799999999999,0.978574155,-0.047302125,0.125548995
1764767528.8139815,-3.60136,1.6022999999999998,-0.8087799999999999,0.978574155,-0.047302125,0.125548995
1764767528.8139815,-3.60136,1.6022999999999998,-0.8087799999999999,0.978574155,-0.047302125,0.125548995
1764767528.8139815,-3.60136,1.6022999999999998,-0.8087799999999999,0.978574155,-0.047302125,0.125548995
1764767528.8139815,-3.60136,1.6022999999999998,-0.8087799999999999,0.978574155,-0.047302125,0.125548995
1764767528.8139815,-3.44876,1.64808,-1.02242,0.977597595,-0.046203495,0.12548796
1764767528.8139815,-3.44876,1.64808,-1.02242,0.977597595,-0.046203495,0.12548796
1764767528.8139815,-3.44876,1.64808,-1.02242,0.977597595,-0.046203495,0.12548796
1764767528.8139815,-3.44876,1.64808,-1.02242,0.977597595,-0.046203495,0.12548796
1764767528.8602295,-3.44876,1.64808,-1.02242,0.977597595,-0.046203495,0.12548796
1764767528.8602295,-3.44876,1.64808,-1.02242,0.977597595,-0.046203495,0.12548796
1764767528.8602295,-3.44876,1.64808,-1.02242,0.977597595,-0.046203495,0.12548796
1764767528.8602295,-3.44876,1.64808,-1.02242,0.977597595,-0.046203495,0.12548796
1764767528.8602295,-3.44876,1.64808,-1.02242,0.977597595,-0.046203495,0.12548796
1764767528.8602295,-3.44876,1.64808,-1.02242,0.977597595,-0.046203495,0.12548796
1764767528.8602295,-3.38772,1.78542,-0.56462,0.977841735,-0.04541004,0.12609831
1764767528.8602295,-3.38772,1.78542,-0.56462,0.977841735,-0.04541004,0.12609831
1764767528.8602295,-3.38772,1.78542,-0.56462,0.977841735,-0.04541004,0.12609831
1764767528.8602295,-3.38772,1.78542,-0.56462,0.977841735,-0.04541004,0.12609831
1764767528.8602295,-3.38772,1.78542,-0.56462,0.977841735,-0.04541004,0.12609831
1764767528.8602295,-3.38772,1.78542,-0.56462,0.977841735,-0.04541004,0.12609831
1764767528.8602295,-3.38772,1.78542,-0.56462,0.977841735,-0.04541004,0.12609831
1764767528.8602295,-3.38772,1.78542,-0.56462,0.977841735,-0.04541004,0.12609831
1764767528.8602295,-3.38772,1.78542,-0.56462,0.977841735,-0.04541004,0.12609831
1764767528.8602295,-3.38772,1.78542,-0.56462,0.977841735,-0.04541004,0.12609831
1764767528.8602295,-3.41824,1.51074,0.27468,0.97802484,-0.044738655,0.12658659
1764767528.8602295,-3.41824,1.51074,0.27468,0.97802484,-0.044738655,0.12658659
1764767528.8602295,-3.41824,1.51074,0.27468,0.97802484,-0.044738655,0.12658659
1764767528.8602295,-3.41824,1.51074,0.27468,0.97802484,-0.044738655,0.12658659
1764767528.8602295,-3.41824,1.51074,0.27468,0.97802484,-0.044738655,0.12658659
1764767528.861247,-3.41824,1.51074,0.27468,0.97802484,-0.044738655,0.12658659
1764767528.861247,-3.41824,1.51074,0.27468,0.97802484,-0.044738655,0.12658659
1764767528.861247,-3.41824,1.51074,0.27468,0.97802484,-0.044738655,0.12658659
1764767528.906989,-3.41824,1.51074,0.27468,0.97802484,-0.044738655,0.12658659
1764767528.906989,-3.41824,1.51074,0.27468,0.97802484,-0.044738655,0.12658659
1764767528.906989,-3.34194,1.73964,1.05294,0.97875726,-0.044372445,0.127380045
1764767528.906989,-3.34194,1.73964,1.05294,0.97875726,-0.044372445,0.127380045
1764767528.906989,-3.34194,1.73964,1.05294,0.97875726,-0.044372445,0.127380045
1764767528.906989,-3.34194,1.73964,1.05294,0.97875726,-0.044372445,0.127380045
1764767528.906989,-3.34194,1.73964,1.05294,0.97875726,-0.044372445,0.127380045
1764767528.906989,-3.34194,1.73964,1.05294,0.97875726,-0.044372445,0.127380045
1764767528.906989,-3.34194,1.73964,1.05294,0.97875726,-0.044372445,0.127380045
1764767528.906989,-3.34194,1.73964,1.05294,0.97875726,-0.044372445,0.127380045
1764767528.906989,-3.34194,1.73964,1.05294,0.97875726,-0.044372445,0.127380045
1764767528.906989,-3.34194,1.73964,1.05294,0.97875726,-0.044372445,0.127380045
1764767528.906989,-3.32668,1.11398,0.9919,0.97839105,-0.044372445,0.127990395
1764767528.906989,-3.32668,1.11398,0.9919,0.97839105,-0.044372445,0.127990395
1764767528.9074972,-3.32668,1.11398,0.9919,0.97839105,-0.044372445,0.127990395
1764767528.9074972,-3.32668,1.11398,0.9919,0.97839105,-0.044372445,0.127990395
1764767528.9074972,-3.32668,1.11398,0.9919,0.97839105,-0.044372445,0.127990395
1764767528.9074972,-3.32668,1.11398,0.9919,0.97839105,-0.044372445,0.127990395
1764767528.9074972,-3.32668,1.11398,0.9919,0.97839105,-0.044372445,0.127990395
1764767528.9074972,-3.32668,1.11398,0.9919,0.97839105,-0.044372445,0.127990395
1764767528.9074972,-3.32668,1.11398,0.9919,0.97839105,-0.044372445,0.127990395
1764767528.9074972,-3.32668,1.11398,0.9919,0.97839105,-0.044372445,0.127990395
1764767528.951259,-3.47928,1.12924,1.4039199999999998,0.978696225,-0.044250375,0.12829557
1764767528.951259,-3.47928,1.12924,1.4039199999999998,0.978696225,-0.044250375,0.12829557
1764767528.951259,-3.47928,1.12924,1.4039199999999998,0.978696225,-0.044250375,0.12829557
1764767528.951259,-3.47928,1.12924,1.4039199999999998,0.978696225,-0.044250375,0.12829557
1764767528.951259,-3.47928,1.12924,1.4039199999999998,0.978696225,-0.044250375,0.12829557
1764767528.951259,-3.47928,1.12924,1.4039199999999998,0.978696225,-0.044250375,0.12829557
1764767528.951259,-3.47928,1.12924,1.4039199999999998,0.978696225,-0.044250375,0.12829557
1764767528.951259,-3.47928,1.12924,1.4039199999999998,0.978696225,-0.044250375,0.12829557
1764767528.951259,-3.47928,1.12924,1.4039199999999998,0.978696225,-0.044250375,0.12829557
1764767528.951259,-3.47928,1.12924,1.4039199999999998,0.978696225,-0.044250375,0.12829557
1764767528.951259,-3.52506,0.82404,1.15976,0.978330015,-0.044494515,0.127502115
1764767528.951259,-3.52506,0.82404,1.15976,0.978330015,-0.044494515,0.127502115
1764767528.951259,-3.52506,0.82404,1.15976,0.978330015,-0.044494515,0.127502115
1764767528.951259,-3.52506,0.82404,1.15976,0.978330015,-0.044494515,0.127502115
1764767528.951259,-3.52506,0.82404,1.15976,0.978330015,-0.044494515,0.127502115
1764767528.951259,-3.52506,0.82404,1.15976,0.978330015,-0.044494515,0.127502115
1764767528.951259,-3.52506,0.82404,1.15976,0.978330015,-0.044494515,0.127502115
1764767528.951259,-3.52506,0.82404,1.15976,0.978330015,-0.044494515,0.127502115
1764767528.951259,-3.52506,0.82404,1.15976,0.978330015,-0.044494515,0.127502115
1764767528.951259,-3.52506,0.82404,1.15976,0.978330015,-0.044494515,0.127502115
1764767528.951259,-3.69292,0.6103999999999999,0.8698199999999999,0.977353455,-0.04504383,0.126891765
1764767528.951259,-3.69292,0.6103999999999999,0.8698199999999999,0.977353455,-0.04504383,0.126891765
1764767528.951259,-3.69292,0.6103999999999999,0.8698199999999999,0.977353455,-0.04504383,0.126891765
1764767528.951259,-3.69292,0.6103999999999999,0.8698199999999999,0.977353455,-0.04504383,0.126891765
1764767529.0014467,-3.69292,0.6103999999999999,0.8698199999999999,0.977353455,-0.04504383,0.126891765
1764767529.0014467,-3.69292,0.6103999999999999,0.8698199999999999,0.977353455,-0.04504383,0.126891765
1764767529.0014467,-3.69292,0.6103999999999999,0.8698199999999999,0.977353455,-0.04504383,0.126891765
1764767529.0014467,-3.69292,0.6103999999999999,0.8698199999999999,0.977353455,-0.04504383,0.126891765
1764767529.0014467,-3.69292,0.6103999999999999,0.8698199999999999,0.977353455,-0.04504383,0.126891765
1764767529.0014467,-3.69292,0.6103999999999999,0.8698199999999999,0.977353455,-0.04504383,0.126891765
1764767529.0014467,-4.18124,0.50358,0.93086,0.977353455,-0.04418934,0.12622038
1764767529.0014467,-4.18124,0.50358,0.93086,0.977353455,-0.04418934,0.12622038
1764767529.0014467,-4.18124,0.50358,0.93086,0.977353455,-0.04418934,0.12622038
1764767529.0014467,-4.18124,0.50358,0.93086,0.977353455,-0.04418934,0.12622038
1764767529.0014467,-4.18124,0.50358,0.93086,0.977353455,-0.04418934,0.12622038
1764767529.0014467,-4.18124,0.50358,0.93086,0.977353455,-0.04418934,0.12622038
1764767529.0014467,-4.18124,0.50358,0.93086,0.977353455,-0.04418934,0.12622038
1764767529.0014467,-4.18124,0.50358,0.93086,0.977353455,-0.04418934,0.12622038
1764767529.0014467,-4.18124,0.50358,0.93086,0.977353455,-0.04418934,0.12622038
1764767529.0014467,-4.18124,0.50358,0.93086,0.977353455,-0.04418934,0.12622038
1764767529.0014467,-4.440659999999999,0.39676,1.48022,0.97753656,-0.04492176,0.12536589
1764767529.0014467,-4.440659999999999,0.39676,1.48022,0.97753656,-0.04492176,0.12536589
1764767529.0014467,-4.440659999999999,0.39676,1.48022,0.97753656,-0.04492176,0.12536589
1764767529.0014467,-4.440659999999999,0.39676,1.48022,0.97753656,-0.04492176,0.12536589
1764767529.0014467,-4.440659999999999,0.39676,1.48022,0.97753656,-0.04492176,0.12536589
1764767529.0014467,-4.440659999999999,0.39676,1.48022,0.97753656,-0.04492176,0.12536589
1764767529.0014467,-4.440659999999999,0.39676,1.48022,0.97753656,-0.04492176,0.12536589
1764767529.0014467,-4.440659999999999,0.39676,1.48022,0.97753656,-0.04492176,0.12536589
1764767529.0482628,-4.440659999999999,0.39676,1.48022,0.97753656,-0.04492176,0.12536589
1764767529.0482628,-4.440659999999999,0.39676,1.48022,0.97753656,-0.04492176,0.12536589
1764767529.0482628,-3.98286,0.57988,1.87698,0.97790277,-0.045837285,0.125060715
1764767529.0487728,-3.98286,0.57988,1.87698,0.97790277,-0.045837285,0.125060715
1764767529.0487728,-3.98286,0.57988,1.87698,0.97790277,-0.045837285,0.125060715
1764767529.0487728,-3.98286,0.57988,1.87698,0.97790277,-0.045837285,0.125060715
1764767529.0487728,-3.98286,0.57988,1.87698,0.97790277,-0.045837285,0.125060715
1764767529.0487728,-3.98286,0.57988,1.87698,0.97790277,-0.045837285,0.125060715
1764767529.0487728,-3.98286,0.57988,1.87698,0.97790277,-0.045837285,0.125060715
1764767529.0487728,-3.98286,0.57988,1.87698,0.97790277,-0.045837285,0.125060715
1764767529.0487728,-3.98286,0.57988,1.87698,0.97790277,-0.045837285,0.125060715
1764767529.0487728,-3.98286,0.57988,1.87698,0.97790277,-0.045837285,0.125060715
1764767529.0487728,-3.815,0.4578,2.07536,0.978330015,-0.047302125,0.124938645
1764767529.0487728,-3.815,0.4578,2.07536,0.978330015,-0.047302125,0.124938645
1764767529.0487728,-3.815,0.4578,2.07536,0.978330015,-0.047302125,0.124938645
1764767529.0487728,-3.815,0.4578,2.07536,0.978330015,-0.047302125,0.124938645
1764767529.0487728,-3.815,0.4578,2.07536,0.978330015,-0.047302125,0.124938645
1764767529.0487728,-3.815,0.4578,2.07536,0.978330015,-0.047302125,0.124938645
1764767529.0487728,-3.815,0.4578,2.07536,0.978330015,-0.047302125,0.124938645
1764767529.0487728,-3.815,0.4578,2.07536,0.978330015,-0.047302125,0.124938645
1764767529.0487728,-3.815,0.4578,2.07536,0.978330015,-0.047302125,0.124938645
1764767529.0487728,-3.815,0.4578,2.07536,0.978330015,-0.047302125,0.124938645
1764767529.0955129,-3.63188,0.6867,1.73964,0.978940365,-0.048400755,0.124084155
1764767529.0955129,-3.63188,0.6867,1.73964,0.978940365,-0.048400755,0.124084155
1764767529.0955129,-3.63188,0.6867,1.73964,0.978940365,-0.048400755,0.124084155
1764767529.0955129,-3.63188,0.6867,1.73964,0.978940365,-0.048400755,0.124084155
1764767529.0955129,-3.63188,0.6867,1.73964,0.978940365,-0.048400755,0.124084155
1764767529.0955129,-3.63188,0.6867,1.73964,0.978940365,-0.048400755,0.124084155
1764767529.0955129,-3.63188,0.6867,1.73964,0.978940365,-0.048400755,0.124084155
1764767529.0955129,-3.63188,0.6867,1.73964,0.978940365,-0.048400755,0.124084155
1764767529.0955129,-3.63188,0.6867,1.73964,0.978940365,-0.048400755,0.124084155
1764767529.0955129,-3.63188,0.6867,1.73964,0.978940365,-0.048400755,0.124084155
1764767529.0955129,-3.3572,1.00716,1.38866,0.978696225,-0.04895007,0.12365691
1764767529.0955129,-3.3572,1.00716,1.38866,0.978696225,-0.04895007,0.12365691
1764767529.0955129,-3.3572,1.00716,1.38866,0.978696225,-0.04895007,0.12365691
1764767529.0955129,-3.3572,1.00716,1.38866,0.978696225,-0.04895007,0.12365691
1764767529.0955129,-3.3572,1.00716,1.38866,0.978696225,-0.04895007,0.12365691
1764767529.0955129,-3.3572,1.00716,1.38866,0.978696225,-0.04895007,0.12365691
1764767529.0955129,-3.3572,1.00716,1.38866,0.978696225,-0.04895007,0.12365691
1764767529.0955129,-3.3572,1.00716,1.38866,0.978696225,-0.04895007,0.12365691
1764767529.0955129,-3.3572,1.00716,1.38866,0.978696225,-0.04895007,0.12365691
1764767529.0955129,-3.3572,1.00716,1.38866,0.978696225,-0.04895007,0.12365691
1764767529.0955129,-3.76922,1.1445,0.97664,0.979550715,-0.05029284,0.124206225
1764767529.0955129,-3.76922,1.1445,0.97664,0.979550715,-0.05029284,0.124206225
1764767529.0955129,-3.76922,1.1445,0.97664,0.979550715,-0.05029284,0.124206225
1764767529.0955129,-3.76922,1.1445,0.97664,0.979550715,-0.05029284,0.124206225
1764767529.0955129,-3.76922,1.1445,0.97664,0.979550715,-0.05029284,0.124206225
1764767529.0955129,-3.76922,1.1445,0.97664,0.979550715,-0.05029284,0.124206225
1764767529.138791,-3.76922,1.1445,0.97664,0.979550715,-0.05029284,0.124206225
1764767529.138791,-3.76922,1.1445,0.97664,0.979550715,-0.05029284,0.124206225
1764767529.138791,-3.76922,1.1445,0.97664,0.979550715,-0.05029284,0.124206225
1764767529.138791,-3.76922,1.1445,0.97664,0.979550715,-0.05029284,0.124206225
1764767529.138791,-3.70818,1.49548,0.50358,0.980527275,-0.04956042,0.124450365
1764767529.138791,-3.70818,1.49548,0.50358,0.980527275,-0.04956042,0.124450365
1764767529.138791,-3.70818,1.49548,0.50358,0.980527275,-0.04956042,0.124450365
1764767529.138791,-3.70818,1.49548,0.50358,0.980527275,-0.04956042,0.124450365
1764767529.138791,-3.70818,1.49548,0.50358,0.980527275,-0.04956042,0.124450365
1764767529.138791,-3.70818,1.49548,0.50358,0.980527275,-0.04956042,0.124450365
1764767529.138791,-3.70818,1.49548,0.50358,0.980527275,-0.04956042,0.124450365
1764767529.138791,-3.70818,1.49548,0.50358,0.980527275,-0.04956042,0.124450365
1764767529.138791,-3.70818,1.49548,0.50358,0.980527275,-0.04956042,0.124450365
1764767529.138791,-3.70818,1.49548,0.50358,0.980527275,-0.04956042,0.124450365
1764767529.138791,-4.31858,1.7549,0.13734,0.98046624,-0.048156615,0.1245114
1764767529.138791,-4.31858,1.7549,0.13734,0.98046624,-0.048156615,0.1245114
1764767529.138791,-4.31858,1.7549,0.13734,0.98046624,-0.048156615,0.1245114
1764767529.138791,-4.31858,1.7549,0.13734,0.98046624,-0.048156615,0.1245114
1764767529.1398077,-4.31858,1.7549,0.13734,0.98046624,-0.048156615,0.1245114
1764767529.1398077,-4.31858,1.7549,0.13734,0.98046624,-0.048156615,0.1245114
1764767529.1398077,-4.31858,1.7549,0.13734,0.98046624,-0.048156615,0.1245114
1764767529.1398077,-4.31858,1.7549,0.13734,0.98046624,-0.048156615,0.1245114
1764767529.185457,-4.31858,1.7549,0.13734,0.98046624,-0.048156615,0.1245114
1764767529.185457,-4.31858,1.7549,0.13734,0.98046624,-0.048156615,0.1245114
1764767529.185457,-4.10494,1.31236,0.41202,0.97924554,-0.048156615,0.125304855
1764767529.185457,-4.10494,1.31236,0.41202,0.97924554,-0.048156615,0.125304855
1764767529.185457,-4.10494,1.31236,0.41202,0.97924554,-0.048156615,0.125304855
1764767529.185457,-4.10494,1.31236,0.41202,0.97924554,-0.048156615,0.125304855
1764767529.185457,-4.10494,1.31236,0.41202,0.97924554,-0.048156615,0.125304855
1764767529.185457,-4.10494,1.31236,0.41202,0.97924554,-0.048156615,0.125304855
1764767529.185457,-4.10494,1.31236,0.41202,0.97924554,-0.048156615,0.125304855
1764767529.185457,-4.10494,1.31236,0.41202,0.97924554,-0.048156615,0.125304855
1764767529.185457,-4.10494,1.31236,0.41202,0.97924554,-0.048156615,0.125304855
1764767529.185457,-4.10494,1.31236,0.41202,0.97924554,-0.048156615,0.125304855
1764767529.185457,-4.02864,1.64808,0.4578,0.978085875,-0.04736316,0.125426925
1764767529.185457,-4.02864,1.64808,0.4578,0.978085875,-0.04736316,0.125426925
1764767529.185457,-4.02864,1.64808,0.4578,0.978085875,-0.04736316,0.125426925
1764767529.185457,-4.02864,1.64808,0.4578,0.978085875,-0.04736316,0.125426925
1764767529.185457,-4.02864,1.64808,0.4578,0.978085875,-0.04736316,0.125426925
1764767529.185457,-4.02864,1.64808,0.4578,0.978085875,-0.04736316,0.125426925
1764767529.185457,-4.02864,1.64808,0.4578,0.978085875,-0.04736316,0.125426925
1764767529.185457,-4.02864,1.64808,0.4578,0.978085875,-0.04736316,0.125426925
1764767529.18648,-4.02864,1.64808,0.4578,0.978085875,-0.04736316,0.125426925
1764767529.18648,-4.02864,1.64808,0.4578,0.978085875,-0.04736316,0.125426925
1764767529.231019,-3.76922,1.00716,0.6103999999999999,0.977841735,-0.048034545,0.12646452
1764767529.231019,-3.76922,1.00716,0.6103999999999999,0.977841735,-0.048034545,0.12646452
1764767529.231019,-3.76922,1.00716,0.6103999999999999,0.977841735,-0.048034545,0.12646452
1764767529.231527,-3.76922,1.00716,0.6103999999999999,0.977841735,-0.048034545,0.12646452
1764767529.231527,-3.76922,1.00716,0.6103999999999999,0.977841735,-0.048034545,0.12646452
1764767529.231527,-3.76922,1.00716,0.6103999999999999,0.977841735,-0.048034545,0.12646452
1764767529.231527,-3.76922,1.00716,0.6103999999999999,0.977841735,-0.048034545,0.12646452
1764767529.231527,-3.76922,1.00716,0.6103999999999999,0.977841735,-0.048034545,0.12646452
1764767529.231527,-3.76922,1.00716,0.6103999999999999,0.977841735,-0.048034545,0.12646452
1764767529.231527,-3.76922,1.00716,0.6103999999999999,0.977841735,-0.048034545,0.12646452
1764767529.231527,-3.9676,1.38866,0.2289,0.978452085,-0.04785144,0.12719694
1764767529.231527,-3.9676,1.38866,0.2289,0.978452085,-0.04785144,0.12719694
1764767529.231527,-3.9676,1.38866,0.2289,0.978452085,-0.04785144,0.12719694
1764767529.231527,-3.9676,1.38866,0.2289,0.978452085,-0.04785144,0.12719694
1764767529.231527,-3.9676,1.38866,0.2289,0.978452085,-0.04785144,0.12719694
1764767529.231527,-3.9676,1.38866,0.2289,0.978452085,-0.04785144,0.12719694
1764767529.231527,-3.9676,1.38866,0.2289,0.978452085,-0.04785144,0.12719694
1764767529.231527,-3.9676,1.38866,0.2289,0.978452085,-0.04785144,0.12719694
1764767529.231527,-3.9676,1.38866,0.2289,0.978452085,-0.04785144,0.12719694
1764767529.231527,-3.9676,1.38866,0.2289,0.978452085,-0.04785144,0.12719694
1764767529.231527,-3.63188,1.23606,0.18312,0.97802484,-0.048522825,0.12707487
1764767529.231527,-3.63188,1.23606,0.18312,0.97802484,-0.048522825,0.12707487
1764767529.231527,-3.63188,1.23606,0.18312,0.97802484,-0.048522825,0.12707487
1764767529.231527,-3.63188,1.23606,0.18312,0.97802484,-0.048522825,0.12707487
1764767529.281441,-3.63188,1.23606,0.18312,0.97802484,-0.048522825,0.12707487
1764767529.281441,-3.63188,1.23606,0.18312,0.97802484,-0.048522825,0.12707487
1764767529.281441,-3.63188,1.23606,0.18312,0.97802484,-0.048522825,0.12707487
1764767529.281441,-3.63188,1.23606,0.18312,0.97802484,-0.048522825,0.12707487
1764767529.281441,-3.63188,1.23606,0.18312,0.97802484,-0.048522825,0.12707487
1764767529.281441,-3.63188,1.23606,0.18312,0.97802484,-0.048522825,0.12707487
1764767529.281441,-3.84552,0.9919,0.3509799999999999,0.977841735,-0.047912475,0.126403485
1764767529.281441,-3.84552,0.9919,0.3509799999999999,0.977841735,-0.047912475,0.126403485
1764767529.281441,-3.84552,0.9919,0.3509799999999999,0.977841735,-0.047912475,0.126403485
1764767529.281441,-3.84552,0.9919,0.3509799999999999,0.977841735,-0.047912475,0.126403485
1764767529.281441,-3.84552,0.9919,0.3509799999999999,0.977841735,-0.047912475,0.126403485
1764767529.281441,-3.84552,0.9919,0.3509799999999999,0.977841735,-0.047912475,0.126403485
1764767529.281441,-3.84552,0.9919,0.3509799999999999,0.977841735,-0.047912475,0.126403485
1764767529.281441,-3.84552,0.9919,0.3509799999999999,0.977841735,-0.047912475,0.126403485
1764767529.281441,-3.84552,0.9919,0.3509799999999999,0.977841735,-0.047912475,0.126403485
1764767529.281441,-3.84552,0.9919,0.3509799999999999,0.977841735,-0.047912475,0.126403485
1764767529.281441,-3.90656,0.71722,0.6714399999999999,0.97790277,-0.047790405,0.126891765
1764767529.281441,-3.90656,0.71722,0.6714399999999999,0.97790277,-0.047790405,0.126891765
1764767529.281441,-3.90656,0.71722,0.6714399999999999,0.97790277,-0.047790405,0.126891765
1764767529.281441,-3.90656,0.71722,0.6714399999999999,0.97790277,-0.047790405,0.126891765
1764767529.281441,-3.90656,0.71722,0.6714399999999999,0.97790277,-0.047790405,0.126891765
1764767529.281441,-3.90656,0.71722,0.6714399999999999,0.97790277,-0.047790405,0.126891765
1764767529.281441,-3.90656,0.71722,0.6714399999999999,0.97790277,-0.047790405,0.126891765
1764767529.28247,-3.90656,0.71722,0.6714399999999999,0.97790277,-0.047790405,0.126891765
1764767529.325129,-3.90656,0.71722,0.6714399999999999,0.97790277,-0.047790405,0.126891765
1764767529.325129,-3.90656,0.71722,0.6714399999999999,0.97790277,-0.047790405,0.126891765
1764767529.325129,-3.70818,0.8087799999999999,0.42728,0.977719665,-0.04711902,0.12670866
1764767529.325129,-3.70818,0.8087799999999999,0.42728,0.977719665,-0.04711902,0.12670866
1764767529.325129,-3.70818,0.8087799999999999,0.42728,0.977719665,-0.04711902,0.12670866
1764767529.325129,-3.70818,0.8087799999999999,0.42728,0.977719665,-0.04711902,0.12670866
1764767529.325129,-3.70818,0.8087799999999999,0.42728,0.977719665,-0.04711902,0.12670866
1764767529.325129,-3.70818,0.8087799999999999,0.42728,0.977719665,-0.04711902,0.12670866
1764767529.325637,-3.70818,0.8087799999999999,0.42728,0.977719665,-0.04711902,0.12670866
1764767529.325637,-3.70818,0.8087799999999999,0.42728,0.977719665,-0.04711902,0.12670866
1764767529.325637,-3.70818,0.8087799999999999,0.42728,0.977719665,-0.04711902,0.12670866
1764767529.325637,-3.70818,0.8087799999999999,0.42728,0.977719665,-0.04711902,0.12670866
1764767529.325637,-3.6624,0.5341,0.3051999999999999,0.97826898,-0.04833972,0.126525555
1764767529.325637,-3.6624,0.5341,0.3051999999999999,0.97826898,-0.04833972,0.126525555
1764767529.325637,-3.6624,0.5341,0.3051999999999999,0.97826898,-0.04833972,0.126525555
1764767529.325637,-3.6624,0.5341,0.3051999999999999,0.97826898,-0.04833972,0.126525555
1764767529.325637,-3.6624,0.5341,0.3051999999999999,0.97826898,-0.04833972,0.126525555
1764767529.325637,-3.6624,0.5341,0.3051999999999999,0.97826898,-0.04833972,0.126525555
1764767529.325637,-3.6624,0.5341,0.3051999999999999,0.97826898,-0.04833972,0.126525555
1764767529.325637,-3.6624,0.5341,0.3051999999999999,0.97826898,-0.04833972,0.126525555
1764767529.325637,-3.6624,0.5341,0.3051999999999999,0.97826898,-0.04833972,0.126525555
1764767529.325637,-3.6624,0.5341,0.3051999999999999,0.97826898,-0.04833972,0.126525555
1764767529.3720274,-3.6624,1.58704,0.6103999999999999,0.97851312,-0.048522825,0.12707487
1764767529.3720274,-3.6624,1.58704,0.6103999999999999,0.97851312,-0.048522825,0.12707487
1764767529.3720274,-3.6624,1.58704,0.6103999999999999,0.97851312,-0.048522825,0.12707487
1764767529.3720274,-3.6624,1.58704,0.6103999999999999,0.97851312,-0.048522825,0.12707487
1764767529.3720274,-3.6624,1.58704,0.6103999999999999,0.97851312,-0.048522825,0.12707487
1764767529.3720274,-3.6624,1.58704,0.6103999999999999,0.97851312,-0.048522825,0.12707487
1764767529.3720274,-3.6624,1.58704,0.6103999999999999,0.97851312,-0.048522825,0.12707487
1764767529.3720274,-3.6624,1.58704,0.6103999999999999,0.97851312,-0.048522825,0.12707487
1764767529.3720274,-3.6624,1.58704,0.6103999999999999,0.97851312,-0.048522825,0.12707487
1764767529.3720274,-3.6624,1.58704,0.6103999999999999,0.97851312,-0.048522825,0.12707487
1764767529.3720274,-3.52506,0.85456,0.39676,0.97839105,-0.048828,0.12744108
1764767529.3720274,-3.52506,0.85456,0.39676,0.97839105,-0.048828,0.12744108
1764767529.3720274,-3.52506,0.85456,0.39676,0.97839105,-0.048828,0.12744108
1764767529.3720274,-3.52506,0.85456,0.39676,0.97839105,-0.048828,0.12744108
1764767529.3720274,-3.52506,0.85456,0.39676,0.97839105,-0.048828,0.12744108
1764767529.3720274,-3.52506,0.85456,0.39676,0.97839105,-0.048828,0.12744108
1764767529.3720274,-3.52506,0.85456,0.39676,0.97839105,-0.048828,0.12744108
1764767529.3720274,-3.52506,0.85456,0.39676,0.97839105,-0.048828,0.12744108
1764767529.3720274,-3.52506,0.85456,0.39676,0.97839105,-0.048828,0.12744108
1764767529.3720274,-3.52506,0.85456,0.39676,0.97839105,-0.048828,0.12744108
1764767529.3720274,-3.46402,0.74774,0.01526,0.977475525,-0.048644895,0.12670866
1764767529.3720274,-3.46402,0.74774,0.01526,0.977475525,-0.048644895,0.12670866
1764767529.3720274,-3.46402,0.74774,0.01526,0.977475525,-0.048644895,0.12670866
1764767529.3720274,-3.46402,0.74774,0.01526,0.977475525,-0.048644895,0.12670866
1764767529.421806,-3.46402,0.74774,0.01526,0.977475525,-0.048644895,0.12670866
1764767529.421806,-3.46402,0.74774,0.01526,0.977475525,-0.048644895,0.12670866
1764767529.421806,-3.46402,0.74774,0.01526,0.977475525,-0.048644895,0.12670866
1764767529.421806,-3.46402,0.74774,0.01526,0.977475525,-0.048644895,0.12670866
1764767529.421806,-3.46402,0.74774,0.01526,0.977475525,-0.048644895,0.12670866
1764767529.421806,-3.46402,0.74774,0.01526,0.977475525,-0.048644895,0.12670866
1764767529.421806,-3.69292,0.62566,0.09156,0.977841735,-0.04821765,0.12707487
1764767529.421806,-3.69292,0.62566,0.09156,0.977841735,-0.04821765,0.12707487
1764767529.421806,-3.69292,0.62566,0.09156,0.977841735,-0.04821765,0.12707487
1764767529.421806,-3.69292,0.62566,0.09156,0.977841735,-0.04821765,0.12707487
1764767529.421806,-3.69292,0.62566,0.09156,0.977841735,-0.04821765,0.12707487
1764767529.421806,-3.69292,0.62566,0.09156,0.977841735,-0.04821765,0.12707487
1764767529.421806,-3.69292,0.62566,0.09156,0.977841735,-0.04821765,0.12707487
1764767529.421806,-3.69292,0.62566,0.09156,0.977841735,-0.04821765,0.12707487
1764767529.421806,-3.69292,0.62566,0.09156,0.977841735,-0.04821765,0.12707487
1764767529.421806,-3.69292,0.62566,0.09156,0.977841735,-0.04821765,0.12707487
1764767529.421806,-3.55558,0.6103999999999999,-0.24416,0.97851312,-0.047668335,0.126525555
1764767529.421806,-3.55558,0.6103999999999999,-0.24416,0.97851312,-0.047668335,0.126525555
1764767529.421806,-3.55558,0.6103999999999999,-0.24416,0.97851312,-0.047668335,0.126525555
1764767529.421806,-3.55558,0.6103999999999999,-0.24416,0.97851312,-0.047668335,0.126525555
1764767529.421806,-3.55558,0.6103999999999999,-0.24416,0.97851312,-0.047668335,0.126525555
1764767529.421806,-3.55558,0.6103999999999999,-0.24416,0.97851312,-0.047668335,0.126525555
1764767529.4686062,-3.55558,0.6103999999999999,-0.24416,0.97851312,-0.047668335,0.126525555
1764767529.4686062,-3.55558,0.6103999999999999,-0.24416,0.97851312,-0.047668335,0.126525555
1764767529.4686062,-3.55558,0.6103999999999999,-0.24416,0.97851312,-0.047668335,0.126525555
1764767529.4686062,-3.55558,0.6103999999999999,-0.24416,0.97851312,-0.047668335,0.126525555
1764767529.4686062,-3.98286,0.57988,-0.48832,0.978940365,-0.04675281,0.126769695
1764767529.4686062,-3.98286,0.57988,-0.48832,0.978940365,-0.04675281,0.126769695
1764767529.469614,-3.98286,0.57988,-0.48832,0.978940365,-0.04675281,0.126769695
1764767529.469614,-3.98286,0.57988,-0.48832,0.978940365,-0.04675281,0.126769695
1764767529.469614,-3.98286,0.57988,-0.48832,0.978940365,-0.04675281,0.126769695
1764767529.469614,-3.98286,0.57988,-0.48832,0.978940365,-0.04675281,0.126769695
1764767529.469614,-3.98286,0.57988,-0.48832,0.978940365,-0.04675281,0.126769695
1764767529.469614,-3.98286,0.57988,-0.48832,0.978940365,-0.04675281,0.126769695
1764767529.469614,-3.98286,0.57988,-0.48832,0.978940365,-0.04675281,0.126769695
1764767529.469614,-3.98286,0.57988,-0.48832,0.978940365,-0.04675281,0.126769695
1764767529.469614,-4.0439,0.65618,-0.44254,0.979306575,-0.04687488,0.12585417
1764767529.469614,-4.0439,0.65618,-0.44254,0.979306575,-0.04687488,0.12585417
1764767529.469614,-4.0439,0.65618,-0.44254,0.979306575,-0.04687488,0.12585417
1764767529.469614,-4.0439,0.65618,-0.44254,0.979306575,-0.04687488,0.12585417
1764767529.469614,-4.0439,0.65618,-0.44254,0.979306575,-0.04687488,0.12585417
1764767529.469614,-4.0439,0.65618,-0.44254,0.979306575,-0.04687488,0.12585417
1764767529.470615,-4.0439,0.65618,-0.44254,0.979306575,-0.04687488,0.12585417
1764767529.470615,-4.0439,0.65618,-0.44254,0.979306575,-0.04687488,0.12585417
1764767529.470615,-4.0439,0.65618,-0.44254,0.979306575,-0.04687488,0.12585417
1764767529.470615,-4.0439,0.65618,-0.44254,0.979306575,-0.04687488,0.12585417
1764767529.5132694,-3.90656,0.71722,-0.25942,0.97912347,-0.04650867,0.12548796
1764767529.5132694,-3.90656,0.71722,-0.25942,0.97912347,-0.04650867,0.12548796
1764767529.5132694,-3.90656,0.71722,-0.25942,0.97912347,-0.04650867,0.12548796
1764767529.5132694,-3.90656,0.71722,-0.25942,0.97912347,-0.04650867,0.12548796
1764767529.5132694,-3.90656,0.71722,-0.25942,0.97912347,-0.04650867,0.12548796
1764767529.5132694,-3.90656,0.71722,-0.25942,0.97912347,-0.04650867,0.12548796
1764767529.5132694,-3.90656,0.71722,-0.25942,0.97912347,-0.04650867,0.12548796
1764767529.5132694,-3.90656,0.71722,-0.25942,0.97912347,-0.04650867,0.12548796
1764767529.5132694,-3.90656,0.71722,-0.25942,0.97912347,-0.04650867,0.12548796
1764767529.5132694,-3.90656,0.71722,-0.25942,0.97912347,-0.04650867,0.12548796
1764767529.514377,-4.16598,0.77826,0.03052,0.979306575,-0.046569705,0.1257321
1764767529.514377,-4.16598,0.77826,0.03052,0.979306575,-0.046569705,0.1257321
1764767529.514377,-4.16598,0.77826,0.03052,0.979306575,-0.046569705,0.1257321
1764767529.514377,-4.16598,0.77826,0.03052,0.979306575,-0.046569705,0.1257321
1764767529.514377,-4.16598,0.77826,0.03052,0.979306575,-0.046569705,0.1257321
1764767529.514377,-4.16598,0.77826,0.03052,0.979306575,-0.046569705,0.1257321
1764767529.514377,-4.16598,0.77826,0.03052,0.979306575,-0.046569705,0.1257321
1764767529.514377,-4.16598,0.77826,0.03052,0.979306575,-0.046569705,0.1257321
1764767529.514377,-4.16598,0.77826,0.03052,0.979306575,-0.046569705,0.1257321
1764767529.514377,-4.16598,0.77826,0.03052,0.979306575,-0.046569705,0.1257321
1764767529.514377,-4.1202,0.85456,0.0,0.978574155,-0.046569705,0.12585417
1764767529.514377,-4.1202,0.85456,0.0,0.978574155,-0.046569705,0.12585417
1764767529.514377,-4.1202,0.85456,0.0,0.978574155,-0.046569705,0.12585417
1764767529.514377,-4.1202,0.85456,0.0,0.978574155,-0.046569705,0.12585417
1764767529.5602105,-4.1202,0.85456,0.0,0.978574155,-0.046569705,0.12585417
1764767529.5602105,-4.1202,0.85456,0.0,0.978574155,-0.046569705,0.12585417
1764767529.5602105,-4.1202,0.85456,0.0,0.978574155,-0.046569705,0.12585417
1764767529.5602105,-4.1202,0.85456,0.0,0.978574155,-0.046569705,0.12585417
1764767529.5602105,-4.1202,0.85456,0.0,0.978574155,-0.046569705,0.12585417
1764767529.5602105,-4.1202,0.85456,0.0,0.978574155,-0.046569705,0.12585417
1764767529.5602105,-3.99812,0.71722,-0.5341,0.979550715,-0.04614246,0.125915205
1764767529.5602105,-3.99812,0.71722,-0.5341,0.979550715,-0.04614246,0.125915205
1764767529.5602105,-3.99812,0.71722,-0.5341,0.979550715,-0.04614246,0.125915205
1764767529.5602105,-3.99812,0.71722,-0.5341,0.979550715,-0.04614246,0.125915205
1764767529.5602105,-3.99812,0.71722,-0.5341,0.979550715,-0.04614246,0.125915205
1764767529.5602105,-3.99812,0.71722,-0.5341,0.979550715,-0.04614246,0.125915205
1764767529.5602105,-3.99812,0.71722,-0.5341,0.979550715,-0.04614246,0.125915205
1764767529.5602105,-3.99812,0.71722,-0.5341,0.979550715,-0.04614246,0.125915205
1764767529.5602105,-3.99812,0.71722,-0.5341,0.979550715,-0.04614246,0.125915205
1764767529.5602105,-3.99812,0.71722,-0.5341,0.979550715,-0.04614246,0.125915205
1764767529.5602105,-4.1202,0.6103999999999999,-0.96138,0.97997796,-0.04589832,0.125426925
1764767529.5602105,-4.1202,0.6103999999999999,-0.96138,0.97997796,-0.04589832,0.125426925
1764767529.5602105,-4.1202,0.6103999999999999,-0.96138,0.97997796,-0.04589832,0.125426925
1764767529.5602105,-4.1202,0.6103999999999999,-0.96138,0.97997796,-0.04589832,0.125426925
1764767529.5602105,-4.1202,0.6103999999999999,-0.96138,0.97997796,-0.04589832,0.125426925
1764767529.5602105,-4.1202,0.6103999999999999,-0.96138,0.97997796,-0.04589832,0.125426925
1764767529.6066785,-4.1202,0.6103999999999999,-0.96138,0.97997796,-0.04589832,0.125426925
1764767529.6072085,-4.1202,0.6103999999999999,-0.96138,0.97997796,-0.04589832,0.125426925
1764767529.6072085,-4.1202,0.6103999999999999,-0.96138,0.97997796,-0.04589832,0.125426925
1764767529.6072085,-4.1202,0.6103999999999999,-0.96138,0.97997796,-0.04589832,0.125426925
1764767529.6072085,-4.303319999999999,0.82404,-0.27468,0.97912347,-0.045471075,0.125671065
1764767529.6072085,-4.303319999999999,0.82404,-0.27468,0.97912347,-0.045471075,0.125671065
1764767529.6072085,-4.303319999999999,0.82404,-0.27468,0.97912347,-0.045471075,0.125671065
1764767529.6072085,-4.303319999999999,0.82404,-0.27468,0.97912347,-0.045471075,0.125671065
