Timestamp,GyroX,GyroY,GyroZ,AccX,AccY,AccZ
1764768540.5100837,-3.5098,1.84646,-0.77826,0.979184505,-0.026550225,0.12170379
1764768540.5100837,-3.5098,1.84646,-0.77826,0.979184505,-0.026550225,0.12170379
1764768540.5100837,-3.5098,1.84646,-0.77826,0.979184505,-0.026550225,0.12170379
1764768540.5100837,-3.5098,1.84646,-0.77826,0.979184505,-0.026550225,0.12170379
1764768540.5100837,-3.5098,1.84646,-0.77826,0.979184505,-0.026550225,0.12170379
1764768540.5110953,-3.5098,1.84646,-0.77826,0.979184505,-0.026550225,0.12170379
1764768540.5110953,-3.5098,1.84646,-0.77826,0.979184505,-0.026550225,0.12170379
1764768540.5110953,-3.99812,1.48022,-0.763,0.979916925,-0.026061945,0.122131035
1764768540.5110953,-3.99812,1.48022,-0.763,0.979916925,-0.026061945,0.122131035
1764768540.5110953,-3.99812,1.48022,-0.763,0.979916925,-0.026061945,0.122131035
1764768540.5110953,-3.99812,1.48022,-0.763,0.979916925,-0.026061945,0.122131035
1764768540.5110953,-3.99812,1.48022,-0.763,0.979916925,-0.026061945,0.122131035
1764768540.5110953,-3.99812,1.48022,-0.763,0.979916925,-0.026061945,0.122131035
1764768540.5110953,-3.99812,1.48022,-0.763,0.979916925,-0.026061945,0.122131035
1764768540.5110953,-3.99812,1.48022,-0.763,0.979916925,-0.026061945,0.122131035
1764768540.5501487,-3.99812,1.48022,-0.763,0.979916925,-0.026061945,0.122131035
1764768540.5501487,-3.99812,1.48022,-0.763,0.979916925,-0.026061945,0.122131035
1764768540.5506608,-3.70818,1.26658,-0.77826,0.979672785,-0.026550225,0.12133758
1764768540.5506608,-3.70818,1.26658,-0.77826,0.979672785,-0.026550225,0.12133758
1764768540.5506608,-3.70818,1.26658,-0.77826,0.979672785,-0.026550225,0.12133758
1764768540.5506608,-3.70818,1.26658,-0.77826,0.979672785,-0.026550225,0.12133758
1764768540.5506608,-3.70818,1.26658,-0.77826,0.979672785,-0.026550225,0.12133758
1764768540.5506608,-3.70818,1.26658,-0.77826,0.979672785,-0.026550225,0.12133758
1764768540.5506608,-3.70818,1.26658,-0.77826,0.979672785,-0.026550225,0.12133758
1764768540.5506608,-3.70818,1.26658,-0.77826,0.979672785,-0.026550225,0.12133758
1764768540.5506608,-3.70818,1.26658,-0.77826,0.979672785,-0.026550225,0.12133758
1764768540.5506608,-3.70818,1.26658,-0.77826,0.979672785,-0.026550225,0.12133758
1764768540.5506608,-3.7387,1.9075,-0.6103999999999999,0.981259695,-0.0280761,0.12109344
1764768540.5506608,-3.7387,1.9075,-0.6103999999999999,0.981259695,-0.0280761,0.12109344
1764768540.5506608,-3.7387,1.9075,-0.6103999999999999,0.981259695,-0.0280761,0.12109344
1764768540.5506608,-3.7387,1.9075,-0.6103999999999999,0.981259695,-0.0280761,0.12109344
1764768540.5506608,-3.7387,1.9075,-0.6103999999999999,0.981259695,-0.0280761,0.12109344
1764768540.5506608,-3.7387,1.9075,-0.6103999999999999,0.981259695,-0.0280761,0.12109344
1764768540.5506608,-3.7387,1.9075,-0.6103999999999999,0.981259695,-0.0280761,0.12109344
1764768540.5506608,-3.7387,1.9075,-0.6103999999999999,0.981259695,-0.0280761,0.12109344
1764768540.5506608,-3.7387,1.9075,-0.6103999999999999,0.981259695,-0.0280761,0.12109344
1764768540.5506608,-3.7387,1.9075,-0.6103999999999999,0.981259695,-0.0280761,0.12109344
1764768540.5506608,-3.25038,2.16692,-1.00716,0.98058831,-0.02832024,0.121398615
1764768540.5506608,-3.25038,2.16692,-1.00716,0.98058831,-0.02832024,0.121398615
1764768540.5506608,-3.25038,2.16692,-1.00716,0.98058831,-0.02832024,0.121398615
1764768540.5506608,-3.25038,2.16692,-1.00716,0.98058831,-0.02832024,0.121398615
1764768540.5506608,-3.25038,2.16692,-1.00716,0.98058831,-0.02832024,0.121398615
1764768540.5506608,-3.25038,2.16692,-1.00716,0.98058831,-0.02832024,0.121398615
1764768540.5977068,-3.25038,2.16692,-1.00716,0.98058831,-0.02832024,0.121398615
1764768540.5977068,-3.25038,2.16692,-1.00716,0.98058831,-0.02832024,0.121398615
1764768540.5977068,-3.25038,2.16692,-1.00716,0.98058831,-0.02832024,0.121398615
1764768540.5977068,-3.25038,2.16692,-1.00716,0.98058831,-0.02832024,0.121398615
1764768540.5987177,-2.5942,2.10588,-1.93802,0.980527275,-0.028137135,0.121886895
1764768540.5987177,-2.5942,2.10588,-1.93802,0.980527275,-0.028137135,0.121886895
1764768540.5987177,-2.5942,2.10588,-1.93802,0.980527275,-0.028137135,0.121886895
1764768540.5987177,-2.5942,2.10588,-1.93802,0.980527275,-0.028137135,0.121886895
1764768540.5987177,-2.5942,2.10588,-1.93802,0.980527275,-0.028137135,0.121886895
1764768540.5987177,-2.5942,2.10588,-1.93802,0.980527275,-0.028137135,0.121886895
1764768540.5987177,-2.5942,2.10588,-1.93802,0.980527275,-0.028137135,0.121886895
1764768540.5987177,-2.5942,2.10588,-1.93802,0.980527275,-0.028137135,0.121886895
1764768540.5987177,-2.5942,2.10588,-1.93802,0.980527275,-0.028137135,0.121886895
1764768540.5987177,-2.5942,2.10588,-1.93802,0.980527275,-0.028137135,0.121886895
1764768540.5987177,-2.73154,2.60946,-1.51074,0.98058831,-0.028869555,0.12231414
1764768540.5987177,-2.73154,2.60946,-1.51074,0.98058831,-0.028869555,0.12231414
1764768540.5987177,-2.73154,2.60946,-1.51074,0.98058831,-0.028869555,0.12231414
1764768540.5987177,-2.73154,2.60946,-1.51074,0.98058831,-0.028869555,0.12231414
1764768540.5987177,-2.73154,2.60946,-1.51074,0.98058831,-0.028869555,0.12231414
1764768540.5987177,-2.73154,2.60946,-1.51074,0.98058831,-0.028869555,0.12231414
1764768540.5987177,-2.73154,2.60946,-1.51074,0.98058831,-0.028869555,0.12231414
1764768540.599718,-2.73154,2.60946,-1.51074,0.98058831,-0.028869555,0.12231414
1764768540.6428068,-2.73154,2.60946,-1.51074,0.98058831,-0.028869555,0.12231414
1764768540.6428068,-2.73154,2.60946,-1.51074,0.98058831,-0.028869555,0.12231414
1764768540.6428068,-2.68576,1.58704,-0.1678599999999999,0.97680414,-0.028991625,0.12243621
1764768540.6428068,-2.68576,1.58704,-0.1678599999999999,0.97680414,-0.028991625,0.12243621
1764768540.6428068,-2.68576,1.58704,-0.1678599999999999,0.97680414,-0.028991625,0.12243621
1764768540.6428068,-2.68576,1.58704,-0.1678599999999999,0.97680414,-0.028991625,0.12243621
1764768540.6428068,-2.68576,1.58704,-0.1678599999999999,0.97680414,-0.028991625,0.12243621
1764768540.6428068,-2.68576,1.58704,-0.1678599999999999,0.97680414,-0.028991625,0.12243621
1764768540.6428068,-2.68576,1.58704,-0.1678599999999999,0.97680414,-0.028991625,0.12243621
1764768540.6428068,-2.68576,1.58704,-0.1678599999999999,0.97680414,-0.028991625,0.12243621
1764768540.6428068,-2.68576,1.58704,-0.1678599999999999,0.97680414,-0.028991625,0.12243621
1764768540.6428068,-2.68576,1.58704,-0.1678599999999999,0.97680414,-0.028991625,0.12243621
1764768540.6428068,-2.47212,0.73248,-0.39676,0.97790277,-0.026794365,0.12231414
1764768540.6428068,-2.47212,0.73248,-0.39676,0.97790277,-0.026794365,0.12231414
1764768540.6428068,-2.47212,0.73248,-0.39676,0.97790277,-0.026794365,0.12231414
1764768540.6428068,-2.47212,0.73248,-0.39676,0.97790277,-0.026794365,0.12231414
1764768540.6428068,-2.47212,0.73248,-0.39676,0.97790277,-0.026794365,0.12231414
1764768540.6428068,-2.47212,0.73248,-0.39676,0.97790277,-0.026794365,0.12231414
1764768540.6428068,-2.47212,0.73248,-0.39676,0.97790277,-0.026794365,0.12231414
1764768540.6428068,-2.47212,0.73248,-0.39676,0.97790277,-0.026794365,0.12231414
1764768540.6428068,-2.47212,0.73248,-0.39676,0.97790277,-0.026794365,0.12231414
1764768540.6428068,-2.47212,0.73248,-0.39676,0.97790277,-0.026794365,0.12231414
1764768540.6895995,-3.15882,1.4497,-0.39676,0.98010003,-0.024719175,0.12292449
1764768540.6895995,-3.15882,1.4497,-0.39676,0.98010003,-0.024719175,0.12292449
1764768540.6895995,-3.15882,1.4497,-0.39676,0.98010003,-0.024719175,0.12292449
1764768540.6895995,-3.15882,1.4497,-0.39676,0.98010003,-0.024719175,0.12292449
1764768540.6895995,-3.15882,1.4497,-0.39676,0.98010003,-0.024719175,0.12292449
1764768540.6895995,-3.15882,1.4497,-0.39676,0.98010003,-0.024719175,0.12292449
1764768540.6895995,-3.15882,1.4497,-0.39676,0.98010003,-0.024719175,0.12292449
1764768540.6895995,-3.15882,1.4497,-0.39676,0.98010003,-0.024719175,0.12292449
1764768540.6895995,-3.15882,1.4497,-0.39676,0.98010003,-0.024719175,0.12292449
1764768540.6895995,-3.15882,1.4497,-0.39676,0.98010003,-0.024719175,0.12292449
1764768540.6895995,-3.29616,1.77016,-0.3509799999999999,0.97948968,-0.022888125,0.12316863
1764768540.6895995,-3.29616,1.77016,-0.3509799999999999,0.97948968,-0.022888125,0.12316863
1764768540.6895995,-3.29616,1.77016,-0.3509799999999999,0.97948968,-0.022888125,0.12316863
1764768540.6895995,-3.29616,1.77016,-0.3509799999999999,0.97948968,-0.022888125,0.12316863
1764768540.6895995,-3.29616,1.77016,-0.3509799999999999,0.97948968,-0.022888125,0.12316863
1764768540.6895995,-3.29616,1.77016,-0.3509799999999999,0.97948968,-0.022888125,0.12316863
1764768540.6895995,-3.29616,1.77016,-0.3509799999999999,0.97948968,-0.022888125,0.12316863
1764768540.6895995,-3.29616,1.77016,-0.3509799999999999,0.97948968,-0.022888125,0.12316863
1764768540.6895995,-3.29616,1.77016,-0.3509799999999999,0.97948968,-0.022888125,0.12316863
1764768540.6895995,-3.29616,1.77016,-0.3509799999999999,0.97948968,-0.022888125,0.12316863
1764768540.6895995,-4.24228,1.93802,-0.8698199999999999,0.97863519,-0.021545355,0.12377898
1764768540.6895995,-4.24228,1.93802,-0.8698199999999999,0.97863519,-0.021545355,0.12377898
1764768540.6895995,-4.24228,1.93802,-0.8698199999999999,0.97863519,-0.021545355,0.12377898
1764768540.6895995,-4.24228,1.93802,-0.8698199999999999,0.97863519,-0.021545355,0.12377898
1764768540.7359738,-4.24228,1.93802,-0.8698199999999999,0.97863519,-0.021545355,0.12377898
1764768540.7359738,-4.24228,1.93802,-0.8698199999999999,0.97863519,-0.021545355,0.12377898
1764768540.7359738,-4.24228,1.93802,-0.8698199999999999,0.97863519,-0.021545355,0.12377898
1764768540.7359738,-4.24228,1.93802,-0.8698199999999999,0.97863519,-0.021545355,0.12377898
1764768540.736487,-4.24228,1.93802,-0.8698199999999999,0.97863519,-0.021545355,0.12377898
1764768540.736487,-4.24228,1.93802,-0.8698199999999999,0.97863519,-0.021545355,0.12377898
1764768540.736487,-4.2728,1.46496,-0.6409199999999999,0.977597595,-0.021179145,0.12341277
1764768540.736487,-4.2728,1.46496,-0.6409199999999999,0.977597595,-0.021179145,0.12341277
1764768540.736487,-4.2728,1.46496,-0.6409199999999999,0.977597595,-0.021179145,0.12341277
1764768540.736487,-4.2728,1.46496,-0.6409199999999999,0.977597595,-0.021179145,0.12341277
1764768540.736487,-4.2728,1.46496,-0.6409199999999999,0.977597595,-0.021179145,0.12341277
1764768540.736487,-4.2728,1.46496,-0.6409199999999999,0.977597595,-0.021179145,0.12341277
1764768540.736487,-4.2728,1.46496,-0.6409199999999999,0.977597595,-0.021179145,0.12341277
1764768540.736487,-4.2728,1.46496,-0.6409199999999999,0.977597595,-0.021179145,0.12341277
1764768540.736487,-4.2728,1.46496,-0.6409199999999999,0.977597595,-0.021179145,0.12341277
1764768540.736487,-4.2728,1.46496,-0.6409199999999999,0.977597595,-0.021179145,0.12341277
1764768540.736487,-4.0439,1.96854,-0.06104,0.97814691,-0.02246088,0.123473805
1764768540.736487,-4.0439,1.96854,-0.06104,0.97814691,-0.02246088,0.123473805
1764768540.736487,-4.0439,1.96854,-0.06104,0.97814691,-0.02246088,0.123473805
1764768540.736487,-4.0439,1.96854,-0.06104,0.97814691,-0.02246088,0.123473805
1764768540.736487,-4.0439,1.96854,-0.06104,0.97814691,-0.02246088,0.123473805
1764768540.736487,-4.0439,1.96854,-0.06104,0.97814691,-0.02246088,0.123473805
1764768540.7369912,-4.0439,1.96854,-0.06104,0.97814691,-0.02246088,0.123473805
1764768540.7369912,-4.0439,1.96854,-0.06104,0.97814691,-0.02246088,0.123473805
1764768540.7832818,-4.0439,1.96854,-0.06104,0.97814691,-0.02246088,0.123473805
1764768540.7832818,-4.0439,1.96854,-0.06104,0.97814691,-0.02246088,0.123473805
1764768540.7832818,-4.15072,1.55652,0.44254,0.979428645,-0.023742615,0.1232907
1764768540.7832818,-4.15072,1.55652,0.44254,0.979428645,-0.023742615,0.1232907
1764768540.7832818,-4.15072,1.55652,0.44254,0.979428645,-0.023742615,0.1232907
1764768540.7832818,-4.15072,1.55652,0.44254,0.979428645,-0.023742615,0.1232907
1764768540.7832818,-4.15072,1.55652,0.44254,0.979428645,-0.023742615,0.1232907
1764768540.7832818,-4.15072,1.55652,0.44254,0.979428645,-0.023742615,0.1232907
1764768540.7832818,-4.15072,1.55652,0.44254,0.979428645,-0.023742615,0.1232907
1764768540.7832818,-4.15072,1.55652,0.44254,0.979428645,-0.023742615,0.1232907
1764768540.7832818,-4.15072,1.55652,0.44254,0.979428645,-0.023742615,0.1232907
1764768540.7832818,-4.15072,1.55652,0.44254,0.979428645,-0.023742615,0.1232907
1764768540.7832818,-3.76922,1.6022999999999998,0.0762999999999999,0.980283135,-0.023254335,0.123840015
1764768540.7832818,-3.76922,1.6022999999999998,0.0762999999999999,0.980283135,-0.023254335,0.123840015
1764768540.7832818,-3.76922,1.6022999999999998,0.0762999999999999,0.980283135,-0.023254335,0.123840015
1764768540.7832818,-3.76922,1.6022999999999998,0.0762999999999999,0.980283135,-0.023254335,0.123840015
1764768540.7832818,-3.76922,1.6022999999999998,0.0762999999999999,0.980283135,-0.023254335,0.123840015
1764768540.7832818,-3.76922,1.6022999999999998,0.0762999999999999,0.980283135,-0.023254335,0.123840015
1764768540.7832818,-3.76922,1.6022999999999998,0.0762999999999999,0.980283135,-0.023254335,0.123840015
1764768540.7832818,-3.76922,1.6022999999999998,0.0762999999999999,0.980283135,-0.023254335,0.123840015
1764768540.784817,-3.76922,1.6022999999999998,0.0762999999999999,0.980283135,-0.023254335,0.123840015
1764768540.784817,-3.76922,1.6022999999999998,0.0762999999999999,0.980283135,-0.023254335,0.123840015
1764768540.784817,-3.32668,1.3734,0.3204599999999999,0.980038995,-0.02392572,0.124694505
1764768540.784817,-3.32668,1.3734,0.3204599999999999,0.980038995,-0.02392572,0.124694505
1764768540.8306935,-3.32668,1.3734,0.3204599999999999,0.980038995,-0.02392572,0.124694505
1764768540.8306935,-3.32668,1.3734,0.3204599999999999,0.980038995,-0.02392572,0.124694505
1764768540.8306935,-3.32668,1.3734,0.3204599999999999,0.980038995,-0.02392572,0.124694505
1764768540.8306935,-3.32668,1.3734,0.3204599999999999,0.980038995,-0.02392572,0.124694505
1764768540.8306935,-3.32668,1.3734,0.3204599999999999,0.980038995,-0.02392572,0.124694505
1764768540.8306935,-3.32668,1.3734,0.3204599999999999,0.980038995,-0.02392572,0.124694505
1764768540.8306935,-3.32668,1.3734,0.3204599999999999,0.980038995,-0.02392572,0.124694505
1764768540.8306935,-3.32668,1.3734,0.3204599999999999,0.980038995,-0.02392572,0.124694505
1764768540.8306935,-3.3572,1.63282,0.24416,0.97997796,-0.023254335,0.1245114
1764768540.8306935,-3.3572,1.63282,0.24416,0.97997796,-0.023254335,0.1245114
1764768540.8306935,-3.3572,1.63282,0.24416,0.97997796,-0.023254335,0.1245114
1764768540.8306935,-3.3572,1.63282,0.24416,0.97997796,-0.023254335,0.1245114
1764768540.8306935,-3.3572,1.63282,0.24416,0.97997796,-0.023254335,0.1245114
1764768540.8306935,-3.3572,1.63282,0.24416,0.97997796,-0.023254335,0.1245114
1764768540.8306935,-3.3572,1.63282,0.24416,0.97997796,-0.023254335,0.1245114
1764768540.8306935,-3.3572,1.63282,0.24416,0.97997796,-0.023254335,0.1245114
1764768540.8306935,-3.3572,1.63282,0.24416,0.97997796,-0.023254335,0.1245114
1764768540.8306935,-3.3572,1.63282,0.24416,0.97997796,-0.023254335,0.1245114
1764768540.8306935,-3.06726,1.31236,0.41202,0.979550715,-0.02282709,0.1245114
1764768540.8306935,-3.06726,1.31236,0.41202,0.979550715,-0.02282709,0.1245114
1764768540.8306935,-3.06726,1.31236,0.41202,0.979550715,-0.02282709,0.1245114
1764768540.8306935,-3.06726,1.31236,0.41202,0.979550715,-0.02282709,0.1245114
1764768540.877237,-3.06726,1.31236,0.41202,0.979550715,-0.02282709,0.1245114
1764768540.877237,-3.06726,1.31236,0.41202,0.979550715,-0.02282709,0.1245114
1764768540.877237,-3.06726,1.31236,0.41202,0.979550715,-0.02282709,0.1245114
1764768540.877237,-3.06726,1.31236,0.41202,0.979550715,-0.02282709,0.1245114
1764768540.877237,-3.06726,1.31236,0.41202,0.979550715,-0.02282709,0.1245114
1764768540.877237,-3.06726,1.31236,0.41202,0.979550715,-0.02282709,0.1245114
1764768540.877237,-3.7387,1.57178,0.41202,0.978330015,-0.021789495,0.12499968
1764768540.877237,-3.7387,1.57178,0.41202,0.978330015,-0.021789495,0.12499968
1764768540.877237,-3.7387,1.57178,0.41202,0.978330015,-0.021789495,0.12499968
1764768540.877237,-3.7387,1.57178,0.41202,0.978330015,-0.021789495,0.12499968
1764768540.877237,-3.7387,1.57178,0.41202,0.978330015,-0.021789495,0.12499968
1764768540.877237,-3.7387,1.57178,0.41202,0.978330015,-0.021789495,0.12499968
1764768540.877237,-3.7387,1.57178,0.41202,0.978330015,-0.021789495,0.12499968
1764768540.877237,-3.7387,1.57178,0.41202,0.978330015,-0.021789495,0.12499968
1764768540.877237,-3.7387,1.57178,0.41202,0.978330015,-0.021789495,0.12499968
1764768540.877237,-3.7387,1.57178,0.41202,0.978330015,-0.021789495,0.12499968
1764768540.877237,-3.2046,1.00716,0.65618,0.977963805,-0.023620545,0.123473805
1764768540.877237,-3.2046,1.00716,0.65618,0.977963805,-0.023620545,0.123473805
1764768540.877237,-3.2046,1.00716,0.65618,0.977963805,-0.023620545,0.123473805
1764768540.877237,-3.2046,1.00716,0.65618,0.977963805,-0.023620545,0.123473805
1764768540.877237,-3.2046,1.00716,0.65618,0.977963805,-0.023620545,0.123473805
1764768540.877237,-3.2046,1.00716,0.65618,0.977963805,-0.023620545,0.123473805
1764768540.877237,-3.2046,1.00716,0.65618,0.977963805,-0.023620545,0.123473805
1764768540.877237,-3.2046,1.00716,0.65618,0.977963805,-0.023620545,0.123473805
1764768540.9200606,-3.2046,1.00716,0.65618,0.977963805,-0.023620545,0.123473805
1764768540.9200606,-3.2046,1.00716,0.65618,0.977963805,-0.023620545,0.123473805
1764768540.9200606,-3.25038,1.11398,0.9919,0.97729242,-0.02575677,0.122741385
1764768540.9200606,-3.25038,1.11398,0.9919,0.97729242,-0.02575677,0.122741385
1764768540.9200606,-3.25038,1.11398,0.9919,0.97729242,-0.02575677,0.122741385
1764768540.9200606,-3.25038,1.11398,0.9919,0.97729242,-0.02575677,0.122741385
1764768540.9200606,-3.25038,1.11398,0.9919,0.97729242,-0.02575677,0.122741385
1764768540.9200606,-3.25038,1.11398,0.9919,0.97729242,-0.02575677,0.122741385
1764768540.9200606,-3.25038,1.11398,0.9919,0.97729242,-0.02575677,0.122741385
1764768540.9200606,-3.25038,1.11398,0.9919,0.97729242,-0.02575677,0.122741385
1764768540.9200606,-3.25038,1.11398,0.9919,0.97729242,-0.02575677,0.122741385
1764768540.9200606,-3.25038,1.11398,0.9919,0.97729242,-0.02575677,0.122741385
1764768540.9200606,-2.60946,1.0682,1.12924,0.97814691,-0.02697747,0.12219207
1764768540.9200606,-2.60946,1.0682,1.12924,0.97814691,-0.02697747,0.12219207
1764768540.9200606,-2.60946,1.0682,1.12924,0.97814691,-0.02697747,0.12219207
1764768540.9200606,-2.60946,1.0682,1.12924,0.97814691,-0.02697747,0.12219207
1764768540.9200606,-2.60946,1.0682,1.12924,0.97814691,-0.02697747,0.12219207
1764768540.9200606,-2.60946,1.0682,1.12924,0.97814691,-0.02697747,0.12219207
1764768540.9200606,-2.60946,1.0682,1.12924,0.97814691,-0.02697747,0.12219207
1764768540.9200606,-2.60946,1.0682,1.12924,0.97814691,-0.02697747,0.12219207
1764768540.9200606,-2.60946,1.0682,1.12924,0.97814691,-0.02697747,0.12219207
1764768540.9200606,-2.60946,1.0682,1.12924,0.97814691,-0.02697747,0.12219207
1764768540.9667037,-2.7468,0.9919,0.1678599999999999,0.979062435,-0.02697747,0.12231414
1764768540.9667037,-2.7468,0.9919,0.1678599999999999,0.979062435,-0.02697747,0.12231414
1764768540.9667037,-2.7468,0.9919,0.1678599999999999,0.979062435,-0.02697747,0.12231414
1764768540.9667037,-2.7468,0.9919,0.1678599999999999,0.979062435,-0.02697747,0.12231414
1764768540.9667037,-2.7468,0.9919,0.1678599999999999,0.979062435,-0.02697747,0.12231414
1764768540.9667037,-2.7468,0.9919,0.1678599999999999,0.979062435,-0.02697747,0.12231414
1764768540.9667037,-2.7468,0.9919,0.1678599999999999,0.979062435,-0.02697747,0.12231414
1764768540.9667037,-2.7468,0.9919,0.1678599999999999,0.979062435,-0.02697747,0.12231414
1764768540.9667037,-2.7468,0.9919,0.1678599999999999,0.979062435,-0.02697747,0.12231414
1764768540.9667037,-2.7468,0.9919,0.1678599999999999,0.979062435,-0.02697747,0.12231414
1764768540.9667037,-2.86888,1.61756,-0.13734,0.980161065,-0.025573665,0.12243621
1764768540.9667037,-2.86888,1.61756,-0.13734,0.980161065,-0.025573665,0.12243621
1764768540.9667037,-2.86888,1.61756,-0.13734,0.980161065,-0.025573665,0.12243621
1764768540.9667037,-2.86888,1.61756,-0.13734,0.980161065,-0.025573665,0.12243621
1764768540.9667037,-2.86888,1.61756,-0.13734,0.980161065,-0.025573665,0.12243621
1764768540.9667037,-2.86888,1.61756,-0.13734,0.980161065,-0.025573665,0.12243621
1764768540.9667037,-2.86888,1.61756,-0.13734,0.980161065,-0.025573665,0.12243621
1764768540.9667037,-2.86888,1.61756,-0.13734,0.980161065,-0.025573665,0.12243621
1764768540.9667037,-2.86888,1.61756,-0.13734,0.980161065,-0.025573665,0.12243621
1764768540.9667037,-2.86888,1.61756,-0.13734,0.980161065,-0.025573665,0.12243621
1764768540.9677138,-2.6705,2.01432,-0.18312,0.98119866,-0.02490228,0.12268035
1764768540.9677138,-2.6705,2.01432,-0.18312,0.98119866,-0.02490228,0.12268035
1764768541.0131185,-2.6705,2.01432,-0.18312,0.98119866,-0.02490228,0.12268035
1764768541.0131185,-2.6705,2.01432,-0.18312,0.98119866,-0.02490228,0.12268035
1764768541.0131185,-2.6705,2.01432,-0.18312,0.98119866,-0.02490228,0.12268035
1764768541.0131185,-2.6705,2.01432,-0.18312,0.98119866,-0.02490228,0.12268035
1764768541.0131185,-2.6705,2.01432,-0.18312,0.98119866,-0.02490228,0.12268035
1764768541.0131185,-2.6705,2.01432,-0.18312,0.98119866,-0.02490228,0.12268035
1764768541.0131185,-2.6705,2.01432,-0.18312,0.98119866,-0.02490228,0.12268035
1764768541.0131185,-2.6705,2.01432,-0.18312,0.98119866,-0.02490228,0.12268035
1764768541.0131185,-3.21986,2.33478,-0.57988,0.98107659,-0.024841245,0.122863455
1764768541.0141332,-3.21986,2.33478,-0.57988,0.98107659,-0.024841245,0.122863455
1764768541.0141332,-3.21986,2.33478,-0.57988,0.98107659,-0.024841245,0.122863455
1764768541.0141332,-3.21986,2.33478,-0.57988,0.98107659,-0.024841245,0.122863455
1764768541.0141332,-3.21986,2.33478,-0.57988,0.98107659,-0.024841245,0.122863455
1764768541.0141332,-3.21986,2.33478,-0.57988,0.98107659,-0.024841245,0.122863455
1764768541.0141332,-3.21986,2.33478,-0.57988,0.98107659,-0.024841245,0.122863455
1764768541.0141332,-3.21986,2.33478,-0.57988,0.98107659,-0.024841245,0.122863455
1764768541.0141332,-3.21986,2.33478,-0.57988,0.98107659,-0.024841245,0.122863455
1764768541.0141332,-3.21986,2.33478,-0.57988,0.98107659,-0.024841245,0.122863455
1764768541.0141332,-3.5098,1.99906,-0.19838,0.97997796,-0.02392572,0.12426726
1764768541.0141332,-3.5098,1.99906,-0.19838,0.97997796,-0.02392572,0.12426726
1764768541.0141332,-3.5098,1.99906,-0.19838,0.97997796,-0.02392572,0.12426726
1764768541.0141332,-3.5098,1.99906,-0.19838,0.97997796,-0.02392572,0.12426726
1764768541.0141332,-3.5098,1.99906,-0.19838,0.97997796,-0.02392572,0.12426726
1764768541.0141332,-3.5098,1.99906,-0.19838,0.97997796,-0.02392572,0.12426726
1764768541.062901,-3.5098,1.99906,-0.19838,0.97997796,-0.02392572,0.12426726
1764768541.062901,-3.5098,1.99906,-0.19838,0.97997796,-0.02392572,0.12426726
1764768541.062901,-3.5098,1.99906,-0.19838,0.97997796,-0.02392572,0.12426726
1764768541.062901,-3.5098,1.99906,-0.19838,0.97997796,-0.02392572,0.12426726
1764768541.062901,-3.84552,1.05294,-0.42728,0.978452085,-0.023376405,0.124938645
1764768541.062901,-3.84552,1.05294,-0.42728,0.978452085,-0.023376405,0.124938645
1764768541.062901,-3.84552,1.05294,-0.42728,0.978452085,-0.023376405,0.124938645
1764768541.062901,-3.84552,1.05294,-0.42728,0.978452085,-0.023376405,0.124938645
1764768541.062901,-3.84552,1.05294,-0.42728,0.978452085,-0.023376405,0.124938645
1764768541.062901,-3.84552,1.05294,-0.42728,0.978452085,-0.023376405,0.124938645
1764768541.062901,-3.84552,1.05294,-0.42728,0.978452085,-0.023376405,0.124938645
1764768541.062901,-3.84552,1.05294,-0.42728,0.978452085,-0.023376405,0.124938645
1764768541.062901,-3.84552,1.05294,-0.42728,0.978452085,-0.023376405,0.124938645
1764768541.062901,-3.84552,1.05294,-0.42728,0.978452085,-0.023376405,0.124938645
1764768541.062901,-3.83026,1.2971,-0.42728,0.977475525,-0.02185053,0.12585417
1764768541.062901,-3.83026,1.2971,-0.42728,0.977475525,-0.02185053,0.12585417
1764768541.062901,-3.83026,1.2971,-0.42728,0.977475525,-0.02185053,0.12585417
1764768541.062901,-3.83026,1.2971,-0.42728,0.977475525,-0.02185053,0.12585417
1764768541.062901,-3.83026,1.2971,-0.42728,0.977475525,-0.02185053,0.12585417
1764768541.062901,-3.83026,1.2971,-0.42728,0.977475525,-0.02185053,0.12585417
1764768541.062901,-3.83026,1.2971,-0.42728,0.977475525,-0.02185053,0.12585417
1764768541.062901,-3.83026,1.2971,-0.42728,0.977475525,-0.02185053,0.12585417
1764768541.062901,-3.83026,1.2971,-0.42728,0.977475525,-0.02185053,0.12585417
1764768541.062901,-3.83026,1.2971,-0.42728,0.977475525,-0.02185053,0.12585417
1764768541.1069329,-3.8913,1.23606,-0.25942,0.97717035,-0.02124018,0.125793135
1764768541.1069329,-3.8913,1.23606,-0.25942,0.97717035,-0.02124018,0.125793135
1764768541.1069329,-3.8913,1.23606,-0.25942,0.97717035,-0.02124018,0.125793135
1764768541.1069329,-3.8913,1.23606,-0.25942,0.97717035,-0.02124018,0.125793135
1764768541.1069329,-3.8913,1.23606,-0.25942,0.97717035,-0.02124018,0.125793135
1764768541.1069329,-3.8913,1.23606,-0.25942,0.97717035,-0.02124018,0.125793135
1764768541.1069329,-3.8913,1.23606,-0.25942,0.97717035,-0.02124018,0.125793135
1764768541.1069329,-3.8913,1.23606,-0.25942,0.97717035,-0.02124018,0.125793135
1764768541.1069329,-3.8913,1.23606,-0.25942,0.97717035,-0.02124018,0.125793135
1764768541.1069329,-3.8913,1.23606,-0.25942,0.97717035,-0.02124018,0.125793135
1764768541.1069329,-4.18124,1.08346,-0.21364,0.977963805,-0.02111811,0.125671065
1764768541.1069329,-4.18124,1.08346,-0.21364,0.977963805,-0.02111811,0.125671065
1764768541.1069329,-4.18124,1.08346,-0.21364,0.977963805,-0.02111811,0.125671065
1764768541.1069329,-4.18124,1.08346,-0.21364,0.977963805,-0.02111811,0.125671065
1764768541.1069329,-4.18124,1.08346,-0.21364,0.977963805,-0.02111811,0.125671065
1764768541.1069329,-4.18124,1.08346,-0.21364,0.977963805,-0.02111811,0.125671065
1764768541.1069329,-4.18124,1.08346,-0.21364,0.977963805,-0.02111811,0.125671065
1764768541.1069329,-4.18124,1.08346,-0.21364,0.977963805,-0.02111811,0.125671065
1764768541.1069329,-4.18124,1.08346,-0.21364,0.977963805,-0.02111811,0.125671065
1764768541.1069329,-4.18124,1.08346,-0.21364,0.977963805,-0.02111811,0.125671065
1764768541.1069329,-3.93708,0.96138,0.27468,0.978085875,-0.021667425,0.12524382
1764768541.1069329,-3.93708,0.96138,0.27468,0.978085875,-0.021667425,0.12524382
1764768541.153098,-3.93708,0.96138,0.27468,0.978085875,-0.021667425,0.12524382
1764768541.153098,-3.93708,0.96138,0.27468,0.978085875,-0.021667425,0.12524382
1764768541.153615,-3.93708,0.96138,0.27468,0.978085875,-0.021667425,0.12524382
1764768541.153615,-3.93708,0.96138,0.27468,0.978085875,-0.021667425,0.12524382
1764768541.153615,-3.93708,0.96138,0.27468,0.978085875,-0.021667425,0.12524382
1764768541.153615,-3.93708,0.96138,0.27468,0.978085875,-0.021667425,0.12524382
1764768541.153615,-3.93708,0.96138,0.27468,0.978085875,-0.021667425,0.12524382
1764768541.153615,-3.93708,0.96138,0.27468,0.978085875,-0.021667425,0.12524382
1764768541.153615,-3.7387,0.8698199999999999,0.10682,0.97839105,-0.021423285,0.125304855
1764768541.153615,-3.7387,0.8698199999999999,0.10682,0.97839105,-0.021423285,0.125304855
1764768541.153615,-3.7387,0.8698199999999999,0.10682,0.97839105,-0.021423285,0.125304855
1764768541.153615,-3.7387,0.8698199999999999,0.10682,0.97839105,-0.021423285,0.125304855
1764768541.153615,-3.7387,0.8698199999999999,0.10682,0.97839105,-0.021423285,0.125304855
1764768541.153615,-3.7387,0.8698199999999999,0.10682,0.97839105,-0.021423285,0.125304855
1764768541.153615,-3.7387,0.8698199999999999,0.10682,0.97839105,-0.021423285,0.125304855
1764768541.153615,-3.7387,0.8698199999999999,0.10682,0.97839105,-0.021423285,0.125304855
1764768541.153615,-3.7387,0.8698199999999999,0.10682,0.97839105,-0.021423285,0.125304855
1764768541.153615,-3.7387,0.8698199999999999,0.10682,0.97839105,-0.021423285,0.125304855
1764768541.153615,-3.70818,0.56462,0.09156,0.97802484,-0.021667425,0.12524382
1764768541.153615,-3.70818,0.56462,0.09156,0.97802484,-0.021667425,0.12524382
1764768541.153615,-3.70818,0.56462,0.09156,0.97802484,-0.021667425,0.12524382
1764768541.153615,-3.70818,0.56462,0.09156,0.97802484,-0.021667425,0.12524382
1764768541.153615,-3.70818,0.56462,0.09156,0.97802484,-0.021667425,0.12524382
1764768541.153615,-3.70818,0.56462,0.09156,0.97802484,-0.021667425,0.12524382
1764768541.2007475,-3.70818,0.56462,0.09156,0.97802484,-0.021667425,0.12524382
1764768541.2007475,-3.70818,0.56462,0.09156,0.97802484,-0.021667425,0.12524382
1764768541.2007475,-3.70818,0.56462,0.09156,0.97802484,-0.021667425,0.12524382
1764768541.2007475,-3.70818,0.56462,0.09156,0.97802484,-0.021667425,0.12524382
1764768541.2007475,-3.6624,0.79352,0.62566,0.977963805,-0.021179145,0.125426925
1764768541.2007475,-3.6624,0.79352,0.62566,0.977963805,-0.021179145,0.125426925
1764768541.2007475,-3.6624,0.79352,0.62566,0.977963805,-0.021179145,0.125426925
1764768541.2007475,-3.6624,0.79352,0.62566,0.977963805,-0.021179145,0.125426925
1764768541.2007475,-3.6624,0.79352,0.62566,0.977963805,-0.021179145,0.125426925
1764768541.2007475,-3.6624,0.79352,0.62566,0.977963805,-0.021179145,0.125426925
1764768541.2007475,-3.6624,0.79352,0.62566,0.977963805,-0.021179145,0.125426925
1764768541.2007475,-3.6624,0.79352,0.62566,0.977963805,-0.021179145,0.125426925
1764768541.2007475,-3.6624,0.79352,0.62566,0.977963805,-0.021179145,0.125426925
1764768541.2007475,-3.6624,0.79352,0.62566,0.977963805,-0.021179145,0.125426925
1764768541.2007475,-2.92992,0.47306,1.02242,0.977719665,-0.020935005,0.12463347
1764768541.2013853,-2.92992,0.47306,1.02242,0.977719665,-0.020935005,0.12463347
1764768541.2013853,-2.92992,0.47306,1.02242,0.977719665,-0.020935005,0.12463347
1764768541.2013853,-2.92992,0.47306,1.02242,0.977719665,-0.020935005,0.12463347
1764768541.2013853,-2.92992,0.47306,1.02242,0.977719665,-0.020935005,0.12463347
1764768541.2013853,-2.92992,0.47306,1.02242,0.977719665,-0.020935005,0.12463347
1764768541.2013853,-2.92992,0.47306,1.02242,0.977719665,-0.020935005,0.12463347
1764768541.2013853,-2.92992,0.47306,1.02242,0.977719665,-0.020935005,0.12463347
1764768541.2471118,-2.92992,0.47306,1.02242,0.977719665,-0.020935005,0.12463347
1764768541.2471118,-2.92992,0.47306,1.02242,0.977719665,-0.020935005,0.12463347
1764768541.2471118,-3.26564,0.74774,0.48832,0.97875726,-0.0207519,0.12499968
1764768541.2471118,-3.26564,0.74774,0.48832,0.97875726,-0.0207519,0.12499968
1764768541.2471118,-3.26564,0.74774,0.48832,0.97875726,-0.0207519,0.12499968
1764768541.2471118,-3.26564,0.74774,0.48832,0.97875726,-0.0207519,0.12499968
1764768541.2471118,-3.26564,0.74774,0.48832,0.97875726,-0.0207519,0.12499968
1764768541.2471118,-3.26564,0.74774,0.48832,0.97875726,-0.0207519,0.12499968
1764768541.2471118,-3.26564,0.74774,0.48832,0.97875726,-0.0207519,0.12499968
1764768541.2471118,-3.26564,0.74774,0.48832,0.97875726,-0.0207519,0.12499968
1764768541.2471118,-3.26564,0.74774,0.48832,0.97875726,-0.0207519,0.12499968
1764768541.2471118,-3.26564,0.74774,0.48832,0.97875726,-0.0207519,0.12499968
1764768541.2471118,-3.46402,1.19028,0.19838,0.98046624,-0.019836375,0.12438933
1764768541.2481277,-3.46402,1.19028,0.19838,0.98046624,-0.019836375,0.12438933
1764768541.2481277,-3.46402,1.19028,0.19838,0.98046624,-0.019836375,0.12438933
1764768541.2481277,-3.46402,1.19028,0.19838,0.98046624,-0.019836375,0.12438933
1764768541.2481277,-3.46402,1.19028,0.19838,0.98046624,-0.019836375,0.12438933
1764768541.2481277,-3.46402,1.19028,0.19838,0.98046624,-0.019836375,0.12438933
1764768541.2481277,-3.46402,1.19028,0.19838,0.98046624,-0.019836375,0.12438933
1764768541.2481277,-3.46402,1.19028,0.19838,0.98046624,-0.019836375,0.12438933
1764768541.2481277,-3.46402,1.19028,0.19838,0.98046624,-0.019836375,0.12438933
1764768541.2481277,-3.46402,1.19028,0.19838,0.98046624,-0.019836375,0.12438933
1764768541.2481277,-3.93708,1.12924,0.0762999999999999,0.97961175,-0.019836375,0.123962085
1764768541.2481277,-3.93708,1.12924,0.0762999999999999,0.97961175,-0.019836375,0.123962085
1764768541.290708,-3.93708,1.12924,0.0762999999999999,0.97961175,-0.019836375,0.123962085
1764768541.290708,-3.93708,1.12924,0.0762999999999999,0.97961175,-0.019836375,0.123962085
1764768541.290708,-3.93708,1.12924,0.0762999999999999,0.97961175,-0.019836375,0.123962085
1764768541.290708,-3.93708,1.12924,0.0762999999999999,0.97961175,-0.019836375,0.123962085
1764768541.290708,-3.93708,1.12924,0.0762999999999999,0.97961175,-0.019836375,0.123962085
1764768541.290708,-3.93708,1.12924,0.0762999999999999,0.97961175,-0.019836375,0.123962085
1764768541.290708,-3.93708,1.12924,0.0762999999999999,0.97961175,-0.019836375,0.123962085
1764768541.290708,-3.93708,1.12924,0.0762999999999999,0.97961175,-0.019836375,0.123962085
1764768541.290708,-4.059159999999999,1.00716,0.5341,0.978818295,-0.02062983,0.12365691
1764768541.290708,-4.059159999999999,1.00716,0.5341,0.978818295,-0.02062983,0.12365691
1764768541.290708,-4.059159999999999,1.00716,0.5341,0.978818295,-0.02062983,0.12365691
1764768541.290708,-4.059159999999999,1.00716,0.5341,0.978818295,-0.02062983,0.12365691
1764768541.290708,-4.059159999999999,1.00716,0.5341,0.978818295,-0.02062983,0.12365691
1764768541.290708,-4.059159999999999,1.00716,0.5341,0.978818295,-0.02062983,0.12365691
1764768541.290708,-4.059159999999999,1.00716,0.5341,0.978818295,-0.02062983,0.12365691
1764768541.290708,-4.059159999999999,1.00716,0.5341,0.978818295,-0.02062983,0.12365691
1764768541.290708,-4.059159999999999,1.00716,0.5341,0.978818295,-0.02062983,0.12365691
1764768541.290708,-4.059159999999999,1.00716,0.5341,0.978818295,-0.02062983,0.12365691
1764768541.290708,-3.5861,1.86172,0.9919,0.97985589,-0.021545355,0.123962085
1764768541.290708,-3.5861,1.86172,0.9919,0.97985589,-0.021545355,0.123962085
1764768541.290708,-3.5861,1.86172,0.9919,0.97985589,-0.021545355,0.123962085
1764768541.290708,-3.5861,1.86172,0.9919,0.97985589,-0.021545355,0.123962085
1764768541.3378465,-3.5861,1.86172,0.9919,0.97985589,-0.021545355,0.123962085
1764768541.3378465,-3.5861,1.86172,0.9919,0.97985589,-0.021545355,0.123962085
1764768541.3378465,-3.5861,1.86172,0.9919,0.97985589,-0.021545355,0.123962085
1764768541.3378465,-3.5861,1.86172,0.9919,0.97985589,-0.021545355,0.123962085
1764768541.3378465,-3.5861,1.86172,0.9919,0.97985589,-0.021545355,0.123962085
1764768541.3378465,-3.5861,1.86172,0.9919,0.97985589,-0.021545355,0.123962085
1764768541.3378465,-3.63188,0.93086,0.94612,0.97851312,-0.02172846,0.124572435
1764768541.3378465,-3.63188,0.93086,0.94612,0.97851312,-0.02172846,0.124572435
1764768541.3378465,-3.63188,0.93086,0.94612,0.97851312,-0.02172846,0.124572435
1764768541.3378465,-3.63188,0.93086,0.94612,0.97851312,-0.02172846,0.124572435
1764768541.3378465,-3.63188,0.93086,0.94612,0.97851312,-0.02172846,0.124572435
1764768541.3378465,-3.63188,0.93086,0.94612,0.97851312,-0.02172846,0.124572435
1764768541.3378465,-3.63188,0.93086,0.94612,0.97851312,-0.02172846,0.124572435
1764768541.3378465,-3.63188,0.93086,0.94612,0.97851312,-0.02172846,0.124572435
1764768541.3378465,-3.63188,0.93086,0.94612,0.97851312,-0.02172846,0.124572435
1764768541.3378465,-3.63188,0.93086,0.94612,0.97851312,-0.02172846,0.124572435
1764768541.3378465,-3.70818,1.02242,0.77826,0.97887933,-0.021911565,0.12499968
1764768541.3378465,-3.70818,1.02242,0.77826,0.97887933,-0.021911565,0.12499968
1764768541.3378465,-3.70818,1.02242,0.77826,0.97887933,-0.021911565,0.12499968
1764768541.3378465,-3.70818,1.02242,0.77826,0.97887933,-0.021911565,0.12499968
1764768541.3378465,-3.70818,1.02242,0.77826,0.97887933,-0.021911565,0.12499968
1764768541.3378465,-3.70818,1.02242,0.77826,0.97887933,-0.021911565,0.12499968
1764768541.3378465,-3.70818,1.02242,0.77826,0.97887933,-0.021911565,0.12499968
1764768541.3378465,-3.70818,1.02242,0.77826,0.97887933,-0.021911565,0.12499968
1764768541.3866794,-3.70818,1.02242,0.77826,0.97887933,-0.021911565,0.12499968
1764768541.3866794,-3.70818,1.02242,0.77826,0.97887933,-0.021911565,0.12499968
1764768541.3866794,-3.49454,0.88508,0.6867,0.97948968,-0.02233881,0.12561003
1764768541.3866794,-3.49454,0.88508,0.6867,0.97948968,-0.02233881,0.12561003
1764768541.3866794,-3.49454,0.88508,0.6867,0.97948968,-0.02233881,0.12561003
1764768541.3866794,-3.49454,0.88508,0.6867,0.97948968,-0.02233881,0.12561003
1764768541.3866794,-3.49454,0.88508,0.6867,0.97948968,-0.02233881,0.12561003
1764768541.3866794,-3.49454,0.88508,0.6867,0.97948968,-0.02233881,0.12561003
1764768541.3866794,-3.49454,0.88508,0.6867,0.97948968,-0.02233881,0.12561003
1764768541.3866794,-3.49454,0.88508,0.6867,0.97948968,-0.02233881,0.12561003
1764768541.3866794,-3.49454,0.88508,0.6867,0.97948968,-0.02233881,0.12561003
1764768541.3866794,-3.49454,0.88508,0.6867,0.97948968,-0.02233881,0.12561003
1764768541.3866794,-3.31142,0.25942,1.69386,0.97741449,-0.02404779,0.12524382
1764768541.3866794,-3.31142,0.25942,1.69386,0.97741449,-0.02404779,0.12524382
1764768541.3866794,-3.31142,0.25942,1.69386,0.97741449,-0.02404779,0.12524382
1764768541.3866794,-3.31142,0.25942,1.69386,0.97741449,-0.02404779,0.12524382
1764768541.3866794,-3.31142,0.25942,1.69386,0.97741449,-0.02404779,0.12524382
1764768541.3866794,-3.31142,0.25942,1.69386,0.97741449,-0.02404779,0.12524382
1764768541.3866794,-3.31142,0.25942,1.69386,0.97741449,-0.02404779,0.12524382
1764768541.3866794,-3.31142,0.25942,1.69386,0.97741449,-0.02404779,0.12524382
1764768541.3866794,-3.31142,0.25942,1.69386,0.97741449,-0.02404779,0.12524382
1764768541.3866794,-3.31142,0.25942,1.69386,0.97741449,-0.02404779,0.12524382
1764768541.3866794,-2.68576,-0.2289,1.09872,0.97863519,-0.02368158,0.12524382
1764768541.3866794,-2.68576,-0.2289,1.09872,0.97863519,-0.02368158,0.12524382
1764768541.4333243,-2.68576,-0.2289,1.09872,0.97863519,-0.02368158,0.12524382
1764768541.4333243,-2.68576,-0.2289,1.09872,0.97863519,-0.02368158,0.12524382
1764768541.4333243,-2.68576,-0.2289,1.09872,0.97863519,-0.02368158,0.12524382
1764768541.4333243,-2.68576,-0.2289,1.09872,0.97863519,-0.02368158,0.12524382
1764768541.4333243,-2.68576,-0.2289,1.09872,0.97863519,-0.02368158,0.12524382
1764768541.4333243,-2.68576,-0.2289,1.09872,0.97863519,-0.02368158,0.12524382
1764768541.4333243,-2.68576,-0.2289,1.09872,0.97863519,-0.02368158,0.12524382
1764768541.4333243,-2.68576,-0.2289,1.09872,0.97863519,-0.02368158,0.12524382
1764768541.4333243,-3.052,0.4578,0.3509799999999999,0.98132073,-0.022521915,0.124328295
1764768541.4333243,-3.052,0.4578,0.3509799999999999,0.98132073,-0.022521915,0.124328295
1764768541.4333243,-3.052,0.4578,0.3509799999999999,0.98132073,-0.022521915,0.124328295
1764768541.4333243,-3.052,0.4578,0.3509799999999999,0.98132073,-0.022521915,0.124328295
1764768541.4333243,-3.052,0.4578,0.3509799999999999,0.98132073,-0.022521915,0.124328295
1764768541.433838,-3.052,0.4578,0.3509799999999999,0.98132073,-0.022521915,0.124328295
1764768541.433838,-3.052,0.4578,0.3509799999999999,0.98132073,-0.022521915,0.124328295
1764768541.433838,-3.052,0.4578,0.3509799999999999,0.98132073,-0.022521915,0.124328295
1764768541.433838,-3.052,0.4578,0.3509799999999999,0.98132073,-0.022521915,0.124328295
1764768541.433838,-3.052,0.4578,0.3509799999999999,0.98132073,-0.022521915,0.124328295
1764768541.433838,-3.17408,1.12924,-0.3509799999999999,0.981015555,-0.022277775,0.12414519
1764768541.433838,-3.17408,1.12924,-0.3509799999999999,0.981015555,-0.022277775,0.12414519
1764768541.433838,-3.17408,1.12924,-0.3509799999999999,0.981015555,-0.022277775,0.12414519
1764768541.433838,-3.17408,1.12924,-0.3509799999999999,0.981015555,-0.022277775,0.12414519
1764768541.4804764,-3.17408,1.12924,-0.3509799999999999,0.981015555,-0.022277775,0.12414519
1764768541.4804764,-3.17408,1.12924,-0.3509799999999999,0.981015555,-0.022277775,0.12414519
1764768541.4804764,-3.17408,1.12924,-0.3509799999999999,0.981015555,-0.022277775,0.12414519
1764768541.4804764,-3.17408,1.12924,-0.3509799999999999,0.981015555,-0.022277775,0.12414519
1764768541.4804764,-3.17408,1.12924,-0.3509799999999999,0.981015555,-0.022277775,0.12414519
1764768541.4804764,-3.17408,1.12924,-0.3509799999999999,0.981015555,-0.022277775,0.12414519
1764768541.4804764,-3.49454,1.2208,-0.3357199999999999,0.97973382,-0.020690865,0.123717945
1764768541.4804764,-3.49454,1.2208,-0.3357199999999999,0.97973382,-0.020690865,0.123717945
1764768541.4804764,-3.49454,1.2208,-0.3357199999999999,0.97973382,-0.020690865,0.123717945
1764768541.4804764,-3.49454,1.2208,-0.3357199999999999,0.97973382,-0.020690865,0.123717945
1764768541.4804764,-3.49454,1.2208,-0.3357199999999999,0.97973382,-0.020690865,0.123717945
1764768541.4804764,-3.49454,1.2208,-0.3357199999999999,0.97973382,-0.020690865,0.123717945
1764768541.4804764,-3.49454,1.2208,-0.3357199999999999,0.97973382,-0.020690865,0.123717945
1764768541.4804764,-3.49454,1.2208,-0.3357199999999999,0.97973382,-0.020690865,0.123717945
1764768541.4804764,-3.49454,1.2208,-0.3357199999999999,0.97973382,-0.020690865,0.123717945
1764768541.4804764,-3.49454,1.2208,-0.3357199999999999,0.97973382,-0.020690865,0.123717945
1764768541.4804764,-3.95234,1.69386,-0.763,0.97948968,-0.020080515,0.123595875
1764768541.4804764,-3.95234,1.69386,-0.763,0.97948968,-0.020080515,0.123595875
1764768541.4804764,-3.95234,1.69386,-0.763,0.97948968,-0.020080515,0.123595875
1764768541.4804764,-3.95234,1.69386,-0.763,0.97948968,-0.020080515,0.123595875
1764768541.4804764,-3.95234,1.69386,-0.763,0.97948968,-0.020080515,0.123595875
1764768541.4804764,-3.95234,1.69386,-0.763,0.97948968,-0.020080515,0.123595875
1764768541.4804764,-3.95234,1.69386,-0.763,0.97948968,-0.020080515,0.123595875
1764768541.4804764,-3.95234,1.69386,-0.763,0.97948968,-0.020080515,0.123595875
1764768541.5268366,-3.95234,1.69386,-0.763,0.97948968,-0.020080515,0.123595875
1764768541.5268366,-3.95234,1.69386,-0.763,0.97948968,-0.020080515,0.123595875
1764768541.5268366,-4.08968,1.61756,0.3204599999999999,0.979062435,-0.01965327,0.12463347
1764768541.5268366,-4.08968,1.61756,0.3204599999999999,0.979062435,-0.01965327,0.12463347
1764768541.5268366,-4.08968,1.61756,0.3204599999999999,0.979062435,-0.01965327,0.12463347
1764768541.5268366,-4.08968,1.61756,0.3204599999999999,0.979062435,-0.01965327,0.12463347
1764768541.5268366,-4.08968,1.61756,0.3204599999999999,0.979062435,-0.01965327,0.12463347
1764768541.5268366,-4.08968,1.61756,0.3204599999999999,0.979062435,-0.01965327,0.12463347
1764768541.5268366,-4.08968,1.61756,0.3204599999999999,0.979062435,-0.01965327,0.12463347
1764768541.5268366,-4.08968,1.61756,0.3204599999999999,0.979062435,-0.01965327,0.12463347
1764768541.5268366,-4.08968,1.61756,0.3204599999999999,0.979062435,-0.01965327,0.12463347
1764768541.5268366,-4.08968,1.61756,0.3204599999999999,0.979062435,-0.01965327,0.12463347
1764768541.5268366,-3.815,1.51074,0.0762999999999999,0.978574155,-0.020080515,0.124938645
1764768541.5268366,-3.815,1.51074,0.0762999999999999,0.978574155,-0.020080515,0.124938645
1764768541.5268366,-3.815,1.51074,0.0762999999999999,0.978574155,-0.020080515,0.124938645
1764768541.5268366,-3.815,1.51074,0.0762999999999999,0.978574155,-0.020080515,0.124938645
1764768541.5268366,-3.815,1.51074,0.0762999999999999,0.978574155,-0.020080515,0.124938645
1764768541.5268366,-3.815,1.51074,0.0762999999999999,0.978574155,-0.020080515,0.124938645
1764768541.5268366,-3.815,1.51074,0.0762999999999999,0.978574155,-0.020080515,0.124938645
1764768541.5268366,-3.815,1.51074,0.0762999999999999,0.978574155,-0.020080515,0.124938645
1764768541.5268366,-3.815,1.51074,0.0762999999999999,0.978574155,-0.020080515,0.124938645
1764768541.5268366,-3.815,1.51074,0.0762999999999999,0.978574155,-0.020080515,0.124938645
1764768541.5268366,-4.1202,1.28184,-0.2289,0.978818295,-0.02001948,0.125426925
1764768541.5268366,-4.1202,1.28184,-0.2289,0.978818295,-0.02001948,0.125426925
1764768541.5725875,-4.1202,1.28184,-0.2289,0.978818295,-0.02001948,0.125426925
1764768541.5725875,-4.1202,1.28184,-0.2289,0.978818295,-0.02001948,0.125426925
1764768541.5725875,-4.1202,1.28184,-0.2289,0.978818295,-0.02001948,0.125426925
1764768541.5725875,-4.1202,1.28184,-0.2289,0.978818295,-0.02001948,0.125426925
1764768541.5725875,-4.1202,1.28184,-0.2289,0.978818295,-0.02001948,0.125426925
1764768541.5725875,-4.1202,1.28184,-0.2289,0.978818295,-0.02001948,0.125426925
1764768541.5725875,-4.1202,1.28184,-0.2289,0.978818295,-0.02001948,0.125426925
1764768541.5725875,-4.1202,1.28184,-0.2289,0.978818295,-0.02001948,0.125426925
1764768541.5725875,-3.5098,1.08346,-0.12208,0.9802221,-0.02099604,0.126159345
1764768541.5725875,-3.5098,1.08346,-0.12208,0.9802221,-0.02099604,0.126159345
1764768541.5725875,-3.5098,1.08346,-0.12208,0.9802221,-0.02099604,0.126159345
1764768541.5725875,-3.5098,1.08346,-0.12208,0.9802221,-0.02099604,0.126159345
1764768541.5725875,-3.5098,1.08346,-0.12208,0.9802221,-0.02099604,0.126159345
1764768541.5725875,-3.5098,1.08346,-0.12208,0.9802221,-0.02099604,0.126159345
1764768541.5725875,-3.5098,1.08346,-0.12208,0.9802221,-0.02099604,0.126159345
1764768541.5725875,-3.5098,1.08346,-0.12208,0.9802221,-0.02099604,0.126159345
1764768541.5725875,-3.5098,1.08346,-0.12208,0.9802221,-0.02099604,0.126159345
1764768541.5725875,-3.5098,1.08346,-0.12208,0.9802221,-0.02099604,0.126159345
1764768541.5725875,-3.40298,1.09872,0.3051999999999999,0.979550715,-0.02136225,0.126769695
1764768541.5725875,-3.40298,1.09872,0.3051999999999999,0.979550715,-0.02136225,0.126769695
1764768541.5725875,-3.40298,1.09872,0.3051999999999999,0.979550715,-0.02136225,0.126769695
1764768541.5725875,-3.40298,1.09872,0.3051999999999999,0.979550715,-0.02136225,0.126769695
1764768541.5725875,-3.40298,1.09872,0.3051999999999999,0.979550715,-0.02136225,0.126769695
1764768541.5725875,-3.40298,1.09872,0.3051999999999999,0.979550715,-0.02136225,0.126769695
1764768541.6193702,-3.40298,1.09872,0.3051999999999999,0.979550715,-0.02136225,0.126769695
1764768541.6193702,-3.40298,1.09872,0.3051999999999999,0.979550715,-0.02136225,0.126769695
1764768541.6193702,-3.40298,1.09872,0.3051999999999999,0.979550715,-0.02136225,0.126769695
1764768541.6193702,-3.40298,1.09872,0.3051999999999999,0.979550715,-0.02136225,0.126769695
1764768541.6193702,-3.3572,0.24416,0.3051999999999999,0.978818295,-0.02026362,0.12670866
1764768541.6193702,-3.3572,0.24416,0.3051999999999999,0.978818295,-0.02026362,0.12670866
1764768541.619901,-3.3572,0.24416,0.3051999999999999,0.978818295,-0.02026362,0.12670866
1764768541.619901,-3.3572,0.24416,0.3051999999999999,0.978818295,-0.02026362,0.12670866
1764768541.619901,-3.3572,0.24416,0.3051999999999999,0.978818295,-0.02026362,0.12670866
1764768541.619901,-3.3572,0.24416,0.3051999999999999,0.978818295,-0.02026362,0.12670866
1764768541.619901,-3.3572,0.24416,0.3051999999999999,0.978818295,-0.02026362,0.12670866
1764768541.619901,-3.3572,0.24416,0.3051999999999999,0.978818295,-0.02026362,0.12670866
1764768541.619901,-3.3572,0.24416,0.3051999999999999,0.978818295,-0.02026362,0.12670866
1764768541.619901,-3.3572,0.24416,0.3051999999999999,0.978818295,-0.02026362,0.12670866
1764768541.619901,-3.76922,-0.3357199999999999,0.9156,0.97765863,-0.01855464,0.125671065
1764768541.619901,-3.76922,-0.3357199999999999,0.9156,0.97765863,-0.01855464,0.125671065
1764768541.619901,-3.76922,-0.3357199999999999,0.9156,0.97765863,-0.01855464,0.125671065
1764768541.619901,-3.76922,-0.3357199999999999,0.9156,0.97765863,-0.01855464,0.125671065
1764768541.619901,-3.76922,-0.3357199999999999,0.9156,0.97765863,-0.01855464,0.125671065
1764768541.619901,-3.76922,-0.3357199999999999,0.9156,0.97765863,-0.01855464,0.125671065
1764768541.619901,-3.76922,-0.3357199999999999,0.9156,0.97765863,-0.01855464,0.125671065
1764768541.619901,-3.76922,-0.3357199999999999,0.9156,0.97765863,-0.01855464,0.125671065
1764768541.666049,-3.76922,-0.3357199999999999,0.9156,0.97765863,-0.01855464,0.125671065
1764768541.666049,-3.76922,-0.3357199999999999,0.9156,0.97765863,-0.01855464,0.125671065
1764768541.666049,-3.15882,0.2289,1.25132,0.97826898,-0.01916499,0.124450365
1764768541.666049,-3.15882,0.2289,1.25132,0.97826898,-0.01916499,0.124450365
1764768541.666049,-3.15882,0.2289,1.25132,0.97826898,-0.01916499,0.124450365
1764768541.666049,-3.15882,0.2289,1.25132,0.97826898,-0.01916499,0.124450365
1764768541.666049,-3.15882,0.2289,1.25132,0.97826898,-0.01916499,0.124450365
1764768541.666049,-3.15882,0.2289,1.25132,0.97826898,-0.01916499,0.124450365
1764768541.666049,-3.15882,0.2289,1.25132,0.97826898,-0.01916499,0.124450365
1764768541.666049,-3.15882,0.2289,1.25132,0.97826898,-0.01916499,0.124450365
1764768541.666049,-3.15882,0.2289,1.25132,0.97826898,-0.01916499,0.124450365
1764768541.666049,-3.15882,0.2289,1.25132,0.97826898,-0.01916499,0.124450365
1764768541.666049,-3.78448,-0.04578,1.6022999999999998,0.978207945,-0.019470165,0.12341277
1764768541.666049,-3.78448,-0.04578,1.6022999999999998,0.978207945,-0.019470165,0.12341277
1764768541.666049,-3.78448,-0.04578,1.6022999999999998,0.978207945,-0.019470165,0.12341277
1764768541.666049,-3.78448,-0.04578,1.6022999999999998,0.978207945,-0.019470165,0.12341277
1764768541.666049,-3.78448,-0.04578,1.6022999999999998,0.978207945,-0.019470165,0.12341277
1764768541.666049,-3.78448,-0.04578,1.6022999999999998,0.978207945,-0.019470165,0.12341277
1764768541.6665766,-3.78448,-0.04578,1.6022999999999998,0.978207945,-0.019470165,0.12341277
1764768541.6665766,-3.78448,-0.04578,1.6022999999999998,0.978207945,-0.019470165,0.12341277
1764768541.6665766,-3.78448,-0.04578,1.6022999999999998,0.978207945,-0.019470165,0.12341277
1764768541.6665766,-3.78448,-0.04578,1.6022999999999998,0.978207945,-0.019470165,0.12341277
1764768541.6665766,-3.47928,0.24416,1.4497,0.97814691,-0.0207519,0.12268035
1764768541.6665766,-3.47928,0.24416,1.4497,0.97814691,-0.0207519,0.12268035
1764768541.7132876,-3.47928,0.24416,1.4497,0.97814691,-0.0207519,0.12268035
1764768541.713843,-3.47928,0.24416,1.4497,0.97814691,-0.0207519,0.12268035
1764768541.713843,-3.47928,0.24416,1.4497,0.97814691,-0.0207519,0.12268035
1764768541.713843,-3.47928,0.24416,1.4497,0.97814691,-0.0207519,0.12268035
1764768541.713843,-3.47928,0.24416,1.4497,0.97814691,-0.0207519,0.12268035
1764768541.713843,-3.47928,0.24416,1.4497,0.97814691,-0.0207519,0.12268035
1764768541.713843,-3.47928,0.24416,1.4497,0.97814691,-0.0207519,0.12268035
1764768541.713843,-3.47928,0.24416,1.4497,0.97814691,-0.0207519,0.12268035
1764768541.713843,-3.15882,0.7019599999999999,1.57178,0.978574155,-0.022277775,0.12219207
1764768541.713843,-3.15882,0.7019599999999999,1.57178,0.978574155,-0.022277775,0.12219207
1764768541.713843,-3.15882,0.7019599999999999,1.57178,0.978574155,-0.022277775,0.12219207
1764768541.713843,-3.15882,0.7019599999999999,1.57178,0.978574155,-0.022277775,0.12219207
1764768541.713843,-3.15882,0.7019599999999999,1.57178,0.978574155,-0.022277775,0.12219207
1764768541.713843,-3.15882,0.7019599999999999,1.57178,0.978574155,-0.022277775,0.12219207
1764768541.713843,-3.15882,0.7019599999999999,1.57178,0.978574155,-0.022277775,0.12219207
1764768541.713843,-3.15882,0.7019599999999999,1.57178,0.978574155,-0.022277775,0.12219207
1764768541.713843,-3.15882,0.7019599999999999,1.57178,0.978574155,-0.022277775,0.12219207
1764768541.713843,-3.15882,0.7019599999999999,1.57178,0.978574155,-0.022277775,0.12219207
1764768541.713843,-2.99096,1.2055399999999998,0.6714399999999999,0.980527275,-0.022521915,0.121764825
1764768541.713843,-2.99096,1.2055399999999998,0.6714399999999999,0.980527275,-0.022521915,0.121764825
1764768541.713843,-2.99096,1.2055399999999998,0.6714399999999999,0.980527275,-0.022521915,0.121764825
1764768541.713843,-2.99096,1.2055399999999998,0.6714399999999999,0.980527275,-0.022521915,0.121764825
1764768541.7568126,-2.99096,1.2055399999999998,0.6714399999999999,0.980527275,-0.022521915,0.121764825
1764768541.7568126,-2.99096,1.2055399999999998,0.6714399999999999,0.980527275,-0.022521915,0.121764825
1764768541.7568126,-2.99096,1.2055399999999998,0.6714399999999999,0.980527275,-0.022521915,0.121764825
1764768541.7568126,-2.99096,1.2055399999999998,0.6714399999999999,0.980527275,-0.022521915,0.121764825
1764768541.7568126,-2.99096,1.2055399999999998,0.6714399999999999,0.980527275,-0.022521915,0.121764825
1764768541.7568126,-2.99096,1.2055399999999998,0.6714399999999999,0.980527275,-0.022521915,0.121764825
1764768541.7568126,-3.52506,1.46496,-0.03052,0.981625905,-0.02209467,0.121520685
1764768541.7568126,-3.52506,1.46496,-0.03052,0.981625905,-0.02209467,0.121520685
1764768541.7568126,-3.52506,1.46496,-0.03052,0.981625905,-0.02209467,0.121520685
1764768541.7568126,-3.52506,1.46496,-0.03052,0.981625905,-0.02209467,0.121520685
1764768541.7568126,-3.52506,1.46496,-0.03052,0.981625905,-0.02209467,0.121520685
1764768541.7568126,-3.52506,1.46496,-0.03052,0.981625905,-0.02209467,0.121520685
1764768541.7578292,-3.52506,1.46496,-0.03052,0.981625905,-0.02209467,0.121520685
1764768541.7578292,-3.52506,1.46496,-0.03052,0.981625905,-0.02209467,0.121520685
1764768541.7578292,-3.52506,1.46496,-0.03052,0.981625905,-0.02209467,0.121520685
1764768541.7578292,-3.52506,1.46496,-0.03052,0.981625905,-0.02209467,0.121520685
1764768541.7578292,-3.32668,2.02958,0.19838,0.981381765,-0.02185053,0.122497245
1764768541.7578292,-3.32668,2.02958,0.19838,0.981381765,-0.02185053,0.122497245
1764768541.7578292,-3.32668,2.02958,0.19838,0.981381765,-0.02185053,0.122497245
1764768541.7578292,-3.32668,2.02958,0.19838,0.981381765,-0.02185053,0.122497245
1764768541.7578292,-3.32668,2.02958,0.19838,0.981381765,-0.02185053,0.122497245
1764768541.7578292,-3.32668,2.02958,0.19838,0.981381765,-0.02185053,0.122497245
1764768541.7578292,-3.32668,2.02958,0.19838,0.981381765,-0.02185053,0.122497245
1764768541.7578292,-3.32668,2.02958,0.19838,0.981381765,-0.02185053,0.122497245
1764768541.7578292,-3.32668,2.02958,0.19838,0.981381765,-0.02185053,0.122497245
1764768541.7578292,-3.32668,2.02958,0.19838,0.981381765,-0.02185053,0.122497245
1764768541.8036766,-3.5098,1.9075,-0.3051999999999999,0.980161065,-0.021057075,0.123473805
1764768541.8036766,-3.5098,1.9075,-0.3051999999999999,0.980161065,-0.021057075,0.123473805
1764768541.8036766,-3.5098,1.9075,-0.3051999999999999,0.980161065,-0.021057075,0.123473805
1764768541.8036766,-3.5098,1.9075,-0.3051999999999999,0.980161065,-0.021057075,0.123473805
1764768541.8036766,-3.5098,1.9075,-0.3051999999999999,0.980161065,-0.021057075,0.123473805
1764768541.8036766,-3.5098,1.9075,-0.3051999999999999,0.980161065,-0.021057075,0.123473805
1764768541.8036766,-3.5098,1.9075,-0.3051999999999999,0.980161065,-0.021057075,0.123473805
1764768541.8036766,-3.5098,1.9075,-0.3051999999999999,0.980161065,-0.021057075,0.123473805
1764768541.8036766,-3.5098,1.9075,-0.3051999999999999,0.980161065,-0.021057075,0.123473805
1764768541.8036766,-3.5098,1.9075,-0.3051999999999999,0.980161065,-0.021057075,0.123473805
1764768541.8036766,-3.98286,1.19028,0.12208,0.978696225,-0.019592235,0.124328295
1764768541.8036766,-3.98286,1.19028,0.12208,0.978696225,-0.019592235,0.124328295
1764768541.8036766,-3.98286,1.19028,0.12208,0.978696225,-0.019592235,0.124328295
1764768541.8036766,-3.98286,1.19028,0.12208,0.978696225,-0.019592235,0.124328295
1764768541.8036766,-3.98286,1.19028,0.12208,0.978696225,-0.019592235,0.124328295
1764768541.8036766,-3.98286,1.19028,0.12208,0.978696225,-0.019592235,0.124328295
1764768541.8036766,-3.98286,1.19028,0.12208,0.978696225,-0.019592235,0.124328295
1764768541.8036766,-3.98286,1.19028,0.12208,0.978696225,-0.019592235,0.124328295
1764768541.8036766,-3.98286,1.19028,0.12208,0.978696225,-0.019592235,0.124328295
1764768541.8036766,-3.98286,1.19028,0.12208,0.978696225,-0.019592235,0.124328295
1764768541.8036766,-4.13546,1.09872,0.10682,0.97839105,-0.019348095,0.124816575
1764768541.8036766,-4.13546,1.09872,0.10682,0.97839105,-0.019348095,0.124816575
1764768541.850271,-4.13546,1.09872,0.10682,0.97839105,-0.019348095,0.124816575
1764768541.850271,-4.13546,1.09872,0.10682,0.97839105,-0.019348095,0.124816575
1764768541.850271,-4.13546,1.09872,0.10682,0.97839105,-0.019348095,0.124816575
1764768541.850271,-4.13546,1.09872,0.10682,0.97839105,-0.019348095,0.124816575
1764768541.850271,-4.13546,1.09872,0.10682,0.97839105,-0.019348095,0.124816575
1764768541.850271,-4.13546,1.09872,0.10682,0.97839105,-0.019348095,0.124816575
1764768541.850271,-4.13546,1.09872,0.10682,0.97839105,-0.019348095,0.124816575
1764768541.850271,-4.13546,1.09872,0.10682,0.97839105,-0.019348095,0.124816575
1764768541.850271,-3.83026,1.15976,0.01526,0.97802484,-0.018371535,0.125304855
1764768541.850271,-3.83026,1.15976,0.01526,0.97802484,-0.018371535,0.125304855
1764768541.850271,-3.83026,1.15976,0.01526,0.97802484,-0.018371535,0.125304855
1764768541.850271,-3.83026,1.15976,0.01526,0.97802484,-0.018371535,0.125304855
1764768541.850271,-3.83026,1.15976,0.01526,0.97802484,-0.018371535,0.125304855
1764768541.850271,-3.83026,1.15976,0.01526,0.97802484,-0.018371535,0.125304855
1764768541.851809,-3.83026,1.15976,0.01526,0.97802484,-0.018371535,0.125304855
1764768541.851809,-3.83026,1.15976,0.01526,0.97802484,-0.018371535,0.125304855
1764768541.851809,-3.83026,1.15976,0.01526,0.97802484,-0.018371535,0.125304855
1764768541.851809,-3.83026,1.15976,0.01526,0.97802484,-0.018371535,0.125304855
1764768541.851809,-4.059159999999999,1.08346,0.50358,0.978696225,-0.018859815,0.125182785
1764768541.851809,-4.059159999999999,1.08346,0.50358,0.978696225,-0.018859815,0.125182785
1764768541.851809,-4.059159999999999,1.08346,0.50358,0.978696225,-0.018859815,0.125182785
1764768541.851809,-4.059159999999999,1.08346,0.50358,0.978696225,-0.018859815,0.125182785
1764768541.8997574,-4.059159999999999,1.08346,0.50358,0.978696225,-0.018859815,0.125182785
1764768541.8997574,-4.059159999999999,1.08346,0.50358,0.978696225,-0.018859815,0.125182785
1764768541.8997574,-4.059159999999999,1.08346,0.50358,0.978696225,-0.018859815,0.125182785
1764768541.8997574,-4.059159999999999,1.08346,0.50358,0.978696225,-0.018859815,0.125182785
1764768541.8997574,-4.059159999999999,1.08346,0.50358,0.978696225,-0.018859815,0.125182785
1764768541.8997574,-4.059159999999999,1.08346,0.50358,0.978696225,-0.018859815,0.125182785
1764768541.8997574,-4.21176,0.9919,0.24416,0.978818295,-0.019470165,0.12597624
1764768541.8997574,-4.21176,0.9919,0.24416,0.978818295,-0.019470165,0.12597624
1764768541.8997574,-4.21176,0.9919,0.24416,0.978818295,-0.019470165,0.12597624
1764768541.8997574,-4.21176,0.9919,0.24416,0.978818295,-0.019470165,0.12597624
1764768541.8997574,-4.21176,0.9919,0.24416,0.978818295,-0.019470165,0.12597624
1764768541.8997574,-4.21176,0.9919,0.24416,0.978818295,-0.019470165,0.12597624
1764768541.8997574,-4.21176,0.9919,0.24416,0.978818295,-0.019470165,0.12597624
1764768541.8997574,-4.21176,0.9919,0.24416,0.978818295,-0.019470165,0.12597624
1764768541.8997574,-4.21176,0.9919,0.24416,0.978818295,-0.019470165,0.12597624
1764768541.8997574,-4.21176,0.9919,0.24416,0.978818295,-0.019470165,0.12597624
1764768541.8997574,-3.7387,0.97664,0.51884,0.978330015,-0.0195312,0.12487761
1764768541.8997574,-3.7387,0.97664,0.51884,0.978330015,-0.0195312,0.12487761
1764768541.8997574,-3.7387,0.97664,0.51884,0.978330015,-0.0195312,0.12487761
1764768541.8997574,-3.7387,0.97664,0.51884,0.978330015,-0.0195312,0.12487761
1764768541.8997574,-3.7387,0.97664,0.51884,0.978330015,-0.0195312,0.12487761
1764768541.8997574,-3.7387,0.97664,0.51884,0.978330015,-0.0195312,0.12487761
1764768541.8997574,-3.7387,0.97664,0.51884,0.978330015,-0.0195312,0.12487761
1764768541.8997574,-3.7387,0.97664,0.51884,0.978330015,-0.0195312,0.12487761
1764768541.9431398,-3.7387,0.97664,0.51884,0.978330015,-0.0195312,0.12487761
1764768541.9431398,-3.7387,0.97664,0.51884,0.978330015,-0.0195312,0.12487761
1764768541.9431398,-3.72344,0.763,0.71722,0.97851312,-0.019836375,0.12438933
1764768541.9431398,-3.72344,0.763,0.71722,0.97851312,-0.019836375,0.12438933
1764768541.9431398,-3.72344,0.763,0.71722,0.97851312,-0.019836375,0.12438933
1764768541.9431398,-3.72344,0.763,0.71722,0.97851312,-0.019836375,0.12438933
1764768541.9431398,-3.72344,0.763,0.71722,0.97851312,-0.019836375,0.12438933
1764768541.9431398,-3.72344,0.763,0.71722,0.97851312,-0.019836375,0.12438933
1764768541.9431398,-3.72344,0.763,0.71722,0.97851312,-0.019836375,0.12438933
1764768541.9431398,-3.72344,0.763,0.71722,0.97851312,-0.019836375,0.12438933
1764768541.9431398,-3.72344,0.763,0.71722,0.97851312,-0.019836375,0.12438933
1764768541.9431398,-3.72344,0.763,0.71722,0.97851312,-0.019836375,0.12438933
1764768541.9431398,-3.54032,0.7019599999999999,0.6867,0.978696225,-0.020080515,0.12463347
1764768541.9431398,-3.54032,0.7019599999999999,0.6867,0.978696225,-0.020080515,0.12463347
1764768541.9431398,-3.54032,0.7019599999999999,0.6867,0.978696225,-0.020080515,0.12463347
1764768541.9431398,-3.54032,0.7019599999999999,0.6867,0.978696225,-0.020080515,0.12463347
1764768541.9431398,-3.54032,0.7019599999999999,0.6867,0.978696225,-0.020080515,0.12463347
1764768541.9431398,-3.54032,0.7019599999999999,0.6867,0.978696225,-0.020080515,0.12463347
1764768541.9431398,-3.54032,0.7019599999999999,0.6867,0.978696225,-0.020080515,0.12463347
1764768541.9431398,-3.54032,0.7019599999999999,0.6867,0.978696225,-0.020080515,0.12463347
1764768541.9431398,-3.54032,0.7019599999999999,0.6867,0.978696225,-0.020080515,0.12463347
1764768541.9431398,-3.54032,0.7019599999999999,0.6867,0.978696225,-0.020080515,0.12463347
1764768541.9431398,-3.6624,0.71722,0.97664,0.979306575,-0.020080515,0.12524382
1764768541.9431398,-3.6624,0.71722,0.97664,0.979306575,-0.020080515,0.12524382
1764768541.9914885,-3.6624,0.71722,0.97664,0.979306575,-0.020080515,0.12524382
1764768541.9914885,-3.6624,0.71722,0.97664,0.979306575,-0.020080515,0.12524382
1764768541.9914885,-3.6624,0.71722,0.97664,0.979306575,-0.020080515,0.12524382
1764768541.9914885,-3.6624,0.71722,0.97664,0.979306575,-0.020080515,0.12524382
1764768541.9914885,-3.6624,0.71722,0.97664,0.979306575,-0.020080515,0.12524382
1764768541.9914885,-3.6624,0.71722,0.97664,0.979306575,-0.020080515,0.12524382
1764768541.9914885,-3.6624,0.71722,0.97664,0.979306575,-0.020080515,0.12524382
1764768541.9914885,-3.6624,0.71722,0.97664,0.979306575,-0.020080515,0.12524382
1764768541.9914885,-3.5861,0.96138,0.8698199999999999,0.978818295,-0.020080515,0.1245114
1764768541.9914885,-3.5861,0.96138,0.8698199999999999,0.978818295,-0.020080515,0.1245114
1764768541.9914885,-3.5861,0.96138,0.8698199999999999,0.978818295,-0.020080515,0.1245114
1764768541.9914885,-3.5861,0.96138,0.8698199999999999,0.978818295,-0.020080515,0.1245114
1764768541.9914885,-3.5861,0.96138,0.8698199999999999,0.978818295,-0.020080515,0.1245114
1764768541.9914885,-3.5861,0.96138,0.8698199999999999,0.978818295,-0.020080515,0.1245114
1764768541.9914885,-3.5861,0.96138,0.8698199999999999,0.978818295,-0.020080515,0.1245114
1764768541.9914885,-3.5861,0.96138,0.8698199999999999,0.978818295,-0.020080515,0.1245114
1764768541.9914885,-3.5861,0.96138,0.8698199999999999,0.978818295,-0.020080515,0.1245114
1764768541.9914885,-3.5861,0.96138,0.8698199999999999,0.978818295,-0.020080515,0.1245114
1764768541.991959,-3.25038,1.2208,0.56462,0.978696225,-0.018859815,0.124572435
1764768541.991959,-3.25038,1.2208,0.56462,0.978696225,-0.018859815,0.124572435
1764768541.991959,-3.25038,1.2208,0.56462,0.978696225,-0.018859815,0.124572435
1764768541.991959,-3.25038,1.2208,0.56462,0.978696225,-0.018859815,0.124572435
1764768541.991959,-3.25038,1.2208,0.56462,0.978696225,-0.018859815,0.124572435
1764768541.991959,-3.25038,1.2208,0.56462,0.978696225,-0.018859815,0.124572435
1764768542.0375938,-3.25038,1.2208,0.56462,0.978696225,-0.018859815,0.124572435
1764768542.0381002,-3.25038,1.2208,0.56462,0.978696225,-0.018859815,0.124572435
1764768542.0381002,-3.25038,1.2208,0.56462,0.978696225,-0.018859815,0.124572435
1764768542.0381002,-3.25038,1.2208,0.56462,0.978696225,-0.018859815,0.124572435
1764768542.0381002,-3.60136,1.6633399999999998,0.54936,0.979550715,-0.01806636,0.124450365
1764768542.0381002,-3.60136,1.6633399999999998,0.54936,0.979550715,-0.01806636,0.124450365
1764768542.0381002,-3.60136,1.6633399999999998,0.54936,0.979550715,-0.01806636,0.124450365
1764768542.0381002,-3.60136,1.6633399999999998,0.54936,0.979550715,-0.01806636,0.124450365
1764768542.0381002,-3.60136,1.6633399999999998,0.54936,0.979550715,-0.01806636,0.124450365
1764768542.0381002,-3.60136,1.6633399999999998,0.54936,0.979550715,-0.01806636,0.124450365
1764768542.0381002,-3.60136,1.6633399999999998,0.54936,0.979550715,-0.01806636,0.124450365
1764768542.0381002,-3.60136,1.6633399999999998,0.54936,0.979550715,-0.01806636,0.124450365
1764768542.0381002,-3.60136,1.6633399999999998,0.54936,0.979550715,-0.01806636,0.124450365
1764768542.0381002,-3.60136,1.6633399999999998,0.54936,0.979550715,-0.01806636,0.124450365
1764768542.0381002,-4.07442,1.38866,0.41202,0.9790014,-0.0183105,0.1245114
1764768542.0381002,-4.07442,1.38866,0.41202,0.9790014,-0.0183105,0.1245114
1764768542.0381002,-4.07442,1.38866,0.41202,0.9790014,-0.0183105,0.1245114
1764768542.0381002,-4.07442,1.38866,0.41202,0.9790014,-0.0183105,0.1245114
1764768542.0381002,-4.07442,1.38866,0.41202,0.9790014,-0.0183105,0.1245114
1764768542.0381002,-4.07442,1.38866,0.41202,0.9790014,-0.0183105,0.1245114
1764768542.0381002,-4.07442,1.38866,0.41202,0.9790014,-0.0183105,0.1245114
1764768542.0381002,-4.07442,1.38866,0.41202,0.9790014,-0.0183105,0.1245114
1764768542.0381002,-4.07442,1.38866,0.41202,0.9790014,-0.0183105,0.1245114
1764768542.0381002,-4.07442,1.38866,0.41202,0.9790014,-0.0183105,0.1245114
1764768542.0839803,-3.72344,1.526,0.7019599999999999,0.9790014,-0.018249465,0.124206225
1764768542.0839803,-3.72344,1.526,0.7019599999999999,0.9790014,-0.018249465,0.124206225
1764768542.0839803,-3.72344,1.526,0.7019599999999999,0.9790014,-0.018249465,0.124206225
1764768542.0839803,-3.72344,1.526,0.7019599999999999,0.9790014,-0.018249465,0.124206225
1764768542.0839803,-3.72344,1.526,0.7019599999999999,0.9790014,-0.018249465,0.124206225
1764768542.0839803,-3.72344,1.526,0.7019599999999999,0.9790014,-0.018249465,0.124206225
1764768542.0839803,-3.72344,1.526,0.7019599999999999,0.9790014,-0.018249465,0.124206225
1764768542.0839803,-3.72344,1.526,0.7019599999999999,0.9790014,-0.018249465,0.124206225
1764768542.084508,-3.72344,1.526,0.7019599999999999,0.9790014,-0.018249465,0.124206225
1764768542.084508,-3.72344,1.526,0.7019599999999999,0.9790014,-0.018249465,0.124206225
1764768542.084508,-4.18124,1.78542,1.6633399999999998,0.97924554,-0.01879878,0.125182785
1764768542.084508,-4.18124,1.78542,1.6633399999999998,0.97924554,-0.01879878,0.125182785
1764768542.084508,-4.18124,1.78542,1.6633399999999998,0.97924554,-0.01879878,0.125182785
1764768542.084508,-4.18124,1.78542,1.6633399999999998,0.97924554,-0.01879878,0.125182785
1764768542.084508,-4.18124,1.78542,1.6633399999999998,0.97924554,-0.01879878,0.125182785
1764768542.084508,-4.18124,1.78542,1.6633399999999998,0.97924554,-0.01879878,0.125182785
1764768542.084508,-4.18124,1.78542,1.6633399999999998,0.97924554,-0.01879878,0.125182785
1764768542.084508,-4.18124,1.78542,1.6633399999999998,0.97924554,-0.01879878,0.125182785
1764768542.084508,-4.18124,1.78542,1.6633399999999998,0.97924554,-0.01879878,0.125182785
1764768542.084508,-4.18124,1.78542,1.6633399999999998,0.97924554,-0.01879878,0.125182785
1764768542.084508,-4.2728,1.526,1.38866,0.978574155,-0.01892085,0.1257321
1764768542.084508,-4.2728,1.526,1.38866,0.978574155,-0.01892085,0.1257321
1764768542.1305006,-4.2728,1.526,1.38866,0.978574155,-0.01892085,0.1257321
1764768542.1305006,-4.2728,1.526,1.38866,0.978574155,-0.01892085,0.1257321
1764768542.1305006,-4.2728,1.526,1.38866,0.978574155,-0.01892085,0.1257321
1764768542.1305006,-4.2728,1.526,1.38866,0.978574155,-0.01892085,0.1257321
1764768542.1305006,-4.2728,1.526,1.38866,0.978574155,-0.01892085,0.1257321
1764768542.1305006,-4.2728,1.526,1.38866,0.978574155,-0.01892085,0.1257321
1764768542.1305006,-4.2728,1.526,1.38866,0.978574155,-0.01892085,0.1257321
1764768542.1305006,-4.2728,1.526,1.38866,0.978574155,-0.01892085,0.1257321
1764768542.1305006,-3.815,1.2971,1.08346,0.97961175,-0.02014155,0.12646452
1764768542.1305006,-3.815,1.2971,1.08346,0.97961175,-0.02014155,0.12646452
1764768542.1305006,-3.815,1.2971,1.08346,0.97961175,-0.02014155,0.12646452
1764768542.1305006,-3.815,1.2971,1.08346,0.97961175,-0.02014155,0.12646452
1764768542.1315205,-3.815,1.2971,1.08346,0.97961175,-0.02014155,0.12646452
1764768542.1315205,-3.815,1.2971,1.08346,0.97961175,-0.02014155,0.12646452
1764768542.1315205,-3.815,1.2971,1.08346,0.97961175,-0.02014155,0.12646452
1764768542.1315205,-3.815,1.2971,1.08346,0.97961175,-0.02014155,0.12646452
1764768542.1315205,-3.815,1.2971,1.08346,0.97961175,-0.02014155,0.12646452
1764768542.1315205,-3.815,1.2971,1.08346,0.97961175,-0.02014155,0.12646452
1764768542.1315205,-3.29616,1.00716,1.00716,0.978574155,-0.022033635,0.127380045
1764768542.1315205,-3.29616,1.00716,1.00716,0.978574155,-0.022033635,0.127380045
1764768542.1315205,-3.29616,1.00716,1.00716,0.978574155,-0.022033635,0.127380045
1764768542.1315205,-3.29616,1.00716,1.00716,0.978574155,-0.022033635,0.127380045
1764768542.1315205,-3.29616,1.00716,1.00716,0.978574155,-0.022033635,0.127380045
1764768542.1315205,-3.29616,1.00716,1.00716,0.978574155,-0.022033635,0.127380045
1764768542.1780183,-3.29616,1.00716,1.00716,0.978574155,-0.022033635,0.127380045
1764768542.1780183,-3.29616,1.00716,1.00716,0.978574155,-0.022033635,0.127380045
1764768542.1780183,-3.29616,1.00716,1.00716,0.978574155,-0.022033635,0.127380045
1764768542.1780183,-3.29616,1.00716,1.00716,0.978574155,-0.022033635,0.127380045
1764768542.1785216,-2.91466,0.0,2.01432,0.97668207,-0.023620545,0.12792936
1764768542.1785216,-2.91466,0.0,2.01432,0.97668207,-0.023620545,0.12792936
1764768542.1785216,-2.91466,0.0,2.01432,0.97668207,-0.023620545,0.12792936
1764768542.1785216,-2.91466,0.0,2.01432,0.97668207,-0.023620545,0.12792936
1764768542.1785216,-2.91466,0.0,2.01432,0.97668207,-0.023620545,0.12792936
1764768542.1785216,-2.91466,0.0,2.01432,0.97668207,-0.023620545,0.12792936
1764768542.1785216,-2.91466,0.0,2.01432,0.97668207,-0.023620545,0.12792936
1764768542.1785216,-2.91466,0.0,2.01432,0.97668207,-0.023620545,0.12792936
1764768542.1785216,-2.91466,0.0,2.01432,0.97668207,-0.023620545,0.12792936
1764768542.1785216,-2.91466,0.0,2.01432,0.97668207,-0.023620545,0.12792936
1764768542.1785216,-2.79258,-0.41202,1.35814,0.977231385,-0.02343744,0.127380045
1764768542.1785216,-2.79258,-0.41202,1.35814,0.977231385,-0.02343744,0.127380045
1764768542.1785216,-2.79258,-0.41202,1.35814,0.977231385,-0.02343744,0.127380045
1764768542.1785216,-2.79258,-0.41202,1.35814,0.977231385,-0.02343744,0.127380045
1764768542.1785216,-2.79258,-0.41202,1.35814,0.977231385,-0.02343744,0.127380045
1764768542.1785216,-2.79258,-0.41202,1.35814,0.977231385,-0.02343744,0.127380045
1764768542.1785216,-2.79258,-0.41202,1.35814,0.977231385,-0.02343744,0.127380045
1764768542.1785216,-2.79258,-0.41202,1.35814,0.977231385,-0.02343744,0.127380045
1764768542.2247365,-2.79258,-0.41202,1.35814,0.977231385,-0.02343744,0.127380045
1764768542.225249,-2.79258,-0.41202,1.35814,0.977231385,-0.02343744,0.127380045
1764768542.225249,-3.2809,-0.42728,0.77826,0.97912347,-0.022643985,0.126403485
1764768542.225249,-3.2809,-0.42728,0.77826,0.97912347,-0.022643985,0.126403485
1764768542.225249,-3.2809,-0.42728,0.77826,0.97912347,-0.022643985,0.126403485
1764768542.225249,-3.2809,-0.42728,0.77826,0.97912347,-0.022643985,0.126403485
1764768542.225249,-3.2809,-0.42728,0.77826,0.97912347,-0.022643985,0.126403485
1764768542.225249,-3.2809,-0.42728,0.77826,0.97912347,-0.022643985,0.126403485
1764768542.225249,-3.2809,-0.42728,0.77826,0.97912347,-0.022643985,0.126403485
1764768542.225249,-3.2809,-0.42728,0.77826,0.97912347,-0.022643985,0.126403485
1764768542.225249,-3.2809,-0.42728,0.77826,0.97912347,-0.022643985,0.126403485
1764768542.225249,-3.2809,-0.42728,0.77826,0.97912347,-0.022643985,0.126403485
1764768542.225249,-3.63188,0.6714399999999999,0.65618,0.978940365,-0.02038569,0.1257321
1764768542.225249,-3.63188,0.6714399999999999,0.65618,0.978940365,-0.02038569,0.1257321
1764768542.225249,-3.63188,0.6714399999999999,0.65618,0.978940365,-0.02038569,0.1257321
1764768542.225249,-3.63188,0.6714399999999999,0.65618,0.978940365,-0.02038569,0.1257321
1764768542.225249,-3.63188,0.6714399999999999,0.65618,0.978940365,-0.02038569,0.1257321
1764768542.225249,-3.63188,0.6714399999999999,0.65618,0.978940365,-0.02038569,0.1257321
1764768542.225249,-3.63188,0.6714399999999999,0.65618,0.978940365,-0.02038569,0.1257321
1764768542.225249,-3.63188,0.6714399999999999,0.65618,0.978940365,-0.02038569,0.1257321
1764768542.225249,-3.63188,0.6714399999999999,0.65618,0.978940365,-0.02038569,0.1257321
1764768542.225249,-3.63188,0.6714399999999999,0.65618,0.978940365,-0.02038569,0.1257321
1764768542.2717383,-4.54748,0.3357199999999999,-0.03052,0.97826898,-0.017883255,0.12487761
1764768542.2717383,-4.54748,0.3357199999999999,-0.03052,0.97826898,-0.017883255,0.12487761
1764768542.2717383,-4.54748,0.3357199999999999,-0.03052,0.97826898,-0.017883255,0.12487761
1764768542.2717383,-4.54748,0.3357199999999999,-0.03052,0.97826898,-0.017883255,0.12487761
1764768542.2717383,-4.54748,0.3357199999999999,-0.03052,0.97826898,-0.017883255,0.12487761
1764768542.2717383,-4.54748,0.3357199999999999,-0.03052,0.97826898,-0.017883255,0.12487761
1764768542.2717383,-4.54748,0.3357199999999999,-0.03052,0.97826898,-0.017883255,0.12487761
1764768542.2717383,-4.54748,0.3357199999999999,-0.03052,0.97826898,-0.017883255,0.12487761
1764768542.2717383,-4.54748,0.3357199999999999,-0.03052,0.97826898,-0.017883255,0.12487761
1764768542.2717383,-4.54748,0.3357199999999999,-0.03052,0.97826898,-0.017883255,0.12487761
1764768542.2717383,-5.29522,0.74774,-0.59514,0.978330015,-0.017394975,0.124084155
1764768542.2717383,-5.29522,0.74774,-0.59514,0.978330015,-0.017394975,0.124084155
1764768542.2722466,-5.29522,0.74774,-0.59514,0.978330015,-0.017394975,0.124084155
1764768542.2722466,-5.29522,0.74774,-0.59514,0.978330015,-0.017394975,0.124084155
1764768542.2722466,-5.29522,0.74774,-0.59514,0.978330015,-0.017394975,0.124084155
1764768542.2722466,-5.29522,0.74774,-0.59514,0.978330015,-0.017394975,0.124084155
1764768542.2722466,-5.29522,0.74774,-0.59514,0.978330015,-0.017394975,0.124084155
1764768542.2722466,-5.29522,0.74774,-0.59514,0.978330015,-0.017394975,0.124084155
1764768542.2722466,-5.29522,0.74774,-0.59514,0.978330015,-0.017394975,0.124084155
1764768542.2722466,-5.29522,0.74774,-0.59514,0.978330015,-0.017394975,0.124084155
1764768542.2722466,-5.4936,1.11398,0.74774,0.979672785,-0.01879878,0.1245114
1764768542.2722466,-5.4936,1.11398,0.74774,0.979672785,-0.01879878,0.1245114
1764768542.2722466,-5.4936,1.11398,0.74774,0.979672785,-0.01879878,0.1245114
1764768542.2722466,-5.4936,1.11398,0.74774,0.979672785,-0.01879878,0.1245114
1764768542.2722466,-5.4936,1.11398,0.74774,0.979672785,-0.01879878,0.1245114
1764768542.2722466,-5.4936,1.11398,0.74774,0.979672785,-0.01879878,0.1245114
1764768542.318349,-5.4936,1.11398,0.74774,0.979672785,-0.01879878,0.1245114
1764768542.318349,-5.4936,1.11398,0.74774,0.979672785,-0.01879878,0.1245114
1764768542.318349,-5.4936,1.11398,0.74774,0.979672785,-0.01879878,0.1245114
1764768542.318349,-5.4936,1.11398,0.74774,0.979672785,-0.01879878,0.1245114
1764768542.318349,-5.21892,0.8087799999999999,0.9919,0.978574155,-0.019470165,0.124938645
1764768542.318349,-5.21892,0.8087799999999999,0.9919,0.978574155,-0.019470165,0.124938645
1764768542.318349,-5.21892,0.8087799999999999,0.9919,0.978574155,-0.019470165,0.124938645
1764768542.318349,-5.21892,0.8087799999999999,0.9919,0.978574155,-0.019470165,0.124938645
1764768542.318349,-5.21892,0.8087799999999999,0.9919,0.978574155,-0.019470165,0.124938645
1764768542.318349,-5.21892,0.8087799999999999,0.9919,0.978574155,-0.019470165,0.124938645
1764768542.318349,-5.21892,0.8087799999999999,0.9919,0.978574155,-0.019470165,0.124938645
1764768542.318349,-5.21892,0.8087799999999999,0.9919,0.978574155,-0.019470165,0.124938645
1764768542.318349,-5.21892,0.8087799999999999,0.9919,0.978574155,-0.019470165,0.124938645
1764768542.318349,-5.21892,0.8087799999999999,0.9919,0.978574155,-0.019470165,0.124938645
1764768542.318349,-4.63904,0.79352,0.7019599999999999,0.979306575,-0.020446725,0.12499968
1764768542.318349,-4.63904,0.79352,0.7019599999999999,0.979306575,-0.020446725,0.12499968
1764768542.318349,-4.63904,0.79352,0.7019599999999999,0.979306575,-0.020446725,0.12499968
1764768542.318349,-4.63904,0.79352,0.7019599999999999,0.979306575,-0.020446725,0.12499968
1764768542.318349,-4.63904,0.79352,0.7019599999999999,0.979306575,-0.020446725,0.12499968
1764768542.318349,-4.63904,0.79352,0.7019599999999999,0.979306575,-0.020446725,0.12499968
1764768542.318349,-4.63904,0.79352,0.7019599999999999,0.979306575,-0.020446725,0.12499968
1764768542.318349,-4.63904,0.79352,0.7019599999999999,0.979306575,-0.020446725,0.12499968
1764768542.3657656,-4.63904,0.79352,0.7019599999999999,0.979306575,-0.020446725,0.12499968
1764768542.3657656,-4.63904,0.79352,0.7019599999999999,0.979306575,-0.020446725,0.12499968
1764768542.3657656,-3.79974,0.5341,0.79352,0.979550715,-0.021301215,0.125426925
1764768542.3657656,-3.79974,0.5341,0.79352,0.979550715,-0.021301215,0.125426925
1764768542.3657656,-3.79974,0.5341,0.79352,0.979550715,-0.021301215,0.125426925
1764768542.3657656,-3.79974,0.5341,0.79352,0.979550715,-0.021301215,0.125426925
1764768542.3657656,-3.79974,0.5341,0.79352,0.979550715,-0.021301215,0.125426925
1764768542.3657656,-3.79974,0.5341,0.79352,0.979550715,-0.021301215,0.125426925
1764768542.3657656,-3.79974,0.5341,0.79352,0.979550715,-0.021301215,0.125426925
1764768542.3657656,-3.79974,0.5341,0.79352,0.979550715,-0.021301215,0.125426925
1764768542.3657656,-3.79974,0.5341,0.79352,0.979550715,-0.021301215,0.125426925
1764768542.3657656,-3.79974,0.5341,0.79352,0.979550715,-0.021301215,0.125426925
1764768542.3657656,-3.69292,0.09156,1.12924,0.978818295,-0.020690865,0.12561003
1764768542.3657656,-3.69292,0.09156,1.12924,0.978818295,-0.020690865,0.12561003
1764768542.3657656,-3.69292,0.09156,1.12924,0.978818295,-0.020690865,0.12561003
1764768542.3657656,-3.69292,0.09156,1.12924,0.978818295,-0.020690865,0.12561003
1764768542.3657656,-3.69292,0.09156,1.12924,0.978818295,-0.020690865,0.12561003
1764768542.3657656,-3.69292,0.09156,1.12924,0.978818295,-0.020690865,0.12561003
1764768542.3662715,-3.69292,0.09156,1.12924,0.978818295,-0.020690865,0.12561003
1764768542.3662715,-3.69292,0.09156,1.12924,0.978818295,-0.020690865,0.12561003
1764768542.3662715,-3.69292,0.09156,1.12924,0.978818295,-0.020690865,0.12561003
1764768542.3662715,-3.69292,0.09156,1.12924,0.978818295,-0.020690865,0.12561003
1764768542.3662715,-4.0439,0.3509799999999999,1.26658,0.979062435,-0.018981885,0.124572435
1764768542.3662715,-4.0439,0.3509799999999999,1.26658,0.979062435,-0.018981885,0.124572435
1764768542.4132662,-4.0439,0.3509799999999999,1.26658,0.979062435,-0.018981885,0.124572435
1764768542.4132662,-4.0439,0.3509799999999999,1.26658,0.979062435,-0.018981885,0.124572435
1764768542.4132662,-4.0439,0.3509799999999999,1.26658,0.979062435,-0.018981885,0.124572435
1764768542.4132662,-4.0439,0.3509799999999999,1.26658,0.979062435,-0.018981885,0.124572435
1764768542.4138,-4.0439,0.3509799999999999,1.26658,0.979062435,-0.018981885,0.124572435
1764768542.4138,-4.0439,0.3509799999999999,1.26658,0.979062435,-0.018981885,0.124572435
1764768542.4138,-4.0439,0.3509799999999999,1.26658,0.979062435,-0.018981885,0.124572435
1764768542.4138,-4.0439,0.3509799999999999,1.26658,0.979062435,-0.018981885,0.124572435
1764768542.4138,-4.4254,0.41202,1.8006799999999998,0.97826898,-0.017517045,0.123840015
1764768542.4138,-4.4254,0.41202,1.8006799999999998,0.97826898,-0.017517045,0.123840015
1764768542.4138,-4.4254,0.41202,1.8006799999999998,0.97826898,-0.017517045,0.123840015
1764768542.4138,-4.4254,0.41202,1.8006799999999998,0.97826898,-0.017517045,0.123840015
1764768542.4138,-4.4254,0.41202,1.8006799999999998,0.97826898,-0.017517045,0.123840015
1764768542.4138,-4.4254,0.41202,1.8006799999999998,0.97826898,-0.017517045,0.123840015
1764768542.4138,-4.4254,0.41202,1.8006799999999998,0.97826898,-0.017517045,0.123840015
1764768542.4138,-4.4254,0.41202,1.8006799999999998,0.97826898,-0.017517045,0.123840015
1764768542.4138,-4.4254,0.41202,1.8006799999999998,0.97826898,-0.017517045,0.123840015
1764768542.4138,-4.4254,0.41202,1.8006799999999998,0.97826898,-0.017517045,0.123840015
1764768542.4138,-4.3491,0.39676,2.9757,0.97741449,-0.017883255,0.12268035
1764768542.4138,-4.3491,0.39676,2.9757,0.97741449,-0.017883255,0.12268035
1764768542.4138,-4.3491,0.39676,2.9757,0.97741449,-0.017883255,0.12268035
1764768542.4138,-4.3491,0.39676,2.9757,0.97741449,-0.017883255,0.12268035
1764768542.4571514,-4.3491,0.39676,2.9757,0.97741449,-0.017883255,0.12268035
1764768542.4571514,-4.3491,0.39676,2.9757,0.97741449,-0.017883255,0.12268035
1764768542.45766,-4.3491,0.39676,2.9757,0.97741449,-0.017883255,0.12268035
1764768542.45766,-4.3491,0.39676,2.9757,0.97741449,-0.017883255,0.12268035
1764768542.45766,-4.3491,0.39676,2.9757,0.97741449,-0.017883255,0.12268035
1764768542.45766,-4.3491,0.39676,2.9757,0.97741449,-0.017883255,0.12268035
1764768542.45766,-4.45592,0.13734,3.34194,0.977719665,-0.020202585,0.122008965
1764768542.45766,-4.45592,0.13734,3.34194,0.977719665,-0.020202585,0.122008965
1764768542.45766,-4.45592,0.13734,3.34194,0.977719665,-0.020202585,0.122008965
1764768542.45766,-4.45592,0.13734,3.34194,0.977719665,-0.020202585,0.122008965
1764768542.45766,-4.45592,0.13734,3.34194,0.977719665,-0.020202585,0.122008965
1764768542.45766,-4.45592,0.13734,3.34194,0.977719665,-0.020202585,0.122008965
1764768542.45766,-4.45592,0.13734,3.34194,0.977719665,-0.020202585,0.122008965
1764768542.45766,-4.45592,0.13734,3.34194,0.977719665,-0.020202585,0.122008965
1764768542.45766,-4.45592,0.13734,3.34194,0.977719665,-0.020202585,0.122008965
1764768542.45766,-4.45592,0.13734,3.34194,0.977719665,-0.020202585,0.122008965
1764768542.45766,-4.22702,0.42728,3.57084,0.978085875,-0.0231933,0.121764825
1764768542.45766,-4.22702,0.42728,3.57084,0.978085875,-0.0231933,0.121764825
1764768542.45766,-4.22702,0.42728,3.57084,0.978085875,-0.0231933,0.121764825
1764768542.45766,-4.22702,0.42728,3.57084,0.978085875,-0.0231933,0.121764825
1764768542.45766,-4.22702,0.42728,3.57084,0.978085875,-0.0231933,0.121764825
1764768542.45766,-4.22702,0.42728,3.57084,0.978085875,-0.0231933,0.121764825
1764768542.45766,-4.22702,0.42728,3.57084,0.978085875,-0.0231933,0.121764825
1764768542.45766,-4.22702,0.42728,3.57084,0.978085875,-0.0231933,0.121764825
1764768542.5059252,-4.22702,0.42728,3.57084,0.978085875,-0.0231933,0.121764825
1764768542.5059252,-4.22702,0.42728,3.57084,0.978085875,-0.0231933,0.121764825
1764768542.5059252,-3.11304,0.74774,2.83836,0.97973382,-0.025085385,0.121520685
1764768542.5059252,-3.11304,0.74774,2.83836,0.97973382,-0.025085385,0.121520685
1764768542.5059252,-3.11304,0.74774,2.83836,0.97973382,-0.025085385,0.121520685
1764768542.5059252,-3.11304,0.74774,2.83836,0.97973382,-0.025085385,0.121520685
1764768542.5059252,-3.11304,0.74774,2.83836,0.97973382,-0.025085385,0.121520685
1764768542.5059252,-3.11304,0.74774,2.83836,0.97973382,-0.025085385,0.121520685
1764768542.5059252,-3.11304,0.74774,2.83836,0.97973382,-0.025085385,0.121520685
1764768542.5059252,-3.11304,0.74774,2.83836,0.97973382,-0.025085385,0.121520685
1764768542.5059252,-3.11304,0.74774,2.83836,0.97973382,-0.025085385,0.121520685
1764768542.5059252,-3.11304,0.74774,2.83836,0.97973382,-0.025085385,0.121520685
1764768542.5059252,-3.09778,1.35814,1.92276,0.980771415,-0.025939875,0.12158172
1764768542.5059252,-3.09778,1.35814,1.92276,0.980771415,-0.025939875,0.12158172
1764768542.5059252,-3.09778,1.35814,1.92276,0.980771415,-0.025939875,0.12158172
1764768542.5059252,-3.09778,1.35814,1.92276,0.980771415,-0.025939875,0.12158172
1764768542.5059252,-3.09778,1.35814,1.92276,0.980771415,-0.025939875,0.12158172
1764768542.5059252,-3.09778,1.35814,1.92276,0.980771415,-0.025939875,0.12158172
1764768542.5059252,-3.09778,1.35814,1.92276,0.980771415,-0.025939875,0.12158172
1764768542.5059252,-3.09778,1.35814,1.92276,0.980771415,-0.025939875,0.12158172
1764768542.5059252,-3.09778,1.35814,1.92276,0.980771415,-0.025939875,0.12158172
1764768542.5059252,-3.09778,1.35814,1.92276,0.980771415,-0.025939875,0.12158172
1764768542.5059252,-2.68576,1.57178,0.93086,0.981259695,-0.02575677,0.121520685
1764768542.5059252,-2.68576,1.57178,0.93086,0.981259695,-0.02575677,0.121520685
1764768542.5531747,-2.68576,1.57178,0.93086,0.981259695,-0.02575677,0.121520685
1764768542.5531747,-2.68576,1.57178,0.93086,0.981259695,-0.02575677,0.121520685
1764768542.5531747,-2.68576,1.57178,0.93086,0.981259695,-0.02575677,0.121520685
1764768542.5531747,-2.68576,1.57178,0.93086,0.981259695,-0.02575677,0.121520685
1764768542.5531747,-2.68576,1.57178,0.93086,0.981259695,-0.02575677,0.121520685
1764768542.5531747,-2.68576,1.57178,0.93086,0.981259695,-0.02575677,0.121520685
1764768542.5531747,-2.68576,1.57178,0.93086,0.981259695,-0.02575677,0.121520685
1764768542.5535498,-2.68576,1.57178,0.93086,0.981259695,-0.02575677,0.121520685
1764768542.5535498,-2.80784,2.0601,0.74774,0.981503835,-0.024230895,0.122008965
1764768542.5535498,-2.80784,2.0601,0.74774,0.981503835,-0.024230895,0.122008965
1764768542.5535498,-2.80784,2.0601,0.74774,0.981503835,-0.024230895,0.122008965
1764768542.5535498,-2.80784,2.0601,0.74774,0.981503835,-0.024230895,0.122008965
1764768542.5535498,-2.80784,2.0601,0.74774,0.981503835,-0.024230895,0.122008965
1764768542.5535498,-2.80784,2.0601,0.74774,0.981503835,-0.024230895,0.122008965
1764768542.5535498,-2.80784,2.0601,0.74774,0.981503835,-0.024230895,0.122008965
1764768542.5535498,-2.80784,2.0601,0.74774,0.981503835,-0.024230895,0.122008965
1764768542.5535498,-2.80784,2.0601,0.74774,0.981503835,-0.024230895,0.122008965
1764768542.5535498,-2.80784,2.0601,0.74774,0.981503835,-0.024230895,0.122008965
1764768542.5535498,-3.44876,1.9838,0.42728,0.979916925,-0.023132265,0.12243621
1764768542.5535498,-3.44876,1.9838,0.42728,0.979916925,-0.023132265,0.12243621
1764768542.5535498,-3.44876,1.9838,0.42728,0.979916925,-0.023132265,0.12243621
1764768542.5535498,-3.44876,1.9838,0.42728,0.979916925,-0.023132265,0.12243621
1764768542.5535498,-3.44876,1.9838,0.42728,0.979916925,-0.023132265,0.12243621
1764768542.5535498,-3.44876,1.9838,0.42728,0.979916925,-0.023132265,0.12243621
1764768542.6000426,-3.44876,1.9838,0.42728,0.979916925,-0.023132265,0.12243621
1764768542.6000426,-3.44876,1.9838,0.42728,0.979916925,-0.023132265,0.12243621
1764768542.6000426,-3.44876,1.9838,0.42728,0.979916925,-0.023132265,0.12243621
1764768542.6000426,-3.44876,1.9838,0.42728,0.979916925,-0.023132265,0.12243621
1764768542.6000426,-4.08968,1.72438,0.62566,0.979184505,-0.02221674,0.12304656
1764768542.6000426,-4.08968,1.72438,0.62566,0.979184505,-0.02221674,0.12304656
1764768542.6000426,-4.08968,1.72438,0.62566,0.979184505,-0.02221674,0.12304656
1764768542.6000426,-4.08968,1.72438,0.62566,0.979184505,-0.02221674,0.12304656
1764768542.6000426,-4.08968,1.72438,0.62566,0.979184505,-0.02221674,0.12304656
1764768542.6000426,-4.08968,1.72438,0.62566,0.979184505,-0.02221674,0.12304656
1764768542.6000426,-4.08968,1.72438,0.62566,0.979184505,-0.02221674,0.12304656
1764768542.6000426,-4.08968,1.72438,0.62566,0.979184505,-0.02221674,0.12304656
1764768542.6000426,-4.08968,1.72438,0.62566,0.979184505,-0.02221674,0.12304656
1764768542.6000426,-4.08968,1.72438,0.62566,0.979184505,-0.02221674,0.12304656
1764768542.6000426,-4.21176,1.2055399999999998,0.41202,0.978574155,-0.021911565,0.12402312
1764768542.6000426,-4.21176,1.2055399999999998,0.41202,0.978574155,-0.021911565,0.12402312
1764768542.6000426,-4.21176,1.2055399999999998,0.41202,0.978574155,-0.021911565,0.12402312
1764768542.6000426,-4.21176,1.2055399999999998,0.41202,0.978574155,-0.021911565,0.12402312
1764768542.6000426,-4.21176,1.2055399999999998,0.41202,0.978574155,-0.021911565,0.12402312
1764768542.6000426,-4.21176,1.2055399999999998,0.41202,0.978574155,-0.021911565,0.12402312
1764768542.6469543,-4.21176,1.2055399999999998,0.41202,0.978574155,-0.021911565,0.12402312
1764768542.6469543,-4.21176,1.2055399999999998,0.41202,0.978574155,-0.021911565,0.12402312
1764768542.6469543,-4.21176,1.2055399999999998,0.41202,0.978574155,-0.021911565,0.12402312
1764768542.6469543,-4.21176,1.2055399999999998,0.41202,0.978574155,-0.021911565,0.12402312
1764768542.6469543,-4.47118,1.43444,0.3051999999999999,0.978207945,-0.021667425,0.124450365
1764768542.6469543,-4.47118,1.43444,0.3051999999999999,0.978207945,-0.021667425,0.124450365
1764768542.6469543,-4.47118,1.43444,0.3051999999999999,0.978207945,-0.021667425,0.124450365
1764768542.6469543,-4.47118,1.43444,0.3051999999999999,0.978207945,-0.021667425,0.124450365
1764768542.6469543,-4.47118,1.43444,0.3051999999999999,0.978207945,-0.021667425,0.124450365
1764768542.6469543,-4.47118,1.43444,0.3051999999999999,0.978207945,-0.021667425,0.124450365
1764768542.6469543,-4.47118,1.43444,0.3051999999999999,0.978207945,-0.021667425,0.124450365
1764768542.6469543,-4.47118,1.43444,0.3051999999999999,0.978207945,-0.021667425,0.124450365
1764768542.6469543,-4.47118,1.43444,0.3051999999999999,0.978207945,-0.021667425,0.124450365
1764768542.6469543,-4.47118,1.43444,0.3051999999999999,0.978207945,-0.021667425,0.124450365
1764768542.6469543,-4.15072,1.28184,0.73248,0.97875726,-0.02282709,0.124816575
1764768542.6469543,-4.15072,1.28184,0.73248,0.97875726,-0.02282709,0.124816575
1764768542.6469543,-4.15072,1.28184,0.73248,0.97875726,-0.02282709,0.124816575
1764768542.6469543,-4.15072,1.28184,0.73248,0.97875726,-0.02282709,0.124816575
1764768542.6469543,-4.15072,1.28184,0.73248,0.97875726,-0.02282709,0.124816575
1764768542.6469543,-4.15072,1.28184,0.73248,0.97875726,-0.02282709,0.124816575
1764768542.6469543,-4.15072,1.28184,0.73248,0.97875726,-0.02282709,0.124816575
1764768542.6469543,-4.15072,1.28184,0.73248,0.97875726,-0.02282709,0.124816575
1764768542.6469543,-4.15072,1.28184,0.73248,0.97875726,-0.02282709,0.124816575
1764768542.6469543,-4.15072,1.28184,0.73248,0.97875726,-0.02282709,0.124816575
1764768542.6469543,-3.64714,1.9075,0.6867,0.97936761,-0.02368158,0.12475554
1764768542.6469543,-3.64714,1.9075,0.6867,0.97936761,-0.02368158,0.12475554
1764768542.647644,-3.64714,1.9075,0.6867,0.97936761,-0.02368158,0.12475554
1764768542.647644,-3.64714,1.9075,0.6867,0.97936761,-0.02368158,0.12475554
1764768542.6940918,-3.64714,1.9075,0.6867,0.97936761,-0.02368158,0.12475554
1764768542.6940918,-3.64714,1.9075,0.6867,0.97936761,-0.02368158,0.12475554
1764768542.6940918,-3.64714,1.9075,0.6867,0.97936761,-0.02368158,0.12475554
1764768542.6940918,-3.64714,1.9075,0.6867,0.97936761,-0.02368158,0.12475554
1764768542.6940918,-3.64714,1.9075,0.6867,0.97936761,-0.02368158,0.12475554
1764768542.6940918,-3.64714,1.9075,0.6867,0.97936761,-0.02368158,0.12475554
1764768542.6940918,-2.9757,1.55652,0.73248,0.979062435,-0.02392572,0.125548995
1764768542.6940918,-2.9757,1.55652,0.73248,0.979062435,-0.02392572,0.125548995
1764768542.6940918,-2.9757,1.55652,0.73248,0.979062435,-0.02392572,0.125548995
1764768542.6940918,-2.9757,1.55652,0.73248,0.979062435,-0.02392572,0.125548995
1764768542.6940918,-2.9757,1.55652,0.73248,0.979062435,-0.02392572,0.125548995
1764768542.6940918,-2.9757,1.55652,0.73248,0.979062435,-0.02392572,0.125548995
1764768542.6940918,-2.9757,1.55652,0.73248,0.979062435,-0.02392572,0.125548995
1764768542.6940918,-2.9757,1.55652,0.73248,0.979062435,-0.02392572,0.125548995
1764768542.6940918,-2.9757,1.55652,0.73248,0.979062435,-0.02392572,0.125548995
1764768542.6940918,-2.9757,1.55652,0.73248,0.979062435,-0.02392572,0.125548995
1764768542.6940918,-2.91466,1.51074,0.88508,0.979916925,-0.023376405,0.12512175
1764768542.6940918,-2.91466,1.51074,0.88508,0.979916925,-0.023376405,0.12512175
1764768542.6940918,-2.91466,1.51074,0.88508,0.979916925,-0.023376405,0.12512175
1764768542.6940918,-2.91466,1.51074,0.88508,0.979916925,-0.023376405,0.12512175
1764768542.6940918,-2.91466,1.51074,0.88508,0.979916925,-0.023376405,0.12512175
1764768542.6940918,-2.91466,1.51074,0.88508,0.979916925,-0.023376405,0.12512175
1764768542.7408082,-2.91466,1.51074,0.88508,0.979916925,-0.023376405,0.12512175
1764768542.7408082,-2.91466,1.51074,0.88508,0.979916925,-0.023376405,0.12512175
1764768542.7408082,-2.91466,1.51074,0.88508,0.979916925,-0.023376405,0.12512175
1764768542.7408082,-2.91466,1.51074,0.88508,0.979916925,-0.023376405,0.12512175
1764768542.7408082,-3.08252,1.38866,1.19028,0.979672785,-0.02331537,0.125304855
1764768542.7408082,-3.08252,1.38866,1.19028,0.979672785,-0.02331537,0.125304855
1764768542.7408082,-3.08252,1.38866,1.19028,0.979672785,-0.02331537,0.125304855
1764768542.7408082,-3.08252,1.38866,1.19028,0.979672785,-0.02331537,0.125304855
1764768542.7408082,-3.08252,1.38866,1.19028,0.979672785,-0.02331537,0.125304855
1764768542.7408082,-3.08252,1.38866,1.19028,0.979672785,-0.02331537,0.125304855
1764768542.7408082,-3.08252,1.38866,1.19028,0.979672785,-0.02331537,0.125304855
1764768542.7408082,-3.08252,1.38866,1.19028,0.979672785,-0.02331537,0.125304855
1764768542.7408082,-3.08252,1.38866,1.19028,0.979672785,-0.02331537,0.125304855
1764768542.7408082,-3.08252,1.38866,1.19028,0.979672785,-0.02331537,0.125304855
1764768542.7408082,-3.15882,1.41918,1.31236,0.978940365,-0.0231933,0.125304855
1764768542.7408082,-3.15882,1.41918,1.31236,0.978940365,-0.0231933,0.125304855
1764768542.7408082,-3.15882,1.41918,1.31236,0.978940365,-0.0231933,0.125304855
1764768542.7408082,-3.15882,1.41918,1.31236,0.978940365,-0.0231933,0.125304855
1764768542.7408082,-3.15882,1.41918,1.31236,0.978940365,-0.0231933,0.125304855
1764768542.7408082,-3.15882,1.41918,1.31236,0.978940365,-0.0231933,0.125304855
1764768542.7408082,-3.15882,1.41918,1.31236,0.978940365,-0.0231933,0.125304855
1764768542.7408082,-3.15882,1.41918,1.31236,0.978940365,-0.0231933,0.125304855
1764768542.7408082,-3.15882,1.41918,1.31236,0.978940365,-0.0231933,0.125304855
1764768542.7408082,-3.15882,1.41918,1.31236,0.978940365,-0.0231933,0.125304855
1764768542.7870927,-3.38772,1.4497,1.55652,0.977231385,-0.023254335,0.125548995
1764768542.7870927,-3.38772,1.4497,1.55652,0.977231385,-0.023254335,0.125548995
1764768542.7870927,-3.38772,1.4497,1.55652,0.977231385,-0.023254335,0.125548995
1764768542.7870927,-3.38772,1.4497,1.55652,0.977231385,-0.023254335,0.125548995
1764768542.787599,-3.38772,1.4497,1.55652,0.977231385,-0.023254335,0.125548995
1764768542.787599,-3.38772,1.4497,1.55652,0.977231385,-0.023254335,0.125548995
1764768542.787599,-3.38772,1.4497,1.55652,0.977231385,-0.023254335,0.125548995
1764768542.787599,-3.38772,1.4497,1.55652,0.977231385,-0.023254335,0.125548995
1764768542.787599,-3.38772,1.4497,1.55652,0.977231385,-0.023254335,0.125548995
1764768542.787599,-3.38772,1.4497,1.55652,0.977231385,-0.023254335,0.125548995
1764768542.787599,-3.11304,1.84646,1.11398,0.97790277,-0.02246088,0.124694505
1764768542.787599,-3.11304,1.84646,1.11398,0.97790277,-0.02246088,0.124694505
1764768542.787599,-3.11304,1.84646,1.11398,0.97790277,-0.02246088,0.124694505
1764768542.787599,-3.11304,1.84646,1.11398,0.97790277,-0.02246088,0.124694505
1764768542.787599,-3.11304,1.84646,1.11398,0.97790277,-0.02246088,0.124694505
1764768542.787599,-3.11304,1.84646,1.11398,0.97790277,-0.02246088,0.124694505
1764768542.787599,-3.11304,1.84646,1.11398,0.97790277,-0.02246088,0.124694505
1764768542.787599,-3.11304,1.84646,1.11398,0.97790277,-0.02246088,0.124694505
1764768542.787599,-3.11304,1.84646,1.11398,0.97790277,-0.02246088,0.124694505
1764768542.787599,-3.11304,1.84646,1.11398,0.97790277,-0.02246088,0.124694505
1764768542.787599,-3.5098,1.8312,0.42728,0.978696225,-0.02185053,0.12426726
1764768542.787599,-3.5098,1.8312,0.42728,0.978696225,-0.02185053,0.12426726
1764768542.787599,-3.5098,1.8312,0.42728,0.978696225,-0.02185053,0.12426726
1764768542.787599,-3.5098,1.8312,0.42728,0.978696225,-0.02185053,0.12426726
1764768542.8313243,-3.5098,1.8312,0.42728,0.978696225,-0.02185053,0.12426726
1764768542.8313243,-3.5098,1.8312,0.42728,0.978696225,-0.02185053,0.12426726
1764768542.8313243,-3.5098,1.8312,0.42728,0.978696225,-0.02185053,0.12426726
1764768542.8313243,-3.5098,1.8312,0.42728,0.978696225,-0.02185053,0.12426726
1764768542.8313243,-3.5098,1.8312,0.42728,0.978696225,-0.02185053,0.12426726
1764768542.8313243,-3.5098,1.8312,0.42728,0.978696225,-0.02185053,0.12426726
1764768542.8313243,-3.8913,1.63282,0.88508,0.977963805,-0.02172846,0.125304855
1764768542.8313243,-3.8913,1.63282,0.88508,0.977963805,-0.02172846,0.125304855
1764768542.831844,-3.8913,1.63282,0.88508,0.977963805,-0.02172846,0.125304855
1764768542.831844,-3.8913,1.63282,0.88508,0.977963805,-0.02172846,0.125304855
1764768542.831844,-3.8913,1.63282,0.88508,0.977963805,-0.02172846,0.125304855
1764768542.831844,-3.8913,1.63282,0.88508,0.977963805,-0.02172846,0.125304855
1764768542.831844,-3.8913,1.63282,0.88508,0.977963805,-0.02172846,0.125304855
1764768542.831844,-3.8913,1.63282,0.88508,0.977963805,-0.02172846,0.125304855
1764768542.831844,-3.8913,1.63282,0.88508,0.977963805,-0.02172846,0.125304855
1764768542.831844,-3.8913,1.63282,0.88508,0.977963805,-0.02172846,0.125304855
1764768542.831844,-3.7387,1.61756,1.61756,0.977353455,-0.02307123,0.12548796
1764768542.831844,-3.7387,1.61756,1.61756,0.977353455,-0.02307123,0.12548796
1764768542.831844,-3.7387,1.61756,1.61756,0.977353455,-0.02307123,0.12548796
1764768542.8328347,-3.7387,1.61756,1.61756,0.977353455,-0.02307123,0.12548796
1764768542.878725,-3.7387,1.61756,1.61756,0.977353455,-0.02307123,0.12548796
1764768542.878725,-3.7387,1.61756,1.61756,0.977353455,-0.02307123,0.12548796
1764768542.878725,-3.7387,1.61756,1.61756,0.977353455,-0.02307123,0.12548796
1764768542.878725,-3.7387,1.61756,1.61756,0.977353455,-0.02307123,0.12548796
1764768542.878725,-3.7387,1.61756,1.61756,0.977353455,-0.02307123,0.12548796
1764768542.878725,-3.7387,1.61756,1.61756,0.977353455,-0.02307123,0.12548796
1764768542.878725,-3.69292,1.32762,1.81594,0.97839105,-0.023498475,0.126403485
1764768542.878725,-3.69292,1.32762,1.81594,0.97839105,-0.023498475,0.126403485
1764768542.8797364,-3.69292,1.32762,1.81594,0.97839105,-0.023498475,0.126403485
1764768542.8797364,-3.69292,1.32762,1.81594,0.97839105,-0.023498475,0.126403485
1764768542.8797364,-3.69292,1.32762,1.81594,0.97839105,-0.023498475,0.126403485
1764768542.8797364,-3.69292,1.32762,1.81594,0.97839105,-0.023498475,0.126403485
1764768542.8797364,-3.69292,1.32762,1.81594,0.97839105,-0.023498475,0.126403485
1764768542.8797364,-3.69292,1.32762,1.81594,0.97839105,-0.023498475,0.126403485
1764768542.8797364,-3.69292,1.32762,1.81594,0.97839105,-0.023498475,0.126403485
1764768542.8797364,-3.69292,1.32762,1.81594,0.97839105,-0.023498475,0.126403485
1764768542.8797364,-3.52506,1.32762,1.17502,0.977353455,-0.02294916,0.12658659
1764768542.8797364,-3.52506,1.32762,1.17502,0.977353455,-0.02294916,0.12658659
1764768542.8797364,-3.52506,1.32762,1.17502,0.977353455,-0.02294916,0.12658659
1764768542.8797364,-3.52506,1.32762,1.17502,0.977353455,-0.02294916,0.12658659
1764768542.8797364,-3.52506,1.32762,1.17502,0.977353455,-0.02294916,0.12658659
1764768542.8797364,-3.52506,1.32762,1.17502,0.977353455,-0.02294916,0.12658659
1764768542.8797364,-3.52506,1.32762,1.17502,0.977353455,-0.02294916,0.12658659
1764768542.8797364,-3.52506,1.32762,1.17502,0.977353455,-0.02294916,0.12658659
1764768542.8797364,-3.52506,1.32762,1.17502,0.977353455,-0.02294916,0.12658659
1764768542.8797364,-3.52506,1.32762,1.17502,0.977353455,-0.02294916,0.12658659
1764768542.9269614,-3.86078,0.82404,1.57178,0.97851312,-0.02307123,0.127135905
1764768542.9269614,-3.86078,0.82404,1.57178,0.97851312,-0.02307123,0.127135905
1764768542.9269614,-3.86078,0.82404,1.57178,0.97851312,-0.02307123,0.127135905
1764768542.9269614,-3.86078,0.82404,1.57178,0.97851312,-0.02307123,0.127135905
1764768542.9269614,-3.86078,0.82404,1.57178,0.97851312,-0.02307123,0.127135905
1764768542.9269614,-3.86078,0.82404,1.57178,0.97851312,-0.02307123,0.127135905
1764768542.9269614,-3.86078,0.82404,1.57178,0.97851312,-0.02307123,0.127135905
1764768542.9269614,-3.86078,0.82404,1.57178,0.97851312,-0.02307123,0.127135905
1764768542.9269614,-3.86078,0.82404,1.57178,0.97851312,-0.02307123,0.127135905
1764768542.9269614,-3.86078,0.82404,1.57178,0.97851312,-0.02307123,0.127135905
1764768542.9269614,-3.6624,0.62566,2.0601,0.97851312,-0.024230895,0.127135905
1764768542.9269614,-3.6624,0.62566,2.0601,0.97851312,-0.024230895,0.127135905
1764768542.9269614,-3.6624,0.62566,2.0601,0.97851312,-0.024230895,0.127135905
1764768542.9269614,-3.6624,0.62566,2.0601,0.97851312,-0.024230895,0.127135905
1764768542.9269614,-3.6624,0.62566,2.0601,0.97851312,-0.024230895,0.127135905
1764768542.9269614,-3.6624,0.62566,2.0601,0.97851312,-0.024230895,0.127135905
1764768542.9269614,-3.6624,0.62566,2.0601,0.97851312,-0.024230895,0.127135905
1764768542.9269614,-3.6624,0.62566,2.0601,0.97851312,-0.024230895,0.127135905
1764768542.9269614,-3.6624,0.62566,2.0601,0.97851312,-0.024230895,0.127135905
1764768542.9269614,-3.6624,0.62566,2.0601,0.97851312,-0.024230895,0.127135905
1764768542.9269614,-3.34194,0.09156,2.65524,0.976010685,-0.02636712,0.126525555
1764768542.9269614,-3.34194,0.09156,2.65524,0.976010685,-0.02636712,0.126525555
1764768542.9728546,-3.34194,0.09156,2.65524,0.976010685,-0.02636712,0.126525555
1764768542.9728546,-3.34194,0.09156,2.65524,0.976010685,-0.02636712,0.126525555
1764768542.9728546,-3.34194,0.09156,2.65524,0.976010685,-0.02636712,0.126525555
1764768542.9728546,-3.34194,0.09156,2.65524,0.976010685,-0.02636712,0.126525555
1764768542.9728546,-3.34194,0.09156,2.65524,0.976010685,-0.02636712,0.126525555
1764768542.9728546,-3.34194,0.09156,2.65524,0.976010685,-0.02636712,0.126525555
1764768542.9728546,-3.34194,0.09156,2.65524,0.976010685,-0.02636712,0.126525555
1764768542.9728546,-3.34194,0.09156,2.65524,0.976010685,-0.02636712,0.126525555
1764768542.9728546,-2.92992,-0.3051999999999999,1.96854,0.978085875,-0.026184015,0.12548796
1764768542.9728546,-2.92992,-0.3051999999999999,1.96854,0.978085875,-0.026184015,0.12548796
1764768542.9728546,-2.92992,-0.3051999999999999,1.96854,0.978085875,-0.026184015,0.12548796
1764768542.9728546,-2.92992,-0.3051999999999999,1.96854,0.978085875,-0.026184015,0.12548796
1764768542.9728546,-2.92992,-0.3051999999999999,1.96854,0.978085875,-0.026184015,0.12548796
1764768542.9728546,-2.92992,-0.3051999999999999,1.96854,0.978085875,-0.026184015,0.12548796
1764768542.9728546,-2.92992,-0.3051999999999999,1.96854,0.978085875,-0.026184015,0.12548796
1764768542.9728546,-2.92992,-0.3051999999999999,1.96854,0.978085875,-0.026184015,0.12548796
1764768542.9728546,-2.92992,-0.3051999999999999,1.96854,0.978085875,-0.026184015,0.12548796
1764768542.9728546,-2.92992,-0.3051999999999999,1.96854,0.978085875,-0.026184015,0.12548796
1764768542.9728546,-3.03674,0.8392999999999999,0.62566,0.981747975,-0.026184015,0.124572435
1764768542.9728546,-3.03674,0.8392999999999999,0.62566,0.981747975,-0.026184015,0.124572435
1764768542.9728546,-3.03674,0.8392999999999999,0.62566,0.981747975,-0.026184015,0.124572435
1764768542.9728546,-3.03674,0.8392999999999999,0.62566,0.981747975,-0.026184015,0.124572435
1764768542.9745908,-3.03674,0.8392999999999999,0.62566,0.981747975,-0.026184015,0.124572435
1764768542.9745908,-3.03674,0.8392999999999999,0.62566,0.981747975,-0.026184015,0.124572435
1764768543.020387,-3.03674,0.8392999999999999,0.62566,0.981747975,-0.026184015,0.124572435
1764768543.020387,-3.03674,0.8392999999999999,0.62566,0.981747975,-0.026184015,0.124572435
1764768543.020387,-3.03674,0.8392999999999999,0.62566,0.981747975,-0.026184015,0.124572435
1764768543.020387,-3.03674,0.8392999999999999,0.62566,0.981747975,-0.026184015,0.124572435
1764768543.020387,-3.34194,1.9838,0.42728,0.981015555,-0.025207455,0.124816575
1764768543.020387,-3.34194,1.9838,0.42728,0.981015555,-0.025207455,0.124816575
1764768543.020387,-3.34194,1.9838,0.42728,0.981015555,-0.025207455,0.124816575
1764768543.020387,-3.34194,1.9838,0.42728,0.981015555,-0.025207455,0.124816575
1764768543.020387,-3.34194,1.9838,0.42728,0.981015555,-0.025207455,0.124816575
1764768543.020387,-3.34194,1.9838,0.42728,0.981015555,-0.025207455,0.124816575
1764768543.020387,-3.34194,1.9838,0.42728,0.981015555,-0.025207455,0.124816575
1764768543.020387,-3.34194,1.9838,0.42728,0.981015555,-0.025207455,0.124816575
1764768543.020387,-3.34194,1.9838,0.42728,0.981015555,-0.025207455,0.124816575
1764768543.020387,-3.34194,1.9838,0.42728,0.981015555,-0.025207455,0.124816575
1764768543.020387,-3.69292,1.526,-0.03052,0.97875726,-0.024230895,0.12438933
1764768543.0217292,-3.69292,1.526,-0.03052,0.97875726,-0.024230895,0.12438933
1764768543.0217292,-3.69292,1.526,-0.03052,0.97875726,-0.024230895,0.12438933
1764768543.0217292,-3.69292,1.526,-0.03052,0.97875726,-0.024230895,0.12438933
1764768543.0217292,-3.69292,1.526,-0.03052,0.97875726,-0.024230895,0.12438933
1764768543.0217292,-3.69292,1.526,-0.03052,0.97875726,-0.024230895,0.12438933
1764768543.0217292,-3.69292,1.526,-0.03052,0.97875726,-0.024230895,0.12438933
1764768543.0217292,-3.69292,1.526,-0.03052,0.97875726,-0.024230895,0.12438933
1764768543.064797,-3.69292,1.526,-0.03052,0.97875726,-0.024230895,0.12438933
1764768543.064797,-3.69292,1.526,-0.03052,0.97875726,-0.024230895,0.12438933
1764768543.064797,-4.15072,1.11398,-0.3051999999999999,0.978574155,-0.023254335,0.124450365
1764768543.064797,-4.15072,1.11398,-0.3051999999999999,0.978574155,-0.023254335,0.124450365
1764768543.064797,-4.15072,1.11398,-0.3051999999999999,0.978574155,-0.023254335,0.124450365
1764768543.064797,-4.15072,1.11398,-0.3051999999999999,0.978574155,-0.023254335,0.124450365
1764768543.0658128,-4.15072,1.11398,-0.3051999999999999,0.978574155,-0.023254335,0.124450365
1764768543.0658128,-4.15072,1.11398,-0.3051999999999999,0.978574155,-0.023254335,0.124450365
1764768543.0658128,-4.15072,1.11398,-0.3051999999999999,0.978574155,-0.023254335,0.124450365
1764768543.0658128,-4.15072,1.11398,-0.3051999999999999,0.978574155,-0.023254335,0.124450365
1764768543.0658128,-4.15072,1.11398,-0.3051999999999999,0.978574155,-0.023254335,0.124450365
1764768543.0658128,-4.15072,1.11398,-0.3051999999999999,0.978574155,-0.023254335,0.124450365
1764768543.0658128,-4.16598,1.61756,0.5341,0.97912347,-0.024475035,0.124450365
1764768543.0658128,-4.16598,1.61756,0.5341,0.97912347,-0.024475035,0.124450365
1764768543.0658128,-4.16598,1.61756,0.5341,0.97912347,-0.024475035,0.124450365
1764768543.0658128,-4.16598,1.61756,0.5341,0.97912347,-0.024475035,0.124450365
1764768543.0658128,-4.16598,1.61756,0.5341,0.97912347,-0.024475035,0.124450365
1764768543.0658128,-4.16598,1.61756,0.5341,0.97912347,-0.024475035,0.124450365
1764768543.0658128,-4.16598,1.61756,0.5341,0.97912347,-0.024475035,0.124450365
1764768543.0658128,-4.16598,1.61756,0.5341,0.97912347,-0.024475035,0.124450365
1764768543.0658128,-4.16598,1.61756,0.5341,0.97912347,-0.024475035,0.124450365
1764768543.0658128,-4.16598,1.61756,0.5341,0.97912347,-0.024475035,0.124450365
1764768543.0658128,-3.93708,1.49548,0.74774,0.979306575,-0.02478021,0.125060715
1764768543.0658128,-3.93708,1.49548,0.74774,0.979306575,-0.02478021,0.125060715
1764768543.114926,-3.93708,1.49548,0.74774,0.979306575,-0.02478021,0.125060715
1764768543.114926,-3.93708,1.49548,0.74774,0.979306575,-0.02478021,0.125060715
1764768543.114926,-3.93708,1.49548,0.74774,0.979306575,-0.02478021,0.125060715
1764768543.114926,-3.93708,1.49548,0.74774,0.979306575,-0.02478021,0.125060715
1764768543.114926,-3.93708,1.49548,0.74774,0.979306575,-0.02478021,0.125060715
1764768543.114926,-3.93708,1.49548,0.74774,0.979306575,-0.02478021,0.125060715
1764768543.114926,-3.93708,1.49548,0.74774,0.979306575,-0.02478021,0.125060715
1764768543.114926,-3.93708,1.49548,0.74774,0.979306575,-0.02478021,0.125060715
1764768543.114926,-3.84552,1.17502,0.44254,0.9802221,-0.024719175,0.12536589
1764768543.114926,-3.84552,1.17502,0.44254,0.9802221,-0.024719175,0.12536589
1764768543.115942,-3.84552,1.17502,0.44254,0.9802221,-0.024719175,0.12536589
1764768543.115942,-3.84552,1.17502,0.44254,0.9802221,-0.024719175,0.12536589
1764768543.115942,-3.84552,1.17502,0.44254,0.9802221,-0.024719175,0.12536589
1764768543.115942,-3.84552,1.17502,0.44254,0.9802221,-0.024719175,0.12536589
1764768543.115942,-3.84552,1.17502,0.44254,0.9802221,-0.024719175,0.12536589
1764768543.115942,-3.84552,1.17502,0.44254,0.9802221,-0.024719175,0.12536589
1764768543.115942,-3.84552,1.17502,0.44254,0.9802221,-0.024719175,0.12536589
1764768543.115942,-3.84552,1.17502,0.44254,0.9802221,-0.024719175,0.12536589
1764768543.115942,-3.78448,1.55652,0.12208,0.98058831,-0.02478021,0.12609831
1764768543.115942,-3.78448,1.55652,0.12208,0.98058831,-0.02478021,0.12609831
1764768543.115942,-3.78448,1.55652,0.12208,0.98058831,-0.02478021,0.12609831
1764768543.115942,-3.78448,1.55652,0.12208,0.98058831,-0.02478021,0.12609831
1764768543.1598077,-3.78448,1.55652,0.12208,0.98058831,-0.02478021,0.12609831
1764768543.1598077,-3.78448,1.55652,0.12208,0.98058831,-0.02478021,0.12609831
1764768543.1598077,-3.78448,1.55652,0.12208,0.98058831,-0.02478021,0.12609831
1764768543.1598077,-3.78448,1.55652,0.12208,0.98058831,-0.02478021,0.12609831
1764768543.1598077,-3.78448,1.55652,0.12208,0.98058831,-0.02478021,0.12609831
1764768543.1598077,-3.78448,1.55652,0.12208,0.98058831,-0.02478021,0.12609831
1764768543.1598077,-3.41824,1.1445,0.42728,0.97912347,-0.024597105,0.126891765
1764768543.1598077,-3.41824,1.1445,0.42728,0.97912347,-0.024597105,0.126891765
1764768543.1598077,-3.41824,1.1445,0.42728,0.97912347,-0.024597105,0.126891765
1764768543.1598077,-3.41824,1.1445,0.42728,0.97912347,-0.024597105,0.126891765
1764768543.1598077,-3.41824,1.1445,0.42728,0.97912347,-0.024597105,0.126891765
1764768543.1598077,-3.41824,1.1445,0.42728,0.97912347,-0.024597105,0.126891765
1764768543.1598077,-3.41824,1.1445,0.42728,0.97912347,-0.024597105,0.126891765
1764768543.1598077,-3.41824,1.1445,0.42728,0.97912347,-0.024597105,0.126891765
1764768543.1598077,-3.41824,1.1445,0.42728,0.97912347,-0.024597105,0.126891765
1764768543.1598077,-3.41824,1.1445,0.42728,0.97912347,-0.024597105,0.126891765
1764768543.1598077,-3.46402,0.47306,0.6714399999999999,0.978330015,-0.023254335,0.125915205
1764768543.1598077,-3.46402,0.47306,0.6714399999999999,0.978330015,-0.023254335,0.125915205
1764768543.1601994,-3.46402,0.47306,0.6714399999999999,0.978330015,-0.023254335,0.125915205
1764768543.1601994,-3.46402,0.47306,0.6714399999999999,0.978330015,-0.023254335,0.125915205
1764768543.1601994,-3.46402,0.47306,0.6714399999999999,0.978330015,-0.023254335,0.125915205
1764768543.1601994,-3.46402,0.47306,0.6714399999999999,0.978330015,-0.023254335,0.125915205
1764768543.1601994,-3.46402,0.47306,0.6714399999999999,0.978330015,-0.023254335,0.125915205
1764768543.1601994,-3.46402,0.47306,0.6714399999999999,0.978330015,-0.023254335,0.125915205
1764768543.1601994,-3.46402,0.47306,0.6714399999999999,0.978330015,-0.023254335,0.125915205
1764768543.1601994,-3.46402,0.47306,0.6714399999999999,0.978330015,-0.023254335,0.125915205
1764768543.2067378,-4.08968,1.02242,0.65618,0.9777807,-0.022643985,0.12609831
1764768543.2067378,-4.08968,1.02242,0.65618,0.9777807,-0.022643985,0.12609831
1764768543.2067378,-4.08968,1.02242,0.65618,0.9777807,-0.022643985,0.12609831
1764768543.2067378,-4.08968,1.02242,0.65618,0.9777807,-0.022643985,0.12609831
1764768543.2067378,-4.08968,1.02242,0.65618,0.9777807,-0.022643985,0.12609831
1764768543.2067378,-4.08968,1.02242,0.65618,0.9777807,-0.022643985,0.12609831
1764768543.2067378,-4.08968,1.02242,0.65618,0.9777807,-0.022643985,0.12609831
1764768543.2067378,-4.08968,1.02242,0.65618,0.9777807,-0.022643985,0.12609831
1764768543.2072864,-4.08968,1.02242,0.65618,0.9777807,-0.022643985,0.12609831
1764768543.2072864,-4.08968,1.02242,0.65618,0.9777807,-0.022643985,0.12609831
1764768543.2072864,-3.41824,0.6103999999999999,1.2971,0.97741449,-0.023742615,0.12536589
1764768543.2072864,-3.41824,0.6103999999999999,1.2971,0.97741449,-0.023742615,0.12536589
1764768543.2072864,-3.41824,0.6103999999999999,1.2971,0.97741449,-0.023742615,0.12536589
1764768543.2072864,-3.41824,0.6103999999999999,1.2971,0.97741449,-0.023742615,0.12536589
1764768543.2072864,-3.41824,0.6103999999999999,1.2971,0.97741449,-0.023742615,0.12536589
1764768543.2072864,-3.41824,0.6103999999999999,1.2971,0.97741449,-0.023742615,0.12536589
1764768543.2072864,-3.41824,0.6103999999999999,1.2971,0.97741449,-0.023742615,0.12536589
1764768543.2072864,-3.41824,0.6103999999999999,1.2971,0.97741449,-0.023742615,0.12536589
1764768543.2072864,-3.41824,0.6103999999999999,1.2971,0.97741449,-0.023742615,0.12536589
1764768543.2072864,-3.41824,0.6103999999999999,1.2971,0.97741449,-0.023742615,0.12536589
1764768543.2072864,-3.76922,0.88508,1.4497,0.978818295,-0.024963315,0.12487761
1764768543.2072864,-3.76922,0.88508,1.4497,0.978818295,-0.024963315,0.12487761
1764768543.253653,-3.76922,0.88508,1.4497,0.978818295,-0.024963315,0.12487761
1764768543.253653,-3.76922,0.88508,1.4497,0.978818295,-0.024963315,0.12487761
1764768543.253653,-3.76922,0.88508,1.4497,0.978818295,-0.024963315,0.12487761
1764768543.253653,-3.76922,0.88508,1.4497,0.978818295,-0.024963315,0.12487761
1764768543.253653,-3.76922,0.88508,1.4497,0.978818295,-0.024963315,0.12487761
1764768543.253653,-3.76922,0.88508,1.4497,0.978818295,-0.024963315,0.12487761
1764768543.253653,-3.76922,0.88508,1.4497,0.978818295,-0.024963315,0.12487761
1764768543.253653,-3.76922,0.88508,1.4497,0.978818295,-0.024963315,0.12487761
1764768543.253653,-3.03674,1.03768,1.31236,0.978818295,-0.02673333,0.12426726
1764768543.253653,-3.03674,1.03768,1.31236,0.978818295,-0.02673333,0.12426726
1764768543.253653,-3.03674,1.03768,1.31236,0.978818295,-0.02673333,0.12426726
1764768543.253653,-3.03674,1.03768,1.31236,0.978818295,-0.02673333,0.12426726
1764768543.253653,-3.03674,1.03768,1.31236,0.978818295,-0.02673333,0.12426726
1764768543.253653,-3.03674,1.03768,1.31236,0.978818295,-0.02673333,0.12426726
1764768543.253653,-3.03674,1.03768,1.31236,0.978818295,-0.02673333,0.12426726
1764768543.253653,-3.03674,1.03768,1.31236,0.978818295,-0.02673333,0.12426726
1764768543.253653,-3.03674,1.03768,1.31236,0.978818295,-0.02673333,0.12426726
1764768543.253653,-3.03674,1.03768,1.31236,0.978818295,-0.02673333,0.12426726
1764768543.253653,-2.86888,1.17502,0.77826,0.978940365,-0.02722161,0.12463347
1764768543.253653,-2.86888,1.17502,0.77826,0.978940365,-0.02722161,0.12463347
1764768543.253653,-2.86888,1.17502,0.77826,0.978940365,-0.02722161,0.12463347
1764768543.253653,-2.86888,1.17502,0.77826,0.978940365,-0.02722161,0.12463347
1764768543.253653,-2.86888,1.17502,0.77826,0.978940365,-0.02722161,0.12463347
1764768543.253653,-2.86888,1.17502,0.77826,0.978940365,-0.02722161,0.12463347
1764768543.2998855,-2.86888,1.17502,0.77826,0.978940365,-0.02722161,0.12463347
1764768543.2998855,-2.86888,1.17502,0.77826,0.978940365,-0.02722161,0.12463347
1764768543.2998855,-2.86888,1.17502,0.77826,0.978940365,-0.02722161,0.12463347
1764768543.2998855,-2.86888,1.17502,0.77826,0.978940365,-0.02722161,0.12463347
1764768543.2998855,-2.70102,1.87698,-0.13734,0.98010003,-0.026061945,0.12499968
1764768543.2998855,-2.70102,1.87698,-0.13734,0.98010003,-0.026061945,0.12499968
1764768543.2998855,-2.70102,1.87698,-0.13734,0.98010003,-0.026061945,0.12499968
1764768543.2998855,-2.70102,1.87698,-0.13734,0.98010003,-0.026061945,0.12499968
1764768543.3004165,-2.70102,1.87698,-0.13734,0.98010003,-0.026061945,0.12499968
1764768543.3004165,-2.70102,1.87698,-0.13734,0.98010003,-0.026061945,0.12499968
1764768543.3004165,-2.70102,1.87698,-0.13734,0.98010003,-0.026061945,0.12499968
1764768543.3004165,-2.70102,1.87698,-0.13734,0.98010003,-0.026061945,0.12499968
1764768543.3004165,-2.70102,1.87698,-0.13734,0.98010003,-0.026061945,0.12499968
1764768543.3004165,-2.70102,1.87698,-0.13734,0.98010003,-0.026061945,0.12499968
1764768543.3004165,-2.54842,2.18218,-0.73248,0.9802221,-0.02575677,0.12499968
1764768543.3004165,-2.54842,2.18218,-0.73248,0.9802221,-0.02575677,0.12499968
1764768543.3004165,-2.54842,2.18218,-0.73248,0.9802221,-0.02575677,0.12499968
1764768543.3004165,-2.54842,2.18218,-0.73248,0.9802221,-0.02575677,0.12499968
1764768543.3004165,-2.54842,2.18218,-0.73248,0.9802221,-0.02575677,0.12499968
1764768543.3004165,-2.54842,2.18218,-0.73248,0.9802221,-0.02575677,0.12499968
1764768543.3004165,-2.54842,2.18218,-0.73248,0.9802221,-0.02575677,0.12499968
1764768543.3004165,-2.54842,2.18218,-0.73248,0.9802221,-0.02575677,0.12499968
1764768543.3004165,-2.54842,2.18218,-0.73248,0.9802221,-0.02575677,0.12499968
1764768543.3004165,-2.54842,2.18218,-0.73248,0.9802221,-0.02575677,0.12499968
1764768543.3460567,-3.29616,2.25848,-0.51884,0.979794855,-0.024475035,0.125793135
1764768543.3460567,-3.29616,2.25848,-0.51884,0.979794855,-0.024475035,0.125793135
1764768543.3460567,-3.29616,2.25848,-0.51884,0.979794855,-0.024475035,0.125793135
1764768543.3460567,-3.29616,2.25848,-0.51884,0.979794855,-0.024475035,0.125793135
1764768543.3460567,-3.29616,2.25848,-0.51884,0.979794855,-0.024475035,0.125793135
1764768543.3460567,-3.29616,2.25848,-0.51884,0.979794855,-0.024475035,0.125793135
1764768543.3460567,-3.29616,2.25848,-0.51884,0.979794855,-0.024475035,0.125793135
1764768543.3470623,-3.29616,2.25848,-0.51884,0.979794855,-0.024475035,0.125793135
1764768543.3470623,-3.29616,2.25848,-0.51884,0.979794855,-0.024475035,0.125793135
1764768543.3470623,-3.29616,2.25848,-0.51884,0.979794855,-0.024475035,0.125793135
1764768543.3470623,-3.92182,1.70912,-0.85456,0.979306575,-0.0219726,0.126159345
1764768543.3470623,-3.92182,1.70912,-0.85456,0.979306575,-0.0219726,0.126159345
1764768543.3470623,-3.92182,1.70912,-0.85456,0.979306575,-0.0219726,0.126159345
1764768543.3470623,-3.92182,1.70912,-0.85456,0.979306575,-0.0219726,0.126159345
1764768543.3470623,-3.92182,1.70912,-0.85456,0.979306575,-0.0219726,0.126159345
1764768543.3470623,-3.92182,1.70912,-0.85456,0.979306575,-0.0219726,0.126159345
1764768543.3470623,-3.92182,1.70912,-0.85456,0.979306575,-0.0219726,0.126159345
1764768543.3470623,-3.92182,1.70912,-0.85456,0.979306575,-0.0219726,0.126159345
1764768543.3470623,-3.92182,1.70912,-0.85456,0.979306575,-0.0219726,0.126159345
1764768543.3470623,-3.92182,1.70912,-0.85456,0.979306575,-0.0219726,0.126159345
1764768543.3470623,-4.53222,1.3734,-0.13734,0.978330015,-0.02136225,0.12683073
1764768543.3470623,-4.53222,1.3734,-0.13734,0.978330015,-0.02136225,0.12683073
1764768543.394125,-4.53222,1.3734,-0.13734,0.978330015,-0.02136225,0.12683073
1764768543.394125,-4.53222,1.3734,-0.13734,0.978330015,-0.02136225,0.12683073
1764768543.394125,-4.53222,1.3734,-0.13734,0.978330015,-0.02136225,0.12683073
1764768543.394125,-4.53222,1.3734,-0.13734,0.978330015,-0.02136225,0.12683073
1764768543.394125,-4.53222,1.3734,-0.13734,0.978330015,-0.02136225,0.12683073
1764768543.394125,-4.53222,1.3734,-0.13734,0.978330015,-0.02136225,0.12683073
1764768543.394125,-4.53222,1.3734,-0.13734,0.978330015,-0.02136225,0.12683073
1764768543.394125,-4.53222,1.3734,-0.13734,0.978330015,-0.02136225,0.12683073
1764768543.394125,-4.48644,0.85456,0.0762999999999999,0.97692621,-0.0207519,0.12731901
1764768543.394125,-4.48644,0.85456,0.0762999999999999,0.97692621,-0.0207519,0.12731901
1764768543.394125,-4.48644,0.85456,0.0762999999999999,0.97692621,-0.0207519,0.12731901
1764768543.394125,-4.48644,0.85456,0.0762999999999999,0.97692621,-0.0207519,0.12731901
1764768543.394125,-4.48644,0.85456,0.0762999999999999,0.97692621,-0.0207519,0.12731901
1764768543.394125,-4.48644,0.85456,0.0762999999999999,0.97692621,-0.0207519,0.12731901
1764768543.394125,-4.48644,0.85456,0.0762999999999999,0.97692621,-0.0207519,0.12731901
1764768543.394125,-4.48644,0.85456,0.0762999999999999,0.97692621,-0.0207519,0.12731901
1764768543.394125,-4.48644,0.85456,0.0762999999999999,0.97692621,-0.0207519,0.12731901
1764768543.394125,-4.48644,0.85456,0.0762999999999999,0.97692621,-0.0207519,0.12731901
1764768543.394125,-4.48644,0.3509799999999999,0.6867,0.97717035,-0.020812935,0.128356605
1764768543.394125,-4.48644,0.3509799999999999,0.6867,0.97717035,-0.020812935,0.128356605
