Timestamp,GyroX,GyroY,GyroZ,AccX,AccY,AccZ
1764766824.660098,18.60194,-1.87698,3.52506,-0.823179045,0.429137085,0.284972415
1764766824.660098,15.244739999999998,0.21364,3.17408,-0.814512075,0.446104815,0.2795403
1764766824.6606264,15.244739999999998,0.21364,3.17408,-0.814512075,0.446104815,0.2795403
1764766824.6606264,15.244739999999998,0.21364,3.17408,-0.814512075,0.446104815,0.2795403
1764766824.6606264,15.244739999999998,0.21364,3.17408,-0.814512075,0.446104815,0.2795403
1764766824.6606264,15.244739999999998,0.21364,3.17408,-0.814512075,0.446104815,0.2795403
1764766824.6606264,15.244739999999998,0.21364,3.17408,-0.814512075,0.446104815,0.2795403
1764766824.6606264,15.244739999999998,0.21364,3.17408,-0.814512075,0.446104815,0.2795403
1764766824.6606264,15.244739999999998,0.21364,3.17408,-0.814512075,0.446104815,0.2795403
1764766824.6606264,15.244739999999998,0.21364,3.17408,-0.814512075,0.446104815,0.2795403
1764766824.6606264,15.244739999999998,0.21364,3.17408,-0.814512075,0.446104815,0.2795403
1764766824.6606264,10.10212,2.88414,0.59514,-0.80798133,0.456480765,0.27282645
1764766824.6606264,10.10212,2.88414,0.59514,-0.80798133,0.456480765,0.27282645
1764766824.6606264,10.10212,2.88414,0.59514,-0.80798133,0.456480765,0.27282645
1764766824.6606264,10.10212,2.88414,0.59514,-0.80798133,0.456480765,0.27282645
1764766824.6606264,10.10212,2.88414,0.59514,-0.80798133,0.456480765,0.27282645
1764766824.6606264,10.10212,2.88414,0.59514,-0.80798133,0.456480765,0.27282645
1764766824.6606264,10.10212,2.88414,0.59514,-0.80798133,0.456480765,0.27282645
1764766824.6606264,10.10212,2.88414,0.59514,-0.80798133,0.456480765,0.27282645
1764766824.6606264,10.10212,2.88414,0.59514,-0.80798133,0.456480765,0.27282645
1764766824.6606264,10.10212,2.88414,0.59514,-0.80798133,0.456480765,0.27282645
1764766824.6606264,5.63094,3.06726,-1.64808,-0.806943735,0.460875285,0.2722161
1764766824.6606264,5.63094,3.06726,-1.64808,-0.806943735,0.460875285,0.2722161
1764766824.7061598,5.63094,3.06726,-1.64808,-0.806943735,0.460875285,0.2722161
1764766824.7061598,5.63094,3.06726,-1.64808,-0.806943735,0.460875285,0.2722161
1764766824.7061598,5.63094,3.06726,-1.64808,-0.806943735,0.460875285,0.2722161
1764766824.7061598,5.63094,3.06726,-1.64808,-0.806943735,0.460875285,0.2722161
1764766824.706673,5.63094,3.06726,-1.64808,-0.806943735,0.460875285,0.2722161
1764766824.706673,5.63094,3.06726,-1.64808,-0.806943735,0.460875285,0.2722161
1764766824.706673,5.63094,3.06726,-1.64808,-0.806943735,0.460875285,0.2722161
1764766824.706673,5.63094,3.06726,-1.64808,-0.806943735,0.460875285,0.2722161
1764766824.706673,2.39582,3.5861,-2.01432,-0.81030066,0.46411014,0.27551199
1764766824.706673,2.39582,3.5861,-2.01432,-0.81030066,0.46411014,0.27551199
1764766824.7076826,2.39582,3.5861,-2.01432,-0.81030066,0.46411014,0.27551199
1764766824.7076826,2.39582,3.5861,-2.01432,-0.81030066,0.46411014,0.27551199
1764766824.7076826,2.39582,3.5861,-2.01432,-0.81030066,0.46411014,0.27551199
1764766824.7076826,2.39582,3.5861,-2.01432,-0.81030066,0.46411014,0.27551199
1764766824.7076826,2.39582,3.5861,-2.01432,-0.81030066,0.46411014,0.27551199
1764766824.7076826,2.39582,3.5861,-2.01432,-0.81030066,0.46411014,0.27551199
1764766824.7076826,2.39582,3.5861,-2.01432,-0.81030066,0.46411014,0.27551199
1764766824.7076826,2.39582,3.5861,-2.01432,-0.81030066,0.46411014,0.27551199
1764766824.7076826,0.1525999999999999,3.815,-0.97664,-0.818174175,0.47070192,0.278136495
1764766824.7076826,0.1525999999999999,3.815,-0.97664,-0.818174175,0.47070192,0.278136495
1764766824.7076826,0.1525999999999999,3.815,-0.97664,-0.818174175,0.47070192,0.278136495
1764766824.7076826,0.1525999999999999,3.815,-0.97664,-0.818174175,0.47070192,0.278136495
1764766824.7076826,0.1525999999999999,3.815,-0.97664,-0.818174175,0.47070192,0.278136495
1764766824.7076826,0.1525999999999999,3.815,-0.97664,-0.818174175,0.47070192,0.278136495
1764766824.7530327,0.1525999999999999,3.815,-0.97664,-0.818174175,0.47070192,0.278136495
1764766824.7530327,0.1525999999999999,3.815,-0.97664,-0.818174175,0.47070192,0.278136495
1764766824.7530327,0.1525999999999999,3.815,-0.97664,-0.818174175,0.47070192,0.278136495
1764766824.7530327,0.1525999999999999,3.815,-0.97664,-0.818174175,0.47070192,0.278136495
1764766824.7530327,-6.4855,5.53938,1.72438,-0.82214145,0.476988525,0.278380635
1764766824.7530327,-6.4855,5.53938,1.72438,-0.82214145,0.476988525,0.278380635
1764766824.7530327,-6.4855,5.53938,1.72438,-0.82214145,0.476988525,0.278380635
1764766824.7530327,-6.4855,5.53938,1.72438,-0.82214145,0.476988525,0.278380635
1764766824.7530327,-6.4855,5.53938,1.72438,-0.82214145,0.476988525,0.278380635
1764766824.7530327,-6.4855,5.53938,1.72438,-0.82214145,0.476988525,0.278380635
1764766824.7530327,-6.4855,5.53938,1.72438,-0.82214145,0.476988525,0.278380635
1764766824.7530327,-6.4855,5.53938,1.72438,-0.82214145,0.476988525,0.278380635
1764766824.7530327,-6.4855,5.53938,1.72438,-0.82214145,0.476988525,0.278380635
1764766824.7530327,-6.4855,5.53938,1.72438,-0.82214145,0.476988525,0.278380635
1764766824.7530327,-11.61286,8.22514,3.02148,-0.82385043,0.471251235,0.277404075
1764766824.7530327,-11.61286,8.22514,3.02148,-0.82385043,0.471251235,0.277404075
1764766824.7530327,-11.61286,8.22514,3.02148,-0.82385043,0.471251235,0.277404075
1764766824.7530327,-11.61286,8.22514,3.02148,-0.82385043,0.471251235,0.277404075
1764766824.7530327,-11.61286,8.22514,3.02148,-0.82385043,0.471251235,0.277404075
1764766824.7530327,-11.61286,8.22514,3.02148,-0.82385043,0.471251235,0.277404075
1764766824.7530327,-11.61286,8.22514,3.02148,-0.82385043,0.471251235,0.277404075
1764766824.7530327,-11.61286,8.22514,3.02148,-0.82385043,0.471251235,0.277404075
1764766824.7530327,-11.61286,8.22514,3.02148,-0.82385043,0.471251235,0.277404075
1764766824.7530327,-11.61286,8.22514,3.02148,-0.82385043,0.471251235,0.277404075
1764766824.8002615,-13.68822,9.58328,2.7468,-0.82812288,0.457579395,0.27795339
1764766824.8002615,-13.68822,9.58328,2.7468,-0.82812288,0.457579395,0.27795339
1764766824.8002615,-13.68822,9.58328,2.7468,-0.82812288,0.457579395,0.27795339
1764766824.8002615,-13.68822,9.58328,2.7468,-0.82812288,0.457579395,0.27795339
1764766824.8002615,-13.68822,9.58328,2.7468,-0.82812288,0.457579395,0.27795339
1764766824.8002615,-13.68822,9.58328,2.7468,-0.82812288,0.457579395,0.27795339
1764766824.8002615,-13.68822,9.58328,2.7468,-0.82812288,0.457579395,0.27795339
1764766824.8002615,-13.68822,9.58328,2.7468,-0.82812288,0.457579395,0.27795339
1764766824.8002615,-13.68822,9.58328,2.7468,-0.82812288,0.457579395,0.27795339
1764766824.8002615,-13.68822,9.58328,2.7468,-0.82812288,0.457579395,0.27795339
1764766824.8002615,-13.0473,8.30144,3.26564,-0.83654571,0.444273765,0.28027272
1764766824.8002615,-13.0473,8.30144,3.26564,-0.83654571,0.444273765,0.28027272
1764766824.8002615,-13.0473,8.30144,3.26564,-0.83654571,0.444273765,0.28027272
1764766824.8002615,-13.0473,8.30144,3.26564,-0.83654571,0.444273765,0.28027272
1764766824.8002615,-13.0473,8.30144,3.26564,-0.83654571,0.444273765,0.28027272
1764766824.8002615,-13.0473,8.30144,3.26564,-0.83654571,0.444273765,0.28027272
1764766824.8002615,-13.0473,8.30144,3.26564,-0.83654571,0.444273765,0.28027272
1764766824.8002615,-13.0473,8.30144,3.26564,-0.83654571,0.444273765,0.28027272
1764766824.8012657,-13.0473,8.30144,3.26564,-0.83654571,0.444273765,0.28027272
1764766824.8012657,-13.0473,8.30144,3.26564,-0.83654571,0.444273765,0.28027272
1764766824.8012657,-11.49078,6.53128,3.63188,-0.8435037,0.433531605,0.28283619
1764766824.8012657,-11.49078,6.53128,3.63188,-0.8435037,0.433531605,0.28283619
1764766824.848217,-11.49078,6.53128,3.63188,-0.8435037,0.433531605,0.28283619
1764766824.848217,-11.49078,6.53128,3.63188,-0.8435037,0.433531605,0.28283619
1764766824.848217,-11.49078,6.53128,3.63188,-0.8435037,0.433531605,0.28283619
1764766824.848217,-11.49078,6.53128,3.63188,-0.8435037,0.433531605,0.28283619
1764766824.8489628,-11.49078,6.53128,3.63188,-0.8435037,0.433531605,0.28283619
1764766824.8489628,-11.49078,6.53128,3.63188,-0.8435037,0.433531605,0.28283619
1764766824.8489628,-11.49078,6.53128,3.63188,-0.8435037,0.433531605,0.28283619
1764766824.8489628,-11.49078,6.53128,3.63188,-0.8435037,0.433531605,0.28283619
1764766824.8489628,-8.942359999999999,3.7387,1.87698,-0.84789822,0.42224013,0.28344654
1764766824.8489628,-8.942359999999999,3.7387,1.87698,-0.84789822,0.42224013,0.28344654
1764766824.8489628,-8.942359999999999,3.7387,1.87698,-0.84789822,0.42224013,0.28344654
1764766824.8489628,-8.942359999999999,3.7387,1.87698,-0.84789822,0.42224013,0.28344654
1764766824.8489628,-8.942359999999999,3.7387,1.87698,-0.84789822,0.42224013,0.28344654
1764766824.8489628,-8.942359999999999,3.7387,1.87698,-0.84789822,0.42224013,0.28344654
1764766824.8489628,-8.942359999999999,3.7387,1.87698,-0.84789822,0.42224013,0.28344654
1764766824.8489628,-8.942359999999999,3.7387,1.87698,-0.84789822,0.42224013,0.28344654
1764766824.8489628,-8.942359999999999,3.7387,1.87698,-0.84789822,0.42224013,0.28344654
1764766824.8489628,-8.942359999999999,3.7387,1.87698,-0.84789822,0.42224013,0.28344654
1764766824.8489628,-5.9514,1.28184,0.6103999999999999,-0.85168239,0.4162587,0.282531015
1764766824.8489628,-5.9514,1.28184,0.6103999999999999,-0.85168239,0.4162587,0.282531015
1764766824.8489628,-5.9514,1.28184,0.6103999999999999,-0.85168239,0.4162587,0.282531015
1764766824.8489628,-5.9514,1.28184,0.6103999999999999,-0.85168239,0.4162587,0.282531015
1764766824.8489628,-5.9514,1.28184,0.6103999999999999,-0.85168239,0.4162587,0.282531015
1764766824.8489628,-5.9514,1.28184,0.6103999999999999,-0.85168239,0.4162587,0.282531015
1764766824.8947842,-5.9514,1.28184,0.6103999999999999,-0.85168239,0.4162587,0.282531015
1764766824.8947842,-5.9514,1.28184,0.6103999999999999,-0.85168239,0.4162587,0.282531015
1764766824.8947842,-5.9514,1.28184,0.6103999999999999,-0.85168239,0.4162587,0.282531015
1764766824.8947842,-5.9514,1.28184,0.6103999999999999,-0.85168239,0.4162587,0.282531015
1764766824.8947842,-2.1364,-0.39676,-0.03052,-0.853574475,0.41320695,0.279479265
1764766824.8947842,-2.1364,-0.39676,-0.03052,-0.853574475,0.41320695,0.279479265
1764766824.8947842,-2.1364,-0.39676,-0.03052,-0.853574475,0.41320695,0.279479265
1764766824.8947842,-2.1364,-0.39676,-0.03052,-0.853574475,0.41320695,0.279479265
1764766824.8947842,-2.1364,-0.39676,-0.03052,-0.853574475,0.41320695,0.279479265
1764766824.8947842,-2.1364,-0.39676,-0.03052,-0.853574475,0.41320695,0.279479265
1764766824.8947842,-2.1364,-0.39676,-0.03052,-0.853574475,0.41320695,0.279479265
1764766824.8947842,-2.1364,-0.39676,-0.03052,-0.853574475,0.41320695,0.279479265
1764766824.8947842,-2.1364,-0.39676,-0.03052,-0.853574475,0.41320695,0.279479265
1764766824.8947842,-2.1364,-0.39676,-0.03052,-0.853574475,0.41320695,0.279479265
1764766824.8947842,3.37246,-0.62566,-0.51884,-0.852231705,0.41003313,0.277404075
1764766824.8947842,3.37246,-0.62566,-0.51884,-0.852231705,0.41003313,0.277404075
1764766824.8947842,3.37246,-0.62566,-0.51884,-0.852231705,0.41003313,0.277404075
1764766824.8947842,3.37246,-0.62566,-0.51884,-0.852231705,0.41003313,0.277404075
1764766824.8947842,3.37246,-0.62566,-0.51884,-0.852231705,0.41003313,0.277404075
1764766824.8947842,3.37246,-0.62566,-0.51884,-0.852231705,0.41003313,0.277404075
1764766824.8947842,3.37246,-0.62566,-0.51884,-0.852231705,0.41003313,0.277404075
1764766824.8947842,3.37246,-0.62566,-0.51884,-0.852231705,0.41003313,0.277404075
1764766824.9407866,3.37246,-0.62566,-0.51884,-0.852231705,0.41003313,0.277404075
1764766824.9407866,3.37246,-0.62566,-0.51884,-0.852231705,0.41003313,0.277404075
1764766824.9407866,8.042019999999999,-1.12924,-0.6714399999999999,-0.84875271,0.412657635,0.277770285
1764766824.9407866,8.042019999999999,-1.12924,-0.6714399999999999,-0.84875271,0.412657635,0.277770285
1764766824.9407866,8.042019999999999,-1.12924,-0.6714399999999999,-0.84875271,0.412657635,0.277770285
1764766824.9407866,8.042019999999999,-1.12924,-0.6714399999999999,-0.84875271,0.412657635,0.277770285
1764766824.9407866,8.042019999999999,-1.12924,-0.6714399999999999,-0.84875271,0.412657635,0.277770285
1764766824.9407866,8.042019999999999,-1.12924,-0.6714399999999999,-0.84875271,0.412657635,0.277770285
1764766824.9407866,8.042019999999999,-1.12924,-0.6714399999999999,-0.84875271,0.412657635,0.277770285
1764766824.9407866,8.042019999999999,-1.12924,-0.6714399999999999,-0.84875271,0.412657635,0.277770285
1764766824.9407866,8.042019999999999,-1.12924,-0.6714399999999999,-0.84875271,0.412657635,0.277770285
1764766824.9407866,8.042019999999999,-1.12924,-0.6714399999999999,-0.84875271,0.412657635,0.277770285
1764766824.9407866,8.65242,-1.89224,0.8698199999999999,-0.84496854,0.42663465,0.279601335
1764766824.9407866,8.65242,-1.89224,0.8698199999999999,-0.84496854,0.42663465,0.279601335
1764766824.9407866,8.65242,-1.89224,0.8698199999999999,-0.84496854,0.42663465,0.279601335
1764766824.9407866,8.65242,-1.89224,0.8698199999999999,-0.84496854,0.42663465,0.279601335
1764766824.9407866,8.65242,-1.89224,0.8698199999999999,-0.84496854,0.42663465,0.279601335
1764766824.9407866,8.65242,-1.89224,0.8698199999999999,-0.84496854,0.42663465,0.279601335
1764766824.9407866,8.65242,-1.89224,0.8698199999999999,-0.84496854,0.42663465,0.279601335
1764766824.941784,8.65242,-1.89224,0.8698199999999999,-0.84496854,0.42663465,0.279601335
1764766824.941784,8.65242,-1.89224,0.8698199999999999,-0.84496854,0.42663465,0.279601335
1764766824.941784,8.65242,-1.89224,0.8698199999999999,-0.84496854,0.42663465,0.279601335
1764766824.941784,4.28806,-0.41202,0.82404,-0.840146775,0.442320645,0.28185963
1764766824.941784,4.28806,-0.41202,0.82404,-0.840146775,0.442320645,0.28185963
1764766824.9872477,4.28806,-0.41202,0.82404,-0.840146775,0.442320645,0.28185963
1764766824.9872477,4.28806,-0.41202,0.82404,-0.840146775,0.442320645,0.28185963
1764766824.9872477,4.28806,-0.41202,0.82404,-0.840146775,0.442320645,0.28185963
1764766824.9877565,4.28806,-0.41202,0.82404,-0.840146775,0.442320645,0.28185963
1764766824.9877565,4.28806,-0.41202,0.82404,-0.840146775,0.442320645,0.28185963
1764766824.9877565,4.28806,-0.41202,0.82404,-0.840146775,0.442320645,0.28185963
1764766824.9877565,4.28806,-0.41202,0.82404,-0.840146775,0.442320645,0.28185963
1764766824.9877565,4.28806,-0.41202,0.82404,-0.840146775,0.442320645,0.28185963
1764766824.9877565,-1.87698,0.59514,-0.06104,-0.837461235,0.450255195,0.283629645
1764766824.9877565,-1.87698,0.59514,-0.06104,-0.837461235,0.450255195,0.283629645
1764766824.9877565,-1.87698,0.59514,-0.06104,-0.837461235,0.450255195,0.283629645
1764766824.9877565,-1.87698,0.59514,-0.06104,-0.837461235,0.450255195,0.283629645
1764766824.9877565,-1.87698,0.59514,-0.06104,-0.837461235,0.450255195,0.283629645
1764766824.9877565,-1.87698,0.59514,-0.06104,-0.837461235,0.450255195,0.283629645
1764766824.9877565,-1.87698,0.59514,-0.06104,-0.837461235,0.450255195,0.283629645
1764766824.9877565,-1.87698,0.59514,-0.06104,-0.837461235,0.450255195,0.283629645
1764766824.9877565,-1.87698,0.59514,-0.06104,-0.837461235,0.450255195,0.283629645
1764766824.9877565,-1.87698,0.59514,-0.06104,-0.837461235,0.450255195,0.283629645
1764766824.9877565,-6.59232,0.5341,-0.85456,-0.83654571,0.451475895,0.286315185
1764766824.9877565,-6.59232,0.5341,-0.85456,-0.83654571,0.451475895,0.286315185
1764766824.9877565,-6.59232,0.5341,-0.85456,-0.83654571,0.451475895,0.286315185
1764766824.9877565,-6.59232,0.5341,-0.85456,-0.83654571,0.451475895,0.286315185
1764766824.9877565,-6.59232,0.5341,-0.85456,-0.83654571,0.451475895,0.286315185
1764766824.9877565,-6.59232,0.5341,-0.85456,-0.83654571,0.451475895,0.286315185
1764766825.0338027,-6.59232,0.5341,-0.85456,-0.83654571,0.451475895,0.286315185
1764766825.0338027,-6.59232,0.5341,-0.85456,-0.83654571,0.451475895,0.286315185
1764766825.0338027,-6.59232,0.5341,-0.85456,-0.83654571,0.451475895,0.286315185
1764766825.0338027,-6.59232,0.5341,-0.85456,-0.83654571,0.451475895,0.286315185
1764766825.0338027,-9.73588,0.12208,-0.94612,-0.83654571,0.450011055,0.28942797
1764766825.03433,-9.73588,0.12208,-0.94612,-0.83654571,0.450011055,0.28942797
1764766825.03433,-9.73588,0.12208,-0.94612,-0.83654571,0.450011055,0.28942797
1764766825.03433,-9.73588,0.12208,-0.94612,-0.83654571,0.450011055,0.28942797
1764766825.03433,-9.73588,0.12208,-0.94612,-0.83654571,0.450011055,0.28942797
1764766825.03433,-9.73588,0.12208,-0.94612,-0.83654571,0.450011055,0.28942797
1764766825.03433,-9.73588,0.12208,-0.94612,-0.83654571,0.450011055,0.28942797
1764766825.03433,-9.73588,0.12208,-0.94612,-0.83654571,0.450011055,0.28942797
1764766825.03433,-9.73588,0.12208,-0.94612,-0.83654571,0.450011055,0.28942797
1764766825.03433,-9.73588,0.12208,-0.94612,-0.83654571,0.450011055,0.28942797
1764766825.03433,-11.35344,-0.94612,-0.96138,-0.836362605,0.448668285,0.28955004
1764766825.03433,-11.35344,-0.94612,-0.96138,-0.836362605,0.448668285,0.28955004
1764766825.03433,-11.35344,-0.94612,-0.96138,-0.836362605,0.448668285,0.28955004
1764766825.03433,-11.35344,-0.94612,-0.96138,-0.836362605,0.448668285,0.28955004
1764766825.03433,-11.35344,-0.94612,-0.96138,-0.836362605,0.448668285,0.28955004
1764766825.03433,-11.35344,-0.94612,-0.96138,-0.836362605,0.448668285,0.28955004
1764766825.03433,-11.35344,-0.94612,-0.96138,-0.836362605,0.448668285,0.28955004
1764766825.03433,-11.35344,-0.94612,-0.96138,-0.836362605,0.448668285,0.28955004
1764766825.03433,-11.35344,-0.94612,-0.96138,-0.836362605,0.448668285,0.28955004
1764766825.03433,-11.35344,-0.94612,-0.96138,-0.836362605,0.448668285,0.28955004
1764766825.081682,-12.84892,-1.08346,-0.54936,-0.83593536,0.44872932,0.287657955
1764766825.081682,-12.84892,-1.08346,-0.54936,-0.83593536,0.44872932,0.287657955
1764766825.081682,-12.84892,-1.08346,-0.54936,-0.83593536,0.44872932,0.287657955
1764766825.081682,-12.84892,-1.08346,-0.54936,-0.83593536,0.44872932,0.287657955
1764766825.081682,-12.84892,-1.08346,-0.54936,-0.83593536,0.44872932,0.287657955
1764766825.081682,-12.84892,-1.08346,-0.54936,-0.83593536,0.44872932,0.287657955
1764766825.081682,-12.84892,-1.08346,-0.54936,-0.83593536,0.44872932,0.287657955
1764766825.081682,-12.84892,-1.08346,-0.54936,-0.83593536,0.44872932,0.287657955
1764766825.081682,-12.84892,-1.08346,-0.54936,-0.83593536,0.44872932,0.287657955
1764766825.081682,-12.84892,-1.08346,-0.54936,-0.83593536,0.44872932,0.287657955
1764766825.0831585,-13.9629,0.3051999999999999,0.01526,-0.832334295,0.44482308,0.282042735
1764766825.0831585,-13.9629,0.3051999999999999,0.01526,-0.832334295,0.44482308,0.282042735
1764766825.0831585,-13.9629,0.3051999999999999,0.01526,-0.832334295,0.44482308,0.282042735
1764766825.0831585,-13.9629,0.3051999999999999,0.01526,-0.832334295,0.44482308,0.282042735
1764766825.0831585,-13.9629,0.3051999999999999,0.01526,-0.832334295,0.44482308,0.282042735
1764766825.0831585,-13.9629,0.3051999999999999,0.01526,-0.832334295,0.44482308,0.282042735
1764766825.0831585,-13.9629,0.3051999999999999,0.01526,-0.832334295,0.44482308,0.282042735
1764766825.0831585,-13.9629,0.3051999999999999,0.01526,-0.832334295,0.44482308,0.282042735
1764766825.0831585,-13.9629,0.3051999999999999,0.01526,-0.832334295,0.44482308,0.282042735
1764766825.0831585,-13.9629,0.3051999999999999,0.01526,-0.832334295,0.44482308,0.282042735
1764766825.0831585,-12.11644,1.26658,0.04578,-0.82873323,0.437681985,0.27648855
1764766825.0831585,-12.11644,1.26658,0.04578,-0.82873323,0.437681985,0.27648855
1764766825.0831585,-12.11644,1.26658,0.04578,-0.82873323,0.437681985,0.27648855
1764766825.0831585,-12.11644,1.26658,0.04578,-0.82873323,0.437681985,0.27648855
1764766825.1258852,-12.11644,1.26658,0.04578,-0.82873323,0.437681985,0.27648855
1764766825.1258852,-12.11644,1.26658,0.04578,-0.82873323,0.437681985,0.27648855
1764766825.1258852,-12.11644,1.26658,0.04578,-0.82873323,0.437681985,0.27648855
1764766825.1258852,-12.11644,1.26658,0.04578,-0.82873323,0.437681985,0.27648855
1764766825.1258852,-12.11644,1.26658,0.04578,-0.82873323,0.437681985,0.27648855
1764766825.1258852,-12.11644,1.26658,0.04578,-0.82873323,0.437681985,0.27648855
1764766825.1258852,-9.35438,1.00716,0.47306,-0.83080842,0.43273815,0.27270438
1764766825.1258852,-9.35438,1.00716,0.47306,-0.83080842,0.43273815,0.27270438
1764766825.1258852,-9.35438,1.00716,0.47306,-0.83080842,0.43273815,0.27270438
1764766825.1258852,-9.35438,1.00716,0.47306,-0.83080842,0.43273815,0.27270438
1764766825.1258852,-9.35438,1.00716,0.47306,-0.83080842,0.43273815,0.27270438
1764766825.1258852,-9.35438,1.00716,0.47306,-0.83080842,0.43273815,0.27270438
1764766825.1258852,-9.35438,1.00716,0.47306,-0.83080842,0.43273815,0.27270438
1764766825.1258852,-9.35438,1.00716,0.47306,-0.83080842,0.43273815,0.27270438
1764766825.1258852,-9.35438,1.00716,0.47306,-0.83080842,0.43273815,0.27270438
1764766825.1258852,-9.35438,1.00716,0.47306,-0.83080842,0.43273815,0.27270438
1764766825.1258852,-7.065379999999999,1.34288,1.31236,-0.831235665,0.43005261,0.269225385
1764766825.1272247,-7.065379999999999,1.34288,1.31236,-0.831235665,0.43005261,0.269225385
1764766825.1272247,-7.065379999999999,1.34288,1.31236,-0.831235665,0.43005261,0.269225385
1764766825.1272247,-7.065379999999999,1.34288,1.31236,-0.831235665,0.43005261,0.269225385
1764766825.1272247,-7.065379999999999,1.34288,1.31236,-0.831235665,0.43005261,0.269225385
1764766825.1272247,-7.065379999999999,1.34288,1.31236,-0.831235665,0.43005261,0.269225385
1764766825.1750064,-7.065379999999999,1.34288,1.31236,-0.831235665,0.43005261,0.269225385
1764766825.1750064,-7.065379999999999,1.34288,1.31236,-0.831235665,0.43005261,0.269225385
1764766825.1750064,-7.065379999999999,1.34288,1.31236,-0.831235665,0.43005261,0.269225385
1764766825.1750064,-7.065379999999999,1.34288,1.31236,-0.831235665,0.43005261,0.269225385
1764766825.1750064,-4.59326,2.63998,1.1445,-0.8305032450000001,0.427550175,0.26745537
1764766825.1750064,-4.59326,2.63998,1.1445,-0.8305032450000001,0.427550175,0.26745537
1764766825.1750064,-4.59326,2.63998,1.1445,-0.8305032450000001,0.427550175,0.26745537
1764766825.1750064,-4.59326,2.63998,1.1445,-0.8305032450000001,0.427550175,0.26745537
1764766825.1750064,-4.59326,2.63998,1.1445,-0.8305032450000001,0.427550175,0.26745537
1764766825.1750064,-4.59326,2.63998,1.1445,-0.8305032450000001,0.427550175,0.26745537
1764766825.1750064,-4.59326,2.63998,1.1445,-0.8305032450000001,0.427550175,0.26745537
1764766825.1750064,-4.59326,2.63998,1.1445,-0.8305032450000001,0.427550175,0.26745537
1764766825.1750064,-4.59326,2.63998,1.1445,-0.8305032450000001,0.427550175,0.26745537
1764766825.1750064,-4.59326,2.63998,1.1445,-0.8305032450000001,0.427550175,0.26745537
1764766825.1750064,-2.48738,3.1283,1.11398,-0.8312967,0.42590223,0.2673333
1764766825.1750064,-2.48738,3.1283,1.11398,-0.8312967,0.42590223,0.2673333
1764766825.1750064,-2.48738,3.1283,1.11398,-0.8312967,0.42590223,0.2673333
1764766825.1750064,-2.48738,3.1283,1.11398,-0.8312967,0.42590223,0.2673333
1764766825.1750064,-2.48738,3.1283,1.11398,-0.8312967,0.42590223,0.2673333
1764766825.1750064,-2.48738,3.1283,1.11398,-0.8312967,0.42590223,0.2673333
1764766825.1750064,-2.48738,3.1283,1.11398,-0.8312967,0.42590223,0.2673333
1764766825.1750064,-2.48738,3.1283,1.11398,-0.8312967,0.42590223,0.2673333
1764766825.2212284,-2.48738,3.1283,1.11398,-0.8312967,0.42590223,0.2673333
1764766825.2212284,-2.48738,3.1283,1.11398,-0.8312967,0.42590223,0.2673333
1764766825.2212284,-0.73248,2.8231,0.71722,-0.831968085,0.424498425,0.2697747
1764766825.2212284,-0.73248,2.8231,0.71722,-0.831968085,0.424498425,0.2697747
1764766825.2212284,-0.73248,2.8231,0.71722,-0.831968085,0.424498425,0.2697747
1764766825.2212284,-0.73248,2.8231,0.71722,-0.831968085,0.424498425,0.2697747
1764766825.2212284,-0.73248,2.8231,0.71722,-0.831968085,0.424498425,0.2697747
1764766825.2212284,-0.73248,2.8231,0.71722,-0.831968085,0.424498425,0.2697747
1764766825.2212284,-0.73248,2.8231,0.71722,-0.831968085,0.424498425,0.2697747
1764766825.2212284,-0.73248,2.8231,0.71722,-0.831968085,0.424498425,0.2697747
1764766825.2212284,-0.73248,2.8231,0.71722,-0.831968085,0.424498425,0.2697747
1764766825.2212284,-0.73248,2.8231,0.71722,-0.831968085,0.424498425,0.2697747
1764766825.2212284,-0.0762999999999999,1.69386,0.73248,-0.833921205,0.42578016,0.27294852
1764766825.2212284,-0.0762999999999999,1.69386,0.73248,-0.833921205,0.42578016,0.27294852
1764766825.2212284,-0.0762999999999999,1.69386,0.73248,-0.833921205,0.42578016,0.27294852
1764766825.2212284,-0.0762999999999999,1.69386,0.73248,-0.833921205,0.42578016,0.27294852
1764766825.2212284,-0.0762999999999999,1.69386,0.73248,-0.833921205,0.42578016,0.27294852
1764766825.2212284,-0.0762999999999999,1.69386,0.73248,-0.833921205,0.42578016,0.27294852
1764766825.2212284,-0.0762999999999999,1.69386,0.73248,-0.833921205,0.42578016,0.27294852
1764766825.2212284,-0.0762999999999999,1.69386,0.73248,-0.833921205,0.42578016,0.27294852
1764766825.2212284,-0.0762999999999999,1.69386,0.73248,-0.833921205,0.42578016,0.27294852
1764766825.2212284,-0.0762999999999999,1.69386,0.73248,-0.833921205,0.42578016,0.27294852
1764766825.2212284,-0.57988,1.70912,0.7019599999999999,-0.83532501,0.42944226,0.27404715
1764766825.2212284,-0.57988,1.70912,0.7019599999999999,-0.83532501,0.42944226,0.27404715
1764766825.2693388,-0.57988,1.70912,0.7019599999999999,-0.83532501,0.42944226,0.27404715
1764766825.2693388,-0.57988,1.70912,0.7019599999999999,-0.83532501,0.42944226,0.27404715
1764766825.2693388,-0.57988,1.70912,0.7019599999999999,-0.83532501,0.42944226,0.27404715
1764766825.2693388,-0.57988,1.70912,0.7019599999999999,-0.83532501,0.42944226,0.27404715
1764766825.2693388,-0.57988,1.70912,0.7019599999999999,-0.83532501,0.42944226,0.27404715
1764766825.2693388,-0.57988,1.70912,0.7019599999999999,-0.83532501,0.42944226,0.27404715
1764766825.2693388,-0.57988,1.70912,0.7019599999999999,-0.83532501,0.42944226,0.27404715
1764766825.2693388,-0.57988,1.70912,0.7019599999999999,-0.83532501,0.42944226,0.27404715
1764766825.2693388,-1.526,1.77016,0.94612,-0.834531555,0.43322643,0.27429129
1764766825.2693388,-1.526,1.77016,0.94612,-0.834531555,0.43322643,0.27429129
1764766825.2693388,-1.526,1.77016,0.94612,-0.834531555,0.43322643,0.27429129
1764766825.2693388,-1.526,1.77016,0.94612,-0.834531555,0.43322643,0.27429129
1764766825.2693388,-1.526,1.77016,0.94612,-0.834531555,0.43322643,0.27429129
1764766825.2693388,-1.526,1.77016,0.94612,-0.834531555,0.43322643,0.27429129
1764766825.2693388,-1.526,1.77016,0.94612,-0.834531555,0.43322643,0.27429129
1764766825.2693388,-1.526,1.77016,0.94612,-0.834531555,0.43322643,0.27429129
1764766825.2693388,-1.526,1.77016,0.94612,-0.834531555,0.43322643,0.27429129
1764766825.2693388,-1.526,1.77016,0.94612,-0.834531555,0.43322643,0.27429129
1764766825.2693388,-1.63282,2.09062,1.0682,-0.834043275,0.434874375,0.275328885
1764766825.2693388,-1.63282,2.09062,1.0682,-0.834043275,0.434874375,0.275328885
1764766825.2693388,-1.63282,2.09062,1.0682,-0.834043275,0.434874375,0.275328885
1764766825.2693388,-1.63282,2.09062,1.0682,-0.834043275,0.434874375,0.275328885
1764766825.2693388,-1.63282,2.09062,1.0682,-0.834043275,0.434874375,0.275328885
1764766825.2693388,-1.63282,2.09062,1.0682,-0.834043275,0.434874375,0.275328885
1764766825.3157923,-1.63282,2.09062,1.0682,-0.834043275,0.434874375,0.275328885
1764766825.316821,-1.63282,2.09062,1.0682,-0.834043275,0.434874375,0.275328885
1764766825.316821,-1.63282,2.09062,1.0682,-0.834043275,0.434874375,0.275328885
1764766825.316821,-1.63282,2.09062,1.0682,-0.834043275,0.434874375,0.275328885
1764766825.316821,-1.17502,2.04484,1.35814,-0.8362405350000001,0.436339215,0.27758718
1764766825.316821,-1.17502,2.04484,1.35814,-0.8362405350000001,0.436339215,0.27758718
1764766825.316821,-1.17502,2.04484,1.35814,-0.8362405350000001,0.436339215,0.27758718
1764766825.316821,-1.17502,2.04484,1.35814,-0.8362405350000001,0.436339215,0.27758718
1764766825.3173275,-1.17502,2.04484,1.35814,-0.8362405350000001,0.436339215,0.27758718
1764766825.3173275,-1.17502,2.04484,1.35814,-0.8362405350000001,0.436339215,0.27758718
1764766825.3173275,-1.17502,2.04484,1.35814,-0.8362405350000001,0.436339215,0.27758718
1764766825.3173275,-1.17502,2.04484,1.35814,-0.8362405350000001,0.436339215,0.27758718
1764766825.3173275,-1.17502,2.04484,1.35814,-0.8362405350000001,0.436339215,0.27758718
1764766825.3173275,-1.17502,2.04484,1.35814,-0.8362405350000001,0.436339215,0.27758718
1764766825.3173275,-1.23606,2.15166,1.54126,-0.837339165,0.43725474,0.28015065
1764766825.3173275,-1.23606,2.15166,1.54126,-0.837339165,0.43725474,0.28015065
1764766825.3173275,-1.23606,2.15166,1.54126,-0.837339165,0.43725474,0.28015065
1764766825.3173275,-1.23606,2.15166,1.54126,-0.837339165,0.43725474,0.28015065
1764766825.3173275,-1.23606,2.15166,1.54126,-0.837339165,0.43725474,0.28015065
1764766825.3173275,-1.23606,2.15166,1.54126,-0.837339165,0.43725474,0.28015065
1764766825.3173275,-1.23606,2.15166,1.54126,-0.837339165,0.43725474,0.28015065
1764766825.3173275,-1.23606,2.15166,1.54126,-0.837339165,0.43725474,0.28015065
1764766825.3173275,-1.23606,2.15166,1.54126,-0.837339165,0.43725474,0.28015065
1764766825.3173275,-1.23606,2.15166,1.54126,-0.837339165,0.43725474,0.28015065
1764766825.360397,-1.9838,1.46496,1.57178,-0.838804005,0.437804055,0.283507575
1764766825.360397,-1.9838,1.46496,1.57178,-0.838804005,0.437804055,0.283507575
1764766825.360397,-1.9838,1.46496,1.57178,-0.838804005,0.437804055,0.283507575
1764766825.360397,-1.9838,1.46496,1.57178,-0.838804005,0.437804055,0.283507575
1764766825.360397,-1.9838,1.46496,1.57178,-0.838804005,0.437804055,0.283507575
1764766825.360397,-1.9838,1.46496,1.57178,-0.838804005,0.437804055,0.283507575
1764766825.360397,-1.9838,1.46496,1.57178,-0.838804005,0.437804055,0.283507575
1764766825.360397,-1.9838,1.46496,1.57178,-0.838804005,0.437804055,0.283507575
1764766825.360397,-1.9838,1.46496,1.57178,-0.838804005,0.437804055,0.283507575
1764766825.360397,-1.9838,1.46496,1.57178,-0.838804005,0.437804055,0.283507575
1764766825.360397,-3.60136,1.2971,1.31236,-0.83935332,0.436949565,0.28527759
1764766825.360397,-3.60136,1.2971,1.31236,-0.83935332,0.436949565,0.28527759
1764766825.360397,-3.60136,1.2971,1.31236,-0.83935332,0.436949565,0.28527759
1764766825.360397,-3.60136,1.2971,1.31236,-0.83935332,0.436949565,0.28527759
1764766825.360397,-3.60136,1.2971,1.31236,-0.83935332,0.436949565,0.28527759
1764766825.360397,-3.60136,1.2971,1.31236,-0.83935332,0.436949565,0.28527759
1764766825.360397,-3.60136,1.2971,1.31236,-0.83935332,0.436949565,0.28527759
1764766825.360397,-3.60136,1.2971,1.31236,-0.83935332,0.436949565,0.28527759
1764766825.360397,-3.60136,1.2971,1.31236,-0.83935332,0.436949565,0.28527759
1764766825.360397,-3.60136,1.2971,1.31236,-0.83935332,0.436949565,0.28527759
1764766825.360397,-3.90656,1.23606,1.19028,-0.8386209,0.435728865,0.28576587
1764766825.360397,-3.90656,1.23606,1.19028,-0.8386209,0.435728865,0.28576587
1764766825.360397,-3.90656,1.23606,1.19028,-0.8386209,0.435728865,0.28576587
1764766825.360397,-3.90656,1.23606,1.19028,-0.8386209,0.435728865,0.28576587
1764766825.4093874,-3.90656,1.23606,1.19028,-0.8386209,0.435728865,0.28576587
1764766825.4093874,-3.90656,1.23606,1.19028,-0.8386209,0.435728865,0.28576587
1764766825.4093874,-3.90656,1.23606,1.19028,-0.8386209,0.435728865,0.28576587
1764766825.4093874,-3.90656,1.23606,1.19028,-0.8386209,0.435728865,0.28576587
1764766825.4093874,-3.90656,1.23606,1.19028,-0.8386209,0.435728865,0.28576587
1764766825.4093874,-3.90656,1.23606,1.19028,-0.8386209,0.435728865,0.28576587
1764766825.4093874,-4.7306,0.50358,1.02242,-0.83825469,0.436095075,0.2856438
1764766825.4093874,-4.7306,0.50358,1.02242,-0.83825469,0.436095075,0.2856438
1764766825.4093874,-4.7306,0.50358,1.02242,-0.83825469,0.436095075,0.2856438
1764766825.4093874,-4.7306,0.50358,1.02242,-0.83825469,0.436095075,0.2856438
1764766825.4093874,-4.7306,0.50358,1.02242,-0.83825469,0.436095075,0.2856438
1764766825.4093874,-4.7306,0.50358,1.02242,-0.83825469,0.436095075,0.2856438
1764766825.4093874,-4.7306,0.50358,1.02242,-0.83825469,0.436095075,0.2856438
1764766825.4093874,-4.7306,0.50358,1.02242,-0.83825469,0.436095075,0.2856438
1764766825.4093874,-4.7306,0.50358,1.02242,-0.83825469,0.436095075,0.2856438
1764766825.4093874,-4.7306,0.50358,1.02242,-0.83825469,0.436095075,0.2856438
1764766825.4093874,-6.21082,0.41202,1.46496,-0.83898711,0.437559915,0.28478931
1764766825.4093874,-6.21082,0.41202,1.46496,-0.83898711,0.437559915,0.28478931
1764766825.4093874,-6.21082,0.41202,1.46496,-0.83898711,0.437559915,0.28478931
1764766825.4093874,-6.21082,0.41202,1.46496,-0.83898711,0.437559915,0.28478931
1764766825.4093874,-6.21082,0.41202,1.46496,-0.83898711,0.437559915,0.28478931
1764766825.4098914,-6.21082,0.41202,1.46496,-0.83898711,0.437559915,0.28478931
1764766825.4542377,-6.21082,0.41202,1.46496,-0.83898711,0.437559915,0.28478931
1764766825.4542377,-6.21082,0.41202,1.46496,-0.83898711,0.437559915,0.28478931
1764766825.4542377,-6.21082,0.41202,1.46496,-0.83898711,0.437559915,0.28478931
1764766825.4547474,-6.21082,0.41202,1.46496,-0.83898711,0.437559915,0.28478931
1764766825.4547474,-7.645259999999999,0.3815,1.25132,-0.838926075,0.438170265,0.283263435
1764766825.4547474,-7.645259999999999,0.3815,1.25132,-0.838926075,0.438170265,0.283263435
1764766825.4547474,-7.645259999999999,0.3815,1.25132,-0.838926075,0.438170265,0.283263435
1764766825.4547474,-7.645259999999999,0.3815,1.25132,-0.838926075,0.438170265,0.283263435
1764766825.4547474,-7.645259999999999,0.3815,1.25132,-0.838926075,0.438170265,0.283263435
1764766825.4547474,-7.645259999999999,0.3815,1.25132,-0.838926075,0.438170265,0.283263435
1764766825.4547474,-7.645259999999999,0.3815,1.25132,-0.838926075,0.438170265,0.283263435
1764766825.4547474,-7.645259999999999,0.3815,1.25132,-0.838926075,0.438170265,0.283263435
1764766825.4547474,-7.645259999999999,0.3815,1.25132,-0.838926075,0.438170265,0.283263435
1764766825.4547474,-7.645259999999999,0.3815,1.25132,-0.838926075,0.438170265,0.283263435
1764766825.4547474,-7.98098,1.2208,0.93086,-0.83642364,0.4345692,0.281310315
1764766825.4547474,-7.98098,1.2208,0.93086,-0.83642364,0.4345692,0.281310315
1764766825.4547474,-7.98098,1.2208,0.93086,-0.83642364,0.4345692,0.281310315
1764766825.4547474,-7.98098,1.2208,0.93086,-0.83642364,0.4345692,0.281310315
1764766825.4547474,-7.98098,1.2208,0.93086,-0.83642364,0.4345692,0.281310315
1764766825.4547474,-7.98098,1.2208,0.93086,-0.83642364,0.4345692,0.281310315
1764766825.4547474,-7.98098,1.2208,0.93086,-0.83642364,0.4345692,0.281310315
1764766825.4547474,-7.98098,1.2208,0.93086,-0.83642364,0.4345692,0.281310315
1764766825.500008,-7.98098,1.2208,0.93086,-0.83642364,0.4345692,0.281310315
1764766825.500008,-7.98098,1.2208,0.93086,-0.83642364,0.4345692,0.281310315
1764766825.500008,-6.59232,1.26658,0.41202,-0.834287415,0.431578485,0.28027272
1764766825.500008,-6.59232,1.26658,0.41202,-0.834287415,0.431578485,0.28027272
1764766825.500008,-6.59232,1.26658,0.41202,-0.834287415,0.431578485,0.28027272
1764766825.5010216,-6.59232,1.26658,0.41202,-0.834287415,0.431578485,0.28027272
1764766825.5010216,-6.59232,1.26658,0.41202,-0.834287415,0.431578485,0.28027272
1764766825.5010216,-6.59232,1.26658,0.41202,-0.834287415,0.431578485,0.28027272
1764766825.5010216,-6.59232,1.26658,0.41202,-0.834287415,0.431578485,0.28027272
1764766825.5010216,-6.59232,1.26658,0.41202,-0.834287415,0.431578485,0.28027272
1764766825.5010216,-6.59232,1.26658,0.41202,-0.834287415,0.431578485,0.28027272
1764766825.5010216,-6.59232,1.26658,0.41202,-0.834287415,0.431578485,0.28027272
1764766825.5010216,-4.6543,0.9003399999999999,0.24416,-0.83459259,0.429503295,0.27966237
1764766825.5010216,-4.6543,0.9003399999999999,0.24416,-0.83459259,0.429503295,0.27966237
1764766825.5010216,-4.6543,0.9003399999999999,0.24416,-0.83459259,0.429503295,0.27966237
1764766825.5010216,-4.6543,0.9003399999999999,0.24416,-0.83459259,0.429503295,0.27966237
1764766825.5010216,-4.6543,0.9003399999999999,0.24416,-0.83459259,0.429503295,0.27966237
1764766825.5010216,-4.6543,0.9003399999999999,0.24416,-0.83459259,0.429503295,0.27966237
1764766825.5010216,-4.6543,0.9003399999999999,0.24416,-0.83459259,0.429503295,0.27966237
1764766825.5010216,-4.6543,0.9003399999999999,0.24416,-0.83459259,0.429503295,0.27966237
1764766825.5010216,-4.6543,0.9003399999999999,0.24416,-0.83459259,0.429503295,0.27966237
1764766825.5010216,-4.6543,0.9003399999999999,0.24416,-0.83459259,0.429503295,0.27966237
1764766825.5010216,-2.73154,0.44254,0.2289,-0.83556915,0.429869505,0.27868581
1764766825.5010216,-2.73154,0.44254,0.2289,-0.83556915,0.429869505,0.27868581
1764766825.5504663,-2.73154,0.44254,0.2289,-0.83556915,0.429869505,0.27868581
1764766825.5504663,-2.73154,0.44254,0.2289,-0.83556915,0.429869505,0.27868581
1764766825.5504663,-2.73154,0.44254,0.2289,-0.83556915,0.429869505,0.27868581
1764766825.5504663,-2.73154,0.44254,0.2289,-0.83556915,0.429869505,0.27868581
1764766825.5504663,-2.73154,0.44254,0.2289,-0.83556915,0.429869505,0.27868581
1764766825.5504663,-2.73154,0.44254,0.2289,-0.83556915,0.429869505,0.27868581
1764766825.5504663,-2.73154,0.44254,0.2289,-0.83556915,0.429869505,0.27868581
1764766825.5504663,-2.73154,0.44254,0.2289,-0.83556915,0.429869505,0.27868581
1764766825.5504663,-1.84646,0.03052,0.10682,-0.83459259,0.43188366,0.27795339
1764766825.5504663,-1.84646,0.03052,0.10682,-0.83459259,0.43188366,0.27795339
1764766825.5504663,-1.84646,0.03052,0.10682,-0.83459259,0.43188366,0.27795339
1764766825.5504663,-1.84646,0.03052,0.10682,-0.83459259,0.43188366,0.27795339
1764766825.5509875,-1.84646,0.03052,0.10682,-0.83459259,0.43188366,0.27795339
1764766825.5509875,-1.84646,0.03052,0.10682,-0.83459259,0.43188366,0.27795339
1764766825.5509875,-1.84646,0.03052,0.10682,-0.83459259,0.43188366,0.27795339
1764766825.5509875,-1.84646,0.03052,0.10682,-0.83459259,0.43188366,0.27795339
1764766825.5509875,-1.84646,0.03052,0.10682,-0.83459259,0.43188366,0.27795339
1764766825.5509875,-1.84646,0.03052,0.10682,-0.83459259,0.43188366,0.27795339
1764766825.5509875,-2.1364,0.7019599999999999,0.10682,-0.832700505,0.434874375,0.27563406
1764766825.5509875,-2.1364,0.7019599999999999,0.10682,-0.832700505,0.434874375,0.27563406
1764766825.5509875,-2.1364,0.7019599999999999,0.10682,-0.832700505,0.434874375,0.27563406
1764766825.5509875,-2.1364,0.7019599999999999,0.10682,-0.832700505,0.434874375,0.27563406
1764766825.5509875,-2.1364,0.7019599999999999,0.10682,-0.832700505,0.434874375,0.27563406
1764766825.5509875,-2.1364,0.7019599999999999,0.10682,-0.832700505,0.434874375,0.27563406
1764766825.5963578,-2.1364,0.7019599999999999,0.10682,-0.832700505,0.434874375,0.27563406
1764766825.5963578,-2.1364,0.7019599999999999,0.10682,-0.832700505,0.434874375,0.27563406
1764766825.5963578,-2.1364,0.7019599999999999,0.10682,-0.832700505,0.434874375,0.27563406
1764766825.5963578,-2.1364,0.7019599999999999,0.10682,-0.832700505,0.434874375,0.27563406
1764766825.5963578,-2.6705,0.82404,-0.01526,-0.83166291,0.43774302,0.2746575
1764766825.5963578,-2.6705,0.82404,-0.01526,-0.83166291,0.43774302,0.2746575
1764766825.5963578,-2.6705,0.82404,-0.01526,-0.83166291,0.43774302,0.2746575
1764766825.5963578,-2.6705,0.82404,-0.01526,-0.83166291,0.43774302,0.2746575
1764766825.5963578,-2.6705,0.82404,-0.01526,-0.83166291,0.43774302,0.2746575
1764766825.5963578,-2.6705,0.82404,-0.01526,-0.83166291,0.43774302,0.2746575
1764766825.5963578,-2.6705,0.82404,-0.01526,-0.83166291,0.43774302,0.2746575
1764766825.5963578,-2.6705,0.82404,-0.01526,-0.83166291,0.43774302,0.2746575
1764766825.5963578,-2.6705,0.82404,-0.01526,-0.83166291,0.43774302,0.2746575
1764766825.5963578,-2.6705,0.82404,-0.01526,-0.83166291,0.43774302,0.2746575
1764766825.5963578,-3.98286,1.19028,0.59514,-0.83263947,0.441832365,0.27380301
1764766825.5963578,-3.98286,1.19028,0.59514,-0.83263947,0.441832365,0.27380301
1764766825.5963578,-3.98286,1.19028,0.59514,-0.83263947,0.441832365,0.27380301
1764766825.5963578,-3.98286,1.19028,0.59514,-0.83263947,0.441832365,0.27380301
1764766825.5963578,-3.98286,1.19028,0.59514,-0.83263947,0.441832365,0.27380301
1764766825.596867,-3.98286,1.19028,0.59514,-0.83263947,0.441832365,0.27380301
1764766825.596867,-3.98286,1.19028,0.59514,-0.83263947,0.441832365,0.27380301
1764766825.596867,-3.98286,1.19028,0.59514,-0.83263947,0.441832365,0.27380301
1764766825.596867,-3.98286,1.19028,0.59514,-0.83263947,0.441832365,0.27380301
1764766825.596867,-3.98286,1.19028,0.59514,-0.83263947,0.441832365,0.27380301
1764766825.6434035,-5.2647,1.7549,0.97664,-0.8325174,0.44299203,0.273619905
1764766825.6434035,-5.2647,1.7549,0.97664,-0.8325174,0.44299203,0.273619905
1764766825.6434035,-5.2647,1.7549,0.97664,-0.8325174,0.44299203,0.273619905
1764766825.6434035,-5.2647,1.7549,0.97664,-0.8325174,0.44299203,0.273619905
1764766825.6434035,-5.2647,1.7549,0.97664,-0.8325174,0.44299203,0.273619905
1764766825.6434035,-5.2647,1.7549,0.97664,-0.8325174,0.44299203,0.273619905
1764766825.6434035,-5.2647,1.7549,0.97664,-0.8325174,0.44299203,0.273619905
1764766825.6434035,-5.2647,1.7549,0.97664,-0.8325174,0.44299203,0.273619905
1764766825.6434035,-5.2647,1.7549,0.97664,-0.8325174,0.44299203,0.273619905
1764766825.6434035,-5.2647,1.7549,0.97664,-0.8325174,0.44299203,0.273619905
1764766825.6434035,-4.92898,2.54842,1.55652,-0.832334295,0.44201547,0.274596465
1764766825.6434035,-4.92898,2.54842,1.55652,-0.832334295,0.44201547,0.274596465
1764766825.6434035,-4.92898,2.54842,1.55652,-0.832334295,0.44201547,0.274596465
1764766825.6434035,-4.92898,2.54842,1.55652,-0.832334295,0.44201547,0.274596465
1764766825.6434035,-4.92898,2.54842,1.55652,-0.832334295,0.44201547,0.274596465
1764766825.6434035,-4.92898,2.54842,1.55652,-0.832334295,0.44201547,0.274596465
1764766825.6434035,-4.92898,2.54842,1.55652,-0.832334295,0.44201547,0.274596465
1764766825.6434035,-4.92898,2.54842,1.55652,-0.832334295,0.44201547,0.274596465
1764766825.6434035,-4.92898,2.54842,1.55652,-0.832334295,0.44201547,0.274596465
1764766825.6434035,-4.92898,2.54842,1.55652,-0.832334295,0.44201547,0.274596465
1764766825.6434035,-4.68482,2.4416,1.26658,-0.832822575,0.438292335,0.27575613
1764766825.6434035,-4.68482,2.4416,1.26658,-0.832822575,0.438292335,0.27575613
1764766825.6434035,-4.68482,2.4416,1.26658,-0.832822575,0.438292335,0.27575613
1764766825.6434035,-4.68482,2.4416,1.26658,-0.832822575,0.438292335,0.27575613
1764766825.688527,-4.68482,2.4416,1.26658,-0.832822575,0.438292335,0.27575613
1764766825.688527,-4.68482,2.4416,1.26658,-0.832822575,0.438292335,0.27575613
1764766825.688527,-4.68482,2.4416,1.26658,-0.832822575,0.438292335,0.27575613
1764766825.688527,-4.68482,2.4416,1.26658,-0.832822575,0.438292335,0.27575613
1764766825.688527,-4.68482,2.4416,1.26658,-0.832822575,0.438292335,0.27575613
1764766825.688527,-4.68482,2.4416,1.26658,-0.832822575,0.438292335,0.27575613
1764766825.688527,-3.4335,2.0601,1.23606,-0.83471466,0.435850935,0.277037865
1764766825.688527,-3.4335,2.0601,1.23606,-0.83471466,0.435850935,0.277037865
1764766825.688527,-3.4335,2.0601,1.23606,-0.83471466,0.435850935,0.277037865
1764766825.688527,-3.4335,2.0601,1.23606,-0.83471466,0.435850935,0.277037865
1764766825.688527,-3.4335,2.0601,1.23606,-0.83471466,0.435850935,0.277037865
1764766825.688527,-3.4335,2.0601,1.23606,-0.83471466,0.435850935,0.277037865
1764766825.688527,-3.4335,2.0601,1.23606,-0.83471466,0.435850935,0.277037865
1764766825.688527,-3.4335,2.0601,1.23606,-0.83471466,0.435850935,0.277037865
1764766825.688527,-3.4335,2.0601,1.23606,-0.83471466,0.435850935,0.277037865
1764766825.688527,-3.4335,2.0601,1.23606,-0.83471466,0.435850935,0.277037865
1764766825.688527,-3.2046,1.26658,1.41918,-0.836362605,0.43481334,0.2770989
1764766825.688527,-3.2046,1.26658,1.41918,-0.836362605,0.43481334,0.2770989
1764766825.688527,-3.2046,1.26658,1.41918,-0.836362605,0.43481334,0.2770989
1764766825.688527,-3.2046,1.26658,1.41918,-0.836362605,0.43481334,0.2770989
1764766825.734745,-3.2046,1.26658,1.41918,-0.836362605,0.43481334,0.2770989
1764766825.734745,-3.2046,1.26658,1.41918,-0.836362605,0.43481334,0.2770989
1764766825.734745,-3.2046,1.26658,1.41918,-0.836362605,0.43481334,0.2770989
1764766825.734745,-3.2046,1.26658,1.41918,-0.836362605,0.43481334,0.2770989
1764766825.734745,-3.2046,1.26658,1.41918,-0.836362605,0.43481334,0.2770989
1764766825.734745,-3.2046,1.26658,1.41918,-0.836362605,0.43481334,0.2770989
1764766825.734745,-3.37246,1.38866,1.26658,-0.83581329,0.434874375,0.2758782
1764766825.734745,-3.37246,1.38866,1.26658,-0.83581329,0.434874375,0.2758782
1764766825.734745,-3.37246,1.38866,1.26658,-0.83581329,0.434874375,0.2758782
1764766825.734745,-3.37246,1.38866,1.26658,-0.83581329,0.434874375,0.2758782
1764766825.734745,-3.37246,1.38866,1.26658,-0.83581329,0.434874375,0.2758782
1764766825.734745,-3.37246,1.38866,1.26658,-0.83581329,0.434874375,0.2758782
1764766825.734745,-3.37246,1.38866,1.26658,-0.83581329,0.434874375,0.2758782
1764766825.734745,-3.37246,1.38866,1.26658,-0.83581329,0.434874375,0.2758782
1764766825.734745,-3.37246,1.38866,1.26658,-0.83581329,0.434874375,0.2758782
1764766825.734745,-3.37246,1.38866,1.26658,-0.83581329,0.434874375,0.2758782
1764766825.7352536,-2.99096,1.3734,1.4039199999999998,-0.835996395,0.434874375,0.275695095
1764766825.7352536,-2.99096,1.3734,1.4039199999999998,-0.835996395,0.434874375,0.275695095
1764766825.7352536,-2.99096,1.3734,1.4039199999999998,-0.835996395,0.434874375,0.275695095
1764766825.7352536,-2.99096,1.3734,1.4039199999999998,-0.835996395,0.434874375,0.275695095
1764766825.7352536,-2.99096,1.3734,1.4039199999999998,-0.835996395,0.434874375,0.275695095
1764766825.7352536,-2.99096,1.3734,1.4039199999999998,-0.835996395,0.434874375,0.275695095
1764766825.7352536,-2.99096,1.3734,1.4039199999999998,-0.835996395,0.434874375,0.275695095
1764766825.7352536,-2.99096,1.3734,1.4039199999999998,-0.835996395,0.434874375,0.275695095
1764766825.7352536,-2.99096,1.3734,1.4039199999999998,-0.835996395,0.434874375,0.275695095
1764766825.7352536,-2.99096,1.3734,1.4039199999999998,-0.835996395,0.434874375,0.275695095
1764766825.7808568,-3.5098,1.70912,1.23606,-0.83593536,0.437071635,0.27490164
1764766825.7808568,-3.5098,1.70912,1.23606,-0.83593536,0.437071635,0.27490164
1764766825.7808568,-3.5098,1.70912,1.23606,-0.83593536,0.437071635,0.27490164
1764766825.7808568,-3.5098,1.70912,1.23606,-0.83593536,0.437071635,0.27490164
1764766825.7808568,-3.5098,1.70912,1.23606,-0.83593536,0.437071635,0.27490164
1764766825.7808568,-3.5098,1.70912,1.23606,-0.83593536,0.437071635,0.27490164
1764766825.7808568,-3.5098,1.70912,1.23606,-0.83593536,0.437071635,0.27490164
1764766825.7808568,-3.5098,1.70912,1.23606,-0.83593536,0.437071635,0.27490164
1764766825.7808568,-3.5098,1.70912,1.23606,-0.83593536,0.437071635,0.27490164
1764766825.7808568,-3.5098,1.70912,1.23606,-0.83593536,0.437071635,0.27490164
1764766825.7808568,-3.31142,1.8006799999999998,1.0682,-0.83483673,0.4382313,0.275206815
1764766825.7808568,-3.31142,1.8006799999999998,1.0682,-0.83483673,0.4382313,0.275206815
1764766825.7808568,-3.31142,1.8006799999999998,1.0682,-0.83483673,0.4382313,0.275206815
1764766825.7808568,-3.31142,1.8006799999999998,1.0682,-0.83483673,0.4382313,0.275206815
1764766825.7808568,-3.31142,1.8006799999999998,1.0682,-0.83483673,0.4382313,0.275206815
1764766825.7808568,-3.31142,1.8006799999999998,1.0682,-0.83483673,0.4382313,0.275206815
1764766825.7808568,-3.31142,1.8006799999999998,1.0682,-0.83483673,0.4382313,0.275206815
1764766825.7808568,-3.31142,1.8006799999999998,1.0682,-0.83483673,0.4382313,0.275206815
1764766825.7818942,-3.31142,1.8006799999999998,1.0682,-0.83483673,0.4382313,0.275206815
1764766825.7818942,-3.31142,1.8006799999999998,1.0682,-0.83483673,0.4382313,0.275206815
1764766825.7818942,-3.4335,1.61756,1.2055399999999998,-0.835630185,0.43896372,0.27575613
1764766825.7818942,-3.4335,1.61756,1.2055399999999998,-0.835630185,0.43896372,0.27575613
1764766825.8314338,-3.4335,1.61756,1.2055399999999998,-0.835630185,0.43896372,0.27575613
1764766825.8314338,-3.4335,1.61756,1.2055399999999998,-0.835630185,0.43896372,0.27575613
1764766825.8314338,-3.4335,1.61756,1.2055399999999998,-0.835630185,0.43896372,0.27575613
1764766825.8314338,-3.4335,1.61756,1.2055399999999998,-0.835630185,0.43896372,0.27575613
1764766825.8314338,-3.4335,1.61756,1.2055399999999998,-0.835630185,0.43896372,0.27575613
1764766825.8314338,-3.4335,1.61756,1.2055399999999998,-0.835630185,0.43896372,0.27575613
1764766825.8314338,-3.4335,1.61756,1.2055399999999998,-0.835630185,0.43896372,0.27575613
1764766825.8314338,-3.4335,1.61756,1.2055399999999998,-0.835630185,0.43896372,0.27575613
1764766825.8314338,-3.34194,1.84646,0.79352,-0.835141905,0.438292335,0.27661062
1764766825.8314338,-3.34194,1.84646,0.79352,-0.835141905,0.438292335,0.27661062
1764766825.8314338,-3.34194,1.84646,0.79352,-0.835141905,0.438292335,0.27661062
1764766825.8314338,-3.34194,1.84646,0.79352,-0.835141905,0.438292335,0.27661062
1764766825.8314338,-3.34194,1.84646,0.79352,-0.835141905,0.438292335,0.27661062
1764766825.8314338,-3.34194,1.84646,0.79352,-0.835141905,0.438292335,0.27661062
1764766825.8314338,-3.34194,1.84646,0.79352,-0.835141905,0.438292335,0.27661062
1764766825.8314338,-3.34194,1.84646,0.79352,-0.835141905,0.438292335,0.27661062
1764766825.8320577,-3.34194,1.84646,0.79352,-0.835141905,0.438292335,0.27661062
1764766825.8320577,-3.34194,1.84646,0.79352,-0.835141905,0.438292335,0.27661062
1764766825.8320577,-2.96044,1.6022999999999998,0.77826,-0.8361795,0.437559915,0.277770285
1764766825.8320577,-2.96044,1.6022999999999998,0.77826,-0.8361795,0.437559915,0.277770285
1764766825.8320577,-2.96044,1.6022999999999998,0.77826,-0.8361795,0.437559915,0.277770285
1764766825.8320577,-2.96044,1.6022999999999998,0.77826,-0.8361795,0.437559915,0.277770285
1764766825.8320577,-2.96044,1.6022999999999998,0.77826,-0.8361795,0.437559915,0.277770285
1764766825.8320577,-2.96044,1.6022999999999998,0.77826,-0.8361795,0.437559915,0.277770285
1764766825.8775284,-2.96044,1.6022999999999998,0.77826,-0.8361795,0.437559915,0.277770285
1764766825.8775284,-2.96044,1.6022999999999998,0.77826,-0.8361795,0.437559915,0.277770285
1764766825.8775284,-2.96044,1.6022999999999998,0.77826,-0.8361795,0.437559915,0.277770285
1764766825.8775284,-2.96044,1.6022999999999998,0.77826,-0.8361795,0.437559915,0.277770285
1764766825.8775284,-2.76206,0.9919,1.00716,-0.8383157250000001,0.438048195,0.27917409
1764766825.8775284,-2.76206,0.9919,1.00716,-0.8383157250000001,0.438048195,0.27917409
1764766825.8775284,-2.76206,0.9919,1.00716,-0.8383157250000001,0.438048195,0.27917409
1764766825.8775284,-2.76206,0.9919,1.00716,-0.8383157250000001,0.438048195,0.27917409
1764766825.8775284,-2.76206,0.9919,1.00716,-0.8383157250000001,0.438048195,0.27917409
1764766825.8775284,-2.76206,0.9919,1.00716,-0.8383157250000001,0.438048195,0.27917409
1764766825.8780437,-2.76206,0.9919,1.00716,-0.8383157250000001,0.438048195,0.27917409
1764766825.8780437,-2.76206,0.9919,1.00716,-0.8383157250000001,0.438048195,0.27917409
1764766825.8780437,-2.76206,0.9919,1.00716,-0.8383157250000001,0.438048195,0.27917409
1764766825.8780437,-2.76206,0.9919,1.00716,-0.8383157250000001,0.438048195,0.27917409
1764766825.8780437,-3.60136,0.12208,0.44254,-0.83971953,0.43884165,0.27990651
1764766825.8780437,-3.60136,0.12208,0.44254,-0.83971953,0.43884165,0.27990651
1764766825.8780437,-3.60136,0.12208,0.44254,-0.83971953,0.43884165,0.27990651
1764766825.8780437,-3.60136,0.12208,0.44254,-0.83971953,0.43884165,0.27990651
1764766825.8780437,-3.60136,0.12208,0.44254,-0.83971953,0.43884165,0.27990651
1764766825.8780437,-3.60136,0.12208,0.44254,-0.83971953,0.43884165,0.27990651
1764766825.8780437,-3.60136,0.12208,0.44254,-0.83971953,0.43884165,0.27990651
1764766825.8780437,-3.60136,0.12208,0.44254,-0.83971953,0.43884165,0.27990651
1764766825.8780437,-3.60136,0.12208,0.44254,-0.83971953,0.43884165,0.27990651
1764766825.8780437,-3.60136,0.12208,0.44254,-0.83971953,0.43884165,0.27990651
1764766825.9219291,-4.01338,-0.28994,0.28994,-0.83788848,0.438780615,0.279235125
1764766825.9219291,-4.01338,-0.28994,0.28994,-0.83788848,0.438780615,0.279235125
1764766825.9219291,-4.01338,-0.28994,0.28994,-0.83788848,0.438780615,0.279235125
1764766825.9219291,-4.01338,-0.28994,0.28994,-0.83788848,0.438780615,0.279235125
1764766825.9219291,-4.01338,-0.28994,0.28994,-0.83788848,0.438780615,0.279235125
1764766825.9219291,-4.01338,-0.28994,0.28994,-0.83788848,0.438780615,0.279235125
1764766825.9219291,-4.01338,-0.28994,0.28994,-0.83788848,0.438780615,0.279235125
1764766825.9219291,-4.01338,-0.28994,0.28994,-0.83788848,0.438780615,0.279235125
1764766825.9219291,-4.01338,-0.28994,0.28994,-0.83788848,0.438780615,0.279235125
1764766825.9219291,-4.01338,-0.28994,0.28994,-0.83788848,0.438780615,0.279235125
1764766825.9219291,-5.60042,-0.28994,0.3357199999999999,-0.835752255,0.439390965,0.27673269
1764766825.9219291,-5.60042,-0.28994,0.3357199999999999,-0.835752255,0.439390965,0.27673269
1764766825.9219291,-5.60042,-0.28994,0.3357199999999999,-0.835752255,0.439390965,0.27673269
1764766825.9219291,-5.60042,-0.28994,0.3357199999999999,-0.835752255,0.439390965,0.27673269
1764766825.9224336,-5.60042,-0.28994,0.3357199999999999,-0.835752255,0.439390965,0.27673269
1764766825.9224336,-5.60042,-0.28994,0.3357199999999999,-0.835752255,0.439390965,0.27673269
1764766825.9224336,-5.60042,-0.28994,0.3357199999999999,-0.835752255,0.439390965,0.27673269
1764766825.9224336,-5.60042,-0.28994,0.3357199999999999,-0.835752255,0.439390965,0.27673269
1764766825.9224336,-5.60042,-0.28994,0.3357199999999999,-0.835752255,0.439390965,0.27673269
1764766825.9224336,-5.60042,-0.28994,0.3357199999999999,-0.835752255,0.439390965,0.27673269
1764766825.9224336,-5.78354,0.3204599999999999,0.2289,-0.834409485,0.439757175,0.274718535
1764766825.9224336,-5.78354,0.3204599999999999,0.2289,-0.834409485,0.439757175,0.274718535
1764766825.9224336,-5.78354,0.3204599999999999,0.2289,-0.834409485,0.439757175,0.274718535
1764766825.9224336,-5.78354,0.3204599999999999,0.2289,-0.834409485,0.439757175,0.274718535
1764766825.9681609,-5.78354,0.3204599999999999,0.2289,-0.834409485,0.439757175,0.274718535
1764766825.9681609,-5.78354,0.3204599999999999,0.2289,-0.834409485,0.439757175,0.274718535
1764766825.9681609,-5.78354,0.3204599999999999,0.2289,-0.834409485,0.439757175,0.274718535
1764766825.9681609,-5.78354,0.3204599999999999,0.2289,-0.834409485,0.439757175,0.274718535
1764766825.9681609,-5.78354,0.3204599999999999,0.2289,-0.834409485,0.439757175,0.274718535
1764766825.9681609,-5.78354,0.3204599999999999,0.2289,-0.834409485,0.439757175,0.274718535
1764766825.9681609,-6.97382,1.00716,0.27468,-0.832700505,0.43884165,0.274108185
1764766825.9681609,-6.97382,1.00716,0.27468,-0.832700505,0.43884165,0.274108185
1764766825.9681609,-6.97382,1.00716,0.27468,-0.832700505,0.43884165,0.274108185
1764766825.9681609,-6.97382,1.00716,0.27468,-0.832700505,0.43884165,0.274108185
1764766825.9681609,-6.97382,1.00716,0.27468,-0.832700505,0.43884165,0.274108185
1764766825.9681609,-6.97382,1.00716,0.27468,-0.832700505,0.43884165,0.274108185
1764766825.9681609,-6.97382,1.00716,0.27468,-0.832700505,0.43884165,0.274108185
1764766825.9681609,-6.97382,1.00716,0.27468,-0.832700505,0.43884165,0.274108185
1764766825.9681609,-6.97382,1.00716,0.27468,-0.832700505,0.43884165,0.274108185
1764766825.9681609,-6.97382,1.00716,0.27468,-0.832700505,0.43884165,0.274108185
1764766825.9681609,-6.66862,1.49548,0.13734,-0.831479805,0.436461285,0.27380301
1764766825.9681609,-6.66862,1.49548,0.13734,-0.831479805,0.436461285,0.27380301
1764766825.9681609,-6.66862,1.49548,0.13734,-0.831479805,0.436461285,0.27380301
1764766825.9681609,-6.66862,1.49548,0.13734,-0.831479805,0.436461285,0.27380301
1764766825.9681609,-6.66862,1.49548,0.13734,-0.831479805,0.436461285,0.27380301
1764766825.9681609,-6.66862,1.49548,0.13734,-0.831479805,0.436461285,0.27380301
1764766826.013681,-6.66862,1.49548,0.13734,-0.831479805,0.436461285,0.27380301
1764766826.013681,-6.66862,1.49548,0.13734,-0.831479805,0.436461285,0.27380301
1764766826.013681,-6.66862,1.49548,0.13734,-0.831479805,0.436461285,0.27380301
1764766826.013681,-6.66862,1.49548,0.13734,-0.831479805,0.436461285,0.27380301
1764766826.013681,-5.43256,1.86172,0.2289,-0.83227326,0.43383678,0.27441336
1764766826.013681,-5.43256,1.86172,0.2289,-0.83227326,0.43383678,0.27441336
1764766826.013681,-5.43256,1.86172,0.2289,-0.83227326,0.43383678,0.27441336
1764766826.013681,-5.43256,1.86172,0.2289,-0.83227326,0.43383678,0.27441336
1764766826.013681,-5.43256,1.86172,0.2289,-0.83227326,0.43383678,0.27441336
1764766826.013681,-5.43256,1.86172,0.2289,-0.83227326,0.43383678,0.27441336
1764766826.013681,-5.43256,1.86172,0.2289,-0.83227326,0.43383678,0.27441336
1764766826.013681,-5.43256,1.86172,0.2289,-0.83227326,0.43383678,0.27441336
1764766826.013681,-5.43256,1.86172,0.2289,-0.83227326,0.43383678,0.27441336
1764766826.013681,-5.43256,1.86172,0.2289,-0.83227326,0.43383678,0.27441336
1764766826.013681,-4.1202,1.64808,0.47306,-0.833188785,0.432555045,0.27538992
1764766826.013681,-4.1202,1.64808,0.47306,-0.833188785,0.432555045,0.27538992
1764766826.013681,-4.1202,1.64808,0.47306,-0.833188785,0.432555045,0.27538992
1764766826.013681,-4.1202,1.64808,0.47306,-0.833188785,0.432555045,0.27538992
1764766826.013681,-4.1202,1.64808,0.47306,-0.833188785,0.432555045,0.27538992
1764766826.015007,-4.1202,1.64808,0.47306,-0.833188785,0.432555045,0.27538992
1764766826.015007,-4.1202,1.64808,0.47306,-0.833188785,0.432555045,0.27538992
1764766826.015007,-4.1202,1.64808,0.47306,-0.833188785,0.432555045,0.27538992
1764766826.0610857,-4.1202,1.64808,0.47306,-0.833188785,0.432555045,0.27538992
1764766826.0610857,-4.1202,1.64808,0.47306,-0.833188785,0.432555045,0.27538992
1764766826.0624042,-3.052,1.12924,0.04578,-0.83459259,0.433897815,0.276183375
1764766826.0624042,-3.052,1.12924,0.04578,-0.83459259,0.433897815,0.276183375
1764766826.0624042,-3.052,1.12924,0.04578,-0.83459259,0.433897815,0.276183375
1764766826.0624042,-3.052,1.12924,0.04578,-0.83459259,0.433897815,0.276183375
1764766826.0624042,-3.052,1.12924,0.04578,-0.83459259,0.433897815,0.276183375
1764766826.0624042,-3.052,1.12924,0.04578,-0.83459259,0.433897815,0.276183375
1764766826.0624042,-3.052,1.12924,0.04578,-0.83459259,0.433897815,0.276183375
1764766826.0624042,-3.052,1.12924,0.04578,-0.83459259,0.433897815,0.276183375
1764766826.0624042,-3.052,1.12924,0.04578,-0.83459259,0.433897815,0.276183375
1764766826.0624042,-3.052,1.12924,0.04578,-0.83459259,0.433897815,0.276183375
1764766826.0624042,-4.4254,1.1445,0.8087799999999999,-0.835263975,0.4370106,0.27807546
1764766826.0624042,-4.4254,1.1445,0.8087799999999999,-0.835263975,0.4370106,0.27807546
1764766826.0624042,-4.4254,1.1445,0.8087799999999999,-0.835263975,0.4370106,0.27807546
1764766826.0624042,-4.4254,1.1445,0.8087799999999999,-0.835263975,0.4370106,0.27807546
1764766826.0624042,-4.4254,1.1445,0.8087799999999999,-0.835263975,0.4370106,0.27807546
1764766826.0624042,-4.4254,1.1445,0.8087799999999999,-0.835263975,0.4370106,0.27807546
1764766826.0642354,-4.4254,1.1445,0.8087799999999999,-0.835263975,0.4370106,0.27807546
1764766826.0642354,-4.4254,1.1445,0.8087799999999999,-0.835263975,0.4370106,0.27807546
1764766826.0642354,-4.4254,1.1445,0.8087799999999999,-0.835263975,0.4370106,0.27807546
1764766826.0642354,-4.4254,1.1445,0.8087799999999999,-0.835263975,0.4370106,0.27807546
1764766826.0642354,-6.36342,1.73964,0.3815,-0.83581329,0.43725474,0.277892355
1764766826.0642354,-6.36342,1.73964,0.3815,-0.83581329,0.43725474,0.277892355
1764766826.1109674,-6.36342,1.73964,0.3815,-0.83581329,0.43725474,0.277892355
1764766826.1109674,-6.36342,1.73964,0.3815,-0.83581329,0.43725474,0.277892355
1764766826.1109674,-6.36342,1.73964,0.3815,-0.83581329,0.43725474,0.277892355
1764766826.1119783,-6.36342,1.73964,0.3815,-0.83581329,0.43725474,0.277892355
1764766826.1119783,-6.36342,1.73964,0.3815,-0.83581329,0.43725474,0.277892355
1764766826.1119783,-6.36342,1.73964,0.3815,-0.83581329,0.43725474,0.277892355
1764766826.1119783,-6.36342,1.73964,0.3815,-0.83581329,0.43725474,0.277892355
1764766826.1119783,-6.36342,1.73964,0.3815,-0.83581329,0.43725474,0.277892355
1764766826.1119783,-6.37868,1.19028,-0.2289,-0.83398224,0.434874375,0.27807546
1764766826.1119783,-6.37868,1.19028,-0.2289,-0.83398224,0.434874375,0.27807546
1764766826.1119783,-6.37868,1.19028,-0.2289,-0.83398224,0.434874375,0.27807546
1764766826.1119783,-6.37868,1.19028,-0.2289,-0.83398224,0.434874375,0.27807546
1764766826.1119783,-6.37868,1.19028,-0.2289,-0.83398224,0.434874375,0.27807546
1764766826.1119783,-6.37868,1.19028,-0.2289,-0.83398224,0.434874375,0.27807546
1764766826.1119783,-6.37868,1.19028,-0.2289,-0.83398224,0.434874375,0.27807546
1764766826.1119783,-6.37868,1.19028,-0.2289,-0.83398224,0.434874375,0.27807546
1764766826.1119783,-6.37868,1.19028,-0.2289,-0.83398224,0.434874375,0.27807546
1764766826.1119783,-6.37868,1.19028,-0.2289,-0.83398224,0.434874375,0.27807546
1764766826.1119783,-5.31048,1.28184,-0.03052,-0.83288361,0.43237194,0.27795339
1764766826.1119783,-5.31048,1.28184,-0.03052,-0.83288361,0.43237194,0.27795339
1764766826.1119783,-5.31048,1.28184,-0.03052,-0.83288361,0.43237194,0.27795339
1764766826.1119783,-5.31048,1.28184,-0.03052,-0.83288361,0.43237194,0.27795339
1764766826.1564322,-5.31048,1.28184,-0.03052,-0.83288361,0.43237194,0.27795339
1764766826.1564322,-5.31048,1.28184,-0.03052,-0.83288361,0.43237194,0.27795339
1764766826.157429,-5.31048,1.28184,-0.03052,-0.83288361,0.43237194,0.27795339
1764766826.157429,-5.31048,1.28184,-0.03052,-0.83288361,0.43237194,0.27795339
1764766826.157429,-5.31048,1.28184,-0.03052,-0.83288361,0.43237194,0.27795339
1764766826.157429,-5.31048,1.28184,-0.03052,-0.83288361,0.43237194,0.27795339
1764766826.157429,-4.3491,0.6714399999999999,-0.28994,-0.83447052,0.43383678,0.27551199
1764766826.157429,-4.3491,0.6714399999999999,-0.28994,-0.83447052,0.43383678,0.27551199
1764766826.157429,-4.3491,0.6714399999999999,-0.28994,-0.83447052,0.43383678,0.27551199
1764766826.157429,-4.3491,0.6714399999999999,-0.28994,-0.83447052,0.43383678,0.27551199
1764766826.157429,-4.3491,0.6714399999999999,-0.28994,-0.83447052,0.43383678,0.27551199
1764766826.157429,-4.3491,0.6714399999999999,-0.28994,-0.83447052,0.43383678,0.27551199
1764766826.157429,-4.3491,0.6714399999999999,-0.28994,-0.83447052,0.43383678,0.27551199
1764766826.157429,-4.3491,0.6714399999999999,-0.28994,-0.83447052,0.43383678,0.27551199
1764766826.157429,-4.3491,0.6714399999999999,-0.28994,-0.83447052,0.43383678,0.27551199
1764766826.157429,-4.3491,0.6714399999999999,-0.28994,-0.83447052,0.43383678,0.27551199
1764766826.157429,-5.35626,0.57988,-0.39676,-0.835019835,0.43627818,0.273131625
1764766826.1589382,-5.35626,0.57988,-0.39676,-0.835019835,0.43627818,0.273131625
1764766826.1589382,-5.35626,0.57988,-0.39676,-0.835019835,0.43627818,0.273131625
1764766826.15947,-5.35626,0.57988,-0.39676,-0.835019835,0.43627818,0.273131625
1764766826.15947,-5.35626,0.57988,-0.39676,-0.835019835,0.43627818,0.273131625
1764766826.15947,-5.35626,0.57988,-0.39676,-0.835019835,0.43627818,0.273131625
1764766826.2023015,-5.35626,0.57988,-0.39676,-0.835019835,0.43627818,0.273131625
1764766826.2023015,-5.35626,0.57988,-0.39676,-0.835019835,0.43627818,0.273131625
1764766826.2023015,-5.35626,0.57988,-0.39676,-0.835019835,0.43627818,0.273131625
1764766826.2023015,-5.35626,0.57988,-0.39676,-0.835019835,0.43627818,0.273131625
1764766826.2023015,-5.20366,1.02242,-0.2289,-0.83581329,0.43640025,0.270446085
1764766826.2023015,-5.20366,1.02242,-0.2289,-0.83581329,0.43640025,0.270446085
1764766826.2023015,-5.20366,1.02242,-0.2289,-0.83581329,0.43640025,0.270446085
1764766826.2023015,-5.20366,1.02242,-0.2289,-0.83581329,0.43640025,0.270446085
1764766826.2023015,-5.20366,1.02242,-0.2289,-0.83581329,0.43640025,0.270446085
1764766826.2023015,-5.20366,1.02242,-0.2289,-0.83581329,0.43640025,0.270446085
1764766826.2023015,-5.20366,1.02242,-0.2289,-0.83581329,0.43640025,0.270446085
1764766826.2023015,-5.20366,1.02242,-0.2289,-0.83581329,0.43640025,0.270446085
1764766826.203315,-5.20366,1.02242,-0.2289,-0.83581329,0.43640025,0.270446085
1764766826.203315,-5.20366,1.02242,-0.2289,-0.83581329,0.43640025,0.270446085
1764766826.203315,-4.15072,1.9075,0.77826,-0.835630185,0.4357899,0.268737105
1764766826.203315,-4.15072,1.9075,0.77826,-0.835630185,0.4357899,0.268737105
1764766826.203315,-4.15072,1.9075,0.77826,-0.835630185,0.4357899,0.268737105
1764766826.203315,-4.15072,1.9075,0.77826,-0.835630185,0.4357899,0.268737105
1764766826.203315,-4.15072,1.9075,0.77826,-0.835630185,0.4357899,0.268737105
1764766826.203315,-4.15072,1.9075,0.77826,-0.835630185,0.4357899,0.268737105
1764766826.203315,-4.15072,1.9075,0.77826,-0.835630185,0.4357899,0.268737105
1764766826.203315,-4.15072,1.9075,0.77826,-0.835630185,0.4357899,0.268737105
1764766826.203315,-4.15072,1.9075,0.77826,-0.835630185,0.4357899,0.268737105
1764766826.203315,-4.15072,1.9075,0.77826,-0.835630185,0.4357899,0.268737105
1764766826.203315,-3.31142,1.9075,1.02242,-0.83630157,0.434019885,0.27062919
1764766826.203315,-3.31142,1.9075,1.02242,-0.83630157,0.434019885,0.27062919
1764766826.203315,-3.31142,1.9075,1.02242,-0.83630157,0.434019885,0.27062919
1764766826.203315,-3.31142,1.9075,1.02242,-0.83630157,0.434019885,0.27062919
1764766826.2471309,-3.31142,1.9075,1.02242,-0.83630157,0.434019885,0.27062919
1764766826.2471309,-3.31142,1.9075,1.02242,-0.83630157,0.434019885,0.27062919
1764766826.2471309,-3.31142,1.9075,1.02242,-0.83630157,0.434019885,0.27062919
1764766826.2471309,-3.31142,1.9075,1.02242,-0.83630157,0.434019885,0.27062919
1764766826.2481506,-3.31142,1.9075,1.02242,-0.83630157,0.434019885,0.27062919
1764766826.2481506,-3.31142,1.9075,1.02242,-0.83630157,0.434019885,0.27062919
1764766826.2481506,-1.99906,1.35814,1.28184,-0.837949515,0.43347057,0.274718535
1764766826.2481506,-1.99906,1.35814,1.28184,-0.837949515,0.43347057,0.274718535
1764766826.2481506,-1.99906,1.35814,1.28184,-0.837949515,0.43347057,0.274718535
1764766826.2481506,-1.99906,1.35814,1.28184,-0.837949515,0.43347057,0.274718535
1764766826.2481506,-1.99906,1.35814,1.28184,-0.837949515,0.43347057,0.274718535
1764766826.2481506,-1.99906,1.35814,1.28184,-0.837949515,0.43347057,0.274718535
1764766826.2481506,-1.99906,1.35814,1.28184,-0.837949515,0.43347057,0.274718535
1764766826.2481506,-1.99906,1.35814,1.28184,-0.837949515,0.43347057,0.274718535
1764766826.2481506,-1.99906,1.35814,1.28184,-0.837949515,0.43347057,0.274718535
1764766826.2481506,-1.99906,1.35814,1.28184,-0.837949515,0.43347057,0.274718535
1764766826.2491412,-2.5942,1.31236,1.2055399999999998,-0.83837676,0.434752305,0.278136495
1764766826.2491412,-2.5942,1.31236,1.2055399999999998,-0.83837676,0.434752305,0.278136495
1764766826.2491412,-2.5942,1.31236,1.2055399999999998,-0.83837676,0.434752305,0.278136495
1764766826.2491412,-2.5942,1.31236,1.2055399999999998,-0.83837676,0.434752305,0.278136495
1764766826.2491412,-2.5942,1.31236,1.2055399999999998,-0.83837676,0.434752305,0.278136495
1764766826.2491412,-2.5942,1.31236,1.2055399999999998,-0.83837676,0.434752305,0.278136495
1764766826.2931604,-2.5942,1.31236,1.2055399999999998,-0.83837676,0.434752305,0.278136495
1764766826.2931604,-2.5942,1.31236,1.2055399999999998,-0.83837676,0.434752305,0.278136495
1764766826.2931604,-2.5942,1.31236,1.2055399999999998,-0.83837676,0.434752305,0.278136495
1764766826.2931604,-2.5942,1.31236,1.2055399999999998,-0.83837676,0.434752305,0.278136495
1764766826.2931604,-3.09778,1.38866,0.8698199999999999,-0.8378274450000001,0.434996445,0.279967545
1764766826.2931604,-3.09778,1.38866,0.8698199999999999,-0.8378274450000001,0.434996445,0.279967545
1764766826.2931604,-3.09778,1.38866,0.8698199999999999,-0.8378274450000001,0.434996445,0.279967545
1764766826.2931604,-3.09778,1.38866,0.8698199999999999,-0.8378274450000001,0.434996445,0.279967545
1764766826.2931604,-3.09778,1.38866,0.8698199999999999,-0.8378274450000001,0.434996445,0.279967545
1764766826.2931604,-3.09778,1.38866,0.8698199999999999,-0.8378274450000001,0.434996445,0.279967545
1764766826.2931604,-3.09778,1.38866,0.8698199999999999,-0.8378274450000001,0.434996445,0.279967545
1764766826.2931604,-3.09778,1.38866,0.8698199999999999,-0.8378274450000001,0.434996445,0.279967545
1764766826.2931604,-3.09778,1.38866,0.8698199999999999,-0.8378274450000001,0.434996445,0.279967545
1764766826.2931604,-3.09778,1.38866,0.8698199999999999,-0.8378274450000001,0.434996445,0.279967545
1764766826.2931604,-3.44876,1.32762,0.41202,-0.83752227,0.436461285,0.280822035
1764766826.2931604,-3.44876,1.32762,0.41202,-0.83752227,0.436461285,0.280822035
1764766826.2931604,-3.44876,1.32762,0.41202,-0.83752227,0.436461285,0.280822035
1764766826.2931604,-3.44876,1.32762,0.41202,-0.83752227,0.436461285,0.280822035
1764766826.2931604,-3.44876,1.32762,0.41202,-0.83752227,0.436461285,0.280822035
1764766826.2931604,-3.44876,1.32762,0.41202,-0.83752227,0.436461285,0.280822035
1764766826.2931604,-3.44876,1.32762,0.41202,-0.83752227,0.436461285,0.280822035
1764766826.2931604,-3.44876,1.32762,0.41202,-0.83752227,0.436461285,0.280822035
1764766826.3429146,-3.44876,1.32762,0.41202,-0.83752227,0.436461285,0.280822035
1764766826.3429146,-3.44876,1.32762,0.41202,-0.83752227,0.436461285,0.280822035
1764766826.3429146,-3.93708,0.6103999999999999,0.42728,-0.837095025,0.43859751,0.281310315
1764766826.3429146,-3.93708,0.6103999999999999,0.42728,-0.837095025,0.43859751,0.281310315
1764766826.3429146,-3.93708,0.6103999999999999,0.42728,-0.837095025,0.43859751,0.281310315
1764766826.3429146,-3.93708,0.6103999999999999,0.42728,-0.837095025,0.43859751,0.281310315
1764766826.3429146,-3.93708,0.6103999999999999,0.42728,-0.837095025,0.43859751,0.281310315
1764766826.3429146,-3.93708,0.6103999999999999,0.42728,-0.837095025,0.43859751,0.281310315
1764766826.3429146,-3.93708,0.6103999999999999,0.42728,-0.837095025,0.43859751,0.281310315
1764766826.3429146,-3.93708,0.6103999999999999,0.42728,-0.837095025,0.43859751,0.281310315
1764766826.3429146,-3.93708,0.6103999999999999,0.42728,-0.837095025,0.43859751,0.281310315
1764766826.3429146,-3.93708,0.6103999999999999,0.42728,-0.837095025,0.43859751,0.281310315
1764766826.3429146,-5.0358,0.56462,0.03052,-0.8362405350000001,0.44128305,0.28002858
1764766826.3429146,-5.0358,0.56462,0.03052,-0.8362405350000001,0.44128305,0.28002858
1764766826.3429146,-5.0358,0.56462,0.03052,-0.8362405350000001,0.44128305,0.28002858
1764766826.3429146,-5.0358,0.56462,0.03052,-0.8362405350000001,0.44128305,0.28002858
1764766826.3429146,-5.0358,0.56462,0.03052,-0.8362405350000001,0.44128305,0.28002858
1764766826.3429146,-5.0358,0.56462,0.03052,-0.8362405350000001,0.44128305,0.28002858
1764766826.3429146,-5.0358,0.56462,0.03052,-0.8362405350000001,0.44128305,0.28002858
1764766826.3429146,-5.0358,0.56462,0.03052,-0.8362405350000001,0.44128305,0.28002858
1764766826.3429146,-5.0358,0.56462,0.03052,-0.8362405350000001,0.44128305,0.28002858
1764766826.3429146,-5.0358,0.56462,0.03052,-0.8362405350000001,0.44128305,0.28002858
1764766826.3429146,-5.646199999999999,1.19028,0.3357199999999999,-0.834287415,0.442320645,0.27746511
1764766826.3429146,-5.646199999999999,1.19028,0.3357199999999999,-0.834287415,0.442320645,0.27746511
1764766826.3865695,-5.646199999999999,1.19028,0.3357199999999999,-0.834287415,0.442320645,0.27746511
1764766826.3865695,-5.646199999999999,1.19028,0.3357199999999999,-0.834287415,0.442320645,0.27746511
1764766826.3865695,-5.646199999999999,1.19028,0.3357199999999999,-0.834287415,0.442320645,0.27746511
1764766826.3865695,-5.646199999999999,1.19028,0.3357199999999999,-0.834287415,0.442320645,0.27746511
1764766826.3865695,-5.646199999999999,1.19028,0.3357199999999999,-0.834287415,0.442320645,0.27746511
1764766826.3865695,-5.646199999999999,1.19028,0.3357199999999999,-0.834287415,0.442320645,0.27746511
1764766826.3865695,-5.646199999999999,1.19028,0.3357199999999999,-0.834287415,0.442320645,0.27746511
1764766826.3865695,-5.646199999999999,1.19028,0.3357199999999999,-0.834287415,0.442320645,0.27746511
1764766826.3865695,-6.14978,1.9838,0.13734,-0.83239533,0.439390965,0.276427515
1764766826.3865695,-6.14978,1.9838,0.13734,-0.83239533,0.439390965,0.276427515
1764766826.3865695,-6.14978,1.9838,0.13734,-0.83239533,0.439390965,0.276427515
1764766826.3865695,-6.14978,1.9838,0.13734,-0.83239533,0.439390965,0.276427515
1764766826.3865695,-6.14978,1.9838,0.13734,-0.83239533,0.439390965,0.276427515
1764766826.3865695,-6.14978,1.9838,0.13734,-0.83239533,0.439390965,0.276427515
1764766826.3865695,-6.14978,1.9838,0.13734,-0.83239533,0.439390965,0.276427515
1764766826.3865695,-6.14978,1.9838,0.13734,-0.83239533,0.439390965,0.276427515
1764766826.3865695,-6.14978,1.9838,0.13734,-0.83239533,0.439390965,0.276427515
1764766826.387596,-6.14978,1.9838,0.13734,-0.83239533,0.439390965,0.276427515
1764766826.387596,-6.01244,2.07536,0.09156,-0.83215119,0.43749888,0.27551199
1764766826.387596,-6.01244,2.07536,0.09156,-0.83215119,0.43749888,0.27551199
1764766826.387596,-6.01244,2.07536,0.09156,-0.83215119,0.43749888,0.27551199
1764766826.387596,-6.01244,2.07536,0.09156,-0.83215119,0.43749888,0.27551199
1764766826.434997,-6.01244,2.07536,0.09156,-0.83215119,0.43749888,0.27551199
1764766826.434997,-6.01244,2.07536,0.09156,-0.83215119,0.43749888,0.27551199
1764766826.434997,-6.01244,2.07536,0.09156,-0.83215119,0.43749888,0.27551199
1764766826.434997,-6.01244,2.07536,0.09156,-0.83215119,0.43749888,0.27551199
1764766826.434997,-6.01244,2.07536,0.09156,-0.83215119,0.43749888,0.27551199
1764766826.434997,-6.01244,2.07536,0.09156,-0.83215119,0.43749888,0.27551199
1764766826.434997,-5.4936,1.92276,0.2289,-0.83349396,0.436705425,0.274474395
1764766826.434997,-5.4936,1.92276,0.2289,-0.83349396,0.436705425,0.274474395
1764766826.434997,-5.4936,1.92276,0.2289,-0.83349396,0.436705425,0.274474395
1764766826.434997,-5.4936,1.92276,0.2289,-0.83349396,0.436705425,0.274474395
1764766826.434997,-5.4936,1.92276,0.2289,-0.83349396,0.436705425,0.274474395
1764766826.434997,-5.4936,1.92276,0.2289,-0.83349396,0.436705425,0.274474395
1764766826.434997,-5.4936,1.92276,0.2289,-0.83349396,0.436705425,0.274474395
1764766826.434997,-5.4936,1.92276,0.2289,-0.83349396,0.436705425,0.274474395
1764766826.434997,-5.4936,1.92276,0.2289,-0.83349396,0.436705425,0.274474395
1764766826.434997,-5.4936,1.92276,0.2289,-0.83349396,0.436705425,0.274474395
1764766826.434997,-4.8832,1.57178,0.0,-0.835996395,0.43347057,0.273864045
1764766826.434997,-4.8832,1.57178,0.0,-0.835996395,0.43347057,0.273864045
1764766826.434997,-4.8832,1.57178,0.0,-0.835996395,0.43347057,0.273864045
1764766826.434997,-4.8832,1.57178,0.0,-0.835996395,0.43347057,0.273864045
1764766826.434997,-4.8832,1.57178,0.0,-0.835996395,0.43347057,0.273864045
1764766826.434997,-4.8832,1.57178,0.0,-0.835996395,0.43347057,0.273864045
1764766826.434997,-4.8832,1.57178,0.0,-0.835996395,0.43347057,0.273864045
1764766826.434997,-4.8832,1.57178,0.0,-0.835996395,0.43347057,0.273864045
1764766826.4790423,-4.8832,1.57178,0.0,-0.835996395,0.43347057,0.273864045
1764766826.4790423,-4.8832,1.57178,0.0,-0.835996395,0.43347057,0.273864045
1764766826.4790423,-4.07442,1.87698,-0.0762999999999999,-0.8367898500000001,0.432188835,0.27355887
1764766826.4790423,-4.07442,1.87698,-0.0762999999999999,-0.8367898500000001,0.432188835,0.27355887
1764766826.4790423,-4.07442,1.87698,-0.0762999999999999,-0.8367898500000001,0.432188835,0.27355887
1764766826.4790423,-4.07442,1.87698,-0.0762999999999999,-0.8367898500000001,0.432188835,0.27355887
1764766826.4790423,-4.07442,1.87698,-0.0762999999999999,-0.8367898500000001,0.432188835,0.27355887
1764766826.4790423,-4.07442,1.87698,-0.0762999999999999,-0.8367898500000001,0.432188835,0.27355887
1764766826.4790423,-4.07442,1.87698,-0.0762999999999999,-0.8367898500000001,0.432188835,0.27355887
1764766826.479552,-4.07442,1.87698,-0.0762999999999999,-0.8367898500000001,0.432188835,0.27355887
1764766826.479552,-4.07442,1.87698,-0.0762999999999999,-0.8367898500000001,0.432188835,0.27355887
1764766826.479552,-4.07442,1.87698,-0.0762999999999999,-0.8367898500000001,0.432188835,0.27355887
1764766826.479552,-2.54842,1.70912,0.12208,-0.83630157,0.430601925,0.27307059
1764766826.479552,-2.54842,1.70912,0.12208,-0.83630157,0.430601925,0.27307059
1764766826.479552,-2.54842,1.70912,0.12208,-0.83630157,0.430601925,0.27307059
1764766826.479552,-2.54842,1.70912,0.12208,-0.83630157,0.430601925,0.27307059
1764766826.479552,-2.54842,1.70912,0.12208,-0.83630157,0.430601925,0.27307059
1764766826.479552,-2.54842,1.70912,0.12208,-0.83630157,0.430601925,0.27307059
1764766826.479552,-2.54842,1.70912,0.12208,-0.83630157,0.430601925,0.27307059
1764766826.479552,-2.54842,1.70912,0.12208,-0.83630157,0.430601925,0.27307059
1764766826.479552,-2.54842,1.70912,0.12208,-0.83630157,0.430601925,0.27307059
1764766826.479552,-2.54842,1.70912,0.12208,-0.83630157,0.430601925,0.27307059
1764766826.525697,-1.51074,1.31236,-0.27468,-0.83666778,0.429381225,0.272643345
1764766826.525697,-1.51074,1.31236,-0.27468,-0.83666778,0.429381225,0.272643345
1764766826.525697,-1.51074,1.31236,-0.27468,-0.83666778,0.429381225,0.272643345
1764766826.525697,-1.51074,1.31236,-0.27468,-0.83666778,0.429381225,0.272643345
1764766826.525697,-1.51074,1.31236,-0.27468,-0.83666778,0.429381225,0.272643345
1764766826.526203,-1.51074,1.31236,-0.27468,-0.83666778,0.429381225,0.272643345
1764766826.526203,-1.51074,1.31236,-0.27468,-0.83666778,0.429381225,0.272643345
1764766826.526203,-1.51074,1.31236,-0.27468,-0.83666778,0.429381225,0.272643345
1764766826.526203,-1.51074,1.31236,-0.27468,-0.83666778,0.429381225,0.272643345
1764766826.526203,-1.51074,1.31236,-0.27468,-0.83666778,0.429381225,0.272643345
1764766826.526203,-1.2971,3.87604,-2.77732,-0.8349588,0.42761121,0.271544715
1764766826.526203,-1.2971,3.87604,-2.77732,-0.8349588,0.42761121,0.271544715
1764766826.526203,-1.2971,3.87604,-2.77732,-0.8349588,0.42761121,0.271544715
1764766826.526203,-1.2971,3.87604,-2.77732,-0.8349588,0.42761121,0.271544715
1764766826.526203,-1.2971,3.87604,-2.77732,-0.8349588,0.42761121,0.271544715
1764766826.526203,-1.2971,3.87604,-2.77732,-0.8349588,0.42761121,0.271544715
1764766826.526203,-1.2971,3.87604,-2.77732,-0.8349588,0.42761121,0.271544715
1764766826.526203,-1.2971,3.87604,-2.77732,-0.8349588,0.42761121,0.271544715
1764766826.526203,-1.2971,3.87604,-2.77732,-0.8349588,0.42761121,0.271544715
1764766826.526203,-1.2971,3.87604,-2.77732,-0.8349588,0.42761121,0.271544715
1764766826.526203,3.93708,20.35684,-20.70782,-0.828794265,0.424864635,0.27050712
1764766826.526203,3.93708,20.35684,-20.70782,-0.828794265,0.424864635,0.27050712
1764766826.526203,3.93708,20.35684,-20.70782,-0.828794265,0.424864635,0.27050712
1764766826.526203,3.93708,20.35684,-20.70782,-0.828794265,0.424864635,0.27050712
1764766826.573495,3.93708,20.35684,-20.70782,-0.828794265,0.424864635,0.27050712
1764766826.573495,3.93708,20.35684,-20.70782,-0.828794265,0.424864635,0.27050712
1764766826.573495,3.93708,20.35684,-20.70782,-0.828794265,0.424864635,0.27050712
1764766826.573495,3.93708,20.35684,-20.70782,-0.828794265,0.424864635,0.27050712
1764766826.573495,3.93708,20.35684,-20.70782,-0.828794265,0.424864635,0.27050712
1764766826.573495,3.93708,20.35684,-20.70782,-0.828794265,0.424864635,0.27050712
1764766826.573495,-21.364,23.3478,-28.4599,-0.84374784,0.46008183,0.2697747
1764766826.573495,-21.364,23.3478,-28.4599,-0.84374784,0.46008183,0.2697747
1764766826.573495,-21.364,23.3478,-28.4599,-0.84374784,0.46008183,0.2697747
1764766826.573495,-21.364,23.3478,-28.4599,-0.84374784,0.46008183,0.2697747
1764766826.573495,-21.364,23.3478,-28.4599,-0.84374784,0.46008183,0.2697747
1764766826.573495,-21.364,23.3478,-28.4599,-0.84374784,0.46008183,0.2697747
1764766826.573495,-21.364,23.3478,-28.4599,-0.84374784,0.46008183,0.2697747
1764766826.573495,-21.364,23.3478,-28.4599,-0.84374784,0.46008183,0.2697747
1764766826.573495,-21.364,23.3478,-28.4599,-0.84374784,0.46008183,0.2697747
1764766826.573495,-21.364,23.3478,-28.4599,-0.84374784,0.46008183,0.2697747
1764766826.573495,-32.87004,14.1155,-14.16128,-0.83825469,0.500487,0.27075126
1764766826.573495,-32.87004,14.1155,-14.16128,-0.83825469,0.500487,0.27075126
1764766826.573495,-32.87004,14.1155,-14.16128,-0.83825469,0.500487,0.27075126
1764766826.573495,-32.87004,14.1155,-14.16128,-0.83825469,0.500487,0.27075126
1764766826.573495,-32.87004,14.1155,-14.16128,-0.83825469,0.500487,0.27075126
1764766826.573495,-32.87004,14.1155,-14.16128,-0.83825469,0.500487,0.27075126
1764766826.573495,-32.87004,14.1155,-14.16128,-0.83825469,0.500487,0.27075126
1764766826.573495,-32.87004,14.1155,-14.16128,-0.83825469,0.500487,0.27075126
1764766826.6181982,-32.87004,14.1155,-14.16128,-0.83825469,0.500487,0.27075126
1764766826.6181982,-32.87004,14.1155,-14.16128,-0.83825469,0.500487,0.27075126
1764766826.6181982,-27.30014,23.77508,-11.445,-0.805967175,0.485533425,0.242492055
1764766826.6181982,-27.30014,23.77508,-11.445,-0.805967175,0.485533425,0.242492055
1764766826.6181982,-27.30014,23.77508,-11.445,-0.805967175,0.485533425,0.242492055
1764766826.6181982,-27.30014,23.77508,-11.445,-0.805967175,0.485533425,0.242492055
1764766826.6181982,-27.30014,23.77508,-11.445,-0.805967175,0.485533425,0.242492055
1764766826.6181982,-27.30014,23.77508,-11.445,-0.805967175,0.485533425,0.242492055
1764766826.6181982,-27.30014,23.77508,-11.445,-0.805967175,0.485533425,0.242492055
1764766826.6181982,-27.30014,23.77508,-11.445,-0.805967175,0.485533425,0.242492055
1764766826.6181982,-27.30014,23.77508,-11.445,-0.805967175,0.485533425,0.242492055
1764766826.6181982,-27.30014,23.77508,-11.445,-0.805967175,0.485533425,0.242492055
1764766826.6181982,-20.46366,13.8103,-6.24134,-0.80773719,0.460387005,0.22753848
1764766826.6181982,-20.46366,13.8103,-6.24134,-0.80773719,0.460387005,0.22753848
1764766826.6181982,-20.46366,13.8103,-6.24134,-0.80773719,0.460387005,0.22753848
1764766826.6181982,-20.46366,13.8103,-6.24134,-0.80773719,0.460387005,0.22753848
1764766826.6181982,-20.46366,13.8103,-6.24134,-0.80773719,0.460387005,0.22753848
1764766826.6181982,-20.46366,13.8103,-6.24134,-0.80773719,0.460387005,0.22753848
1764766826.6181982,-20.46366,13.8103,-6.24134,-0.80773719,0.460387005,0.22753848
1764766826.6181982,-20.46366,13.8103,-6.24134,-0.80773719,0.460387005,0.22753848
1764766826.6181982,-20.46366,13.8103,-6.24134,-0.80773719,0.460387005,0.22753848
1764766826.6181982,-20.46366,13.8103,-6.24134,-0.80773719,0.460387005,0.22753848
1764766826.665558,-17.19802,8.57612,3.93708,-0.8153055300000001,0.45727422,0.233458875
1764766826.665558,-17.19802,8.57612,3.93708,-0.8153055300000001,0.45727422,0.233458875
1764766826.665558,-17.19802,8.57612,3.93708,-0.8153055300000001,0.45727422,0.233458875
1764766826.665558,-17.19802,8.57612,3.93708,-0.8153055300000001,0.45727422,0.233458875
1764766826.665558,-17.19802,8.57612,3.93708,-0.8153055300000001,0.45727422,0.233458875
1764766826.665558,-17.19802,8.57612,3.93708,-0.8153055300000001,0.45727422,0.233458875
1764766826.665558,-17.19802,8.57612,3.93708,-0.8153055300000001,0.45727422,0.233458875
1764766826.665558,-17.19802,8.57612,3.93708,-0.8153055300000001,0.45727422,0.233458875
1764766826.665558,-17.19802,8.57612,3.93708,-0.8153055300000001,0.45727422,0.233458875
1764766826.665558,-17.19802,8.57612,3.93708,-0.8153055300000001,0.45727422,0.233458875
1764766826.665558,-19.71592,7.614739999999999,9.20178,-0.82177524,0.460142865,0.24853452
1764766826.665558,-19.71592,7.614739999999999,9.20178,-0.82177524,0.460142865,0.24853452
1764766826.665558,-19.71592,7.614739999999999,9.20178,-0.82177524,0.460142865,0.24853452
1764766826.665558,-19.71592,7.614739999999999,9.20178,-0.82177524,0.460142865,0.24853452
1764766826.665558,-19.71592,7.614739999999999,9.20178,-0.82177524,0.460142865,0.24853452
1764766826.665558,-19.71592,7.614739999999999,9.20178,-0.82177524,0.460142865,0.24853452
1764766826.665558,-19.71592,7.614739999999999,9.20178,-0.82177524,0.460142865,0.24853452
1764766826.665558,-19.71592,7.614739999999999,9.20178,-0.82177524,0.460142865,0.24853452
1764766826.6670935,-19.71592,7.614739999999999,9.20178,-0.82177524,0.460142865,0.24853452
1764766826.6670935,-19.71592,7.614739999999999,9.20178,-0.82177524,0.460142865,0.24853452
1764766826.6685166,-26.0946,12.75736,0.96138,-0.82385043,0.43591197,0.257018385
1764766826.6685166,-26.0946,12.75736,0.96138,-0.82385043,0.43591197,0.257018385
1764766826.6685166,-26.0946,12.75736,0.96138,-0.82385043,0.43591197,0.257018385
1764766826.6685166,-26.0946,12.75736,0.96138,-0.82385043,0.43591197,0.257018385
1764766826.7117517,-26.0946,12.75736,0.96138,-0.82385043,0.43591197,0.257018385
1764766826.7117517,-26.0946,12.75736,0.96138,-0.82385043,0.43591197,0.257018385
1764766826.7117517,-26.0946,12.75736,0.96138,-0.82385043,0.43591197,0.257018385
1764766826.7117517,-26.0946,12.75736,0.96138,-0.82385043,0.43591197,0.257018385
1764766826.7117517,-26.0946,12.75736,0.96138,-0.82385043,0.43591197,0.257018385
1764766826.7117517,-26.0946,12.75736,0.96138,-0.82385043,0.43591197,0.257018385
1764766826.7117517,-20.93672,22.8137,-11.9791,-0.82006626,0.378355965,0.245543805
1764766826.7117517,-20.93672,22.8137,-11.9791,-0.82006626,0.378355965,0.245543805
1764766826.7117517,-20.93672,22.8137,-11.9791,-0.82006626,0.378355965,0.245543805
1764766826.7117517,-20.93672,22.8137,-11.9791,-0.82006626,0.378355965,0.245543805
1764766826.7127578,-20.93672,22.8137,-11.9791,-0.82006626,0.378355965,0.245543805
1764766826.7127578,-20.93672,22.8137,-11.9791,-0.82006626,0.378355965,0.245543805
1764766826.7127578,-20.93672,22.8137,-11.9791,-0.82006626,0.378355965,0.245543805
1764766826.7127578,-20.93672,22.8137,-11.9791,-0.82006626,0.378355965,0.245543805
1764766826.7127578,-20.93672,22.8137,-11.9791,-0.82006626,0.378355965,0.245543805
1764766826.7127578,-20.93672,22.8137,-11.9791,-0.82006626,0.378355965,0.245543805
1764766826.7127578,2.54842,27.9258,-17.3201,-0.831846015,0.327696915,0.23132265
1764766826.7127578,2.54842,27.9258,-17.3201,-0.831846015,0.327696915,0.23132265
1764766826.7127578,2.54842,27.9258,-17.3201,-0.831846015,0.327696915,0.23132265
1764766826.7127578,2.54842,27.9258,-17.3201,-0.831846015,0.327696915,0.23132265
1764766826.7127578,2.54842,27.9258,-17.3201,-0.831846015,0.327696915,0.23132265
1764766826.7127578,2.54842,27.9258,-17.3201,-0.831846015,0.327696915,0.23132265
1764766826.7127578,2.54842,27.9258,-17.3201,-0.831846015,0.327696915,0.23132265
1764766826.7127578,2.54842,27.9258,-17.3201,-0.831846015,0.327696915,0.23132265
1764766826.7595327,2.54842,27.9258,-17.3201,-0.831846015,0.327696915,0.23132265
1764766826.7595327,2.54842,27.9258,-17.3201,-0.831846015,0.327696915,0.23132265
1764766826.7595327,26.52188,25.04166,-21.4403,-0.85961694,0.310118835,0.230040915
1764766826.7595327,26.52188,25.04166,-21.4403,-0.85961694,0.310118835,0.230040915
1764766826.7595327,26.52188,25.04166,-21.4403,-0.85961694,0.310118835,0.230040915
1764766826.7595327,26.52188,25.04166,-21.4403,-0.85961694,0.310118835,0.230040915
1764766826.7595327,26.52188,25.04166,-21.4403,-0.85961694,0.310118835,0.230040915
1764766826.7595327,26.52188,25.04166,-21.4403,-0.85961694,0.310118835,0.230040915
1764766826.7595327,26.52188,25.04166,-21.4403,-0.85961694,0.310118835,0.230040915
1764766826.7595327,26.52188,25.04166,-21.4403,-0.85961694,0.310118835,0.230040915
1764766826.7595327,26.52188,25.04166,-21.4403,-0.85961694,0.310118835,0.230040915
1764766826.7595327,26.52188,25.04166,-21.4403,-0.85961694,0.310118835,0.230040915
1764766826.7595327,41.55298,24.62964,-18.6935,-0.87487569,0.319518225,0.230529195
1764766826.7595327,41.55298,24.62964,-18.6935,-0.87487569,0.319518225,0.230529195
1764766826.7595327,41.55298,24.62964,-18.6935,-0.87487569,0.319518225,0.230529195
1764766826.7595327,41.55298,24.62964,-18.6935,-0.87487569,0.319518225,0.230529195
1764766826.7595327,41.55298,24.62964,-18.6935,-0.87487569,0.319518225,0.230529195
1764766826.7595327,41.55298,24.62964,-18.6935,-0.87487569,0.319518225,0.230529195
1764766826.7595327,41.55298,24.62964,-18.6935,-0.87487569,0.319518225,0.230529195
1764766826.7595327,41.55298,24.62964,-18.6935,-0.87487569,0.319518225,0.230529195
1764766826.8066795,41.55298,24.62964,-18.6935,-0.87487569,0.319518225,0.230529195
1764766826.8066795,41.55298,24.62964,-18.6935,-0.87487569,0.319518225,0.230529195
1764766826.8066795,51.3499,30.52,-17.3201,-0.87621846,0.31420818,0.233458875
1764766826.8066795,51.3499,30.52,-17.3201,-0.87621846,0.31420818,0.233458875
1764766826.8066795,51.3499,30.52,-17.3201,-0.87621846,0.31420818,0.233458875
1764766826.8066795,51.3499,30.52,-17.3201,-0.87621846,0.31420818,0.233458875
1764766826.8066795,51.3499,30.52,-17.3201,-0.87621846,0.31420818,0.233458875
1764766826.8066795,51.3499,30.52,-17.3201,-0.87621846,0.31420818,0.233458875
1764766826.8066795,51.3499,30.52,-17.3201,-0.87621846,0.31420818,0.233458875
1764766826.8066795,51.3499,30.52,-17.3201,-0.87621846,0.31420818,0.233458875
1764766826.849635,51.3499,30.52,-17.3201,-0.87621846,0.31420818,0.233458875
1764766826.849635,51.3499,30.52,-17.3201,-0.87621846,0.31420818,0.233458875
1764766826.849635,63.77154,30.62682,-22.14226,-0.88476336,0.296080785,0.24157653
1764766826.8508496,63.77154,30.62682,-22.14226,-0.88476336,0.296080785,0.24157653
1764766826.8508496,63.77154,30.62682,-22.14226,-0.88476336,0.296080785,0.24157653
1764766826.8508496,63.77154,30.62682,-22.14226,-0.88476336,0.296080785,0.24157653
1764766826.8508496,63.77154,30.62682,-22.14226,-0.88476336,0.296080785,0.24157653
1764766826.8508496,63.77154,30.62682,-22.14226,-0.88476336,0.296080785,0.24157653
1764766826.8508496,63.77154,30.62682,-22.14226,-0.88476336,0.296080785,0.24157653
1764766826.8508496,63.77154,30.62682,-22.14226,-0.88476336,0.296080785,0.24157653
1764766826.8508496,63.77154,30.62682,-22.14226,-0.88476336,0.296080785,0.24157653
1764766826.8508496,63.77154,30.62682,-22.14226,-0.88476336,0.296080785,0.24157653
1764766826.8508496,77.76496,22.70688,-26.53714,-0.90282972,0.288756585,0.24877866
1764766826.8508496,77.76496,22.70688,-26.53714,-0.90282972,0.288756585,0.24877866
1764766826.8508496,77.76496,22.70688,-26.53714,-0.90282972,0.288756585,0.24877866
1764766826.8508496,77.76496,22.70688,-26.53714,-0.90282972,0.288756585,0.24877866
1764766826.8508496,77.76496,22.70688,-26.53714,-0.90282972,0.288756585,0.24877866
1764766826.8508496,77.76496,22.70688,-26.53714,-0.90282972,0.288756585,0.24877866
1764766826.8508496,77.76496,22.70688,-26.53714,-0.90282972,0.288756585,0.24877866
1764766826.8508496,77.76496,22.70688,-26.53714,-0.90282972,0.288756585,0.24877866
1764766826.8508496,77.76496,22.70688,-26.53714,-0.90282972,0.288756585,0.24877866
1764766826.8508496,77.76496,22.70688,-26.53714,-0.90282972,0.288756585,0.24877866
1764766826.8508496,83.64005999999999,13.41354,-30.18428,-0.920468835,0.29931564,0.25366146
1764766826.8508496,83.64005999999999,13.41354,-30.18428,-0.920468835,0.29931564,0.25366146
1764766826.8508496,83.64005999999999,13.41354,-30.18428,-0.920468835,0.29931564,0.25366146
1764766826.8508496,83.64005999999999,13.41354,-30.18428,-0.920468835,0.29931564,0.25366146
1764766826.8508496,83.64005999999999,13.41354,-30.18428,-0.920468835,0.29931564,0.25366146
1764766826.8508496,83.64005999999999,13.41354,-30.18428,-0.920468835,0.29931564,0.25366146
1764766826.8508496,83.64005999999999,13.41354,-30.18428,-0.920468835,0.29931564,0.25366146
1764766826.8508496,83.64005999999999,13.41354,-30.18428,-0.920468835,0.29931564,0.25366146
1764766826.8508496,83.64005999999999,13.41354,-30.18428,-0.920468835,0.29931564,0.25366146
1764766826.8508496,83.64005999999999,13.41354,-30.18428,-0.920468835,0.29931564,0.25366146
1764766826.8508496,87.76026,8.95762,-33.02264,-0.921933675,0.32336343,0.247252785
1764766826.8508496,87.76026,8.95762,-33.02264,-0.921933675,0.32336343,0.247252785
1764766826.8508496,87.76026,8.95762,-33.02264,-0.921933675,0.32336343,0.247252785
1764766826.8508496,87.76026,8.95762,-33.02264,-0.921933675,0.32336343,0.247252785
1764766826.8520238,87.76026,8.95762,-33.02264,-0.921933675,0.32336343,0.247252785
1764766826.8520238,87.76026,8.95762,-33.02264,-0.921933675,0.32336343,0.247252785
1764766826.8983524,87.76026,8.95762,-33.02264,-0.921933675,0.32336343,0.247252785
1764766826.8983524,87.76026,8.95762,-33.02264,-0.921933675,0.32336343,0.247252785
1764766826.8983524,87.76026,8.95762,-33.02264,-0.921933675,0.32336343,0.247252785
1764766826.8983524,87.76026,8.95762,-33.02264,-0.921933675,0.32336343,0.247252785
1764766826.8983524,86.9057,4.02864,-30.94728,-0.91979745,0.361998585,0.23864685
1764766826.8983524,86.9057,4.02864,-30.94728,-0.91979745,0.361998585,0.23864685
1764766826.8983524,86.9057,4.02864,-30.94728,-0.91979745,0.361998585,0.23864685
1764766826.8983524,86.9057,4.02864,-30.94728,-0.91979745,0.361998585,0.23864685
1764766826.8983524,86.9057,4.02864,-30.94728,-0.91979745,0.361998585,0.23864685
1764766826.8983524,86.9057,4.02864,-30.94728,-0.91979745,0.361998585,0.23864685
1764766826.8983524,86.9057,4.02864,-30.94728,-0.91979745,0.361998585,0.23864685
1764766826.8983524,86.9057,4.02864,-30.94728,-0.91979745,0.361998585,0.23864685
1764766826.8983524,86.9057,4.02864,-30.94728,-0.91979745,0.361998585,0.23864685
1764766826.8983524,86.9057,4.02864,-30.94728,-0.91979745,0.361998585,0.23864685
1764766826.8983524,78.9705,2.12114,-29.20764,-0.915219825,0.398863725,0.229674705
1764766826.8983524,78.9705,2.12114,-29.20764,-0.915219825,0.398863725,0.229674705
1764766826.8983524,78.9705,2.12114,-29.20764,-0.915219825,0.398863725,0.229674705
1764766826.8983524,78.9705,2.12114,-29.20764,-0.915219825,0.398863725,0.229674705
1764766826.8983524,78.9705,2.12114,-29.20764,-0.915219825,0.398863725,0.229674705
1764766826.8983524,78.9705,2.12114,-29.20764,-0.915219825,0.398863725,0.229674705
1764766826.8983524,78.9705,2.12114,-29.20764,-0.915219825,0.398863725,0.229674705
1764766826.8983524,78.9705,2.12114,-29.20764,-0.915219825,0.398863725,0.229674705
1764766826.945949,78.9705,2.12114,-29.20764,-0.915219825,0.398863725,0.229674705
1764766826.945949,78.9705,2.12114,-29.20764,-0.915219825,0.398863725,0.229674705
1764766826.945949,68.41058,1.51074,-28.04788,-0.905210085,0.42980847,0.21984807
1764766826.945949,68.41058,1.51074,-28.04788,-0.905210085,0.42980847,0.21984807
1764766826.945949,68.41058,1.51074,-28.04788,-0.905210085,0.42980847,0.21984807
1764766826.945949,68.41058,1.51074,-28.04788,-0.905210085,0.42980847,0.21984807
1764766826.945949,68.41058,1.51074,-28.04788,-0.905210085,0.42980847,0.21984807
1764766826.945949,68.41058,1.51074,-28.04788,-0.905210085,0.42980847,0.21984807
1764766826.945949,68.41058,1.51074,-28.04788,-0.905210085,0.42980847,0.21984807
1764766826.945949,68.41058,1.51074,-28.04788,-0.905210085,0.42980847,0.21984807
1764766826.945949,68.41058,1.51074,-28.04788,-0.905210085,0.42980847,0.21984807
1764766826.945949,68.41058,1.51074,-28.04788,-0.905210085,0.42980847,0.21984807
1764766826.945949,56.78246,1.2208,-25.51472,-0.89623794,0.447691725,0.208190385
1764766826.945949,56.78246,1.2208,-25.51472,-0.89623794,0.447691725,0.208190385
1764766826.945949,56.78246,1.2208,-25.51472,-0.89623794,0.447691725,0.208190385
1764766826.9470172,56.78246,1.2208,-25.51472,-0.89623794,0.447691725,0.208190385
1764766826.9470172,56.78246,1.2208,-25.51472,-0.89623794,0.447691725,0.208190385
1764766826.9470172,56.78246,1.2208,-25.51472,-0.89623794,0.447691725,0.208190385
1764766826.9470172,56.78246,1.2208,-25.51472,-0.89623794,0.447691725,0.208190385
1764766826.9470172,56.78246,1.2208,-25.51472,-0.89623794,0.447691725,0.208190385
1764766826.9470172,56.78246,1.2208,-25.51472,-0.89623794,0.447691725,0.208190385
1764766826.9470172,56.78246,1.2208,-25.51472,-0.89623794,0.447691725,0.208190385
1764766826.9470172,48.40472,2.8994,-24.59912,-0.886899585,0.453306945,0.19726512
1764766826.9480157,48.40472,2.8994,-24.59912,-0.886899585,0.453306945,0.19726512
1764766826.9480157,48.40472,2.8994,-24.59912,-0.886899585,0.453306945,0.19726512
1764766826.9480157,48.40472,2.8994,-24.59912,-0.886899585,0.453306945,0.19726512
1764766826.9915893,48.40472,2.8994,-24.59912,-0.886899585,0.453306945,0.19726512
1764766826.9915893,48.40472,2.8994,-24.59912,-0.886899585,0.453306945,0.19726512
1764766826.9915893,48.40472,2.8994,-24.59912,-0.886899585,0.453306945,0.19726512
1764766826.9915893,48.40472,2.8994,-24.59912,-0.886899585,0.453306945,0.19726512
1764766826.9915893,48.40472,2.8994,-24.59912,-0.886899585,0.453306945,0.19726512
1764766826.9915893,48.40472,2.8994,-24.59912,-0.886899585,0.453306945,0.19726512
1764766826.9915893,36.71556,5.32574,-24.24814,-0.87865986,0.455382135,0.188659185
1764766826.9915893,36.71556,5.32574,-24.24814,-0.87865986,0.455382135,0.188659185
1764766826.9915893,36.71556,5.32574,-24.24814,-0.87865986,0.455382135,0.188659185
1764766826.9915893,36.71556,5.32574,-24.24814,-0.87865986,0.455382135,0.188659185
1764766826.9915893,36.71556,5.32574,-24.24814,-0.87865986,0.455382135,0.188659185
1764766826.9915893,36.71556,5.32574,-24.24814,-0.87865986,0.455382135,0.188659185
1764766826.9915893,36.71556,5.32574,-24.24814,-0.87865986,0.455382135,0.188659185
1764766826.9915893,36.71556,5.32574,-24.24814,-0.87865986,0.455382135,0.188659185
1764766826.9915893,36.71556,5.32574,-24.24814,-0.87865986,0.455382135,0.188659185
1764766826.9915893,36.71556,5.32574,-24.24814,-0.87865986,0.455382135,0.188659185
1764766826.9925966,28.18522,10.78882,-25.6368,-0.8642556,0.45617559,0.174132855
1764766826.9925966,28.18522,10.78882,-25.6368,-0.8642556,0.45617559,0.174132855
1764766826.9925966,28.18522,10.78882,-25.6368,-0.8642556,0.45617559,0.174132855
1764766826.9925966,28.18522,10.78882,-25.6368,-0.8642556,0.45617559,0.174132855
1764766827.0389934,28.18522,10.78882,-25.6368,-0.8642556,0.45617559,0.174132855
1764766827.0389934,28.18522,10.78882,-25.6368,-0.8642556,0.45617559,0.174132855
1764766827.0389934,28.18522,10.78882,-25.6368,-0.8642556,0.45617559,0.174132855
1764766827.039525,28.18522,10.78882,-25.6368,-0.8642556,0.45617559,0.174132855
1764766827.039525,28.18522,10.78882,-25.6368,-0.8642556,0.45617559,0.174132855
1764766827.039525,28.18522,10.78882,-25.6368,-0.8642556,0.45617559,0.174132855
1764766827.039525,22.47798,12.57424,-24.82802,-0.86047143,0.45629766,0.159240315
1764766827.039525,22.47798,12.57424,-24.82802,-0.86047143,0.45629766,0.159240315
1764766827.039525,22.47798,12.57424,-24.82802,-0.86047143,0.45629766,0.159240315
1764766827.039525,22.47798,12.57424,-24.82802,-0.86047143,0.45629766,0.159240315
1764766827.039525,22.47798,12.57424,-24.82802,-0.86047143,0.45629766,0.159240315
1764766827.039525,22.47798,12.57424,-24.82802,-0.86047143,0.45629766,0.159240315
1764766827.039525,22.47798,12.57424,-24.82802,-0.86047143,0.45629766,0.159240315
1764766827.039525,22.47798,12.57424,-24.82802,-0.86047143,0.45629766,0.159240315
1764766827.039525,22.47798,12.57424,-24.82802,-0.86047143,0.45629766,0.159240315
1764766827.039525,22.47798,12.57424,-24.82802,-0.86047143,0.45629766,0.159240315
1764766827.039525,20.53996,10.01056,-23.22572,-0.8676735600000001,0.45361212,0.156798915
1764766827.039525,20.53996,10.01056,-23.22572,-0.8676735600000001,0.45361212,0.156798915
1764766827.039525,20.53996,10.01056,-23.22572,-0.8676735600000001,0.45361212,0.156798915
1764766827.039525,20.53996,10.01056,-23.22572,-0.8676735600000001,0.45361212,0.156798915
1764766827.039525,20.53996,10.01056,-23.22572,-0.8676735600000001,0.45361212,0.156798915
1764766827.039525,20.53996,10.01056,-23.22572,-0.8676735600000001,0.45361212,0.156798915
1764766827.0846436,20.53996,10.01056,-23.22572,-0.8676735600000001,0.45361212,0.156798915
1764766827.0846436,20.53996,10.01056,-23.22572,-0.8676735600000001,0.45361212,0.156798915
1764766827.0846436,20.53996,10.01056,-23.22572,-0.8676735600000001,0.45361212,0.156798915
1764766827.0846436,20.53996,10.01056,-23.22572,-0.8676735600000001,0.45361212,0.156798915
1764766827.0846436,21.5929,5.67672,-16.99964,-0.8755470750000001,0.45153693,0.16308552
1764766827.0846436,21.5929,5.67672,-16.99964,-0.8755470750000001,0.45153693,0.16308552
1764766827.0846436,21.5929,5.67672,-16.99964,-0.8755470750000001,0.45153693,0.16308552
1764766827.0846436,21.5929,5.67672,-16.99964,-0.8755470750000001,0.45153693,0.16308552
1764766827.0846436,21.5929,5.67672,-16.99964,-0.8755470750000001,0.45153693,0.16308552
1764766827.0846436,21.5929,5.67672,-16.99964,-0.8755470750000001,0.45153693,0.16308552
1764766827.0846436,21.5929,5.67672,-16.99964,-0.8755470750000001,0.45153693,0.16308552
1764766827.085169,21.5929,5.67672,-16.99964,-0.8755470750000001,0.45153693,0.16308552
1764766827.085169,21.5929,5.67672,-16.99964,-0.8755470750000001,0.45153693,0.16308552
1764766827.085169,21.5929,5.67672,-16.99964,-0.8755470750000001,0.45153693,0.16308552
1764766827.085169,20.35684,1.92276,-12.37586,-0.881650575,0.44579964,0.170836965
1764766827.085169,20.35684,1.92276,-12.37586,-0.881650575,0.44579964,0.170836965
1764766827.085169,20.35684,1.92276,-12.37586,-0.881650575,0.44579964,0.170836965
1764766827.085169,20.35684,1.92276,-12.37586,-0.881650575,0.44579964,0.170836965
1764766827.085169,20.35684,1.92276,-12.37586,-0.881650575,0.44579964,0.170836965
1764766827.085169,20.35684,1.92276,-12.37586,-0.881650575,0.44579964,0.170836965
1764766827.0856826,20.35684,1.92276,-12.37586,-0.881650575,0.44579964,0.170836965
1764766827.0856826,20.35684,1.92276,-12.37586,-0.881650575,0.44579964,0.170836965
1764766827.0856826,20.35684,1.92276,-12.37586,-0.881650575,0.44579964,0.170836965
1764766827.0856826,20.35684,1.92276,-12.37586,-0.881650575,0.44579964,0.170836965
1764766827.0856826,15.06162,-2.85362,-5.508859999999999,-0.888242355,0.44409066,0.17565873
1764766827.0856826,15.06162,-2.85362,-5.508859999999999,-0.888242355,0.44409066,0.17565873
1764766827.0856826,15.06162,-2.85362,-5.508859999999999,-0.888242355,0.44409066,0.17565873
1764766827.0862062,15.06162,-2.85362,-5.508859999999999,-0.888242355,0.44409066,0.17565873
1764766827.1317592,15.06162,-2.85362,-5.508859999999999,-0.888242355,0.44409066,0.17565873
1764766827.1317592,15.06162,-2.85362,-5.508859999999999,-0.888242355,0.44409066,0.17565873
1764766827.1317592,15.06162,-2.85362,-5.508859999999999,-0.888242355,0.44409066,0.17565873
1764766827.1317592,15.06162,-2.85362,-5.508859999999999,-0.888242355,0.44409066,0.17565873
1764766827.1317592,15.06162,-2.85362,-5.508859999999999,-0.888242355,0.44409066,0.17565873
1764766827.1317592,15.06162,-2.85362,-5.508859999999999,-0.888242355,0.44409066,0.17565873
1764766827.1317592,2.79258,-4.66956,-0.6103999999999999,-0.8928810150000001,0.4455555,0.17529252
1764766827.1317592,2.79258,-4.66956,-0.6103999999999999,-0.8928810150000001,0.4455555,0.17529252
1764766827.1317592,2.79258,-4.66956,-0.6103999999999999,-0.8928810150000001,0.4455555,0.17529252
1764766827.1317592,2.79258,-4.66956,-0.6103999999999999,-0.8928810150000001,0.4455555,0.17529252
1764766827.1317592,2.79258,-4.66956,-0.6103999999999999,-0.8928810150000001,0.4455555,0.17529252
1764766827.1317592,2.79258,-4.66956,-0.6103999999999999,-0.8928810150000001,0.4455555,0.17529252
1764766827.1317592,2.79258,-4.66956,-0.6103999999999999,-0.8928810150000001,0.4455555,0.17529252
1764766827.1317592,2.79258,-4.66956,-0.6103999999999999,-0.8928810150000001,0.4455555,0.17529252
1764766827.1780086,2.79258,-4.66956,-0.6103999999999999,-0.8928810150000001,0.4455555,0.17529252
1764766827.1780086,2.79258,-4.66956,-0.6103999999999999,-0.8928810150000001,0.4455555,0.17529252
1764766827.1780086,-4.6543,-5.06632,-0.09156,-0.8984352,0.44323617,0.174743205
1764766827.1780086,-4.6543,-5.06632,-0.09156,-0.8984352,0.44323617,0.174743205
1764766827.1780086,-4.6543,-5.06632,-0.09156,-0.8984352,0.44323617,0.174743205
1764766827.1780086,-4.6543,-5.06632,-0.09156,-0.8984352,0.44323617,0.174743205
1764766827.1780086,-4.6543,-5.06632,-0.09156,-0.8984352,0.44323617,0.174743205
1764766827.1780086,-4.6543,-5.06632,-0.09156,-0.8984352,0.44323617,0.174743205
1764766827.1795316,-4.6543,-5.06632,-0.09156,-0.8984352,0.44323617,0.174743205
1764766827.1795316,-4.6543,-5.06632,-0.09156,-0.8984352,0.44323617,0.174743205
1764766827.1795316,-4.6543,-5.06632,-0.09156,-0.8984352,0.44323617,0.174743205
1764766827.1795316,-4.6543,-5.06632,-0.09156,-0.8984352,0.44323617,0.174743205
1764766827.1795316,-13.55088,-4.66956,1.1445,-0.898252095,0.44018442,0.17028765
1764766827.1795316,-13.55088,-4.66956,1.1445,-0.898252095,0.44018442,0.17028765
1764766827.1795316,-13.55088,-4.66956,1.1445,-0.898252095,0.44018442,0.17028765
1764766827.1806967,-13.55088,-4.66956,1.1445,-0.898252095,0.44018442,0.17028765
1764766827.1806967,-13.55088,-4.66956,1.1445,-0.898252095,0.44018442,0.17028765
1764766827.1806967,-13.55088,-4.66956,1.1445,-0.898252095,0.44018442,0.17028765
1764766827.1806967,-13.55088,-4.66956,1.1445,-0.898252095,0.44018442,0.17028765
1764766827.1806967,-13.55088,-4.66956,1.1445,-0.898252095,0.44018442,0.17028765
1764766827.1806967,-13.55088,-4.66956,1.1445,-0.898252095,0.44018442,0.17028765
1764766827.1806967,-13.55088,-4.66956,1.1445,-0.898252095,0.44018442,0.17028765
1764766827.1817276,-21.56238,-2.07536,-1.9838,-0.892392735,0.428770875,0.16271931
1764766827.1817276,-21.56238,-2.07536,-1.9838,-0.892392735,0.428770875,0.16271931
1764766827.1817276,-21.56238,-2.07536,-1.9838,-0.892392735,0.428770875,0.16271931
1764766827.1817276,-21.56238,-2.07536,-1.9838,-0.892392735,0.428770875,0.16271931
1764766827.1817276,-21.56238,-2.07536,-1.9838,-0.892392735,0.428770875,0.16271931
1764766827.1817276,-21.56238,-2.07536,-1.9838,-0.892392735,0.428770875,0.16271931
1764766827.1817276,-21.56238,-2.07536,-1.9838,-0.892392735,0.428770875,0.16271931
1764766827.1817276,-21.56238,-2.07536,-1.9838,-0.892392735,0.428770875,0.16271931
1764766827.1817276,-21.56238,-2.07536,-1.9838,-0.892392735,0.428770875,0.16271931
1764766827.1817276,-21.56238,-2.07536,-1.9838,-0.892392735,0.428770875,0.16271931
1764766827.2251024,-24.46178,1.09872,-2.86888,-0.8860450950000001,0.4089345,0.156432705
1764766827.2256286,-24.46178,1.09872,-2.86888,-0.8860450950000001,0.4089345,0.156432705
1764766827.2256286,-24.46178,1.09872,-2.86888,-0.8860450950000001,0.4089345,0.156432705
1764766827.2256286,-24.46178,1.09872,-2.86888,-0.8860450950000001,0.4089345,0.156432705
1764766827.2256286,-24.46178,1.09872,-2.86888,-0.8860450950000001,0.4089345,0.156432705
1764766827.2256286,-24.46178,1.09872,-2.86888,-0.8860450950000001,0.4089345,0.156432705
1764766827.2256286,-24.46178,1.09872,-2.86888,-0.8860450950000001,0.4089345,0.156432705
1764766827.2256286,-24.46178,1.09872,-2.86888,-0.8860450950000001,0.4089345,0.156432705
1764766827.2256286,-24.46178,1.09872,-2.86888,-0.8860450950000001,0.4089345,0.156432705
1764766827.2256286,-24.46178,1.09872,-2.86888,-0.8860450950000001,0.4089345,0.156432705
1764766827.2717035,-19.85326,2.19744,-3.5861,-0.88464129,0.38928123,0.151916115
1764766827.2717035,-19.85326,2.19744,-3.5861,-0.88464129,0.38928123,0.151916115
1764766827.2717035,-19.85326,2.19744,-3.5861,-0.88464129,0.38928123,0.151916115
1764766827.2717035,-19.85326,2.19744,-3.5861,-0.88464129,0.38928123,0.151916115
1764766827.2717035,-19.85326,2.19744,-3.5861,-0.88464129,0.38928123,0.151916115
1764766827.2717035,-19.85326,2.19744,-3.5861,-0.88464129,0.38928123,0.151916115
1764766827.2717035,-19.85326,2.19744,-3.5861,-0.88464129,0.38928123,0.151916115
1764766827.2717035,-19.85326,2.19744,-3.5861,-0.88464129,0.38928123,0.151916115
1764766827.2717035,-19.85326,2.19744,-3.5861,-0.88464129,0.38928123,0.151916115
1764766827.2717035,-19.85326,2.19744,-3.5861,-0.88464129,0.38928123,0.151916115
1764766827.2717035,-12.00962,1.89224,-2.16692,-0.88476336,0.374449725,0.147643665
1764766827.2717035,-12.00962,1.89224,-2.16692,-0.88476336,0.374449725,0.147643665
1764766827.2730606,-12.00962,1.89224,-2.16692,-0.88476336,0.374449725,0.147643665
1764766827.2730606,-12.00962,1.89224,-2.16692,-0.88476336,0.374449725,0.147643665
1764766827.2740586,-12.00962,1.89224,-2.16692,-0.88476336,0.374449725,0.147643665
1764766827.2740586,-12.00962,1.89224,-2.16692,-0.88476336,0.374449725,0.147643665
1764766827.2740586,-12.00962,1.89224,-2.16692,-0.88476336,0.374449725,0.147643665
1764766827.2740586,-12.00962,1.89224,-2.16692,-0.88476336,0.374449725,0.147643665
1764766827.2740586,-12.00962,1.89224,-2.16692,-0.88476336,0.374449725,0.147643665
1764766827.2740586,-12.00962,1.89224,-2.16692,-0.88476336,0.374449725,0.147643665
1764766827.2740586,-5.27996,3.21986,-1.6022999999999998,-0.883603695,0.364073775,0.14562951
1764766827.2740586,-5.27996,3.21986,-1.6022999999999998,-0.883603695,0.364073775,0.14562951
1764766827.2750568,-5.27996,3.21986,-1.6022999999999998,-0.883603695,0.364073775,0.14562951
1764766827.2750568,-5.27996,3.21986,-1.6022999999999998,-0.883603695,0.364073775,0.14562951
1764766827.2750568,-5.27996,3.21986,-1.6022999999999998,-0.883603695,0.364073775,0.14562951
1764766827.2750568,-5.27996,3.21986,-1.6022999999999998,-0.883603695,0.364073775,0.14562951
1764766827.2750568,-5.27996,3.21986,-1.6022999999999998,-0.883603695,0.364073775,0.14562951
1764766827.2750568,-5.27996,3.21986,-1.6022999999999998,-0.883603695,0.364073775,0.14562951
1764766827.2750568,-5.27996,3.21986,-1.6022999999999998,-0.883603695,0.364073775,0.14562951
1764766827.2750568,-5.27996,3.21986,-1.6022999999999998,-0.883603695,0.364073775,0.14562951
1764766827.2750568,1.0682,3.2046,-1.12924,-0.882749205,0.35986236,0.145690545
1764766827.2750568,1.0682,3.2046,-1.12924,-0.882749205,0.35986236,0.145690545
1764766827.2750568,1.0682,3.2046,-1.12924,-0.882749205,0.35986236,0.145690545
1764766827.2750568,1.0682,3.2046,-1.12924,-0.882749205,0.35986236,0.145690545
1764766827.2750568,1.0682,3.2046,-1.12924,-0.882749205,0.35986236,0.145690545
1764766827.2750568,1.0682,3.2046,-1.12924,-0.882749205,0.35986236,0.145690545
1764766827.32118,1.0682,3.2046,-1.12924,-0.882749205,0.35986236,0.145690545
1764766827.32118,1.0682,3.2046,-1.12924,-0.882749205,0.35986236,0.145690545
1764766827.32118,1.0682,3.2046,-1.12924,-0.882749205,0.35986236,0.145690545
1764766827.32118,1.0682,3.2046,-1.12924,-0.882749205,0.35986236,0.145690545
1764766827.32118,2.39582,3.37246,0.0,-0.8839699050000001,0.36816312,0.14733849
1764766827.32118,2.39582,3.37246,0.0,-0.8839699050000001,0.36816312,0.14733849
1764766827.32118,2.39582,3.37246,0.0,-0.8839699050000001,0.36816312,0.14733849
1764766827.32118,2.39582,3.37246,0.0,-0.8839699050000001,0.36816312,0.14733849
1764766827.32118,2.39582,3.37246,0.0,-0.8839699050000001,0.36816312,0.14733849
1764766827.32118,2.39582,3.37246,0.0,-0.8839699050000001,0.36816312,0.14733849
1764766827.32118,2.39582,3.37246,0.0,-0.8839699050000001,0.36816312,0.14733849
1764766827.32118,2.39582,3.37246,0.0,-0.8839699050000001,0.36816312,0.14733849
1764766827.32118,2.39582,3.37246,0.0,-0.8839699050000001,0.36816312,0.14733849
1764766827.32118,2.39582,3.37246,0.0,-0.8839699050000001,0.36816312,0.14733849
1764766827.32118,-1.19028,3.84552,-0.03052,-0.8854957800000001,0.380919435,0.15100059
1764766827.32118,-1.19028,3.84552,-0.03052,-0.8854957800000001,0.380919435,0.15100059
1764766827.32118,-1.19028,3.84552,-0.03052,-0.8854957800000001,0.380919435,0.15100059
1764766827.32118,-1.19028,3.84552,-0.03052,-0.8854957800000001,0.380919435,0.15100059
1764766827.32118,-1.19028,3.84552,-0.03052,-0.8854957800000001,0.380919435,0.15100059
1764766827.32118,-1.19028,3.84552,-0.03052,-0.8854957800000001,0.380919435,0.15100059
1764766827.32118,-1.19028,3.84552,-0.03052,-0.8854957800000001,0.380919435,0.15100059
1764766827.32118,-1.19028,3.84552,-0.03052,-0.8854957800000001,0.380919435,0.15100059
1764766827.32118,-1.19028,3.84552,-0.03052,-0.8854957800000001,0.380919435,0.15100059
1764766827.32118,-1.19028,3.84552,-0.03052,-0.8854957800000001,0.380919435,0.15100059
1764766827.367272,-5.29522,4.24228,-1.00716,-0.885800955,0.387022935,0.157409265
1764766827.367272,-5.29522,4.24228,-1.00716,-0.885800955,0.387022935,0.157409265
1764766827.367272,-5.29522,4.24228,-1.00716,-0.885800955,0.387022935,0.157409265
1764766827.367272,-5.29522,4.24228,-1.00716,-0.885800955,0.387022935,0.157409265
1764766827.367272,-5.29522,4.24228,-1.00716,-0.885800955,0.387022935,0.157409265
1764766827.367272,-5.29522,4.24228,-1.00716,-0.885800955,0.387022935,0.157409265
1764766827.367272,-5.29522,4.24228,-1.00716,-0.885800955,0.387022935,0.157409265
1764766827.367272,-5.29522,4.24228,-1.00716,-0.885800955,0.387022935,0.157409265
1764766827.367272,-5.29522,4.24228,-1.00716,-0.885800955,0.387022935,0.157409265
1764766827.367272,-5.29522,4.24228,-1.00716,-0.885800955,0.387022935,0.157409265
1764766827.367272,-8.9271,4.28806,-1.9838,-0.88793718,0.3869619,0.16394001
1764766827.367272,-8.9271,4.28806,-1.9838,-0.88793718,0.3869619,0.16394001
1764766827.367272,-8.9271,4.28806,-1.9838,-0.88793718,0.3869619,0.16394001
1764766827.367272,-8.9271,4.28806,-1.9838,-0.88793718,0.3869619,0.16394001
1764766827.367272,-8.9271,4.28806,-1.9838,-0.88793718,0.3869619,0.16394001
1764766827.367272,-8.9271,4.28806,-1.9838,-0.88793718,0.3869619,0.16394001
1764766827.3682609,-8.9271,4.28806,-1.9838,-0.88793718,0.3869619,0.16394001
1764766827.3682609,-8.9271,4.28806,-1.9838,-0.88793718,0.3869619,0.16394001
1764766827.3682609,-8.9271,4.28806,-1.9838,-0.88793718,0.3869619,0.16394001
1764766827.3682609,-8.9271,4.28806,-1.9838,-0.88793718,0.3869619,0.16394001
1764766827.3682609,-10.71252,3.29616,-2.83836,-0.89257584,0.384459465,0.16857867
1764766827.3682609,-10.71252,3.29616,-2.83836,-0.89257584,0.384459465,0.16857867
1764766827.4154313,-10.71252,3.29616,-2.83836,-0.89257584,0.384459465,0.16857867
1764766827.4154313,-10.71252,3.29616,-2.83836,-0.89257584,0.384459465,0.16857867
1764766827.4154313,-10.71252,3.29616,-2.83836,-0.89257584,0.384459465,0.16857867
1764766827.4154313,-10.71252,3.29616,-2.83836,-0.89257584,0.384459465,0.16857867
1764766827.4154313,-10.71252,3.29616,-2.83836,-0.89257584,0.384459465,0.16857867
1764766827.4154313,-10.71252,3.29616,-2.83836,-0.89257584,0.384459465,0.16857867
1764766827.4154313,-10.71252,3.29616,-2.83836,-0.89257584,0.384459465,0.16857867
1764766827.4154313,-10.71252,3.29616,-2.83836,-0.89257584,0.384459465,0.16857867
1764766827.4154313,-12.22326,2.04484,-2.53316,-0.898130025,0.381651855,0.17077593
1764766827.4154313,-12.22326,2.04484,-2.53316,-0.898130025,0.381651855,0.17077593
1764766827.4154313,-12.22326,2.04484,-2.53316,-0.898130025,0.381651855,0.17077593
1764766827.4154313,-12.22326,2.04484,-2.53316,-0.898130025,0.381651855,0.17077593
1764766827.4154313,-12.22326,2.04484,-2.53316,-0.898130025,0.381651855,0.17077593
1764766827.4154313,-12.22326,2.04484,-2.53316,-0.898130025,0.381651855,0.17077593
1764766827.4154313,-12.22326,2.04484,-2.53316,-0.898130025,0.381651855,0.17077593
1764766827.4154313,-12.22326,2.04484,-2.53316,-0.898130025,0.381651855,0.17077593
1764766827.4154313,-12.22326,2.04484,-2.53316,-0.898130025,0.381651855,0.17077593
1764766827.4154313,-12.22326,2.04484,-2.53316,-0.898130025,0.381651855,0.17077593
1764766827.4154313,-12.3606,1.93802,-2.71628,-0.9002052150000001,0.37866114,0.169982475
1764766827.4154313,-12.3606,1.93802,-2.71628,-0.9002052150000001,0.37866114,0.169982475
1764766827.4154313,-12.3606,1.93802,-2.71628,-0.9002052150000001,0.37866114,0.169982475
1764766827.4154313,-12.3606,1.93802,-2.71628,-0.9002052150000001,0.37866114,0.169982475
1764766827.4154313,-12.3606,1.93802,-2.71628,-0.9002052150000001,0.37866114,0.169982475
1764766827.4154313,-12.3606,1.93802,-2.71628,-0.9002052150000001,0.37866114,0.169982475
1764766827.4154313,-12.3606,1.93802,-2.71628,-0.9002052150000001,0.37866114,0.169982475
1764766827.4154313,-12.3606,1.93802,-2.71628,-0.9002052150000001,0.37866114,0.169982475
1764766827.4618316,-12.3606,1.93802,-2.71628,-0.9002052150000001,0.37866114,0.169982475
1764766827.4618316,-12.3606,1.93802,-2.71628,-0.9002052150000001,0.37866114,0.169982475
1764766827.4618316,-11.24662,1.48022,-2.62472,-0.900449355,0.372252465,0.1684566
1764766827.4618316,-11.24662,1.48022,-2.62472,-0.900449355,0.372252465,0.1684566
1764766827.4618316,-11.24662,1.48022,-2.62472,-0.900449355,0.372252465,0.1684566
1764766827.4618316,-11.24662,1.48022,-2.62472,-0.900449355,0.372252465,0.1684566
1764766827.4618316,-11.24662,1.48022,-2.62472,-0.900449355,0.372252465,0.1684566
1764766827.4618316,-11.24662,1.48022,-2.62472,-0.900449355,0.372252465,0.1684566
1764766827.4618316,-11.24662,1.48022,-2.62472,-0.900449355,0.372252465,0.1684566
1764766827.4618316,-11.24662,1.48022,-2.62472,-0.900449355,0.372252465,0.1684566
1764766827.4618316,-11.24662,1.48022,-2.62472,-0.900449355,0.372252465,0.1684566
1764766827.4618316,-11.24662,1.48022,-2.62472,-0.900449355,0.372252465,0.1684566
1764766827.4618316,-8.33196,1.7549,-1.43444,-0.89941176,0.366515175,0.16662555
1764766827.4618316,-8.33196,1.7549,-1.43444,-0.89941176,0.366515175,0.16662555
1764766827.4618316,-8.33196,1.7549,-1.43444,-0.89941176,0.366515175,0.16662555
1764766827.4618316,-8.33196,1.7549,-1.43444,-0.89941176,0.366515175,0.16662555
1764766827.4618316,-8.33196,1.7549,-1.43444,-0.89941176,0.366515175,0.16662555
1764766827.4618316,-8.33196,1.7549,-1.43444,-0.89941176,0.366515175,0.16662555
1764766827.4618316,-8.33196,1.7549,-1.43444,-0.89941176,0.366515175,0.16662555
1764766827.4623473,-8.33196,1.7549,-1.43444,-0.89941176,0.366515175,0.16662555
1764766827.4623473,-8.33196,1.7549,-1.43444,-0.89941176,0.366515175,0.16662555
1764766827.4623473,-8.33196,1.7549,-1.43444,-0.89941176,0.366515175,0.16662555
1764766827.5085266,-6.653359999999999,1.09872,-0.65618,-0.899716935,0.3686514,0.164245185
1764766827.509057,-6.653359999999999,1.09872,-0.65618,-0.899716935,0.3686514,0.164245185
1764766827.509057,-6.653359999999999,1.09872,-0.65618,-0.899716935,0.3686514,0.164245185
1764766827.509057,-6.653359999999999,1.09872,-0.65618,-0.899716935,0.3686514,0.164245185
1764766827.509057,-6.653359999999999,1.09872,-0.65618,-0.899716935,0.3686514,0.164245185
1764766827.509057,-6.653359999999999,1.09872,-0.65618,-0.899716935,0.3686514,0.164245185
1764766827.509057,-6.653359999999999,1.09872,-0.65618,-0.899716935,0.3686514,0.164245185
1764766827.509057,-6.653359999999999,1.09872,-0.65618,-0.899716935,0.3686514,0.164245185
1764766827.509057,-6.653359999999999,1.09872,-0.65618,-0.899716935,0.3686514,0.164245185
1764766827.509057,-6.653359999999999,1.09872,-0.65618,-0.899716935,0.3686514,0.164245185
1764766827.509057,-7.00434,1.84646,0.28994,-0.8975807100000001,0.373106955,0.16320759
1764766827.509057,-7.00434,1.84646,0.28994,-0.8975807100000001,0.373106955,0.16320759
1764766827.509057,-7.00434,1.84646,0.28994,-0.8975807100000001,0.373106955,0.16320759
1764766827.509057,-7.00434,1.84646,0.28994,-0.8975807100000001,0.373106955,0.16320759
1764766827.509057,-7.00434,1.84646,0.28994,-0.8975807100000001,0.373106955,0.16320759
1764766827.509057,-7.00434,1.84646,0.28994,-0.8975807100000001,0.373106955,0.16320759
1764766827.509057,-7.00434,1.84646,0.28994,-0.8975807100000001,0.373106955,0.16320759
1764766827.509057,-7.00434,1.84646,0.28994,-0.8975807100000001,0.373106955,0.16320759
1764766827.509057,-7.00434,1.84646,0.28994,-0.8975807100000001,0.373106955,0.16320759
1764766827.509057,-7.00434,1.84646,0.28994,-0.8975807100000001,0.373106955,0.16320759
1764766827.509057,-7.477399999999999,2.60946,0.3815,-0.89574966,0.374571795,0.164977605
1764766827.509057,-7.477399999999999,2.60946,0.3815,-0.89574966,0.374571795,0.164977605
1764766827.5548947,-7.477399999999999,2.60946,0.3815,-0.89574966,0.374571795,0.164977605
1764766827.5548947,-7.477399999999999,2.60946,0.3815,-0.89574966,0.374571795,0.164977605
1764766827.5548947,-7.477399999999999,2.60946,0.3815,-0.89574966,0.374571795,0.164977605
1764766827.5548947,-7.477399999999999,2.60946,0.3815,-0.89574966,0.374571795,0.164977605
1764766827.5548947,-7.477399999999999,2.60946,0.3815,-0.89574966,0.374571795,0.164977605
1764766827.5548947,-7.477399999999999,2.60946,0.3815,-0.89574966,0.374571795,0.164977605
1764766827.5559008,-7.477399999999999,2.60946,0.3815,-0.89574966,0.374571795,0.164977605
1764766827.5559008,-7.477399999999999,2.60946,0.3815,-0.89574966,0.374571795,0.164977605
1764766827.5559008,-7.4011,2.73154,1.12924,-0.89550552,0.37280178,0.167174865
1764766827.5559008,-7.4011,2.73154,1.12924,-0.89550552,0.37280178,0.167174865
1764766827.5559008,-7.4011,2.73154,1.12924,-0.89550552,0.37280178,0.167174865
