Timestamp,GyroX,GyroY,GyroZ,AccX,AccY,AccZ
1764767760.6948109,-3.7387,1.84646,-0.9156,-0.890073405,0.398009235,0.13940394
1764767760.6948109,-3.7387,1.84646,-0.9156,-0.890073405,0.398009235,0.13940394
1764767760.6948109,-3.7387,1.84646,-0.9156,-0.890073405,0.398009235,0.13940394
1764767760.6948109,-3.7387,1.84646,-0.9156,-0.890073405,0.398009235,0.13940394
1764767760.6953204,-3.7387,1.84646,-0.9156,-0.890073405,0.398009235,0.13940394
1764767760.6953204,-3.7387,1.84646,-0.9156,-0.890073405,0.398009235,0.13940394
1764767760.6953204,-3.8913,2.5179,3.87604,-0.888852705,0.39758199,0.13745082
1764767760.6953204,-3.8913,2.5179,3.87604,-0.888852705,0.39758199,0.13745082
1764767760.6953204,-3.8913,2.5179,3.87604,-0.888852705,0.39758199,0.13745082
1764767760.6953204,-3.8913,2.5179,3.87604,-0.888852705,0.39758199,0.13745082
1764767760.6953204,-3.8913,2.5179,3.87604,-0.888852705,0.39758199,0.13745082
1764767760.6953204,-3.8913,2.5179,3.87604,-0.888852705,0.39758199,0.13745082
1764767760.6953204,-3.8913,2.5179,3.87604,-0.888852705,0.39758199,0.13745082
1764767760.6953204,-3.8913,2.5179,3.87604,-0.888852705,0.39758199,0.13745082
1764767760.6953204,-3.8913,2.5179,3.87604,-0.888852705,0.39758199,0.13745082
1764767760.6953204,-3.8913,2.5179,3.87604,-0.888852705,0.39758199,0.13745082
1764767760.6953204,-4.1965,2.79258,0.6714399999999999,-0.887754075,0.39819234,0.13769496
1764767760.6953204,-4.1965,2.79258,0.6714399999999999,-0.887754075,0.39819234,0.13769496
1764767760.6953204,-4.1965,2.79258,0.6714399999999999,-0.887754075,0.39819234,0.13769496
1764767760.6953204,-4.1965,2.79258,0.6714399999999999,-0.887754075,0.39819234,0.13769496
1764767760.6953204,-4.1965,2.79258,0.6714399999999999,-0.887754075,0.39819234,0.13769496
1764767760.6953204,-4.1965,2.79258,0.6714399999999999,-0.887754075,0.39819234,0.13769496
1764767760.6953204,-4.1965,2.79258,0.6714399999999999,-0.887754075,0.39819234,0.13769496
1764767760.6953204,-4.1965,2.79258,0.6714399999999999,-0.887754075,0.39819234,0.13769496
1764767760.7388513,-4.1965,2.79258,0.6714399999999999,-0.887754075,0.39819234,0.13769496
1764767760.7388513,-4.1965,2.79258,0.6714399999999999,-0.887754075,0.39819234,0.13769496
1764767760.7388513,-3.95234,2.88414,1.2971,-0.888364425,0.39697164,0.13989222
1764767760.7388513,-3.95234,2.88414,1.2971,-0.888364425,0.39697164,0.13989222
1764767760.7388513,-3.95234,2.88414,1.2971,-0.888364425,0.39697164,0.13989222
1764767760.7388513,-3.95234,2.88414,1.2971,-0.888364425,0.39697164,0.13989222
1764767760.7388513,-3.95234,2.88414,1.2971,-0.888364425,0.39697164,0.13989222
1764767760.7388513,-3.95234,2.88414,1.2971,-0.888364425,0.39697164,0.13989222
1764767760.7388513,-3.95234,2.88414,1.2971,-0.888364425,0.39697164,0.13989222
1764767760.7388513,-3.95234,2.88414,1.2971,-0.888364425,0.39697164,0.13989222
1764767760.7398624,-3.95234,2.88414,1.2971,-0.888364425,0.39697164,0.13989222
1764767760.7403765,-3.95234,2.88414,1.2971,-0.888364425,0.39697164,0.13989222
1764767760.7403765,-4.33384,2.53316,0.8087799999999999,-0.89001237,0.39684957,0.14318811
1764767760.7403765,-4.33384,2.53316,0.8087799999999999,-0.89001237,0.39684957,0.14318811
1764767760.7403765,-4.33384,2.53316,0.8087799999999999,-0.89001237,0.39684957,0.14318811
1764767760.7403765,-4.33384,2.53316,0.8087799999999999,-0.89001237,0.39684957,0.14318811
1764767760.7403765,-4.33384,2.53316,0.8087799999999999,-0.89001237,0.39684957,0.14318811
1764767760.7403765,-4.33384,2.53316,0.8087799999999999,-0.89001237,0.39684957,0.14318811
1764767760.7403765,-4.33384,2.53316,0.8087799999999999,-0.89001237,0.39684957,0.14318811
1764767760.7403765,-4.33384,2.53316,0.8087799999999999,-0.89001237,0.39684957,0.14318811
1764767760.7403765,-4.33384,2.53316,0.8087799999999999,-0.89001237,0.39684957,0.14318811
1764767760.7403765,-4.33384,2.53316,0.8087799999999999,-0.89001237,0.39684957,0.14318811
1764767760.7403765,-3.6624,2.31952,0.06104,-0.890683755,0.39733785,0.145568475
1764767760.7403765,-3.6624,2.31952,0.06104,-0.890683755,0.39733785,0.145568475
1764767760.783062,-3.6624,2.31952,0.06104,-0.890683755,0.39733785,0.145568475
1764767760.783062,-3.6624,2.31952,0.06104,-0.890683755,0.39733785,0.145568475
1764767760.783062,-3.6624,2.31952,0.06104,-0.890683755,0.39733785,0.145568475
1764767760.783062,-3.6624,2.31952,0.06104,-0.890683755,0.39733785,0.145568475
1764767760.783062,-3.6624,2.31952,0.06104,-0.890683755,0.39733785,0.145568475
1764767760.783062,-3.6624,2.31952,0.06104,-0.890683755,0.39733785,0.145568475
1764767760.783062,-3.6624,2.31952,0.06104,-0.890683755,0.39733785,0.145568475
1764767760.783062,-3.6624,2.31952,0.06104,-0.890683755,0.39733785,0.145568475
1764767760.783062,-3.92182,2.16692,-0.27468,-0.89220963,0.39807027,0.146667105
1764767760.783062,-3.92182,2.16692,-0.27468,-0.89220963,0.39807027,0.146667105
1764767760.783062,-3.92182,2.16692,-0.27468,-0.89220963,0.39807027,0.146667105
1764767760.783062,-3.92182,2.16692,-0.27468,-0.89220963,0.39807027,0.146667105
1764767760.7846763,-3.92182,2.16692,-0.27468,-0.89220963,0.39807027,0.146667105
1764767760.7846763,-3.92182,2.16692,-0.27468,-0.89220963,0.39807027,0.146667105
1764767760.7846763,-3.92182,2.16692,-0.27468,-0.89220963,0.39807027,0.146667105
1764767760.7846763,-3.92182,2.16692,-0.27468,-0.89220963,0.39807027,0.146667105
1764767760.7846763,-3.92182,2.16692,-0.27468,-0.89220963,0.39807027,0.146667105
1764767760.7846763,-3.92182,2.16692,-0.27468,-0.89220963,0.39807027,0.146667105
1764767760.7846763,-3.61662,1.7549,-0.47306,-0.892392735,0.400328565,0.144591915
1764767760.7846763,-3.61662,1.7549,-0.47306,-0.892392735,0.400328565,0.144591915
1764767760.7846763,-3.61662,1.7549,-0.47306,-0.892392735,0.400328565,0.144591915
1764767760.7846763,-3.61662,1.7549,-0.47306,-0.892392735,0.400328565,0.144591915
1764767760.831365,-3.61662,1.7549,-0.47306,-0.892392735,0.400328565,0.144591915
1764767760.831365,-3.61662,1.7549,-0.47306,-0.892392735,0.400328565,0.144591915
1764767760.831365,-3.61662,1.7549,-0.47306,-0.892392735,0.400328565,0.144591915
1764767760.831365,-3.61662,1.7549,-0.47306,-0.892392735,0.400328565,0.144591915
1764767760.831365,-3.61662,1.7549,-0.47306,-0.892392735,0.400328565,0.144591915
1764767760.831365,-3.61662,1.7549,-0.47306,-0.892392735,0.400328565,0.144591915
1764767760.831365,-4.66956,2.02958,-0.0762999999999999,-0.890561685,0.40331928,0.14294397
1764767760.831365,-4.66956,2.02958,-0.0762999999999999,-0.890561685,0.40331928,0.14294397
1764767760.831365,-4.66956,2.02958,-0.0762999999999999,-0.890561685,0.40331928,0.14294397
1764767760.831365,-4.66956,2.02958,-0.0762999999999999,-0.890561685,0.40331928,0.14294397
1764767760.831365,-4.66956,2.02958,-0.0762999999999999,-0.890561685,0.40331928,0.14294397
1764767760.831365,-4.66956,2.02958,-0.0762999999999999,-0.890561685,0.40331928,0.14294397
1764767760.831365,-4.66956,2.02958,-0.0762999999999999,-0.890561685,0.40331928,0.14294397
1764767760.831365,-4.66956,2.02958,-0.0762999999999999,-0.890561685,0.40331928,0.14294397
1764767760.831365,-4.66956,2.02958,-0.0762999999999999,-0.890561685,0.40331928,0.14294397
1764767760.831365,-4.66956,2.02958,-0.0762999999999999,-0.890561685,0.40331928,0.14294397
1764767760.831365,-5.52412,2.42634,0.09156,-0.888974775,0.403136175,0.141540165
1764767760.831365,-5.52412,2.42634,0.09156,-0.888974775,0.403136175,0.141540165
1764767760.831365,-5.52412,2.42634,0.09156,-0.888974775,0.403136175,0.141540165
1764767760.831365,-5.52412,2.42634,0.09156,-0.888974775,0.403136175,0.141540165
1764767760.831365,-5.52412,2.42634,0.09156,-0.888974775,0.403136175,0.141540165
1764767760.831365,-5.52412,2.42634,0.09156,-0.888974775,0.403136175,0.141540165
1764767760.831365,-5.52412,2.42634,0.09156,-0.888974775,0.403136175,0.141540165
1764767760.831365,-5.52412,2.42634,0.09156,-0.888974775,0.403136175,0.141540165
1764767760.8786402,-5.52412,2.42634,0.09156,-0.888974775,0.403136175,0.141540165
1764767760.8786402,-5.52412,2.42634,0.09156,-0.888974775,0.403136175,0.141540165
1764767760.8786402,-6.53128,2.53316,0.47306,-0.88818132,0.40136616,0.14050257
1764767760.8786402,-6.53128,2.53316,0.47306,-0.88818132,0.40136616,0.14050257
1764767760.8786402,-6.53128,2.53316,0.47306,-0.88818132,0.40136616,0.14050257
1764767760.8786402,-6.53128,2.53316,0.47306,-0.88818132,0.40136616,0.14050257
1764767760.8786402,-6.53128,2.53316,0.47306,-0.88818132,0.40136616,0.14050257
1764767760.8786402,-6.53128,2.53316,0.47306,-0.88818132,0.40136616,0.14050257
1764767760.8786402,-6.53128,2.53316,0.47306,-0.88818132,0.40136616,0.14050257
1764767760.8786402,-6.53128,2.53316,0.47306,-0.88818132,0.40136616,0.14050257
1764767760.8786402,-6.53128,2.53316,0.47306,-0.88818132,0.40136616,0.14050257
1764767760.8786402,-6.53128,2.53316,0.47306,-0.88818132,0.40136616,0.14050257
1764767760.8786402,-7.095899999999999,2.68576,0.77826,-0.888730635,0.39892476,0.141296025
1764767760.8786402,-7.095899999999999,2.68576,0.77826,-0.888730635,0.39892476,0.141296025
1764767760.8786402,-7.095899999999999,2.68576,0.77826,-0.888730635,0.39892476,0.141296025
1764767760.8786402,-7.095899999999999,2.68576,0.77826,-0.888730635,0.39892476,0.141296025
1764767760.8786402,-7.095899999999999,2.68576,0.77826,-0.888730635,0.39892476,0.141296025
1764767760.8786402,-7.095899999999999,2.68576,0.77826,-0.888730635,0.39892476,0.141296025
1764767760.8786402,-7.095899999999999,2.68576,0.77826,-0.888730635,0.39892476,0.141296025
1764767760.8786402,-7.095899999999999,2.68576,0.77826,-0.888730635,0.39892476,0.141296025
1764767760.8786402,-7.095899999999999,2.68576,0.77826,-0.888730635,0.39892476,0.141296025
1764767760.8786402,-7.095899999999999,2.68576,0.77826,-0.888730635,0.39892476,0.141296025
1764767760.8786402,-6.134519999999999,2.38056,0.62566,-0.891172035,0.395811975,0.142760865
1764767760.8786402,-6.134519999999999,2.38056,0.62566,-0.891172035,0.395811975,0.142760865
1764767760.9255948,-6.134519999999999,2.38056,0.62566,-0.891172035,0.395811975,0.142760865
1764767760.9255948,-6.134519999999999,2.38056,0.62566,-0.891172035,0.395811975,0.142760865
1764767760.9255948,-6.134519999999999,2.38056,0.62566,-0.891172035,0.395811975,0.142760865
1764767760.9255948,-6.134519999999999,2.38056,0.62566,-0.891172035,0.395811975,0.142760865
1764767760.9255948,-6.134519999999999,2.38056,0.62566,-0.891172035,0.395811975,0.142760865
1764767760.9255948,-6.134519999999999,2.38056,0.62566,-0.891172035,0.395811975,0.142760865
1764767760.9255948,-6.134519999999999,2.38056,0.62566,-0.891172035,0.395811975,0.142760865
1764767760.9255948,-6.134519999999999,2.38056,0.62566,-0.891172035,0.395811975,0.142760865
1764767760.9255948,-4.66956,1.8006799999999998,0.42728,-0.89318619,0.391539525,0.14501916
1764767760.9261014,-4.66956,1.8006799999999998,0.42728,-0.89318619,0.391539525,0.14501916
1764767760.9261014,-4.66956,1.8006799999999998,0.42728,-0.89318619,0.391539525,0.14501916
1764767760.9261014,-4.66956,1.8006799999999998,0.42728,-0.89318619,0.391539525,0.14501916
1764767760.9261014,-4.66956,1.8006799999999998,0.42728,-0.89318619,0.391539525,0.14501916
1764767760.9261014,-4.66956,1.8006799999999998,0.42728,-0.89318619,0.391539525,0.14501916
1764767760.9261014,-4.66956,1.8006799999999998,0.42728,-0.89318619,0.391539525,0.14501916
1764767760.9261014,-4.66956,1.8006799999999998,0.42728,-0.89318619,0.391539525,0.14501916
1764767760.9261014,-4.66956,1.8006799999999998,0.42728,-0.89318619,0.391539525,0.14501916
1764767760.9261014,-4.66956,1.8006799999999998,0.42728,-0.89318619,0.391539525,0.14501916
1764767760.9261014,-3.60136,1.34288,0.56462,-0.89428482,0.39037986,0.147155385
1764767760.9261014,-3.60136,1.34288,0.56462,-0.89428482,0.39037986,0.147155385
1764767760.9261014,-3.60136,1.34288,0.56462,-0.89428482,0.39037986,0.147155385
1764767760.9261014,-3.60136,1.34288,0.56462,-0.89428482,0.39037986,0.147155385
1764767760.9685662,-3.60136,1.34288,0.56462,-0.89428482,0.39037986,0.147155385
1764767760.9685662,-3.60136,1.34288,0.56462,-0.89428482,0.39037986,0.147155385
1764767760.9685662,-3.60136,1.34288,0.56462,-0.89428482,0.39037986,0.147155385
1764767760.9685662,-3.60136,1.34288,0.56462,-0.89428482,0.39037986,0.147155385
1764767760.9685662,-3.60136,1.34288,0.56462,-0.89428482,0.39037986,0.147155385
1764767760.9685662,-3.60136,1.34288,0.56462,-0.89428482,0.39037986,0.147155385
1764767760.9685662,-3.2809,0.73248,0.24416,-0.893979645,0.392027805,0.14685021
1764767760.9685662,-3.2809,0.73248,0.24416,-0.893979645,0.392027805,0.14685021
1764767760.9685662,-3.2809,0.73248,0.24416,-0.893979645,0.392027805,0.14685021
1764767760.9685662,-3.2809,0.73248,0.24416,-0.893979645,0.392027805,0.14685021
1764767760.9685662,-3.2809,0.73248,0.24416,-0.893979645,0.392027805,0.14685021
1764767760.9685662,-3.2809,0.73248,0.24416,-0.893979645,0.392027805,0.14685021
1764767760.9685662,-3.2809,0.73248,0.24416,-0.893979645,0.392027805,0.14685021
1764767760.9685662,-3.2809,0.73248,0.24416,-0.893979645,0.392027805,0.14685021
1764767760.9685662,-3.2809,0.73248,0.24416,-0.893979645,0.392027805,0.14685021
1764767760.9685662,-3.2809,0.73248,0.24416,-0.893979645,0.392027805,0.14685021
1764767760.969583,-2.77732,0.50358,0.06104,-0.89306412,0.39233298,0.14514123
1764767760.969583,-2.77732,0.50358,0.06104,-0.89306412,0.39233298,0.14514123
1764767760.969583,-2.77732,0.50358,0.06104,-0.89306412,0.39233298,0.14514123
1764767760.969583,-2.77732,0.50358,0.06104,-0.89306412,0.39233298,0.14514123
1764767760.969583,-2.77732,0.50358,0.06104,-0.89306412,0.39233298,0.14514123
1764767760.969583,-2.77732,0.50358,0.06104,-0.89306412,0.39233298,0.14514123
1764767761.015288,-2.77732,0.50358,0.06104,-0.89306412,0.39233298,0.14514123
1764767761.015288,-2.77732,0.50358,0.06104,-0.89306412,0.39233298,0.14514123
1764767761.015288,-2.77732,0.50358,0.06104,-0.89306412,0.39233298,0.14514123
1764767761.015288,-2.77732,0.50358,0.06104,-0.89306412,0.39233298,0.14514123
1764767761.015288,-2.79258,0.3357199999999999,-0.12208,-0.891111,0.39416403,0.143249145
1764767761.015288,-2.79258,0.3357199999999999,-0.12208,-0.891111,0.39416403,0.143249145
1764767761.015288,-2.79258,0.3357199999999999,-0.12208,-0.891111,0.39416403,0.143249145
1764767761.015288,-2.79258,0.3357199999999999,-0.12208,-0.891111,0.39416403,0.143249145
1764767761.015288,-2.79258,0.3357199999999999,-0.12208,-0.891111,0.39416403,0.143249145
1764767761.015288,-2.79258,0.3357199999999999,-0.12208,-0.891111,0.39416403,0.143249145
1764767761.015288,-2.79258,0.3357199999999999,-0.12208,-0.891111,0.39416403,0.143249145
1764767761.015288,-2.79258,0.3357199999999999,-0.12208,-0.891111,0.39416403,0.143249145
1764767761.015288,-2.79258,0.3357199999999999,-0.12208,-0.891111,0.39416403,0.143249145
1764767761.015288,-2.79258,0.3357199999999999,-0.12208,-0.891111,0.39416403,0.143249145
1764767761.015288,-3.70818,0.6103999999999999,0.21364,-0.891172035,0.398497515,0.14001429
1764767761.015288,-3.70818,0.6103999999999999,0.21364,-0.891172035,0.398497515,0.14001429
1764767761.015288,-3.70818,0.6103999999999999,0.21364,-0.891172035,0.398497515,0.14001429
1764767761.0162966,-3.70818,0.6103999999999999,0.21364,-0.891172035,0.398497515,0.14001429
1764767761.0162966,-3.70818,0.6103999999999999,0.21364,-0.891172035,0.398497515,0.14001429
1764767761.0162966,-3.70818,0.6103999999999999,0.21364,-0.891172035,0.398497515,0.14001429
1764767761.0162966,-3.70818,0.6103999999999999,0.21364,-0.891172035,0.398497515,0.14001429
1764767761.0162966,-3.70818,0.6103999999999999,0.21364,-0.891172035,0.398497515,0.14001429
1764767761.0162966,-3.70818,0.6103999999999999,0.21364,-0.891172035,0.398497515,0.14001429
1764767761.0162966,-3.70818,0.6103999999999999,0.21364,-0.891172035,0.398497515,0.14001429
1764767761.0630665,-6.104,1.19028,0.3204599999999999,-0.89245377,0.40319721,0.13806117
1764767761.0630665,-6.104,1.19028,0.3204599999999999,-0.89245377,0.40319721,0.13806117
1764767761.0630665,-6.104,1.19028,0.3204599999999999,-0.89245377,0.40319721,0.13806117
1764767761.0630665,-6.104,1.19028,0.3204599999999999,-0.89245377,0.40319721,0.13806117
1764767761.0630665,-6.104,1.19028,0.3204599999999999,-0.89245377,0.40319721,0.13806117
1764767761.0630665,-6.104,1.19028,0.3204599999999999,-0.89245377,0.40319721,0.13806117
1764767761.0630665,-6.104,1.19028,0.3204599999999999,-0.89245377,0.40319721,0.13806117
1764767761.0630665,-6.104,1.19028,0.3204599999999999,-0.89245377,0.40319721,0.13806117
1764767761.0630665,-6.104,1.19028,0.3204599999999999,-0.89245377,0.40319721,0.13806117
1764767761.0630665,-6.104,1.19028,0.3204599999999999,-0.89245377,0.40319721,0.13806117
1764767761.0630665,-6.76018,1.8006799999999998,0.3509799999999999,-0.893003085,0.40148823,0.138732555
1764767761.0630665,-6.76018,1.8006799999999998,0.3509799999999999,-0.893003085,0.40148823,0.138732555
1764767761.0630665,-6.76018,1.8006799999999998,0.3509799999999999,-0.893003085,0.40148823,0.138732555
1764767761.0630665,-6.76018,1.8006799999999998,0.3509799999999999,-0.893003085,0.40148823,0.138732555
1764767761.0630665,-6.76018,1.8006799999999998,0.3509799999999999,-0.893003085,0.40148823,0.138732555
1764767761.0630665,-6.76018,1.8006799999999998,0.3509799999999999,-0.893003085,0.40148823,0.138732555
1764767761.0630665,-6.76018,1.8006799999999998,0.3509799999999999,-0.893003085,0.40148823,0.138732555
1764767761.064067,-6.76018,1.8006799999999998,0.3509799999999999,-0.893003085,0.40148823,0.138732555
1764767761.064067,-6.76018,1.8006799999999998,0.3509799999999999,-0.893003085,0.40148823,0.138732555
1764767761.064067,-6.76018,1.8006799999999998,0.3509799999999999,-0.893003085,0.40148823,0.138732555
1764767761.064067,-5.508859999999999,1.526,0.19838,-0.893003085,0.39599508,0.14074671
1764767761.064067,-5.508859999999999,1.526,0.19838,-0.893003085,0.39599508,0.14074671
1764767761.1094227,-5.508859999999999,1.526,0.19838,-0.893003085,0.39599508,0.14074671
1764767761.1094227,-5.508859999999999,1.526,0.19838,-0.893003085,0.39599508,0.14074671
1764767761.1094227,-5.508859999999999,1.526,0.19838,-0.893003085,0.39599508,0.14074671
1764767761.1094227,-5.508859999999999,1.526,0.19838,-0.893003085,0.39599508,0.14074671
1764767761.1094227,-5.508859999999999,1.526,0.19838,-0.893003085,0.39599508,0.14074671
1764767761.1094227,-5.508859999999999,1.526,0.19838,-0.893003085,0.39599508,0.14074671
1764767761.1094227,-5.508859999999999,1.526,0.19838,-0.893003085,0.39599508,0.14074671
1764767761.1094227,-5.508859999999999,1.526,0.19838,-0.893003085,0.39599508,0.14074671
1764767761.1094227,-3.63188,0.9156,0.5341,-0.89318619,0.39233298,0.1428219
1764767761.1094227,-3.63188,0.9156,0.5341,-0.89318619,0.39233298,0.1428219
1764767761.1094227,-3.63188,0.9156,0.5341,-0.89318619,0.39233298,0.1428219
1764767761.1094227,-3.63188,0.9156,0.5341,-0.89318619,0.39233298,0.1428219
1764767761.1094227,-3.63188,0.9156,0.5341,-0.89318619,0.39233298,0.1428219
1764767761.1094227,-3.63188,0.9156,0.5341,-0.89318619,0.39233298,0.1428219
1764767761.1094227,-3.63188,0.9156,0.5341,-0.89318619,0.39233298,0.1428219
1764767761.1094227,-3.63188,0.9156,0.5341,-0.89318619,0.39233298,0.1428219
1764767761.1106431,-3.63188,0.9156,0.5341,-0.89318619,0.39233298,0.1428219
1764767761.1106431,-3.63188,0.9156,0.5341,-0.89318619,0.39233298,0.1428219
1764767761.1106431,-1.8006799999999998,0.10682,0.41202,-0.894101715,0.391661595,0.144347775
1764767761.1106431,-1.8006799999999998,0.10682,0.41202,-0.894101715,0.391661595,0.144347775
1764767761.1106431,-1.8006799999999998,0.10682,0.41202,-0.894101715,0.391661595,0.144347775
1764767761.1106431,-1.8006799999999998,0.10682,0.41202,-0.894101715,0.391661595,0.144347775
1764767761.1106431,-1.8006799999999998,0.10682,0.41202,-0.894101715,0.391661595,0.144347775
1764767761.1106431,-1.8006799999999998,0.10682,0.41202,-0.894101715,0.391661595,0.144347775
1764767761.1106431,-1.8006799999999998,0.10682,0.41202,-0.894101715,0.391661595,0.144347775
1764767761.1106431,-1.8006799999999998,0.10682,0.41202,-0.894101715,0.391661595,0.144347775
1764767761.1563668,-1.8006799999999998,0.10682,0.41202,-0.894101715,0.391661595,0.144347775
1764767761.1563668,-1.8006799999999998,0.10682,0.41202,-0.894101715,0.391661595,0.144347775
1764767761.1563668,-1.3734,-0.27468,0.3509799999999999,-0.89428482,0.393492645,0.14477502
1764767761.1563668,-1.3734,-0.27468,0.3509799999999999,-0.89428482,0.393492645,0.14477502
1764767761.1563668,-1.3734,-0.27468,0.3509799999999999,-0.89428482,0.393492645,0.14477502
1764767761.1563668,-1.3734,-0.27468,0.3509799999999999,-0.89428482,0.393492645,0.14477502
1764767761.1563668,-1.3734,-0.27468,0.3509799999999999,-0.89428482,0.393492645,0.14477502
1764767761.1563668,-1.3734,-0.27468,0.3509799999999999,-0.89428482,0.393492645,0.14477502
1764767761.1563668,-1.3734,-0.27468,0.3509799999999999,-0.89428482,0.393492645,0.14477502
1764767761.1563668,-1.3734,-0.27468,0.3509799999999999,-0.89428482,0.393492645,0.14477502
1764767761.1563668,-1.3734,-0.27468,0.3509799999999999,-0.89428482,0.393492645,0.14477502
1764767761.1563668,-1.3734,-0.27468,0.3509799999999999,-0.89428482,0.393492645,0.14477502
1764767761.1563668,-1.84646,0.12208,0.21364,-0.893003085,0.3955068,0.144225705
1764767761.1563668,-1.84646,0.12208,0.21364,-0.893003085,0.3955068,0.144225705
1764767761.1563668,-1.84646,0.12208,0.21364,-0.893003085,0.3955068,0.144225705
1764767761.1563668,-1.84646,0.12208,0.21364,-0.893003085,0.3955068,0.144225705
1764767761.1563668,-1.84646,0.12208,0.21364,-0.893003085,0.3955068,0.144225705
1764767761.1563668,-1.84646,0.12208,0.21364,-0.893003085,0.3955068,0.144225705
1764767761.1563668,-1.84646,0.12208,0.21364,-0.893003085,0.3955068,0.144225705
1764767761.1563668,-1.84646,0.12208,0.21364,-0.893003085,0.3955068,0.144225705
1764767761.1563668,-1.84646,0.12208,0.21364,-0.893003085,0.3955068,0.144225705
1764767761.1563668,-1.84646,0.12208,0.21364,-0.893003085,0.3955068,0.144225705
1764767761.203379,-2.47212,0.3815,0.25942,-0.891538245,0.39843648,0.142882935
1764767761.203379,-2.47212,0.3815,0.25942,-0.891538245,0.39843648,0.142882935
1764767761.203379,-2.47212,0.3815,0.25942,-0.891538245,0.39843648,0.142882935
1764767761.203379,-2.47212,0.3815,0.25942,-0.891538245,0.39843648,0.142882935
1764767761.203379,-2.47212,0.3815,0.25942,-0.891538245,0.39843648,0.142882935
1764767761.203379,-2.47212,0.3815,0.25942,-0.891538245,0.39843648,0.142882935
1764767761.203379,-2.47212,0.3815,0.25942,-0.891538245,0.39843648,0.142882935
1764767761.203379,-2.47212,0.3815,0.25942,-0.891538245,0.39843648,0.142882935
1764767761.203379,-2.47212,0.3815,0.25942,-0.891538245,0.39843648,0.142882935
1764767761.203379,-2.47212,0.3815,0.25942,-0.891538245,0.39843648,0.142882935
1764767761.203379,-3.3572,0.79352,-0.01526,-0.88940202,0.400694775,0.14184534
1764767761.203379,-3.3572,0.79352,-0.01526,-0.88940202,0.400694775,0.14184534
1764767761.203379,-3.3572,0.79352,-0.01526,-0.88940202,0.400694775,0.14184534
1764767761.203379,-3.3572,0.79352,-0.01526,-0.88940202,0.400694775,0.14184534
1764767761.203379,-3.3572,0.79352,-0.01526,-0.88940202,0.400694775,0.14184534
1764767761.203379,-3.3572,0.79352,-0.01526,-0.88940202,0.400694775,0.14184534
1764767761.203379,-3.3572,0.79352,-0.01526,-0.88940202,0.400694775,0.14184534
1764767761.203379,-3.3572,0.79352,-0.01526,-0.88940202,0.400694775,0.14184534
1764767761.203379,-3.3572,0.79352,-0.01526,-0.88940202,0.400694775,0.14184534
1764767761.203379,-3.3572,0.79352,-0.01526,-0.88940202,0.400694775,0.14184534
1764767761.203379,-4.28806,0.4578,0.3051999999999999,-0.888730635,0.402892035,0.141051885
1764767761.203379,-4.28806,0.4578,0.3051999999999999,-0.888730635,0.402892035,0.141051885
1764767761.2502065,-4.28806,0.4578,0.3051999999999999,-0.888730635,0.402892035,0.141051885
1764767761.2502065,-4.28806,0.4578,0.3051999999999999,-0.888730635,0.402892035,0.141051885
1764767761.2502065,-4.28806,0.4578,0.3051999999999999,-0.888730635,0.402892035,0.141051885
1764767761.2502065,-4.28806,0.4578,0.3051999999999999,-0.888730635,0.402892035,0.141051885
1764767761.2502065,-4.28806,0.4578,0.3051999999999999,-0.888730635,0.402892035,0.141051885
1764767761.2502065,-4.28806,0.4578,0.3051999999999999,-0.888730635,0.402892035,0.141051885
1764767761.2502065,-4.28806,0.4578,0.3051999999999999,-0.888730635,0.402892035,0.141051885
1764767761.2502065,-4.28806,0.4578,0.3051999999999999,-0.888730635,0.402892035,0.141051885
1764767761.2502065,-4.822159999999999,0.85456,0.3051999999999999,-0.889096845,0.403380315,0.140075325
1764767761.2502065,-4.822159999999999,0.85456,0.3051999999999999,-0.889096845,0.403380315,0.140075325
1764767761.2502065,-4.822159999999999,0.85456,0.3051999999999999,-0.889096845,0.403380315,0.140075325
1764767761.2502065,-4.822159999999999,0.85456,0.3051999999999999,-0.889096845,0.403380315,0.140075325
1764767761.2502065,-4.822159999999999,0.85456,0.3051999999999999,-0.889096845,0.403380315,0.140075325
1764767761.2502065,-4.822159999999999,0.85456,0.3051999999999999,-0.889096845,0.403380315,0.140075325
1764767761.2502065,-4.822159999999999,0.85456,0.3051999999999999,-0.889096845,0.403380315,0.140075325
1764767761.2502065,-4.822159999999999,0.85456,0.3051999999999999,-0.889096845,0.403380315,0.140075325
1764767761.2502065,-4.822159999999999,0.85456,0.3051999999999999,-0.889096845,0.403380315,0.140075325
1764767761.2502065,-4.822159999999999,0.85456,0.3051999999999999,-0.889096845,0.403380315,0.140075325
1764767761.2502065,-5.5699,0.77826,-0.03052,-0.888730635,0.40124409,0.141051885
1764767761.2502065,-5.5699,0.77826,-0.03052,-0.888730635,0.40124409,0.141051885
1764767761.2502065,-5.5699,0.77826,-0.03052,-0.888730635,0.40124409,0.141051885
1764767761.2502065,-5.5699,0.77826,-0.03052,-0.888730635,0.40124409,0.141051885
1764767761.2502065,-5.5699,0.77826,-0.03052,-0.888730635,0.40124409,0.141051885
1764767761.2502065,-5.5699,0.77826,-0.03052,-0.888730635,0.40124409,0.141051885
1764767761.2936282,-5.5699,0.77826,-0.03052,-0.888730635,0.40124409,0.141051885
1764767761.2936282,-5.5699,0.77826,-0.03052,-0.888730635,0.40124409,0.141051885
1764767761.2936282,-5.5699,0.77826,-0.03052,-0.888730635,0.40124409,0.141051885
1764767761.2936282,-5.5699,0.77826,-0.03052,-0.888730635,0.40124409,0.141051885
1764767761.2936282,-5.60042,0.8087799999999999,0.10682,-0.887876145,0.398863725,0.14184534
1764767761.2936282,-5.60042,0.8087799999999999,0.10682,-0.887876145,0.398863725,0.14184534
1764767761.2936282,-5.60042,0.8087799999999999,0.10682,-0.887876145,0.398863725,0.14184534
1764767761.2936282,-5.60042,0.8087799999999999,0.10682,-0.887876145,0.398863725,0.14184534
1764767761.2936282,-5.60042,0.8087799999999999,0.10682,-0.887876145,0.398863725,0.14184534
1764767761.2936282,-5.60042,0.8087799999999999,0.10682,-0.887876145,0.398863725,0.14184534
1764767761.2936282,-5.60042,0.8087799999999999,0.10682,-0.887876145,0.398863725,0.14184534
1764767761.2936282,-5.60042,0.8087799999999999,0.10682,-0.887876145,0.398863725,0.14184534
1764767761.2936282,-5.60042,0.8087799999999999,0.10682,-0.887876145,0.398863725,0.14184534
1764767761.2936282,-5.60042,0.8087799999999999,0.10682,-0.887876145,0.398863725,0.14184534
1764767761.2936282,-5.24944,1.55652,0.6103999999999999,-0.88830339,0.39758199,0.14196741
1764767761.2936282,-5.24944,1.55652,0.6103999999999999,-0.88830339,0.39758199,0.14196741
1764767761.2936282,-5.24944,1.55652,0.6103999999999999,-0.88830339,0.39758199,0.14196741
1764767761.2936282,-5.24944,1.55652,0.6103999999999999,-0.88830339,0.39758199,0.14196741
1764767761.2946498,-5.24944,1.55652,0.6103999999999999,-0.88830339,0.39758199,0.14196741
1764767761.2946498,-5.24944,1.55652,0.6103999999999999,-0.88830339,0.39758199,0.14196741
1764767761.2946498,-5.24944,1.55652,0.6103999999999999,-0.88830339,0.39758199,0.14196741
1764767761.2946498,-5.24944,1.55652,0.6103999999999999,-0.88830339,0.39758199,0.14196741
1764767761.2946498,-5.24944,1.55652,0.6103999999999999,-0.88830339,0.39758199,0.14196741
1764767761.2946498,-5.24944,1.55652,0.6103999999999999,-0.88830339,0.39758199,0.14196741
1764767761.340844,-5.20366,1.23606,0.42728,-0.890439615,0.397032675,0.14196741
1764767761.340844,-5.20366,1.23606,0.42728,-0.890439615,0.397032675,0.14196741
1764767761.340844,-5.20366,1.23606,0.42728,-0.890439615,0.397032675,0.14196741
1764767761.340844,-5.20366,1.23606,0.42728,-0.890439615,0.397032675,0.14196741
1764767761.340844,-5.20366,1.23606,0.42728,-0.890439615,0.397032675,0.14196741
1764767761.340844,-5.20366,1.23606,0.42728,-0.890439615,0.397032675,0.14196741
1764767761.341364,-5.20366,1.23606,0.42728,-0.890439615,0.397032675,0.14196741
1764767761.341364,-5.20366,1.23606,0.42728,-0.890439615,0.397032675,0.14196741
1764767761.341364,-5.20366,1.23606,0.42728,-0.890439615,0.397032675,0.14196741
1764767761.341364,-5.20366,1.23606,0.42728,-0.890439615,0.397032675,0.14196741
1764767761.341364,-5.9514,1.25132,0.48832,-0.89245377,0.397520955,0.1416012
1764767761.341364,-5.9514,1.25132,0.48832,-0.89245377,0.397520955,0.1416012
1764767761.341364,-5.9514,1.25132,0.48832,-0.89245377,0.397520955,0.1416012
1764767761.341364,-5.9514,1.25132,0.48832,-0.89245377,0.397520955,0.1416012
1764767761.341364,-5.9514,1.25132,0.48832,-0.89245377,0.397520955,0.1416012
1764767761.341364,-5.9514,1.25132,0.48832,-0.89245377,0.397520955,0.1416012
1764767761.341364,-5.9514,1.25132,0.48832,-0.89245377,0.397520955,0.1416012
1764767761.341364,-5.9514,1.25132,0.48832,-0.89245377,0.397520955,0.1416012
1764767761.341364,-5.9514,1.25132,0.48832,-0.89245377,0.397520955,0.1416012
1764767761.341364,-5.9514,1.25132,0.48832,-0.89245377,0.397520955,0.1416012
1764767761.341364,-5.9514,1.28184,-0.04578,-0.891416175,0.39611715,0.140441535
1764767761.341364,-5.9514,1.28184,-0.04578,-0.891416175,0.39611715,0.140441535
1764767761.341364,-5.9514,1.28184,-0.04578,-0.891416175,0.39611715,0.140441535
1764767761.341364,-5.9514,1.28184,-0.04578,-0.891416175,0.39611715,0.140441535
1764767761.3878462,-5.9514,1.28184,-0.04578,-0.891416175,0.39611715,0.140441535
1764767761.3878462,-5.9514,1.28184,-0.04578,-0.891416175,0.39611715,0.140441535
1764767761.3878462,-5.9514,1.28184,-0.04578,-0.891416175,0.39611715,0.140441535
1764767761.3878462,-5.9514,1.28184,-0.04578,-0.891416175,0.39611715,0.140441535
1764767761.3878462,-5.9514,1.28184,-0.04578,-0.891416175,0.39611715,0.140441535
1764767761.3878462,-5.9514,1.28184,-0.04578,-0.891416175,0.39611715,0.140441535
1764767761.3878462,-5.81406,1.95328,0.39676,-0.89135514,0.395934045,0.13977015
1764767761.3878462,-5.81406,1.95328,0.39676,-0.89135514,0.395934045,0.13977015
1764767761.3878462,-5.81406,1.95328,0.39676,-0.89135514,0.395934045,0.13977015
1764767761.3878462,-5.81406,1.95328,0.39676,-0.89135514,0.395934045,0.13977015
1764767761.3878462,-5.81406,1.95328,0.39676,-0.89135514,0.395934045,0.13977015
1764767761.3888516,-5.81406,1.95328,0.39676,-0.89135514,0.395934045,0.13977015
1764767761.3888516,-5.81406,1.95328,0.39676,-0.89135514,0.395934045,0.13977015
1764767761.3888516,-5.81406,1.95328,0.39676,-0.89135514,0.395934045,0.13977015
1764767761.3888516,-5.81406,1.95328,0.39676,-0.89135514,0.395934045,0.13977015
1764767761.3888516,-5.81406,1.95328,0.39676,-0.89135514,0.395934045,0.13977015
1764767761.3888516,-5.67672,1.8006799999999998,0.42728,-0.89147721,0.39514059,0.140075325
1764767761.3888516,-5.67672,1.8006799999999998,0.42728,-0.89147721,0.39514059,0.140075325
1764767761.3888516,-5.67672,1.8006799999999998,0.42728,-0.89147721,0.39514059,0.140075325
1764767761.3888516,-5.67672,1.8006799999999998,0.42728,-0.89147721,0.39514059,0.140075325
1764767761.3888516,-5.67672,1.8006799999999998,0.42728,-0.89147721,0.39514059,0.140075325
1764767761.3888516,-5.67672,1.8006799999999998,0.42728,-0.89147721,0.39514059,0.140075325
1764767761.4345293,-5.67672,1.8006799999999998,0.42728,-0.89147721,0.39514059,0.140075325
1764767761.4345293,-5.67672,1.8006799999999998,0.42728,-0.89147721,0.39514059,0.140075325
1764767761.4345293,-5.67672,1.8006799999999998,0.42728,-0.89147721,0.39514059,0.140075325
1764767761.4345293,-5.67672,1.8006799999999998,0.42728,-0.89147721,0.39514059,0.140075325
1764767761.4345293,-5.52412,1.99906,0.763,-0.892148595,0.395323695,0.14062464
1764767761.4345293,-5.52412,1.99906,0.763,-0.892148595,0.395323695,0.14062464
1764767761.4345293,-5.52412,1.99906,0.763,-0.892148595,0.395323695,0.14062464
1764767761.4345293,-5.52412,1.99906,0.763,-0.892148595,0.395323695,0.14062464
1764767761.4345293,-5.52412,1.99906,0.763,-0.892148595,0.395323695,0.14062464
1764767761.4345293,-5.52412,1.99906,0.763,-0.892148595,0.395323695,0.14062464
1764767761.4345293,-5.52412,1.99906,0.763,-0.892148595,0.395323695,0.14062464
1764767761.4345293,-5.52412,1.99906,0.763,-0.892148595,0.395323695,0.14062464
1764767761.4345293,-5.52412,1.99906,0.763,-0.892148595,0.395323695,0.14062464
1764767761.4345293,-5.52412,1.99906,0.763,-0.892148595,0.395323695,0.14062464
1764767761.4345293,-5.15788,1.58704,0.6409199999999999,-0.89257584,0.394591275,0.1416012
1764767761.4345293,-5.15788,1.58704,0.6409199999999999,-0.89257584,0.394591275,0.1416012
1764767761.4345293,-5.15788,1.58704,0.6409199999999999,-0.89257584,0.394591275,0.1416012
1764767761.4345293,-5.15788,1.58704,0.6409199999999999,-0.89257584,0.394591275,0.1416012
1764767761.4345293,-5.15788,1.58704,0.6409199999999999,-0.89257584,0.394591275,0.1416012
1764767761.4345293,-5.15788,1.58704,0.6409199999999999,-0.89257584,0.394591275,0.1416012
1764767761.4345293,-5.15788,1.58704,0.6409199999999999,-0.89257584,0.394591275,0.1416012
1764767761.4345293,-5.15788,1.58704,0.6409199999999999,-0.89257584,0.394591275,0.1416012
1764767761.4345293,-5.15788,1.58704,0.6409199999999999,-0.89257584,0.394591275,0.1416012
1764767761.4345293,-5.15788,1.58704,0.6409199999999999,-0.89257584,0.394591275,0.1416012
1764767761.480441,-4.66956,1.57178,0.763,-0.892270665,0.39465231,0.142638795
1764767761.480441,-4.66956,1.57178,0.763,-0.892270665,0.39465231,0.142638795
1764767761.481457,-4.66956,1.57178,0.763,-0.892270665,0.39465231,0.142638795
1764767761.481457,-4.66956,1.57178,0.763,-0.892270665,0.39465231,0.142638795
1764767761.481457,-4.66956,1.57178,0.763,-0.892270665,0.39465231,0.142638795
1764767761.481457,-4.66956,1.57178,0.763,-0.892270665,0.39465231,0.142638795
1764767761.481457,-4.66956,1.57178,0.763,-0.892270665,0.39465231,0.142638795
1764767761.481457,-4.66956,1.57178,0.763,-0.892270665,0.39465231,0.142638795
1764767761.481457,-4.66956,1.57178,0.763,-0.892270665,0.39465231,0.142638795
1764767761.481457,-4.66956,1.57178,0.763,-0.892270665,0.39465231,0.142638795
1764767761.481457,-4.25754,1.63282,0.65618,-0.891049965,0.39416403,0.142638795
1764767761.481457,-4.25754,1.63282,0.65618,-0.891049965,0.39416403,0.142638795
1764767761.481457,-4.25754,1.63282,0.65618,-0.891049965,0.39416403,0.142638795
1764767761.481457,-4.25754,1.63282,0.65618,-0.891049965,0.39416403,0.142638795
1764767761.481457,-4.25754,1.63282,0.65618,-0.891049965,0.39416403,0.142638795
1764767761.481457,-4.25754,1.63282,0.65618,-0.891049965,0.39416403,0.142638795
1764767761.481457,-4.25754,1.63282,0.65618,-0.891049965,0.39416403,0.142638795
1764767761.481457,-4.25754,1.63282,0.65618,-0.891049965,0.39416403,0.142638795
1764767761.481457,-4.25754,1.63282,0.65618,-0.891049965,0.39416403,0.142638795
1764767761.481457,-4.25754,1.63282,0.65618,-0.891049965,0.39416403,0.142638795
1764767761.481457,-3.98286,1.69386,0.18312,-0.890683755,0.39477438,0.14245569
1764767761.481457,-3.98286,1.69386,0.18312,-0.890683755,0.39477438,0.14245569
1764767761.5300455,-3.98286,1.69386,0.18312,-0.890683755,0.39477438,0.14245569
1764767761.5300455,-3.98286,1.69386,0.18312,-0.890683755,0.39477438,0.14245569
1764767761.5300455,-3.98286,1.69386,0.18312,-0.890683755,0.39477438,0.14245569
1764767761.5300455,-3.98286,1.69386,0.18312,-0.890683755,0.39477438,0.14245569
1764767761.5300455,-3.98286,1.69386,0.18312,-0.890683755,0.39477438,0.14245569
1764767761.5300455,-3.98286,1.69386,0.18312,-0.890683755,0.39477438,0.14245569
1764767761.5300455,-3.98286,1.69386,0.18312,-0.890683755,0.39477438,0.14245569
1764767761.5300455,-3.98286,1.69386,0.18312,-0.890683755,0.39477438,0.14245569
1764767761.5300455,-4.15072,1.6786,0.3204599999999999,-0.89123307,0.39575094,0.14245569
1764767761.5300455,-4.15072,1.6786,0.3204599999999999,-0.89123307,0.39575094,0.14245569
1764767761.5300455,-4.15072,1.6786,0.3204599999999999,-0.89123307,0.39575094,0.14245569
1764767761.5300455,-4.15072,1.6786,0.3204599999999999,-0.89123307,0.39575094,0.14245569
1764767761.5300455,-4.15072,1.6786,0.3204599999999999,-0.89123307,0.39575094,0.14245569
1764767761.5300455,-4.15072,1.6786,0.3204599999999999,-0.89123307,0.39575094,0.14245569
1764767761.5300455,-4.15072,1.6786,0.3204599999999999,-0.89123307,0.39575094,0.14245569
1764767761.5300455,-4.15072,1.6786,0.3204599999999999,-0.89123307,0.39575094,0.14245569
1764767761.5300455,-4.15072,1.6786,0.3204599999999999,-0.89123307,0.39575094,0.14245569
1764767761.5300455,-4.15072,1.6786,0.3204599999999999,-0.89123307,0.39575094,0.14245569
1764767761.5300455,-5.0358,1.49548,-0.06104,-0.890683755,0.39733785,0.14245569
1764767761.5300455,-5.0358,1.49548,-0.06104,-0.890683755,0.39733785,0.14245569
1764767761.5300455,-5.0358,1.49548,-0.06104,-0.890683755,0.39733785,0.14245569
1764767761.5300455,-5.0358,1.49548,-0.06104,-0.890683755,0.39733785,0.14245569
1764767761.5300455,-5.0358,1.49548,-0.06104,-0.890683755,0.39733785,0.14245569
1764767761.5300455,-5.0358,1.49548,-0.06104,-0.890683755,0.39733785,0.14245569
1764767761.5759509,-5.0358,1.49548,-0.06104,-0.890683755,0.39733785,0.14245569
1764767761.5759509,-5.0358,1.49548,-0.06104,-0.890683755,0.39733785,0.14245569
1764767761.5759509,-5.0358,1.49548,-0.06104,-0.890683755,0.39733785,0.14245569
1764767761.5759509,-5.0358,1.49548,-0.06104,-0.890683755,0.39733785,0.14245569
1764767761.5759509,-5.66146,1.43444,-0.06104,-0.890317545,0.39782613,0.142760865
1764767761.5759509,-5.66146,1.43444,-0.06104,-0.890317545,0.39782613,0.142760865
1764767761.5759509,-5.66146,1.43444,-0.06104,-0.890317545,0.39782613,0.142760865
1764767761.5759509,-5.66146,1.43444,-0.06104,-0.890317545,0.39782613,0.142760865
1764767761.5759509,-5.66146,1.43444,-0.06104,-0.890317545,0.39782613,0.142760865
1764767761.5759509,-5.66146,1.43444,-0.06104,-0.890317545,0.39782613,0.142760865
1764767761.5759509,-5.66146,1.43444,-0.06104,-0.890317545,0.39782613,0.142760865
1764767761.5759509,-5.66146,1.43444,-0.06104,-0.890317545,0.39782613,0.142760865
1764767761.5759509,-5.66146,1.43444,-0.06104,-0.890317545,0.39782613,0.142760865
1764767761.5759509,-5.66146,1.43444,-0.06104,-0.890317545,0.39782613,0.142760865
1764767761.5759509,-5.340999999999999,1.6633399999999998,-0.0762999999999999,-0.88964616,0.397398885,0.142882935
1764767761.5759509,-5.340999999999999,1.6633399999999998,-0.0762999999999999,-0.88964616,0.397398885,0.142882935
1764767761.5759509,-5.340999999999999,1.6633399999999998,-0.0762999999999999,-0.88964616,0.397398885,0.142882935
1764767761.5759509,-5.340999999999999,1.6633399999999998,-0.0762999999999999,-0.88964616,0.397398885,0.142882935
1764767761.5759509,-5.340999999999999,1.6633399999999998,-0.0762999999999999,-0.88964616,0.397398885,0.142882935
1764767761.5759509,-5.340999999999999,1.6633399999999998,-0.0762999999999999,-0.88964616,0.397398885,0.142882935
1764767761.5759509,-5.340999999999999,1.6633399999999998,-0.0762999999999999,-0.88964616,0.397398885,0.142882935
1764767761.5759509,-5.340999999999999,1.6633399999999998,-0.0762999999999999,-0.88964616,0.397398885,0.142882935
1764767761.620244,-5.340999999999999,1.6633399999999998,-0.0762999999999999,-0.88964616,0.397398885,0.142882935
1764767761.620244,-5.340999999999999,1.6633399999999998,-0.0762999999999999,-0.88964616,0.397398885,0.142882935
1764767761.620244,-5.29522,1.89224,0.04578,-0.89050065,0.395567835,0.142882935
1764767761.620244,-5.29522,1.89224,0.04578,-0.89050065,0.395567835,0.142882935
1764767761.620244,-5.29522,1.89224,0.04578,-0.89050065,0.395567835,0.142882935
1764767761.620244,-5.29522,1.89224,0.04578,-0.89050065,0.395567835,0.142882935
1764767761.620244,-5.29522,1.89224,0.04578,-0.89050065,0.395567835,0.142882935
1764767761.620244,-5.29522,1.89224,0.04578,-0.89050065,0.395567835,0.142882935
1764767761.620244,-5.29522,1.89224,0.04578,-0.89050065,0.395567835,0.142882935
1764767761.620244,-5.29522,1.89224,0.04578,-0.89050065,0.395567835,0.142882935
1764767761.620244,-5.29522,1.89224,0.04578,-0.89050065,0.395567835,0.142882935
1764767761.620244,-5.29522,1.89224,0.04578,-0.89050065,0.395567835,0.142882935
1764767761.620244,-4.56274,1.17502,0.5341,-0.89135514,0.394469205,0.143493285
1764767761.620244,-4.56274,1.17502,0.5341,-0.89135514,0.394469205,0.143493285
1764767761.6213248,-4.56274,1.17502,0.5341,-0.89135514,0.394469205,0.143493285
1764767761.6213248,-4.56274,1.17502,0.5341,-0.89135514,0.394469205,0.143493285
1764767761.6213248,-4.56274,1.17502,0.5341,-0.89135514,0.394469205,0.143493285
1764767761.6213248,-4.56274,1.17502,0.5341,-0.89135514,0.394469205,0.143493285
1764767761.6213248,-4.56274,1.17502,0.5341,-0.89135514,0.394469205,0.143493285
1764767761.6213248,-4.56274,1.17502,0.5341,-0.89135514,0.394469205,0.143493285
1764767761.6213248,-4.56274,1.17502,0.5341,-0.89135514,0.394469205,0.143493285
1764767761.6213248,-4.56274,1.17502,0.5341,-0.89135514,0.394469205,0.143493285
1764767761.6213248,-4.24228,1.26658,0.3357199999999999,-0.89172135,0.393858855,0.142760865
1764767761.6213248,-4.24228,1.26658,0.3357199999999999,-0.89172135,0.393858855,0.142760865
1764767761.6213248,-4.24228,1.26658,0.3357199999999999,-0.89172135,0.393858855,0.142760865
1764767761.6213248,-4.24228,1.26658,0.3357199999999999,-0.89172135,0.393858855,0.142760865
1764767761.6676223,-4.24228,1.26658,0.3357199999999999,-0.89172135,0.393858855,0.142760865
1764767761.6676223,-4.24228,1.26658,0.3357199999999999,-0.89172135,0.393858855,0.142760865
1764767761.6676223,-4.24228,1.26658,0.3357199999999999,-0.89172135,0.393858855,0.142760865
1764767761.6676223,-4.24228,1.26658,0.3357199999999999,-0.89172135,0.393858855,0.142760865
1764767761.6676223,-4.24228,1.26658,0.3357199999999999,-0.89172135,0.393858855,0.142760865
1764767761.6676223,-4.24228,1.26658,0.3357199999999999,-0.89172135,0.393858855,0.142760865
1764767761.6676223,-4.303319999999999,1.02242,-0.1525999999999999,-0.891538245,0.3942861,0.14257776
1764767761.6676223,-4.303319999999999,1.02242,-0.1525999999999999,-0.891538245,0.3942861,0.14257776
1764767761.6676223,-4.303319999999999,1.02242,-0.1525999999999999,-0.891538245,0.3942861,0.14257776
1764767761.6676223,-4.303319999999999,1.02242,-0.1525999999999999,-0.891538245,0.3942861,0.14257776
1764767761.6676223,-4.303319999999999,1.02242,-0.1525999999999999,-0.891538245,0.3942861,0.14257776
1764767761.6676223,-4.303319999999999,1.02242,-0.1525999999999999,-0.891538245,0.3942861,0.14257776
1764767761.6676223,-4.303319999999999,1.02242,-0.1525999999999999,-0.891538245,0.3942861,0.14257776
1764767761.6676223,-4.303319999999999,1.02242,-0.1525999999999999,-0.891538245,0.3942861,0.14257776
1764767761.6676223,-4.303319999999999,1.02242,-0.1525999999999999,-0.891538245,0.3942861,0.14257776
1764767761.6676223,-4.303319999999999,1.02242,-0.1525999999999999,-0.891538245,0.3942861,0.14257776
1764767761.6676223,-4.22702,1.31236,0.09156,-0.891049965,0.392882295,0.141906375
1764767761.6676223,-4.22702,1.31236,0.09156,-0.891049965,0.392882295,0.141906375
1764767761.6676223,-4.22702,1.31236,0.09156,-0.891049965,0.392882295,0.141906375
1764767761.6676223,-4.22702,1.31236,0.09156,-0.891049965,0.392882295,0.141906375
1764767761.6676223,-4.22702,1.31236,0.09156,-0.891049965,0.392882295,0.141906375
1764767761.6676223,-4.22702,1.31236,0.09156,-0.891049965,0.392882295,0.141906375
1764767761.713899,-4.22702,1.31236,0.09156,-0.891049965,0.392882295,0.141906375
1764767761.713899,-4.22702,1.31236,0.09156,-0.891049965,0.392882295,0.141906375
1764767761.713899,-4.22702,1.31236,0.09156,-0.891049965,0.392882295,0.141906375
1764767761.713899,-4.22702,1.31236,0.09156,-0.891049965,0.392882295,0.141906375
1764767761.713899,-3.61662,1.0682,-0.5341,-0.890805825,0.39196677,0.14172327
1764767761.713899,-3.61662,1.0682,-0.5341,-0.890805825,0.39196677,0.14172327
1764767761.713899,-3.61662,1.0682,-0.5341,-0.890805825,0.39196677,0.14172327
1764767761.713899,-3.61662,1.0682,-0.5341,-0.890805825,0.39196677,0.14172327
1764767761.713899,-3.61662,1.0682,-0.5341,-0.890805825,0.39196677,0.14172327
1764767761.713899,-3.61662,1.0682,-0.5341,-0.890805825,0.39196677,0.14172327
1764767761.713899,-3.61662,1.0682,-0.5341,-0.890805825,0.39196677,0.14172327
1764767761.713899,-3.61662,1.0682,-0.5341,-0.890805825,0.39196677,0.14172327
1764767761.713899,-3.61662,1.0682,-0.5341,-0.890805825,0.39196677,0.14172327
1764767761.713899,-3.61662,1.0682,-0.5341,-0.890805825,0.39196677,0.14172327
1764767761.713899,-3.47928,0.79352,-0.01526,-0.889829265,0.39343161,0.141173955
1764767761.713899,-3.47928,0.79352,-0.01526,-0.889829265,0.39343161,0.141173955
1764767761.713899,-3.47928,0.79352,-0.01526,-0.889829265,0.39343161,0.141173955
1764767761.7149105,-3.47928,0.79352,-0.01526,-0.889829265,0.39343161,0.141173955
1764767761.7149105,-3.47928,0.79352,-0.01526,-0.889829265,0.39343161,0.141173955
1764767761.7149105,-3.47928,0.79352,-0.01526,-0.889829265,0.39343161,0.141173955
1764767761.7149105,-3.47928,0.79352,-0.01526,-0.889829265,0.39343161,0.141173955
1764767761.7149105,-3.47928,0.79352,-0.01526,-0.889829265,0.39343161,0.141173955
1764767761.761125,-3.47928,0.79352,-0.01526,-0.889829265,0.39343161,0.141173955
1764767761.761125,-3.47928,0.79352,-0.01526,-0.889829265,0.39343161,0.141173955
1764767761.761125,-5.00528,1.64808,-0.51884,-0.891660315,0.397154745,0.13940394
1764767761.7626152,-5.00528,1.64808,-0.51884,-0.891660315,0.397154745,0.13940394
1764767761.7626152,-5.00528,1.64808,-0.51884,-0.891660315,0.397154745,0.13940394
1764767761.7626152,-5.00528,1.64808,-0.51884,-0.891660315,0.397154745,0.13940394
1764767761.7626152,-5.00528,1.64808,-0.51884,-0.891660315,0.397154745,0.13940394
1764767761.7626152,-5.00528,1.64808,-0.51884,-0.891660315,0.397154745,0.13940394
1764767761.7626152,-5.00528,1.64808,-0.51884,-0.891660315,0.397154745,0.13940394
1764767761.7626152,-5.00528,1.64808,-0.51884,-0.891660315,0.397154745,0.13940394
1764767761.7626152,-5.00528,1.64808,-0.51884,-0.891660315,0.397154745,0.13940394
1764767761.7626152,-5.00528,1.64808,-0.51884,-0.891660315,0.397154745,0.13940394
1764767761.7626152,-6.14978,1.73964,-0.73248,-0.89208756,0.39770406,0.1391598
1764767761.7626152,-6.14978,1.73964,-0.73248,-0.89208756,0.39770406,0.1391598
1764767761.7626152,-6.14978,1.73964,-0.73248,-0.89208756,0.39770406,0.1391598
1764767761.7626152,-6.14978,1.73964,-0.73248,-0.89208756,0.39770406,0.1391598
1764767761.7626152,-6.14978,1.73964,-0.73248,-0.89208756,0.39770406,0.1391598
1764767761.7626152,-6.14978,1.73964,-0.73248,-0.89208756,0.39770406,0.1391598
1764767761.7626152,-6.14978,1.73964,-0.73248,-0.89208756,0.39770406,0.1391598
1764767761.7626152,-6.14978,1.73964,-0.73248,-0.89208756,0.39770406,0.1391598
1764767761.7626152,-6.14978,1.73964,-0.73248,-0.89208756,0.39770406,0.1391598
1764767761.7626152,-6.14978,1.73964,-0.73248,-0.89208756,0.39770406,0.1391598
1764767761.7626152,-6.14978,2.24322,-0.8698199999999999,-0.8917823850000001,0.39575094,0.14001429
1764767761.7626152,-6.14978,2.24322,-0.8698199999999999,-0.8917823850000001,0.39575094,0.14001429
1764767761.8093913,-6.14978,2.24322,-0.8698199999999999,-0.8917823850000001,0.39575094,0.14001429
1764767761.8093913,-6.14978,2.24322,-0.8698199999999999,-0.8917823850000001,0.39575094,0.14001429
1764767761.8093913,-6.14978,2.24322,-0.8698199999999999,-0.8917823850000001,0.39575094,0.14001429
1764767761.8093913,-6.14978,2.24322,-0.8698199999999999,-0.8917823850000001,0.39575094,0.14001429
1764767761.8093913,-6.14978,2.24322,-0.8698199999999999,-0.8917823850000001,0.39575094,0.14001429
1764767761.8093913,-6.14978,2.24322,-0.8698199999999999,-0.8917823850000001,0.39575094,0.14001429
1764767761.8093913,-6.14978,2.24322,-0.8698199999999999,-0.8917823850000001,0.39575094,0.14001429
1764767761.8093913,-6.14978,2.24322,-0.8698199999999999,-0.8917823850000001,0.39575094,0.14001429
1764767761.8093913,-5.997179999999999,2.1364,-0.5341,-0.89257584,0.393370575,0.140197395
1764767761.8093913,-5.997179999999999,2.1364,-0.5341,-0.89257584,0.393370575,0.140197395
1764767761.8093913,-5.997179999999999,2.1364,-0.5341,-0.89257584,0.393370575,0.140197395
1764767761.8093913,-5.997179999999999,2.1364,-0.5341,-0.89257584,0.393370575,0.140197395
1764767761.8093913,-5.997179999999999,2.1364,-0.5341,-0.89257584,0.393370575,0.140197395
1764767761.8093913,-5.997179999999999,2.1364,-0.5341,-0.89257584,0.393370575,0.140197395
1764767761.810398,-5.997179999999999,2.1364,-0.5341,-0.89257584,0.393370575,0.140197395
1764767761.810398,-5.997179999999999,2.1364,-0.5341,-0.89257584,0.393370575,0.140197395
1764767761.810398,-5.997179999999999,2.1364,-0.5341,-0.89257584,0.393370575,0.140197395
1764767761.810398,-5.997179999999999,2.1364,-0.5341,-0.89257584,0.393370575,0.140197395
1764767761.810398,-5.4173,1.61756,-0.3204599999999999,-0.8928199800000001,0.39208884,0.141784305
1764767761.810398,-5.4173,1.61756,-0.3204599999999999,-0.8928199800000001,0.39208884,0.141784305
1764767761.810398,-5.4173,1.61756,-0.3204599999999999,-0.8928199800000001,0.39208884,0.141784305
1764767761.810398,-5.4173,1.61756,-0.3204599999999999,-0.8928199800000001,0.39208884,0.141784305
1764767761.810398,-5.4173,1.61756,-0.3204599999999999,-0.8928199800000001,0.39208884,0.141784305
1764767761.810398,-5.4173,1.61756,-0.3204599999999999,-0.8928199800000001,0.39208884,0.141784305
1764767761.8564155,-5.4173,1.61756,-0.3204599999999999,-0.8928199800000001,0.39208884,0.141784305
1764767761.8569236,-5.4173,1.61756,-0.3204599999999999,-0.8928199800000001,0.39208884,0.141784305
1764767761.8569236,-5.4173,1.61756,-0.3204599999999999,-0.8928199800000001,0.39208884,0.141784305
1764767761.8569236,-5.4173,1.61756,-0.3204599999999999,-0.8928199800000001,0.39208884,0.141784305
1764767761.8569236,-4.45592,1.84646,-0.3815,-0.892758945,0.39050193,0.142882935
1764767761.8569236,-4.45592,1.84646,-0.3815,-0.892758945,0.39050193,0.142882935
1764767761.8569236,-4.45592,1.84646,-0.3815,-0.892758945,0.39050193,0.142882935
1764767761.8569236,-4.45592,1.84646,-0.3815,-0.892758945,0.39050193,0.142882935
1764767761.8569236,-4.45592,1.84646,-0.3815,-0.892758945,0.39050193,0.142882935
1764767761.8569236,-4.45592,1.84646,-0.3815,-0.892758945,0.39050193,0.142882935
1764767761.8569236,-4.45592,1.84646,-0.3815,-0.892758945,0.39050193,0.142882935
1764767761.8569236,-4.45592,1.84646,-0.3815,-0.892758945,0.39050193,0.142882935
1764767761.8569236,-4.45592,1.84646,-0.3815,-0.892758945,0.39050193,0.142882935
1764767761.8569236,-4.45592,1.84646,-0.3815,-0.892758945,0.39050193,0.142882935
1764767761.8569236,-3.11304,1.78542,-0.25942,-0.893003085,0.39050193,0.143615355
1764767761.8569236,-3.11304,1.78542,-0.25942,-0.893003085,0.39050193,0.143615355
1764767761.8569236,-3.11304,1.78542,-0.25942,-0.893003085,0.39050193,0.143615355
1764767761.8569236,-3.11304,1.78542,-0.25942,-0.893003085,0.39050193,0.143615355
1764767761.8569236,-3.11304,1.78542,-0.25942,-0.893003085,0.39050193,0.143615355
1764767761.8569236,-3.11304,1.78542,-0.25942,-0.893003085,0.39050193,0.143615355
1764767761.8569236,-3.11304,1.78542,-0.25942,-0.893003085,0.39050193,0.143615355
1764767761.8569236,-3.11304,1.78542,-0.25942,-0.893003085,0.39050193,0.143615355
1764767761.8999035,-3.11304,1.78542,-0.25942,-0.893003085,0.39050193,0.143615355
1764767761.8999035,-3.11304,1.78542,-0.25942,-0.893003085,0.39050193,0.143615355
1764767761.9004138,-3.5098,1.63282,-0.6409199999999999,-0.893491365,0.392516085,0.14343225
1764767761.9004138,-3.5098,1.63282,-0.6409199999999999,-0.893491365,0.392516085,0.14343225
1764767761.9004138,-3.5098,1.63282,-0.6409199999999999,-0.893491365,0.392516085,0.14343225
1764767761.9004138,-3.5098,1.63282,-0.6409199999999999,-0.893491365,0.392516085,0.14343225
1764767761.9004138,-3.5098,1.63282,-0.6409199999999999,-0.893491365,0.392516085,0.14343225
1764767761.9004138,-3.5098,1.63282,-0.6409199999999999,-0.893491365,0.392516085,0.14343225
1764767761.9004138,-3.5098,1.63282,-0.6409199999999999,-0.893491365,0.392516085,0.14343225
1764767761.9004138,-3.5098,1.63282,-0.6409199999999999,-0.893491365,0.392516085,0.14343225
1764767761.9004138,-3.5098,1.63282,-0.6409199999999999,-0.893491365,0.392516085,0.14343225
1764767761.9004138,-3.5098,1.63282,-0.6409199999999999,-0.893491365,0.392516085,0.14343225
1764767761.9004138,-4.01338,1.64808,-0.51884,-0.8935524,0.394713345,0.14135706
1764767761.9004138,-4.01338,1.64808,-0.51884,-0.8935524,0.394713345,0.14135706
1764767761.9004138,-4.01338,1.64808,-0.51884,-0.8935524,0.394713345,0.14135706
1764767761.9004138,-4.01338,1.64808,-0.51884,-0.8935524,0.394713345,0.14135706
1764767761.9004138,-4.01338,1.64808,-0.51884,-0.8935524,0.394713345,0.14135706
1764767761.9004138,-4.01338,1.64808,-0.51884,-0.8935524,0.394713345,0.14135706
1764767761.9004138,-4.01338,1.64808,-0.51884,-0.8935524,0.394713345,0.14135706
1764767761.9004138,-4.01338,1.64808,-0.51884,-0.8935524,0.394713345,0.14135706
1764767761.9014273,-4.01338,1.64808,-0.51884,-0.8935524,0.394713345,0.14135706
1764767761.9014273,-4.01338,1.64808,-0.51884,-0.8935524,0.394713345,0.14135706
1764767761.9014273,-4.18124,1.6633399999999998,-0.27468,-0.89257584,0.396422325,0.140685675
1764767761.9014273,-4.18124,1.6633399999999998,-0.27468,-0.89257584,0.396422325,0.140685675
1764767761.9476414,-4.18124,1.6633399999999998,-0.27468,-0.89257584,0.396422325,0.140685675
1764767761.9476414,-4.18124,1.6633399999999998,-0.27468,-0.89257584,0.396422325,0.140685675
1764767761.9476414,-4.18124,1.6633399999999998,-0.27468,-0.89257584,0.396422325,0.140685675
1764767761.9476414,-4.18124,1.6633399999999998,-0.27468,-0.89257584,0.396422325,0.140685675
1764767761.9476414,-4.18124,1.6633399999999998,-0.27468,-0.89257584,0.396422325,0.140685675
1764767761.9476414,-4.18124,1.6633399999999998,-0.27468,-0.89257584,0.396422325,0.140685675
1764767761.948655,-4.18124,1.6633399999999998,-0.27468,-0.89257584,0.396422325,0.140685675
1764767761.948655,-4.18124,1.6633399999999998,-0.27468,-0.89257584,0.396422325,0.140685675
1764767761.948655,-4.66956,1.4497,-0.3204599999999999,-0.892758945,0.396788535,0.14074671
1764767761.948655,-4.66956,1.4497,-0.3204599999999999,-0.892758945,0.396788535,0.14074671
1764767761.948655,-4.66956,1.4497,-0.3204599999999999,-0.892758945,0.396788535,0.14074671
1764767761.948655,-4.66956,1.4497,-0.3204599999999999,-0.892758945,0.396788535,0.14074671
1764767761.948655,-4.66956,1.4497,-0.3204599999999999,-0.892758945,0.396788535,0.14074671
1764767761.948655,-4.66956,1.4497,-0.3204599999999999,-0.892758945,0.396788535,0.14074671
1764767761.948655,-4.66956,1.4497,-0.3204599999999999,-0.892758945,0.396788535,0.14074671
1764767761.948655,-4.66956,1.4497,-0.3204599999999999,-0.892758945,0.396788535,0.14074671
1764767761.948655,-4.66956,1.4497,-0.3204599999999999,-0.892758945,0.396788535,0.14074671
1764767761.948655,-4.66956,1.4497,-0.3204599999999999,-0.892758945,0.396788535,0.14074671
1764767761.948655,-4.51696,1.48022,-0.18312,-0.89062272,0.395445765,0.142150515
1764767761.948655,-4.51696,1.48022,-0.18312,-0.89062272,0.395445765,0.142150515
1764767761.948655,-4.51696,1.48022,-0.18312,-0.89062272,0.395445765,0.142150515
1764767761.948655,-4.51696,1.48022,-0.18312,-0.89062272,0.395445765,0.142150515
1764767761.9954977,-4.51696,1.48022,-0.18312,-0.89062272,0.395445765,0.142150515
1764767761.9954977,-4.51696,1.48022,-0.18312,-0.89062272,0.395445765,0.142150515
1764767761.9954977,-4.51696,1.48022,-0.18312,-0.89062272,0.395445765,0.142150515
1764767761.9954977,-4.51696,1.48022,-0.18312,-0.89062272,0.395445765,0.142150515
1764767761.9954977,-4.51696,1.48022,-0.18312,-0.89062272,0.395445765,0.142150515
1764767761.9954977,-4.51696,1.48022,-0.18312,-0.89062272,0.395445765,0.142150515
1764767761.9954977,-4.7306,1.48022,0.01526,-0.8917823850000001,0.394591275,0.142516725
1764767761.9954977,-4.7306,1.48022,0.01526,-0.8917823850000001,0.394591275,0.142516725
1764767761.9954977,-4.7306,1.48022,0.01526,-0.8917823850000001,0.394591275,0.142516725
1764767761.9954977,-4.7306,1.48022,0.01526,-0.8917823850000001,0.394591275,0.142516725
1764767761.9954977,-4.7306,1.48022,0.01526,-0.8917823850000001,0.394591275,0.142516725
1764767761.9954977,-4.7306,1.48022,0.01526,-0.8917823850000001,0.394591275,0.142516725
1764767761.9954977,-4.7306,1.48022,0.01526,-0.8917823850000001,0.394591275,0.142516725
1764767761.9954977,-4.7306,1.48022,0.01526,-0.8917823850000001,0.394591275,0.142516725
1764767761.9954977,-4.7306,1.48022,0.01526,-0.8917823850000001,0.394591275,0.142516725
1764767761.9954977,-4.7306,1.48022,0.01526,-0.8917823850000001,0.394591275,0.142516725
1764767761.9954977,-5.14262,1.19028,0.3815,-0.89245377,0.39391989,0.142028445
1764767761.9954977,-5.14262,1.19028,0.3815,-0.89245377,0.39391989,0.142028445
1764767761.9954977,-5.14262,1.19028,0.3815,-0.89245377,0.39391989,0.142028445
1764767761.9954977,-5.14262,1.19028,0.3815,-0.89245377,0.39391989,0.142028445
1764767761.9954977,-5.14262,1.19028,0.3815,-0.89245377,0.39391989,0.142028445
1764767761.9954977,-5.14262,1.19028,0.3815,-0.89245377,0.39391989,0.142028445
1764767761.9954977,-5.14262,1.19028,0.3815,-0.89245377,0.39391989,0.142028445
1764767761.9954977,-5.14262,1.19028,0.3815,-0.89245377,0.39391989,0.142028445
1764767762.0377736,-5.14262,1.19028,0.3815,-0.89245377,0.39391989,0.142028445
1764767762.0377736,-5.14262,1.19028,0.3815,-0.89245377,0.39391989,0.142028445
1764767762.0377736,-5.32574,1.00716,-0.01526,-0.894101715,0.393858855,0.141906375
1764767762.0377736,-5.32574,1.00716,-0.01526,-0.894101715,0.393858855,0.141906375
1764767762.0377736,-5.32574,1.00716,-0.01526,-0.894101715,0.393858855,0.141906375
1764767762.0377736,-5.32574,1.00716,-0.01526,-0.894101715,0.393858855,0.141906375
1764767762.0377736,-5.32574,1.00716,-0.01526,-0.894101715,0.393858855,0.141906375
1764767762.0377736,-5.32574,1.00716,-0.01526,-0.894101715,0.393858855,0.141906375
1764767762.0377736,-5.32574,1.00716,-0.01526,-0.894101715,0.393858855,0.141906375
1764767762.0377736,-5.32574,1.00716,-0.01526,-0.894101715,0.393858855,0.141906375
1764767762.0377736,-5.32574,1.00716,-0.01526,-0.894101715,0.393858855,0.141906375
1764767762.0377736,-5.32574,1.00716,-0.01526,-0.894101715,0.393858855,0.141906375
1764767762.0377736,-5.20366,0.8087799999999999,-0.04578,-0.894223785,0.393614715,0.14123499
1764767762.0377736,-5.20366,0.8087799999999999,-0.04578,-0.894223785,0.393614715,0.14123499
1764767762.0377736,-5.20366,0.8087799999999999,-0.04578,-0.894223785,0.393614715,0.14123499
1764767762.0377736,-5.20366,0.8087799999999999,-0.04578,-0.894223785,0.393614715,0.14123499
1764767762.0377736,-5.20366,0.8087799999999999,-0.04578,-0.894223785,0.393614715,0.14123499
1764767762.0377736,-5.20366,0.8087799999999999,-0.04578,-0.894223785,0.393614715,0.14123499
1764767762.0377736,-5.20366,0.8087799999999999,-0.04578,-0.894223785,0.393614715,0.14123499
1764767762.0377736,-5.20366,0.8087799999999999,-0.04578,-0.894223785,0.393614715,0.14123499
1764767762.0377736,-5.20366,0.8087799999999999,-0.04578,-0.894223785,0.393614715,0.14123499
1764767762.0377736,-5.20366,0.8087799999999999,-0.04578,-0.894223785,0.393614715,0.14123499
1764767762.0848486,-4.86794,0.77826,-0.04578,-0.89465103,0.39355368,0.14062464
1764767762.0848486,-4.86794,0.77826,-0.04578,-0.89465103,0.39355368,0.14062464
1764767762.0848486,-4.86794,0.77826,-0.04578,-0.89465103,0.39355368,0.14062464
1764767762.0848486,-4.86794,0.77826,-0.04578,-0.89465103,0.39355368,0.14062464
1764767762.0848486,-4.86794,0.77826,-0.04578,-0.89465103,0.39355368,0.14062464
1764767762.0848486,-4.86794,0.77826,-0.04578,-0.89465103,0.39355368,0.14062464
1764767762.0848486,-4.86794,0.77826,-0.04578,-0.89465103,0.39355368,0.14062464
1764767762.0848486,-4.86794,0.77826,-0.04578,-0.89465103,0.39355368,0.14062464
1764767762.0848486,-4.86794,0.77826,-0.04578,-0.89465103,0.39355368,0.14062464
1764767762.0848486,-4.86794,0.77826,-0.04578,-0.89465103,0.39355368,0.14062464
1764767762.0848486,-4.86794,0.77826,0.3204599999999999,-0.894467925,0.393248505,0.139709115
1764767762.0848486,-4.86794,0.77826,0.3204599999999999,-0.894467925,0.393248505,0.139709115
1764767762.08613,-4.86794,0.77826,0.3204599999999999,-0.894467925,0.393248505,0.139709115
1764767762.08613,-4.86794,0.77826,0.3204599999999999,-0.894467925,0.393248505,0.139709115
1764767762.08613,-4.86794,0.77826,0.3204599999999999,-0.894467925,0.393248505,0.139709115
1764767762.08613,-4.86794,0.77826,0.3204599999999999,-0.894467925,0.393248505,0.139709115
1764767762.08613,-4.86794,0.77826,0.3204599999999999,-0.894467925,0.393248505,0.139709115
1764767762.08613,-4.86794,0.77826,0.3204599999999999,-0.894467925,0.393248505,0.139709115
1764767762.08613,-4.86794,0.77826,0.3204599999999999,-0.894467925,0.393248505,0.139709115
1764767762.08613,-4.86794,0.77826,0.3204599999999999,-0.894467925,0.393248505,0.139709115
1764767762.08613,-4.51696,0.71722,0.44254,-0.893857575,0.39221091,0.140319465
1764767762.08613,-4.51696,0.71722,0.44254,-0.893857575,0.39221091,0.140319465
1764767762.08613,-4.51696,0.71722,0.44254,-0.893857575,0.39221091,0.140319465
1764767762.08613,-4.51696,0.71722,0.44254,-0.893857575,0.39221091,0.140319465
1764767762.1325412,-4.51696,0.71722,0.44254,-0.893857575,0.39221091,0.140319465
1764767762.1325412,-4.51696,0.71722,0.44254,-0.893857575,0.39221091,0.140319465
1764767762.1325412,-4.51696,0.71722,0.44254,-0.893857575,0.39221091,0.140319465
1764767762.1335764,-4.51696,0.71722,0.44254,-0.893857575,0.39221091,0.140319465
1764767762.1335764,-4.51696,0.71722,0.44254,-0.893857575,0.39221091,0.140319465
1764767762.1335764,-4.51696,0.71722,0.44254,-0.893857575,0.39221091,0.140319465
1764767762.1335764,-4.01338,0.6714399999999999,0.2289,-0.89318619,0.391783665,0.140075325
1764767762.1335764,-4.01338,0.6714399999999999,0.2289,-0.89318619,0.391783665,0.140075325
1764767762.1335764,-4.01338,0.6714399999999999,0.2289,-0.89318619,0.391783665,0.140075325
1764767762.1335764,-4.01338,0.6714399999999999,0.2289,-0.89318619,0.391783665,0.140075325
1764767762.1335764,-4.01338,0.6714399999999999,0.2289,-0.89318619,0.391783665,0.140075325
1764767762.1335764,-4.01338,0.6714399999999999,0.2289,-0.89318619,0.391783665,0.140075325
1764767762.1335764,-4.01338,0.6714399999999999,0.2289,-0.89318619,0.391783665,0.140075325
1764767762.1335764,-4.01338,0.6714399999999999,0.2289,-0.89318619,0.391783665,0.140075325
1764767762.1335764,-4.01338,0.6714399999999999,0.2289,-0.89318619,0.391783665,0.140075325
1764767762.1335764,-4.01338,0.6714399999999999,0.2289,-0.89318619,0.391783665,0.140075325
1764767762.1335764,-3.95234,0.77826,0.39676,-0.893003085,0.39233298,0.13964808
1764767762.1335764,-3.95234,0.77826,0.39676,-0.893003085,0.39233298,0.13964808
1764767762.1335764,-3.95234,0.77826,0.39676,-0.893003085,0.39233298,0.13964808
1764767762.1335764,-3.95234,0.77826,0.39676,-0.893003085,0.39233298,0.13964808
1764767762.1335764,-3.95234,0.77826,0.39676,-0.893003085,0.39233298,0.13964808
1764767762.1335764,-3.95234,0.77826,0.39676,-0.893003085,0.39233298,0.13964808
1764767762.1335764,-3.95234,0.77826,0.39676,-0.893003085,0.39233298,0.13964808
1764767762.1335764,-3.95234,0.77826,0.39676,-0.893003085,0.39233298,0.13964808
1764767762.1801186,-3.95234,0.77826,0.39676,-0.893003085,0.39233298,0.13964808
1764767762.1801186,-3.95234,0.77826,0.39676,-0.893003085,0.39233298,0.13964808
1764767762.1801186,-4.02864,0.9003399999999999,0.41202,-0.892636875,0.392882295,0.139953255
1764767762.1801186,-4.02864,0.9003399999999999,0.41202,-0.892636875,0.392882295,0.139953255
1764767762.1801186,-4.02864,0.9003399999999999,0.41202,-0.892636875,0.392882295,0.139953255
1764767762.1801186,-4.02864,0.9003399999999999,0.41202,-0.892636875,0.392882295,0.139953255
1764767762.1801186,-4.02864,0.9003399999999999,0.41202,-0.892636875,0.392882295,0.139953255
1764767762.1801186,-4.02864,0.9003399999999999,0.41202,-0.892636875,0.392882295,0.139953255
1764767762.1801186,-4.02864,0.9003399999999999,0.41202,-0.892636875,0.392882295,0.139953255
1764767762.1801186,-4.02864,0.9003399999999999,0.41202,-0.892636875,0.392882295,0.139953255
1764767762.1801186,-4.02864,0.9003399999999999,0.41202,-0.892636875,0.392882295,0.139953255
1764767762.1801186,-4.02864,0.9003399999999999,0.41202,-0.892636875,0.392882295,0.139953255
1764767762.1801186,-4.33384,0.8087799999999999,0.19838,-0.892758945,0.39343161,0.14013636
1764767762.1801186,-4.33384,0.8087799999999999,0.19838,-0.892758945,0.39343161,0.14013636
1764767762.1801186,-4.33384,0.8087799999999999,0.19838,-0.892758945,0.39343161,0.14013636
1764767762.1801186,-4.33384,0.8087799999999999,0.19838,-0.892758945,0.39343161,0.14013636
1764767762.1801186,-4.33384,0.8087799999999999,0.19838,-0.892758945,0.39343161,0.14013636
1764767762.1801186,-4.33384,0.8087799999999999,0.19838,-0.892758945,0.39343161,0.14013636
1764767762.1801186,-4.33384,0.8087799999999999,0.19838,-0.892758945,0.39343161,0.14013636
1764767762.1801186,-4.33384,0.8087799999999999,0.19838,-0.892758945,0.39343161,0.14013636
1764767762.1801186,-4.33384,0.8087799999999999,0.19838,-0.892758945,0.39343161,0.14013636
1764767762.1801186,-4.33384,0.8087799999999999,0.19838,-0.892758945,0.39343161,0.14013636
1764767762.1801186,-4.24228,1.03768,0.1525999999999999,-0.893003085,0.393736785,0.14025843
1764767762.1801186,-4.24228,1.03768,0.1525999999999999,-0.893003085,0.393736785,0.14025843
1764767762.2270076,-4.24228,1.03768,0.1525999999999999,-0.893003085,0.393736785,0.14025843
1764767762.2283528,-4.24228,1.03768,0.1525999999999999,-0.893003085,0.393736785,0.14025843
1764767762.2283528,-4.24228,1.03768,0.1525999999999999,-0.893003085,0.393736785,0.14025843
1764767762.2283528,-4.24228,1.03768,0.1525999999999999,-0.893003085,0.393736785,0.14025843
1764767762.2283528,-4.24228,1.03768,0.1525999999999999,-0.893003085,0.393736785,0.14025843
1764767762.2283528,-4.24228,1.03768,0.1525999999999999,-0.893003085,0.393736785,0.14025843
1764767762.2283528,-4.24228,1.03768,0.1525999999999999,-0.893003085,0.393736785,0.14025843
1764767762.2283528,-4.24228,1.03768,0.1525999999999999,-0.893003085,0.393736785,0.14025843
1764767762.2283528,-4.01338,0.94612,0.03052,-0.8935524,0.393614715,0.140807745
1764767762.2283528,-4.01338,0.94612,0.03052,-0.8935524,0.393614715,0.140807745
1764767762.2283528,-4.01338,0.94612,0.03052,-0.8935524,0.393614715,0.140807745
1764767762.2283528,-4.01338,0.94612,0.03052,-0.8935524,0.393614715,0.140807745
1764767762.2283528,-4.01338,0.94612,0.03052,-0.8935524,0.393614715,0.140807745
1764767762.2283528,-4.01338,0.94612,0.03052,-0.8935524,0.393614715,0.140807745
1764767762.2283528,-4.01338,0.94612,0.03052,-0.8935524,0.393614715,0.140807745
1764767762.2283528,-4.01338,0.94612,0.03052,-0.8935524,0.393614715,0.140807745
1764767762.2283528,-4.01338,0.94612,0.03052,-0.8935524,0.393614715,0.140807745
1764767762.2283528,-4.01338,0.94612,0.03052,-0.8935524,0.393614715,0.140807745
1764767762.2283528,-4.3491,0.96138,-0.2289,-0.893613435,0.39440817,0.140319465
1764767762.2283528,-4.3491,0.96138,-0.2289,-0.893613435,0.39440817,0.140319465
1764767762.2283528,-4.3491,0.96138,-0.2289,-0.893613435,0.39440817,0.140319465
1764767762.2283528,-4.3491,0.96138,-0.2289,-0.893613435,0.39440817,0.140319465
1764767762.274814,-4.3491,0.96138,-0.2289,-0.893613435,0.39440817,0.140319465
1764767762.274814,-4.3491,0.96138,-0.2289,-0.893613435,0.39440817,0.140319465
1764767762.274814,-4.3491,0.96138,-0.2289,-0.893613435,0.39440817,0.140319465
1764767762.274814,-4.3491,0.96138,-0.2289,-0.893613435,0.39440817,0.140319465
1764767762.274814,-4.3491,0.96138,-0.2289,-0.893613435,0.39440817,0.140319465
1764767762.274814,-4.3491,0.96138,-0.2289,-0.893613435,0.39440817,0.140319465
1764767762.274814,-4.59326,0.97664,0.18312,-0.893491365,0.395201625,0.140563605
1764767762.2758148,-4.59326,0.97664,0.18312,-0.893491365,0.395201625,0.140563605
1764767762.2758148,-4.59326,0.97664,0.18312,-0.893491365,0.395201625,0.140563605
1764767762.2758148,-4.59326,0.97664,0.18312,-0.893491365,0.395201625,0.140563605
1764767762.2758148,-4.59326,0.97664,0.18312,-0.893491365,0.395201625,0.140563605
1764767762.2758148,-4.59326,0.97664,0.18312,-0.893491365,0.395201625,0.140563605
1764767762.2758148,-4.59326,0.97664,0.18312,-0.893491365,0.395201625,0.140563605
1764767762.2758148,-4.59326,0.97664,0.18312,-0.893491365,0.395201625,0.140563605
1764767762.2758148,-4.59326,0.97664,0.18312,-0.893491365,0.395201625,0.140563605
1764767762.2758148,-4.59326,0.97664,0.18312,-0.893491365,0.395201625,0.140563605
1764767762.2758148,-4.92898,0.93086,0.3815,-0.892636875,0.39514059,0.140685675
1764767762.2758148,-4.92898,0.93086,0.3815,-0.892636875,0.39514059,0.140685675
1764767762.2758148,-4.92898,0.93086,0.3815,-0.892636875,0.39514059,0.140685675
1764767762.2758148,-4.92898,0.93086,0.3815,-0.892636875,0.39514059,0.140685675
1764767762.2758148,-4.92898,0.93086,0.3815,-0.892636875,0.39514059,0.140685675
1764767762.2758148,-4.92898,0.93086,0.3815,-0.892636875,0.39514059,0.140685675
1764767762.2758148,-4.92898,0.93086,0.3815,-0.892636875,0.39514059,0.140685675
1764767762.2758148,-4.92898,0.93086,0.3815,-0.892636875,0.39514059,0.140685675
1764767762.3193212,-4.92898,0.93086,0.3815,-0.892636875,0.39514059,0.140685675
1764767762.3193212,-4.92898,0.93086,0.3815,-0.892636875,0.39514059,0.140685675
1764767762.3193212,-4.89846,1.0682,0.3051999999999999,-0.8928199800000001,0.394957485,0.14123499
1764767762.319836,-4.89846,1.0682,0.3051999999999999,-0.8928199800000001,0.394957485,0.14123499
1764767762.319836,-4.89846,1.0682,0.3051999999999999,-0.8928199800000001,0.394957485,0.14123499
1764767762.319836,-4.89846,1.0682,0.3051999999999999,-0.8928199800000001,0.394957485,0.14123499
1764767762.319836,-4.89846,1.0682,0.3051999999999999,-0.8928199800000001,0.394957485,0.14123499
1764767762.319836,-4.89846,1.0682,0.3051999999999999,-0.8928199800000001,0.394957485,0.14123499
1764767762.319836,-4.89846,1.0682,0.3051999999999999,-0.8928199800000001,0.394957485,0.14123499
1764767762.319836,-4.89846,1.0682,0.3051999999999999,-0.8928199800000001,0.394957485,0.14123499
1764767762.319836,-4.89846,1.0682,0.3051999999999999,-0.8928199800000001,0.394957485,0.14123499
1764767762.319836,-4.89846,1.0682,0.3051999999999999,-0.8928199800000001,0.394957485,0.14123499
1764767762.319836,-4.86794,0.88508,0.36624,-0.8935524,0.394469205,0.14172327
1764767762.319836,-4.86794,0.88508,0.36624,-0.8935524,0.394469205,0.14172327
1764767762.319836,-4.86794,0.88508,0.36624,-0.8935524,0.394469205,0.14172327
1764767762.319836,-4.86794,0.88508,0.36624,-0.8935524,0.394469205,0.14172327
1764767762.319836,-4.86794,0.88508,0.36624,-0.8935524,0.394469205,0.14172327
1764767762.319836,-4.86794,0.88508,0.36624,-0.8935524,0.394469205,0.14172327
1764767762.319836,-4.86794,0.88508,0.36624,-0.8935524,0.394469205,0.14172327
1764767762.319836,-4.86794,0.88508,0.36624,-0.8935524,0.394469205,0.14172327
1764767762.319836,-4.86794,0.88508,0.36624,-0.8935524,0.394469205,0.14172327
1764767762.319836,-4.86794,0.88508,0.36624,-0.8935524,0.394469205,0.14172327
1764767762.3668342,-4.62378,1.12924,0.6867,-0.893979645,0.394102995,0.14257776
1764767762.3668342,-4.62378,1.12924,0.6867,-0.893979645,0.394102995,0.14257776
1764767762.3668342,-4.62378,1.12924,0.6867,-0.893979645,0.394102995,0.14257776
1764767762.3668342,-4.62378,1.12924,0.6867,-0.893979645,0.394102995,0.14257776
1764767762.3668342,-4.62378,1.12924,0.6867,-0.893979645,0.394102995,0.14257776
1764767762.3668342,-4.62378,1.12924,0.6867,-0.893979645,0.394102995,0.14257776
1764767762.3668342,-4.62378,1.12924,0.6867,-0.893979645,0.394102995,0.14257776
1764767762.3668342,-4.62378,1.12924,0.6867,-0.893979645,0.394102995,0.14257776
1764767762.3668342,-4.62378,1.12924,0.6867,-0.893979645,0.394102995,0.14257776
1764767762.3668342,-4.62378,1.12924,0.6867,-0.893979645,0.394102995,0.14257776
1764767762.3668342,-4.97476,0.763,0.47306,-0.8935524,0.39391989,0.142516725
1764767762.3668342,-4.97476,0.763,0.47306,-0.8935524,0.39391989,0.142516725
1764767762.3668342,-4.97476,0.763,0.47306,-0.8935524,0.39391989,0.142516725
1764767762.3668342,-4.97476,0.763,0.47306,-0.8935524,0.39391989,0.142516725
1764767762.3668342,-4.97476,0.763,0.47306,-0.8935524,0.39391989,0.142516725
1764767762.3668342,-4.97476,0.763,0.47306,-0.8935524,0.39391989,0.142516725
1764767762.3668342,-4.97476,0.763,0.47306,-0.8935524,0.39391989,0.142516725
1764767762.3668342,-4.97476,0.763,0.47306,-0.8935524,0.39391989,0.142516725
1764767762.3668342,-4.97476,0.763,0.47306,-0.8935524,0.39391989,0.142516725
1764767762.3668342,-4.97476,0.763,0.47306,-0.8935524,0.39391989,0.142516725
1764767762.3668342,-5.08158,0.6867,0.6867,-0.892758945,0.39330954,0.1416012
1764767762.3673406,-5.08158,0.6867,0.6867,-0.892758945,0.39330954,0.1416012
1764767762.3673406,-5.08158,0.6867,0.6867,-0.892758945,0.39330954,0.1416012
1764767762.3673406,-5.08158,0.6867,0.6867,-0.892758945,0.39330954,0.1416012
1764767762.413723,-5.08158,0.6867,0.6867,-0.892758945,0.39330954,0.1416012
1764767762.413723,-5.08158,0.6867,0.6867,-0.892758945,0.39330954,0.1416012
1764767762.413723,-5.08158,0.6867,0.6867,-0.892758945,0.39330954,0.1416012
1764767762.413723,-5.08158,0.6867,0.6867,-0.892758945,0.39330954,0.1416012
1764767762.413723,-5.08158,0.6867,0.6867,-0.892758945,0.39330954,0.1416012
1764767762.413723,-5.08158,0.6867,0.6867,-0.892758945,0.39330954,0.1416012
1764767762.413723,-4.8069,1.19028,1.51074,-0.89306412,0.393004365,0.1403805
1764767762.414142,-4.8069,1.19028,1.51074,-0.89306412,0.393004365,0.1403805
1764767762.414142,-4.8069,1.19028,1.51074,-0.89306412,0.393004365,0.1403805
1764767762.414142,-4.8069,1.19028,1.51074,-0.89306412,0.393004365,0.1403805
1764767762.414142,-4.8069,1.19028,1.51074,-0.89306412,0.393004365,0.1403805
1764767762.414142,-4.8069,1.19028,1.51074,-0.89306412,0.393004365,0.1403805
1764767762.414142,-4.8069,1.19028,1.51074,-0.89306412,0.393004365,0.1403805
1764767762.414142,-4.8069,1.19028,1.51074,-0.89306412,0.393004365,0.1403805
1764767762.414142,-4.8069,1.19028,1.51074,-0.89306412,0.393004365,0.1403805
1764767762.414142,-4.8069,1.19028,1.51074,-0.89306412,0.393004365,0.1403805
1764767762.414142,-4.21176,0.6867,1.31236,-0.89306412,0.392394015,0.140075325
1764767762.414142,-4.21176,0.6867,1.31236,-0.89306412,0.392394015,0.140075325
1764767762.414142,-4.21176,0.6867,1.31236,-0.89306412,0.392394015,0.140075325
1764767762.414142,-4.21176,0.6867,1.31236,-0.89306412,0.392394015,0.140075325
1764767762.414142,-4.21176,0.6867,1.31236,-0.89306412,0.392394015,0.140075325
1764767762.414142,-4.21176,0.6867,1.31236,-0.89306412,0.392394015,0.140075325
1764767762.414142,-4.21176,0.6867,1.31236,-0.89306412,0.392394015,0.140075325
1764767762.414142,-4.21176,0.6867,1.31236,-0.89306412,0.392394015,0.140075325
1764767762.460657,-4.21176,0.6867,1.31236,-0.89306412,0.392394015,0.140075325
1764767762.460657,-4.21176,0.6867,1.31236,-0.89306412,0.392394015,0.140075325
1764767762.460657,-3.84552,0.9156,1.34288,-0.892758945,0.392882295,0.142028445
1764767762.460657,-3.84552,0.9156,1.34288,-0.892758945,0.392882295,0.142028445
1764767762.460657,-3.84552,0.9156,1.34288,-0.892758945,0.392882295,0.142028445
1764767762.460657,-3.84552,0.9156,1.34288,-0.892758945,0.392882295,0.142028445
1764767762.460657,-3.84552,0.9156,1.34288,-0.892758945,0.392882295,0.142028445
1764767762.460657,-3.84552,0.9156,1.34288,-0.892758945,0.392882295,0.142028445
1764767762.460657,-3.84552,0.9156,1.34288,-0.892758945,0.392882295,0.142028445
1764767762.460657,-3.84552,0.9156,1.34288,-0.892758945,0.392882295,0.142028445
1764767762.460657,-3.84552,0.9156,1.34288,-0.892758945,0.392882295,0.142028445
1764767762.460657,-3.84552,0.9156,1.34288,-0.892758945,0.392882295,0.142028445
1764767762.460657,-3.9676,1.09872,1.35814,-0.893125155,0.39330954,0.144469845
1764767762.460657,-3.9676,1.09872,1.35814,-0.893125155,0.39330954,0.144469845
1764767762.460657,-3.9676,1.09872,1.35814,-0.893125155,0.39330954,0.144469845
1764767762.460657,-3.9676,1.09872,1.35814,-0.893125155,0.39330954,0.144469845
1764767762.460657,-3.9676,1.09872,1.35814,-0.893125155,0.39330954,0.144469845
1764767762.460657,-3.9676,1.09872,1.35814,-0.893125155,0.39330954,0.144469845
1764767762.460657,-3.9676,1.09872,1.35814,-0.893125155,0.39330954,0.144469845
1764767762.460657,-3.9676,1.09872,1.35814,-0.893125155,0.39330954,0.144469845
1764767762.460657,-3.9676,1.09872,1.35814,-0.893125155,0.39330954,0.144469845
1764767762.460657,-3.9676,1.09872,1.35814,-0.893125155,0.39330954,0.144469845
1764767762.460657,-3.90656,0.57988,0.6714399999999999,-0.89318619,0.39318747,0.14477502
1764767762.460657,-3.90656,0.57988,0.6714399999999999,-0.89318619,0.39318747,0.14477502
1764767762.5067213,-3.90656,0.57988,0.6714399999999999,-0.89318619,0.39318747,0.14477502
1764767762.5067213,-3.90656,0.57988,0.6714399999999999,-0.89318619,0.39318747,0.14477502
1764767762.5067213,-3.90656,0.57988,0.6714399999999999,-0.89318619,0.39318747,0.14477502
1764767762.5067213,-3.90656,0.57988,0.6714399999999999,-0.89318619,0.39318747,0.14477502
1764767762.5067213,-3.90656,0.57988,0.6714399999999999,-0.89318619,0.39318747,0.14477502
1764767762.5067213,-3.90656,0.57988,0.6714399999999999,-0.89318619,0.39318747,0.14477502
1764767762.5067213,-3.90656,0.57988,0.6714399999999999,-0.89318619,0.39318747,0.14477502
1764767762.5067213,-3.90656,0.57988,0.6714399999999999,-0.89318619,0.39318747,0.14477502
1764767762.5067213,-3.5861,0.3815,0.47306,-0.892148595,0.392516085,0.14416467
1764767762.5067213,-3.5861,0.3815,0.47306,-0.892148595,0.392516085,0.14416467
1764767762.5067213,-3.5861,0.3815,0.47306,-0.892148595,0.392516085,0.14416467
1764767762.5067213,-3.5861,0.3815,0.47306,-0.892148595,0.392516085,0.14416467
1764767762.5067213,-3.5861,0.3815,0.47306,-0.892148595,0.392516085,0.14416467
1764767762.5067213,-3.5861,0.3815,0.47306,-0.892148595,0.392516085,0.14416467
1764767762.5067213,-3.5861,0.3815,0.47306,-0.892148595,0.392516085,0.14416467
1764767762.5067213,-3.5861,0.3815,0.47306,-0.892148595,0.392516085,0.14416467
1764767762.5067213,-3.5861,0.3815,0.47306,-0.892148595,0.392516085,0.14416467
1764767762.5067213,-3.5861,0.3815,0.47306,-0.892148595,0.392516085,0.14416467
1764767762.5067213,-3.26564,0.5341,0.85456,-0.891904455,0.394102995,0.142882935
1764767762.5067213,-3.26564,0.5341,0.85456,-0.891904455,0.394102995,0.142882935
1764767762.5067213,-3.26564,0.5341,0.85456,-0.891904455,0.394102995,0.142882935
1764767762.5067213,-3.26564,0.5341,0.85456,-0.891904455,0.394102995,0.142882935
1764767762.5533123,-3.26564,0.5341,0.85456,-0.891904455,0.394102995,0.142882935
1764767762.5533123,-3.26564,0.5341,0.85456,-0.891904455,0.394102995,0.142882935
1764767762.5533123,-3.26564,0.5341,0.85456,-0.891904455,0.394102995,0.142882935
1764767762.554911,-3.26564,0.5341,0.85456,-0.891904455,0.394102995,0.142882935
1764767762.554911,-3.26564,0.5341,0.85456,-0.891904455,0.394102995,0.142882935
1764767762.554911,-3.26564,0.5341,0.85456,-0.891904455,0.394102995,0.142882935
1764767762.554911,-4.715339999999999,0.6103999999999999,0.65618,-0.893247225,0.397398885,0.13977015
1764767762.554911,-4.715339999999999,0.6103999999999999,0.65618,-0.893247225,0.397398885,0.13977015
1764767762.554911,-4.715339999999999,0.6103999999999999,0.65618,-0.893247225,0.397398885,0.13977015
1764767762.554911,-4.715339999999999,0.6103999999999999,0.65618,-0.893247225,0.397398885,0.13977015
1764767762.554911,-4.715339999999999,0.6103999999999999,0.65618,-0.893247225,0.397398885,0.13977015
1764767762.554911,-4.715339999999999,0.6103999999999999,0.65618,-0.893247225,0.397398885,0.13977015
1764767762.554911,-4.715339999999999,0.6103999999999999,0.65618,-0.893247225,0.397398885,0.13977015
1764767762.5564191,-4.715339999999999,0.6103999999999999,0.65618,-0.893247225,0.397398885,0.13977015
1764767762.5564191,-4.715339999999999,0.6103999999999999,0.65618,-0.893247225,0.397398885,0.13977015
1764767762.5564191,-4.715339999999999,0.6103999999999999,0.65618,-0.893247225,0.397398885,0.13977015
1764767762.5564191,-5.890359999999999,1.02242,0.3357199999999999,-0.893491365,0.39770406,0.1391598
1764767762.5564191,-5.890359999999999,1.02242,0.3357199999999999,-0.893491365,0.39770406,0.1391598
1764767762.5564191,-5.890359999999999,1.02242,0.3357199999999999,-0.893491365,0.39770406,0.1391598
1764767762.5564191,-5.890359999999999,1.02242,0.3357199999999999,-0.893491365,0.39770406,0.1391598
1764767762.5564191,-5.890359999999999,1.02242,0.3357199999999999,-0.893491365,0.39770406,0.1391598
1764767762.5564191,-5.890359999999999,1.02242,0.3357199999999999,-0.893491365,0.39770406,0.1391598
1764767762.5564191,-5.890359999999999,1.02242,0.3357199999999999,-0.893491365,0.39770406,0.1391598
1764767762.5564191,-5.890359999999999,1.02242,0.3357199999999999,-0.893491365,0.39770406,0.1391598
1764767762.5993798,-5.890359999999999,1.02242,0.3357199999999999,-0.893491365,0.39770406,0.1391598
1764767762.5993798,-5.890359999999999,1.02242,0.3357199999999999,-0.893491365,0.39770406,0.1391598
1764767762.5993798,-5.4936,0.9919,0.41202,-0.892270665,0.39465231,0.14050257
1764767762.5993798,-5.4936,0.9919,0.41202,-0.892270665,0.39465231,0.14050257
1764767762.5993798,-5.4936,0.9919,0.41202,-0.892270665,0.39465231,0.14050257
1764767762.5993798,-5.4936,0.9919,0.41202,-0.892270665,0.39465231,0.14050257
1764767762.5993798,-5.4936,0.9919,0.41202,-0.892270665,0.39465231,0.14050257
1764767762.5993798,-5.4936,0.9919,0.41202,-0.892270665,0.39465231,0.14050257
1764767762.600392,-5.4936,0.9919,0.41202,-0.892270665,0.39465231,0.14050257
1764767762.600392,-5.4936,0.9919,0.41202,-0.892270665,0.39465231,0.14050257
1764767762.600392,-5.4936,0.9919,0.41202,-0.892270665,0.39465231,0.14050257
1764767762.600392,-5.4936,0.9919,0.41202,-0.892270665,0.39465231,0.14050257
1764767762.600392,-4.1965,1.12924,0.97664,-0.89257584,0.391051245,0.142882935
1764767762.600392,-4.1965,1.12924,0.97664,-0.89257584,0.391051245,0.142882935
1764767762.600392,-4.1965,1.12924,0.97664,-0.89257584,0.391051245,0.142882935
1764767762.600392,-4.1965,1.12924,0.97664,-0.89257584,0.391051245,0.142882935
1764767762.600392,-4.1965,1.12924,0.97664,-0.89257584,0.391051245,0.142882935
1764767762.600392,-4.1965,1.12924,0.97664,-0.89257584,0.391051245,0.142882935
1764767762.600392,-4.1965,1.12924,0.97664,-0.89257584,0.391051245,0.142882935
1764767762.600392,-4.1965,1.12924,0.97664,-0.89257584,0.391051245,0.142882935
1764767762.600392,-4.1965,1.12924,0.97664,-0.89257584,0.391051245,0.142882935
1764767762.600392,-4.1965,1.12924,0.97664,-0.89257584,0.391051245,0.142882935
1764767762.6471508,-2.92992,0.50358,1.35814,-0.89428482,0.388853985,0.143859495
1764767762.6471508,-2.92992,0.50358,1.35814,-0.89428482,0.388853985,0.143859495
1764767762.6471508,-2.92992,0.50358,1.35814,-0.89428482,0.388853985,0.143859495
1764767762.6471508,-2.92992,0.50358,1.35814,-0.89428482,0.388853985,0.143859495
1764767762.6471508,-2.92992,0.50358,1.35814,-0.89428482,0.388853985,0.143859495
1764767762.6471508,-2.92992,0.50358,1.35814,-0.89428482,0.388853985,0.143859495
1764767762.6471508,-2.92992,0.50358,1.35814,-0.89428482,0.388853985,0.143859495
1764767762.6471508,-2.92992,0.50358,1.35814,-0.89428482,0.388853985,0.143859495
1764767762.6471508,-2.92992,0.50358,1.35814,-0.89428482,0.388853985,0.143859495
1764767762.6471508,-2.92992,0.50358,1.35814,-0.89428482,0.388853985,0.143859495
1764767762.6471508,-2.50264,0.24416,1.48022,-0.895078275,0.38903709,0.14489709
1764767762.6471508,-2.50264,0.24416,1.48022,-0.895078275,0.38903709,0.14489709
1764767762.6471508,-2.50264,0.24416,1.48022,-0.895078275,0.38903709,0.14489709
1764767762.6471508,-2.50264,0.24416,1.48022,-0.895078275,0.38903709,0.14489709
1764767762.6471508,-2.50264,0.24416,1.48022,-0.895078275,0.38903709,0.14489709
1764767762.6471508,-2.50264,0.24416,1.48022,-0.895078275,0.38903709,0.14489709
1764767762.6471508,-2.50264,0.24416,1.48022,-0.895078275,0.38903709,0.14489709
1764767762.6471508,-2.50264,0.24416,1.48022,-0.895078275,0.38903709,0.14489709
1764767762.6471508,-2.50264,0.24416,1.48022,-0.895078275,0.38903709,0.14489709
1764767762.6471508,-2.50264,0.24416,1.48022,-0.895078275,0.38903709,0.14489709
1764767762.6471508,-1.15976,0.03052,1.6786,-0.894712065,0.38952537,0.145080195
1764767762.6471508,-1.15976,0.03052,1.6786,-0.894712065,0.38952537,0.145080195
1764767762.6471508,-1.15976,0.03052,1.6786,-0.894712065,0.38952537,0.145080195
1764767762.6471508,-1.15976,0.03052,1.6786,-0.894712065,0.38952537,0.145080195
1764767762.694276,-1.15976,0.03052,1.6786,-0.894712065,0.38952537,0.145080195
1764767762.694276,-1.15976,0.03052,1.6786,-0.894712065,0.38952537,0.145080195
1764767762.694276,-1.15976,0.03052,1.6786,-0.894712065,0.38952537,0.145080195
1764767762.694276,-1.15976,0.03052,1.6786,-0.894712065,0.38952537,0.145080195
1764767762.694276,-1.15976,0.03052,1.6786,-0.894712065,0.38952537,0.145080195
1764767762.694276,-1.15976,0.03052,1.6786,-0.894712065,0.38952537,0.145080195
1764767762.694276,-0.96138,-0.06104,1.51074,-0.8935524,0.391905735,0.143493285
1764767762.694276,-0.96138,-0.06104,1.51074,-0.8935524,0.391905735,0.143493285
1764767762.694276,-0.96138,-0.06104,1.51074,-0.8935524,0.391905735,0.143493285
1764767762.694276,-0.96138,-0.06104,1.51074,-0.8935524,0.391905735,0.143493285
1764767762.694276,-0.96138,-0.06104,1.51074,-0.8935524,0.391905735,0.143493285
1764767762.694276,-0.96138,-0.06104,1.51074,-0.8935524,0.391905735,0.143493285
1764767762.694276,-0.96138,-0.06104,1.51074,-0.8935524,0.391905735,0.143493285
1764767762.694276,-0.96138,-0.06104,1.51074,-0.8935524,0.391905735,0.143493285
1764767762.694276,-0.96138,-0.06104,1.51074,-0.8935524,0.391905735,0.143493285
1764767762.694276,-0.96138,-0.06104,1.51074,-0.8935524,0.391905735,0.143493285
1764767762.694276,-1.87698,0.09156,1.2208,-0.892514805,0.395079555,0.141540165
1764767762.694276,-1.87698,0.09156,1.2208,-0.892514805,0.395079555,0.141540165
1764767762.694276,-1.87698,0.09156,1.2208,-0.892514805,0.395079555,0.141540165
1764767762.694276,-1.87698,0.09156,1.2208,-0.892514805,0.395079555,0.141540165
1764767762.694276,-1.87698,0.09156,1.2208,-0.892514805,0.395079555,0.141540165
1764767762.694276,-1.87698,0.09156,1.2208,-0.892514805,0.395079555,0.141540165
1764767762.694276,-1.87698,0.09156,1.2208,-0.892514805,0.395079555,0.141540165
1764767762.6952798,-1.87698,0.09156,1.2208,-0.892514805,0.395079555,0.141540165
1764767762.74219,-1.87698,0.09156,1.2208,-0.892514805,0.395079555,0.141540165
1764767762.74219,-1.87698,0.09156,1.2208,-0.892514805,0.395079555,0.141540165
1764767762.74219,-2.6705,0.25942,1.43444,-0.890683755,0.39807027,0.140319465
1764767762.7427,-2.6705,0.25942,1.43444,-0.890683755,0.39807027,0.140319465
1764767762.7427,-2.6705,0.25942,1.43444,-0.890683755,0.39807027,0.140319465
1764767762.7427,-2.6705,0.25942,1.43444,-0.890683755,0.39807027,0.140319465
1764767762.7427,-2.6705,0.25942,1.43444,-0.890683755,0.39807027,0.140319465
1764767762.7427,-2.6705,0.25942,1.43444,-0.890683755,0.39807027,0.140319465
1764767762.7427,-2.6705,0.25942,1.43444,-0.890683755,0.39807027,0.140319465
1764767762.7427,-2.6705,0.25942,1.43444,-0.890683755,0.39807027,0.140319465
1764767762.7427,-2.6705,0.25942,1.43444,-0.890683755,0.39807027,0.140319465
1764767762.7427,-2.6705,0.25942,1.43444,-0.890683755,0.39807027,0.140319465
1764767762.7427,-3.40298,0.65618,1.84646,-0.8898903,0.400084425,0.13952601
1764767762.7427,-3.40298,0.65618,1.84646,-0.8898903,0.400084425,0.13952601
1764767762.7427,-3.40298,0.65618,1.84646,-0.8898903,0.400084425,0.13952601
1764767762.7427,-3.40298,0.65618,1.84646,-0.8898903,0.400084425,0.13952601
1764767762.7427,-3.40298,0.65618,1.84646,-0.8898903,0.400084425,0.13952601
1764767762.7427,-3.40298,0.65618,1.84646,-0.8898903,0.400084425,0.13952601
1764767762.7427,-3.40298,0.65618,1.84646,-0.8898903,0.400084425,0.13952601
1764767762.7427,-3.40298,0.65618,1.84646,-0.8898903,0.400084425,0.13952601
1764767762.7427,-3.40298,0.65618,1.84646,-0.8898903,0.400084425,0.13952601
1764767762.7427,-3.40298,0.65618,1.84646,-0.8898903,0.400084425,0.13952601
1764767762.7427,-3.37246,0.6409199999999999,1.32762,-0.88879167,0.398375445,0.14074671
1764767762.7427,-3.37246,0.6409199999999999,1.32762,-0.88879167,0.398375445,0.14074671
1764767762.7864928,-3.37246,0.6409199999999999,1.32762,-0.88879167,0.398375445,0.14074671
1764767762.7864928,-3.37246,0.6409199999999999,1.32762,-0.88879167,0.398375445,0.14074671
1764767762.7864928,-3.37246,0.6409199999999999,1.32762,-0.88879167,0.398375445,0.14074671
1764767762.7864928,-3.37246,0.6409199999999999,1.32762,-0.88879167,0.398375445,0.14074671
1764767762.7864928,-3.37246,0.6409199999999999,1.32762,-0.88879167,0.398375445,0.14074671
1764767762.7864928,-3.37246,0.6409199999999999,1.32762,-0.88879167,0.398375445,0.14074671
1764767762.7864928,-3.37246,0.6409199999999999,1.32762,-0.88879167,0.398375445,0.14074671
1764767762.7864928,-3.37246,0.6409199999999999,1.32762,-0.88879167,0.398375445,0.14074671
1764767762.7864928,-3.09778,0.04578,1.526,-0.8897071950000001,0.39660543,0.14257776
1764767762.7864928,-3.09778,0.04578,1.526,-0.8897071950000001,0.39660543,0.14257776
1764767762.7879665,-3.09778,0.04578,1.526,-0.8897071950000001,0.39660543,0.14257776
1764767762.7879665,-3.09778,0.04578,1.526,-0.8897071950000001,0.39660543,0.14257776
1764767762.7879665,-3.09778,0.04578,1.526,-0.8897071950000001,0.39660543,0.14257776
1764767762.7879665,-3.09778,0.04578,1.526,-0.8897071950000001,0.39660543,0.14257776
1764767762.7879665,-3.09778,0.04578,1.526,-0.8897071950000001,0.39660543,0.14257776
1764767762.7879665,-3.09778,0.04578,1.526,-0.8897071950000001,0.39660543,0.14257776
1764767762.7879665,-3.09778,0.04578,1.526,-0.8897071950000001,0.39660543,0.14257776
1764767762.7879665,-3.09778,0.04578,1.526,-0.8897071950000001,0.39660543,0.14257776
1764767762.7879665,-3.49454,0.77826,1.41918,-0.891049965,0.39501852,0.14294397
1764767762.7879665,-3.49454,0.77826,1.41918,-0.891049965,0.39501852,0.14294397
1764767762.7879665,-3.49454,0.77826,1.41918,-0.891049965,0.39501852,0.14294397
1764767762.7879665,-3.49454,0.77826,1.41918,-0.891049965,0.39501852,0.14294397
1764767762.8352716,-3.49454,0.77826,1.41918,-0.891049965,0.39501852,0.14294397
1764767762.8352716,-3.49454,0.77826,1.41918,-0.891049965,0.39501852,0.14294397
1764767762.8352716,-3.49454,0.77826,1.41918,-0.891049965,0.39501852,0.14294397
1764767762.8352716,-3.49454,0.77826,1.41918,-0.891049965,0.39501852,0.14294397
1764767762.8352716,-3.49454,0.77826,1.41918,-0.891049965,0.39501852,0.14294397
1764767762.8352716,-3.49454,0.77826,1.41918,-0.891049965,0.39501852,0.14294397
1764767762.8352716,-4.22702,0.1678599999999999,0.85456,-0.89159928,0.39526266,0.14245569
1764767762.8352716,-4.22702,0.1678599999999999,0.85456,-0.89159928,0.39526266,0.14245569
1764767762.8352716,-4.22702,0.1678599999999999,0.85456,-0.89159928,0.39526266,0.14245569
1764767762.8352716,-4.22702,0.1678599999999999,0.85456,-0.89159928,0.39526266,0.14245569
1764767762.8352716,-4.22702,0.1678599999999999,0.85456,-0.89159928,0.39526266,0.14245569
1764767762.8352716,-4.22702,0.1678599999999999,0.85456,-0.89159928,0.39526266,0.14245569
1764767762.8352716,-4.22702,0.1678599999999999,0.85456,-0.89159928,0.39526266,0.14245569
1764767762.8352716,-4.22702,0.1678599999999999,0.85456,-0.89159928,0.39526266,0.14245569
1764767762.8352716,-4.22702,0.1678599999999999,0.85456,-0.89159928,0.39526266,0.14245569
1764767762.8352716,-4.22702,0.1678599999999999,0.85456,-0.89159928,0.39526266,0.14245569
1764767762.8352716,-4.02864,0.96138,1.61756,-0.892148595,0.39526266,0.141662235
1764767762.8362684,-4.02864,0.96138,1.61756,-0.892148595,0.39526266,0.141662235
1764767762.8362684,-4.02864,0.96138,1.61756,-0.892148595,0.39526266,0.141662235
1764767762.8362684,-4.02864,0.96138,1.61756,-0.892148595,0.39526266,0.141662235
1764767762.8362684,-4.02864,0.96138,1.61756,-0.892148595,0.39526266,0.141662235
1764767762.8362684,-4.02864,0.96138,1.61756,-0.892148595,0.39526266,0.141662235
1764767762.8789842,-4.02864,0.96138,1.61756,-0.892148595,0.39526266,0.141662235
1764767762.8789842,-4.02864,0.96138,1.61756,-0.892148595,0.39526266,0.141662235
1764767762.8789842,-4.02864,0.96138,1.61756,-0.892148595,0.39526266,0.141662235
1764767762.8789842,-4.02864,0.96138,1.61756,-0.892148595,0.39526266,0.141662235
1764767762.8789842,-2.7468,1.11398,1.526,-0.893003085,0.394469205,0.14099085
1764767762.8789842,-2.7468,1.11398,1.526,-0.893003085,0.394469205,0.14099085
1764767762.8789842,-2.7468,1.11398,1.526,-0.893003085,0.394469205,0.14099085
1764767762.8789842,-2.7468,1.11398,1.526,-0.893003085,0.394469205,0.14099085
1764767762.8789842,-2.7468,1.11398,1.526,-0.893003085,0.394469205,0.14099085
1764767762.8789842,-2.7468,1.11398,1.526,-0.893003085,0.394469205,0.14099085
1764767762.8789842,-2.7468,1.11398,1.526,-0.893003085,0.394469205,0.14099085
1764767762.8789842,-2.7468,1.11398,1.526,-0.893003085,0.394469205,0.14099085
1764767762.8789842,-2.7468,1.11398,1.526,-0.893003085,0.394469205,0.14099085
1764767762.8789842,-2.7468,1.11398,1.526,-0.893003085,0.394469205,0.14099085
1764767762.8789842,-2.33478,0.8698199999999999,1.6633399999999998,-0.892758945,0.39465231,0.139709115
1764767762.8789842,-2.33478,0.8698199999999999,1.6633399999999998,-0.892758945,0.39465231,0.139709115
1764767762.8789842,-2.33478,0.8698199999999999,1.6633399999999998,-0.892758945,0.39465231,0.139709115
1764767762.8789842,-2.33478,0.8698199999999999,1.6633399999999998,-0.892758945,0.39465231,0.139709115
1764767762.8789842,-2.33478,0.8698199999999999,1.6633399999999998,-0.892758945,0.39465231,0.139709115
1764767762.8789842,-2.33478,0.8698199999999999,1.6633399999999998,-0.892758945,0.39465231,0.139709115
1764767762.8794963,-2.33478,0.8698199999999999,1.6633399999999998,-0.892758945,0.39465231,0.139709115
1764767762.8794963,-2.33478,0.8698199999999999,1.6633399999999998,-0.892758945,0.39465231,0.139709115
1764767762.8794963,-2.33478,0.8698199999999999,1.6633399999999998,-0.892758945,0.39465231,0.139709115
1764767762.8794963,-2.33478,0.8698199999999999,1.6633399999999998,-0.892758945,0.39465231,0.139709115
1764767762.8794963,-2.8231,0.96138,1.4039199999999998,-0.89196549,0.39599508,0.13989222
1764767762.8794963,-2.8231,0.96138,1.4039199999999998,-0.89196549,0.39599508,0.13989222
1764767762.9254513,-2.8231,0.96138,1.4039199999999998,-0.89196549,0.39599508,0.13989222
1764767762.9254513,-2.8231,0.96138,1.4039199999999998,-0.89196549,0.39599508,0.13989222
1764767762.9254513,-2.8231,0.96138,1.4039199999999998,-0.89196549,0.39599508,0.13989222
1764767762.9254513,-2.8231,0.96138,1.4039199999999998,-0.89196549,0.39599508,0.13989222
1764767762.9254513,-2.8231,0.96138,1.4039199999999998,-0.89196549,0.39599508,0.13989222
1764767762.9254513,-2.8231,0.96138,1.4039199999999998,-0.89196549,0.39599508,0.13989222
1764767762.9254513,-2.8231,0.96138,1.4039199999999998,-0.89196549,0.39599508,0.13989222
1764767762.9254513,-2.8231,0.96138,1.4039199999999998,-0.89196549,0.39599508,0.13989222
1764767762.9254513,-2.85362,1.26658,1.70912,-0.89123307,0.39721578,0.14001429
1764767762.9254513,-2.85362,1.26658,1.70912,-0.89123307,0.39721578,0.14001429
1764767762.9254513,-2.85362,1.26658,1.70912,-0.89123307,0.39721578,0.14001429
1764767762.9254513,-2.85362,1.26658,1.70912,-0.89123307,0.39721578,0.14001429
1764767762.9254513,-2.85362,1.26658,1.70912,-0.89123307,0.39721578,0.14001429
1764767762.9254513,-2.85362,1.26658,1.70912,-0.89123307,0.39721578,0.14001429
1764767762.9254513,-2.85362,1.26658,1.70912,-0.89123307,0.39721578,0.14001429
1764767762.9254513,-2.85362,1.26658,1.70912,-0.89123307,0.39721578,0.14001429
1764767762.9254513,-2.85362,1.26658,1.70912,-0.89123307,0.39721578,0.14001429
1764767762.9254513,-2.85362,1.26658,1.70912,-0.89123307,0.39721578,0.14001429
1764767762.9254513,-3.54032,1.2208,1.8312,-0.891049965,0.397643025,0.14025843
1764767762.9254513,-3.54032,1.2208,1.8312,-0.891049965,0.397643025,0.14025843
1764767762.9254513,-3.54032,1.2208,1.8312,-0.891049965,0.397643025,0.14025843
1764767762.9254513,-3.54032,1.2208,1.8312,-0.891049965,0.397643025,0.14025843
1764767762.9254513,-3.54032,1.2208,1.8312,-0.891049965,0.397643025,0.14025843
1764767762.9254513,-3.54032,1.2208,1.8312,-0.891049965,0.397643025,0.14025843
1764767762.9718945,-3.54032,1.2208,1.8312,-0.891049965,0.397643025,0.14025843
1764767762.9718945,-3.54032,1.2208,1.8312,-0.891049965,0.397643025,0.14025843
1764767762.9718945,-3.54032,1.2208,1.8312,-0.891049965,0.397643025,0.14025843
1764767762.9718945,-3.54032,1.2208,1.8312,-0.891049965,0.397643025,0.14025843
1764767762.9718945,-3.25038,1.09872,1.8312,-0.890805825,0.397398885,0.140197395
1764767762.9718945,-3.25038,1.09872,1.8312,-0.890805825,0.397398885,0.140197395
1764767762.9718945,-3.25038,1.09872,1.8312,-0.890805825,0.397398885,0.140197395
1764767762.9718945,-3.25038,1.09872,1.8312,-0.890805825,0.397398885,0.140197395
1764767762.9718945,-3.25038,1.09872,1.8312,-0.890805825,0.397398885,0.140197395
1764767762.9718945,-3.25038,1.09872,1.8312,-0.890805825,0.397398885,0.140197395
1764767762.9718945,-3.25038,1.09872,1.8312,-0.890805825,0.397398885,0.140197395
1764767762.9718945,-3.25038,1.09872,1.8312,-0.890805825,0.397398885,0.140197395
1764767762.9718945,-3.25038,1.09872,1.8312,-0.890805825,0.397398885,0.140197395
1764767762.9718945,-3.25038,1.09872,1.8312,-0.890805825,0.397398885,0.140197395
1764767762.9718945,-3.46402,0.96138,1.32762,-0.891111,0.3967275,0.14062464
1764767762.9718945,-3.46402,0.96138,1.32762,-0.891111,0.3967275,0.14062464
1764767762.9718945,-3.46402,0.96138,1.32762,-0.891111,0.3967275,0.14062464
1764767762.9718945,-3.46402,0.96138,1.32762,-0.891111,0.3967275,0.14062464
1764767762.9718945,-3.46402,0.96138,1.32762,-0.891111,0.3967275,0.14062464
1764767762.9718945,-3.46402,0.96138,1.32762,-0.891111,0.3967275,0.14062464
1764767763.0179794,-3.46402,0.96138,1.32762,-0.891111,0.3967275,0.14062464
1764767763.0179794,-3.46402,0.96138,1.32762,-0.891111,0.3967275,0.14062464
1764767763.0179794,-3.46402,0.96138,1.32762,-0.891111,0.3967275,0.14062464
1764767763.0179794,-3.46402,0.96138,1.32762,-0.891111,0.3967275,0.14062464
1764767763.0179794,-3.38772,0.94612,0.96138,-0.89062272,0.396666465,0.14013636
1764767763.0179794,-3.38772,0.94612,0.96138,-0.89062272,0.396666465,0.14013636
1764767763.0184996,-3.38772,0.94612,0.96138,-0.89062272,0.396666465,0.14013636
1764767763.0184996,-3.38772,0.94612,0.96138,-0.89062272,0.396666465,0.14013636
1764767763.0184996,-3.38772,0.94612,0.96138,-0.89062272,0.396666465,0.14013636
1764767763.0184996,-3.38772,0.94612,0.96138,-0.89062272,0.396666465,0.14013636
1764767763.0184996,-3.38772,0.94612,0.96138,-0.89062272,0.396666465,0.14013636
1764767763.0184996,-3.38772,0.94612,0.96138,-0.89062272,0.396666465,0.14013636
1764767763.0184996,-3.38772,0.94612,0.96138,-0.89062272,0.396666465,0.14013636
1764767763.0184996,-3.38772,0.94612,0.96138,-0.89062272,0.396666465,0.14013636
1764767763.0184996,-3.1283,0.77826,0.763,-0.8898903,0.39758199,0.140319465
1764767763.0184996,-3.1283,0.77826,0.763,-0.8898903,0.39758199,0.140319465
1764767763.0184996,-3.1283,0.77826,0.763,-0.8898903,0.39758199,0.140319465
1764767763.0184996,-3.1283,0.77826,0.763,-0.8898903,0.39758199,0.140319465
1764767763.0184996,-3.1283,0.77826,0.763,-0.8898903,0.39758199,0.140319465
1764767763.0184996,-3.1283,0.77826,0.763,-0.8898903,0.39758199,0.140319465
1764767763.0184996,-3.1283,0.77826,0.763,-0.8898903,0.39758199,0.140319465
1764767763.0184996,-3.1283,0.77826,0.763,-0.8898903,0.39758199,0.140319465
1764767763.0184996,-3.1283,0.77826,0.763,-0.8898903,0.39758199,0.140319465
1764767763.0184996,-3.1283,0.77826,0.763,-0.8898903,0.39758199,0.140319465
1764767763.0646498,-3.052,0.8698199999999999,0.74774,-0.89001237,0.398131305,0.139953255
1764767763.0646498,-3.052,0.8698199999999999,0.74774,-0.89001237,0.398131305,0.139953255
1764767763.0646498,-3.052,0.8698199999999999,0.74774,-0.89001237,0.398131305,0.139953255
1764767763.0646498,-3.052,0.8698199999999999,0.74774,-0.89001237,0.398131305,0.139953255
1764767763.0646498,-3.052,0.8698199999999999,0.74774,-0.89001237,0.398131305,0.139953255
1764767763.0646498,-3.052,0.8698199999999999,0.74774,-0.89001237,0.398131305,0.139953255
1764767763.0646498,-3.052,0.8698199999999999,0.74774,-0.89001237,0.398131305,0.139953255
1764767763.0646498,-3.052,0.8698199999999999,0.74774,-0.89001237,0.398131305,0.139953255
1764767763.0646498,-3.052,0.8698199999999999,0.74774,-0.89001237,0.398131305,0.139953255
1764767763.0646498,-3.052,0.8698199999999999,0.74774,-0.89001237,0.398131305,0.139953255
1764767763.0646498,-2.91466,0.6409199999999999,1.05294,-0.89013444,0.39745992,0.139831185
1764767763.0646498,-2.91466,0.6409199999999999,1.05294,-0.89013444,0.39745992,0.139831185
1764767763.0646498,-2.91466,0.6409199999999999,1.05294,-0.89013444,0.39745992,0.139831185
1764767763.0646498,-2.91466,0.6409199999999999,1.05294,-0.89013444,0.39745992,0.139831185
1764767763.0646498,-2.91466,0.6409199999999999,1.05294,-0.89013444,0.39745992,0.139831185
1764767763.0646498,-2.91466,0.6409199999999999,1.05294,-0.89013444,0.39745992,0.139831185
1764767763.0646498,-2.91466,0.6409199999999999,1.05294,-0.89013444,0.39745992,0.139831185
1764767763.0646498,-2.91466,0.6409199999999999,1.05294,-0.89013444,0.39745992,0.139831185
1764767763.0646498,-2.91466,0.6409199999999999,1.05294,-0.89013444,0.39745992,0.139831185
1764767763.0646498,-2.91466,0.6409199999999999,1.05294,-0.89013444,0.39745992,0.139831185
1764767763.0646498,-3.3572,0.71722,0.8698199999999999,-0.89001237,0.39697164,0.14001429
1764767763.0646498,-3.3572,0.71722,0.8698199999999999,-0.89001237,0.39697164,0.14001429
1764767763.0646498,-3.3572,0.71722,0.8698199999999999,-0.89001237,0.39697164,0.14001429
1764767763.0646498,-3.3572,0.71722,0.8698199999999999,-0.89001237,0.39697164,0.14001429
1764767763.1111655,-3.3572,0.71722,0.8698199999999999,-0.89001237,0.39697164,0.14001429
1764767763.1111655,-3.3572,0.71722,0.8698199999999999,-0.89001237,0.39697164,0.14001429
1764767763.1111655,-3.3572,0.71722,0.8698199999999999,-0.89001237,0.39697164,0.14001429
1764767763.1111655,-3.3572,0.71722,0.8698199999999999,-0.89001237,0.39697164,0.14001429
1764767763.1111655,-3.3572,0.71722,0.8698199999999999,-0.89001237,0.39697164,0.14001429
1764767763.1111655,-3.3572,0.71722,0.8698199999999999,-0.89001237,0.39697164,0.14001429
1764767763.1111655,-3.32668,0.74774,0.9156,-0.89086686,0.39843648,0.140807745
1764767763.1111655,-3.32668,0.74774,0.9156,-0.89086686,0.39843648,0.140807745
1764767763.1111655,-3.32668,0.74774,0.9156,-0.89086686,0.39843648,0.140807745
1764767763.1111655,-3.32668,0.74774,0.9156,-0.89086686,0.39843648,0.140807745
1764767763.1111655,-3.32668,0.74774,0.9156,-0.89086686,0.39843648,0.140807745
1764767763.1111655,-3.32668,0.74774,0.9156,-0.89086686,0.39843648,0.140807745
1764767763.1111655,-3.32668,0.74774,0.9156,-0.89086686,0.39843648,0.140807745
1764767763.1111655,-3.32668,0.74774,0.9156,-0.89086686,0.39843648,0.140807745
1764767763.1125152,-3.32668,0.74774,0.9156,-0.89086686,0.39843648,0.140807745
1764767763.1125152,-3.32668,0.74774,0.9156,-0.89086686,0.39843648,0.140807745
1764767763.1125152,-3.90656,0.59514,0.77826,-0.89098893,0.39892476,0.140441535
1764767763.1125152,-3.90656,0.59514,0.77826,-0.89098893,0.39892476,0.140441535
1764767763.1125152,-3.90656,0.59514,0.77826,-0.89098893,0.39892476,0.140441535
1764767763.1125152,-3.90656,0.59514,0.77826,-0.89098893,0.39892476,0.140441535
1764767763.1125152,-3.90656,0.59514,0.77826,-0.89098893,0.39892476,0.140441535
1764767763.1125152,-3.90656,0.59514,0.77826,-0.89098893,0.39892476,0.140441535
1764767763.1125152,-3.90656,0.59514,0.77826,-0.89098893,0.39892476,0.140441535
1764767763.1125152,-3.90656,0.59514,0.77826,-0.89098893,0.39892476,0.140441535
1764767763.1592686,-3.90656,0.59514,0.77826,-0.89098893,0.39892476,0.140441535
1764767763.1592686,-3.90656,0.59514,0.77826,-0.89098893,0.39892476,0.140441535
1764767763.1592686,-3.98286,0.6409199999999999,0.6714399999999999,-0.89062272,0.39892476,0.14062464
1764767763.1592686,-3.98286,0.6409199999999999,0.6714399999999999,-0.89062272,0.39892476,0.14062464
1764767763.1592686,-3.98286,0.6409199999999999,0.6714399999999999,-0.89062272,0.39892476,0.14062464
1764767763.1592686,-3.98286,0.6409199999999999,0.6714399999999999,-0.89062272,0.39892476,0.14062464
1764767763.1592686,-3.98286,0.6409199999999999,0.6714399999999999,-0.89062272,0.39892476,0.14062464
1764767763.1592686,-3.98286,0.6409199999999999,0.6714399999999999,-0.89062272,0.39892476,0.14062464
1764767763.1592686,-3.98286,0.6409199999999999,0.6714399999999999,-0.89062272,0.39892476,0.14062464
1764767763.1592686,-3.98286,0.6409199999999999,0.6714399999999999,-0.89062272,0.39892476,0.14062464
1764767763.1592686,-3.98286,0.6409199999999999,0.6714399999999999,-0.89062272,0.39892476,0.14062464
1764767763.1592686,-3.98286,0.6409199999999999,0.6714399999999999,-0.89062272,0.39892476,0.14062464
1764767763.1592686,-3.99812,0.6103999999999999,0.77826,-0.89062272,0.39819234,0.14086878
1764767763.1592686,-3.99812,0.6103999999999999,0.77826,-0.89062272,0.39819234,0.14086878
1764767763.1592686,-3.99812,0.6103999999999999,0.77826,-0.89062272,0.39819234,0.14086878
1764767763.1592686,-3.99812,0.6103999999999999,0.77826,-0.89062272,0.39819234,0.14086878
1764767763.1592686,-3.99812,0.6103999999999999,0.77826,-0.89062272,0.39819234,0.14086878
1764767763.1592686,-3.99812,0.6103999999999999,0.77826,-0.89062272,0.39819234,0.14086878
1764767763.1592686,-3.99812,0.6103999999999999,0.77826,-0.89062272,0.39819234,0.14086878
1764767763.1602786,-3.99812,0.6103999999999999,0.77826,-0.89062272,0.39819234,0.14086878
1764767763.1602786,-3.99812,0.6103999999999999,0.77826,-0.89062272,0.39819234,0.14086878
1764767763.1602786,-3.99812,0.6103999999999999,0.77826,-0.89062272,0.39819234,0.14086878
1764767763.1602786,-4.22702,0.77826,0.7019599999999999,-0.890805825,0.39807027,0.14025843
1764767763.1606536,-4.22702,0.77826,0.7019599999999999,-0.890805825,0.39807027,0.14025843
1764767763.2072413,-4.22702,0.77826,0.7019599999999999,-0.890805825,0.39807027,0.14025843
1764767763.2072413,-4.22702,0.77826,0.7019599999999999,-0.890805825,0.39807027,0.14025843
1764767763.2072413,-4.22702,0.77826,0.7019599999999999,-0.890805825,0.39807027,0.14025843
1764767763.2072413,-4.22702,0.77826,0.7019599999999999,-0.890805825,0.39807027,0.14025843
1764767763.2072413,-4.22702,0.77826,0.7019599999999999,-0.890805825,0.39807027,0.14025843
1764767763.2072413,-4.22702,0.77826,0.7019599999999999,-0.890805825,0.39807027,0.14025843
1764767763.2072413,-4.22702,0.77826,0.7019599999999999,-0.890805825,0.39807027,0.14025843
1764767763.2072413,-4.22702,0.77826,0.7019599999999999,-0.890805825,0.39807027,0.14025843
1764767763.2072413,-4.08968,0.96138,1.02242,-0.890073405,0.39782613,0.13964808
1764767763.2072413,-4.08968,0.96138,1.02242,-0.890073405,0.39782613,0.13964808
1764767763.2072413,-4.08968,0.96138,1.02242,-0.890073405,0.39782613,0.13964808
1764767763.2072413,-4.08968,0.96138,1.02242,-0.890073405,0.39782613,0.13964808
1764767763.2072413,-4.08968,0.96138,1.02242,-0.890073405,0.39782613,0.13964808
1764767763.2072413,-4.08968,0.96138,1.02242,-0.890073405,0.39782613,0.13964808
1764767763.2072413,-4.08968,0.96138,1.02242,-0.890073405,0.39782613,0.13964808
1764767763.2072413,-4.08968,0.96138,1.02242,-0.890073405,0.39782613,0.13964808
1764767763.2072413,-4.08968,0.96138,1.02242,-0.890073405,0.39782613,0.13964808
1764767763.2079103,-4.08968,0.96138,1.02242,-0.890073405,0.39782613,0.13964808
1764767763.2079103,-4.13546,0.93086,1.1445,-0.890317545,0.397643025,0.138732555
1764767763.2079103,-4.13546,0.93086,1.1445,-0.890317545,0.397643025,0.138732555
1764767763.2079103,-4.13546,0.93086,1.1445,-0.890317545,0.397643025,0.138732555
1764767763.2079103,-4.13546,0.93086,1.1445,-0.890317545,0.397643025,0.138732555
1764767763.2503135,-4.13546,0.93086,1.1445,-0.890317545,0.397643025,0.138732555
1764767763.2503135,-4.13546,0.93086,1.1445,-0.890317545,0.397643025,0.138732555
1764767763.2503135,-4.13546,0.93086,1.1445,-0.890317545,0.397643025,0.138732555
1764767763.2503135,-4.13546,0.93086,1.1445,-0.890317545,0.397643025,0.138732555
1764767763.2503135,-4.13546,0.93086,1.1445,-0.890317545,0.397643025,0.138732555
1764767763.2503135,-4.13546,0.93086,1.1445,-0.890317545,0.397643025,0.138732555
1764767763.2503135,-3.64714,1.2971,0.97664,-0.890195475,0.39721578,0.13867152
1764767763.2503135,-3.64714,1.2971,0.97664,-0.890195475,0.39721578,0.13867152
1764767763.2503135,-3.64714,1.2971,0.97664,-0.890195475,0.39721578,0.13867152
1764767763.2503135,-3.64714,1.2971,0.97664,-0.890195475,0.39721578,0.13867152
1764767763.2503135,-3.64714,1.2971,0.97664,-0.890195475,0.39721578,0.13867152
1764767763.2503135,-3.64714,1.2971,0.97664,-0.890195475,0.39721578,0.13867152
1764767763.2503135,-3.64714,1.2971,0.97664,-0.890195475,0.39721578,0.13867152
1764767763.2503135,-3.64714,1.2971,0.97664,-0.890195475,0.39721578,0.13867152
1764767763.2503135,-3.64714,1.2971,0.97664,-0.890195475,0.39721578,0.13867152
1764767763.2503135,-3.64714,1.2971,0.97664,-0.890195475,0.39721578,0.13867152
1764767763.2503135,-3.5861,0.97664,0.94612,-0.88952409,0.397276815,0.139464975
1764767763.2503135,-3.5861,0.97664,0.94612,-0.88952409,0.397276815,0.139464975
1764767763.2503135,-3.5861,0.97664,0.94612,-0.88952409,0.397276815,0.139464975
1764767763.2503135,-3.5861,0.97664,0.94612,-0.88952409,0.397276815,0.139464975
1764767763.2503135,-3.5861,0.97664,0.94612,-0.88952409,0.397276815,0.139464975
1764767763.2503135,-3.5861,0.97664,0.94612,-0.88952409,0.397276815,0.139464975
1764767763.2977111,-3.5861,0.97664,0.94612,-0.88952409,0.397276815,0.139464975
1764767763.2977111,-3.5861,0.97664,0.94612,-0.88952409,0.397276815,0.139464975
1764767763.2977111,-3.5861,0.97664,0.94612,-0.88952409,0.397276815,0.139464975
1764767763.2977111,-3.5861,0.97664,0.94612,-0.88952409,0.397276815,0.139464975
1764767763.2977111,-3.7387,1.15976,0.77826,-0.88964616,0.397887165,0.1403805
1764767763.2977111,-3.7387,1.15976,0.77826,-0.88964616,0.397887165,0.1403805
1764767763.2977111,-3.7387,1.15976,0.77826,-0.88964616,0.397887165,0.1403805
1764767763.2977111,-3.7387,1.15976,0.77826,-0.88964616,0.397887165,0.1403805
1764767763.2977111,-3.7387,1.15976,0.77826,-0.88964616,0.397887165,0.1403805
1764767763.2977111,-3.7387,1.15976,0.77826,-0.88964616,0.397887165,0.1403805
1764767763.2977111,-3.7387,1.15976,0.77826,-0.88964616,0.397887165,0.1403805
1764767763.299229,-3.7387,1.15976,0.77826,-0.88964616,0.397887165,0.1403805
1764767763.299229,-3.7387,1.15976,0.77826,-0.88964616,0.397887165,0.1403805
1764767763.299229,-3.7387,1.15976,0.77826,-0.88964616,0.397887165,0.1403805
1764767763.299229,-4.07442,1.09872,0.6409199999999999,-0.88976823,0.39904683,0.14123499
1764767763.299229,-4.07442,1.09872,0.6409199999999999,-0.88976823,0.39904683,0.14123499
1764767763.299229,-4.07442,1.09872,0.6409199999999999,-0.88976823,0.39904683,0.14123499
1764767763.299229,-4.07442,1.09872,0.6409199999999999,-0.88976823,0.39904683,0.14123499
1764767763.299229,-4.07442,1.09872,0.6409199999999999,-0.88976823,0.39904683,0.14123499
1764767763.299229,-4.07442,1.09872,0.6409199999999999,-0.88976823,0.39904683,0.14123499
1764767763.299229,-4.07442,1.09872,0.6409199999999999,-0.88976823,0.39904683,0.14123499
1764767763.299229,-4.07442,1.09872,0.6409199999999999,-0.88976823,0.39904683,0.14123499
1764767763.299229,-4.07442,1.09872,0.6409199999999999,-0.88976823,0.39904683,0.14123499
1764767763.299229,-4.07442,1.09872,0.6409199999999999,-0.88976823,0.39904683,0.14123499
1764767763.3448243,-4.76112,1.19028,-0.06104,-0.890073405,0.398741655,0.14086878
1764767763.3448243,-4.76112,1.19028,-0.06104,-0.890073405,0.398741655,0.14086878
1764767763.3448243,-4.76112,1.19028,-0.06104,-0.890073405,0.398741655,0.14086878
1764767763.3448243,-4.76112,1.19028,-0.06104,-0.890073405,0.398741655,0.14086878
1764767763.3457737,-4.76112,1.19028,-0.06104,-0.890073405,0.398741655,0.14086878
1764767763.3457737,-4.76112,1.19028,-0.06104,-0.890073405,0.398741655,0.14086878
1764767763.3457737,-4.76112,1.19028,-0.06104,-0.890073405,0.398741655,0.14086878
1764767763.3457737,-4.76112,1.19028,-0.06104,-0.890073405,0.398741655,0.14086878
1764767763.3457737,-4.76112,1.19028,-0.06104,-0.890073405,0.398741655,0.14086878
1764767763.3457737,-4.76112,1.19028,-0.06104,-0.890073405,0.398741655,0.14086878
1764767763.3457737,-4.91372,1.28184,-0.25942,-0.88927995,0.39831441,0.140563605
1764767763.3457737,-4.91372,1.28184,-0.25942,-0.88927995,0.39831441,0.140563605
1764767763.3457737,-4.91372,1.28184,-0.25942,-0.88927995,0.39831441,0.140563605
1764767763.3457737,-4.91372,1.28184,-0.25942,-0.88927995,0.39831441,0.140563605
1764767763.3457737,-4.91372,1.28184,-0.25942,-0.88927995,0.39831441,0.140563605
1764767763.3457737,-4.91372,1.28184,-0.25942,-0.88927995,0.39831441,0.140563605
1764767763.3457737,-4.91372,1.28184,-0.25942,-0.88927995,0.39831441,0.140563605
1764767763.3457737,-4.91372,1.28184,-0.25942,-0.88927995,0.39831441,0.140563605
1764767763.3457737,-4.91372,1.28184,-0.25942,-0.88927995,0.39831441,0.140563605
1764767763.3457737,-4.91372,1.28184,-0.25942,-0.88927995,0.39831441,0.140563605
1764767763.3457737,-4.94424,1.46496,-0.06104,-0.88940202,0.40063374,0.138854625
1764767763.3457737,-4.94424,1.46496,-0.06104,-0.88940202,0.40063374,0.138854625
1764767763.3457737,-4.94424,1.46496,-0.06104,-0.88940202,0.40063374,0.138854625
1764767763.3457737,-4.94424,1.46496,-0.06104,-0.88940202,0.40063374,0.138854625
1764767763.392217,-4.94424,1.46496,-0.06104,-0.88940202,0.40063374,0.138854625
1764767763.392217,-4.94424,1.46496,-0.06104,-0.88940202,0.40063374,0.138854625
1764767763.392217,-4.94424,1.46496,-0.06104,-0.88940202,0.40063374,0.138854625
1764767763.392217,-4.94424,1.46496,-0.06104,-0.88940202,0.40063374,0.138854625
1764767763.392217,-4.94424,1.46496,-0.06104,-0.88940202,0.40063374,0.138854625
1764767763.392217,-4.94424,1.46496,-0.06104,-0.88940202,0.40063374,0.138854625
1764767763.392217,-6.1803,1.32762,-0.4578,-0.889951335,0.40087788,0.13842738
1764767763.392217,-6.1803,1.32762,-0.4578,-0.889951335,0.40087788,0.13842738
1764767763.392217,-6.1803,1.32762,-0.4578,-0.889951335,0.40087788,0.13842738
1764767763.392217,-6.1803,1.32762,-0.4578,-0.889951335,0.40087788,0.13842738
1764767763.392217,-6.1803,1.32762,-0.4578,-0.889951335,0.40087788,0.13842738
1764767763.3926272,-6.1803,1.32762,-0.4578,-0.889951335,0.40087788,0.13842738
1764767763.3926272,-6.1803,1.32762,-0.4578,-0.889951335,0.40087788,0.13842738
1764767763.3926272,-6.1803,1.32762,-0.4578,-0.889951335,0.40087788,0.13842738
1764767763.3926272,-6.1803,1.32762,-0.4578,-0.889951335,0.40087788,0.13842738
1764767763.3926272,-6.1803,1.32762,-0.4578,-0.889951335,0.40087788,0.13842738
1764767763.3926272,-6.14978,1.526,-0.51884,-0.889340985,0.398741655,0.138976695
1764767763.3926272,-6.14978,1.526,-0.51884,-0.889340985,0.398741655,0.138976695
1764767763.3926272,-6.14978,1.526,-0.51884,-0.889340985,0.398741655,0.138976695
1764767763.3926272,-6.14978,1.526,-0.51884,-0.889340985,0.398741655,0.138976695
1764767763.3926272,-6.14978,1.526,-0.51884,-0.889340985,0.398741655,0.138976695
1764767763.3926272,-6.14978,1.526,-0.51884,-0.889340985,0.398741655,0.138976695
1764767763.3926272,-6.14978,1.526,-0.51884,-0.889340985,0.398741655,0.138976695
1764767763.3926272,-6.14978,1.526,-0.51884,-0.889340985,0.398741655,0.138976695
1764767763.4378908,-6.14978,1.526,-0.51884,-0.889340985,0.398741655,0.138976695
1764767763.4378908,-6.14978,1.526,-0.51884,-0.889340985,0.398741655,0.138976695
1764767763.4378908,-5.00528,1.6633399999999998,0.0,-0.88903581,0.39599508,0.14025843
1764767763.4378908,-5.00528,1.6633399999999998,0.0,-0.88903581,0.39599508,0.14025843
1764767763.4378908,-5.00528,1.6633399999999998,0.0,-0.88903581,0.39599508,0.14025843
1764767763.4378908,-5.00528,1.6633399999999998,0.0,-0.88903581,0.39599508,0.14025843
1764767763.4378908,-5.00528,1.6633399999999998,0.0,-0.88903581,0.39599508,0.14025843
1764767763.4378908,-5.00528,1.6633399999999998,0.0,-0.88903581,0.39599508,0.14025843
1764767763.4394178,-5.00528,1.6633399999999998,0.0,-0.88903581,0.39599508,0.14025843
1764767763.4394178,-5.00528,1.6633399999999998,0.0,-0.88903581,0.39599508,0.14025843
1764767763.4394178,-5.00528,1.6633399999999998,0.0,-0.88903581,0.39599508,0.14025843
1764767763.4394178,-5.00528,1.6633399999999998,0.0,-0.88903581,0.39599508,0.14025843
1764767763.4394178,-4.60852,1.17502,0.3204599999999999,-0.8897071950000001,0.394591275,0.141051885
1764767763.4394178,-4.60852,1.17502,0.3204599999999999,-0.8897071950000001,0.394591275,0.141051885
1764767763.4394178,-4.60852,1.17502,0.3204599999999999,-0.8897071950000001,0.394591275,0.141051885
1764767763.4394178,-4.60852,1.17502,0.3204599999999999,-0.8897071950000001,0.394591275,0.141051885
1764767763.4394178,-4.60852,1.17502,0.3204599999999999,-0.8897071950000001,0.394591275,0.141051885
1764767763.4394178,-4.60852,1.17502,0.3204599999999999,-0.8897071950000001,0.394591275,0.141051885
1764767763.4394178,-4.60852,1.17502,0.3204599999999999,-0.8897071950000001,0.394591275,0.141051885
1764767763.4394178,-4.60852,1.17502,0.3204599999999999,-0.8897071950000001,0.394591275,0.141051885
1764767763.4394178,-4.60852,1.17502,0.3204599999999999,-0.8897071950000001,0.394591275,0.141051885
1764767763.4394178,-4.60852,1.17502,0.3204599999999999,-0.8897071950000001,0.394591275,0.141051885
1764767763.4394178,-4.39488,1.4039199999999998,-0.1678599999999999,-0.890073405,0.393736785,0.14233362
1764767763.4394178,-4.39488,1.4039199999999998,-0.1678599999999999,-0.890073405,0.393736785,0.14233362
1764767763.485012,-4.39488,1.4039199999999998,-0.1678599999999999,-0.890073405,0.393736785,0.14233362
1764767763.485012,-4.39488,1.4039199999999998,-0.1678599999999999,-0.890073405,0.393736785,0.14233362
1764767763.485012,-4.39488,1.4039199999999998,-0.1678599999999999,-0.890073405,0.393736785,0.14233362
1764767763.485012,-4.39488,1.4039199999999998,-0.1678599999999999,-0.890073405,0.393736785,0.14233362
1764767763.485012,-4.39488,1.4039199999999998,-0.1678599999999999,-0.890073405,0.393736785,0.14233362
1764767763.485012,-4.39488,1.4039199999999998,-0.1678599999999999,-0.890073405,0.393736785,0.14233362
1764767763.485012,-4.39488,1.4039199999999998,-0.1678599999999999,-0.890073405,0.393736785,0.14233362
1764767763.485012,-4.39488,1.4039199999999998,-0.1678599999999999,-0.890073405,0.393736785,0.14233362
1764767763.485012,-4.440659999999999,1.41918,-0.25942,-0.89050065,0.39379782,0.14294397
1764767763.485012,-4.440659999999999,1.41918,-0.25942,-0.89050065,0.39379782,0.14294397
1764767763.485012,-4.440659999999999,1.41918,-0.25942,-0.89050065,0.39379782,0.14294397
1764767763.485012,-4.440659999999999,1.41918,-0.25942,-0.89050065,0.39379782,0.14294397
1764767763.485012,-4.440659999999999,1.41918,-0.25942,-0.89050065,0.39379782,0.14294397
1764767763.485012,-4.440659999999999,1.41918,-0.25942,-0.89050065,0.39379782,0.14294397
1764767763.485012,-4.440659999999999,1.41918,-0.25942,-0.89050065,0.39379782,0.14294397
1764767763.485012,-4.440659999999999,1.41918,-0.25942,-0.89050065,0.39379782,0.14294397
1764767763.4860172,-4.440659999999999,1.41918,-0.25942,-0.89050065,0.39379782,0.14294397
1764767763.4860172,-4.440659999999999,1.41918,-0.25942,-0.89050065,0.39379782,0.14294397
1764767763.4860172,-3.69292,1.1445,-0.56462,-0.89123307,0.395323695,0.142394655
1764767763.4860172,-3.69292,1.1445,-0.56462,-0.89123307,0.395323695,0.142394655
1764767763.4860172,-3.69292,1.1445,-0.56462,-0.89123307,0.395323695,0.142394655
1764767763.4860172,-3.69292,1.1445,-0.56462,-0.89123307,0.395323695,0.142394655
1764767763.5317605,-3.69292,1.1445,-0.56462,-0.89123307,0.395323695,0.142394655
1764767763.5317605,-3.69292,1.1445,-0.56462,-0.89123307,0.395323695,0.142394655
1764767763.5317605,-3.69292,1.1445,-0.56462,-0.89123307,0.395323695,0.142394655
1764767763.5317605,-3.69292,1.1445,-0.56462,-0.89123307,0.395323695,0.142394655
1764767763.5317605,-3.69292,1.1445,-0.56462,-0.89123307,0.395323695,0.142394655
1764767763.5317605,-3.69292,1.1445,-0.56462,-0.89123307,0.395323695,0.142394655
1764767763.5317605,-3.7387,0.6867,-0.9003399999999999,-0.89208756,0.397154745,0.14086878
1764767763.5317605,-3.7387,0.6867,-0.9003399999999999,-0.89208756,0.397154745,0.14086878
1764767763.5317605,-3.7387,0.6867,-0.9003399999999999,-0.89208756,0.397154745,0.14086878
1764767763.5317605,-3.7387,0.6867,-0.9003399999999999,-0.89208756,0.397154745,0.14086878
