Timestamp,GyroX,GyroY,GyroZ,AccX,AccY,AccZ
1764767604.697838,-3.38772,0.5341,1.34288,0.978818295,-0.029357835,0.124328295
1764767604.697838,-3.38772,0.5341,1.34288,0.978818295,-0.029357835,0.124328295
1764767604.697838,-3.38772,0.5341,1.34288,0.978818295,-0.029357835,0.124328295
1764767604.697838,-3.38772,0.5341,1.34288,0.978818295,-0.029357835,0.124328295
1764767604.697838,-3.38772,0.5341,1.34288,0.978818295,-0.029357835,0.124328295
1764767604.697838,-3.38772,0.5341,1.34288,0.978818295,-0.029357835,0.124328295
1764767604.7341924,-3.34194,0.6409199999999999,1.03768,0.978818295,-0.03002922,0.123962085
1764767604.7341924,-3.34194,0.6409199999999999,1.03768,0.978818295,-0.03002922,0.123962085
1764767604.7341924,-3.34194,0.6409199999999999,1.03768,0.978818295,-0.03002922,0.123962085
1764767604.7341924,-3.34194,0.6409199999999999,1.03768,0.978818295,-0.03002922,0.123962085
1764767604.7341924,-3.34194,0.6409199999999999,1.03768,0.978818295,-0.03002922,0.123962085
1764767604.7341924,-3.34194,0.6409199999999999,1.03768,0.978818295,-0.03002922,0.123962085
1764767604.7341924,-3.34194,0.6409199999999999,1.03768,0.978818295,-0.03002922,0.123962085
1764767604.7341924,-3.34194,0.6409199999999999,1.03768,0.978818295,-0.03002922,0.123962085
1764767604.7341924,-3.34194,0.6409199999999999,1.03768,0.978818295,-0.03002922,0.123962085
1764767604.7341924,-3.34194,0.6409199999999999,1.03768,0.978818295,-0.03002922,0.123962085
1764767604.7341924,-3.11304,0.9156,1.15976,0.97912347,-0.029724045,0.123595875
1764767604.7341924,-3.11304,0.9156,1.15976,0.97912347,-0.029724045,0.123595875
1764767604.7341924,-3.11304,0.9156,1.15976,0.97912347,-0.029724045,0.123595875
1764767604.7341924,-3.11304,0.9156,1.15976,0.97912347,-0.029724045,0.123595875
1764767604.7341924,-3.11304,0.9156,1.15976,0.97912347,-0.029724045,0.123595875
1764767604.7341924,-3.11304,0.9156,1.15976,0.97912347,-0.029724045,0.123595875
1764767604.7341924,-3.11304,0.9156,1.15976,0.97912347,-0.029724045,0.123595875
1764767604.7341924,-3.11304,0.9156,1.15976,0.97912347,-0.029724045,0.123595875
1764767604.7341924,-3.11304,0.9156,1.15976,0.97912347,-0.029724045,0.123595875
1764767604.7341924,-3.11304,0.9156,1.15976,0.97912347,-0.029724045,0.123595875
1764767604.7341924,-3.61662,1.31236,1.4497,0.97851312,-0.029479905,0.123473805
1764767604.7341924,-3.61662,1.31236,1.4497,0.97851312,-0.029479905,0.123473805
1764767604.7341924,-3.61662,1.31236,1.4497,0.97851312,-0.029479905,0.123473805
1764767604.7341924,-3.61662,1.31236,1.4497,0.97851312,-0.029479905,0.123473805
1764767604.7341924,-3.61662,1.31236,1.4497,0.97851312,-0.029479905,0.123473805
1764767604.7341924,-3.61662,1.31236,1.4497,0.97851312,-0.029479905,0.123473805
1764767604.784435,-3.61662,1.31236,1.4497,0.97851312,-0.029479905,0.123473805
1764767604.784435,-3.61662,1.31236,1.4497,0.97851312,-0.029479905,0.123473805
1764767604.784435,-3.61662,1.31236,1.4497,0.97851312,-0.029479905,0.123473805
1764767604.784435,-3.61662,1.31236,1.4497,0.97851312,-0.029479905,0.123473805
1764767604.784435,-3.7387,0.9919,1.2208,0.978574155,-0.029235765,0.122985525
1764767604.784435,-3.7387,0.9919,1.2208,0.978574155,-0.029235765,0.122985525
1764767604.784941,-3.7387,0.9919,1.2208,0.978574155,-0.029235765,0.122985525
1764767604.784941,-3.7387,0.9919,1.2208,0.978574155,-0.029235765,0.122985525
1764767604.784941,-3.7387,0.9919,1.2208,0.978574155,-0.029235765,0.122985525
1764767604.784941,-3.7387,0.9919,1.2208,0.978574155,-0.029235765,0.122985525
1764767604.784941,-3.7387,0.9919,1.2208,0.978574155,-0.029235765,0.122985525
1764767604.784941,-3.7387,0.9919,1.2208,0.978574155,-0.029235765,0.122985525
1764767604.784941,-3.7387,0.9919,1.2208,0.978574155,-0.029235765,0.122985525
1764767604.784941,-3.7387,0.9919,1.2208,0.978574155,-0.029235765,0.122985525
1764767604.784941,-3.8913,1.00716,1.11398,0.979672785,-0.0292968,0.123107595
1764767604.784941,-3.8913,1.00716,1.11398,0.979672785,-0.0292968,0.123107595
1764767604.784941,-3.8913,1.00716,1.11398,0.979672785,-0.0292968,0.123107595
1764767604.784941,-3.8913,1.00716,1.11398,0.979672785,-0.0292968,0.123107595
1764767604.784941,-3.8913,1.00716,1.11398,0.979672785,-0.0292968,0.123107595
1764767604.784941,-3.8913,1.00716,1.11398,0.979672785,-0.0292968,0.123107595
1764767604.784941,-3.8913,1.00716,1.11398,0.979672785,-0.0292968,0.123107595
1764767604.784941,-3.8913,1.00716,1.11398,0.979672785,-0.0292968,0.123107595
1764767604.784941,-3.8913,1.00716,1.11398,0.979672785,-0.0292968,0.123107595
1764767604.784941,-3.8913,1.00716,1.11398,0.979672785,-0.0292968,0.123107595
1764767604.8316357,-3.75396,1.34288,1.38866,0.980038995,-0.02966301,0.123962085
1764767604.8316357,-3.75396,1.34288,1.38866,0.980038995,-0.02966301,0.123962085
1764767604.8316357,-3.75396,1.34288,1.38866,0.980038995,-0.02966301,0.123962085
1764767604.8316357,-3.75396,1.34288,1.38866,0.980038995,-0.02966301,0.123962085
1764767604.8316357,-3.75396,1.34288,1.38866,0.980038995,-0.02966301,0.123962085
1764767604.8316357,-3.75396,1.34288,1.38866,0.980038995,-0.02966301,0.123962085
1764767604.8316357,-3.75396,1.34288,1.38866,0.980038995,-0.02966301,0.123962085
1764767604.8316357,-3.75396,1.34288,1.38866,0.980038995,-0.02966301,0.123962085
1764767604.8321428,-3.75396,1.34288,1.38866,0.980038995,-0.02966301,0.123962085
1764767604.8321428,-3.75396,1.34288,1.38866,0.980038995,-0.02966301,0.123962085
1764767604.8321428,-3.7387,1.02242,1.15976,0.97961175,-0.029846115,0.12438933
1764767604.8321428,-3.7387,1.02242,1.15976,0.97961175,-0.029846115,0.12438933
1764767604.8321428,-3.7387,1.02242,1.15976,0.97961175,-0.029846115,0.12438933
1764767604.8321428,-3.7387,1.02242,1.15976,0.97961175,-0.029846115,0.12438933
1764767604.8321428,-3.7387,1.02242,1.15976,0.97961175,-0.029846115,0.12438933
1764767604.8321428,-3.7387,1.02242,1.15976,0.97961175,-0.029846115,0.12438933
1764767604.8321428,-3.7387,1.02242,1.15976,0.97961175,-0.029846115,0.12438933
1764767604.8321428,-3.7387,1.02242,1.15976,0.97961175,-0.029846115,0.12438933
1764767604.8321428,-3.7387,1.02242,1.15976,0.97961175,-0.029846115,0.12438933
1764767604.8321428,-3.7387,1.02242,1.15976,0.97961175,-0.029846115,0.12438933
1764767604.8321428,-3.60136,1.1445,1.05294,0.979916925,-0.03076164,0.12487761
1764767604.8321428,-3.60136,1.1445,1.05294,0.979916925,-0.03076164,0.12487761
1764767604.8321428,-3.60136,1.1445,1.05294,0.979916925,-0.03076164,0.12487761
1764767604.8321428,-3.60136,1.1445,1.05294,0.979916925,-0.03076164,0.12487761
1764767604.8777325,-3.60136,1.1445,1.05294,0.979916925,-0.03076164,0.12487761
1764767604.8777325,-3.60136,1.1445,1.05294,0.979916925,-0.03076164,0.12487761
1764767604.8777325,-3.60136,1.1445,1.05294,0.979916925,-0.03076164,0.12487761
1764767604.8777325,-3.60136,1.1445,1.05294,0.979916925,-0.03076164,0.12487761
1764767604.8777325,-3.60136,1.1445,1.05294,0.979916925,-0.03076164,0.12487761
1764767604.8777325,-3.60136,1.1445,1.05294,0.979916925,-0.03076164,0.12487761
1764767604.8777325,-3.31142,1.32762,1.26658,0.97948968,-0.03124992,0.124450365
1764767604.8777325,-3.31142,1.32762,1.26658,0.97948968,-0.03124992,0.124450365
1764767604.8777325,-3.31142,1.32762,1.26658,0.97948968,-0.03124992,0.124450365
1764767604.8777325,-3.31142,1.32762,1.26658,0.97948968,-0.03124992,0.124450365
1764767604.8777325,-3.31142,1.32762,1.26658,0.97948968,-0.03124992,0.124450365
1764767604.8777325,-3.31142,1.32762,1.26658,0.97948968,-0.03124992,0.124450365
1764767604.8777325,-3.31142,1.32762,1.26658,0.97948968,-0.03124992,0.124450365
1764767604.8777325,-3.31142,1.32762,1.26658,0.97948968,-0.03124992,0.124450365
1764767604.8777325,-3.31142,1.32762,1.26658,0.97948968,-0.03124992,0.124450365
1764767604.8777325,-3.31142,1.32762,1.26658,0.97948968,-0.03124992,0.124450365
1764767604.8777325,-3.815,0.79352,1.26658,0.978207945,-0.030822675,0.124572435
1764767604.8777325,-3.815,0.79352,1.26658,0.978207945,-0.030822675,0.124572435
1764767604.8777325,-3.815,0.79352,1.26658,0.978207945,-0.030822675,0.124572435
1764767604.8777325,-3.815,0.79352,1.26658,0.978207945,-0.030822675,0.124572435
1764767604.8777325,-3.815,0.79352,1.26658,0.978207945,-0.030822675,0.124572435
1764767604.8777325,-3.815,0.79352,1.26658,0.978207945,-0.030822675,0.124572435
1764767604.9242108,-3.815,0.79352,1.26658,0.978207945,-0.030822675,0.124572435
1764767604.9242108,-3.815,0.79352,1.26658,0.978207945,-0.030822675,0.124572435
1764767604.9242108,-3.815,0.79352,1.26658,0.978207945,-0.030822675,0.124572435
1764767604.9242108,-3.815,0.79352,1.26658,0.978207945,-0.030822675,0.124572435
1764767604.9242108,-3.47928,1.12924,1.12924,0.97839105,-0.030212325,0.12463347
1764767604.9242108,-3.47928,1.12924,1.12924,0.97839105,-0.030212325,0.12463347
1764767604.9242108,-3.47928,1.12924,1.12924,0.97839105,-0.030212325,0.12463347
1764767604.9247203,-3.47928,1.12924,1.12924,0.97839105,-0.030212325,0.12463347
1764767604.9247203,-3.47928,1.12924,1.12924,0.97839105,-0.030212325,0.12463347
1764767604.9247203,-3.47928,1.12924,1.12924,0.97839105,-0.030212325,0.12463347
1764767604.9247203,-3.47928,1.12924,1.12924,0.97839105,-0.030212325,0.12463347
1764767604.9247203,-3.47928,1.12924,1.12924,0.97839105,-0.030212325,0.12463347
1764767604.9247203,-3.47928,1.12924,1.12924,0.97839105,-0.030212325,0.12463347
1764767604.9247203,-3.47928,1.12924,1.12924,0.97839105,-0.030212325,0.12463347
1764767604.9247203,-3.44876,1.11398,1.61756,0.978574155,-0.029968185,0.125060715
1764767604.9247203,-3.44876,1.11398,1.61756,0.978574155,-0.029968185,0.125060715
1764767604.9247203,-3.44876,1.11398,1.61756,0.978574155,-0.029968185,0.125060715
1764767604.9247203,-3.44876,1.11398,1.61756,0.978574155,-0.029968185,0.125060715
1764767604.9247203,-3.44876,1.11398,1.61756,0.978574155,-0.029968185,0.125060715
1764767604.9247203,-3.44876,1.11398,1.61756,0.978574155,-0.029968185,0.125060715
1764767604.9247203,-3.44876,1.11398,1.61756,0.978574155,-0.029968185,0.125060715
1764767604.9247203,-3.44876,1.11398,1.61756,0.978574155,-0.029968185,0.125060715
1764767604.9247203,-3.44876,1.11398,1.61756,0.978574155,-0.029968185,0.125060715
1764767604.9247203,-3.44876,1.11398,1.61756,0.978574155,-0.029968185,0.125060715
1764767604.9712155,-3.61662,0.9919,1.2208,0.978818295,-0.03039543,0.124816575
1764767604.971726,-3.61662,0.9919,1.2208,0.978818295,-0.03039543,0.124816575
1764767604.971726,-3.61662,0.9919,1.2208,0.978818295,-0.03039543,0.124816575
1764767604.971726,-3.61662,0.9919,1.2208,0.978818295,-0.03039543,0.124816575
1764767604.971726,-3.61662,0.9919,1.2208,0.978818295,-0.03039543,0.124816575
1764767604.971726,-3.61662,0.9919,1.2208,0.978818295,-0.03039543,0.124816575
1764767604.971726,-3.61662,0.9919,1.2208,0.978818295,-0.03039543,0.124816575
1764767604.971726,-3.61662,0.9919,1.2208,0.978818295,-0.03039543,0.124816575
1764767604.971726,-3.61662,0.9919,1.2208,0.978818295,-0.03039543,0.124816575
1764767604.971726,-3.61662,0.9919,1.2208,0.978818295,-0.03039543,0.124816575
1764767604.971726,-3.6624,1.26658,1.526,0.978818295,-0.03027336,0.124816575
1764767604.971726,-3.6624,1.26658,1.526,0.978818295,-0.03027336,0.124816575
1764767604.971726,-3.6624,1.26658,1.526,0.978818295,-0.03027336,0.124816575
1764767604.971726,-3.6624,1.26658,1.526,0.978818295,-0.03027336,0.124816575
1764767604.971726,-3.6624,1.26658,1.526,0.978818295,-0.03027336,0.124816575
1764767604.971726,-3.6624,1.26658,1.526,0.978818295,-0.03027336,0.124816575
1764767604.971726,-3.6624,1.26658,1.526,0.978818295,-0.03027336,0.124816575
1764767604.971726,-3.6624,1.26658,1.526,0.978818295,-0.03027336,0.124816575
1764767604.971726,-3.6624,1.26658,1.526,0.978818295,-0.03027336,0.124816575
1764767604.971726,-3.6624,1.26658,1.526,0.978818295,-0.03027336,0.124816575
1764767604.971726,-3.31142,0.96138,1.526,0.97839105,-0.031433025,0.12597624
1764767604.971726,-3.31142,0.96138,1.526,0.97839105,-0.031433025,0.12597624
1764767604.971726,-3.31142,0.96138,1.526,0.97839105,-0.031433025,0.12597624
1764767604.971726,-3.31142,0.96138,1.526,0.97839105,-0.031433025,0.12597624
1764767605.018468,-3.31142,0.96138,1.526,0.97839105,-0.031433025,0.12597624
1764767605.018468,-3.31142,0.96138,1.526,0.97839105,-0.031433025,0.12597624
1764767605.018468,-3.31142,0.96138,1.526,0.97839105,-0.031433025,0.12597624
1764767605.018468,-3.31142,0.96138,1.526,0.97839105,-0.031433025,0.12597624
1764767605.018972,-3.31142,0.96138,1.526,0.97839105,-0.031433025,0.12597624
1764767605.018972,-3.31142,0.96138,1.526,0.97839105,-0.031433025,0.12597624
1764767605.018972,-3.03674,0.93086,1.2208,0.97826898,-0.03161613,0.12646452
1764767605.018972,-3.03674,0.93086,1.2208,0.97826898,-0.03161613,0.12646452
1764767605.018972,-3.03674,0.93086,1.2208,0.97826898,-0.03161613,0.12646452
1764767605.018972,-3.03674,0.93086,1.2208,0.97826898,-0.03161613,0.12646452
1764767605.018972,-3.03674,0.93086,1.2208,0.97826898,-0.03161613,0.12646452
1764767605.018972,-3.03674,0.93086,1.2208,0.97826898,-0.03161613,0.12646452
1764767605.018972,-3.03674,0.93086,1.2208,0.97826898,-0.03161613,0.12646452
1764767605.0194762,-3.03674,0.93086,1.2208,0.97826898,-0.03161613,0.12646452
1764767605.0194762,-3.03674,0.93086,1.2208,0.97826898,-0.03161613,0.12646452
1764767605.0194762,-3.03674,0.93086,1.2208,0.97826898,-0.03161613,0.12646452
1764767605.0194762,-2.92992,1.32762,1.17502,0.978696225,-0.03137199,0.126281415
1764767605.0194762,-2.92992,1.32762,1.17502,0.978696225,-0.03137199,0.126281415
1764767605.0194762,-2.92992,1.32762,1.17502,0.978696225,-0.03137199,0.126281415
1764767605.0194762,-2.92992,1.32762,1.17502,0.978696225,-0.03137199,0.126281415
1764767605.0194762,-2.92992,1.32762,1.17502,0.978696225,-0.03137199,0.126281415
1764767605.0194762,-2.92992,1.32762,1.17502,0.978696225,-0.03137199,0.126281415
1764767605.0663638,-2.92992,1.32762,1.17502,0.978696225,-0.03137199,0.126281415
1764767605.0663638,-2.92992,1.32762,1.17502,0.978696225,-0.03137199,0.126281415
1764767605.0663638,-2.92992,1.32762,1.17502,0.978696225,-0.03137199,0.126281415
1764767605.0663638,-2.92992,1.32762,1.17502,0.978696225,-0.03137199,0.126281415
1764767605.0663638,-2.94518,1.28184,1.43444,0.97814691,-0.03076164,0.126769695
1764767605.0663638,-2.94518,1.28184,1.43444,0.97814691,-0.03076164,0.126769695
1764767605.0663638,-2.94518,1.28184,1.43444,0.97814691,-0.03076164,0.126769695
1764767605.0663638,-2.94518,1.28184,1.43444,0.97814691,-0.03076164,0.126769695
1764767605.0663638,-2.94518,1.28184,1.43444,0.97814691,-0.03076164,0.126769695
1764767605.0663638,-2.94518,1.28184,1.43444,0.97814691,-0.03076164,0.126769695
1764767605.0663638,-2.94518,1.28184,1.43444,0.97814691,-0.03076164,0.126769695
1764767605.0663638,-2.94518,1.28184,1.43444,0.97814691,-0.03076164,0.126769695
1764767605.0663638,-2.94518,1.28184,1.43444,0.97814691,-0.03076164,0.126769695
1764767605.0663638,-2.94518,1.28184,1.43444,0.97814691,-0.03076164,0.126769695
1764767605.0663638,-3.03674,1.08346,1.58704,0.978207945,-0.029968185,0.126525555
1764767605.0663638,-3.03674,1.08346,1.58704,0.978207945,-0.029968185,0.126525555
1764767605.0663638,-3.03674,1.08346,1.58704,0.978207945,-0.029968185,0.126525555
1764767605.0663638,-3.03674,1.08346,1.58704,0.978207945,-0.029968185,0.126525555
1764767605.0663638,-3.03674,1.08346,1.58704,0.978207945,-0.029968185,0.126525555
1764767605.0663638,-3.03674,1.08346,1.58704,0.978207945,-0.029968185,0.126525555
1764767605.0663638,-3.03674,1.08346,1.58704,0.978207945,-0.029968185,0.126525555
1764767605.0663638,-3.03674,1.08346,1.58704,0.978207945,-0.029968185,0.126525555
1764767605.0663638,-3.03674,1.08346,1.58704,0.978207945,-0.029968185,0.126525555
1764767605.0663638,-3.03674,1.08346,1.58704,0.978207945,-0.029968185,0.126525555
1764767605.1116672,-3.64714,0.9919,1.48022,0.97875726,-0.030334395,0.126403485
1764767605.1121955,-3.64714,0.9919,1.48022,0.97875726,-0.030334395,0.126403485
1764767605.1121955,-3.64714,0.9919,1.48022,0.97875726,-0.030334395,0.126403485
1764767605.1121955,-3.64714,0.9919,1.48022,0.97875726,-0.030334395,0.126403485
1764767605.1121955,-3.64714,0.9919,1.48022,0.97875726,-0.030334395,0.126403485
1764767605.1121955,-3.64714,0.9919,1.48022,0.97875726,-0.030334395,0.126403485
1764767605.1121955,-3.64714,0.9919,1.48022,0.97875726,-0.030334395,0.126403485
1764767605.1121955,-3.64714,0.9919,1.48022,0.97875726,-0.030334395,0.126403485
1764767605.1121955,-3.64714,0.9919,1.48022,0.97875726,-0.030334395,0.126403485
1764767605.1121955,-3.64714,0.9919,1.48022,0.97875726,-0.030334395,0.126403485
1764767605.1121955,-3.70818,1.2055399999999998,1.12924,0.97717035,-0.03076164,0.12585417
1764767605.1121955,-3.70818,1.2055399999999998,1.12924,0.97717035,-0.03076164,0.12585417
1764767605.1121955,-3.70818,1.2055399999999998,1.12924,0.97717035,-0.03076164,0.12585417
1764767605.1121955,-3.70818,1.2055399999999998,1.12924,0.97717035,-0.03076164,0.12585417
1764767605.1121955,-3.70818,1.2055399999999998,1.12924,0.97717035,-0.03076164,0.12585417
1764767605.1121955,-3.70818,1.2055399999999998,1.12924,0.97717035,-0.03076164,0.12585417
1764767605.1121955,-3.70818,1.2055399999999998,1.12924,0.97717035,-0.03076164,0.12585417
1764767605.1121955,-3.70818,1.2055399999999998,1.12924,0.97717035,-0.03076164,0.12585417
1764767605.1121955,-3.70818,1.2055399999999998,1.12924,0.97717035,-0.03076164,0.12585417
1764767605.1121955,-3.70818,1.2055399999999998,1.12924,0.97717035,-0.03076164,0.12585417
1764767605.1580358,-4.059159999999999,1.03768,0.62566,0.977597595,-0.031310955,0.125304855
1764767605.1580358,-4.059159999999999,1.03768,0.62566,0.977597595,-0.031310955,0.125304855
1764767605.1580358,-4.059159999999999,1.03768,0.62566,0.977597595,-0.031310955,0.125304855
1764767605.1580358,-4.059159999999999,1.03768,0.62566,0.977597595,-0.031310955,0.125304855
1764767605.1580358,-4.059159999999999,1.03768,0.62566,0.977597595,-0.031310955,0.125304855
1764767605.1580358,-4.059159999999999,1.03768,0.62566,0.977597595,-0.031310955,0.125304855
1764767605.1580358,-4.059159999999999,1.03768,0.62566,0.977597595,-0.031310955,0.125304855
1764767605.1580358,-4.059159999999999,1.03768,0.62566,0.977597595,-0.031310955,0.125304855
1764767605.1580358,-4.059159999999999,1.03768,0.62566,0.977597595,-0.031310955,0.125304855
1764767605.1580358,-4.059159999999999,1.03768,0.62566,0.977597595,-0.031310955,0.125304855
1764767605.1580358,-3.93708,0.9003399999999999,1.17502,0.978696225,-0.03259269,0.12561003
1764767605.1580358,-3.93708,0.9003399999999999,1.17502,0.978696225,-0.03259269,0.12561003
1764767605.1580358,-3.93708,0.9003399999999999,1.17502,0.978696225,-0.03259269,0.12561003
1764767605.1580358,-3.93708,0.9003399999999999,1.17502,0.978696225,-0.03259269,0.12561003
1764767605.1580358,-3.93708,0.9003399999999999,1.17502,0.978696225,-0.03259269,0.12561003
1764767605.1580358,-3.93708,0.9003399999999999,1.17502,0.978696225,-0.03259269,0.12561003
1764767605.1580358,-3.93708,0.9003399999999999,1.17502,0.978696225,-0.03259269,0.12561003
1764767605.1580358,-3.93708,0.9003399999999999,1.17502,0.978696225,-0.03259269,0.12561003
1764767605.1580358,-3.93708,0.9003399999999999,1.17502,0.978696225,-0.03259269,0.12561003
1764767605.1580358,-3.93708,0.9003399999999999,1.17502,0.978696225,-0.03259269,0.12561003
1764767605.1580358,-3.6624,0.51884,1.41918,0.976498965,-0.03478995,0.125793135
1764767605.1580358,-3.6624,0.51884,1.41918,0.976498965,-0.03478995,0.125793135
1764767605.1580358,-3.6624,0.51884,1.41918,0.976498965,-0.03478995,0.125793135
1764767605.1580358,-3.6624,0.51884,1.41918,0.976498965,-0.03478995,0.125793135
1764767605.1580358,-3.6624,0.51884,1.41918,0.976498965,-0.03478995,0.125793135
1764767605.1580358,-3.6624,0.51884,1.41918,0.976498965,-0.03478995,0.125793135
1764767605.2049794,-3.6624,0.51884,1.41918,0.976498965,-0.03478995,0.125793135
1764767605.2049794,-3.6624,0.51884,1.41918,0.976498965,-0.03478995,0.125793135
1764767605.2049794,-3.6624,0.51884,1.41918,0.976498965,-0.03478995,0.125793135
1764767605.2049794,-3.6624,0.51884,1.41918,0.976498965,-0.03478995,0.125793135
1764767605.2049794,-3.37246,-0.1525999999999999,1.17502,0.978574155,-0.03515616,0.12548796
1764767605.2049794,-3.37246,-0.1525999999999999,1.17502,0.978574155,-0.03515616,0.12548796
1764767605.2049794,-3.37246,-0.1525999999999999,1.17502,0.978574155,-0.03515616,0.12548796
1764767605.2049794,-3.37246,-0.1525999999999999,1.17502,0.978574155,-0.03515616,0.12548796
1764767605.2049794,-3.37246,-0.1525999999999999,1.17502,0.978574155,-0.03515616,0.12548796
1764767605.2049794,-3.37246,-0.1525999999999999,1.17502,0.978574155,-0.03515616,0.12548796
1764767605.2049794,-3.37246,-0.1525999999999999,1.17502,0.978574155,-0.03515616,0.12548796
1764767605.2049794,-3.37246,-0.1525999999999999,1.17502,0.978574155,-0.03515616,0.12548796
1764767605.2049794,-3.37246,-0.1525999999999999,1.17502,0.978574155,-0.03515616,0.12548796
1764767605.2049794,-3.37246,-0.1525999999999999,1.17502,0.978574155,-0.03515616,0.12548796
1764767605.2049794,-3.38772,-0.19838,0.51884,0.980649345,-0.03442374,0.125060715
1764767605.2049794,-3.38772,-0.19838,0.51884,0.980649345,-0.03442374,0.125060715
1764767605.2049794,-3.38772,-0.19838,0.51884,0.980649345,-0.03442374,0.125060715
1764767605.205487,-3.38772,-0.19838,0.51884,0.980649345,-0.03442374,0.125060715
1764767605.205487,-3.38772,-0.19838,0.51884,0.980649345,-0.03442374,0.125060715
1764767605.205487,-3.38772,-0.19838,0.51884,0.980649345,-0.03442374,0.125060715
1764767605.205487,-3.38772,-0.19838,0.51884,0.980649345,-0.03442374,0.125060715
1764767605.205487,-3.38772,-0.19838,0.51884,0.980649345,-0.03442374,0.125060715
1764767605.205487,-3.38772,-0.19838,0.51884,0.980649345,-0.03442374,0.125060715
1764767605.205487,-3.38772,-0.19838,0.51884,0.980649345,-0.03442374,0.125060715
1764767605.2503977,-3.2046,0.6714399999999999,0.6103999999999999,0.97985589,-0.033752355,0.125060715
1764767605.2503977,-3.2046,0.6714399999999999,0.6103999999999999,0.97985589,-0.033752355,0.125060715
1764767605.2503977,-3.2046,0.6714399999999999,0.6103999999999999,0.97985589,-0.033752355,0.125060715
1764767605.2503977,-3.2046,0.6714399999999999,0.6103999999999999,0.97985589,-0.033752355,0.125060715
1764767605.2503977,-3.2046,0.6714399999999999,0.6103999999999999,0.97985589,-0.033752355,0.125060715
1764767605.2503977,-3.2046,0.6714399999999999,0.6103999999999999,0.97985589,-0.033752355,0.125060715
1764767605.2503977,-3.2046,0.6714399999999999,0.6103999999999999,0.97985589,-0.033752355,0.125060715
1764767605.2503977,-3.2046,0.6714399999999999,0.6103999999999999,0.97985589,-0.033752355,0.125060715
1764767605.2503977,-3.2046,0.6714399999999999,0.6103999999999999,0.97985589,-0.033752355,0.125060715
1764767605.2503977,-3.2046,0.6714399999999999,0.6103999999999999,0.97985589,-0.033752355,0.125060715
1764767605.2503977,-3.57084,1.32762,0.03052,0.978330015,-0.03198234,0.124328295
1764767605.2503977,-3.57084,1.32762,0.03052,0.978330015,-0.03198234,0.124328295
1764767605.2503977,-3.57084,1.32762,0.03052,0.978330015,-0.03198234,0.124328295
1764767605.2503977,-3.57084,1.32762,0.03052,0.978330015,-0.03198234,0.124328295
1764767605.2503977,-3.57084,1.32762,0.03052,0.978330015,-0.03198234,0.124328295
1764767605.2503977,-3.57084,1.32762,0.03052,0.978330015,-0.03198234,0.124328295
1764767605.2503977,-3.57084,1.32762,0.03052,0.978330015,-0.03198234,0.124328295
1764767605.2503977,-3.57084,1.32762,0.03052,0.978330015,-0.03198234,0.124328295
1764767605.2503977,-3.57084,1.32762,0.03052,0.978330015,-0.03198234,0.124328295
1764767605.2503977,-3.57084,1.32762,0.03052,0.978330015,-0.03198234,0.124328295
1764767605.2503977,-4.25754,0.77826,-0.27468,0.977719665,-0.03039543,0.12377898
1764767605.2503977,-4.25754,0.77826,-0.27468,0.977719665,-0.03039543,0.12377898
1764767605.2967515,-4.25754,0.77826,-0.27468,0.977719665,-0.03039543,0.12377898
1764767605.2972803,-4.25754,0.77826,-0.27468,0.977719665,-0.03039543,0.12377898
1764767605.2972803,-4.25754,0.77826,-0.27468,0.977719665,-0.03039543,0.12377898
1764767605.2972803,-4.25754,0.77826,-0.27468,0.977719665,-0.03039543,0.12377898
1764767605.2972803,-4.25754,0.77826,-0.27468,0.977719665,-0.03039543,0.12377898
1764767605.2972803,-4.25754,0.77826,-0.27468,0.977719665,-0.03039543,0.12377898
1764767605.2972803,-4.25754,0.77826,-0.27468,0.977719665,-0.03039543,0.12377898
1764767605.2972803,-4.25754,0.77826,-0.27468,0.977719665,-0.03039543,0.12377898
1764767605.2972803,-4.7306,1.11398,-0.18312,0.978818295,-0.03015129,0.124206225
1764767605.2972803,-4.7306,1.11398,-0.18312,0.978818295,-0.03015129,0.124206225
1764767605.2972803,-4.7306,1.11398,-0.18312,0.978818295,-0.03015129,0.124206225
1764767605.2972803,-4.7306,1.11398,-0.18312,0.978818295,-0.03015129,0.124206225
1764767605.2972803,-4.7306,1.11398,-0.18312,0.978818295,-0.03015129,0.124206225
1764767605.2972803,-4.7306,1.11398,-0.18312,0.978818295,-0.03015129,0.124206225
1764767605.2972803,-4.7306,1.11398,-0.18312,0.978818295,-0.03015129,0.124206225
1764767605.2972803,-4.7306,1.11398,-0.18312,0.978818295,-0.03015129,0.124206225
1764767605.2972803,-4.7306,1.11398,-0.18312,0.978818295,-0.03015129,0.124206225
1764767605.2972803,-4.7306,1.11398,-0.18312,0.978818295,-0.03015129,0.124206225
1764767605.2972803,-5.096839999999999,1.34288,0.5341,0.979306575,-0.03039543,0.124938645
1764767605.2972803,-5.096839999999999,1.34288,0.5341,0.979306575,-0.03039543,0.124938645
1764767605.2972803,-5.096839999999999,1.34288,0.5341,0.979306575,-0.03039543,0.124938645
1764767605.297813,-5.096839999999999,1.34288,0.5341,0.979306575,-0.03039543,0.124938645
1764767605.297813,-5.096839999999999,1.34288,0.5341,0.979306575,-0.03039543,0.124938645
1764767605.297813,-5.096839999999999,1.34288,0.5341,0.979306575,-0.03039543,0.124938645
1764767605.34348,-5.096839999999999,1.34288,0.5341,0.979306575,-0.03039543,0.124938645
1764767605.344488,-5.096839999999999,1.34288,0.5341,0.979306575,-0.03039543,0.124938645
1764767605.344488,-5.096839999999999,1.34288,0.5341,0.979306575,-0.03039543,0.124938645
1764767605.344488,-5.096839999999999,1.34288,0.5341,0.979306575,-0.03039543,0.124938645
1764767605.344488,-4.83742,0.85456,0.9156,0.979672785,-0.03015129,0.12499968
1764767605.344488,-4.83742,0.85456,0.9156,0.979672785,-0.03015129,0.12499968
1764767605.344488,-4.83742,0.85456,0.9156,0.979672785,-0.03015129,0.12499968
1764767605.344488,-4.83742,0.85456,0.9156,0.979672785,-0.03015129,0.12499968
1764767605.344488,-4.83742,0.85456,0.9156,0.979672785,-0.03015129,0.12499968
1764767605.344488,-4.83742,0.85456,0.9156,0.979672785,-0.03015129,0.12499968
1764767605.344488,-4.83742,0.85456,0.9156,0.979672785,-0.03015129,0.12499968
1764767605.344488,-4.83742,0.85456,0.9156,0.979672785,-0.03015129,0.12499968
1764767605.344488,-4.83742,0.85456,0.9156,0.979672785,-0.03015129,0.12499968
1764767605.344488,-4.83742,0.85456,0.9156,0.979672785,-0.03015129,0.12499968
1764767605.344488,-4.15072,0.3815,0.97664,0.97912347,-0.031433025,0.12499968
1764767605.344488,-4.15072,0.3815,0.97664,0.97912347,-0.031433025,0.12499968
1764767605.344488,-4.15072,0.3815,0.97664,0.97912347,-0.031433025,0.12499968
1764767605.344488,-4.15072,0.3815,0.97664,0.97912347,-0.031433025,0.12499968
1764767605.344488,-4.15072,0.3815,0.97664,0.97912347,-0.031433025,0.12499968
1764767605.344488,-4.15072,0.3815,0.97664,0.97912347,-0.031433025,0.12499968
1764767605.344488,-4.15072,0.3815,0.97664,0.97912347,-0.031433025,0.12499968
1764767605.344488,-4.15072,0.3815,0.97664,0.97912347,-0.031433025,0.12499968
1764767605.3900857,-4.15072,0.3815,0.97664,0.97912347,-0.031433025,0.12499968
1764767605.3900857,-4.15072,0.3815,0.97664,0.97912347,-0.031433025,0.12499968
1764767605.3911345,-3.70818,0.5341,1.2208,0.97924554,-0.03222648,0.126037275
1764767605.3911345,-3.70818,0.5341,1.2208,0.97924554,-0.03222648,0.126037275
1764767605.3911345,-3.70818,0.5341,1.2208,0.97924554,-0.03222648,0.126037275
1764767605.3911345,-3.70818,0.5341,1.2208,0.97924554,-0.03222648,0.126037275
1764767605.3911345,-3.70818,0.5341,1.2208,0.97924554,-0.03222648,0.126037275
1764767605.3911345,-3.70818,0.5341,1.2208,0.97924554,-0.03222648,0.126037275
1764767605.3911345,-3.70818,0.5341,1.2208,0.97924554,-0.03222648,0.126037275
1764767605.3911345,-3.70818,0.5341,1.2208,0.97924554,-0.03222648,0.126037275
1764767605.3911345,-3.70818,0.5341,1.2208,0.97924554,-0.03222648,0.126037275
1764767605.3911345,-3.70818,0.5341,1.2208,0.97924554,-0.03222648,0.126037275
1764767605.3911345,-3.55558,0.3204599999999999,1.34288,0.97875726,-0.032531655,0.12561003
1764767605.3911345,-3.55558,0.3204599999999999,1.34288,0.97875726,-0.032531655,0.12561003
1764767605.3911345,-3.55558,0.3204599999999999,1.34288,0.97875726,-0.032531655,0.12561003
1764767605.3911345,-3.55558,0.3204599999999999,1.34288,0.97875726,-0.032531655,0.12561003
1764767605.3911345,-3.55558,0.3204599999999999,1.34288,0.97875726,-0.032531655,0.12561003
1764767605.3911345,-3.55558,0.3204599999999999,1.34288,0.97875726,-0.032531655,0.12561003
1764767605.3911345,-3.55558,0.3204599999999999,1.34288,0.97875726,-0.032531655,0.12561003
1764767605.3911345,-3.55558,0.3204599999999999,1.34288,0.97875726,-0.032531655,0.12561003
1764767605.3911345,-3.55558,0.3204599999999999,1.34288,0.97875726,-0.032531655,0.12561003
1764767605.3911345,-3.55558,0.3204599999999999,1.34288,0.97875726,-0.032531655,0.12561003
1764767605.392223,-3.49454,0.09156,1.38866,0.97790277,-0.03210441,0.125182785
1764767605.392223,-3.49454,0.09156,1.38866,0.97790277,-0.03210441,0.125182785
1764767605.4378748,-3.49454,0.09156,1.38866,0.97790277,-0.03210441,0.125182785
1764767605.4378748,-3.49454,0.09156,1.38866,0.97790277,-0.03210441,0.125182785
1764767605.4378748,-3.49454,0.09156,1.38866,0.97790277,-0.03210441,0.125182785
1764767605.4378748,-3.49454,0.09156,1.38866,0.97790277,-0.03210441,0.125182785
1764767605.4378748,-3.49454,0.09156,1.38866,0.97790277,-0.03210441,0.125182785
1764767605.4383948,-3.49454,0.09156,1.38866,0.97790277,-0.03210441,0.125182785
1764767605.4383948,-3.49454,0.09156,1.38866,0.97790277,-0.03210441,0.125182785
1764767605.4383948,-3.49454,0.09156,1.38866,0.97790277,-0.03210441,0.125182785
1764767605.4383948,-3.38772,0.3357199999999999,1.61756,0.97790277,-0.03186027,0.12463347
1764767605.4383948,-3.38772,0.3357199999999999,1.61756,0.97790277,-0.03186027,0.12463347
1764767605.4383948,-3.38772,0.3357199999999999,1.61756,0.97790277,-0.03186027,0.12463347
1764767605.4383948,-3.38772,0.3357199999999999,1.61756,0.97790277,-0.03186027,0.12463347
1764767605.4383948,-3.38772,0.3357199999999999,1.61756,0.97790277,-0.03186027,0.12463347
1764767605.4383948,-3.38772,0.3357199999999999,1.61756,0.97790277,-0.03186027,0.12463347
1764767605.4383948,-3.38772,0.3357199999999999,1.61756,0.97790277,-0.03186027,0.12463347
1764767605.4383948,-3.38772,0.3357199999999999,1.61756,0.97790277,-0.03186027,0.12463347
1764767605.4383948,-3.38772,0.3357199999999999,1.61756,0.97790277,-0.03186027,0.12463347
1764767605.4383948,-3.38772,0.3357199999999999,1.61756,0.97790277,-0.03186027,0.12463347
1764767605.4383948,-3.815,0.47306,1.8006799999999998,0.978452085,-0.030822675,0.12402312
1764767605.4383948,-3.815,0.47306,1.8006799999999998,0.978452085,-0.030822675,0.12402312
1764767605.4383948,-3.815,0.47306,1.8006799999999998,0.978452085,-0.030822675,0.12402312
1764767605.4383948,-3.815,0.47306,1.8006799999999998,0.978452085,-0.030822675,0.12402312
1764767605.4383948,-3.815,0.47306,1.8006799999999998,0.978452085,-0.030822675,0.12402312
1764767605.4383948,-3.815,0.47306,1.8006799999999998,0.978452085,-0.030822675,0.12402312
1764767605.484499,-3.815,0.47306,1.8006799999999998,0.978452085,-0.030822675,0.12402312
1764767605.484499,-3.815,0.47306,1.8006799999999998,0.978452085,-0.030822675,0.12402312
1764767605.484499,-3.815,0.47306,1.8006799999999998,0.978452085,-0.030822675,0.12402312
1764767605.484499,-3.815,0.47306,1.8006799999999998,0.978452085,-0.030822675,0.12402312
1764767605.484499,-3.67766,0.8087799999999999,2.3653,0.978696225,-0.032043375,0.122985525
1764767605.484499,-3.67766,0.8087799999999999,2.3653,0.978696225,-0.032043375,0.122985525
1764767605.484499,-3.67766,0.8087799999999999,2.3653,0.978696225,-0.032043375,0.122985525
1764767605.484499,-3.67766,0.8087799999999999,2.3653,0.978696225,-0.032043375,0.122985525
1764767605.4854102,-3.67766,0.8087799999999999,2.3653,0.978696225,-0.032043375,0.122985525
1764767605.4854102,-3.67766,0.8087799999999999,2.3653,0.978696225,-0.032043375,0.122985525
1764767605.4854102,-3.67766,0.8087799999999999,2.3653,0.978696225,-0.032043375,0.122985525
1764767605.4854102,-3.67766,0.8087799999999999,2.3653,0.978696225,-0.032043375,0.122985525
1764767605.4854102,-3.67766,0.8087799999999999,2.3653,0.978696225,-0.032043375,0.122985525
1764767605.4854102,-3.67766,0.8087799999999999,2.3653,0.978696225,-0.032043375,0.122985525
1764767605.4854102,-3.6624,0.71722,1.96854,0.979550715,-0.031921305,0.12243621
1764767605.4854102,-3.6624,0.71722,1.96854,0.979550715,-0.031921305,0.12243621
1764767605.4854102,-3.6624,0.71722,1.96854,0.979550715,-0.031921305,0.12243621
1764767605.4854102,-3.6624,0.71722,1.96854,0.979550715,-0.031921305,0.12243621
1764767605.4854102,-3.6624,0.71722,1.96854,0.979550715,-0.031921305,0.12243621
1764767605.4854102,-3.6624,0.71722,1.96854,0.979550715,-0.031921305,0.12243621
1764767605.4854102,-3.6624,0.71722,1.96854,0.979550715,-0.031921305,0.12243621
1764767605.4854102,-3.6624,0.71722,1.96854,0.979550715,-0.031921305,0.12243621
1764767605.4854102,-3.6624,0.71722,1.96854,0.979550715,-0.031921305,0.12243621
1764767605.4854102,-3.6624,0.71722,1.96854,0.979550715,-0.031921305,0.12243621
1764767605.532261,-3.67766,0.93086,1.34288,0.97948968,-0.033630285,0.122008965
1764767605.532261,-3.67766,0.93086,1.34288,0.97948968,-0.033630285,0.122008965
1764767605.532261,-3.67766,0.93086,1.34288,0.97948968,-0.033630285,0.122008965
1764767605.532261,-3.67766,0.93086,1.34288,0.97948968,-0.033630285,0.122008965
1764767605.532261,-3.67766,0.93086,1.34288,0.97948968,-0.033630285,0.122008965
1764767605.532261,-3.67766,0.93086,1.34288,0.97948968,-0.033630285,0.122008965
1764767605.532261,-3.67766,0.93086,1.34288,0.97948968,-0.033630285,0.122008965
1764767605.532261,-3.67766,0.93086,1.34288,0.97948968,-0.033630285,0.122008965
1764767605.532261,-3.67766,0.93086,1.34288,0.97948968,-0.033630285,0.122008965
1764767605.532261,-3.67766,0.93086,1.34288,0.97948968,-0.033630285,0.122008965
1764767605.532261,-3.32668,0.7019599999999999,1.4039199999999998,0.979184505,-0.03478995,0.122375175
1764767605.532261,-3.32668,0.7019599999999999,1.4039199999999998,0.979184505,-0.03478995,0.122375175
1764767605.532261,-3.32668,0.7019599999999999,1.4039199999999998,0.979184505,-0.03478995,0.122375175
1764767605.532261,-3.32668,0.7019599999999999,1.4039199999999998,0.979184505,-0.03478995,0.122375175
1764767605.532261,-3.32668,0.7019599999999999,1.4039199999999998,0.979184505,-0.03478995,0.122375175
1764767605.532261,-3.32668,0.7019599999999999,1.4039199999999998,0.979184505,-0.03478995,0.122375175
1764767605.532261,-3.32668,0.7019599999999999,1.4039199999999998,0.979184505,-0.03478995,0.122375175
1764767605.532261,-3.32668,0.7019599999999999,1.4039199999999998,0.979184505,-0.03478995,0.122375175
1764767605.532261,-3.32668,0.7019599999999999,1.4039199999999998,0.979184505,-0.03478995,0.122375175
1764767605.532261,-3.32668,0.7019599999999999,1.4039199999999998,0.979184505,-0.03478995,0.122375175
1764767605.532261,-3.61662,1.11398,0.57988,0.979184505,-0.035217195,0.122619315
1764767605.532261,-3.61662,1.11398,0.57988,0.979184505,-0.035217195,0.122619315
1764767605.5780966,-3.61662,1.11398,0.57988,0.979184505,-0.035217195,0.122619315
1764767605.5780966,-3.61662,1.11398,0.57988,0.979184505,-0.035217195,0.122619315
1764767605.5780966,-3.61662,1.11398,0.57988,0.979184505,-0.035217195,0.122619315
1764767605.5780966,-3.61662,1.11398,0.57988,0.979184505,-0.035217195,0.122619315
1764767605.5780966,-3.61662,1.11398,0.57988,0.979184505,-0.035217195,0.122619315
1764767605.5780966,-3.61662,1.11398,0.57988,0.979184505,-0.035217195,0.122619315
1764767605.5780966,-3.61662,1.11398,0.57988,0.979184505,-0.035217195,0.122619315
1764767605.5780966,-3.61662,1.11398,0.57988,0.979184505,-0.035217195,0.122619315
1764767605.5780966,-3.26564,1.43444,0.21364,0.979550715,-0.03527823,0.122497245
1764767605.5780966,-3.26564,1.43444,0.21364,0.979550715,-0.03527823,0.122497245
1764767605.5780966,-3.26564,1.43444,0.21364,0.979550715,-0.03527823,0.122497245
1764767605.5780966,-3.26564,1.43444,0.21364,0.979550715,-0.03527823,0.122497245
1764767605.5780966,-3.26564,1.43444,0.21364,0.979550715,-0.03527823,0.122497245
1764767605.5780966,-3.26564,1.43444,0.21364,0.979550715,-0.03527823,0.122497245
1764767605.5780966,-3.26564,1.43444,0.21364,0.979550715,-0.03527823,0.122497245
1764767605.5780966,-3.26564,1.43444,0.21364,0.979550715,-0.03527823,0.122497245
1764767605.5780966,-3.26564,1.43444,0.21364,0.979550715,-0.03527823,0.122497245
1764767605.5780966,-3.26564,1.43444,0.21364,0.979550715,-0.03527823,0.122497245
1764767605.5780966,-3.79974,0.9919,-0.04578,0.979916925,-0.033996495,0.123229665
1764767605.5780966,-3.79974,0.9919,-0.04578,0.979916925,-0.033996495,0.123229665
1764767605.5780966,-3.79974,0.9919,-0.04578,0.979916925,-0.033996495,0.123229665
1764767605.5780966,-3.79974,0.9919,-0.04578,0.979916925,-0.033996495,0.123229665
1764767605.5780966,-3.79974,0.9919,-0.04578,0.979916925,-0.033996495,0.123229665
1764767605.5780966,-3.79974,0.9919,-0.04578,0.979916925,-0.033996495,0.123229665
1764767605.6252725,-3.79974,0.9919,-0.04578,0.979916925,-0.033996495,0.123229665
1764767605.6252725,-3.79974,0.9919,-0.04578,0.979916925,-0.033996495,0.123229665
1764767605.6252725,-3.79974,0.9919,-0.04578,0.979916925,-0.033996495,0.123229665
1764767605.6252725,-3.79974,0.9919,-0.04578,0.979916925,-0.033996495,0.123229665
1764767605.6252725,-4.13546,1.12924,-0.12208,0.979672785,-0.033508215,0.12377898
1764767605.6252725,-4.13546,1.12924,-0.12208,0.979672785,-0.033508215,0.12377898
1764767605.6252725,-4.13546,1.12924,-0.12208,0.979672785,-0.033508215,0.12377898
1764767605.6252725,-4.13546,1.12924,-0.12208,0.979672785,-0.033508215,0.12377898
1764767605.6252725,-4.13546,1.12924,-0.12208,0.979672785,-0.033508215,0.12377898
1764767605.6252725,-4.13546,1.12924,-0.12208,0.979672785,-0.033508215,0.12377898
1764767605.6252725,-4.13546,1.12924,-0.12208,0.979672785,-0.033508215,0.12377898
1764767605.6252725,-4.13546,1.12924,-0.12208,0.979672785,-0.033508215,0.12377898
1764767605.6252725,-4.13546,1.12924,-0.12208,0.979672785,-0.033508215,0.12377898
1764767605.6252725,-4.13546,1.12924,-0.12208,0.979672785,-0.033508215,0.12377898
1764767605.6252725,-3.76922,1.26658,0.09156,0.979428645,-0.03271476,0.12402312
1764767605.6262844,-3.76922,1.26658,0.09156,0.979428645,-0.03271476,0.12402312
1764767605.6262844,-3.76922,1.26658,0.09156,0.979428645,-0.03271476,0.12402312
1764767605.6262844,-3.76922,1.26658,0.09156,0.979428645,-0.03271476,0.12402312
1764767605.6262844,-3.76922,1.26658,0.09156,0.979428645,-0.03271476,0.12402312
1764767605.6262844,-3.76922,1.26658,0.09156,0.979428645,-0.03271476,0.12402312
1764767605.6262844,-3.76922,1.26658,0.09156,0.979428645,-0.03271476,0.12402312
1764767605.6262844,-3.76922,1.26658,0.09156,0.979428645,-0.03271476,0.12402312
1764767605.6262844,-3.76922,1.26658,0.09156,0.979428645,-0.03271476,0.12402312
1764767605.6262844,-3.76922,1.26658,0.09156,0.979428645,-0.03271476,0.12402312
1764767605.6722572,-4.31858,0.73248,0.44254,0.97863519,-0.03259269,0.124084155
1764767605.6722572,-4.31858,0.73248,0.44254,0.97863519,-0.03259269,0.124084155
1764767605.6722572,-4.31858,0.73248,0.44254,0.97863519,-0.03259269,0.124084155
1764767605.6722572,-4.31858,0.73248,0.44254,0.97863519,-0.03259269,0.124084155
1764767605.6722572,-4.31858,0.73248,0.44254,0.97863519,-0.03259269,0.124084155
1764767605.6722572,-4.31858,0.73248,0.44254,0.97863519,-0.03259269,0.124084155
1764767605.6722572,-4.31858,0.73248,0.44254,0.97863519,-0.03259269,0.124084155
1764767605.6722572,-4.31858,0.73248,0.44254,0.97863519,-0.03259269,0.124084155
1764767605.6722572,-4.31858,0.73248,0.44254,0.97863519,-0.03259269,0.124084155
1764767605.6722572,-4.31858,0.73248,0.44254,0.97863519,-0.03259269,0.124084155
1764767605.6722572,-3.8913,0.88508,0.25942,0.97851312,-0.03149406,0.12475554
1764767605.6722572,-3.8913,0.88508,0.25942,0.97851312,-0.03149406,0.12475554
1764767605.6722572,-3.8913,0.88508,0.25942,0.97851312,-0.03149406,0.12475554
1764767605.6722572,-3.8913,0.88508,0.25942,0.97851312,-0.03149406,0.12475554
1764767605.6722572,-3.8913,0.88508,0.25942,0.97851312,-0.03149406,0.12475554
1764767605.6722572,-3.8913,0.88508,0.25942,0.97851312,-0.03149406,0.12475554
1764767605.6722572,-3.8913,0.88508,0.25942,0.97851312,-0.03149406,0.12475554
1764767605.6722572,-3.8913,0.88508,0.25942,0.97851312,-0.03149406,0.12475554
1764767605.6722572,-3.8913,0.88508,0.25942,0.97851312,-0.03149406,0.12475554
1764767605.6732805,-3.8913,0.88508,0.25942,0.97851312,-0.03149406,0.12475554
1764767605.6732805,-3.9676,0.6867,0.36624,0.978818295,-0.031799235,0.124938645
1764767605.6732805,-3.9676,0.6867,0.36624,0.978818295,-0.031799235,0.124938645
1764767605.6732805,-3.9676,0.6867,0.36624,0.978818295,-0.031799235,0.124938645
1764767605.6732805,-3.9676,0.6867,0.36624,0.978818295,-0.031799235,0.124938645
1764767605.7187726,-3.9676,0.6867,0.36624,0.978818295,-0.031799235,0.124938645
1764767605.7187726,-3.9676,0.6867,0.36624,0.978818295,-0.031799235,0.124938645
1764767605.7197828,-3.9676,0.6867,0.36624,0.978818295,-0.031799235,0.124938645
1764767605.7197828,-3.9676,0.6867,0.36624,0.978818295,-0.031799235,0.124938645
1764767605.7197828,-3.9676,0.6867,0.36624,0.978818295,-0.031799235,0.124938645
1764767605.7197828,-3.9676,0.6867,0.36624,0.978818295,-0.031799235,0.124938645
1764767605.7197828,-4.21176,0.8698199999999999,0.73248,0.97851312,-0.031433025,0.12499968
1764767605.7197828,-4.21176,0.8698199999999999,0.73248,0.97851312,-0.031433025,0.12499968
1764767605.7197828,-4.21176,0.8698199999999999,0.73248,0.97851312,-0.031433025,0.12499968
1764767605.7197828,-4.21176,0.8698199999999999,0.73248,0.97851312,-0.031433025,0.12499968
1764767605.7197828,-4.21176,0.8698199999999999,0.73248,0.97851312,-0.031433025,0.12499968
1764767605.7197828,-4.21176,0.8698199999999999,0.73248,0.97851312,-0.031433025,0.12499968
1764767605.7197828,-4.21176,0.8698199999999999,0.73248,0.97851312,-0.031433025,0.12499968
1764767605.7197828,-4.21176,0.8698199999999999,0.73248,0.97851312,-0.031433025,0.12499968
1764767605.7197828,-4.21176,0.8698199999999999,0.73248,0.97851312,-0.031433025,0.12499968
1764767605.7197828,-4.21176,0.8698199999999999,0.73248,0.97851312,-0.031433025,0.12499968
1764767605.7197828,-3.8913,1.02242,0.73248,0.978452085,-0.031188885,0.124816575
1764767605.7197828,-3.8913,1.02242,0.73248,0.978452085,-0.031188885,0.124816575
1764767605.7197828,-3.8913,1.02242,0.73248,0.978452085,-0.031188885,0.124816575
1764767605.7197828,-3.8913,1.02242,0.73248,0.978452085,-0.031188885,0.124816575
1764767605.7197828,-3.8913,1.02242,0.73248,0.978452085,-0.031188885,0.124816575
1764767605.7197828,-3.8913,1.02242,0.73248,0.978452085,-0.031188885,0.124816575
1764767605.76179,-3.8913,1.02242,0.73248,0.978452085,-0.031188885,0.124816575
1764767605.76179,-3.8913,1.02242,0.73248,0.978452085,-0.031188885,0.124816575
1764767605.76179,-3.8913,1.02242,0.73248,0.978452085,-0.031188885,0.124816575
1764767605.76179,-3.8913,1.02242,0.73248,0.978452085,-0.031188885,0.124816575
1764767605.76179,-3.7387,1.00716,1.2055399999999998,0.978574155,-0.031799235,0.125060715
1764767605.76179,-3.7387,1.00716,1.2055399999999998,0.978574155,-0.031799235,0.125060715
1764767605.76179,-3.7387,1.00716,1.2055399999999998,0.978574155,-0.031799235,0.125060715
1764767605.76179,-3.7387,1.00716,1.2055399999999998,0.978574155,-0.031799235,0.125060715
1764767605.76179,-3.7387,1.00716,1.2055399999999998,0.978574155,-0.031799235,0.125060715
1764767605.76179,-3.7387,1.00716,1.2055399999999998,0.978574155,-0.031799235,0.125060715
1764767605.76179,-3.7387,1.00716,1.2055399999999998,0.978574155,-0.031799235,0.125060715
1764767605.76179,-3.7387,1.00716,1.2055399999999998,0.978574155,-0.031799235,0.125060715
1764767605.7632563,-3.7387,1.00716,1.2055399999999998,0.978574155,-0.031799235,0.125060715
1764767605.7632563,-3.7387,1.00716,1.2055399999999998,0.978574155,-0.031799235,0.125060715
1764767605.7632563,-3.61662,1.25132,1.08346,0.979062435,-0.03210441,0.12561003
1764767605.7632563,-3.61662,1.25132,1.08346,0.979062435,-0.03210441,0.12561003
1764767605.7632563,-3.61662,1.25132,1.08346,0.979062435,-0.03210441,0.12561003
1764767605.7632563,-3.61662,1.25132,1.08346,0.979062435,-0.03210441,0.12561003
1764767605.7632563,-3.61662,1.25132,1.08346,0.979062435,-0.03210441,0.12561003
1764767605.7632563,-3.61662,1.25132,1.08346,0.979062435,-0.03210441,0.12561003
1764767605.7632563,-3.61662,1.25132,1.08346,0.979062435,-0.03210441,0.12561003
1764767605.7632563,-3.61662,1.25132,1.08346,0.979062435,-0.03210441,0.12561003
1764767605.8103845,-3.61662,1.25132,1.08346,0.979062435,-0.03210441,0.12561003
1764767605.8103845,-3.61662,1.25132,1.08346,0.979062435,-0.03210441,0.12561003
1764767605.8103845,-3.25038,1.11398,0.77826,0.97887933,-0.03247062,0.125182785
1764767605.8103845,-3.25038,1.11398,0.77826,0.97887933,-0.03247062,0.125182785
1764767605.8103845,-3.25038,1.11398,0.77826,0.97887933,-0.03247062,0.125182785
1764767605.8103845,-3.25038,1.11398,0.77826,0.97887933,-0.03247062,0.125182785
1764767605.8103845,-3.25038,1.11398,0.77826,0.97887933,-0.03247062,0.125182785
1764767605.8103845,-3.25038,1.11398,0.77826,0.97887933,-0.03247062,0.125182785
1764767605.8103845,-3.25038,1.11398,0.77826,0.97887933,-0.03247062,0.125182785
1764767605.8103845,-3.25038,1.11398,0.77826,0.97887933,-0.03247062,0.125182785
1764767605.8103845,-3.25038,1.11398,0.77826,0.97887933,-0.03247062,0.125182785
1764767605.8103845,-3.25038,1.11398,0.77826,0.97887933,-0.03247062,0.125182785
1764767605.8103845,-3.08252,0.763,1.08346,0.97875726,-0.033142005,0.12499968
1764767605.8103845,-3.08252,0.763,1.08346,0.97875726,-0.033142005,0.12499968
1764767605.8103845,-3.08252,0.763,1.08346,0.97875726,-0.033142005,0.12499968
1764767605.8103845,-3.08252,0.763,1.08346,0.97875726,-0.033142005,0.12499968
1764767605.8103845,-3.08252,0.763,1.08346,0.97875726,-0.033142005,0.12499968
1764767605.8103845,-3.08252,0.763,1.08346,0.97875726,-0.033142005,0.12499968
1764767605.8103845,-3.08252,0.763,1.08346,0.97875726,-0.033142005,0.12499968
1764767605.8103845,-3.08252,0.763,1.08346,0.97875726,-0.033142005,0.12499968
1764767605.8103845,-3.08252,0.763,1.08346,0.97875726,-0.033142005,0.12499968
1764767605.8103845,-3.08252,0.763,1.08346,0.97875726,-0.033142005,0.12499968
1764767605.8103845,-3.46402,1.0682,0.56462,0.97912347,-0.032897865,0.124572435
1764767605.8103845,-3.46402,1.0682,0.56462,0.97912347,-0.032897865,0.124572435
1764767605.8573046,-3.46402,1.0682,0.56462,0.97912347,-0.032897865,0.124572435
1764767605.8573046,-3.46402,1.0682,0.56462,0.97912347,-0.032897865,0.124572435
1764767605.8573046,-3.46402,1.0682,0.56462,0.97912347,-0.032897865,0.124572435
1764767605.8573046,-3.46402,1.0682,0.56462,0.97912347,-0.032897865,0.124572435
1764767605.8573046,-3.46402,1.0682,0.56462,0.97912347,-0.032897865,0.124572435
1764767605.8573046,-3.46402,1.0682,0.56462,0.97912347,-0.032897865,0.124572435
1764767605.8573046,-3.46402,1.0682,0.56462,0.97912347,-0.032897865,0.124572435
1764767605.8573046,-3.46402,1.0682,0.56462,0.97912347,-0.032897865,0.124572435
1764767605.8573046,-3.41824,0.8698199999999999,0.51884,0.979306575,-0.03234855,0.12512175
1764767605.8573046,-3.41824,0.8698199999999999,0.51884,0.979306575,-0.03234855,0.12512175
1764767605.8583128,-3.41824,0.8698199999999999,0.51884,0.979306575,-0.03234855,0.12512175
1764767605.8583128,-3.41824,0.8698199999999999,0.51884,0.979306575,-0.03234855,0.12512175
1764767605.8583128,-3.41824,0.8698199999999999,0.51884,0.979306575,-0.03234855,0.12512175
1764767605.8583128,-3.41824,0.8698199999999999,0.51884,0.979306575,-0.03234855,0.12512175
1764767605.8583128,-3.41824,0.8698199999999999,0.51884,0.979306575,-0.03234855,0.12512175
1764767605.8583128,-3.41824,0.8698199999999999,0.51884,0.979306575,-0.03234855,0.12512175
1764767605.8583128,-3.41824,0.8698199999999999,0.51884,0.979306575,-0.03234855,0.12512175
1764767605.8583128,-3.41824,0.8698199999999999,0.51884,0.979306575,-0.03234855,0.12512175
1764767605.8583128,-3.47928,1.0682,1.00716,0.9790014,-0.03259269,0.125182785
1764767605.8583128,-3.47928,1.0682,1.00716,0.9790014,-0.03259269,0.125182785
1764767605.8583128,-3.47928,1.0682,1.00716,0.9790014,-0.03259269,0.125182785
1764767605.8583128,-3.47928,1.0682,1.00716,0.9790014,-0.03259269,0.125182785
1764767605.8583128,-3.47928,1.0682,1.00716,0.9790014,-0.03259269,0.125182785
1764767605.8583128,-3.47928,1.0682,1.00716,0.9790014,-0.03259269,0.125182785
1764767605.9055357,-3.47928,1.0682,1.00716,0.9790014,-0.03259269,0.125182785
1764767605.9055357,-3.47928,1.0682,1.00716,0.9790014,-0.03259269,0.125182785
1764767605.9055357,-3.47928,1.0682,1.00716,0.9790014,-0.03259269,0.125182785
1764767605.9055357,-3.47928,1.0682,1.00716,0.9790014,-0.03259269,0.125182785
1764767605.9055357,-3.92182,0.9003399999999999,1.32762,0.977963805,-0.03222648,0.124694505
1764767605.9055357,-3.92182,0.9003399999999999,1.32762,0.977963805,-0.03222648,0.124694505
1764767605.9055357,-3.92182,0.9003399999999999,1.32762,0.977963805,-0.03222648,0.124694505
1764767605.9055357,-3.92182,0.9003399999999999,1.32762,0.977963805,-0.03222648,0.124694505
1764767605.9055357,-3.92182,0.9003399999999999,1.32762,0.977963805,-0.03222648,0.124694505
1764767605.9055357,-3.92182,0.9003399999999999,1.32762,0.977963805,-0.03222648,0.124694505
1764767605.9055357,-3.92182,0.9003399999999999,1.32762,0.977963805,-0.03222648,0.124694505
1764767605.9055357,-3.92182,0.9003399999999999,1.32762,0.977963805,-0.03222648,0.124694505
1764767605.9055357,-3.92182,0.9003399999999999,1.32762,0.977963805,-0.03222648,0.124694505
1764767605.9055357,-3.92182,0.9003399999999999,1.32762,0.977963805,-0.03222648,0.124694505
1764767605.9055357,-4.25754,0.9919,0.93086,0.979062435,-0.031677165,0.124572435
1764767605.9058435,-4.25754,0.9919,0.93086,0.979062435,-0.031677165,0.124572435
1764767605.9058435,-4.25754,0.9919,0.93086,0.979062435,-0.031677165,0.124572435
1764767605.9058435,-4.25754,0.9919,0.93086,0.979062435,-0.031677165,0.124572435
1764767605.9058435,-4.25754,0.9919,0.93086,0.979062435,-0.031677165,0.124572435
1764767605.9058435,-4.25754,0.9919,0.93086,0.979062435,-0.031677165,0.124572435
1764767605.9058435,-4.25754,0.9919,0.93086,0.979062435,-0.031677165,0.124572435
1764767605.9058435,-4.25754,0.9919,0.93086,0.979062435,-0.031677165,0.124572435
1764767605.9482963,-4.25754,0.9919,0.93086,0.979062435,-0.031677165,0.124572435
1764767605.9482963,-4.25754,0.9919,0.93086,0.979062435,-0.031677165,0.124572435
1764767605.9482963,-4.16598,0.62566,0.9919,0.978940365,-0.03161613,0.1245114
1764767605.9482963,-4.16598,0.62566,0.9919,0.978940365,-0.03161613,0.1245114
1764767605.9482963,-4.16598,0.62566,0.9919,0.978940365,-0.03161613,0.1245114
1764767605.9482963,-4.16598,0.62566,0.9919,0.978940365,-0.03161613,0.1245114
1764767605.9482963,-4.16598,0.62566,0.9919,0.978940365,-0.03161613,0.1245114
1764767605.9482963,-4.16598,0.62566,0.9919,0.978940365,-0.03161613,0.1245114
1764767605.9482963,-4.16598,0.62566,0.9919,0.978940365,-0.03161613,0.1245114
1764767605.9482963,-4.16598,0.62566,0.9919,0.978940365,-0.03161613,0.1245114
1764767605.9482963,-4.16598,0.62566,0.9919,0.978940365,-0.03161613,0.1245114
1764767605.948814,-4.16598,0.62566,0.9919,0.978940365,-0.03161613,0.1245114
1764767605.948814,-3.98286,1.09872,0.7019599999999999,0.978940365,-0.032775795,0.124206225
1764767605.948814,-3.98286,1.09872,0.7019599999999999,0.978940365,-0.032775795,0.124206225
1764767605.948814,-3.98286,1.09872,0.7019599999999999,0.978940365,-0.032775795,0.124206225
1764767605.948814,-3.98286,1.09872,0.7019599999999999,0.978940365,-0.032775795,0.124206225
1764767605.948814,-3.98286,1.09872,0.7019599999999999,0.978940365,-0.032775795,0.124206225
1764767605.948814,-3.98286,1.09872,0.7019599999999999,0.978940365,-0.032775795,0.124206225
1764767605.948814,-3.98286,1.09872,0.7019599999999999,0.978940365,-0.032775795,0.124206225
1764767605.948814,-3.98286,1.09872,0.7019599999999999,0.978940365,-0.032775795,0.124206225
1764767605.948814,-3.98286,1.09872,0.7019599999999999,0.978940365,-0.032775795,0.124206225
1764767605.948814,-3.98286,1.09872,0.7019599999999999,0.978940365,-0.032775795,0.124206225
1764767605.948814,-0.04578,0.77826,1.15976,0.978452085,-0.033508215,0.12426726
1764767605.948814,-0.04578,0.77826,1.15976,0.978452085,-0.033508215,0.12426726
1764767605.9946835,-0.04578,0.77826,1.15976,0.978452085,-0.033508215,0.12426726
1764767605.9946835,-0.04578,0.77826,1.15976,0.978452085,-0.033508215,0.12426726
1764767605.9946835,-0.04578,0.77826,1.15976,0.978452085,-0.033508215,0.12426726
1764767605.9946835,-0.04578,0.77826,1.15976,0.978452085,-0.033508215,0.12426726
1764767605.9946835,-0.04578,0.77826,1.15976,0.978452085,-0.033508215,0.12426726
1764767605.9946835,-0.04578,0.77826,1.15976,0.978452085,-0.033508215,0.12426726
1764767605.995196,-0.04578,0.77826,1.15976,0.978452085,-0.033508215,0.12426726
1764767605.995196,-0.04578,0.77826,1.15976,0.978452085,-0.033508215,0.12426726
1764767605.995196,-3.60136,0.88508,0.97664,0.97753656,-0.033630285,0.123840015
1764767605.995196,-3.60136,0.88508,0.97664,0.97753656,-0.033630285,0.123840015
1764767605.995196,-3.60136,0.88508,0.97664,0.97753656,-0.033630285,0.123840015
1764767605.995196,-3.60136,0.88508,0.97664,0.97753656,-0.033630285,0.123840015
1764767605.995196,-3.60136,0.88508,0.97664,0.97753656,-0.033630285,0.123840015
1764767605.995196,-3.60136,0.88508,0.97664,0.97753656,-0.033630285,0.123840015
1764767605.995196,-3.60136,0.88508,0.97664,0.97753656,-0.033630285,0.123840015
1764767605.995196,-3.60136,0.88508,0.97664,0.97753656,-0.033630285,0.123840015
1764767605.995196,-3.60136,0.88508,0.97664,0.97753656,-0.033630285,0.123840015
1764767605.995196,-3.60136,0.88508,0.97664,0.97753656,-0.033630285,0.123840015
1764767605.995196,-3.815,0.9156,0.8392999999999999,0.97741449,-0.033386145,0.123962085
1764767605.995196,-3.815,0.9156,0.8392999999999999,0.97741449,-0.033386145,0.123962085
1764767605.995196,-3.815,0.9156,0.8392999999999999,0.97741449,-0.033386145,0.123962085
1764767605.995196,-3.815,0.9156,0.8392999999999999,0.97741449,-0.033386145,0.123962085
1764767605.995196,-3.815,0.9156,0.8392999999999999,0.97741449,-0.033386145,0.123962085
1764767605.995196,-3.815,0.9156,0.8392999999999999,0.97741449,-0.033386145,0.123962085
1764767606.041727,-3.815,0.9156,0.8392999999999999,0.97741449,-0.033386145,0.123962085
1764767606.041727,-3.815,0.9156,0.8392999999999999,0.97741449,-0.033386145,0.123962085
1764767606.041727,-3.815,0.9156,0.8392999999999999,0.97741449,-0.033386145,0.123962085
1764767606.041727,-3.815,0.9156,0.8392999999999999,0.97741449,-0.033386145,0.123962085
1764767606.041727,-4.01338,0.8392999999999999,0.85456,0.978574155,-0.03332511,0.12426726
1764767606.041727,-4.01338,0.8392999999999999,0.85456,0.978574155,-0.03332511,0.12426726
1764767606.0422409,-4.01338,0.8392999999999999,0.85456,0.978574155,-0.03332511,0.12426726
1764767606.0422409,-4.01338,0.8392999999999999,0.85456,0.978574155,-0.03332511,0.12426726
1764767606.0422409,-4.01338,0.8392999999999999,0.85456,0.978574155,-0.03332511,0.12426726
1764767606.0422409,-4.01338,0.8392999999999999,0.85456,0.978574155,-0.03332511,0.12426726
1764767606.0422409,-4.01338,0.8392999999999999,0.85456,0.978574155,-0.03332511,0.12426726
1764767606.0422409,-4.01338,0.8392999999999999,0.85456,0.978574155,-0.03332511,0.12426726
1764767606.0422409,-4.01338,0.8392999999999999,0.85456,0.978574155,-0.03332511,0.12426726
1764767606.0422409,-4.01338,0.8392999999999999,0.85456,0.978574155,-0.03332511,0.12426726
1764767606.0422409,-4.0439,1.12924,1.0682,0.979916925,-0.034362705,0.124084155
1764767606.0422409,-4.0439,1.12924,1.0682,0.979916925,-0.034362705,0.124084155
1764767606.0422409,-4.0439,1.12924,1.0682,0.979916925,-0.034362705,0.124084155
1764767606.0422409,-4.0439,1.12924,1.0682,0.979916925,-0.034362705,0.124084155
1764767606.0422409,-4.0439,1.12924,1.0682,0.979916925,-0.034362705,0.124084155
1764767606.0422409,-4.0439,1.12924,1.0682,0.979916925,-0.034362705,0.124084155
1764767606.0422409,-4.0439,1.12924,1.0682,0.979916925,-0.034362705,0.124084155
1764767606.0422409,-4.0439,1.12924,1.0682,0.979916925,-0.034362705,0.124084155
1764767606.088616,-4.0439,1.12924,1.0682,0.979916925,-0.034362705,0.124084155
1764767606.088616,-4.0439,1.12924,1.0682,0.979916925,-0.034362705,0.124084155
1764767606.088616,-3.55558,0.47306,1.61756,0.97741449,-0.03527823,0.124084155
1764767606.0891235,-3.55558,0.47306,1.61756,0.97741449,-0.03527823,0.124084155
1764767606.0891235,-3.55558,0.47306,1.61756,0.97741449,-0.03527823,0.124084155
1764767606.0891235,-3.55558,0.47306,1.61756,0.97741449,-0.03527823,0.124084155
1764767606.0891235,-3.55558,0.47306,1.61756,0.97741449,-0.03527823,0.124084155
1764767606.0891235,-3.55558,0.47306,1.61756,0.97741449,-0.03527823,0.124084155
1764767606.0891235,-3.55558,0.47306,1.61756,0.97741449,-0.03527823,0.124084155
1764767606.0891235,-3.55558,0.47306,1.61756,0.97741449,-0.03527823,0.124084155
1764767606.0891235,-3.55558,0.47306,1.61756,0.97741449,-0.03527823,0.124084155
1764767606.0891235,-3.55558,0.47306,1.61756,0.97741449,-0.03527823,0.124084155
1764767606.0891235,-3.1283,-0.73248,1.17502,0.97875726,-0.036437895,0.123840015
1764767606.0891235,-3.1283,-0.73248,1.17502,0.97875726,-0.036437895,0.123840015
1764767606.0891235,-3.1283,-0.73248,1.17502,0.97875726,-0.036437895,0.123840015
1764767606.0891235,-3.1283,-0.73248,1.17502,0.97875726,-0.036437895,0.123840015
1764767606.0891235,-3.1283,-0.73248,1.17502,0.97875726,-0.036437895,0.123840015
1764767606.0891235,-3.1283,-0.73248,1.17502,0.97875726,-0.036437895,0.123840015
1764767606.0901308,-3.1283,-0.73248,1.17502,0.97875726,-0.036437895,0.123840015
1764767606.0901308,-3.1283,-0.73248,1.17502,0.97875726,-0.036437895,0.123840015
1764767606.0901308,-3.1283,-0.73248,1.17502,0.97875726,-0.036437895,0.123840015
1764767606.0901308,-3.1283,-0.73248,1.17502,0.97875726,-0.036437895,0.123840015
1764767606.0901308,-3.15882,0.6103999999999999,0.04578,0.98107659,-0.03491202,0.12341277
1764767606.0901308,-3.15882,0.6103999999999999,0.04578,0.98107659,-0.03491202,0.12341277
1764767606.1366234,-3.15882,0.6103999999999999,0.04578,0.98107659,-0.03491202,0.12341277
1764767606.1366234,-3.15882,0.6103999999999999,0.04578,0.98107659,-0.03491202,0.12341277
1764767606.1366234,-3.15882,0.6103999999999999,0.04578,0.98107659,-0.03491202,0.12341277
1764767606.1366234,-3.15882,0.6103999999999999,0.04578,0.98107659,-0.03491202,0.12341277
1764767606.1366234,-3.15882,0.6103999999999999,0.04578,0.98107659,-0.03491202,0.12341277
1764767606.1366234,-3.15882,0.6103999999999999,0.04578,0.98107659,-0.03491202,0.12341277
1764767606.1366234,-3.15882,0.6103999999999999,0.04578,0.98107659,-0.03491202,0.12341277
1764767606.1366234,-3.15882,0.6103999999999999,0.04578,0.98107659,-0.03491202,0.12341277
1764767606.1366234,-3.26564,1.12924,-0.13734,0.980893485,-0.033874425,0.12353484
1764767606.1366234,-3.26564,1.12924,-0.13734,0.980893485,-0.033874425,0.12353484
1764767606.1366234,-3.26564,1.12924,-0.13734,0.980893485,-0.033874425,0.12353484
1764767606.1366234,-3.26564,1.12924,-0.13734,0.980893485,-0.033874425,0.12353484
1764767606.1366234,-3.26564,1.12924,-0.13734,0.980893485,-0.033874425,0.12353484
1764767606.1366234,-3.26564,1.12924,-0.13734,0.980893485,-0.033874425,0.12353484
1764767606.1366234,-3.26564,1.12924,-0.13734,0.980893485,-0.033874425,0.12353484
1764767606.1366234,-3.26564,1.12924,-0.13734,0.980893485,-0.033874425,0.12353484
1764767606.1366234,-3.26564,1.12924,-0.13734,0.980893485,-0.033874425,0.12353484
1764767606.1366234,-3.26564,1.12924,-0.13734,0.980893485,-0.033874425,0.12353484
1764767606.1366234,-3.60136,1.19028,-0.44254,0.97887933,-0.0317382,0.123595875
1764767606.1376412,-3.60136,1.19028,-0.44254,0.97887933,-0.0317382,0.123595875
1764767606.1376412,-3.60136,1.19028,-0.44254,0.97887933,-0.0317382,0.123595875
1764767606.1376412,-3.60136,1.19028,-0.44254,0.97887933,-0.0317382,0.123595875
1764767606.1376412,-3.60136,1.19028,-0.44254,0.97887933,-0.0317382,0.123595875
1764767606.1376412,-3.60136,1.19028,-0.44254,0.97887933,-0.0317382,0.123595875
1764767606.1830847,-3.60136,1.19028,-0.44254,0.97887933,-0.0317382,0.123595875
1764767606.1830847,-3.60136,1.19028,-0.44254,0.97887933,-0.0317382,0.123595875
1764767606.1830847,-3.60136,1.19028,-0.44254,0.97887933,-0.0317382,0.123595875
1764767606.1830847,-3.60136,1.19028,-0.44254,0.97887933,-0.0317382,0.123595875
1764767606.1830847,-3.90656,0.9156,-0.6867,0.978574155,-0.02990715,0.124206225
1764767606.1830847,-3.90656,0.9156,-0.6867,0.978574155,-0.02990715,0.124206225
1764767606.1830847,-3.90656,0.9156,-0.6867,0.978574155,-0.02990715,0.124206225
1764767606.1830847,-3.90656,0.9156,-0.6867,0.978574155,-0.02990715,0.124206225
1764767606.1830847,-3.90656,0.9156,-0.6867,0.978574155,-0.02990715,0.124206225
1764767606.1830847,-3.90656,0.9156,-0.6867,0.978574155,-0.02990715,0.124206225
1764767606.1830847,-3.90656,0.9156,-0.6867,0.978574155,-0.02990715,0.124206225
1764767606.1830847,-3.90656,0.9156,-0.6867,0.978574155,-0.02990715,0.124206225
1764767606.1830847,-3.90656,0.9156,-0.6867,0.978574155,-0.02990715,0.124206225
1764767606.1830847,-3.90656,0.9156,-0.6867,0.978574155,-0.02990715,0.124206225
1764767606.1830847,-4.53222,1.2055399999999998,-0.19838,0.979184505,-0.029357835,0.12475554
1764767606.1830847,-4.53222,1.2055399999999998,-0.19838,0.979184505,-0.029357835,0.12475554
1764767606.1830847,-4.53222,1.2055399999999998,-0.19838,0.979184505,-0.029357835,0.12475554
1764767606.1830847,-4.53222,1.2055399999999998,-0.19838,0.979184505,-0.029357835,0.12475554
1764767606.1830847,-4.53222,1.2055399999999998,-0.19838,0.979184505,-0.029357835,0.12475554
1764767606.1830847,-4.53222,1.2055399999999998,-0.19838,0.979184505,-0.029357835,0.12475554
1764767606.1830847,-4.53222,1.2055399999999998,-0.19838,0.979184505,-0.029357835,0.12475554
1764767606.1830847,-4.53222,1.2055399999999998,-0.19838,0.979184505,-0.029357835,0.12475554
1764767606.2288218,-4.53222,1.2055399999999998,-0.19838,0.979184505,-0.029357835,0.12475554
1764767606.2288218,-4.53222,1.2055399999999998,-0.19838,0.979184505,-0.029357835,0.12475554
1764767606.2288218,-4.74586,1.19028,0.65618,0.9790014,-0.02954094,0.125548995
1764767606.2288218,-4.74586,1.19028,0.65618,0.9790014,-0.02954094,0.125548995
1764767606.2288218,-4.74586,1.19028,0.65618,0.9790014,-0.02954094,0.125548995
1764767606.229839,-4.74586,1.19028,0.65618,0.9790014,-0.02954094,0.125548995
1764767606.229839,-4.74586,1.19028,0.65618,0.9790014,-0.02954094,0.125548995
1764767606.229839,-4.74586,1.19028,0.65618,0.9790014,-0.02954094,0.125548995
1764767606.229839,-4.74586,1.19028,0.65618,0.9790014,-0.02954094,0.125548995
1764767606.229839,-4.74586,1.19028,0.65618,0.9790014,-0.02954094,0.125548995
1764767606.229839,-4.74586,1.19028,0.65618,0.9790014,-0.02954094,0.125548995
1764767606.229839,-4.74586,1.19028,0.65618,0.9790014,-0.02954094,0.125548995
1764767606.229839,-4.31858,0.6714399999999999,0.59514,0.97924554,-0.028869555,0.125426925
1764767606.229839,-4.31858,0.6714399999999999,0.59514,0.97924554,-0.028869555,0.125426925
1764767606.230842,-4.31858,0.6714399999999999,0.59514,0.97924554,-0.028869555,0.125426925
1764767606.230842,-4.31858,0.6714399999999999,0.59514,0.97924554,-0.028869555,0.125426925
1764767606.230842,-4.31858,0.6714399999999999,0.59514,0.97924554,-0.028869555,0.125426925
1764767606.230842,-4.31858,0.6714399999999999,0.59514,0.97924554,-0.028869555,0.125426925
1764767606.230842,-4.31858,0.6714399999999999,0.59514,0.97924554,-0.028869555,0.125426925
1764767606.230842,-4.31858,0.6714399999999999,0.59514,0.97924554,-0.028869555,0.125426925
1764767606.230842,-4.31858,0.6714399999999999,0.59514,0.97924554,-0.028869555,0.125426925
1764767606.230842,-4.31858,0.6714399999999999,0.59514,0.97924554,-0.028869555,0.125426925
1764767606.230842,-4.15072,0.44254,0.88508,0.97924554,-0.03027336,0.12487761
1764767606.230842,-4.15072,0.44254,0.88508,0.97924554,-0.03027336,0.12487761
1764767606.277448,-4.15072,0.44254,0.88508,0.97924554,-0.03027336,0.12487761
1764767606.277448,-4.15072,0.44254,0.88508,0.97924554,-0.03027336,0.12487761
1764767606.277448,-4.15072,0.44254,0.88508,0.97924554,-0.03027336,0.12487761
1764767606.277448,-4.15072,0.44254,0.88508,0.97924554,-0.03027336,0.12487761
1764767606.277448,-4.15072,0.44254,0.88508,0.97924554,-0.03027336,0.12487761
1764767606.277448,-4.15072,0.44254,0.88508,0.97924554,-0.03027336,0.12487761
1764767606.277448,-4.15072,0.44254,0.88508,0.97924554,-0.03027336,0.12487761
1764767606.277448,-4.15072,0.44254,0.88508,0.97924554,-0.03027336,0.12487761
1764767606.277448,-3.92182,0.09156,1.09872,0.97924554,-0.031433025,0.125060715
1764767606.277448,-3.92182,0.09156,1.09872,0.97924554,-0.031433025,0.125060715
1764767606.277448,-3.92182,0.09156,1.09872,0.97924554,-0.031433025,0.125060715
1764767606.277448,-3.92182,0.09156,1.09872,0.97924554,-0.031433025,0.125060715
1764767606.277448,-3.92182,0.09156,1.09872,0.97924554,-0.031433025,0.125060715
1764767606.277448,-3.92182,0.09156,1.09872,0.97924554,-0.031433025,0.125060715
1764767606.277448,-3.92182,0.09156,1.09872,0.97924554,-0.031433025,0.125060715
1764767606.277448,-3.92182,0.09156,1.09872,0.97924554,-0.031433025,0.125060715
1764767606.277448,-3.92182,0.09156,1.09872,0.97924554,-0.031433025,0.125060715
1764767606.277448,-3.92182,0.09156,1.09872,0.97924554,-0.031433025,0.125060715
1764767606.277448,-3.69292,-0.27468,1.11398,0.97912347,-0.031677165,0.125426925
1764767606.277448,-3.69292,-0.27468,1.11398,0.97912347,-0.031677165,0.125426925
1764767606.277448,-3.69292,-0.27468,1.11398,0.97912347,-0.031677165,0.125426925
1764767606.277448,-3.69292,-0.27468,1.11398,0.97912347,-0.031677165,0.125426925
1764767606.3239386,-3.69292,-0.27468,1.11398,0.97912347,-0.031677165,0.125426925
1764767606.3239386,-3.69292,-0.27468,1.11398,0.97912347,-0.031677165,0.125426925
1764767606.3239386,-3.69292,-0.27468,1.11398,0.97912347,-0.031677165,0.125426925
1764767606.3239386,-3.69292,-0.27468,1.11398,0.97912347,-0.031677165,0.125426925
1764767606.3239386,-3.69292,-0.27468,1.11398,0.97912347,-0.031677165,0.125426925
1764767606.3239386,-3.69292,-0.27468,1.11398,0.97912347,-0.031677165,0.125426925
1764767606.3239386,-3.90656,-0.3051999999999999,1.57178,0.97985589,-0.03100578,0.12402312
1764767606.3239386,-3.90656,-0.3051999999999999,1.57178,0.97985589,-0.03100578,0.12402312
1764767606.3239386,-3.90656,-0.3051999999999999,1.57178,0.97985589,-0.03100578,0.12402312
1764767606.3239386,-3.90656,-0.3051999999999999,1.57178,0.97985589,-0.03100578,0.12402312
1764767606.3239386,-3.90656,-0.3051999999999999,1.57178,0.97985589,-0.03100578,0.12402312
1764767606.3239386,-3.90656,-0.3051999999999999,1.57178,0.97985589,-0.03100578,0.12402312
1764767606.3239386,-3.90656,-0.3051999999999999,1.57178,0.97985589,-0.03100578,0.12402312
1764767606.3239386,-3.90656,-0.3051999999999999,1.57178,0.97985589,-0.03100578,0.12402312
1764767606.3239386,-3.90656,-0.3051999999999999,1.57178,0.97985589,-0.03100578,0.12402312
1764767606.3239386,-3.90656,-0.3051999999999999,1.57178,0.97985589,-0.03100578,0.12402312
1764767606.3239386,-3.57084,0.1678599999999999,1.51074,0.979672785,-0.03112785,0.12280242
1764767606.3239386,-3.57084,0.1678599999999999,1.51074,0.979672785,-0.03112785,0.12280242
1764767606.3239386,-3.57084,0.1678599999999999,1.51074,0.979672785,-0.03112785,0.12280242
1764767606.3239386,-3.57084,0.1678599999999999,1.51074,0.979672785,-0.03112785,0.12280242
1764767606.3239386,-3.57084,0.1678599999999999,1.51074,0.979672785,-0.03112785,0.12280242
1764767606.3239386,-3.57084,0.1678599999999999,1.51074,0.979672785,-0.03112785,0.12280242
1764767606.3249426,-3.57084,0.1678599999999999,1.51074,0.979672785,-0.03112785,0.12280242
1764767606.3249426,-3.57084,0.1678599999999999,1.51074,0.979672785,-0.03112785,0.12280242
1764767606.367448,-3.57084,0.1678599999999999,1.51074,0.979672785,-0.03112785,0.12280242
1764767606.367448,-3.57084,0.1678599999999999,1.51074,0.979672785,-0.03112785,0.12280242
1764767606.367448,-4.08968,0.5341,1.1445,0.97997796,-0.03112785,0.12158172
1764767606.367448,-4.08968,0.5341,1.1445,0.97997796,-0.03112785,0.12158172
1764767606.367448,-4.08968,0.5341,1.1445,0.97997796,-0.03112785,0.12158172
1764767606.367448,-4.08968,0.5341,1.1445,0.97997796,-0.03112785,0.12158172
1764767606.367448,-4.08968,0.5341,1.1445,0.97997796,-0.03112785,0.12158172
1764767606.367448,-4.08968,0.5341,1.1445,0.97997796,-0.03112785,0.12158172
1764767606.367448,-4.08968,0.5341,1.1445,0.97997796,-0.03112785,0.12158172
1764767606.367448,-4.08968,0.5341,1.1445,0.97997796,-0.03112785,0.12158172
1764767606.367448,-4.08968,0.5341,1.1445,0.97997796,-0.03112785,0.12158172
1764767606.367448,-4.08968,0.5341,1.1445,0.97997796,-0.03112785,0.12158172
1764767606.367448,-4.10494,0.54936,2.33478,0.97887933,-0.033019935,0.12121551
1764767606.367448,-4.10494,0.54936,2.33478,0.97887933,-0.033019935,0.12121551
1764767606.367448,-4.10494,0.54936,2.33478,0.97887933,-0.033019935,0.12121551
1764767606.367448,-4.10494,0.54936,2.33478,0.97887933,-0.033019935,0.12121551
1764767606.3684669,-4.10494,0.54936,2.33478,0.97887933,-0.033019935,0.12121551
1764767606.3684669,-4.10494,0.54936,2.33478,0.97887933,-0.033019935,0.12121551
1764767606.3684669,-4.10494,0.54936,2.33478,0.97887933,-0.033019935,0.12121551
1764767606.3684669,-4.10494,0.54936,2.33478,0.97887933,-0.033019935,0.12121551
1764767606.3684669,-4.10494,0.54936,2.33478,0.97887933,-0.033019935,0.12121551
1764767606.3684669,-4.10494,0.54936,2.33478,0.97887933,-0.033019935,0.12121551
1764767606.3684669,-4.22702,0.79352,1.99906,0.97863519,-0.033386145,0.12121551
1764767606.3684669,-4.22702,0.79352,1.99906,0.97863519,-0.033386145,0.12121551
1764767606.4164362,-4.22702,0.79352,1.99906,0.97863519,-0.033386145,0.12121551
1764767606.4164362,-4.22702,0.79352,1.99906,0.97863519,-0.033386145,0.12121551
1764767606.4169486,-4.22702,0.79352,1.99906,0.97863519,-0.033386145,0.12121551
1764767606.4169486,-4.22702,0.79352,1.99906,0.97863519,-0.033386145,0.12121551
1764767606.4169486,-4.22702,0.79352,1.99906,0.97863519,-0.033386145,0.12121551
1764767606.4169486,-4.22702,0.79352,1.99906,0.97863519,-0.033386145,0.12121551
1764767606.4169486,-4.22702,0.79352,1.99906,0.97863519,-0.033386145,0.12121551
1764767606.4169486,-4.22702,0.79352,1.99906,0.97863519,-0.033386145,0.12121551
1764767606.4169486,-3.98286,0.6714399999999999,2.07536,0.979672785,-0.035339265,0.12097137
1764767606.4169486,-3.98286,0.6714399999999999,2.07536,0.979672785,-0.035339265,0.12097137
1764767606.4169486,-3.98286,0.6714399999999999,2.07536,0.979672785,-0.035339265,0.12097137
1764767606.4169486,-3.98286,0.6714399999999999,2.07536,0.979672785,-0.035339265,0.12097137
1764767606.4169486,-3.98286,0.6714399999999999,2.07536,0.979672785,-0.035339265,0.12097137
1764767606.4169486,-3.98286,0.6714399999999999,2.07536,0.979672785,-0.035339265,0.12097137
1764767606.4169486,-3.98286,0.6714399999999999,2.07536,0.979672785,-0.035339265,0.12097137
1764767606.4169486,-3.98286,0.6714399999999999,2.07536,0.979672785,-0.035339265,0.12097137
1764767606.4169486,-3.98286,0.6714399999999999,2.07536,0.979672785,-0.035339265,0.12097137
1764767606.4169486,-3.98286,0.6714399999999999,2.07536,0.979672785,-0.035339265,0.12097137
1764767606.4169486,-3.38772,0.82404,1.2208,0.97948968,-0.03601065,0.12109344
1764767606.4169486,-3.38772,0.82404,1.2208,0.97948968,-0.03601065,0.12109344
1764767606.4169486,-3.38772,0.82404,1.2208,0.97948968,-0.03601065,0.12109344
1764767606.4169486,-3.38772,0.82404,1.2208,0.97948968,-0.03601065,0.12109344
1764767606.4599872,-3.38772,0.82404,1.2208,0.97948968,-0.03601065,0.12109344
1764767606.4599872,-3.38772,0.82404,1.2208,0.97948968,-0.03601065,0.12109344
1764767606.460523,-3.38772,0.82404,1.2208,0.97948968,-0.03601065,0.12109344
1764767606.460523,-3.38772,0.82404,1.2208,0.97948968,-0.03601065,0.12109344
1764767606.460523,-3.38772,0.82404,1.2208,0.97948968,-0.03601065,0.12109344
1764767606.460523,-3.38772,0.82404,1.2208,0.97948968,-0.03601065,0.12109344
1764767606.460523,-3.76922,1.17502,0.9003399999999999,0.98046624,-0.03588858,0.12158172
1764767606.460523,-3.76922,1.17502,0.9003399999999999,0.98046624,-0.03588858,0.12158172
1764767606.460523,-3.76922,1.17502,0.9003399999999999,0.98046624,-0.03588858,0.12158172
1764767606.460523,-3.76922,1.17502,0.9003399999999999,0.98046624,-0.03588858,0.12158172
1764767606.460523,-3.76922,1.17502,0.9003399999999999,0.98046624,-0.03588858,0.12158172
1764767606.460523,-3.76922,1.17502,0.9003399999999999,0.98046624,-0.03588858,0.12158172
1764767606.460523,-3.76922,1.17502,0.9003399999999999,0.98046624,-0.03588858,0.12158172
1764767606.460523,-3.76922,1.17502,0.9003399999999999,0.98046624,-0.03588858,0.12158172
1764767606.460523,-3.76922,1.17502,0.9003399999999999,0.98046624,-0.03588858,0.12158172
1764767606.460523,-3.76922,1.17502,0.9003399999999999,0.98046624,-0.03588858,0.12158172
1764767606.460523,-3.31142,1.35814,0.27468,0.980038995,-0.03576651,0.12219207
1764767606.4615364,-3.31142,1.35814,0.27468,0.980038995,-0.03576651,0.12219207
1764767606.4615364,-3.31142,1.35814,0.27468,0.980038995,-0.03576651,0.12219207
1764767606.4615364,-3.31142,1.35814,0.27468,0.980038995,-0.03576651,0.12219207
1764767606.4615364,-3.31142,1.35814,0.27468,0.980038995,-0.03576651,0.12219207
1764767606.4615364,-3.31142,1.35814,0.27468,0.980038995,-0.03576651,0.12219207
1764767606.4615364,-3.31142,1.35814,0.27468,0.980038995,-0.03576651,0.12219207
1764767606.4615364,-3.31142,1.35814,0.27468,0.980038995,-0.03576651,0.12219207
1764767606.508774,-3.31142,1.35814,0.27468,0.980038995,-0.03576651,0.12219207
1764767606.508774,-3.31142,1.35814,0.27468,0.980038995,-0.03576651,0.12219207
1764767606.508774,-3.5098,1.28184,0.3509799999999999,0.979794855,-0.03503409,0.12231414
1764767606.508774,-3.5098,1.28184,0.3509799999999999,0.979794855,-0.03503409,0.12231414
1764767606.508774,-3.5098,1.28184,0.3509799999999999,0.979794855,-0.03503409,0.12231414
1764767606.508774,-3.5098,1.28184,0.3509799999999999,0.979794855,-0.03503409,0.12231414
1764767606.508774,-3.5098,1.28184,0.3509799999999999,0.979794855,-0.03503409,0.12231414
1764767606.508774,-3.5098,1.28184,0.3509799999999999,0.979794855,-0.03503409,0.12231414
1764767606.508774,-3.5098,1.28184,0.3509799999999999,0.979794855,-0.03503409,0.12231414
1764767606.508774,-3.5098,1.28184,0.3509799999999999,0.979794855,-0.03503409,0.12231414
1764767606.508774,-3.5098,1.28184,0.3509799999999999,0.979794855,-0.03503409,0.12231414
1764767606.508774,-3.5098,1.28184,0.3509799999999999,0.979794855,-0.03503409,0.12231414
1764767606.508774,-3.5861,1.02242,0.6409199999999999,0.97875726,-0.0341796,0.12255828
1764767606.508774,-3.5861,1.02242,0.6409199999999999,0.97875726,-0.0341796,0.12255828
1764767606.508774,-3.5861,1.02242,0.6409199999999999,0.97875726,-0.0341796,0.12255828
1764767606.508774,-3.5861,1.02242,0.6409199999999999,0.97875726,-0.0341796,0.12255828
1764767606.508774,-3.5861,1.02242,0.6409199999999999,0.97875726,-0.0341796,0.12255828
1764767606.508774,-3.5861,1.02242,0.6409199999999999,0.97875726,-0.0341796,0.12255828
1764767606.508774,-3.5861,1.02242,0.6409199999999999,0.97875726,-0.0341796,0.12255828
1764767606.508774,-3.5861,1.02242,0.6409199999999999,0.97875726,-0.0341796,0.12255828
1764767606.508774,-3.5861,1.02242,0.6409199999999999,0.97875726,-0.0341796,0.12255828
1764767606.508774,-3.5861,1.02242,0.6409199999999999,0.97875726,-0.0341796,0.12255828
1764767606.508774,-3.69292,0.9919,0.3204599999999999,0.97875726,-0.032897865,0.122985525
1764767606.508774,-3.69292,0.9919,0.3204599999999999,0.97875726,-0.032897865,0.122985525
1764767606.554593,-3.69292,0.9919,0.3204599999999999,0.97875726,-0.032897865,0.122985525
1764767606.554593,-3.69292,0.9919,0.3204599999999999,0.97875726,-0.032897865,0.122985525
1764767606.554593,-3.69292,0.9919,0.3204599999999999,0.97875726,-0.032897865,0.122985525
1764767606.554593,-3.69292,0.9919,0.3204599999999999,0.97875726,-0.032897865,0.122985525
1764767606.554593,-3.69292,0.9919,0.3204599999999999,0.97875726,-0.032897865,0.122985525
1764767606.554593,-3.69292,0.9919,0.3204599999999999,0.97875726,-0.032897865,0.122985525
1764767606.554593,-3.69292,0.9919,0.3204599999999999,0.97875726,-0.032897865,0.122985525
1764767606.554593,-3.69292,0.9919,0.3204599999999999,0.97875726,-0.032897865,0.122985525
1764767606.555116,-3.95234,0.9156,0.9003399999999999,0.978696225,-0.032531655,0.123229665
1764767606.555116,-3.95234,0.9156,0.9003399999999999,0.978696225,-0.032531655,0.123229665
1764767606.555116,-3.95234,0.9156,0.9003399999999999,0.978696225,-0.032531655,0.123229665
1764767606.555116,-3.95234,0.9156,0.9003399999999999,0.978696225,-0.032531655,0.123229665
1764767606.555116,-3.95234,0.9156,0.9003399999999999,0.978696225,-0.032531655,0.123229665
1764767606.555116,-3.95234,0.9156,0.9003399999999999,0.978696225,-0.032531655,0.123229665
1764767606.555116,-3.95234,0.9156,0.9003399999999999,0.978696225,-0.032531655,0.123229665
1764767606.555116,-3.95234,0.9156,0.9003399999999999,0.978696225,-0.032531655,0.123229665
1764767606.555116,-3.95234,0.9156,0.9003399999999999,0.978696225,-0.032531655,0.123229665
1764767606.555116,-3.95234,0.9156,0.9003399999999999,0.978696225,-0.032531655,0.123229665
1764767606.555116,-3.87604,1.00716,0.8698199999999999,0.978085875,-0.031799235,0.12341277
1764767606.555116,-3.87604,1.00716,0.8698199999999999,0.978085875,-0.031799235,0.12341277
1764767606.555116,-3.87604,1.00716,0.8698199999999999,0.978085875,-0.031799235,0.12341277
1764767606.555116,-3.87604,1.00716,0.8698199999999999,0.978085875,-0.031799235,0.12341277
1764767606.6007736,-3.87604,1.00716,0.8698199999999999,0.978085875,-0.031799235,0.12341277
1764767606.6007736,-3.87604,1.00716,0.8698199999999999,0.978085875,-0.031799235,0.12341277
1764767606.6007736,-3.87604,1.00716,0.8698199999999999,0.978085875,-0.031799235,0.12341277
1764767606.6012907,-3.87604,1.00716,0.8698199999999999,0.978085875,-0.031799235,0.12341277
1764767606.6012907,-3.87604,1.00716,0.8698199999999999,0.978085875,-0.031799235,0.12341277
1764767606.6012907,-3.87604,1.00716,0.8698199999999999,0.978085875,-0.031799235,0.12341277
1764767606.6012907,-4.22702,1.11398,0.77826,0.97912347,-0.03124992,0.12292449
1764767606.6012907,-4.22702,1.11398,0.77826,0.97912347,-0.03124992,0.12292449
1764767606.6012907,-4.22702,1.11398,0.77826,0.97912347,-0.03124992,0.12292449
1764767606.6012907,-4.22702,1.11398,0.77826,0.97912347,-0.03124992,0.12292449
1764767606.6012907,-4.22702,1.11398,0.77826,0.97912347,-0.03124992,0.12292449
1764767606.6012907,-4.22702,1.11398,0.77826,0.97912347,-0.03124992,0.12292449
1764767606.6012907,-4.22702,1.11398,0.77826,0.97912347,-0.03124992,0.12292449
1764767606.6012907,-4.22702,1.11398,0.77826,0.97912347,-0.03124992,0.12292449
1764767606.6012907,-4.22702,1.11398,0.77826,0.97912347,-0.03124992,0.12292449
1764767606.6012907,-4.22702,1.11398,0.77826,0.97912347,-0.03124992,0.12292449
1764767606.6012907,-4.10494,1.15976,0.82404,0.97973382,-0.031799235,0.12292449
1764767606.6012907,-4.10494,1.15976,0.82404,0.97973382,-0.031799235,0.12292449
1764767606.6012907,-4.10494,1.15976,0.82404,0.97973382,-0.031799235,0.12292449
1764767606.6012907,-4.10494,1.15976,0.82404,0.97973382,-0.031799235,0.12292449
1764767606.6012907,-4.10494,1.15976,0.82404,0.97973382,-0.031799235,0.12292449
1764767606.6012907,-4.10494,1.15976,0.82404,0.97973382,-0.031799235,0.12292449
1764767606.6012907,-4.10494,1.15976,0.82404,0.97973382,-0.031799235,0.12292449
1764767606.6012907,-4.10494,1.15976,0.82404,0.97973382,-0.031799235,0.12292449
1764767606.6012907,-4.10494,1.15976,0.82404,0.97973382,-0.031799235,0.12292449
1764767606.6012907,-4.10494,1.15976,0.82404,0.97973382,-0.031799235,0.12292449
1764767606.647902,-3.87604,1.28184,1.32762,0.97948968,-0.03222648,0.12316863
1764767606.6484177,-3.87604,1.28184,1.32762,0.97948968,-0.03222648,0.12316863
1764767606.6484177,-3.87604,1.28184,1.32762,0.97948968,-0.03222648,0.12316863
1764767606.6484177,-3.87604,1.28184,1.32762,0.97948968,-0.03222648,0.12316863
1764767606.6484177,-3.87604,1.28184,1.32762,0.97948968,-0.03222648,0.12316863
1764767606.6484177,-3.87604,1.28184,1.32762,0.97948968,-0.03222648,0.12316863
1764767606.6484177,-3.87604,1.28184,1.32762,0.97948968,-0.03222648,0.12316863
1764767606.6484177,-3.87604,1.28184,1.32762,0.97948968,-0.03222648,0.12316863
1764767606.6484177,-3.87604,1.28184,1.32762,0.97948968,-0.03222648,0.12316863
1764767606.6484177,-3.87604,1.28184,1.32762,0.97948968,-0.03222648,0.12316863
1764767606.6484177,-4.0439,1.1445,1.2971,0.979428645,-0.032531655,0.122863455
1764767606.6484177,-4.0439,1.1445,1.2971,0.979428645,-0.032531655,0.122863455
1764767606.6484177,-4.0439,1.1445,1.2971,0.979428645,-0.032531655,0.122863455
1764767606.6484177,-4.0439,1.1445,1.2971,0.979428645,-0.032531655,0.122863455
1764767606.6484177,-4.0439,1.1445,1.2971,0.979428645,-0.032531655,0.122863455
1764767606.6484177,-4.0439,1.1445,1.2971,0.979428645,-0.032531655,0.122863455
1764767606.6484177,-4.0439,1.1445,1.2971,0.979428645,-0.032531655,0.122863455
1764767606.6484177,-4.0439,1.1445,1.2971,0.979428645,-0.032531655,0.122863455
1764767606.694105,-4.0439,1.1445,1.2971,0.979428645,-0.032531655,0.122863455
1764767606.694105,-4.0439,1.1445,1.2971,0.979428645,-0.032531655,0.122863455
1764767606.694105,-3.54032,1.02242,1.526,0.978940365,-0.03332511,0.12365691
1764767606.694105,-3.54032,1.02242,1.526,0.978940365,-0.03332511,0.12365691
1764767606.694105,-3.54032,1.02242,1.526,0.978940365,-0.03332511,0.12365691
1764767606.694105,-3.54032,1.02242,1.526,0.978940365,-0.03332511,0.12365691
1764767606.694105,-3.54032,1.02242,1.526,0.978940365,-0.03332511,0.12365691
1764767606.694105,-3.54032,1.02242,1.526,0.978940365,-0.03332511,0.12365691
1764767606.694105,-3.54032,1.02242,1.526,0.978940365,-0.03332511,0.12365691
1764767606.694105,-3.54032,1.02242,1.526,0.978940365,-0.03332511,0.12365691
1764767606.694105,-3.54032,1.02242,1.526,0.978940365,-0.03332511,0.12365691
1764767606.694105,-3.54032,1.02242,1.526,0.978940365,-0.03332511,0.12365691
1764767606.694105,-3.11304,0.9919,1.4497,0.97875726,-0.034362705,0.12316863
1764767606.694105,-3.11304,0.9919,1.4497,0.97875726,-0.034362705,0.12316863
1764767606.694105,-3.11304,0.9919,1.4497,0.97875726,-0.034362705,0.12316863
1764767606.694105,-3.11304,0.9919,1.4497,0.97875726,-0.034362705,0.12316863
1764767606.694105,-3.11304,0.9919,1.4497,0.97875726,-0.034362705,0.12316863
1764767606.694105,-3.11304,0.9919,1.4497,0.97875726,-0.034362705,0.12316863
1764767606.694105,-3.11304,0.9919,1.4497,0.97875726,-0.034362705,0.12316863
1764767606.694105,-3.11304,0.9919,1.4497,0.97875726,-0.034362705,0.12316863
1764767606.694105,-3.11304,0.9919,1.4497,0.97875726,-0.034362705,0.12316863
1764767606.694105,-3.11304,0.9919,1.4497,0.97875726,-0.034362705,0.12316863
1764767606.694105,-3.37246,0.9919,1.58704,0.980161065,-0.03430167,0.1232907
1764767606.694105,-3.37246,0.9919,1.58704,0.980161065,-0.03430167,0.1232907
1764767606.694105,-3.37246,0.9919,1.58704,0.980161065,-0.03430167,0.1232907
1764767606.694105,-3.37246,0.9919,1.58704,0.980161065,-0.03430167,0.1232907
1764767606.740441,-3.37246,0.9919,1.58704,0.980161065,-0.03430167,0.1232907
1764767606.740441,-3.37246,0.9919,1.58704,0.980161065,-0.03430167,0.1232907
1764767606.740441,-3.37246,0.9919,1.58704,0.980161065,-0.03430167,0.1232907
1764767606.740441,-3.37246,0.9919,1.58704,0.980161065,-0.03430167,0.1232907
1764767606.740441,-3.37246,0.9919,1.58704,0.980161065,-0.03430167,0.1232907
1764767606.740441,-3.37246,0.9919,1.58704,0.980161065,-0.03430167,0.1232907
1764767606.740441,-3.15882,1.15976,1.28184,0.97936761,-0.034240635,0.12304656
1764767606.740441,-3.15882,1.15976,1.28184,0.97936761,-0.034240635,0.12304656
1764767606.740441,-3.15882,1.15976,1.28184,0.97936761,-0.034240635,0.12304656
1764767606.740441,-3.15882,1.15976,1.28184,0.97936761,-0.034240635,0.12304656
1764767606.740441,-3.15882,1.15976,1.28184,0.97936761,-0.034240635,0.12304656
1764767606.740441,-3.15882,1.15976,1.28184,0.97936761,-0.034240635,0.12304656
1764767606.740441,-3.15882,1.15976,1.28184,0.97936761,-0.034240635,0.12304656
1764767606.740441,-3.15882,1.15976,1.28184,0.97936761,-0.034240635,0.12304656
1764767606.740441,-3.15882,1.15976,1.28184,0.97936761,-0.034240635,0.12304656
1764767606.740441,-3.15882,1.15976,1.28184,0.97936761,-0.034240635,0.12304656
1764767606.740441,-3.4335,1.2971,1.54126,0.97948968,-0.03405753,0.123229665
1764767606.740441,-3.4335,1.2971,1.54126,0.97948968,-0.03405753,0.123229665
1764767606.740441,-3.4335,1.2971,1.54126,0.97948968,-0.03405753,0.123229665
1764767606.740441,-3.4335,1.2971,1.54126,0.97948968,-0.03405753,0.123229665
1764767606.740441,-3.4335,1.2971,1.54126,0.97948968,-0.03405753,0.123229665
1764767606.740441,-3.4335,1.2971,1.54126,0.97948968,-0.03405753,0.123229665
1764767606.740441,-3.4335,1.2971,1.54126,0.97948968,-0.03405753,0.123229665
1764767606.740441,-3.4335,1.2971,1.54126,0.97948968,-0.03405753,0.123229665
1764767606.787609,-3.4335,1.2971,1.54126,0.97948968,-0.03405753,0.123229665
1764767606.787609,-3.4335,1.2971,1.54126,0.97948968,-0.03405753,0.123229665
1764767606.787609,-3.41824,1.0682,1.23606,0.97912347,-0.034240635,0.123473805
1764767606.787609,-3.41824,1.0682,1.23606,0.97912347,-0.034240635,0.123473805
1764767606.787609,-3.41824,1.0682,1.23606,0.97912347,-0.034240635,0.123473805
1764767606.787609,-3.41824,1.0682,1.23606,0.97912347,-0.034240635,0.123473805
1764767606.787609,-3.41824,1.0682,1.23606,0.97912347,-0.034240635,0.123473805
1764767606.787609,-3.41824,1.0682,1.23606,0.97912347,-0.034240635,0.123473805
1764767606.787609,-3.41824,1.0682,1.23606,0.97912347,-0.034240635,0.123473805
1764767606.787609,-3.41824,1.0682,1.23606,0.97912347,-0.034240635,0.123473805
1764767606.787609,-3.41824,1.0682,1.23606,0.97912347,-0.034240635,0.123473805
1764767606.787609,-3.41824,1.0682,1.23606,0.97912347,-0.034240635,0.123473805
1764767606.787609,-3.5098,1.34288,1.2971,0.979550715,-0.03393546,0.12390105
1764767606.787609,-3.5098,1.34288,1.2971,0.979550715,-0.03393546,0.12390105
1764767606.787609,-3.5098,1.34288,1.2971,0.979550715,-0.03393546,0.12390105
1764767606.787609,-3.5098,1.34288,1.2971,0.979550715,-0.03393546,0.12390105
1764767606.787609,-3.5098,1.34288,1.2971,0.979550715,-0.03393546,0.12390105
1764767606.787609,-3.5098,1.34288,1.2971,0.979550715,-0.03393546,0.12390105
1764767606.787609,-3.5098,1.34288,1.2971,0.979550715,-0.03393546,0.12390105
1764767606.787609,-3.5098,1.34288,1.2971,0.979550715,-0.03393546,0.12390105
1764767606.8342817,-3.5098,1.34288,1.2971,0.979550715,-0.03393546,0.12390105
1764767606.8342817,-3.5098,1.34288,1.2971,0.979550715,-0.03393546,0.12390105
1764767606.8342817,-3.52506,1.02242,1.05294,0.979184505,-0.034973055,0.123351735
1764767606.8342817,-3.52506,1.02242,1.05294,0.979184505,-0.034973055,0.123351735
1764767606.8342817,-3.52506,1.02242,1.05294,0.979184505,-0.034973055,0.123351735
1764767606.8342817,-3.52506,1.02242,1.05294,0.979184505,-0.034973055,0.123351735
1764767606.8342817,-3.52506,1.02242,1.05294,0.979184505,-0.034973055,0.123351735
1764767606.8342817,-3.52506,1.02242,1.05294,0.979184505,-0.034973055,0.123351735
1764767606.8342817,-3.52506,1.02242,1.05294,0.979184505,-0.034973055,0.123351735
1764767606.8342817,-3.52506,1.02242,1.05294,0.979184505,-0.034973055,0.123351735
1764767606.8342817,-3.52506,1.02242,1.05294,0.979184505,-0.034973055,0.123351735
1764767606.8342817,-3.52506,1.02242,1.05294,0.979184505,-0.034973055,0.123351735
1764767606.8342817,-3.93708,1.05294,1.26658,0.97924554,-0.03491202,0.123351735
1764767606.8342817,-3.93708,1.05294,1.26658,0.97924554,-0.03491202,0.123351735
1764767606.8342817,-3.93708,1.05294,1.26658,0.97924554,-0.03491202,0.123351735
1764767606.8342817,-3.93708,1.05294,1.26658,0.97924554,-0.03491202,0.123351735
1764767606.8342817,-3.93708,1.05294,1.26658,0.97924554,-0.03491202,0.123351735
1764767606.8342817,-3.93708,1.05294,1.26658,0.97924554,-0.03491202,0.123351735
1764767606.8342817,-3.93708,1.05294,1.26658,0.97924554,-0.03491202,0.123351735
1764767606.8342817,-3.93708,1.05294,1.26658,0.97924554,-0.03491202,0.123351735
1764767606.8342817,-3.93708,1.05294,1.26658,0.97924554,-0.03491202,0.123351735
1764767606.8342817,-3.93708,1.05294,1.26658,0.97924554,-0.03491202,0.123351735
1764767606.8342817,-3.86078,0.74774,0.85456,0.97875726,-0.03491202,0.123840015
1764767606.8342817,-3.86078,0.74774,0.85456,0.97875726,-0.03491202,0.123840015
1764767606.8342817,-3.86078,0.74774,0.85456,0.97875726,-0.03491202,0.123840015
1764767606.8342817,-3.86078,0.74774,0.85456,0.97875726,-0.03491202,0.123840015
1764767606.8813086,-3.86078,0.74774,0.85456,0.97875726,-0.03491202,0.123840015
1764767606.8813086,-3.86078,0.74774,0.85456,0.97875726,-0.03491202,0.123840015
1764767606.8813086,-3.86078,0.74774,0.85456,0.97875726,-0.03491202,0.123840015
1764767606.8813086,-3.86078,0.74774,0.85456,0.97875726,-0.03491202,0.123840015
1764767606.8813086,-3.86078,0.74774,0.85456,0.97875726,-0.03491202,0.123840015
1764767606.8813086,-3.86078,0.74774,0.85456,0.97875726,-0.03491202,0.123840015
1764767606.8813086,-4.01338,1.09872,0.94612,0.97887933,-0.03491202,0.123351735
1764767606.8813086,-4.01338,1.09872,0.94612,0.97887933,-0.03491202,0.123351735
1764767606.8813086,-4.01338,1.09872,0.94612,0.97887933,-0.03491202,0.123351735
1764767606.8813086,-4.01338,1.09872,0.94612,0.97887933,-0.03491202,0.123351735
1764767606.8813086,-4.01338,1.09872,0.94612,0.97887933,-0.03491202,0.123351735
1764767606.8813086,-4.01338,1.09872,0.94612,0.97887933,-0.03491202,0.123351735
1764767606.8813086,-4.01338,1.09872,0.94612,0.97887933,-0.03491202,0.123351735
1764767606.8813086,-4.01338,1.09872,0.94612,0.97887933,-0.03491202,0.123351735
1764767606.8813086,-4.01338,1.09872,0.94612,0.97887933,-0.03491202,0.123351735
1764767606.8818295,-4.01338,1.09872,0.94612,0.97887933,-0.03491202,0.123351735
1764767606.8818295,-3.93708,0.57988,1.63282,0.978940365,-0.034606845,0.123351735
1764767606.8818295,-3.93708,0.57988,1.63282,0.978940365,-0.034606845,0.123351735
1764767606.9273849,-3.93708,0.57988,1.63282,0.978940365,-0.034606845,0.123351735
1764767606.9273849,-3.93708,0.57988,1.63282,0.978940365,-0.034606845,0.123351735
1764767606.9273849,-3.93708,0.57988,1.63282,0.978940365,-0.034606845,0.123351735
1764767606.9273849,-3.93708,0.57988,1.63282,0.978940365,-0.034606845,0.123351735
1764767606.9273849,-3.93708,0.57988,1.63282,0.978940365,-0.034606845,0.123351735
1764767606.9273849,-3.93708,0.57988,1.63282,0.978940365,-0.034606845,0.123351735
1764767606.9273849,-3.93708,0.57988,1.63282,0.978940365,-0.034606845,0.123351735
1764767606.9273849,-3.93708,0.57988,1.63282,0.978940365,-0.034606845,0.123351735
1764767606.9273849,-3.86078,0.94612,1.8006799999999998,0.978696225,-0.034240635,0.123229665
1764767606.9273849,-3.86078,0.94612,1.8006799999999998,0.978696225,-0.034240635,0.123229665
1764767606.9273849,-3.86078,0.94612,1.8006799999999998,0.978696225,-0.034240635,0.123229665
1764767606.9273849,-3.86078,0.94612,1.8006799999999998,0.978696225,-0.034240635,0.123229665
1764767606.9273849,-3.86078,0.94612,1.8006799999999998,0.978696225,-0.034240635,0.123229665
1764767606.9279122,-3.86078,0.94612,1.8006799999999998,0.978696225,-0.034240635,0.123229665
1764767606.9279122,-3.86078,0.94612,1.8006799999999998,0.978696225,-0.034240635,0.123229665
1764767606.9279122,-3.86078,0.94612,1.8006799999999998,0.978696225,-0.034240635,0.123229665
1764767606.9279122,-3.86078,0.94612,1.8006799999999998,0.978696225,-0.034240635,0.123229665
1764767606.9279122,-3.86078,0.94612,1.8006799999999998,0.978696225,-0.034240635,0.123229665
1764767606.9279122,-4.10494,0.9156,0.97664,0.979062435,-0.0341796,0.12268035
1764767606.9279122,-4.10494,0.9156,0.97664,0.979062435,-0.0341796,0.12268035
1764767606.9279122,-4.10494,0.9156,0.97664,0.979062435,-0.0341796,0.12268035
1764767606.9279122,-4.10494,0.9156,0.97664,0.979062435,-0.0341796,0.12268035
1764767606.9279122,-4.10494,0.9156,0.97664,0.979062435,-0.0341796,0.12268035
1764767606.9279122,-4.10494,0.9156,0.97664,0.979062435,-0.0341796,0.12268035
1764767606.9279122,-4.10494,0.9156,0.97664,0.979062435,-0.0341796,0.12268035
1764767606.9279122,-4.10494,0.9156,0.97664,0.979062435,-0.0341796,0.12268035
1764767606.9279122,-4.10494,0.9156,0.97664,0.979062435,-0.0341796,0.12268035
1764767606.9279122,-4.10494,0.9156,0.97664,0.979062435,-0.0341796,0.12268035
1764767606.974344,-4.16598,1.12924,0.6409199999999999,0.97924554,-0.03405753,0.12231414
1764767606.974344,-4.16598,1.12924,0.6409199999999999,0.97924554,-0.03405753,0.12231414
1764767606.974344,-4.16598,1.12924,0.6409199999999999,0.97924554,-0.03405753,0.12231414
1764767606.974344,-4.16598,1.12924,0.6409199999999999,0.97924554,-0.03405753,0.12231414
1764767606.974344,-4.16598,1.12924,0.6409199999999999,0.97924554,-0.03405753,0.12231414
1764767606.974344,-4.16598,1.12924,0.6409199999999999,0.97924554,-0.03405753,0.12231414
1764767606.974344,-4.16598,1.12924,0.6409199999999999,0.97924554,-0.03405753,0.12231414
1764767606.974344,-4.16598,1.12924,0.6409199999999999,0.97924554,-0.03405753,0.12231414
1764767606.9748492,-4.16598,1.12924,0.6409199999999999,0.97924554,-0.03405753,0.12231414
1764767606.9748492,-4.16598,1.12924,0.6409199999999999,0.97924554,-0.03405753,0.12231414
1764767606.9748492,-3.60136,1.03768,0.73248,0.97936761,-0.03454581,0.123107595
1764767606.9748492,-3.60136,1.03768,0.73248,0.97936761,-0.03454581,0.123107595
1764767606.9748492,-3.60136,1.03768,0.73248,0.97936761,-0.03454581,0.123107595
1764767606.9748492,-3.60136,1.03768,0.73248,0.97936761,-0.03454581,0.123107595
1764767606.9748492,-3.60136,1.03768,0.73248,0.97936761,-0.03454581,0.123107595
1764767606.9748492,-3.60136,1.03768,0.73248,0.97936761,-0.03454581,0.123107595
1764767606.9748492,-3.60136,1.03768,0.73248,0.97936761,-0.03454581,0.123107595
1764767606.9748492,-3.60136,1.03768,0.73248,0.97936761,-0.03454581,0.123107595
1764767606.9748492,-3.60136,1.03768,0.73248,0.97936761,-0.03454581,0.123107595
1764767606.9748492,-3.60136,1.03768,0.73248,0.97936761,-0.03454581,0.123107595
1764767606.9748492,-3.99812,1.3734,0.65618,0.979550715,-0.03466788,0.12304656
1764767606.9748492,-3.99812,1.3734,0.65618,0.979550715,-0.03466788,0.12304656
1764767607.0207365,-3.99812,1.3734,0.65618,0.979550715,-0.03466788,0.12304656
1764767607.0207365,-3.99812,1.3734,0.65618,0.979550715,-0.03466788,0.12304656
1764767607.0207365,-3.99812,1.3734,0.65618,0.979550715,-0.03466788,0.12304656
1764767607.0207365,-3.99812,1.3734,0.65618,0.979550715,-0.03466788,0.12304656
1764767607.0207365,-3.99812,1.3734,0.65618,0.979550715,-0.03466788,0.12304656
1764767607.0207365,-3.99812,1.3734,0.65618,0.979550715,-0.03466788,0.12304656
1764767607.0207365,-3.99812,1.3734,0.65618,0.979550715,-0.03466788,0.12304656
1764767607.0207365,-3.99812,1.3734,0.65618,0.979550715,-0.03466788,0.12304656
1764767607.0207365,-3.79974,0.9156,1.15976,0.97875726,-0.034850985,0.123473805
1764767607.0207365,-3.79974,0.9156,1.15976,0.97875726,-0.034850985,0.123473805
1764767607.0212529,-3.79974,0.9156,1.15976,0.97875726,-0.034850985,0.123473805
1764767607.0212529,-3.79974,0.9156,1.15976,0.97875726,-0.034850985,0.123473805
1764767607.0212529,-3.79974,0.9156,1.15976,0.97875726,-0.034850985,0.123473805
1764767607.0212529,-3.79974,0.9156,1.15976,0.97875726,-0.034850985,0.123473805
1764767607.0212529,-3.79974,0.9156,1.15976,0.97875726,-0.034850985,0.123473805
1764767607.0212529,-3.79974,0.9156,1.15976,0.97875726,-0.034850985,0.123473805
1764767607.0212529,-3.79974,0.9156,1.15976,0.97875726,-0.034850985,0.123473805
1764767607.0212529,-3.79974,0.9156,1.15976,0.97875726,-0.034850985,0.123473805
1764767607.0212529,-3.55558,1.35814,0.39676,0.97863519,-0.03527823,0.123473805
1764767607.0212529,-3.55558,1.35814,0.39676,0.97863519,-0.03527823,0.123473805
1764767607.0212529,-3.55558,1.35814,0.39676,0.97863519,-0.03527823,0.123473805
1764767607.0212529,-3.55558,1.35814,0.39676,0.97863519,-0.03527823,0.123473805
1764767607.0212529,-3.55558,1.35814,0.39676,0.97863519,-0.03527823,0.123473805
1764767607.0212529,-3.55558,1.35814,0.39676,0.97863519,-0.03527823,0.123473805
1764767607.0212529,-3.55558,1.35814,0.39676,0.97863519,-0.03527823,0.123473805
1764767607.0212529,-3.55558,1.35814,0.39676,0.97863519,-0.03527823,0.123473805
1764767607.0673292,-3.55558,1.35814,0.39676,0.97863519,-0.03527823,0.123473805
1764767607.0673292,-3.55558,1.35814,0.39676,0.97863519,-0.03527823,0.123473805
1764767607.0673292,-3.32668,1.48022,1.05294,0.978940365,-0.03613272,0.1245114
1764767607.0673292,-3.32668,1.48022,1.05294,0.978940365,-0.03613272,0.1245114
1764767607.0673292,-3.32668,1.48022,1.05294,0.978940365,-0.03613272,0.1245114
1764767607.0673292,-3.32668,1.48022,1.05294,0.978940365,-0.03613272,0.1245114
1764767607.0673292,-3.32668,1.48022,1.05294,0.978940365,-0.03613272,0.1245114
1764767607.0673292,-3.32668,1.48022,1.05294,0.978940365,-0.03613272,0.1245114
1764767607.0673292,-3.32668,1.48022,1.05294,0.978940365,-0.03613272,0.1245114
1764767607.0673292,-3.32668,1.48022,1.05294,0.978940365,-0.03613272,0.1245114
1764767607.0673292,-3.32668,1.48022,1.05294,0.978940365,-0.03613272,0.1245114
1764767607.0673292,-3.32668,1.48022,1.05294,0.978940365,-0.03613272,0.1245114
1764767607.0673292,-2.5942,0.6409199999999999,1.54126,0.977231385,-0.03735342,0.12512175
1764767607.0673292,-2.5942,0.6409199999999999,1.54126,0.977231385,-0.03735342,0.12512175
1764767607.0673292,-2.5942,0.6409199999999999,1.54126,0.977231385,-0.03735342,0.12512175
1764767607.0673292,-2.5942,0.6409199999999999,1.54126,0.977231385,-0.03735342,0.12512175
1764767607.0673292,-2.5942,0.6409199999999999,1.54126,0.977231385,-0.03735342,0.12512175
1764767607.0673292,-2.5942,0.6409199999999999,1.54126,0.977231385,-0.03735342,0.12512175
1764767607.0673292,-2.5942,0.6409199999999999,1.54126,0.977231385,-0.03735342,0.12512175
1764767607.0673292,-2.5942,0.6409199999999999,1.54126,0.977231385,-0.03735342,0.12512175
1764767607.0673292,-2.5942,0.6409199999999999,1.54126,0.977231385,-0.03735342,0.12512175
1764767607.067836,-2.5942,0.6409199999999999,1.54126,0.977231385,-0.03735342,0.12512175
1764767607.1136782,-2.3653,-0.4578,1.0682,0.97704828,-0.037292385,0.12475554
1764767607.1136782,-2.3653,-0.4578,1.0682,0.97704828,-0.037292385,0.12475554
1764767607.1136782,-2.3653,-0.4578,1.0682,0.97704828,-0.037292385,0.12475554
1764767607.1136782,-2.3653,-0.4578,1.0682,0.97704828,-0.037292385,0.12475554
1764767607.1136782,-2.3653,-0.4578,1.0682,0.97704828,-0.037292385,0.12475554
1764767607.1136782,-2.3653,-0.4578,1.0682,0.97704828,-0.037292385,0.12475554
1764767607.1136782,-2.3653,-0.4578,1.0682,0.97704828,-0.037292385,0.12475554
1764767607.1136782,-2.3653,-0.4578,1.0682,0.97704828,-0.037292385,0.12475554
1764767607.1136782,-2.3653,-0.4578,1.0682,0.97704828,-0.037292385,0.12475554
1764767607.1136782,-2.3653,-0.4578,1.0682,0.97704828,-0.037292385,0.12475554
1764767607.1136782,-2.76206,-0.2289,0.56462,0.97973382,-0.035949615,0.12414519
1764767607.1136782,-2.76206,-0.2289,0.56462,0.97973382,-0.035949615,0.12414519
1764767607.1136782,-2.76206,-0.2289,0.56462,0.97973382,-0.035949615,0.12414519
1764767607.1136782,-2.76206,-0.2289,0.56462,0.97973382,-0.035949615,0.12414519
1764767607.1136782,-2.76206,-0.2289,0.56462,0.97973382,-0.035949615,0.12414519
1764767607.1136782,-2.76206,-0.2289,0.56462,0.97973382,-0.035949615,0.12414519
1764767607.1136782,-2.76206,-0.2289,0.56462,0.97973382,-0.035949615,0.12414519
1764767607.1136782,-2.76206,-0.2289,0.56462,0.97973382,-0.035949615,0.12414519
1764767607.1136782,-2.76206,-0.2289,0.56462,0.97973382,-0.035949615,0.12414519
1764767607.1136782,-2.76206,-0.2289,0.56462,0.97973382,-0.035949615,0.12414519
1764767607.1136782,-3.14356,0.71722,-0.12208,0.980649345,-0.034973055,0.123351735
1764767607.1136782,-3.14356,0.71722,-0.12208,0.980649345,-0.034973055,0.123351735
1764767607.1136782,-3.14356,0.71722,-0.12208,0.980649345,-0.034973055,0.123351735
1764767607.1136782,-3.14356,0.71722,-0.12208,0.980649345,-0.034973055,0.123351735
1764767607.1596067,-3.14356,0.71722,-0.12208,0.980649345,-0.034973055,0.123351735
1764767607.1596067,-3.14356,0.71722,-0.12208,0.980649345,-0.034973055,0.123351735
1764767607.1596067,-3.14356,0.71722,-0.12208,0.980649345,-0.034973055,0.123351735
1764767607.1596067,-3.14356,0.71722,-0.12208,0.980649345,-0.034973055,0.123351735
1764767607.1596067,-3.14356,0.71722,-0.12208,0.980649345,-0.034973055,0.123351735
1764767607.160117,-3.14356,0.71722,-0.12208,0.980649345,-0.034973055,0.123351735
1764767607.160117,-3.92182,0.8087799999999999,-0.77826,0.97887933,-0.033630285,0.122375175
1764767607.160117,-3.92182,0.8087799999999999,-0.77826,0.97887933,-0.033630285,0.122375175
1764767607.160117,-3.92182,0.8087799999999999,-0.77826,0.97887933,-0.033630285,0.122375175
1764767607.160117,-3.92182,0.8087799999999999,-0.77826,0.97887933,-0.033630285,0.122375175
1764767607.210013,-3.92182,0.8087799999999999,-0.77826,0.97887933,-0.033630285,0.122375175
1764767607.210013,-3.92182,0.8087799999999999,-0.77826,0.97887933,-0.033630285,0.122375175
1764767607.210013,-3.92182,0.8087799999999999,-0.77826,0.97887933,-0.033630285,0.122375175
1764767607.210013,-3.92182,0.8087799999999999,-0.77826,0.97887933,-0.033630285,0.122375175
1764767607.210013,-3.92182,0.8087799999999999,-0.77826,0.97887933,-0.033630285,0.122375175
1764767607.210013,-3.92182,0.8087799999999999,-0.77826,0.97887933,-0.033630285,0.122375175
1764767607.210013,-4.31858,0.71722,-1.4497,0.978818295,-0.03247062,0.12207
1764767607.210013,-4.31858,0.71722,-1.4497,0.978818295,-0.03247062,0.12207
1764767607.210013,-4.31858,0.71722,-1.4497,0.978818295,-0.03247062,0.12207
1764767607.210013,-4.31858,0.71722,-1.4497,0.978818295,-0.03247062,0.12207
1764767607.210013,-4.31858,0.71722,-1.4497,0.978818295,-0.03247062,0.12207
1764767607.210013,-4.31858,0.71722,-1.4497,0.978818295,-0.03247062,0.12207
1764767607.210013,-4.31858,0.71722,-1.4497,0.978818295,-0.03247062,0.12207
1764767607.210013,-4.31858,0.71722,-1.4497,0.978818295,-0.03247062,0.12207
1764767607.210013,-4.31858,0.71722,-1.4497,0.978818295,-0.03247062,0.12207
1764767607.210013,-4.31858,0.71722,-1.4497,0.978818295,-0.03247062,0.12207
1764767607.210013,-4.852679999999999,0.97664,-0.88508,0.97887933,-0.03210441,0.121886895
1764767607.210013,-4.852679999999999,0.97664,-0.88508,0.97887933,-0.03210441,0.121886895
1764767607.210013,-4.852679999999999,0.97664,-0.88508,0.97887933,-0.03210441,0.121886895
1764767607.210013,-4.852679999999999,0.97664,-0.88508,0.97887933,-0.03210441,0.121886895
1764767607.210013,-4.852679999999999,0.97664,-0.88508,0.97887933,-0.03210441,0.121886895
1764767607.210013,-4.852679999999999,0.97664,-0.88508,0.97887933,-0.03210441,0.121886895
1764767607.210013,-4.852679999999999,0.97664,-0.88508,0.97887933,-0.03210441,0.121886895
1764767607.210013,-4.852679999999999,0.97664,-0.88508,0.97887933,-0.03210441,0.121886895
1764767607.210013,-4.852679999999999,0.97664,-0.88508,0.97887933,-0.03210441,0.121886895
1764767607.2110188,-4.852679999999999,0.97664,-0.88508,0.97887933,-0.03210441,0.121886895
1764767607.2110188,-4.41014,1.15976,-0.3509799999999999,0.9790014,-0.03222648,0.122741385
1764767607.2110188,-4.41014,1.15976,-0.3509799999999999,0.9790014,-0.03222648,0.122741385
1764767607.2110188,-4.41014,1.15976,-0.3509799999999999,0.9790014,-0.03222648,0.122741385
1764767607.2110188,-4.41014,1.15976,-0.3509799999999999,0.9790014,-0.03222648,0.122741385
1764767607.2110188,-4.41014,1.15976,-0.3509799999999999,0.9790014,-0.03222648,0.122741385
1764767607.2110188,-4.41014,1.15976,-0.3509799999999999,0.9790014,-0.03222648,0.122741385
1764767607.2110188,-4.41014,1.15976,-0.3509799999999999,0.9790014,-0.03222648,0.122741385
1764767607.2110188,-4.41014,1.15976,-0.3509799999999999,0.9790014,-0.03222648,0.122741385
1764767607.2110188,-4.41014,1.15976,-0.3509799999999999,0.9790014,-0.03222648,0.122741385
1764767607.2110188,-4.41014,1.15976,-0.3509799999999999,0.9790014,-0.03222648,0.122741385
1764767607.2110188,-4.74586,0.65618,-0.28994,0.978696225,-0.03186027,0.12292449
1764767607.2110188,-4.74586,0.65618,-0.28994,0.978696225,-0.03186027,0.12292449
1764767607.2534852,-4.74586,0.65618,-0.28994,0.978696225,-0.03186027,0.12292449
1764767607.2534852,-4.74586,0.65618,-0.28994,0.978696225,-0.03186027,0.12292449
1764767607.2534852,-4.74586,0.65618,-0.28994,0.978696225,-0.03186027,0.12292449
1764767607.2534852,-4.74586,0.65618,-0.28994,0.978696225,-0.03186027,0.12292449
1764767607.2534852,-4.74586,0.65618,-0.28994,0.978696225,-0.03186027,0.12292449
1764767607.2534852,-4.74586,0.65618,-0.28994,0.978696225,-0.03186027,0.12292449
1764767607.2534852,-4.74586,0.65618,-0.28994,0.978696225,-0.03186027,0.12292449
1764767607.2534852,-4.74586,0.65618,-0.28994,0.978696225,-0.03186027,0.12292449
1764767607.2534852,-4.10494,0.3815,-0.0762999999999999,0.979672785,-0.03308097,0.123351735
1764767607.2534852,-4.10494,0.3815,-0.0762999999999999,0.979672785,-0.03308097,0.123351735
1764767607.2534852,-4.10494,0.3815,-0.0762999999999999,0.979672785,-0.03308097,0.123351735
1764767607.2534852,-4.10494,0.3815,-0.0762999999999999,0.979672785,-0.03308097,0.123351735
1764767607.2534852,-4.10494,0.3815,-0.0762999999999999,0.979672785,-0.03308097,0.123351735
1764767607.2534852,-4.10494,0.3815,-0.0762999999999999,0.979672785,-0.03308097,0.123351735
1764767607.2534852,-4.10494,0.3815,-0.0762999999999999,0.979672785,-0.03308097,0.123351735
1764767607.2534852,-4.10494,0.3815,-0.0762999999999999,0.979672785,-0.03308097,0.123351735
1764767607.2534852,-4.10494,0.3815,-0.0762999999999999,0.979672785,-0.03308097,0.123351735
1764767607.2534852,-4.10494,0.3815,-0.0762999999999999,0.979672785,-0.03308097,0.123351735
1764767607.2534852,-3.75396,0.2289,0.50358,0.979672785,-0.03332511,0.12426726
1764767607.2534852,-3.75396,0.2289,0.50358,0.979672785,-0.03332511,0.12426726
1764767607.2534852,-3.75396,0.2289,0.50358,0.979672785,-0.03332511,0.12426726
1764767607.2534852,-3.75396,0.2289,0.50358,0.979672785,-0.03332511,0.12426726
1764767607.3002455,-3.75396,0.2289,0.50358,0.979672785,-0.03332511,0.12426726
1764767607.3002455,-3.75396,0.2289,0.50358,0.979672785,-0.03332511,0.12426726
1764767607.3002455,-3.75396,0.2289,0.50358,0.979672785,-0.03332511,0.12426726
1764767607.3002455,-3.75396,0.2289,0.50358,0.979672785,-0.03332511,0.12426726
1764767607.3002455,-3.75396,0.2289,0.50358,0.979672785,-0.03332511,0.12426726
1764767607.3002455,-3.75396,0.2289,0.50358,0.979672785,-0.03332511,0.12426726
1764767607.3007517,-3.78448,0.04578,0.50358,0.97875726,-0.032653725,0.12353484
1764767607.3007517,-3.78448,0.04578,0.50358,0.97875726,-0.032653725,0.12353484
1764767607.3007517,-3.78448,0.04578,0.50358,0.97875726,-0.032653725,0.12353484
1764767607.3007517,-3.78448,0.04578,0.50358,0.97875726,-0.032653725,0.12353484
1764767607.3007517,-3.78448,0.04578,0.50358,0.97875726,-0.032653725,0.12353484
1764767607.3007517,-3.78448,0.04578,0.50358,0.97875726,-0.032653725,0.12353484
1764767607.3007517,-3.78448,0.04578,0.50358,0.97875726,-0.032653725,0.12353484
1764767607.3007517,-3.78448,0.04578,0.50358,0.97875726,-0.032653725,0.12353484
1764767607.3007517,-3.78448,0.04578,0.50358,0.97875726,-0.032653725,0.12353484
1764767607.3007517,-3.78448,0.04578,0.50358,0.97875726,-0.032653725,0.12353484
1764767607.3007517,-3.95234,-0.19838,1.00716,0.978818295,-0.03210441,0.122741385
1764767607.3007517,-3.95234,-0.19838,1.00716,0.978818295,-0.03210441,0.122741385
1764767607.3007517,-3.95234,-0.19838,1.00716,0.978818295,-0.03210441,0.122741385
1764767607.3007517,-3.95234,-0.19838,1.00716,0.978818295,-0.03210441,0.122741385
1764767607.3007517,-3.95234,-0.19838,1.00716,0.978818295,-0.03210441,0.122741385
1764767607.3007517,-3.95234,-0.19838,1.00716,0.978818295,-0.03210441,0.122741385
1764767607.3007517,-3.95234,-0.19838,1.00716,0.978818295,-0.03210441,0.122741385
1764767607.3007517,-3.95234,-0.19838,1.00716,0.978818295,-0.03210441,0.122741385
1764767607.3464432,-3.95234,-0.19838,1.00716,0.978818295,-0.03210441,0.122741385
1764767607.3464432,-3.95234,-0.19838,1.00716,0.978818295,-0.03210441,0.122741385
1764767607.3464432,-3.41824,-0.03052,0.96138,0.97924554,-0.031433025,0.12219207
1764767607.3464432,-3.41824,-0.03052,0.96138,0.97924554,-0.031433025,0.12219207
1764767607.3469577,-3.41824,-0.03052,0.96138,0.97924554,-0.031433025,0.12219207
1764767607.3469577,-3.41824,-0.03052,0.96138,0.97924554,-0.031433025,0.12219207
1764767607.3469577,-3.41824,-0.03052,0.96138,0.97924554,-0.031433025,0.12219207
1764767607.3469577,-3.41824,-0.03052,0.96138,0.97924554,-0.031433025,0.12219207
1764767607.3469577,-3.41824,-0.03052,0.96138,0.97924554,-0.031433025,0.12219207
1764767607.3469577,-3.41824,-0.03052,0.96138,0.97924554,-0.031433025,0.12219207
1764767607.3469577,-3.41824,-0.03052,0.96138,0.97924554,-0.031433025,0.12219207
1764767607.3469577,-3.41824,-0.03052,0.96138,0.97924554,-0.031433025,0.12219207
1764767607.3469577,-4.1965,0.41202,1.26658,0.979062435,-0.031555095,0.12158172
1764767607.3474677,-4.1965,0.41202,1.26658,0.979062435,-0.031555095,0.12158172
1764767607.3474677,-4.1965,0.41202,1.26658,0.979062435,-0.031555095,0.12158172
1764767607.3474677,-4.1965,0.41202,1.26658,0.979062435,-0.031555095,0.12158172
1764767607.3474677,-4.1965,0.41202,1.26658,0.979062435,-0.031555095,0.12158172
1764767607.3474677,-4.1965,0.41202,1.26658,0.979062435,-0.031555095,0.12158172
1764767607.3474677,-4.1965,0.41202,1.26658,0.979062435,-0.031555095,0.12158172
1764767607.3474677,-4.1965,0.41202,1.26658,0.979062435,-0.031555095,0.12158172
1764767607.3474677,-4.1965,0.41202,1.26658,0.979062435,-0.031555095,0.12158172
1764767607.3474677,-4.1965,0.41202,1.26658,0.979062435,-0.031555095,0.12158172
1764767607.3474677,-4.0439,0.0,1.93802,0.97875726,-0.03259269,0.121032405
1764767607.3474677,-4.0439,0.0,1.93802,0.97875726,-0.03259269,0.121032405
1764767607.394021,-4.0439,0.0,1.93802,0.97875726,-0.03259269,0.121032405
1764767607.394021,-4.0439,0.0,1.93802,0.97875726,-0.03259269,0.121032405
1764767607.394021,-4.0439,0.0,1.93802,0.97875726,-0.03259269,0.121032405
1764767607.394021,-4.0439,0.0,1.93802,0.97875726,-0.03259269,0.121032405
1764767607.394021,-4.0439,0.0,1.93802,0.97875726,-0.03259269,0.121032405
1764767607.394021,-4.0439,0.0,1.93802,0.97875726,-0.03259269,0.121032405
1764767607.394021,-4.0439,0.0,1.93802,0.97875726,-0.03259269,0.121032405
1764767607.394021,-4.0439,0.0,1.93802,0.97875726,-0.03259269,0.121032405
1764767607.394021,-4.4254,0.28994,1.58704,0.978574155,-0.03247062,0.119933775
1764767607.394021,-4.4254,0.28994,1.58704,0.978574155,-0.03247062,0.119933775
1764767607.394021,-4.4254,0.28994,1.58704,0.978574155,-0.03247062,0.119933775
1764767607.394021,-4.4254,0.28994,1.58704,0.978574155,-0.03247062,0.119933775
1764767607.394021,-4.4254,0.28994,1.58704,0.978574155,-0.03247062,0.119933775
1764767607.394021,-4.4254,0.28994,1.58704,0.978574155,-0.03247062,0.119933775
1764767607.394021,-4.4254,0.28994,1.58704,0.978574155,-0.03247062,0.119933775
1764767607.394021,-4.4254,0.28994,1.58704,0.978574155,-0.03247062,0.119933775
1764767607.394021,-4.4254,0.28994,1.58704,0.978574155,-0.03247062,0.119933775
1764767607.394021,-4.4254,0.28994,1.58704,0.978574155,-0.03247062,0.119933775
1764767607.394021,-3.67766,0.3509799999999999,1.57178,0.979184505,-0.03344718,0.1196286
1764767607.394021,-3.67766,0.3509799999999999,1.57178,0.979184505,-0.03344718,0.1196286
1764767607.394021,-3.67766,0.3509799999999999,1.57178,0.979184505,-0.03344718,0.1196286
1764767607.394021,-3.67766,0.3509799999999999,1.57178,0.979184505,-0.03344718,0.1196286
1764767607.394021,-3.67766,0.3509799999999999,1.57178,0.979184505,-0.03344718,0.1196286
1764767607.394021,-3.67766,0.3509799999999999,1.57178,0.979184505,-0.03344718,0.1196286
1764767607.441069,-3.67766,0.3509799999999999,1.57178,0.979184505,-0.03344718,0.1196286
1764767607.441069,-3.67766,0.3509799999999999,1.57178,0.979184505,-0.03344718,0.1196286
1764767607.441069,-3.67766,0.3509799999999999,1.57178,0.979184505,-0.03344718,0.1196286
1764767607.441069,-3.67766,0.3509799999999999,1.57178,0.979184505,-0.03344718,0.1196286
1764767607.441069,-3.40298,0.5341,1.48022,0.98034417,-0.03442374,0.119445495
1764767607.441069,-3.40298,0.5341,1.48022,0.98034417,-0.03442374,0.119445495
1764767607.441069,-3.40298,0.5341,1.48022,0.98034417,-0.03442374,0.119445495
1764767607.441069,-3.40298,0.5341,1.48022,0.98034417,-0.03442374,0.119445495
1764767607.441069,-3.40298,0.5341,1.48022,0.98034417,-0.03442374,0.119445495
1764767607.441069,-3.40298,0.5341,1.48022,0.98034417,-0.03442374,0.119445495
1764767607.441069,-3.40298,0.5341,1.48022,0.98034417,-0.03442374,0.119445495
1764767607.441069,-3.40298,0.5341,1.48022,0.98034417,-0.03442374,0.119445495
1764767607.4420743,-3.40298,0.5341,1.48022,0.98034417,-0.03442374,0.119445495
1764767607.4420743,-3.40298,0.5341,1.48022,0.98034417,-0.03442374,0.119445495
1764767607.4420743,-3.60136,0.79352,1.02242,0.980771415,-0.034606845,0.120055845
1764767607.4420743,-3.60136,0.79352,1.02242,0.980771415,-0.034606845,0.120055845
1764767607.4420743,-3.60136,0.79352,1.02242,0.980771415,-0.034606845,0.120055845
1764767607.4420743,-3.60136,0.79352,1.02242,0.980771415,-0.034606845,0.120055845
1764767607.4420743,-3.60136,0.79352,1.02242,0.980771415,-0.034606845,0.120055845
1764767607.4420743,-3.60136,0.79352,1.02242,0.980771415,-0.034606845,0.120055845
1764767607.4420743,-3.60136,0.79352,1.02242,0.980771415,-0.034606845,0.120055845
1764767607.4420743,-3.60136,0.79352,1.02242,0.980771415,-0.034606845,0.120055845
1764767607.4866846,-3.60136,0.79352,1.02242,0.980771415,-0.034606845,0.120055845
1764767607.4872117,-3.60136,0.79352,1.02242,0.980771415,-0.034606845,0.120055845
1764767607.4872117,-3.64714,1.12924,0.50358,0.981137625,-0.03430167,0.12072723
1764767607.4872117,-3.64714,1.12924,0.50358,0.981137625,-0.03430167,0.12072723
1764767607.4872117,-3.64714,1.12924,0.50358,0.981137625,-0.03430167,0.12072723
1764767607.4872117,-3.64714,1.12924,0.50358,0.981137625,-0.03430167,0.12072723
1764767607.4872117,-3.64714,1.12924,0.50358,0.981137625,-0.03430167,0.12072723
1764767607.4872117,-3.64714,1.12924,0.50358,0.981137625,-0.03430167,0.12072723
1764767607.4872117,-3.64714,1.12924,0.50358,0.981137625,-0.03430167,0.12072723
1764767607.4872117,-3.64714,1.12924,0.50358,0.981137625,-0.03430167,0.12072723
1764767607.4882236,-3.64714,1.12924,0.50358,0.981137625,-0.03430167,0.12072723
1764767607.4882236,-3.64714,1.12924,0.50358,0.981137625,-0.03430167,0.12072723
1764767607.4882236,-3.63188,1.05294,0.51884,0.980405205,-0.034728915,0.120544125
1764767607.4882236,-3.63188,1.05294,0.51884,0.980405205,-0.034728915,0.120544125
1764767607.4882236,-3.63188,1.05294,0.51884,0.980405205,-0.034728915,0.120544125
1764767607.4882236,-3.63188,1.05294,0.51884,0.980405205,-0.034728915,0.120544125
1764767607.4882236,-3.63188,1.05294,0.51884,0.980405205,-0.034728915,0.120544125
1764767607.4882236,-3.63188,1.05294,0.51884,0.980405205,-0.034728915,0.120544125
1764767607.4882236,-3.63188,1.05294,0.51884,0.980405205,-0.034728915,0.120544125
1764767607.4890966,-3.63188,1.05294,0.51884,0.980405205,-0.034728915,0.120544125
1764767607.4890966,-3.63188,1.05294,0.51884,0.980405205,-0.034728915,0.120544125
1764767607.4890966,-3.63188,1.05294,0.51884,0.980405205,-0.034728915,0.120544125
1764767607.536008,-3.815,0.79352,0.8087799999999999,0.97948968,-0.034118565,0.120910335
1764767607.536008,-3.815,0.79352,0.8087799999999999,0.97948968,-0.034118565,0.120910335
1764767607.536008,-3.815,0.79352,0.8087799999999999,0.97948968,-0.034118565,0.120910335
1764767607.536008,-3.815,0.79352,0.8087799999999999,0.97948968,-0.034118565,0.120910335
1764767607.536008,-3.815,0.79352,0.8087799999999999,0.97948968,-0.034118565,0.120910335
1764767607.536008,-3.815,0.79352,0.8087799999999999,0.97948968,-0.034118565,0.120910335
1764767607.536008,-3.815,0.79352,0.8087799999999999,0.97948968,-0.034118565,0.120910335
1764767607.536008,-3.815,0.79352,0.8087799999999999,0.97948968,-0.034118565,0.120910335
1764767607.536008,-3.815,0.79352,0.8087799999999999,0.97948968,-0.034118565,0.120910335
1764767607.536008,-3.815,0.79352,0.8087799999999999,0.97948968,-0.034118565,0.120910335
1764767607.536008,-4.10494,0.94612,0.9919,0.97875726,-0.03234855,0.12048309
1764767607.536008,-4.10494,0.94612,0.9919,0.97875726,-0.03234855,0.12048309
1764767607.536008,-4.10494,0.94612,0.9919,0.97875726,-0.03234855,0.12048309
1764767607.536008,-4.10494,0.94612,0.9919,0.97875726,-0.03234855,0.12048309
1764767607.536008,-4.10494,0.94612,0.9919,0.97875726,-0.03234855,0.12048309
1764767607.536008,-4.10494,0.94612,0.9919,0.97875726,-0.03234855,0.12048309
1764767607.536008,-4.10494,0.94612,0.9919,0.97875726,-0.03234855,0.12048309
1764767607.536008,-4.10494,0.94612,0.9919,0.97875726,-0.03234855,0.12048309
1764767607.536008,-4.10494,0.94612,0.9919,0.97875726,-0.03234855,0.12048309
1764767607.536008,-4.10494,0.94612,0.9919,0.97875726,-0.03234855,0.12048309
1764767607.536008,-3.84552,1.12924,0.39676,0.97802484,-0.03198234,0.1208493
1764767607.536008,-3.84552,1.12924,0.39676,0.97802484,-0.03198234,0.1208493
1764767607.536008,-3.84552,1.12924,0.39676,0.97802484,-0.03198234,0.1208493
1764767607.536008,-3.84552,1.12924,0.39676,0.97802484,-0.03198234,0.1208493
1764767607.5820255,-3.84552,1.12924,0.39676,0.97802484,-0.03198234,0.1208493
1764767607.5820255,-3.84552,1.12924,0.39676,0.97802484,-0.03198234,0.1208493
1764767607.5820255,-3.84552,1.12924,0.39676,0.97802484,-0.03198234,0.1208493
1764767607.5820255,-3.84552,1.12924,0.39676,0.97802484,-0.03198234,0.1208493
1764767607.5820255,-3.84552,1.12924,0.39676,0.97802484,-0.03198234,0.1208493
1764767607.5820255,-3.84552,1.12924,0.39676,0.97802484,-0.03198234,0.1208493
1764767607.5820255,-4.41014,0.93086,0.79352,0.978452085,-0.032287515,0.12060516
1764767607.5820255,-4.41014,0.93086,0.79352,0.978452085,-0.032287515,0.12060516
1764767607.5820255,-4.41014,0.93086,0.79352,0.978452085,-0.032287515,0.12060516
1764767607.5820255,-4.41014,0.93086,0.79352,0.978452085,-0.032287515,0.12060516
1764767607.5820255,-4.41014,0.93086,0.79352,0.978452085,-0.032287515,0.12060516
1764767607.5820255,-4.41014,0.93086,0.79352,0.978452085,-0.032287515,0.12060516
1764767607.5820255,-4.41014,0.93086,0.79352,0.978452085,-0.032287515,0.12060516
1764767607.5820255,-4.41014,0.93086,0.79352,0.978452085,-0.032287515,0.12060516
1764767607.5820255,-4.41014,0.93086,0.79352,0.978452085,-0.032287515,0.12060516
1764767607.5820255,-4.41014,0.93086,0.79352,0.978452085,-0.032287515,0.12060516
1764767607.5820255,-4.059159999999999,0.47306,0.93086,0.978330015,-0.03308097,0.12121551
1764767607.5820255,-4.059159999999999,0.47306,0.93086,0.978330015,-0.03308097,0.12121551
1764767607.5820255,-4.059159999999999,0.47306,0.93086,0.978330015,-0.03308097,0.12121551
1764767607.5820255,-4.059159999999999,0.47306,0.93086,0.978330015,-0.03308097,0.12121551
1764767607.5820255,-4.059159999999999,0.47306,0.93086,0.978330015,-0.03308097,0.12121551
1764767607.5820255,-4.059159999999999,0.47306,0.93086,0.978330015,-0.03308097,0.12121551
1764767607.6282003,-4.059159999999999,0.47306,0.93086,0.978330015,-0.03308097,0.12121551
1764767607.6282003,-4.059159999999999,0.47306,0.93086,0.978330015,-0.03308097,0.12121551
1764767607.6282003,-4.059159999999999,0.47306,0.93086,0.978330015,-0.03308097,0.12121551
1764767607.6282003,-4.059159999999999,0.47306,0.93086,0.978330015,-0.03308097,0.12121551
1764767607.6282003,-4.33384,0.94612,0.763,0.9790014,-0.033264075,0.121154475
1764767607.6282003,-4.33384,0.94612,0.763,0.9790014,-0.033264075,0.121154475
1764767607.6282003,-4.33384,0.94612,0.763,0.9790014,-0.033264075,0.121154475
1764767607.6282003,-4.33384,0.94612,0.763,0.9790014,-0.033264075,0.121154475
1764767607.6282003,-4.33384,0.94612,0.763,0.9790014,-0.033264075,0.121154475
1764767607.6282003,-4.33384,0.94612,0.763,0.9790014,-0.033264075,0.121154475
1764767607.6282003,-4.33384,0.94612,0.763,0.9790014,-0.033264075,0.121154475
1764767607.6282003,-4.33384,0.94612,0.763,0.9790014,-0.033264075,0.121154475
1764767607.6282003,-4.33384,0.94612,0.763,0.9790014,-0.033264075,0.121154475
1764767607.6282003,-4.33384,0.94612,0.763,0.9790014,-0.033264075,0.121154475
