Timestamp,GyroX,GyroY,GyroZ,AccX,AccY,AccZ
1764768228.5172985,-3.26564,1.26658,0.5341,0.978940365,-0.04418934,0.12097137
1764768228.5172985,-3.26564,1.26658,0.5341,0.978940365,-0.04418934,0.12097137
1764768228.5172985,-3.26564,1.26658,0.5341,0.978940365,-0.04418934,0.12097137
1764768228.5172985,-3.26564,1.26658,0.5341,0.978940365,-0.04418934,0.12097137
1764768228.5172985,-3.26564,1.26658,0.5341,0.978940365,-0.04418934,0.12097137
1764768228.5172985,-3.26564,1.26658,0.5341,0.978940365,-0.04418934,0.12097137
1764768228.5172985,-3.26564,1.26658,0.5341,0.978940365,-0.04418934,0.12097137
1764768228.5172985,-3.26564,1.26658,0.5341,0.978940365,-0.04418934,0.12097137
1764768228.5172985,-3.26564,1.26658,0.5341,0.978940365,-0.04418934,0.12097137
1764768228.5172985,-3.3572,0.8698199999999999,0.94612,0.97887933,-0.04370106,0.120788265
1764768228.5172985,-3.3572,0.8698199999999999,0.94612,0.97887933,-0.04370106,0.120788265
1764768228.5172985,-3.3572,0.8698199999999999,0.94612,0.97887933,-0.04370106,0.120788265
1764768228.5172985,-3.3572,0.8698199999999999,0.94612,0.97887933,-0.04370106,0.120788265
1764768228.5172985,-3.3572,0.8698199999999999,0.94612,0.97887933,-0.04370106,0.120788265
1764768228.5172985,-3.3572,0.8698199999999999,0.94612,0.97887933,-0.04370106,0.120788265
1764768228.5172985,-3.3572,0.8698199999999999,0.94612,0.97887933,-0.04370106,0.120788265
1764768228.5172985,-3.3572,0.8698199999999999,0.94612,0.97887933,-0.04370106,0.120788265
1764768228.5172985,-3.3572,0.8698199999999999,0.94612,0.97887933,-0.04370106,0.120788265
1764768228.5172985,-3.3572,0.8698199999999999,0.94612,0.97887933,-0.04370106,0.120788265
1764768228.5172985,-3.2046,0.88508,0.8392999999999999,0.978940365,-0.044494515,0.12060516
1764768228.5172985,-3.2046,0.88508,0.8392999999999999,0.978940365,-0.044494515,0.12060516
1764768228.5172985,-3.2046,0.88508,0.8392999999999999,0.978940365,-0.044494515,0.12060516
1764768228.5172985,-3.2046,0.88508,0.8392999999999999,0.978940365,-0.044494515,0.12060516
1764768228.5634868,-3.2046,0.88508,0.8392999999999999,0.978940365,-0.044494515,0.12060516
1764768228.5634868,-3.2046,0.88508,0.8392999999999999,0.978940365,-0.044494515,0.12060516
1764768228.5634868,-3.2046,0.88508,0.8392999999999999,0.978940365,-0.044494515,0.12060516
1764768228.5634868,-3.2046,0.88508,0.8392999999999999,0.978940365,-0.044494515,0.12060516
1764768228.5634868,-3.2046,0.88508,0.8392999999999999,0.978940365,-0.044494515,0.12060516
1764768228.5634868,-3.2046,0.88508,0.8392999999999999,0.978940365,-0.044494515,0.12060516
1764768228.5634868,-2.9757,0.73248,1.2055399999999998,0.979184505,-0.043640025,0.12072723
1764768228.5634868,-2.9757,0.73248,1.2055399999999998,0.979184505,-0.043640025,0.12072723
1764768228.5634868,-2.9757,0.73248,1.2055399999999998,0.979184505,-0.043640025,0.12072723
1764768228.5634868,-2.9757,0.73248,1.2055399999999998,0.979184505,-0.043640025,0.12072723
1764768228.5634868,-2.9757,0.73248,1.2055399999999998,0.979184505,-0.043640025,0.12072723
1764768228.5634868,-2.9757,0.73248,1.2055399999999998,0.979184505,-0.043640025,0.12072723
1764768228.5634868,-2.9757,0.73248,1.2055399999999998,0.979184505,-0.043640025,0.12072723
1764768228.5634868,-2.9757,0.73248,1.2055399999999998,0.979184505,-0.043640025,0.12072723
1764768228.5634868,-2.9757,0.73248,1.2055399999999998,0.979184505,-0.043640025,0.12072723
1764768228.5634868,-2.9757,0.73248,1.2055399999999998,0.979184505,-0.043640025,0.12072723
1764768228.5634868,-3.21986,0.77826,0.9919,0.97973382,-0.04296864,0.1208493
1764768228.5634868,-3.21986,0.77826,0.9919,0.97973382,-0.04296864,0.1208493
1764768228.5634868,-3.21986,0.77826,0.9919,0.97973382,-0.04296864,0.1208493
1764768228.5634868,-3.21986,0.77826,0.9919,0.97973382,-0.04296864,0.1208493
1764768228.5634868,-3.21986,0.77826,0.9919,0.97973382,-0.04296864,0.1208493
1764768228.5634868,-3.21986,0.77826,0.9919,0.97973382,-0.04296864,0.1208493
1764768228.610603,-3.21986,0.77826,0.9919,0.97973382,-0.04296864,0.1208493
1764768228.610603,-3.21986,0.77826,0.9919,0.97973382,-0.04296864,0.1208493
1764768228.610603,-3.21986,0.77826,0.9919,0.97973382,-0.04296864,0.1208493
1764768228.610603,-3.21986,0.77826,0.9919,0.97973382,-0.04296864,0.1208493
1764768228.610603,-3.44876,0.9919,1.31236,0.97924554,-0.0427245,0.12072723
1764768228.610603,-3.44876,0.9919,1.31236,0.97924554,-0.0427245,0.12072723
1764768228.610603,-3.44876,0.9919,1.31236,0.97924554,-0.0427245,0.12072723
1764768228.610603,-3.44876,0.9919,1.31236,0.97924554,-0.0427245,0.12072723
1764768228.610603,-3.44876,0.9919,1.31236,0.97924554,-0.0427245,0.12072723
1764768228.610603,-3.44876,0.9919,1.31236,0.97924554,-0.0427245,0.12072723
1764768228.610603,-3.44876,0.9919,1.31236,0.97924554,-0.0427245,0.12072723
1764768228.610603,-3.44876,0.9919,1.31236,0.97924554,-0.0427245,0.12072723
1764768228.610603,-3.44876,0.9919,1.31236,0.97924554,-0.0427245,0.12072723
1764768228.610603,-3.44876,0.9919,1.31236,0.97924554,-0.0427245,0.12072723
1764768228.610603,-3.93708,1.03768,0.6867,0.980161065,-0.04223622,0.120422055
1764768228.610603,-3.93708,1.03768,0.6867,0.980161065,-0.04223622,0.120422055
1764768228.6109238,-3.93708,1.03768,0.6867,0.980161065,-0.04223622,0.120422055
1764768228.6109238,-3.93708,1.03768,0.6867,0.980161065,-0.04223622,0.120422055
1764768228.6109238,-3.93708,1.03768,0.6867,0.980161065,-0.04223622,0.120422055
1764768228.6109238,-3.93708,1.03768,0.6867,0.980161065,-0.04223622,0.120422055
1764768228.6109238,-3.93708,1.03768,0.6867,0.980161065,-0.04223622,0.120422055
1764768228.6109238,-3.93708,1.03768,0.6867,0.980161065,-0.04223622,0.120422055
1764768228.6109238,-3.93708,1.03768,0.6867,0.980161065,-0.04223622,0.120422055
1764768228.6109238,-3.93708,1.03768,0.6867,0.980161065,-0.04223622,0.120422055
1764768228.6567478,-3.92182,0.96138,0.39676,0.980161065,-0.042175185,0.12072723
1764768228.6567478,-3.92182,0.96138,0.39676,0.980161065,-0.042175185,0.12072723
1764768228.6567478,-3.92182,0.96138,0.39676,0.980161065,-0.042175185,0.12072723
1764768228.6567478,-3.92182,0.96138,0.39676,0.980161065,-0.042175185,0.12072723
1764768228.6567478,-3.92182,0.96138,0.39676,0.980161065,-0.042175185,0.12072723
1764768228.6567478,-3.92182,0.96138,0.39676,0.980161065,-0.042175185,0.12072723
1764768228.657753,-3.92182,0.96138,0.39676,0.980161065,-0.042175185,0.12072723
1764768228.657753,-3.92182,0.96138,0.39676,0.980161065,-0.042175185,0.12072723
1764768228.657753,-3.92182,0.96138,0.39676,0.980161065,-0.042175185,0.12072723
1764768228.657753,-3.92182,0.96138,0.39676,0.980161065,-0.042175185,0.12072723
1764768228.657753,-4.66956,0.77826,0.8392999999999999,0.979794855,-0.042175185,0.120666195
1764768228.657753,-4.66956,0.77826,0.8392999999999999,0.979794855,-0.042175185,0.120666195
1764768228.657753,-4.66956,0.77826,0.8392999999999999,0.979794855,-0.042175185,0.120666195
1764768228.657753,-4.66956,0.77826,0.8392999999999999,0.979794855,-0.042175185,0.120666195
1764768228.657753,-4.66956,0.77826,0.8392999999999999,0.979794855,-0.042175185,0.120666195
1764768228.657753,-4.66956,0.77826,0.8392999999999999,0.979794855,-0.042175185,0.120666195
1764768228.657753,-4.66956,0.77826,0.8392999999999999,0.979794855,-0.042175185,0.120666195
1764768228.657753,-4.66956,0.77826,0.8392999999999999,0.979794855,-0.042175185,0.120666195
1764768228.657753,-4.66956,0.77826,0.8392999999999999,0.979794855,-0.042175185,0.120666195
1764768228.657753,-4.66956,0.77826,0.8392999999999999,0.979794855,-0.042175185,0.120666195
1764768228.657753,-4.5017,0.79352,1.02242,0.979672785,-0.04296864,0.12060516
1764768228.657753,-4.5017,0.79352,1.02242,0.979672785,-0.04296864,0.12060516
1764768228.703609,-4.5017,0.79352,1.02242,0.979672785,-0.04296864,0.12060516
1764768228.703609,-4.5017,0.79352,1.02242,0.979672785,-0.04296864,0.12060516
1764768228.703609,-4.5017,0.79352,1.02242,0.979672785,-0.04296864,0.12060516
1764768228.703609,-4.5017,0.79352,1.02242,0.979672785,-0.04296864,0.12060516
1764768228.703609,-4.5017,0.79352,1.02242,0.979672785,-0.04296864,0.12060516
1764768228.703609,-4.5017,0.79352,1.02242,0.979672785,-0.04296864,0.12060516
1764768228.703609,-4.5017,0.79352,1.02242,0.979672785,-0.04296864,0.12060516
1764768228.703609,-4.5017,0.79352,1.02242,0.979672785,-0.04296864,0.12060516
1764768228.704639,-3.84552,0.96138,1.526,0.97948968,-0.043640025,0.12023895
1764768228.704639,-3.84552,0.96138,1.526,0.97948968,-0.043640025,0.12023895
1764768228.704639,-3.84552,0.96138,1.526,0.97948968,-0.043640025,0.12023895
1764768228.704639,-3.84552,0.96138,1.526,0.97948968,-0.043640025,0.12023895
1764768228.704639,-3.84552,0.96138,1.526,0.97948968,-0.043640025,0.12023895
1764768228.704639,-3.84552,0.96138,1.526,0.97948968,-0.043640025,0.12023895
1764768228.704639,-3.84552,0.96138,1.526,0.97948968,-0.043640025,0.12023895
1764768228.704639,-3.84552,0.96138,1.526,0.97948968,-0.043640025,0.12023895
1764768228.704639,-3.84552,0.96138,1.526,0.97948968,-0.043640025,0.12023895
1764768228.704639,-3.84552,0.96138,1.526,0.97948968,-0.043640025,0.12023895
1764768228.704639,-4.059159999999999,1.15976,1.2055399999999998,0.979428645,-0.04443348,0.12011688
1764768228.704639,-4.059159999999999,1.15976,1.2055399999999998,0.979428645,-0.04443348,0.12011688
1764768228.704639,-4.059159999999999,1.15976,1.2055399999999998,0.979428645,-0.04443348,0.12011688
1764768228.704639,-4.059159999999999,1.15976,1.2055399999999998,0.979428645,-0.04443348,0.12011688
1764768228.704639,-4.059159999999999,1.15976,1.2055399999999998,0.979428645,-0.04443348,0.12011688
1764768228.704639,-4.059159999999999,1.15976,1.2055399999999998,0.979428645,-0.04443348,0.12011688
1764768228.7509837,-4.059159999999999,1.15976,1.2055399999999998,0.979428645,-0.04443348,0.12011688
1764768228.7509837,-4.059159999999999,1.15976,1.2055399999999998,0.979428645,-0.04443348,0.12011688
1764768228.7509837,-4.059159999999999,1.15976,1.2055399999999998,0.979428645,-0.04443348,0.12011688
1764768228.7509837,-4.059159999999999,1.15976,1.2055399999999998,0.979428645,-0.04443348,0.12011688
1764768228.7509837,-3.6624,1.64808,0.79352,0.98095452,-0.045471075,0.12048309
1764768228.7509837,-3.6624,1.64808,0.79352,0.98095452,-0.045471075,0.12048309
1764768228.7509837,-3.6624,1.64808,0.79352,0.98095452,-0.045471075,0.12048309
1764768228.7509837,-3.6624,1.64808,0.79352,0.98095452,-0.045471075,0.12048309
1764768228.7509837,-3.6624,1.64808,0.79352,0.98095452,-0.045471075,0.12048309
1764768228.7509837,-3.6624,1.64808,0.79352,0.98095452,-0.045471075,0.12048309
1764768228.7509837,-3.6624,1.64808,0.79352,0.98095452,-0.045471075,0.12048309
1764768228.7509837,-3.6624,1.64808,0.79352,0.98095452,-0.045471075,0.12048309
1764768228.7509837,-3.6624,1.64808,0.79352,0.98095452,-0.045471075,0.12048309
1764768228.7509837,-3.6624,1.64808,0.79352,0.98095452,-0.045471075,0.12048309
1764768228.7509837,-2.77732,0.8392999999999999,0.85456,0.979062435,-0.046691775,0.12011688
1764768228.7509837,-2.77732,0.8392999999999999,0.85456,0.979062435,-0.046691775,0.12011688
1764768228.7509837,-2.77732,0.8392999999999999,0.85456,0.979062435,-0.046691775,0.12011688
1764768228.7509837,-2.77732,0.8392999999999999,0.85456,0.979062435,-0.046691775,0.12011688
1764768228.7509837,-2.77732,0.8392999999999999,0.85456,0.979062435,-0.046691775,0.12011688
1764768228.7509837,-2.77732,0.8392999999999999,0.85456,0.979062435,-0.046691775,0.12011688
1764768228.7509837,-2.77732,0.8392999999999999,0.85456,0.979062435,-0.046691775,0.12011688
1764768228.7509837,-2.77732,0.8392999999999999,0.85456,0.979062435,-0.046691775,0.12011688
1764768228.794378,-2.77732,0.8392999999999999,0.85456,0.979062435,-0.046691775,0.12011688
1764768228.794378,-2.77732,0.8392999999999999,0.85456,0.979062435,-0.046691775,0.12011688
1764768228.794378,-2.4416,0.10682,0.9156,0.97851312,-0.047057985,0.120422055
1764768228.794378,-2.4416,0.10682,0.9156,0.97851312,-0.047057985,0.120422055
1764768228.794378,-2.4416,0.10682,0.9156,0.97851312,-0.047057985,0.120422055
1764768228.794378,-2.4416,0.10682,0.9156,0.97851312,-0.047057985,0.120422055
1764768228.794378,-2.4416,0.10682,0.9156,0.97851312,-0.047057985,0.120422055
1764768228.794891,-2.4416,0.10682,0.9156,0.97851312,-0.047057985,0.120422055
1764768228.794891,-2.4416,0.10682,0.9156,0.97851312,-0.047057985,0.120422055
1764768228.794891,-2.4416,0.10682,0.9156,0.97851312,-0.047057985,0.120422055
1764768228.794891,-2.4416,0.10682,0.9156,0.97851312,-0.047057985,0.120422055
1764768228.794891,-2.4416,0.10682,0.9156,0.97851312,-0.047057985,0.120422055
1764768228.794891,-2.39582,0.21364,0.36624,0.97948968,-0.045715215,0.1196286
1764768228.794891,-2.39582,0.21364,0.36624,0.97948968,-0.045715215,0.1196286
1764768228.794891,-2.39582,0.21364,0.36624,0.97948968,-0.045715215,0.1196286
1764768228.794891,-2.39582,0.21364,0.36624,0.97948968,-0.045715215,0.1196286
1764768228.794891,-2.39582,0.21364,0.36624,0.97948968,-0.045715215,0.1196286
1764768228.794891,-2.39582,0.21364,0.36624,0.97948968,-0.045715215,0.1196286
1764768228.794891,-2.39582,0.21364,0.36624,0.97948968,-0.045715215,0.1196286
1764768228.794891,-2.39582,0.21364,0.36624,0.97948968,-0.045715215,0.1196286
1764768228.794891,-2.39582,0.21364,0.36624,0.97948968,-0.045715215,0.1196286
1764768228.794891,-2.39582,0.21364,0.36624,0.97948968,-0.045715215,0.1196286
1764768228.7959175,-2.80784,1.09872,0.28994,0.98119866,-0.04467762,0.119445495
1764768228.7959175,-2.80784,1.09872,0.28994,0.98119866,-0.04467762,0.119445495
1764768228.8417895,-2.80784,1.09872,0.28994,0.98119866,-0.04467762,0.119445495
1764768228.8417895,-2.80784,1.09872,0.28994,0.98119866,-0.04467762,0.119445495
1764768228.8417895,-2.80784,1.09872,0.28994,0.98119866,-0.04467762,0.119445495
1764768228.8417895,-2.80784,1.09872,0.28994,0.98119866,-0.04467762,0.119445495
1764768228.8417895,-2.80784,1.09872,0.28994,0.98119866,-0.04467762,0.119445495
1764768228.8417895,-2.80784,1.09872,0.28994,0.98119866,-0.04467762,0.119445495
1764768228.8417895,-2.80784,1.09872,0.28994,0.98119866,-0.04467762,0.119445495
1764768228.8417895,-2.80784,1.09872,0.28994,0.98119866,-0.04467762,0.119445495
1764768228.8417895,-3.6624,1.93802,-0.01526,0.98095452,-0.0427245,0.118713075
1764768228.8417895,-3.6624,1.93802,-0.01526,0.98095452,-0.0427245,0.118713075
1764768228.8417895,-3.6624,1.93802,-0.01526,0.98095452,-0.0427245,0.118713075
1764768228.8417895,-3.6624,1.93802,-0.01526,0.98095452,-0.0427245,0.118713075
1764768228.8417895,-3.6624,1.93802,-0.01526,0.98095452,-0.0427245,0.118713075
1764768228.8417895,-3.6624,1.93802,-0.01526,0.98095452,-0.0427245,0.118713075
1764768228.8417895,-3.6624,1.93802,-0.01526,0.98095452,-0.0427245,0.118713075
1764768228.8417895,-3.6624,1.93802,-0.01526,0.98095452,-0.0427245,0.118713075
1764768228.8430183,-3.6624,1.93802,-0.01526,0.98095452,-0.0427245,0.118713075
1764768228.8430183,-3.6624,1.93802,-0.01526,0.98095452,-0.0427245,0.118713075
1764768228.8430183,-4.3491,1.87698,-0.71722,0.979672785,-0.041198625,0.11865204
1764768228.8430183,-4.3491,1.87698,-0.71722,0.979672785,-0.041198625,0.11865204
1764768228.8430183,-4.3491,1.87698,-0.71722,0.979672785,-0.041198625,0.11865204
1764768228.8430183,-4.3491,1.87698,-0.71722,0.979672785,-0.041198625,0.11865204
1764768228.8903656,-4.3491,1.87698,-0.71722,0.979672785,-0.041198625,0.11865204
1764768228.8903656,-4.3491,1.87698,-0.71722,0.979672785,-0.041198625,0.11865204
1764768228.8903656,-4.3491,1.87698,-0.71722,0.979672785,-0.041198625,0.11865204
1764768228.8903656,-4.3491,1.87698,-0.71722,0.979672785,-0.041198625,0.11865204
1764768228.8903656,-4.3491,1.87698,-0.71722,0.979672785,-0.041198625,0.11865204
1764768228.8903656,-4.3491,1.87698,-0.71722,0.979672785,-0.041198625,0.11865204
1764768228.8903656,-5.15788,1.7549,-0.6867,0.97936761,-0.041442765,0.11914032
1764768228.8903656,-5.15788,1.7549,-0.6867,0.97936761,-0.041442765,0.11914032
1764768228.8903656,-5.15788,1.7549,-0.6867,0.97936761,-0.041442765,0.11914032
1764768228.8903656,-5.15788,1.7549,-0.6867,0.97936761,-0.041442765,0.11914032
1764768228.8903656,-5.15788,1.7549,-0.6867,0.97936761,-0.041442765,0.11914032
1764768228.8903656,-5.15788,1.7549,-0.6867,0.97936761,-0.041442765,0.11914032
1764768228.8903656,-5.15788,1.7549,-0.6867,0.97936761,-0.041442765,0.11914032
1764768228.8903656,-5.15788,1.7549,-0.6867,0.97936761,-0.041442765,0.11914032
1764768228.8903656,-5.15788,1.7549,-0.6867,0.97936761,-0.041442765,0.11914032
1764768228.8903656,-5.15788,1.7549,-0.6867,0.97936761,-0.041442765,0.11914032
1764768228.8903656,-4.715339999999999,1.73964,-0.09156,0.97887933,-0.04223622,0.1208493
1764768228.8903656,-4.715339999999999,1.73964,-0.09156,0.97887933,-0.04223622,0.1208493
1764768228.8903656,-4.715339999999999,1.73964,-0.09156,0.97887933,-0.04223622,0.1208493
1764768228.8903656,-4.715339999999999,1.73964,-0.09156,0.97887933,-0.04223622,0.1208493
1764768228.8903656,-4.715339999999999,1.73964,-0.09156,0.97887933,-0.04223622,0.1208493
1764768228.8903656,-4.715339999999999,1.73964,-0.09156,0.97887933,-0.04223622,0.1208493
1764768228.8903656,-4.715339999999999,1.73964,-0.09156,0.97887933,-0.04223622,0.1208493
1764768228.8903656,-4.715339999999999,1.73964,-0.09156,0.97887933,-0.04223622,0.1208493
1764768228.9332013,-4.715339999999999,1.73964,-0.09156,0.97887933,-0.04223622,0.1208493
1764768228.933713,-4.715339999999999,1.73964,-0.09156,0.97887933,-0.04223622,0.1208493
1764768228.933713,-4.47118,1.15976,0.51884,0.978574155,-0.043273815,0.12194793
1764768228.933713,-4.47118,1.15976,0.51884,0.978574155,-0.043273815,0.12194793
1764768228.933713,-4.47118,1.15976,0.51884,0.978574155,-0.043273815,0.12194793
1764768228.933713,-4.47118,1.15976,0.51884,0.978574155,-0.043273815,0.12194793
1764768228.933713,-4.47118,1.15976,0.51884,0.978574155,-0.043273815,0.12194793
1764768228.933713,-4.47118,1.15976,0.51884,0.978574155,-0.043273815,0.12194793
1764768228.933713,-4.47118,1.15976,0.51884,0.978574155,-0.043273815,0.12194793
1764768228.933713,-4.47118,1.15976,0.51884,0.978574155,-0.043273815,0.12194793
1764768228.933713,-4.47118,1.15976,0.51884,0.978574155,-0.043273815,0.12194793
1764768228.933713,-4.47118,1.15976,0.51884,0.978574155,-0.043273815,0.12194793
1764768228.933713,-3.8913,1.48022,0.73248,0.979306575,-0.044006235,0.122131035
1764768228.933713,-3.8913,1.48022,0.73248,0.979306575,-0.044006235,0.122131035
1764768228.933713,-3.8913,1.48022,0.73248,0.979306575,-0.044006235,0.122131035
1764768228.933713,-3.8913,1.48022,0.73248,0.979306575,-0.044006235,0.122131035
1764768228.933713,-3.8913,1.48022,0.73248,0.979306575,-0.044006235,0.122131035
1764768228.933713,-3.8913,1.48022,0.73248,0.979306575,-0.044006235,0.122131035
1764768228.933713,-3.8913,1.48022,0.73248,0.979306575,-0.044006235,0.122131035
1764768228.933713,-3.8913,1.48022,0.73248,0.979306575,-0.044006235,0.122131035
1764768228.933713,-3.8913,1.48022,0.73248,0.979306575,-0.044006235,0.122131035
1764768228.933713,-3.8913,1.48022,0.73248,0.979306575,-0.044006235,0.122131035
1764768228.933713,-2.88414,1.2208,1.03768,0.97912347,-0.04479969,0.122253105
1764768228.933713,-2.88414,1.2208,1.03768,0.97912347,-0.04479969,0.122253105
1764768228.980506,-2.88414,1.2208,1.03768,0.97912347,-0.04479969,0.122253105
1764768228.980506,-2.88414,1.2208,1.03768,0.97912347,-0.04479969,0.122253105
1764768228.980506,-2.88414,1.2208,1.03768,0.97912347,-0.04479969,0.122253105
1764768228.980506,-2.88414,1.2208,1.03768,0.97912347,-0.04479969,0.122253105
1764768228.980506,-2.88414,1.2208,1.03768,0.97912347,-0.04479969,0.122253105
1764768228.980506,-2.88414,1.2208,1.03768,0.97912347,-0.04479969,0.122253105
1764768228.980506,-2.88414,1.2208,1.03768,0.97912347,-0.04479969,0.122253105
1764768228.980506,-2.88414,1.2208,1.03768,0.97912347,-0.04479969,0.122253105
1764768228.980506,-2.18218,0.763,0.85456,0.979184505,-0.04443348,0.122131035
1764768228.980506,-2.18218,0.763,0.85456,0.979184505,-0.04443348,0.122131035
1764768228.980506,-2.18218,0.763,0.85456,0.979184505,-0.04443348,0.122131035
1764768228.980506,-2.18218,0.763,0.85456,0.979184505,-0.04443348,0.122131035
1764768228.980506,-2.18218,0.763,0.85456,0.979184505,-0.04443348,0.122131035
1764768228.980506,-2.18218,0.763,0.85456,0.979184505,-0.04443348,0.122131035
1764768228.980506,-2.18218,0.763,0.85456,0.979184505,-0.04443348,0.122131035
1764768228.980506,-2.18218,0.763,0.85456,0.979184505,-0.04443348,0.122131035
1764768228.980506,-2.18218,0.763,0.85456,0.979184505,-0.04443348,0.122131035
1764768228.980506,-2.18218,0.763,0.85456,0.979184505,-0.04443348,0.122131035
1764768228.980506,-2.73154,1.02242,0.65618,0.978940365,-0.043151745,0.12194793
1764768228.980506,-2.73154,1.02242,0.65618,0.978940365,-0.043151745,0.12194793
1764768228.9826016,-2.73154,1.02242,0.65618,0.978940365,-0.043151745,0.12194793
1764768228.9826016,-2.73154,1.02242,0.65618,0.978940365,-0.043151745,0.12194793
1764768229.0291717,-2.73154,1.02242,0.65618,0.978940365,-0.043151745,0.12194793
1764768229.0291717,-2.73154,1.02242,0.65618,0.978940365,-0.043151745,0.12194793
1764768229.0291717,-2.73154,1.02242,0.65618,0.978940365,-0.043151745,0.12194793
1764768229.0291717,-2.73154,1.02242,0.65618,0.978940365,-0.043151745,0.12194793
1764768229.0291717,-2.73154,1.02242,0.65618,0.978940365,-0.043151745,0.12194793
1764768229.0291717,-2.73154,1.02242,0.65618,0.978940365,-0.043151745,0.12194793
1764768229.0291717,-2.65524,0.8698199999999999,1.15976,0.97802484,-0.04187001,0.122008965
1764768229.0291717,-2.65524,0.8698199999999999,1.15976,0.97802484,-0.04187001,0.122008965
1764768229.0291717,-2.65524,0.8698199999999999,1.15976,0.97802484,-0.04187001,0.122008965
1764768229.0291717,-2.65524,0.8698199999999999,1.15976,0.97802484,-0.04187001,0.122008965
1764768229.0291717,-2.65524,0.8698199999999999,1.15976,0.97802484,-0.04187001,0.122008965
1764768229.0291717,-2.65524,0.8698199999999999,1.15976,0.97802484,-0.04187001,0.122008965
1764768229.0291717,-2.65524,0.8698199999999999,1.15976,0.97802484,-0.04187001,0.122008965
1764768229.0291717,-2.65524,0.8698199999999999,1.15976,0.97802484,-0.04187001,0.122008965
1764768229.0291717,-2.65524,0.8698199999999999,1.15976,0.97802484,-0.04187001,0.122008965
1764768229.0291717,-2.65524,0.8698199999999999,1.15976,0.97802484,-0.04187001,0.122008965
1764768229.0291717,-3.2809,0.763,1.6633399999999998,0.97790277,-0.04187001,0.12219207
1764768229.0291717,-3.2809,0.763,1.6633399999999998,0.97790277,-0.04187001,0.12219207
1764768229.0301738,-3.2809,0.763,1.6633399999999998,0.97790277,-0.04187001,0.12219207
1764768229.0301738,-3.2809,0.763,1.6633399999999998,0.97790277,-0.04187001,0.12219207
1764768229.0301738,-3.2809,0.763,1.6633399999999998,0.97790277,-0.04187001,0.12219207
1764768229.0301738,-3.2809,0.763,1.6633399999999998,0.97790277,-0.04187001,0.12219207
1764768229.0301738,-3.2809,0.763,1.6633399999999998,0.97790277,-0.04187001,0.12219207
1764768229.0301738,-3.2809,0.763,1.6633399999999998,0.97790277,-0.04187001,0.12219207
1764768229.073653,-3.2809,0.763,1.6633399999999998,0.97790277,-0.04187001,0.12219207
1764768229.073653,-3.2809,0.763,1.6633399999999998,0.97790277,-0.04187001,0.12219207
1764768229.073653,-3.38772,0.18312,1.48022,0.97802484,-0.04248036,0.121764825
1764768229.073653,-3.38772,0.18312,1.48022,0.97802484,-0.04248036,0.121764825
1764768229.073653,-3.38772,0.18312,1.48022,0.97802484,-0.04248036,0.121764825
1764768229.073653,-3.38772,0.18312,1.48022,0.97802484,-0.04248036,0.121764825
1764768229.073653,-3.38772,0.18312,1.48022,0.97802484,-0.04248036,0.121764825
1764768229.073653,-3.38772,0.18312,1.48022,0.97802484,-0.04248036,0.121764825
1764768229.073653,-3.38772,0.18312,1.48022,0.97802484,-0.04248036,0.121764825
1764768229.073653,-3.38772,0.18312,1.48022,0.97802484,-0.04248036,0.121764825
1764768229.073653,-3.38772,0.18312,1.48022,0.97802484,-0.04248036,0.121764825
1764768229.073653,-3.38772,0.18312,1.48022,0.97802484,-0.04248036,0.121764825
1764768229.073653,-3.21986,0.73248,0.96138,0.979184505,-0.042785535,0.12121551
1764768229.0748944,-3.21986,0.73248,0.96138,0.979184505,-0.042785535,0.12121551
1764768229.0748944,-3.21986,0.73248,0.96138,0.979184505,-0.042785535,0.12121551
1764768229.0748944,-3.21986,0.73248,0.96138,0.979184505,-0.042785535,0.12121551
1764768229.0748944,-3.21986,0.73248,0.96138,0.979184505,-0.042785535,0.12121551
1764768229.0748944,-3.21986,0.73248,0.96138,0.979184505,-0.042785535,0.12121551
1764768229.0748944,-3.21986,0.73248,0.96138,0.979184505,-0.042785535,0.12121551
1764768229.0748944,-3.21986,0.73248,0.96138,0.979184505,-0.042785535,0.12121551
1764768229.0748944,-3.21986,0.73248,0.96138,0.979184505,-0.042785535,0.12121551
1764768229.0748944,-3.21986,0.73248,0.96138,0.979184505,-0.042785535,0.12121551
1764768229.0748944,-3.90656,1.03768,0.47306,0.980283135,-0.042541395,0.120666195
1764768229.0748944,-3.90656,1.03768,0.47306,0.980283135,-0.042541395,0.120666195
1764768229.120151,-3.90656,1.03768,0.47306,0.980283135,-0.042541395,0.120666195
1764768229.120151,-3.90656,1.03768,0.47306,0.980283135,-0.042541395,0.120666195
1764768229.120151,-3.90656,1.03768,0.47306,0.980283135,-0.042541395,0.120666195
1764768229.120151,-3.90656,1.03768,0.47306,0.980283135,-0.042541395,0.120666195
1764768229.120151,-3.90656,1.03768,0.47306,0.980283135,-0.042541395,0.120666195
1764768229.120151,-3.90656,1.03768,0.47306,0.980283135,-0.042541395,0.120666195
1764768229.120151,-3.90656,1.03768,0.47306,0.980283135,-0.042541395,0.120666195
1764768229.120151,-3.90656,1.03768,0.47306,0.980283135,-0.042541395,0.120666195
1764768229.120151,-3.95234,1.4039199999999998,0.6103999999999999,0.98132073,-0.04296864,0.11999481
1764768229.120151,-3.95234,1.4039199999999998,0.6103999999999999,0.98132073,-0.04296864,0.11999481
1764768229.120151,-3.95234,1.4039199999999998,0.6103999999999999,0.98132073,-0.04296864,0.11999481
1764768229.120151,-3.95234,1.4039199999999998,0.6103999999999999,0.98132073,-0.04296864,0.11999481
1764768229.120151,-3.95234,1.4039199999999998,0.6103999999999999,0.98132073,-0.04296864,0.11999481
1764768229.120151,-3.95234,1.4039199999999998,0.6103999999999999,0.98132073,-0.04296864,0.11999481
1764768229.120151,-3.95234,1.4039199999999998,0.6103999999999999,0.98132073,-0.04296864,0.11999481
1764768229.120151,-3.95234,1.4039199999999998,0.6103999999999999,0.98132073,-0.04296864,0.11999481
1764768229.120151,-3.95234,1.4039199999999998,0.6103999999999999,0.98132073,-0.04296864,0.11999481
1764768229.120151,-3.95234,1.4039199999999998,0.6103999999999999,0.98132073,-0.04296864,0.11999481
1764768229.120151,-4.21176,1.89224,0.3051999999999999,0.9814428,-0.042785535,0.119445495
1764768229.120151,-4.21176,1.89224,0.3051999999999999,0.9814428,-0.042785535,0.119445495
1764768229.120151,-4.21176,1.89224,0.3051999999999999,0.9814428,-0.042785535,0.119445495
1764768229.120151,-4.21176,1.89224,0.3051999999999999,0.9814428,-0.042785535,0.119445495
1764768229.120151,-4.21176,1.89224,0.3051999999999999,0.9814428,-0.042785535,0.119445495
1764768229.1214633,-4.21176,1.89224,0.3051999999999999,0.9814428,-0.042785535,0.119445495
1764768229.1672215,-4.21176,1.89224,0.3051999999999999,0.9814428,-0.042785535,0.119445495
1764768229.1672215,-4.21176,1.89224,0.3051999999999999,0.9814428,-0.042785535,0.119445495
1764768229.1672215,-4.21176,1.89224,0.3051999999999999,0.9814428,-0.042785535,0.119445495
1764768229.1672215,-4.21176,1.89224,0.3051999999999999,0.9814428,-0.042785535,0.119445495
1764768229.1672215,-3.92182,1.87698,0.10682,0.98058831,-0.04260243,0.11938446
1764768229.1672215,-3.92182,1.87698,0.10682,0.98058831,-0.04260243,0.11938446
1764768229.1672215,-3.92182,1.87698,0.10682,0.98058831,-0.04260243,0.11938446
1764768229.1672215,-3.92182,1.87698,0.10682,0.98058831,-0.04260243,0.11938446
1764768229.1672215,-3.92182,1.87698,0.10682,0.98058831,-0.04260243,0.11938446
1764768229.1672215,-3.92182,1.87698,0.10682,0.98058831,-0.04260243,0.11938446
1764768229.1672215,-3.92182,1.87698,0.10682,0.98058831,-0.04260243,0.11938446
1764768229.1672215,-3.92182,1.87698,0.10682,0.98058831,-0.04260243,0.11938446
1764768229.1672215,-3.92182,1.87698,0.10682,0.98058831,-0.04260243,0.11938446
1764768229.1672215,-3.92182,1.87698,0.10682,0.98058831,-0.04260243,0.11938446
1764768229.1672215,-4.059159999999999,1.64808,0.12208,0.97973382,-0.041808975,0.120788265
1764768229.1672215,-4.059159999999999,1.64808,0.12208,0.97973382,-0.041808975,0.120788265
1764768229.1672215,-4.059159999999999,1.64808,0.12208,0.97973382,-0.041808975,0.120788265
1764768229.1672215,-4.059159999999999,1.64808,0.12208,0.97973382,-0.041808975,0.120788265
1764768229.1672215,-4.059159999999999,1.64808,0.12208,0.97973382,-0.041808975,0.120788265
1764768229.1672215,-4.059159999999999,1.64808,0.12208,0.97973382,-0.041808975,0.120788265
1764768229.1672215,-4.059159999999999,1.64808,0.12208,0.97973382,-0.041808975,0.120788265
1764768229.1672215,-4.059159999999999,1.64808,0.12208,0.97973382,-0.041808975,0.120788265
1764768229.2136698,-4.059159999999999,1.64808,0.12208,0.97973382,-0.041808975,0.120788265
1764768229.2136698,-4.059159999999999,1.64808,0.12208,0.97973382,-0.041808975,0.120788265
1764768229.2136698,-4.02864,1.32762,0.56462,0.978940365,-0.04101552,0.12097137
1764768229.2136698,-4.02864,1.32762,0.56462,0.978940365,-0.04101552,0.12097137
1764768229.2136698,-4.02864,1.32762,0.56462,0.978940365,-0.04101552,0.12097137
1764768229.2136698,-4.02864,1.32762,0.56462,0.978940365,-0.04101552,0.12097137
1764768229.2136698,-4.02864,1.32762,0.56462,0.978940365,-0.04101552,0.12097137
1764768229.2136698,-4.02864,1.32762,0.56462,0.978940365,-0.04101552,0.12097137
1764768229.2136698,-4.02864,1.32762,0.56462,0.978940365,-0.04101552,0.12097137
1764768229.2136698,-4.02864,1.32762,0.56462,0.978940365,-0.04101552,0.12097137
1764768229.2136698,-4.02864,1.32762,0.56462,0.978940365,-0.04101552,0.12097137
1764768229.2136698,-4.02864,1.32762,0.56462,0.978940365,-0.04101552,0.12097137
1764768229.2136698,-4.1965,1.09872,0.9003399999999999,0.978085875,-0.042541395,0.121032405
1764768229.2136698,-4.1965,1.09872,0.9003399999999999,0.978085875,-0.042541395,0.121032405
1764768229.2136698,-4.1965,1.09872,0.9003399999999999,0.978085875,-0.042541395,0.121032405
1764768229.2136698,-4.1965,1.09872,0.9003399999999999,0.978085875,-0.042541395,0.121032405
1764768229.214187,-4.1965,1.09872,0.9003399999999999,0.978085875,-0.042541395,0.121032405
1764768229.214187,-4.1965,1.09872,0.9003399999999999,0.978085875,-0.042541395,0.121032405
1764768229.214187,-4.1965,1.09872,0.9003399999999999,0.978085875,-0.042541395,0.121032405
1764768229.214187,-4.1965,1.09872,0.9003399999999999,0.978085875,-0.042541395,0.121032405
1764768229.214187,-4.1965,1.09872,0.9003399999999999,0.978085875,-0.042541395,0.121032405
1764768229.214187,-4.1965,1.09872,0.9003399999999999,0.978085875,-0.042541395,0.121032405
1764768229.259369,-3.63188,1.2208,1.19028,0.978574155,-0.042907605,0.121398615
1764768229.259369,-3.63188,1.2208,1.19028,0.978574155,-0.042907605,0.121398615
1764768229.259369,-3.63188,1.2208,1.19028,0.978574155,-0.042907605,0.121398615
1764768229.259369,-3.63188,1.2208,1.19028,0.978574155,-0.042907605,0.121398615
1764768229.259369,-3.63188,1.2208,1.19028,0.978574155,-0.042907605,0.121398615
1764768229.259369,-3.63188,1.2208,1.19028,0.978574155,-0.042907605,0.121398615
1764768229.259891,-3.63188,1.2208,1.19028,0.978574155,-0.042907605,0.121398615
1764768229.259891,-3.63188,1.2208,1.19028,0.978574155,-0.042907605,0.121398615
1764768229.259891,-3.63188,1.2208,1.19028,0.978574155,-0.042907605,0.121398615
1764768229.259891,-3.63188,1.2208,1.19028,0.978574155,-0.042907605,0.121398615
1764768229.259891,-3.55558,1.49548,0.8087799999999999,0.979550715,-0.042419325,0.121154475
1764768229.259891,-3.55558,1.49548,0.8087799999999999,0.979550715,-0.042419325,0.121154475
1764768229.259891,-3.55558,1.49548,0.8087799999999999,0.979550715,-0.042419325,0.121154475
1764768229.259891,-3.55558,1.49548,0.8087799999999999,0.979550715,-0.042419325,0.121154475
1764768229.259891,-3.55558,1.49548,0.8087799999999999,0.979550715,-0.042419325,0.121154475
1764768229.259891,-3.55558,1.49548,0.8087799999999999,0.979550715,-0.042419325,0.121154475
1764768229.259891,-3.55558,1.49548,0.8087799999999999,0.979550715,-0.042419325,0.121154475
1764768229.259891,-3.55558,1.49548,0.8087799999999999,0.979550715,-0.042419325,0.121154475
1764768229.259891,-3.55558,1.49548,0.8087799999999999,0.979550715,-0.042419325,0.121154475
1764768229.259891,-3.55558,1.49548,0.8087799999999999,0.979550715,-0.042419325,0.121154475
1764768229.259891,-3.57084,1.87698,0.6867,0.979184505,-0.042785535,0.12109344
1764768229.259891,-3.57084,1.87698,0.6867,0.979184505,-0.042785535,0.12109344
1764768229.2609365,-3.57084,1.87698,0.6867,0.979184505,-0.042785535,0.12109344
1764768229.2609365,-3.57084,1.87698,0.6867,0.979184505,-0.042785535,0.12109344
1764768229.3078318,-3.57084,1.87698,0.6867,0.979184505,-0.042785535,0.12109344
1764768229.3078318,-3.57084,1.87698,0.6867,0.979184505,-0.042785535,0.12109344
1764768229.3078318,-3.57084,1.87698,0.6867,0.979184505,-0.042785535,0.12109344
1764768229.3078318,-3.57084,1.87698,0.6867,0.979184505,-0.042785535,0.12109344
1764768229.3078318,-3.57084,1.87698,0.6867,0.979184505,-0.042785535,0.12109344
1764768229.3078318,-3.57084,1.87698,0.6867,0.979184505,-0.042785535,0.12109344
1764768229.3078318,-3.6624,1.58704,0.41202,0.97924554,-0.043273815,0.120910335
1764768229.3078318,-3.6624,1.58704,0.41202,0.97924554,-0.043273815,0.120910335
1764768229.3078318,-3.6624,1.58704,0.41202,0.97924554,-0.043273815,0.120910335
1764768229.3078318,-3.6624,1.58704,0.41202,0.97924554,-0.043273815,0.120910335
1764768229.3078318,-3.6624,1.58704,0.41202,0.97924554,-0.043273815,0.120910335
1764768229.3078318,-3.6624,1.58704,0.41202,0.97924554,-0.043273815,0.120910335
1764768229.3078318,-3.6624,1.58704,0.41202,0.97924554,-0.043273815,0.120910335
1764768229.3078318,-3.6624,1.58704,0.41202,0.97924554,-0.043273815,0.120910335
1764768229.3078318,-3.6624,1.58704,0.41202,0.97924554,-0.043273815,0.120910335
1764768229.3078318,-3.6624,1.58704,0.41202,0.97924554,-0.043273815,0.120910335
1764768229.3078318,-3.6624,1.54126,0.9156,0.97887933,-0.04406727,0.12158172
1764768229.3078318,-3.6624,1.54126,0.9156,0.97887933,-0.04406727,0.12158172
1764768229.3078318,-3.6624,1.54126,0.9156,0.97887933,-0.04406727,0.12158172
1764768229.3078318,-3.6624,1.54126,0.9156,0.97887933,-0.04406727,0.12158172
1764768229.3078318,-3.6624,1.54126,0.9156,0.97887933,-0.04406727,0.12158172
1764768229.3078318,-3.6624,1.54126,0.9156,0.97887933,-0.04406727,0.12158172
1764768229.3078318,-3.6624,1.54126,0.9156,0.97887933,-0.04406727,0.12158172
1764768229.3078318,-3.6624,1.54126,0.9156,0.97887933,-0.04406727,0.12158172
1764768229.3550866,-3.6624,1.54126,0.9156,0.97887933,-0.04406727,0.12158172
1764768229.3550866,-3.6624,1.54126,0.9156,0.97887933,-0.04406727,0.12158172
1764768229.3550866,-3.2809,1.48022,0.97664,0.97887933,-0.044128305,0.121764825
1764768229.3550866,-3.2809,1.48022,0.97664,0.97887933,-0.044128305,0.121764825
1764768229.3550866,-3.2809,1.48022,0.97664,0.97887933,-0.044128305,0.121764825
1764768229.3550866,-3.2809,1.48022,0.97664,0.97887933,-0.044128305,0.121764825
1764768229.3550866,-3.2809,1.48022,0.97664,0.97887933,-0.044128305,0.121764825
1764768229.3550866,-3.2809,1.48022,0.97664,0.97887933,-0.044128305,0.121764825
1764768229.3550866,-3.2809,1.48022,0.97664,0.97887933,-0.044128305,0.121764825
1764768229.3550866,-3.2809,1.48022,0.97664,0.97887933,-0.044128305,0.121764825
1764768229.3550866,-3.2809,1.48022,0.97664,0.97887933,-0.044128305,0.121764825
1764768229.3550866,-3.2809,1.48022,0.97664,0.97887933,-0.044128305,0.121764825
1764768229.3550866,-3.41824,1.28184,1.00716,0.978940365,-0.04418934,0.12207
1764768229.3550866,-3.41824,1.28184,1.00716,0.978940365,-0.04418934,0.12207
1764768229.3550866,-3.41824,1.28184,1.00716,0.978940365,-0.04418934,0.12207
1764768229.3550866,-3.41824,1.28184,1.00716,0.978940365,-0.04418934,0.12207
1764768229.3550866,-3.41824,1.28184,1.00716,0.978940365,-0.04418934,0.12207
1764768229.3550866,-3.41824,1.28184,1.00716,0.978940365,-0.04418934,0.12207
1764768229.3550866,-3.41824,1.28184,1.00716,0.978940365,-0.04418934,0.12207
1764768229.3550866,-3.41824,1.28184,1.00716,0.978940365,-0.04418934,0.12207
1764768229.3550866,-3.41824,1.28184,1.00716,0.978940365,-0.04418934,0.12207
1764768229.3550866,-3.41824,1.28184,1.00716,0.978940365,-0.04418934,0.12207
1764768229.4012334,-3.32668,1.526,0.6867,0.979306575,-0.043762095,0.122131035
1764768229.4012334,-3.32668,1.526,0.6867,0.979306575,-0.043762095,0.122131035
1764768229.4012334,-3.32668,1.526,0.6867,0.979306575,-0.043762095,0.122131035
1764768229.4012334,-3.32668,1.526,0.6867,0.979306575,-0.043762095,0.122131035
1764768229.4012334,-3.32668,1.526,0.6867,0.979306575,-0.043762095,0.122131035
1764768229.4012334,-3.32668,1.526,0.6867,0.979306575,-0.043762095,0.122131035
1764768229.4012334,-3.32668,1.526,0.6867,0.979306575,-0.043762095,0.122131035
1764768229.4012334,-3.32668,1.526,0.6867,0.979306575,-0.043762095,0.122131035
1764768229.4012334,-3.32668,1.526,0.6867,0.979306575,-0.043762095,0.122131035
1764768229.4012334,-3.32668,1.526,0.6867,0.979306575,-0.043762095,0.122131035
1764768229.4012334,-3.34194,1.61756,0.19838,0.978574155,-0.04357899,0.12304656
1764768229.4012334,-3.34194,1.61756,0.19838,0.978574155,-0.04357899,0.12304656
1764768229.4012334,-3.34194,1.61756,0.19838,0.978574155,-0.04357899,0.12304656
1764768229.402243,-3.34194,1.61756,0.19838,0.978574155,-0.04357899,0.12304656
1764768229.402243,-3.34194,1.61756,0.19838,0.978574155,-0.04357899,0.12304656
1764768229.402243,-3.34194,1.61756,0.19838,0.978574155,-0.04357899,0.12304656
1764768229.402243,-3.34194,1.61756,0.19838,0.978574155,-0.04357899,0.12304656
1764768229.402243,-3.34194,1.61756,0.19838,0.978574155,-0.04357899,0.12304656
1764768229.402243,-3.34194,1.61756,0.19838,0.978574155,-0.04357899,0.12304656
1764768229.402243,-3.34194,1.61756,0.19838,0.978574155,-0.04357899,0.12304656
1764768229.402243,-3.4335,1.55652,0.8698199999999999,0.9790014,-0.043273815,0.12280242
1764768229.402243,-3.4335,1.55652,0.8698199999999999,0.9790014,-0.043273815,0.12280242
1764768229.402243,-3.4335,1.55652,0.8698199999999999,0.9790014,-0.043273815,0.12280242
1764768229.402243,-3.4335,1.55652,0.8698199999999999,0.9790014,-0.043273815,0.12280242
1764768229.402243,-3.4335,1.55652,0.8698199999999999,0.9790014,-0.043273815,0.12280242
1764768229.402243,-3.4335,1.55652,0.8698199999999999,0.9790014,-0.043273815,0.12280242
1764768229.4477732,-3.4335,1.55652,0.8698199999999999,0.9790014,-0.043273815,0.12280242
1764768229.4477732,-3.4335,1.55652,0.8698199999999999,0.9790014,-0.043273815,0.12280242
1764768229.4477732,-3.4335,1.55652,0.8698199999999999,0.9790014,-0.043273815,0.12280242
1764768229.4477732,-3.4335,1.55652,0.8698199999999999,0.9790014,-0.043273815,0.12280242
1764768229.4477732,-3.54032,1.6022999999999998,1.0682,0.9790014,-0.043029675,0.122741385
1764768229.4477732,-3.54032,1.6022999999999998,1.0682,0.9790014,-0.043029675,0.122741385
1764768229.4477732,-3.54032,1.6022999999999998,1.0682,0.9790014,-0.043029675,0.122741385
1764768229.4477732,-3.54032,1.6022999999999998,1.0682,0.9790014,-0.043029675,0.122741385
1764768229.4477732,-3.54032,1.6022999999999998,1.0682,0.9790014,-0.043029675,0.122741385
1764768229.4477732,-3.54032,1.6022999999999998,1.0682,0.9790014,-0.043029675,0.122741385
1764768229.4477732,-3.54032,1.6022999999999998,1.0682,0.9790014,-0.043029675,0.122741385
1764768229.4477732,-3.54032,1.6022999999999998,1.0682,0.9790014,-0.043029675,0.122741385
1764768229.4477732,-3.54032,1.6022999999999998,1.0682,0.9790014,-0.043029675,0.122741385
1764768229.4477732,-3.54032,1.6022999999999998,1.0682,0.9790014,-0.043029675,0.122741385
1764768229.4477732,-3.64714,1.35814,0.41202,0.97863519,-0.04345692,0.123229665
1764768229.4477732,-3.64714,1.35814,0.41202,0.97863519,-0.04345692,0.123229665
1764768229.4477732,-3.64714,1.35814,0.41202,0.97863519,-0.04345692,0.123229665
1764768229.4477732,-3.64714,1.35814,0.41202,0.97863519,-0.04345692,0.123229665
1764768229.4477732,-3.64714,1.35814,0.41202,0.97863519,-0.04345692,0.123229665
1764768229.4477732,-3.64714,1.35814,0.41202,0.97863519,-0.04345692,0.123229665
1764768229.4477732,-3.64714,1.35814,0.41202,0.97863519,-0.04345692,0.123229665
1764768229.4477732,-3.64714,1.35814,0.41202,0.97863519,-0.04345692,0.123229665
1764768229.4948008,-3.64714,1.35814,0.41202,0.97863519,-0.04345692,0.123229665
1764768229.4948008,-3.64714,1.35814,0.41202,0.97863519,-0.04345692,0.123229665
1764768229.4948008,-3.67766,1.28184,0.3357199999999999,0.97863519,-0.04357899,0.12316863
1764768229.4948008,-3.67766,1.28184,0.3357199999999999,0.97863519,-0.04357899,0.12316863
1764768229.4948008,-3.67766,1.28184,0.3357199999999999,0.97863519,-0.04357899,0.12316863
1764768229.4948008,-3.67766,1.28184,0.3357199999999999,0.97863519,-0.04357899,0.12316863
1764768229.4948008,-3.67766,1.28184,0.3357199999999999,0.97863519,-0.04357899,0.12316863
1764768229.4948008,-3.67766,1.28184,0.3357199999999999,0.97863519,-0.04357899,0.12316863
1764768229.4948008,-3.67766,1.28184,0.3357199999999999,0.97863519,-0.04357899,0.12316863
1764768229.4948008,-3.67766,1.28184,0.3357199999999999,0.97863519,-0.04357899,0.12316863
1764768229.4948008,-3.67766,1.28184,0.3357199999999999,0.97863519,-0.04357899,0.12316863
1764768229.4948008,-3.67766,1.28184,0.3357199999999999,0.97863519,-0.04357899,0.12316863
1764768229.4948008,-3.15882,1.35814,0.62566,0.979550715,-0.0439452,0.122985525
1764768229.4948008,-3.15882,1.35814,0.62566,0.979550715,-0.0439452,0.122985525
1764768229.4948008,-3.15882,1.35814,0.62566,0.979550715,-0.0439452,0.122985525
1764768229.4948008,-3.15882,1.35814,0.62566,0.979550715,-0.0439452,0.122985525
1764768229.4948008,-3.15882,1.35814,0.62566,0.979550715,-0.0439452,0.122985525
1764768229.4948008,-3.15882,1.35814,0.62566,0.979550715,-0.0439452,0.122985525
1764768229.4948008,-3.15882,1.35814,0.62566,0.979550715,-0.0439452,0.122985525
1764768229.4948008,-3.15882,1.35814,0.62566,0.979550715,-0.0439452,0.122985525
1764768229.4948008,-3.15882,1.35814,0.62566,0.979550715,-0.0439452,0.122985525
1764768229.4948008,-3.15882,1.35814,0.62566,0.979550715,-0.0439452,0.122985525
1764768229.5425646,-3.32668,1.526,0.62566,0.97973382,-0.04431141,0.123595875
1764768229.5425646,-3.32668,1.526,0.62566,0.97973382,-0.04431141,0.123595875
1764768229.5425646,-3.32668,1.526,0.62566,0.97973382,-0.04431141,0.123595875
1764768229.5425646,-3.32668,1.526,0.62566,0.97973382,-0.04431141,0.123595875
1764768229.5425646,-3.32668,1.526,0.62566,0.97973382,-0.04431141,0.123595875
1764768229.5425646,-3.32668,1.526,0.62566,0.97973382,-0.04431141,0.123595875
1764768229.5425646,-3.32668,1.526,0.62566,0.97973382,-0.04431141,0.123595875
1764768229.5425646,-3.32668,1.526,0.62566,0.97973382,-0.04431141,0.123595875
1764768229.5425646,-3.32668,1.526,0.62566,0.97973382,-0.04431141,0.123595875
1764768229.5425646,-3.32668,1.526,0.62566,0.97973382,-0.04431141,0.123595875
1764768229.5425646,-3.32668,1.0682,0.27468,0.977841735,-0.043762095,0.123351735
1764768229.5435898,-3.32668,1.0682,0.27468,0.977841735,-0.043762095,0.123351735
1764768229.5435898,-3.32668,1.0682,0.27468,0.977841735,-0.043762095,0.123351735
1764768229.5435898,-3.32668,1.0682,0.27468,0.977841735,-0.043762095,0.123351735
1764768229.5435898,-3.32668,1.0682,0.27468,0.977841735,-0.043762095,0.123351735
1764768229.5435898,-3.32668,1.0682,0.27468,0.977841735,-0.043762095,0.123351735
1764768229.5435898,-3.32668,1.0682,0.27468,0.977841735,-0.043762095,0.123351735
1764768229.5435898,-3.32668,1.0682,0.27468,0.977841735,-0.043762095,0.123351735
1764768229.5435898,-3.32668,1.0682,0.27468,0.977841735,-0.043762095,0.123351735
1764768229.5435898,-3.32668,1.0682,0.27468,0.977841735,-0.043762095,0.123351735
1764768229.5435898,-3.67766,0.77826,0.3357199999999999,0.978696225,-0.042907605,0.123717945
1764768229.5435898,-3.67766,0.77826,0.3357199999999999,0.978696225,-0.042907605,0.123717945
1764768229.5435898,-3.67766,0.77826,0.3357199999999999,0.978696225,-0.042907605,0.123717945
1764768229.5435898,-3.67766,0.77826,0.3357199999999999,0.978696225,-0.042907605,0.123717945
1764768229.5859914,-3.67766,0.77826,0.3357199999999999,0.978696225,-0.042907605,0.123717945
1764768229.5859914,-3.67766,0.77826,0.3357199999999999,0.978696225,-0.042907605,0.123717945
1764768229.5859914,-3.67766,0.77826,0.3357199999999999,0.978696225,-0.042907605,0.123717945
1764768229.5859914,-3.67766,0.77826,0.3357199999999999,0.978696225,-0.042907605,0.123717945
1764768229.5859914,-3.67766,0.77826,0.3357199999999999,0.978696225,-0.042907605,0.123717945
1764768229.5859914,-3.67766,0.77826,0.3357199999999999,0.978696225,-0.042907605,0.123717945
1764768229.5859914,-3.76922,0.88508,0.79352,0.97875726,-0.043395885,0.12353484
1764768229.5859914,-3.76922,0.88508,0.79352,0.97875726,-0.043395885,0.12353484
1764768229.5859914,-3.76922,0.88508,0.79352,0.97875726,-0.043395885,0.12353484
1764768229.5859914,-3.76922,0.88508,0.79352,0.97875726,-0.043395885,0.12353484
1764768229.5859914,-3.76922,0.88508,0.79352,0.97875726,-0.043395885,0.12353484
1764768229.5859914,-3.76922,0.88508,0.79352,0.97875726,-0.043395885,0.12353484
1764768229.5859914,-3.76922,0.88508,0.79352,0.97875726,-0.043395885,0.12353484
1764768229.5859914,-3.76922,0.88508,0.79352,0.97875726,-0.043395885,0.12353484
1764768229.5859914,-3.76922,0.88508,0.79352,0.97875726,-0.043395885,0.12353484
1764768229.5859914,-3.76922,0.88508,0.79352,0.97875726,-0.043395885,0.12353484
1764768229.5859914,-3.64714,0.51884,1.57178,0.97680414,-0.0439452,0.122375175
1764768229.5859914,-3.64714,0.51884,1.57178,0.97680414,-0.0439452,0.122375175
1764768229.5859914,-3.64714,0.51884,1.57178,0.97680414,-0.0439452,0.122375175
1764768229.5859914,-3.64714,0.51884,1.57178,0.97680414,-0.0439452,0.122375175
1764768229.5859914,-3.64714,0.51884,1.57178,0.97680414,-0.0439452,0.122375175
1764768229.5859914,-3.64714,0.51884,1.57178,0.97680414,-0.0439452,0.122375175
1764768229.6324518,-3.64714,0.51884,1.57178,0.97680414,-0.0439452,0.122375175
1764768229.6324518,-3.64714,0.51884,1.57178,0.97680414,-0.0439452,0.122375175
1764768229.6324518,-3.64714,0.51884,1.57178,0.97680414,-0.0439452,0.122375175
1764768229.6324518,-3.64714,0.51884,1.57178,0.97680414,-0.0439452,0.122375175
1764768229.6324518,-3.79974,0.13734,1.2055399999999998,0.97802484,-0.044250375,0.12194793
1764768229.6324518,-3.79974,0.13734,1.2055399999999998,0.97802484,-0.044250375,0.12194793
1764768229.6324518,-3.79974,0.13734,1.2055399999999998,0.97802484,-0.044250375,0.12194793
1764768229.6324518,-3.79974,0.13734,1.2055399999999998,0.97802484,-0.044250375,0.12194793
1764768229.6324518,-3.79974,0.13734,1.2055399999999998,0.97802484,-0.044250375,0.12194793
1764768229.6324518,-3.79974,0.13734,1.2055399999999998,0.97802484,-0.044250375,0.12194793
1764768229.6324518,-3.79974,0.13734,1.2055399999999998,0.97802484,-0.044250375,0.12194793
1764768229.6324518,-3.79974,0.13734,1.2055399999999998,0.97802484,-0.044250375,0.12194793
1764768229.6324518,-3.79974,0.13734,1.2055399999999998,0.97802484,-0.044250375,0.12194793
1764768229.6324518,-3.79974,0.13734,1.2055399999999998,0.97802484,-0.044250375,0.12194793
1764768229.6324518,-3.86078,1.0682,0.28994,0.98132073,-0.043762095,0.12170379
1764768229.6324518,-3.86078,1.0682,0.28994,0.98132073,-0.043762095,0.12170379
1764768229.6324518,-3.86078,1.0682,0.28994,0.98132073,-0.043762095,0.12170379
1764768229.6324518,-3.86078,1.0682,0.28994,0.98132073,-0.043762095,0.12170379
1764768229.6324518,-3.86078,1.0682,0.28994,0.98132073,-0.043762095,0.12170379
1764768229.6324518,-3.86078,1.0682,0.28994,0.98132073,-0.043762095,0.12170379
1764768229.6324518,-3.86078,1.0682,0.28994,0.98132073,-0.043762095,0.12170379
1764768229.6334653,-3.86078,1.0682,0.28994,0.98132073,-0.043762095,0.12170379
1764768229.6334653,-3.86078,1.0682,0.28994,0.98132073,-0.043762095,0.12170379
1764768229.6334653,-3.86078,1.0682,0.28994,0.98132073,-0.043762095,0.12170379
1764768229.6791587,-3.86078,1.9075,0.27468,0.98168694,-0.04321278,0.122619315
1764768229.6791587,-3.86078,1.9075,0.27468,0.98168694,-0.04321278,0.122619315
1764768229.6791587,-3.86078,1.9075,0.27468,0.98168694,-0.04321278,0.122619315
1764768229.6791587,-3.86078,1.9075,0.27468,0.98168694,-0.04321278,0.122619315
1764768229.6791587,-3.86078,1.9075,0.27468,0.98168694,-0.04321278,0.122619315
1764768229.6791587,-3.86078,1.9075,0.27468,0.98168694,-0.04321278,0.122619315
1764768229.6791587,-3.86078,1.9075,0.27468,0.98168694,-0.04321278,0.122619315
1764768229.6791587,-3.86078,1.9075,0.27468,0.98168694,-0.04321278,0.122619315
1764768229.679664,-3.86078,1.9075,0.27468,0.98168694,-0.04321278,0.122619315
1764768229.679664,-3.86078,1.9075,0.27468,0.98168694,-0.04321278,0.122619315
1764768229.679664,-4.25754,2.65524,0.36624,0.979062435,-0.042419325,0.122375175
1764768229.679664,-4.25754,2.65524,0.36624,0.979062435,-0.042419325,0.122375175
1764768229.679664,-4.25754,2.65524,0.36624,0.979062435,-0.042419325,0.122375175
1764768229.679664,-4.25754,2.65524,0.36624,0.979062435,-0.042419325,0.122375175
1764768229.679664,-4.25754,2.65524,0.36624,0.979062435,-0.042419325,0.122375175
1764768229.679664,-4.25754,2.65524,0.36624,0.979062435,-0.042419325,0.122375175
1764768229.679664,-4.25754,2.65524,0.36624,0.979062435,-0.042419325,0.122375175
1764768229.679664,-4.25754,2.65524,0.36624,0.979062435,-0.042419325,0.122375175
1764768229.679664,-4.25754,2.65524,0.36624,0.979062435,-0.042419325,0.122375175
1764768229.679664,-4.25754,2.65524,0.36624,0.979062435,-0.042419325,0.122375175
1764768229.7250278,-4.25754,1.9838,-0.3357199999999999,0.978085875,-0.04174794,0.12243621
1764768229.7250278,-4.25754,1.9838,-0.3357199999999999,0.978085875,-0.04174794,0.12243621
1764768229.7250278,-4.25754,1.9838,-0.3357199999999999,0.978085875,-0.04174794,0.12243621
1764768229.7250278,-4.25754,1.9838,-0.3357199999999999,0.978085875,-0.04174794,0.12243621
1764768229.7250278,-4.25754,1.9838,-0.3357199999999999,0.978085875,-0.04174794,0.12243621
1764768229.7250278,-4.25754,1.9838,-0.3357199999999999,0.978085875,-0.04174794,0.12243621
1764768229.7250278,-4.25754,1.9838,-0.3357199999999999,0.978085875,-0.04174794,0.12243621
1764768229.7250278,-4.25754,1.9838,-0.3357199999999999,0.978085875,-0.04174794,0.12243621
1764768229.7250278,-4.25754,1.9838,-0.3357199999999999,0.978085875,-0.04174794,0.12243621
1764768229.7250278,-4.25754,1.9838,-0.3357199999999999,0.978085875,-0.04174794,0.12243621
1764768229.7250278,-4.0439,1.55652,0.10682,0.978207945,-0.042175185,0.1232907
1764768229.7255368,-4.0439,1.55652,0.10682,0.978207945,-0.042175185,0.1232907
1764768229.7255368,-4.0439,1.55652,0.10682,0.978207945,-0.042175185,0.1232907
1764768229.7255368,-4.0439,1.55652,0.10682,0.978207945,-0.042175185,0.1232907
1764768229.7255368,-4.0439,1.55652,0.10682,0.978207945,-0.042175185,0.1232907
1764768229.7255368,-4.0439,1.55652,0.10682,0.978207945,-0.042175185,0.1232907
1764768229.7255368,-4.0439,1.55652,0.10682,0.978207945,-0.042175185,0.1232907
1764768229.7255368,-4.0439,1.55652,0.10682,0.978207945,-0.042175185,0.1232907
1764768229.7260413,-4.0439,1.55652,0.10682,0.978207945,-0.042175185,0.1232907
1764768229.7260413,-4.0439,1.55652,0.10682,0.978207945,-0.042175185,0.1232907
1764768229.7260413,-3.86078,1.69386,0.6714399999999999,0.979062435,-0.0427245,0.12390105
1764768229.7260413,-3.86078,1.69386,0.6714399999999999,0.979062435,-0.0427245,0.12390105
1764768229.7260413,-3.86078,1.69386,0.6714399999999999,0.979062435,-0.0427245,0.12390105
1764768229.7260413,-3.86078,1.69386,0.6714399999999999,0.979062435,-0.0427245,0.12390105
1764768229.7260413,-3.86078,1.69386,0.6714399999999999,0.979062435,-0.0427245,0.12390105
1764768229.7260413,-3.86078,1.69386,0.6714399999999999,0.979062435,-0.0427245,0.12390105
1764768229.7736268,-3.86078,1.69386,0.6714399999999999,0.979062435,-0.0427245,0.12390105
1764768229.7736268,-3.86078,1.69386,0.6714399999999999,0.979062435,-0.0427245,0.12390105
1764768229.7736268,-3.86078,1.69386,0.6714399999999999,0.979062435,-0.0427245,0.12390105
1764768229.7736268,-3.86078,1.69386,0.6714399999999999,0.979062435,-0.0427245,0.12390105
1764768229.7736268,-3.7387,0.97664,1.26658,0.97912347,-0.04296864,0.12475554
1764768229.7736268,-3.7387,0.97664,1.26658,0.97912347,-0.04296864,0.12475554
1764768229.7736268,-3.7387,0.97664,1.26658,0.97912347,-0.04296864,0.12475554
1764768229.7736268,-3.7387,0.97664,1.26658,0.97912347,-0.04296864,0.12475554
1764768229.7736268,-3.7387,0.97664,1.26658,0.97912347,-0.04296864,0.12475554
1764768229.7736268,-3.7387,0.97664,1.26658,0.97912347,-0.04296864,0.12475554
1764768229.7736268,-3.7387,0.97664,1.26658,0.97912347,-0.04296864,0.12475554
1764768229.7736268,-3.7387,0.97664,1.26658,0.97912347,-0.04296864,0.12475554
1764768229.7736268,-3.7387,0.97664,1.26658,0.97912347,-0.04296864,0.12475554
1764768229.7736268,-3.7387,0.97664,1.26658,0.97912347,-0.04296864,0.12475554
1764768229.7736268,-3.44876,0.9156,1.32762,0.9790014,-0.043029675,0.12561003
1764768229.7736268,-3.44876,0.9156,1.32762,0.9790014,-0.043029675,0.12561003
1764768229.7736268,-3.44876,0.9156,1.32762,0.9790014,-0.043029675,0.12561003
1764768229.7736268,-3.44876,0.9156,1.32762,0.9790014,-0.043029675,0.12561003
1764768229.7736268,-3.44876,0.9156,1.32762,0.9790014,-0.043029675,0.12561003
1764768229.7736268,-3.44876,0.9156,1.32762,0.9790014,-0.043029675,0.12561003
1764768229.7736268,-3.44876,0.9156,1.32762,0.9790014,-0.043029675,0.12561003
1764768229.7736268,-3.44876,0.9156,1.32762,0.9790014,-0.043029675,0.12561003
1764768229.7736268,-3.44876,0.9156,1.32762,0.9790014,-0.043029675,0.12561003
1764768229.7736268,-3.44876,0.9156,1.32762,0.9790014,-0.043029675,0.12561003
1764768229.8202765,-2.99096,0.51884,1.49548,0.97924554,-0.043395885,0.12524382
1764768229.8202765,-2.99096,0.51884,1.49548,0.97924554,-0.043395885,0.12524382
1764768229.8202765,-2.99096,0.51884,1.49548,0.97924554,-0.043395885,0.12524382
1764768229.8202765,-2.99096,0.51884,1.49548,0.97924554,-0.043395885,0.12524382
1764768229.8202765,-2.99096,0.51884,1.49548,0.97924554,-0.043395885,0.12524382
1764768229.8202765,-2.99096,0.51884,1.49548,0.97924554,-0.043395885,0.12524382
1764768229.8202765,-2.99096,0.51884,1.49548,0.97924554,-0.043395885,0.12524382
1764768229.8202765,-2.99096,0.51884,1.49548,0.97924554,-0.043395885,0.12524382
1764768229.8202765,-2.99096,0.51884,1.49548,0.97924554,-0.043395885,0.12524382
1764768229.8202765,-2.99096,0.51884,1.49548,0.97924554,-0.043395885,0.12524382
1764768229.8202765,-3.5098,0.7019599999999999,0.88508,0.97948968,-0.04296864,0.124450365
1764768229.8202765,-3.5098,0.7019599999999999,0.88508,0.97948968,-0.04296864,0.124450365
1764768229.8202765,-3.5098,0.7019599999999999,0.88508,0.97948968,-0.04296864,0.124450365
1764768229.8202765,-3.5098,0.7019599999999999,0.88508,0.97948968,-0.04296864,0.124450365
1764768229.8202765,-3.5098,0.7019599999999999,0.88508,0.97948968,-0.04296864,0.124450365
1764768229.8202765,-3.5098,0.7019599999999999,0.88508,0.97948968,-0.04296864,0.124450365
1764768229.8202765,-3.5098,0.7019599999999999,0.88508,0.97948968,-0.04296864,0.124450365
1764768229.8202765,-3.5098,0.7019599999999999,0.88508,0.97948968,-0.04296864,0.124450365
1764768229.8202765,-3.5098,0.7019599999999999,0.88508,0.97948968,-0.04296864,0.124450365
1764768229.8202765,-3.5098,0.7019599999999999,0.88508,0.97948968,-0.04296864,0.124450365
1764768229.8202765,-3.76922,0.36624,1.03768,0.978330015,-0.042663465,0.12463347
1764768229.8202765,-3.76922,0.36624,1.03768,0.978330015,-0.042663465,0.12463347
1764768229.8202765,-3.76922,0.36624,1.03768,0.978330015,-0.042663465,0.12463347
1764768229.8202765,-3.76922,0.36624,1.03768,0.978330015,-0.042663465,0.12463347
1764768229.8668144,-3.76922,0.36624,1.03768,0.978330015,-0.042663465,0.12463347
1764768229.8668144,-3.76922,0.36624,1.03768,0.978330015,-0.042663465,0.12463347
1764768229.8668144,-3.76922,0.36624,1.03768,0.978330015,-0.042663465,0.12463347
1764768229.8668144,-3.76922,0.36624,1.03768,0.978330015,-0.042663465,0.12463347
1764768229.8668144,-3.76922,0.36624,1.03768,0.978330015,-0.042663465,0.12463347
1764768229.8668144,-3.76922,0.36624,1.03768,0.978330015,-0.042663465,0.12463347
1764768229.8673189,-3.63188,0.8087799999999999,1.526,0.9777807,-0.04382313,0.123595875
1764768229.8673189,-3.63188,0.8087799999999999,1.526,0.9777807,-0.04382313,0.123595875
1764768229.8673189,-3.63188,0.8087799999999999,1.526,0.9777807,-0.04382313,0.123595875
1764768229.8673189,-3.63188,0.8087799999999999,1.526,0.9777807,-0.04382313,0.123595875
1764768229.8673189,-3.63188,0.8087799999999999,1.526,0.9777807,-0.04382313,0.123595875
1764768229.8673189,-3.63188,0.8087799999999999,1.526,0.9777807,-0.04382313,0.123595875
1764768229.8673189,-3.63188,0.8087799999999999,1.526,0.9777807,-0.04382313,0.123595875
1764768229.8673189,-3.63188,0.8087799999999999,1.526,0.9777807,-0.04382313,0.123595875
1764768229.8673189,-3.63188,0.8087799999999999,1.526,0.9777807,-0.04382313,0.123595875
1764768229.8673189,-3.63188,0.8087799999999999,1.526,0.9777807,-0.04382313,0.123595875
1764768229.8673189,-3.76922,0.48832,1.48022,0.97826898,-0.04467762,0.12243621
1764768229.8673189,-3.76922,0.48832,1.48022,0.97826898,-0.04467762,0.12243621
1764768229.8673189,-3.76922,0.48832,1.48022,0.97826898,-0.04467762,0.12243621
1764768229.8673189,-3.76922,0.48832,1.48022,0.97826898,-0.04467762,0.12243621
1764768229.9132898,-3.76922,0.48832,1.48022,0.97826898,-0.04467762,0.12243621
1764768229.9132898,-3.76922,0.48832,1.48022,0.97826898,-0.04467762,0.12243621
1764768229.9132898,-3.76922,0.48832,1.48022,0.97826898,-0.04467762,0.12243621
1764768229.9132898,-3.76922,0.48832,1.48022,0.97826898,-0.04467762,0.12243621
1764768229.9138198,-3.76922,0.48832,1.48022,0.97826898,-0.04467762,0.12243621
1764768229.9138198,-3.76922,0.48832,1.48022,0.97826898,-0.04467762,0.12243621
1764768229.9138198,-3.38772,0.73248,0.71722,0.97887933,-0.04602039,0.12158172
1764768229.9138198,-3.38772,0.73248,0.71722,0.97887933,-0.04602039,0.12158172
1764768229.9138198,-3.38772,0.73248,0.71722,0.97887933,-0.04602039,0.12158172
1764768229.9138198,-3.38772,0.73248,0.71722,0.97887933,-0.04602039,0.12158172
1764768229.9138198,-3.38772,0.73248,0.71722,0.97887933,-0.04602039,0.12158172
1764768229.9138198,-3.38772,0.73248,0.71722,0.97887933,-0.04602039,0.12158172
1764768229.9138198,-3.38772,0.73248,0.71722,0.97887933,-0.04602039,0.12158172
1764768229.9138198,-3.38772,0.73248,0.71722,0.97887933,-0.04602039,0.12158172
1764768229.9138198,-3.38772,0.73248,0.71722,0.97887933,-0.04602039,0.12158172
1764768229.9138198,-3.38772,0.73248,0.71722,0.97887933,-0.04602039,0.12158172
1764768229.9138198,-3.17408,1.31236,0.18312,0.980283135,-0.046447635,0.12109344
1764768229.9138198,-3.17408,1.31236,0.18312,0.980283135,-0.046447635,0.12109344
1764768229.9138198,-3.17408,1.31236,0.18312,0.980283135,-0.046447635,0.12109344
1764768229.9138198,-3.17408,1.31236,0.18312,0.980283135,-0.046447635,0.12109344
1764768229.9138198,-3.17408,1.31236,0.18312,0.980283135,-0.046447635,0.12109344
1764768229.9138198,-3.17408,1.31236,0.18312,0.980283135,-0.046447635,0.12109344
1764768229.9138198,-3.17408,1.31236,0.18312,0.980283135,-0.046447635,0.12109344
1764768229.9138198,-3.17408,1.31236,0.18312,0.980283135,-0.046447635,0.12109344
1764768229.9138198,-3.17408,1.31236,0.18312,0.980283135,-0.046447635,0.12109344
1764768229.9138198,-3.17408,1.31236,0.18312,0.980283135,-0.046447635,0.12109344
1764768229.9138198,-3.55558,1.55652,-0.3204599999999999,0.980893485,-0.046691775,0.12072723
1764768229.9149115,-3.55558,1.55652,-0.3204599999999999,0.980893485,-0.046691775,0.12072723
1764768229.9610112,-3.55558,1.55652,-0.3204599999999999,0.980893485,-0.046691775,0.12072723
1764768229.9620202,-3.55558,1.55652,-0.3204599999999999,0.980893485,-0.046691775,0.12072723
1764768229.9620202,-3.55558,1.55652,-0.3204599999999999,0.980893485,-0.046691775,0.12072723
1764768229.9620202,-3.55558,1.55652,-0.3204599999999999,0.980893485,-0.046691775,0.12072723
1764768229.9620202,-3.55558,1.55652,-0.3204599999999999,0.980893485,-0.046691775,0.12072723
1764768229.9620202,-3.55558,1.55652,-0.3204599999999999,0.980893485,-0.046691775,0.12072723
1764768229.9620202,-3.55558,1.55652,-0.3204599999999999,0.980893485,-0.046691775,0.12072723
1764768229.9620202,-3.55558,1.55652,-0.3204599999999999,0.980893485,-0.046691775,0.12072723
1764768229.9620202,-3.6624,2.24322,-0.54936,0.981015555,-0.046081425,0.121642755
1764768229.9620202,-3.6624,2.24322,-0.54936,0.981015555,-0.046081425,0.121642755
1764768229.9620202,-3.6624,2.24322,-0.54936,0.981015555,-0.046081425,0.121642755
1764768229.9620202,-3.6624,2.24322,-0.54936,0.981015555,-0.046081425,0.121642755
1764768229.9620202,-3.6624,2.24322,-0.54936,0.981015555,-0.046081425,0.121642755
1764768229.9620202,-3.6624,2.24322,-0.54936,0.981015555,-0.046081425,0.121642755
1764768229.9620202,-3.6624,2.24322,-0.54936,0.981015555,-0.046081425,0.121642755
1764768229.9620202,-3.6624,2.24322,-0.54936,0.981015555,-0.046081425,0.121642755
1764768229.9620202,-3.6624,2.24322,-0.54936,0.981015555,-0.046081425,0.121642755
1764768229.9620202,-3.6624,2.24322,-0.54936,0.981015555,-0.046081425,0.121642755
1764768229.9620202,-3.44876,1.84646,-0.57988,0.981259695,-0.045715215,0.122497245
1764768229.9620202,-3.44876,1.84646,-0.57988,0.981259695,-0.045715215,0.122497245
1764768229.9620202,-3.44876,1.84646,-0.57988,0.981259695,-0.045715215,0.122497245
1764768229.9620202,-3.44876,1.84646,-0.57988,0.981259695,-0.045715215,0.122497245
1764768230.008702,-3.44876,1.84646,-0.57988,0.981259695,-0.045715215,0.122497245
1764768230.008702,-3.44876,1.84646,-0.57988,0.981259695,-0.045715215,0.122497245
1764768230.008702,-3.44876,1.84646,-0.57988,0.981259695,-0.045715215,0.122497245
1764768230.008702,-3.44876,1.84646,-0.57988,0.981259695,-0.045715215,0.122497245
1764768230.008702,-3.44876,1.84646,-0.57988,0.981259695,-0.045715215,0.122497245
1764768230.008702,-3.44876,1.84646,-0.57988,0.981259695,-0.045715215,0.122497245
1764768230.008702,-3.2809,1.99906,-0.42728,0.97924554,-0.04333485,0.12268035
1764768230.008702,-3.2809,1.99906,-0.42728,0.97924554,-0.04333485,0.12268035
1764768230.008702,-3.2809,1.99906,-0.42728,0.97924554,-0.04333485,0.12268035
1764768230.008702,-3.2809,1.99906,-0.42728,0.97924554,-0.04333485,0.12268035
1764768230.008702,-3.2809,1.99906,-0.42728,0.97924554,-0.04333485,0.12268035
1764768230.008702,-3.2809,1.99906,-0.42728,0.97924554,-0.04333485,0.12268035
1764768230.0097876,-3.2809,1.99906,-0.42728,0.97924554,-0.04333485,0.12268035
1764768230.0097876,-3.2809,1.99906,-0.42728,0.97924554,-0.04333485,0.12268035
1764768230.0097876,-3.2809,1.99906,-0.42728,0.97924554,-0.04333485,0.12268035
1764768230.0097876,-3.2809,1.99906,-0.42728,0.97924554,-0.04333485,0.12268035
1764768230.0097876,-3.5098,1.12924,-0.2289,0.97802484,-0.042053115,0.123595875
1764768230.0097876,-3.5098,1.12924,-0.2289,0.97802484,-0.042053115,0.123595875
1764768230.0097876,-3.5098,1.12924,-0.2289,0.97802484,-0.042053115,0.123595875
1764768230.0097876,-3.5098,1.12924,-0.2289,0.97802484,-0.042053115,0.123595875
1764768230.0097876,-3.5098,1.12924,-0.2289,0.97802484,-0.042053115,0.123595875
1764768230.0097876,-3.5098,1.12924,-0.2289,0.97802484,-0.042053115,0.123595875
1764768230.0097876,-3.5098,1.12924,-0.2289,0.97802484,-0.042053115,0.123595875
1764768230.0097876,-3.5098,1.12924,-0.2289,0.97802484,-0.042053115,0.123595875
1764768230.052531,-3.5098,1.12924,-0.2289,0.97802484,-0.042053115,0.123595875
1764768230.052531,-3.5098,1.12924,-0.2289,0.97802484,-0.042053115,0.123595875
1764768230.052531,-3.3572,1.12924,0.01526,0.977719665,-0.042175185,0.123717945
1764768230.052531,-3.3572,1.12924,0.01526,0.977719665,-0.042175185,0.123717945
1764768230.052531,-3.3572,1.12924,0.01526,0.977719665,-0.042175185,0.123717945
1764768230.052531,-3.3572,1.12924,0.01526,0.977719665,-0.042175185,0.123717945
1764768230.052531,-3.3572,1.12924,0.01526,0.977719665,-0.042175185,0.123717945
1764768230.052531,-3.3572,1.12924,0.01526,0.977719665,-0.042175185,0.123717945
1764768230.0530653,-3.3572,1.12924,0.01526,0.977719665,-0.042175185,0.123717945
1764768230.0530653,-3.3572,1.12924,0.01526,0.977719665,-0.042175185,0.123717945
1764768230.0530653,-3.3572,1.12924,0.01526,0.977719665,-0.042175185,0.123717945
1764768230.0530653,-3.3572,1.12924,0.01526,0.977719665,-0.042175185,0.123717945
1764768230.0530653,-3.2046,1.00716,0.21364,0.97826898,-0.04138173,0.123840015
1764768230.0530653,-3.2046,1.00716,0.21364,0.97826898,-0.04138173,0.123840015
1764768230.0530653,-3.2046,1.00716,0.21364,0.97826898,-0.04138173,0.123840015
1764768230.0530653,-3.2046,1.00716,0.21364,0.97826898,-0.04138173,0.123840015
1764768230.0530653,-3.2046,1.00716,0.21364,0.97826898,-0.04138173,0.123840015
1764768230.0530653,-3.2046,1.00716,0.21364,0.97826898,-0.04138173,0.123840015
1764768230.0530653,-3.2046,1.00716,0.21364,0.97826898,-0.04138173,0.123840015
1764768230.0530653,-3.2046,1.00716,0.21364,0.97826898,-0.04138173,0.123840015
1764768230.0530653,-3.2046,1.00716,0.21364,0.97826898,-0.04138173,0.123840015
1764768230.0530653,-3.2046,1.00716,0.21364,0.97826898,-0.04138173,0.123840015
1764768230.0989876,-3.55558,1.05294,0.09156,0.97790277,-0.041320695,0.123351735
1764768230.0989876,-3.55558,1.05294,0.09156,0.97790277,-0.041320695,0.123351735
1764768230.0989876,-3.55558,1.05294,0.09156,0.97790277,-0.041320695,0.123351735
1764768230.0989876,-3.55558,1.05294,0.09156,0.97790277,-0.041320695,0.123351735
1764768230.0995078,-3.55558,1.05294,0.09156,0.97790277,-0.041320695,0.123351735
1764768230.0995078,-3.55558,1.05294,0.09156,0.97790277,-0.041320695,0.123351735
1764768230.0995078,-3.55558,1.05294,0.09156,0.97790277,-0.041320695,0.123351735
1764768230.0995078,-3.55558,1.05294,0.09156,0.97790277,-0.041320695,0.123351735
1764768230.0995078,-3.55558,1.05294,0.09156,0.97790277,-0.041320695,0.123351735
1764768230.0995078,-3.55558,1.05294,0.09156,0.97790277,-0.041320695,0.123351735
1764768230.0995078,-3.23512,1.25132,0.2289,0.97851312,-0.04077138,0.12341277
1764768230.0995078,-3.23512,1.25132,0.2289,0.97851312,-0.04077138,0.12341277
1764768230.0995078,-3.23512,1.25132,0.2289,0.97851312,-0.04077138,0.12341277
1764768230.0995078,-3.23512,1.25132,0.2289,0.97851312,-0.04077138,0.12341277
1764768230.0995078,-3.23512,1.25132,0.2289,0.97851312,-0.04077138,0.12341277
1764768230.0995078,-3.23512,1.25132,0.2289,0.97851312,-0.04077138,0.12341277
1764768230.0995078,-3.23512,1.25132,0.2289,0.97851312,-0.04077138,0.12341277
1764768230.0995078,-3.23512,1.25132,0.2289,0.97851312,-0.04077138,0.12341277
1764768230.0995078,-3.23512,1.25132,0.2289,0.97851312,-0.04077138,0.12341277
1764768230.0995078,-3.23512,1.25132,0.2289,0.97851312,-0.04077138,0.12341277
1764768230.1000133,-3.38772,1.28184,-0.3815,0.979184505,-0.04077138,0.12390105
1764768230.1000133,-3.38772,1.28184,-0.3815,0.979184505,-0.04077138,0.12390105
1764768230.1000133,-3.38772,1.28184,-0.3815,0.979184505,-0.04077138,0.12390105
1764768230.1000133,-3.38772,1.28184,-0.3815,0.979184505,-0.04077138,0.12390105
1764768230.1474795,-3.38772,1.28184,-0.3815,0.979184505,-0.04077138,0.12390105
1764768230.1474795,-3.38772,1.28184,-0.3815,0.979184505,-0.04077138,0.12390105
1764768230.1474795,-3.38772,1.28184,-0.3815,0.979184505,-0.04077138,0.12390105
1764768230.1474795,-3.38772,1.28184,-0.3815,0.979184505,-0.04077138,0.12390105
1764768230.1474795,-3.38772,1.28184,-0.3815,0.979184505,-0.04077138,0.12390105
1764768230.1474795,-3.38772,1.28184,-0.3815,0.979184505,-0.04077138,0.12390105
1764768230.1474795,-3.49454,1.2971,-0.06104,0.97936761,-0.040710345,0.12390105
1764768230.1474795,-3.49454,1.2971,-0.06104,0.97936761,-0.040710345,0.12390105
1764768230.1474795,-3.49454,1.2971,-0.06104,0.97936761,-0.040710345,0.12390105
1764768230.1474795,-3.49454,1.2971,-0.06104,0.97936761,-0.040710345,0.12390105
1764768230.1474795,-3.49454,1.2971,-0.06104,0.97936761,-0.040710345,0.12390105
1764768230.1474795,-3.49454,1.2971,-0.06104,0.97936761,-0.040710345,0.12390105
1764768230.1474795,-3.49454,1.2971,-0.06104,0.97936761,-0.040710345,0.12390105
1764768230.1474795,-3.49454,1.2971,-0.06104,0.97936761,-0.040710345,0.12390105
1764768230.1474795,-3.49454,1.2971,-0.06104,0.97936761,-0.040710345,0.12390105
1764768230.1474795,-3.49454,1.2971,-0.06104,0.97936761,-0.040710345,0.12390105
1764768230.1474795,-3.67766,1.58704,-0.18312,0.97961175,-0.04052724,0.12365691
1764768230.1474795,-3.67766,1.58704,-0.18312,0.97961175,-0.04052724,0.12365691
1764768230.1474795,-3.67766,1.58704,-0.18312,0.97961175,-0.04052724,0.12365691
1764768230.1474795,-3.67766,1.58704,-0.18312,0.97961175,-0.04052724,0.12365691
1764768230.1474795,-3.67766,1.58704,-0.18312,0.97961175,-0.04052724,0.12365691
1764768230.1474795,-3.67766,1.58704,-0.18312,0.97961175,-0.04052724,0.12365691
1764768230.193598,-3.67766,1.58704,-0.18312,0.97961175,-0.04052724,0.12365691
1764768230.193598,-3.67766,1.58704,-0.18312,0.97961175,-0.04052724,0.12365691
1764768230.193598,-3.67766,1.58704,-0.18312,0.97961175,-0.04052724,0.12365691
1764768230.193598,-3.67766,1.58704,-0.18312,0.97961175,-0.04052724,0.12365691
1764768230.193598,-3.72344,2.02958,0.1525999999999999,0.97912347,-0.04003896,0.12426726
1764768230.193598,-3.72344,2.02958,0.1525999999999999,0.97912347,-0.04003896,0.12426726
1764768230.193598,-3.72344,2.02958,0.1525999999999999,0.97912347,-0.04003896,0.12426726
1764768230.193598,-3.72344,2.02958,0.1525999999999999,0.97912347,-0.04003896,0.12426726
1764768230.193598,-3.72344,2.02958,0.1525999999999999,0.97912347,-0.04003896,0.12426726
1764768230.193598,-3.72344,2.02958,0.1525999999999999,0.97912347,-0.04003896,0.12426726
1764768230.193598,-3.72344,2.02958,0.1525999999999999,0.97912347,-0.04003896,0.12426726
1764768230.193598,-3.72344,2.02958,0.1525999999999999,0.97912347,-0.04003896,0.12426726
1764768230.193598,-3.72344,2.02958,0.1525999999999999,0.97912347,-0.04003896,0.12426726
1764768230.193598,-3.72344,2.02958,0.1525999999999999,0.97912347,-0.04003896,0.12426726
1764768230.193598,-3.6624,1.58704,0.3357199999999999,0.978574155,-0.03955068,0.12512175
1764768230.193598,-3.6624,1.58704,0.3357199999999999,0.978574155,-0.03955068,0.12512175
1764768230.193598,-3.6624,1.58704,0.3357199999999999,0.978574155,-0.03955068,0.12512175
1764768230.193598,-3.6624,1.58704,0.3357199999999999,0.978574155,-0.03955068,0.12512175
1764768230.193598,-3.6624,1.58704,0.3357199999999999,0.978574155,-0.03955068,0.12512175
1764768230.193598,-3.6624,1.58704,0.3357199999999999,0.978574155,-0.03955068,0.12512175
1764768230.193598,-3.6624,1.58704,0.3357199999999999,0.978574155,-0.03955068,0.12512175
1764768230.193598,-3.6624,1.58704,0.3357199999999999,0.978574155,-0.03955068,0.12512175
1764768230.193598,-3.6624,1.58704,0.3357199999999999,0.978574155,-0.03955068,0.12512175
1764768230.193598,-3.6624,1.58704,0.3357199999999999,0.978574155,-0.03955068,0.12512175
1764768230.2402394,-3.67766,1.48022,1.02242,0.977597595,-0.039001365,0.12524382
1764768230.2402394,-3.67766,1.48022,1.02242,0.977597595,-0.039001365,0.12524382
1764768230.2402394,-3.67766,1.48022,1.02242,0.977597595,-0.039001365,0.12524382
1764768230.2402394,-3.67766,1.48022,1.02242,0.977597595,-0.039001365,0.12524382
1764768230.2402394,-3.67766,1.48022,1.02242,0.977597595,-0.039001365,0.12524382
1764768230.2402394,-3.67766,1.48022,1.02242,0.977597595,-0.039001365,0.12524382
1764768230.2402394,-3.67766,1.48022,1.02242,0.977597595,-0.039001365,0.12524382
1764768230.2402394,-3.67766,1.48022,1.02242,0.977597595,-0.039001365,0.12524382
1764768230.2402394,-3.67766,1.48022,1.02242,0.977597595,-0.039001365,0.12524382
1764768230.2402394,-3.67766,1.48022,1.02242,0.977597595,-0.039001365,0.12524382
1764768230.2402394,-3.57084,0.8392999999999999,1.41918,0.976987245,-0.039123435,0.12548796
1764768230.2402394,-3.57084,0.8392999999999999,1.41918,0.976987245,-0.039123435,0.12548796
1764768230.2402394,-3.57084,0.8392999999999999,1.41918,0.976987245,-0.039123435,0.12548796
1764768230.2402394,-3.57084,0.8392999999999999,1.41918,0.976987245,-0.039123435,0.12548796
1764768230.2402394,-3.57084,0.8392999999999999,1.41918,0.976987245,-0.039123435,0.12548796
1764768230.2402394,-3.57084,0.8392999999999999,1.41918,0.976987245,-0.039123435,0.12548796
1764768230.2412531,-3.57084,0.8392999999999999,1.41918,0.976987245,-0.039123435,0.12548796
1764768230.2412531,-3.57084,0.8392999999999999,1.41918,0.976987245,-0.039123435,0.12548796
1764768230.2412531,-3.57084,0.8392999999999999,1.41918,0.976987245,-0.039123435,0.12548796
1764768230.2412531,-3.57084,0.8392999999999999,1.41918,0.976987245,-0.039123435,0.12548796
1764768230.2412531,-3.5861,0.73248,1.41918,0.97741449,-0.03942861,0.125060715
1764768230.2412531,-3.5861,0.73248,1.41918,0.97741449,-0.03942861,0.125060715
1764768230.2412531,-3.5861,0.73248,1.41918,0.97741449,-0.03942861,0.125060715
1764768230.2412531,-3.5861,0.73248,1.41918,0.97741449,-0.03942861,0.125060715
1764768230.2412531,-3.5861,0.73248,1.41918,0.97741449,-0.03942861,0.125060715
1764768230.2412531,-3.5861,0.73248,1.41918,0.97741449,-0.03942861,0.125060715
1764768230.2871342,-3.5861,0.73248,1.41918,0.97741449,-0.03942861,0.125060715
1764768230.2871342,-3.5861,0.73248,1.41918,0.97741449,-0.03942861,0.125060715
1764768230.2871342,-3.5861,0.73248,1.41918,0.97741449,-0.03942861,0.125060715
1764768230.2871342,-3.5861,0.73248,1.41918,0.97741449,-0.03942861,0.125060715
1764768230.2871342,-3.21986,1.09872,1.43444,0.97863519,-0.039977925,0.125304855
1764768230.2871342,-3.21986,1.09872,1.43444,0.97863519,-0.039977925,0.125304855
1764768230.2871342,-3.21986,1.09872,1.43444,0.97863519,-0.039977925,0.125304855
1764768230.2871342,-3.21986,1.09872,1.43444,0.97863519,-0.039977925,0.125304855
1764768230.2876418,-3.21986,1.09872,1.43444,0.97863519,-0.039977925,0.125304855
1764768230.2876418,-3.21986,1.09872,1.43444,0.97863519,-0.039977925,0.125304855
1764768230.2876418,-3.21986,1.09872,1.43444,0.97863519,-0.039977925,0.125304855
1764768230.2876418,-3.21986,1.09872,1.43444,0.97863519,-0.039977925,0.125304855
1764768230.2876418,-3.21986,1.09872,1.43444,0.97863519,-0.039977925,0.125304855
1764768230.2876418,-3.21986,1.09872,1.43444,0.97863519,-0.039977925,0.125304855
1764768230.2876418,-3.14356,1.08346,1.58704,0.97851312,-0.04101552,0.124694505
1764768230.2876418,-3.14356,1.08346,1.58704,0.97851312,-0.04101552,0.124694505
1764768230.2876418,-3.14356,1.08346,1.58704,0.97851312,-0.04101552,0.124694505
1764768230.2876418,-3.14356,1.08346,1.58704,0.97851312,-0.04101552,0.124694505
1764768230.2876418,-3.14356,1.08346,1.58704,0.97851312,-0.04101552,0.124694505
1764768230.2876418,-3.14356,1.08346,1.58704,0.97851312,-0.04101552,0.124694505
1764768230.2876418,-3.14356,1.08346,1.58704,0.97851312,-0.04101552,0.124694505
1764768230.2876418,-3.14356,1.08346,1.58704,0.97851312,-0.04101552,0.124694505
1764768230.3335686,-3.14356,1.08346,1.58704,0.97851312,-0.04101552,0.124694505
1764768230.3335686,-3.14356,1.08346,1.58704,0.97851312,-0.04101552,0.124694505
1764768230.3335686,-3.17408,0.96138,1.9838,0.97839105,-0.041931045,0.12390105
1764768230.3335686,-3.17408,0.96138,1.9838,0.97839105,-0.041931045,0.12390105
1764768230.3335686,-3.17408,0.96138,1.9838,0.97839105,-0.041931045,0.12390105
1764768230.3335686,-3.17408,0.96138,1.9838,0.97839105,-0.041931045,0.12390105
1764768230.3335686,-3.17408,0.96138,1.9838,0.97839105,-0.041931045,0.12390105
1764768230.3335686,-3.17408,0.96138,1.9838,0.97839105,-0.041931045,0.12390105
1764768230.3335686,-3.17408,0.96138,1.9838,0.97839105,-0.041931045,0.12390105
1764768230.3335686,-3.17408,0.96138,1.9838,0.97839105,-0.041931045,0.12390105
1764768230.3335686,-3.17408,0.96138,1.9838,0.97839105,-0.041931045,0.12390105
1764768230.3335686,-3.17408,0.96138,1.9838,0.97839105,-0.041931045,0.12390105
1764768230.334087,-3.18934,0.8087799999999999,2.02958,0.978574155,-0.043029675,0.124328295
1764768230.334087,-3.18934,0.8087799999999999,2.02958,0.978574155,-0.043029675,0.124328295
1764768230.334087,-3.18934,0.8087799999999999,2.02958,0.978574155,-0.043029675,0.124328295
1764768230.334087,-3.18934,0.8087799999999999,2.02958,0.978574155,-0.043029675,0.124328295
1764768230.334087,-3.18934,0.8087799999999999,2.02958,0.978574155,-0.043029675,0.124328295
1764768230.334087,-3.18934,0.8087799999999999,2.02958,0.978574155,-0.043029675,0.124328295
1764768230.334087,-3.18934,0.8087799999999999,2.02958,0.978574155,-0.043029675,0.124328295
1764768230.334087,-3.18934,0.8087799999999999,2.02958,0.978574155,-0.043029675,0.124328295
1764768230.334087,-3.18934,0.8087799999999999,2.02958,0.978574155,-0.043029675,0.124328295
1764768230.334087,-3.18934,0.8087799999999999,2.02958,0.978574155,-0.043029675,0.124328295
1764768230.380289,-3.40298,0.82404,1.54126,0.978207945,-0.043151745,0.12487761
1764768230.380289,-3.40298,0.82404,1.54126,0.978207945,-0.043151745,0.12487761
1764768230.380289,-3.40298,0.82404,1.54126,0.978207945,-0.043151745,0.12487761
1764768230.380289,-3.40298,0.82404,1.54126,0.978207945,-0.043151745,0.12487761
1764768230.380289,-3.40298,0.82404,1.54126,0.978207945,-0.043151745,0.12487761
1764768230.380289,-3.40298,0.82404,1.54126,0.978207945,-0.043151745,0.12487761
1764768230.380289,-3.40298,0.82404,1.54126,0.978207945,-0.043151745,0.12487761
1764768230.380796,-3.40298,0.82404,1.54126,0.978207945,-0.043151745,0.12487761
1764768230.380796,-3.40298,0.82404,1.54126,0.978207945,-0.043151745,0.12487761
1764768230.380796,-3.40298,0.82404,1.54126,0.978207945,-0.043151745,0.12487761
1764768230.380796,-3.4335,0.6409199999999999,1.23606,0.97863519,-0.043395885,0.125182785
1764768230.380796,-3.4335,0.6409199999999999,1.23606,0.97863519,-0.043395885,0.125182785
1764768230.380796,-3.4335,0.6409199999999999,1.23606,0.97863519,-0.043395885,0.125182785
1764768230.380796,-3.4335,0.6409199999999999,1.23606,0.97863519,-0.043395885,0.125182785
1764768230.380796,-3.4335,0.6409199999999999,1.23606,0.97863519,-0.043395885,0.125182785
1764768230.380796,-3.4335,0.6409199999999999,1.23606,0.97863519,-0.043395885,0.125182785
1764768230.380796,-3.4335,0.6409199999999999,1.23606,0.97863519,-0.043395885,0.125182785
1764768230.380796,-3.4335,0.6409199999999999,1.23606,0.97863519,-0.043395885,0.125182785
1764768230.380796,-3.4335,0.6409199999999999,1.23606,0.97863519,-0.043395885,0.125182785
1764768230.380796,-3.4335,0.6409199999999999,1.23606,0.97863519,-0.043395885,0.125182785
1764768230.380796,-3.31142,0.77826,1.61756,0.97875726,-0.044128305,0.124694505
1764768230.380796,-3.31142,0.77826,1.61756,0.97875726,-0.044128305,0.124694505
1764768230.380796,-3.31142,0.77826,1.61756,0.97875726,-0.044128305,0.124694505
1764768230.380796,-3.31142,0.77826,1.61756,0.97875726,-0.044128305,0.124694505
1764768230.427264,-3.31142,0.77826,1.61756,0.97875726,-0.044128305,0.124694505
1764768230.427264,-3.31142,0.77826,1.61756,0.97875726,-0.044128305,0.124694505
1764768230.427264,-3.31142,0.77826,1.61756,0.97875726,-0.044128305,0.124694505
1764768230.427264,-3.31142,0.77826,1.61756,0.97875726,-0.044128305,0.124694505
1764768230.427264,-3.31142,0.77826,1.61756,0.97875726,-0.044128305,0.124694505
1764768230.427264,-3.31142,0.77826,1.61756,0.97875726,-0.044128305,0.124694505
1764768230.427264,-3.34194,0.47306,1.526,0.97729242,-0.045471075,0.1232907
1764768230.427264,-3.34194,0.47306,1.526,0.97729242,-0.045471075,0.1232907
1764768230.427264,-3.34194,0.47306,1.526,0.97729242,-0.045471075,0.1232907
1764768230.427264,-3.34194,0.47306,1.526,0.97729242,-0.045471075,0.1232907
1764768230.427264,-3.34194,0.47306,1.526,0.97729242,-0.045471075,0.1232907
1764768230.427264,-3.34194,0.47306,1.526,0.97729242,-0.045471075,0.1232907
1764768230.427264,-3.34194,0.47306,1.526,0.97729242,-0.045471075,0.1232907
1764768230.427264,-3.34194,0.47306,1.526,0.97729242,-0.045471075,0.1232907
1764768230.427264,-3.34194,0.47306,1.526,0.97729242,-0.045471075,0.1232907
1764768230.427264,-3.34194,0.47306,1.526,0.97729242,-0.045471075,0.1232907
1764768230.427264,-3.815,0.28994,0.94612,0.97851312,-0.04602039,0.122375175
1764768230.4283235,-3.815,0.28994,0.94612,0.97851312,-0.04602039,0.122375175
1764768230.4283235,-3.815,0.28994,0.94612,0.97851312,-0.04602039,0.122375175
1764768230.4283235,-3.815,0.28994,0.94612,0.97851312,-0.04602039,0.122375175
1764768230.4283235,-3.815,0.28994,0.94612,0.97851312,-0.04602039,0.122375175
1764768230.4283235,-3.815,0.28994,0.94612,0.97851312,-0.04602039,0.122375175
1764768230.4283235,-3.815,0.28994,0.94612,0.97851312,-0.04602039,0.122375175
1764768230.4283235,-3.815,0.28994,0.94612,0.97851312,-0.04602039,0.122375175
1764768230.474327,-3.815,0.28994,0.94612,0.97851312,-0.04602039,0.122375175
1764768230.474327,-3.815,0.28994,0.94612,0.97851312,-0.04602039,0.122375175
1764768230.474327,-4.13546,1.4039199999999998,-0.42728,0.98156487,-0.044982795,0.122619315
1764768230.474327,-4.13546,1.4039199999999998,-0.42728,0.98156487,-0.044982795,0.122619315
1764768230.474327,-4.13546,1.4039199999999998,-0.42728,0.98156487,-0.044982795,0.122619315
1764768230.474327,-4.13546,1.4039199999999998,-0.42728,0.98156487,-0.044982795,0.122619315
1764768230.474327,-4.13546,1.4039199999999998,-0.42728,0.98156487,-0.044982795,0.122619315
1764768230.474327,-4.13546,1.4039199999999998,-0.42728,0.98156487,-0.044982795,0.122619315
1764768230.474327,-4.13546,1.4039199999999998,-0.42728,0.98156487,-0.044982795,0.122619315
1764768230.474327,-4.13546,1.4039199999999998,-0.42728,0.98156487,-0.044982795,0.122619315
1764768230.474327,-4.13546,1.4039199999999998,-0.42728,0.98156487,-0.044982795,0.122619315
1764768230.474327,-4.13546,1.4039199999999998,-0.42728,0.98156487,-0.044982795,0.122619315
1764768230.474327,-3.99812,2.30426,-0.3815,0.980405205,-0.044860725,0.123107595
1764768230.474327,-3.99812,2.30426,-0.3815,0.980405205,-0.044860725,0.123107595
1764768230.474327,-3.99812,2.30426,-0.3815,0.980405205,-0.044860725,0.123107595
1764768230.474327,-3.99812,2.30426,-0.3815,0.980405205,-0.044860725,0.123107595
1764768230.474327,-3.99812,2.30426,-0.3815,0.980405205,-0.044860725,0.123107595
1764768230.474327,-3.99812,2.30426,-0.3815,0.980405205,-0.044860725,0.123107595
1764768230.474327,-3.99812,2.30426,-0.3815,0.980405205,-0.044860725,0.123107595
1764768230.474327,-3.99812,2.30426,-0.3815,0.980405205,-0.044860725,0.123107595
1764768230.475352,-3.99812,2.30426,-0.3815,0.980405205,-0.044860725,0.123107595
1764768230.475352,-3.99812,2.30426,-0.3815,0.980405205,-0.044860725,0.123107595
1764768230.475352,-4.059159999999999,2.27374,-1.08346,0.97839105,-0.04418934,0.12402312
1764768230.475352,-4.059159999999999,2.27374,-1.08346,0.97839105,-0.04418934,0.12402312
1764768230.521734,-4.059159999999999,2.27374,-1.08346,0.97839105,-0.04418934,0.12402312
1764768230.521734,-4.059159999999999,2.27374,-1.08346,0.97839105,-0.04418934,0.12402312
1764768230.521734,-4.059159999999999,2.27374,-1.08346,0.97839105,-0.04418934,0.12402312
1764768230.521734,-4.059159999999999,2.27374,-1.08346,0.97839105,-0.04418934,0.12402312
1764768230.521734,-4.059159999999999,2.27374,-1.08346,0.97839105,-0.04418934,0.12402312
1764768230.521734,-4.059159999999999,2.27374,-1.08346,0.97839105,-0.04418934,0.12402312
1764768230.521734,-4.059159999999999,2.27374,-1.08346,0.97839105,-0.04418934,0.12402312
1764768230.521734,-4.059159999999999,2.27374,-1.08346,0.97839105,-0.04418934,0.12402312
1764768230.521734,-4.15072,2.1364,-1.19028,0.97887933,-0.04357899,0.124694505
1764768230.521734,-4.15072,2.1364,-1.19028,0.97887933,-0.04357899,0.124694505
1764768230.521734,-4.15072,2.1364,-1.19028,0.97887933,-0.04357899,0.124694505
1764768230.521734,-4.15072,2.1364,-1.19028,0.97887933,-0.04357899,0.124694505
1764768230.521734,-4.15072,2.1364,-1.19028,0.97887933,-0.04357899,0.124694505
1764768230.521734,-4.15072,2.1364,-1.19028,0.97887933,-0.04357899,0.124694505
1764768230.521734,-4.15072,2.1364,-1.19028,0.97887933,-0.04357899,0.124694505
1764768230.521734,-4.15072,2.1364,-1.19028,0.97887933,-0.04357899,0.124694505
1764768230.521734,-4.15072,2.1364,-1.19028,0.97887933,-0.04357899,0.124694505
1764768230.521734,-4.15072,2.1364,-1.19028,0.97887933,-0.04357899,0.124694505
1764768230.521734,-3.67766,2.07536,-1.00716,0.978696225,-0.04333485,0.126159345
1764768230.521734,-3.67766,2.07536,-1.00716,0.978696225,-0.04333485,0.126159345
1764768230.521734,-3.67766,2.07536,-1.00716,0.978696225,-0.04333485,0.126159345
1764768230.521734,-3.67766,2.07536,-1.00716,0.978696225,-0.04333485,0.126159345
1764768230.521734,-3.67766,2.07536,-1.00716,0.978696225,-0.04333485,0.126159345
1764768230.521734,-3.67766,2.07536,-1.00716,0.978696225,-0.04333485,0.126159345
1764768230.5683758,-3.67766,2.07536,-1.00716,0.978696225,-0.04333485,0.126159345
1764768230.5683758,-3.67766,2.07536,-1.00716,0.978696225,-0.04333485,0.126159345
1764768230.5683758,-3.67766,2.07536,-1.00716,0.978696225,-0.04333485,0.126159345
1764768230.5683758,-3.67766,2.07536,-1.00716,0.978696225,-0.04333485,0.126159345
1764768230.5683758,-3.60136,1.89224,-0.3815,0.97826898,-0.04174794,0.126647625
1764768230.5683758,-3.60136,1.89224,-0.3815,0.97826898,-0.04174794,0.126647625
1764768230.5683758,-3.60136,1.89224,-0.3815,0.97826898,-0.04174794,0.126647625
1764768230.5683758,-3.60136,1.89224,-0.3815,0.97826898,-0.04174794,0.126647625
1764768230.5683758,-3.60136,1.89224,-0.3815,0.97826898,-0.04174794,0.126647625
1764768230.5683758,-3.60136,1.89224,-0.3815,0.97826898,-0.04174794,0.126647625
1764768230.5683758,-3.60136,1.89224,-0.3815,0.97826898,-0.04174794,0.126647625
1764768230.5683758,-3.60136,1.89224,-0.3815,0.97826898,-0.04174794,0.126647625
1764768230.5683758,-3.60136,1.89224,-0.3815,0.97826898,-0.04174794,0.126647625
1764768230.5683758,-3.60136,1.89224,-0.3815,0.97826898,-0.04174794,0.126647625
1764768230.5683758,-3.86078,1.03768,0.0762999999999999,0.977841735,-0.04064931,0.127135905
1764768230.5683758,-3.86078,1.03768,0.0762999999999999,0.977841735,-0.04064931,0.127135905
1764768230.5683758,-3.86078,1.03768,0.0762999999999999,0.977841735,-0.04064931,0.127135905
1764768230.5683758,-3.86078,1.03768,0.0762999999999999,0.977841735,-0.04064931,0.127135905
1764768230.5683758,-3.86078,1.03768,0.0762999999999999,0.977841735,-0.04064931,0.127135905
1764768230.5683758,-3.86078,1.03768,0.0762999999999999,0.977841735,-0.04064931,0.127135905
1764768230.5683758,-3.86078,1.03768,0.0762999999999999,0.977841735,-0.04064931,0.127135905
1764768230.5683758,-3.86078,1.03768,0.0762999999999999,0.977841735,-0.04064931,0.127135905
1764768230.5693836,-3.86078,1.03768,0.0762999999999999,0.977841735,-0.04064931,0.127135905
1764768230.5693836,-3.86078,1.03768,0.0762999999999999,0.977841735,-0.04064931,0.127135905
1764768230.6153824,-3.49454,0.9156,0.3204599999999999,0.978330015,-0.039733785,0.127502115
1764768230.6153824,-3.49454,0.9156,0.3204599999999999,0.978330015,-0.039733785,0.127502115
1764768230.6153824,-3.49454,0.9156,0.3204599999999999,0.978330015,-0.039733785,0.127502115
1764768230.6153824,-3.49454,0.9156,0.3204599999999999,0.978330015,-0.039733785,0.127502115
1764768230.6153824,-3.49454,0.9156,0.3204599999999999,0.978330015,-0.039733785,0.127502115
1764768230.6153824,-3.49454,0.9156,0.3204599999999999,0.978330015,-0.039733785,0.127502115
1764768230.6153824,-3.49454,0.9156,0.3204599999999999,0.978330015,-0.039733785,0.127502115
1764768230.6153824,-3.49454,0.9156,0.3204599999999999,0.978330015,-0.039733785,0.127502115
1764768230.6153824,-3.49454,0.9156,0.3204599999999999,0.978330015,-0.039733785,0.127502115
1764768230.6153824,-3.49454,0.9156,0.3204599999999999,0.978330015,-0.039733785,0.127502115
1764768230.6153824,-3.7387,0.763,0.3509799999999999,0.977719665,-0.03967275,0.128112465
1764768230.6153824,-3.7387,0.763,0.3509799999999999,0.977719665,-0.03967275,0.128112465
1764768230.6153824,-3.7387,0.763,0.3509799999999999,0.977719665,-0.03967275,0.128112465
1764768230.6153824,-3.7387,0.763,0.3509799999999999,0.977719665,-0.03967275,0.128112465
1764768230.6153824,-3.7387,0.763,0.3509799999999999,0.977719665,-0.03967275,0.128112465
1764768230.6153824,-3.7387,0.763,0.3509799999999999,0.977719665,-0.03967275,0.128112465
1764768230.6153824,-3.7387,0.763,0.3509799999999999,0.977719665,-0.03967275,0.128112465
1764768230.6153824,-3.7387,0.763,0.3509799999999999,0.977719665,-0.03967275,0.128112465
1764768230.6153824,-3.7387,0.763,0.3509799999999999,0.977719665,-0.03967275,0.128112465
1764768230.6153824,-3.7387,0.763,0.3509799999999999,0.977719665,-0.03967275,0.128112465
1764768230.6153824,-3.90656,0.24416,0.25942,0.9777807,-0.039489645,0.12768522
1764768230.6153824,-3.90656,0.24416,0.25942,0.9777807,-0.039489645,0.12768522
1764768230.6619954,-3.90656,0.24416,0.25942,0.9777807,-0.039489645,0.12768522
1764768230.6619954,-3.90656,0.24416,0.25942,0.9777807,-0.039489645,0.12768522
1764768230.6619954,-3.90656,0.24416,0.25942,0.9777807,-0.039489645,0.12768522
1764768230.6619954,-3.90656,0.24416,0.25942,0.9777807,-0.039489645,0.12768522
1764768230.6619954,-3.90656,0.24416,0.25942,0.9777807,-0.039489645,0.12768522
1764768230.6619954,-3.90656,0.24416,0.25942,0.9777807,-0.039489645,0.12768522
1764768230.6619954,-3.90656,0.24416,0.25942,0.9777807,-0.039489645,0.12768522
1764768230.6619954,-3.90656,0.24416,0.25942,0.9777807,-0.039489645,0.12768522
1764768230.6619954,-3.83026,-0.03052,0.50358,0.976987245,-0.03820791,0.127257975
1764768230.6619954,-3.83026,-0.03052,0.50358,0.976987245,-0.03820791,0.127257975
1764768230.6625152,-3.83026,-0.03052,0.50358,0.976987245,-0.03820791,0.127257975
1764768230.6625152,-3.83026,-0.03052,0.50358,0.976987245,-0.03820791,0.127257975
1764768230.6625152,-3.83026,-0.03052,0.50358,0.976987245,-0.03820791,0.127257975
1764768230.6625152,-3.83026,-0.03052,0.50358,0.976987245,-0.03820791,0.127257975
1764768230.6625152,-3.83026,-0.03052,0.50358,0.976987245,-0.03820791,0.127257975
1764768230.6625152,-3.83026,-0.03052,0.50358,0.976987245,-0.03820791,0.127257975
1764768230.6625152,-3.83026,-0.03052,0.50358,0.976987245,-0.03820791,0.127257975
1764768230.6625152,-3.83026,-0.03052,0.50358,0.976987245,-0.03820791,0.127257975
1764768230.6625152,-4.059159999999999,0.0762999999999999,0.44254,0.97729242,-0.038757225,0.12719694
1764768230.6625152,-4.059159999999999,0.0762999999999999,0.44254,0.97729242,-0.038757225,0.12719694
1764768230.6625152,-4.059159999999999,0.0762999999999999,0.44254,0.97729242,-0.038757225,0.12719694
1764768230.6625152,-4.059159999999999,0.0762999999999999,0.44254,0.97729242,-0.038757225,0.12719694
1764768230.708319,-4.059159999999999,0.0762999999999999,0.44254,0.97729242,-0.038757225,0.12719694
1764768230.708319,-4.059159999999999,0.0762999999999999,0.44254,0.97729242,-0.038757225,0.12719694
1764768230.708319,-4.059159999999999,0.0762999999999999,0.44254,0.97729242,-0.038757225,0.12719694
1764768230.708319,-4.059159999999999,0.0762999999999999,0.44254,0.97729242,-0.038757225,0.12719694
1764768230.708319,-4.059159999999999,0.0762999999999999,0.44254,0.97729242,-0.038757225,0.12719694
1764768230.708319,-4.059159999999999,0.0762999999999999,0.44254,0.97729242,-0.038757225,0.12719694
1764768230.708319,-4.16598,-0.19838,1.28184,0.977353455,-0.039245505,0.125915205
1764768230.708319,-4.16598,-0.19838,1.28184,0.977353455,-0.039245505,0.125915205
1764768230.708319,-4.16598,-0.19838,1.28184,0.977353455,-0.039245505,0.125915205
1764768230.708319,-4.16598,-0.19838,1.28184,0.977353455,-0.039245505,0.125915205
1764768230.708319,-4.16598,-0.19838,1.28184,0.977353455,-0.039245505,0.125915205
1764768230.708319,-4.16598,-0.19838,1.28184,0.977353455,-0.039245505,0.125915205
1764768230.708319,-4.16598,-0.19838,1.28184,0.977353455,-0.039245505,0.125915205
1764768230.708319,-4.16598,-0.19838,1.28184,0.977353455,-0.039245505,0.125915205
1764768230.708319,-4.16598,-0.19838,1.28184,0.977353455,-0.039245505,0.125915205
1764768230.708319,-4.16598,-0.19838,1.28184,0.977353455,-0.039245505,0.125915205
1764768230.708319,-4.18124,-0.27468,1.15976,0.978940365,-0.040344135,0.125548995
1764768230.708319,-4.18124,-0.27468,1.15976,0.978940365,-0.040344135,0.125548995
1764768230.708319,-4.18124,-0.27468,1.15976,0.978940365,-0.040344135,0.125548995
1764768230.708319,-4.18124,-0.27468,1.15976,0.978940365,-0.040344135,0.125548995
1764768230.708319,-4.18124,-0.27468,1.15976,0.978940365,-0.040344135,0.125548995
1764768230.708319,-4.18124,-0.27468,1.15976,0.978940365,-0.040344135,0.125548995
1764768230.708319,-4.18124,-0.27468,1.15976,0.978940365,-0.040344135,0.125548995
1764768230.708319,-4.18124,-0.27468,1.15976,0.978940365,-0.040344135,0.125548995
1764768230.708319,-4.18124,-0.27468,1.15976,0.978940365,-0.040344135,0.125548995
1764768230.708319,-4.18124,-0.27468,1.15976,0.978940365,-0.040344135,0.125548995
1764768230.755063,-3.78448,0.01526,1.34288,0.978940365,-0.040710345,0.124328295
1764768230.755063,-3.78448,0.01526,1.34288,0.978940365,-0.040710345,0.124328295
1764768230.755063,-3.78448,0.01526,1.34288,0.978940365,-0.040710345,0.124328295
1764768230.755063,-3.78448,0.01526,1.34288,0.978940365,-0.040710345,0.124328295
1764768230.755063,-3.78448,0.01526,1.34288,0.978940365,-0.040710345,0.124328295
1764768230.755063,-3.78448,0.01526,1.34288,0.978940365,-0.040710345,0.124328295
1764768230.755063,-3.78448,0.01526,1.34288,0.978940365,-0.040710345,0.124328295
1764768230.755063,-3.78448,0.01526,1.34288,0.978940365,-0.040710345,0.124328295
1764768230.755063,-3.78448,0.01526,1.34288,0.978940365,-0.040710345,0.124328295
1764768230.755063,-3.78448,0.01526,1.34288,0.978940365,-0.040710345,0.124328295
1764768230.755063,-3.86078,0.18312,0.77826,0.97936761,-0.041442765,0.123229665
1764768230.755063,-3.86078,0.18312,0.77826,0.97936761,-0.041442765,0.123229665
1764768230.755063,-3.86078,0.18312,0.77826,0.97936761,-0.041442765,0.123229665
1764768230.755063,-3.86078,0.18312,0.77826,0.97936761,-0.041442765,0.123229665
1764768230.755063,-3.86078,0.18312,0.77826,0.97936761,-0.041442765,0.123229665
1764768230.755063,-3.86078,0.18312,0.77826,0.97936761,-0.041442765,0.123229665
1764768230.755063,-3.86078,0.18312,0.77826,0.97936761,-0.041442765,0.123229665
1764768230.755063,-3.86078,0.18312,0.77826,0.97936761,-0.041442765,0.123229665
1764768230.755063,-3.86078,0.18312,0.77826,0.97936761,-0.041442765,0.123229665
1764768230.755063,-3.86078,0.18312,0.77826,0.97936761,-0.041442765,0.123229665
1764768230.8015742,-4.01338,0.93086,0.7019599999999999,0.979916925,-0.04199208,0.122619315
1764768230.8020797,-4.01338,0.93086,0.7019599999999999,0.979916925,-0.04199208,0.122619315
1764768230.8020797,-4.01338,0.93086,0.7019599999999999,0.979916925,-0.04199208,0.122619315
1764768230.8020797,-4.01338,0.93086,0.7019599999999999,0.979916925,-0.04199208,0.122619315
1764768230.8020797,-4.01338,0.93086,0.7019599999999999,0.979916925,-0.04199208,0.122619315
1764768230.8020797,-4.01338,0.93086,0.7019599999999999,0.979916925,-0.04199208,0.122619315
1764768230.8020797,-4.01338,0.93086,0.7019599999999999,0.979916925,-0.04199208,0.122619315
1764768230.8020797,-4.01338,0.93086,0.7019599999999999,0.979916925,-0.04199208,0.122619315
1764768230.8020797,-4.01338,0.93086,0.7019599999999999,0.979916925,-0.04199208,0.122619315
1764768230.8020797,-4.01338,0.93086,0.7019599999999999,0.979916925,-0.04199208,0.122619315
1764768230.8020797,-3.64714,0.9919,0.24416,0.97985589,-0.041931045,0.12255828
1764768230.8020797,-3.64714,0.9919,0.24416,0.97985589,-0.041931045,0.12255828
1764768230.8020797,-3.64714,0.9919,0.24416,0.97985589,-0.041931045,0.12255828
1764768230.8020797,-3.64714,0.9919,0.24416,0.97985589,-0.041931045,0.12255828
1764768230.8020797,-3.64714,0.9919,0.24416,0.97985589,-0.041931045,0.12255828
1764768230.8020797,-3.64714,0.9919,0.24416,0.97985589,-0.041931045,0.12255828
1764768230.8020797,-3.64714,0.9919,0.24416,0.97985589,-0.041931045,0.12255828
1764768230.8020797,-3.64714,0.9919,0.24416,0.97985589,-0.041931045,0.12255828
1764768230.8020797,-3.64714,0.9919,0.24416,0.97985589,-0.041931045,0.12255828
1764768230.8020797,-3.64714,0.9919,0.24416,0.97985589,-0.041931045,0.12255828
1764768230.8020797,-3.83026,1.41918,-0.09156,0.98010003,-0.041808975,0.12219207
1764768230.8020797,-3.83026,1.41918,-0.09156,0.98010003,-0.041808975,0.12219207
1764768230.8020797,-3.83026,1.41918,-0.09156,0.98010003,-0.041808975,0.12219207
1764768230.8020797,-3.83026,1.41918,-0.09156,0.98010003,-0.041808975,0.12219207
1764768230.8020797,-3.83026,1.41918,-0.09156,0.98010003,-0.041808975,0.12219207
1764768230.8020797,-3.83026,1.41918,-0.09156,0.98010003,-0.041808975,0.12219207
1764768230.8516345,-3.83026,1.41918,-0.09156,0.98010003,-0.041808975,0.12219207
1764768230.8516345,-3.83026,1.41918,-0.09156,0.98010003,-0.041808975,0.12219207
1764768230.8516345,-3.83026,1.41918,-0.09156,0.98010003,-0.041808975,0.12219207
1764768230.8516345,-3.83026,1.41918,-0.09156,0.98010003,-0.041808975,0.12219207
1764768230.8516345,-3.55558,1.32762,0.04578,0.979062435,-0.041808975,0.12255828
1764768230.8516345,-3.55558,1.32762,0.04578,0.979062435,-0.041808975,0.12255828
1764768230.8516345,-3.55558,1.32762,0.04578,0.979062435,-0.041808975,0.12255828
1764768230.8516345,-3.55558,1.32762,0.04578,0.979062435,-0.041808975,0.12255828
1764768230.8516345,-3.55558,1.32762,0.04578,0.979062435,-0.041808975,0.12255828
1764768230.8516345,-3.55558,1.32762,0.04578,0.979062435,-0.041808975,0.12255828
1764768230.8516345,-3.55558,1.32762,0.04578,0.979062435,-0.041808975,0.12255828
1764768230.8516345,-3.55558,1.32762,0.04578,0.979062435,-0.041808975,0.12255828
1764768230.8516345,-3.55558,1.32762,0.04578,0.979062435,-0.041808975,0.12255828
1764768230.8516345,-3.55558,1.32762,0.04578,0.979062435,-0.041808975,0.12255828
1764768230.8516345,-3.83026,1.12924,-0.25942,0.979184505,-0.04174794,0.12292449
1764768230.8516345,-3.83026,1.12924,-0.25942,0.979184505,-0.04174794,0.12292449
1764768230.852146,-3.83026,1.12924,-0.25942,0.979184505,-0.04174794,0.12292449
1764768230.852146,-3.83026,1.12924,-0.25942,0.979184505,-0.04174794,0.12292449
1764768230.852146,-3.83026,1.12924,-0.25942,0.979184505,-0.04174794,0.12292449
1764768230.852146,-3.83026,1.12924,-0.25942,0.979184505,-0.04174794,0.12292449
1764768230.852146,-3.83026,1.12924,-0.25942,0.979184505,-0.04174794,0.12292449
1764768230.852146,-3.83026,1.12924,-0.25942,0.979184505,-0.04174794,0.12292449
1764768230.897575,-3.83026,1.12924,-0.25942,0.979184505,-0.04174794,0.12292449
1764768230.897575,-3.83026,1.12924,-0.25942,0.979184505,-0.04174794,0.12292449
1764768230.897575,-3.93708,1.03768,0.28994,0.97912347,-0.040344135,0.12280242
1764768230.897575,-3.93708,1.03768,0.28994,0.97912347,-0.040344135,0.12280242
1764768230.897575,-3.93708,1.03768,0.28994,0.97912347,-0.040344135,0.12280242
1764768230.897575,-3.93708,1.03768,0.28994,0.97912347,-0.040344135,0.12280242
1764768230.897575,-3.93708,1.03768,0.28994,0.97912347,-0.040344135,0.12280242
1764768230.897575,-3.93708,1.03768,0.28994,0.97912347,-0.040344135,0.12280242
1764768230.897575,-3.93708,1.03768,0.28994,0.97912347,-0.040344135,0.12280242
1764768230.897575,-3.93708,1.03768,0.28994,0.97912347,-0.040344135,0.12280242
1764768230.897575,-3.93708,1.03768,0.28994,0.97912347,-0.040344135,0.12280242
1764768230.897575,-3.93708,1.03768,0.28994,0.97912347,-0.040344135,0.12280242
1764768230.897575,-4.059159999999999,1.05294,0.47306,0.978818295,-0.04040517,0.123107595
1764768230.897575,-4.059159999999999,1.05294,0.47306,0.978818295,-0.04040517,0.123107595
1764768230.897575,-4.059159999999999,1.05294,0.47306,0.978818295,-0.04040517,0.123107595
1764768230.897575,-4.059159999999999,1.05294,0.47306,0.978818295,-0.04040517,0.123107595
1764768230.897575,-4.059159999999999,1.05294,0.47306,0.978818295,-0.04040517,0.123107595
1764768230.897575,-4.059159999999999,1.05294,0.47306,0.978818295,-0.04040517,0.123107595
1764768230.897575,-4.059159999999999,1.05294,0.47306,0.978818295,-0.04040517,0.123107595
1764768230.897575,-4.059159999999999,1.05294,0.47306,0.978818295,-0.04040517,0.123107595
1764768230.897575,-4.059159999999999,1.05294,0.47306,0.978818295,-0.04040517,0.123107595
1764768230.897575,-4.059159999999999,1.05294,0.47306,0.978818295,-0.04040517,0.123107595
1764768230.897575,-3.76922,1.2055399999999998,0.82404,0.97875726,-0.03979482,0.12316863
1764768230.897575,-3.76922,1.2055399999999998,0.82404,0.97875726,-0.03979482,0.12316863
1764768230.897575,-3.76922,1.2055399999999998,0.82404,0.97875726,-0.03979482,0.12316863
1764768230.897575,-3.76922,1.2055399999999998,0.82404,0.97875726,-0.03979482,0.12316863
1764768230.9453754,-3.76922,1.2055399999999998,0.82404,0.97875726,-0.03979482,0.12316863
1764768230.9453754,-3.76922,1.2055399999999998,0.82404,0.97875726,-0.03979482,0.12316863
1764768230.9453754,-3.76922,1.2055399999999998,0.82404,0.97875726,-0.03979482,0.12316863
1764768230.9453754,-3.76922,1.2055399999999998,0.82404,0.97875726,-0.03979482,0.12316863
1764768230.9453754,-3.76922,1.2055399999999998,0.82404,0.97875726,-0.03979482,0.12316863
1764768230.9453754,-3.76922,1.2055399999999998,0.82404,0.97875726,-0.03979482,0.12316863
1764768230.9453754,-4.0439,0.82404,1.02242,0.9790014,-0.039977925,0.123351735
1764768230.9453754,-4.0439,0.82404,1.02242,0.9790014,-0.039977925,0.123351735
1764768230.9453754,-4.0439,0.82404,1.02242,0.9790014,-0.039977925,0.123351735
1764768230.9453754,-4.0439,0.82404,1.02242,0.9790014,-0.039977925,0.123351735
1764768230.9453754,-4.0439,0.82404,1.02242,0.9790014,-0.039977925,0.123351735
1764768230.9453754,-4.0439,0.82404,1.02242,0.9790014,-0.039977925,0.123351735
1764768230.9453754,-4.0439,0.82404,1.02242,0.9790014,-0.039977925,0.123351735
1764768230.9453754,-4.0439,0.82404,1.02242,0.9790014,-0.039977925,0.123351735
1764768230.9453754,-4.0439,0.82404,1.02242,0.9790014,-0.039977925,0.123351735
1764768230.9453754,-4.0439,0.82404,1.02242,0.9790014,-0.039977925,0.123351735
1764768230.9453754,-3.7387,1.23606,0.763,0.97936761,-0.040099995,0.1232907
1764768230.9453754,-3.7387,1.23606,0.763,0.97936761,-0.040099995,0.1232907
1764768230.9453754,-3.7387,1.23606,0.763,0.97936761,-0.040099995,0.1232907
1764768230.9453754,-3.7387,1.23606,0.763,0.97936761,-0.040099995,0.1232907
1764768230.9453754,-3.7387,1.23606,0.763,0.97936761,-0.040099995,0.1232907
1764768230.9453754,-3.7387,1.23606,0.763,0.97936761,-0.040099995,0.1232907
1764768230.9917145,-3.7387,1.23606,0.763,0.97936761,-0.040099995,0.1232907
1764768230.9917145,-3.7387,1.23606,0.763,0.97936761,-0.040099995,0.1232907
1764768230.9917145,-3.7387,1.23606,0.763,0.97936761,-0.040099995,0.1232907
1764768230.9917145,-3.7387,1.23606,0.763,0.97936761,-0.040099995,0.1232907
1764768230.9917145,-3.47928,1.48022,0.73248,0.978940365,-0.040466205,0.12292449
1764768230.9917145,-3.47928,1.48022,0.73248,0.978940365,-0.040466205,0.12292449
1764768230.9917145,-3.47928,1.48022,0.73248,0.978940365,-0.040466205,0.12292449
1764768230.9917145,-3.47928,1.48022,0.73248,0.978940365,-0.040466205,0.12292449
1764768230.9917145,-3.47928,1.48022,0.73248,0.978940365,-0.040466205,0.12292449
1764768230.9917145,-3.47928,1.48022,0.73248,0.978940365,-0.040466205,0.12292449
1764768230.9917145,-3.47928,1.48022,0.73248,0.978940365,-0.040466205,0.12292449
1764768230.9917145,-3.47928,1.48022,0.73248,0.978940365,-0.040466205,0.12292449
1764768230.9917145,-3.47928,1.48022,0.73248,0.978940365,-0.040466205,0.12292449
1764768230.9917145,-3.47928,1.48022,0.73248,0.978940365,-0.040466205,0.12292449
1764768230.9917145,-3.18934,1.43444,0.77826,0.978940365,-0.041198625,0.12304656
1764768230.9917145,-3.18934,1.43444,0.77826,0.978940365,-0.041198625,0.12304656
1764768230.9917145,-3.18934,1.43444,0.77826,0.978940365,-0.041198625,0.12304656
1764768230.9917145,-3.18934,1.43444,0.77826,0.978940365,-0.041198625,0.12304656
1764768230.9928453,-3.18934,1.43444,0.77826,0.978940365,-0.041198625,0.12304656
1764768230.9928453,-3.18934,1.43444,0.77826,0.978940365,-0.041198625,0.12304656
1764768230.9928453,-3.18934,1.43444,0.77826,0.978940365,-0.041198625,0.12304656
1764768230.9928453,-3.18934,1.43444,0.77826,0.978940365,-0.041198625,0.12304656
1764768231.0352526,-3.18934,1.43444,0.77826,0.978940365,-0.041198625,0.12304656
1764768231.0352526,-3.18934,1.43444,0.77826,0.978940365,-0.041198625,0.12304656
1764768231.0352526,-3.29616,2.09062,1.00716,0.97912347,-0.040832415,0.123595875
1764768231.0352526,-3.29616,2.09062,1.00716,0.97912347,-0.040832415,0.123595875
1764768231.0352526,-3.29616,2.09062,1.00716,0.97912347,-0.040832415,0.123595875
1764768231.0352526,-3.29616,2.09062,1.00716,0.97912347,-0.040832415,0.123595875
1764768231.0352526,-3.29616,2.09062,1.00716,0.97912347,-0.040832415,0.123595875
1764768231.0357573,-3.29616,2.09062,1.00716,0.97912347,-0.040832415,0.123595875
1764768231.0357573,-3.29616,2.09062,1.00716,0.97912347,-0.040832415,0.123595875
1764768231.0357573,-3.29616,2.09062,1.00716,0.97912347,-0.040832415,0.123595875
1764768231.0357573,-3.29616,2.09062,1.00716,0.97912347,-0.040832415,0.123595875
1764768231.0357573,-3.29616,2.09062,1.00716,0.97912347,-0.040832415,0.123595875
1764768231.0357573,-3.2809,1.69386,0.94612,0.979428645,-0.040954485,0.124694505
1764768231.0357573,-3.2809,1.69386,0.94612,0.979428645,-0.040954485,0.124694505
1764768231.0357573,-3.2809,1.69386,0.94612,0.979428645,-0.040954485,0.124694505
1764768231.0357573,-3.2809,1.69386,0.94612,0.979428645,-0.040954485,0.124694505
1764768231.0357573,-3.2809,1.69386,0.94612,0.979428645,-0.040954485,0.124694505
1764768231.0357573,-3.2809,1.69386,0.94612,0.979428645,-0.040954485,0.124694505
1764768231.0357573,-3.2809,1.69386,0.94612,0.979428645,-0.040954485,0.124694505
1764768231.0357573,-3.2809,1.69386,0.94612,0.979428645,-0.040954485,0.124694505
1764768231.0357573,-3.2809,1.69386,0.94612,0.979428645,-0.040954485,0.124694505
1764768231.0357573,-3.2809,1.69386,0.94612,0.979428645,-0.040954485,0.124694505
1764768231.0357573,-3.26564,1.8006799999999998,0.5341,0.979306575,-0.040466205,0.12487761
1764768231.0357573,-3.26564,1.8006799999999998,0.5341,0.979306575,-0.040466205,0.12487761
1764768231.0856855,-3.26564,1.8006799999999998,0.5341,0.979306575,-0.040466205,0.12487761
1764768231.0856855,-3.26564,1.8006799999999998,0.5341,0.979306575,-0.040466205,0.12487761
1764768231.0856855,-3.26564,1.8006799999999998,0.5341,0.979306575,-0.040466205,0.12487761
1764768231.0856855,-3.26564,1.8006799999999998,0.5341,0.979306575,-0.040466205,0.12487761
1764768231.0856855,-3.26564,1.8006799999999998,0.5341,0.979306575,-0.040466205,0.12487761
1764768231.0856855,-3.26564,1.8006799999999998,0.5341,0.979306575,-0.040466205,0.12487761
1764768231.0856855,-3.26564,1.8006799999999998,0.5341,0.979306575,-0.040466205,0.12487761
1764768231.0856855,-3.26564,1.8006799999999998,0.5341,0.979306575,-0.040466205,0.12487761
1764768231.0856855,-3.31142,1.32762,0.93086,0.97814691,-0.039855855,0.124938645
1764768231.0856855,-3.31142,1.32762,0.93086,0.97814691,-0.039855855,0.124938645
1764768231.0856855,-3.31142,1.32762,0.93086,0.97814691,-0.039855855,0.124938645
1764768231.0856855,-3.31142,1.32762,0.93086,0.97814691,-0.039855855,0.124938645
1764768231.0856855,-3.31142,1.32762,0.93086,0.97814691,-0.039855855,0.124938645
1764768231.0856855,-3.31142,1.32762,0.93086,0.97814691,-0.039855855,0.124938645
1764768231.0856855,-3.31142,1.32762,0.93086,0.97814691,-0.039855855,0.124938645
1764768231.0856855,-3.31142,1.32762,0.93086,0.97814691,-0.039855855,0.124938645
1764768231.0856855,-3.31142,1.32762,0.93086,0.97814691,-0.039855855,0.124938645
1764768231.0856855,-3.31142,1.32762,0.93086,0.97814691,-0.039855855,0.124938645
1764768231.0856855,-4.22702,1.17502,0.85456,0.97765863,-0.038757225,0.125182785
1764768231.0856855,-4.22702,1.17502,0.85456,0.97765863,-0.038757225,0.125182785
1764768231.0856855,-4.22702,1.17502,0.85456,0.97765863,-0.038757225,0.125182785
1764768231.0856855,-4.22702,1.17502,0.85456,0.97765863,-0.038757225,0.125182785
1764768231.0856855,-4.22702,1.17502,0.85456,0.97765863,-0.038757225,0.125182785
1764768231.0856855,-4.22702,1.17502,0.85456,0.97765863,-0.038757225,0.125182785
1764768231.1322117,-4.22702,1.17502,0.85456,0.97765863,-0.038757225,0.125182785
1764768231.1322117,-4.22702,1.17502,0.85456,0.97765863,-0.038757225,0.125182785
1764768231.1322117,-4.22702,1.17502,0.85456,0.97765863,-0.038757225,0.125182785
1764768231.1322117,-4.22702,1.17502,0.85456,0.97765863,-0.038757225,0.125182785
1764768231.1322117,-4.18124,1.32762,0.88508,0.978207945,-0.03832998,0.125060715
1764768231.1322117,-4.18124,1.32762,0.88508,0.978207945,-0.03832998,0.125060715
1764768231.1322117,-4.18124,1.32762,0.88508,0.978207945,-0.03832998,0.125060715
1764768231.1322117,-4.18124,1.32762,0.88508,0.978207945,-0.03832998,0.125060715
1764768231.1322117,-4.18124,1.32762,0.88508,0.978207945,-0.03832998,0.125060715
1764768231.1322117,-4.18124,1.32762,0.88508,0.978207945,-0.03832998,0.125060715
1764768231.1322117,-4.18124,1.32762,0.88508,0.978207945,-0.03832998,0.125060715
1764768231.1322117,-4.18124,1.32762,0.88508,0.978207945,-0.03832998,0.125060715
1764768231.1322117,-4.18124,1.32762,0.88508,0.978207945,-0.03832998,0.125060715
1764768231.1322117,-4.18124,1.32762,0.88508,0.978207945,-0.03832998,0.125060715
1764768231.1322117,-4.059159999999999,0.96138,0.74774,0.97802484,-0.03918447,0.12561003
1764768231.1322117,-4.059159999999999,0.96138,0.74774,0.97802484,-0.03918447,0.12561003
1764768231.1322117,-4.059159999999999,0.96138,0.74774,0.97802484,-0.03918447,0.12561003
1764768231.1322117,-4.059159999999999,0.96138,0.74774,0.97802484,-0.03918447,0.12561003
1764768231.1322117,-4.059159999999999,0.96138,0.74774,0.97802484,-0.03918447,0.12561003
1764768231.1322117,-4.059159999999999,0.96138,0.74774,0.97802484,-0.03918447,0.12561003
1764768231.1322117,-4.059159999999999,0.96138,0.74774,0.97802484,-0.03918447,0.12561003
1764768231.1322117,-4.059159999999999,0.96138,0.74774,0.97802484,-0.03918447,0.12561003
1764768231.1322117,-4.059159999999999,0.96138,0.74774,0.97802484,-0.03918447,0.12561003
1764768231.1322117,-4.059159999999999,0.96138,0.74774,0.97802484,-0.03918447,0.12561003
1764768231.178559,-3.87604,1.15976,1.28184,0.978330015,-0.04016103,0.125548995
1764768231.178559,-3.87604,1.15976,1.28184,0.978330015,-0.04016103,0.125548995
1764768231.178559,-3.87604,1.15976,1.28184,0.978330015,-0.04016103,0.125548995
1764768231.178559,-3.87604,1.15976,1.28184,0.978330015,-0.04016103,0.125548995
1764768231.178559,-3.87604,1.15976,1.28184,0.978330015,-0.04016103,0.125548995
1764768231.178559,-3.87604,1.15976,1.28184,0.978330015,-0.04016103,0.125548995
1764768231.178559,-3.87604,1.15976,1.28184,0.978330015,-0.04016103,0.125548995
1764768231.178559,-3.87604,1.15976,1.28184,0.978330015,-0.04016103,0.125548995
1764768231.178559,-3.87604,1.15976,1.28184,0.978330015,-0.04016103,0.125548995
1764768231.178559,-3.87604,1.15976,1.28184,0.978330015,-0.04016103,0.125548995
1764768231.178559,-3.31142,0.96138,1.4497,0.978330015,-0.04101552,0.125548995
1764768231.178559,-3.31142,0.96138,1.4497,0.978330015,-0.04101552,0.125548995
1764768231.178559,-3.31142,0.96138,1.4497,0.978330015,-0.04101552,0.125548995
1764768231.178559,-3.31142,0.96138,1.4497,0.978330015,-0.04101552,0.125548995
1764768231.178559,-3.31142,0.96138,1.4497,0.978330015,-0.04101552,0.125548995
1764768231.178559,-3.31142,0.96138,1.4497,0.978330015,-0.04101552,0.125548995
1764768231.178559,-3.31142,0.96138,1.4497,0.978330015,-0.04101552,0.125548995
1764768231.178559,-3.31142,0.96138,1.4497,0.978330015,-0.04101552,0.125548995
1764768231.178559,-3.31142,0.96138,1.4497,0.978330015,-0.04101552,0.125548995
1764768231.178559,-3.31142,0.96138,1.4497,0.978330015,-0.04101552,0.125548995
1764768231.178559,-3.11304,0.9003399999999999,1.69386,0.978085875,-0.04113759,0.12524382
1764768231.178559,-3.11304,0.9003399999999999,1.69386,0.978085875,-0.04113759,0.12524382
1764768231.178559,-3.11304,0.9003399999999999,1.69386,0.978085875,-0.04113759,0.12524382
1764768231.178559,-3.11304,0.9003399999999999,1.69386,0.978085875,-0.04113759,0.12524382
1764768231.2215984,-3.11304,0.9003399999999999,1.69386,0.978085875,-0.04113759,0.12524382
1764768231.2215984,-3.11304,0.9003399999999999,1.69386,0.978085875,-0.04113759,0.12524382
1764768231.2215984,-3.11304,0.9003399999999999,1.69386,0.978085875,-0.04113759,0.12524382
1764768231.2215984,-3.11304,0.9003399999999999,1.69386,0.978085875,-0.04113759,0.12524382
1764768231.2215984,-3.11304,0.9003399999999999,1.69386,0.978085875,-0.04113759,0.12524382
1764768231.2215984,-3.11304,0.9003399999999999,1.69386,0.978085875,-0.04113759,0.12524382
1764768231.2215984,-2.79258,1.26658,1.15976,0.979062435,-0.042541395,0.12670866
1764768231.2215984,-2.79258,1.26658,1.15976,0.979062435,-0.042541395,0.12670866
1764768231.2215984,-2.79258,1.26658,1.15976,0.979062435,-0.042541395,0.12670866
1764768231.2215984,-2.79258,1.26658,1.15976,0.979062435,-0.042541395,0.12670866
1764768231.2215984,-2.79258,1.26658,1.15976,0.979062435,-0.042541395,0.12670866
1764768231.2215984,-2.79258,1.26658,1.15976,0.979062435,-0.042541395,0.12670866
1764768231.2215984,-2.79258,1.26658,1.15976,0.979062435,-0.042541395,0.12670866
1764768231.2215984,-2.79258,1.26658,1.15976,0.979062435,-0.042541395,0.12670866
1764768231.2215984,-2.79258,1.26658,1.15976,0.979062435,-0.042541395,0.12670866
1764768231.2215984,-2.79258,1.26658,1.15976,0.979062435,-0.042541395,0.12670866
1764768231.2215984,-2.39582,0.8392999999999999,1.26658,0.97875726,-0.044372445,0.127135905
1764768231.2215984,-2.39582,0.8392999999999999,1.26658,0.97875726,-0.044372445,0.127135905
1764768231.2215984,-2.39582,0.8392999999999999,1.26658,0.97875726,-0.044372445,0.127135905
1764768231.2215984,-2.39582,0.8392999999999999,1.26658,0.97875726,-0.044372445,0.127135905
1764768231.268128,-2.39582,0.8392999999999999,1.26658,0.97875726,-0.044372445,0.127135905
1764768231.268128,-2.39582,0.8392999999999999,1.26658,0.97875726,-0.044372445,0.127135905
1764768231.268128,-2.39582,0.8392999999999999,1.26658,0.97875726,-0.044372445,0.127135905
1764768231.268128,-2.39582,0.8392999999999999,1.26658,0.97875726,-0.044372445,0.127135905
1764768231.268128,-2.39582,0.8392999999999999,1.26658,0.97875726,-0.044372445,0.127135905
1764768231.268128,-2.39582,0.8392999999999999,1.26658,0.97875726,-0.044372445,0.127135905
1764768231.268128,-2.41108,0.3357199999999999,1.17502,0.977353455,-0.044738655,0.12658659
1764768231.268128,-2.41108,0.3357199999999999,1.17502,0.977353455,-0.044738655,0.12658659
1764768231.268128,-2.41108,0.3357199999999999,1.17502,0.977353455,-0.044738655,0.12658659
1764768231.268128,-2.41108,0.3357199999999999,1.17502,0.977353455,-0.044738655,0.12658659
1764768231.268128,-2.41108,0.3357199999999999,1.17502,0.977353455,-0.044738655,0.12658659
1764768231.268128,-2.41108,0.3357199999999999,1.17502,0.977353455,-0.044738655,0.12658659
1764768231.268128,-2.41108,0.3357199999999999,1.17502,0.977353455,-0.044738655,0.12658659
1764768231.268128,-2.41108,0.3357199999999999,1.17502,0.977353455,-0.044738655,0.12658659
1764768231.268128,-2.41108,0.3357199999999999,1.17502,0.977353455,-0.044738655,0.12658659
1764768231.268128,-2.41108,0.3357199999999999,1.17502,0.977353455,-0.044738655,0.12658659
1764768231.268128,-2.33478,-0.57988,0.73248,0.977841735,-0.044250375,0.126037275
1764768231.268128,-2.33478,-0.57988,0.73248,0.977841735,-0.044250375,0.126037275
1764768231.268128,-2.33478,-0.57988,0.73248,0.977841735,-0.044250375,0.126037275
1764768231.268128,-2.33478,-0.57988,0.73248,0.977841735,-0.044250375,0.126037275
1764768231.268128,-2.33478,-0.57988,0.73248,0.977841735,-0.044250375,0.126037275
1764768231.268128,-2.33478,-0.57988,0.73248,0.977841735,-0.044250375,0.126037275
1764768231.2691357,-2.33478,-0.57988,0.73248,0.977841735,-0.044250375,0.126037275
1764768231.2691357,-2.33478,-0.57988,0.73248,0.977841735,-0.044250375,0.126037275
1764768231.3159254,-2.33478,-0.57988,0.73248,0.977841735,-0.044250375,0.126037275
1764768231.3159254,-2.33478,-0.57988,0.73248,0.977841735,-0.044250375,0.126037275
1764768231.3159254,-2.76206,0.47306,0.62566,0.980038995,-0.04284657,0.126159345
1764768231.3159254,-2.76206,0.47306,0.62566,0.980038995,-0.04284657,0.126159345
1764768231.3159254,-2.76206,0.47306,0.62566,0.980038995,-0.04284657,0.126159345
1764768231.3159254,-2.76206,0.47306,0.62566,0.980038995,-0.04284657,0.126159345
1764768231.3159254,-2.76206,0.47306,0.62566,0.980038995,-0.04284657,0.126159345
1764768231.3159254,-2.76206,0.47306,0.62566,0.980038995,-0.04284657,0.126159345
1764768231.3159254,-2.76206,0.47306,0.62566,0.980038995,-0.04284657,0.126159345
1764768231.3159254,-2.76206,0.47306,0.62566,0.980038995,-0.04284657,0.126159345
1764768231.3159254,-2.76206,0.47306,0.62566,0.980038995,-0.04284657,0.126159345
1764768231.3159254,-2.76206,0.47306,0.62566,0.980038995,-0.04284657,0.126159345
1764768231.3159254,-3.76922,0.6409199999999999,0.0,0.980161065,-0.04052724,0.125426925
1764768231.3159254,-3.76922,0.6409199999999999,0.0,0.980161065,-0.04052724,0.125426925
1764768231.3159254,-3.76922,0.6409199999999999,0.0,0.980161065,-0.04052724,0.125426925
1764768231.3159254,-3.76922,0.6409199999999999,0.0,0.980161065,-0.04052724,0.125426925
1764768231.3159254,-3.76922,0.6409199999999999,0.0,0.980161065,-0.04052724,0.125426925
1764768231.3159254,-3.76922,0.6409199999999999,0.0,0.980161065,-0.04052724,0.125426925
1764768231.3159254,-3.76922,0.6409199999999999,0.0,0.980161065,-0.04052724,0.125426925
1764768231.3159254,-3.76922,0.6409199999999999,0.0,0.980161065,-0.04052724,0.125426925
1764768231.3159254,-3.76922,0.6409199999999999,0.0,0.980161065,-0.04052724,0.125426925
1764768231.3159254,-3.76922,0.6409199999999999,0.0,0.980161065,-0.04052724,0.125426925
1764768231.3159254,-4.959499999999999,1.11398,-0.9156,0.979550715,-0.03808584,0.124206225
1764768231.3159254,-4.959499999999999,1.11398,-0.9156,0.979550715,-0.03808584,0.124206225
1764768231.3598845,-4.959499999999999,1.11398,-0.9156,0.979550715,-0.03808584,0.124206225
1764768231.3598845,-4.959499999999999,1.11398,-0.9156,0.979550715,-0.03808584,0.124206225
1764768231.3598845,-4.959499999999999,1.11398,-0.9156,0.979550715,-0.03808584,0.124206225
1764768231.3598845,-4.959499999999999,1.11398,-0.9156,0.979550715,-0.03808584,0.124206225
1764768231.3598845,-4.959499999999999,1.11398,-0.9156,0.979550715,-0.03808584,0.124206225
1764768231.3598845,-4.959499999999999,1.11398,-0.9156,0.979550715,-0.03808584,0.124206225
1764768231.3598845,-4.959499999999999,1.11398,-0.9156,0.979550715,-0.03808584,0.124206225
1764768231.3598845,-4.959499999999999,1.11398,-0.9156,0.979550715,-0.03808584,0.124206225
1764768231.3598845,-5.15788,1.35814,-0.93086,0.97875726,-0.03796377,0.123840015
1764768231.3598845,-5.15788,1.35814,-0.93086,0.97875726,-0.03796377,0.123840015
1764768231.3598845,-5.15788,1.35814,-0.93086,0.97875726,-0.03796377,0.123840015
1764768231.3598845,-5.15788,1.35814,-0.93086,0.97875726,-0.03796377,0.123840015
1764768231.3598845,-5.15788,1.35814,-0.93086,0.97875726,-0.03796377,0.123840015
1764768231.3598845,-5.15788,1.35814,-0.93086,0.97875726,-0.03796377,0.123840015
1764768231.3607798,-5.15788,1.35814,-0.93086,0.97875726,-0.03796377,0.123840015
1764768231.3607798,-5.15788,1.35814,-0.93086,0.97875726,-0.03796377,0.123840015
1764768231.3607798,-5.15788,1.35814,-0.93086,0.97875726,-0.03796377,0.123840015
1764768231.3607798,-5.15788,1.35814,-0.93086,0.97875726,-0.03796377,0.123840015
1764768231.3607798,-4.99002,1.23606,0.12208,0.97729242,-0.038146875,0.124938645
1764768231.3607798,-4.99002,1.23606,0.12208,0.97729242,-0.038146875,0.124938645
1764768231.3607798,-4.99002,1.23606,0.12208,0.97729242,-0.038146875,0.124938645
1764768231.3607798,-4.99002,1.23606,0.12208,0.97729242,-0.038146875,0.124938645
1764768231.406271,-4.99002,1.23606,0.12208,0.97729242,-0.038146875,0.124938645
1764768231.406271,-4.99002,1.23606,0.12208,0.97729242,-0.038146875,0.124938645
1764768231.406271,-4.99002,1.23606,0.12208,0.97729242,-0.038146875,0.124938645
1764768231.406271,-4.99002,1.23606,0.12208,0.97729242,-0.038146875,0.124938645
1764768231.406271,-4.99002,1.23606,0.12208,0.97729242,-0.038146875,0.124938645
1764768231.406271,-4.99002,1.23606,0.12208,0.97729242,-0.038146875,0.124938645
1764768231.406271,-4.77638,0.9156,0.41202,0.97790277,-0.03942861,0.125426925
1764768231.406271,-4.77638,0.9156,0.41202,0.97790277,-0.03942861,0.125426925
1764768231.406271,-4.77638,0.9156,0.41202,0.97790277,-0.03942861,0.125426925
1764768231.406271,-4.77638,0.9156,0.41202,0.97790277,-0.03942861,0.125426925
1764768231.406271,-4.77638,0.9156,0.41202,0.97790277,-0.03942861,0.125426925
1764768231.406271,-4.77638,0.9156,0.41202,0.97790277,-0.03942861,0.125426925
1764768231.4074993,-4.77638,0.9156,0.41202,0.97790277,-0.03942861,0.125426925
1764768231.4074993,-4.77638,0.9156,0.41202,0.97790277,-0.03942861,0.125426925
1764768231.4074993,-4.77638,0.9156,0.41202,0.97790277,-0.03942861,0.125426925
