Timestamp,GyroX,GyroY,GyroZ,AccX,AccY,AccZ
1764767994.5949657,-3.41824,1.19028,0.56462,-0.889463055,0.407530695,0.1184079
1764767994.5949657,-3.41824,1.19028,0.56462,-0.889463055,0.407530695,0.1184079
1764767994.5949657,-3.41824,1.19028,0.56462,-0.889463055,0.407530695,0.1184079
1764767994.5949657,-3.41824,1.19028,0.56462,-0.889463055,0.407530695,0.1184079
1764767994.5949657,-3.41824,1.19028,0.56462,-0.889463055,0.407530695,0.1184079
1764767994.5949657,-3.41824,1.19028,0.56462,-0.889463055,0.407530695,0.1184079
1764767994.5949657,-3.41824,1.19028,0.56462,-0.889463055,0.407530695,0.1184079
1764767994.5949657,-3.41824,1.19028,0.56462,-0.889463055,0.407530695,0.1184079
1764767994.5949657,-3.41824,1.19028,0.56462,-0.889463055,0.407530695,0.1184079
1764767994.5949657,-3.41824,1.19028,0.56462,-0.889463055,0.407530695,0.1184079
1764767994.5949657,-3.37246,0.85456,0.3357199999999999,-0.88964616,0.408751395,0.11901825
1764767994.5949657,-3.37246,0.85456,0.3357199999999999,-0.88964616,0.408751395,0.11901825
1764767994.5949657,-3.37246,0.85456,0.3357199999999999,-0.88964616,0.408751395,0.11901825
1764767994.5949657,-3.37246,0.85456,0.3357199999999999,-0.88964616,0.408751395,0.11901825
1764767994.5949657,-3.37246,0.85456,0.3357199999999999,-0.88964616,0.408751395,0.11901825
1764767994.5949657,-3.37246,0.85456,0.3357199999999999,-0.88964616,0.408751395,0.11901825
1764767994.5949657,-3.37246,0.85456,0.3357199999999999,-0.88964616,0.408751395,0.11901825
1764767994.5949657,-3.37246,0.85456,0.3357199999999999,-0.88964616,0.408751395,0.11901825
1764767994.5949657,-3.37246,0.85456,0.3357199999999999,-0.88964616,0.408751395,0.11901825
1764767994.5949657,-3.37246,0.85456,0.3357199999999999,-0.88964616,0.408751395,0.11901825
1764767994.5949657,-3.93708,1.43444,0.39676,-0.88903581,0.409239675,0.1196286
1764767994.5949657,-3.93708,1.43444,0.39676,-0.88903581,0.409239675,0.1196286
1764767994.5949657,-3.93708,1.43444,0.39676,-0.88903581,0.409239675,0.1196286
1764767994.5949657,-3.93708,1.43444,0.39676,-0.88903581,0.409239675,0.1196286
1764767994.5949657,-3.93708,1.43444,0.39676,-0.88903581,0.409239675,0.1196286
1764767994.5949657,-3.93708,1.43444,0.39676,-0.88903581,0.409239675,0.1196286
1764767994.6421185,-3.93708,1.43444,0.39676,-0.88903581,0.409239675,0.1196286
1764767994.6421185,-3.93708,1.43444,0.39676,-0.88903581,0.409239675,0.1196286
1764767994.6421185,-3.93708,1.43444,0.39676,-0.88903581,0.409239675,0.1196286
1764767994.6421185,-3.93708,1.43444,0.39676,-0.88903581,0.409239675,0.1196286
1764767994.6421185,-4.15072,1.63282,0.36624,-0.88891374,0.40954485,0.119323425
1764767994.6421185,-4.15072,1.63282,0.36624,-0.88891374,0.40954485,0.119323425
1764767994.6421185,-4.15072,1.63282,0.36624,-0.88891374,0.40954485,0.119323425
1764767994.6421185,-4.15072,1.63282,0.36624,-0.88891374,0.40954485,0.119323425
1764767994.6421185,-4.15072,1.63282,0.36624,-0.88891374,0.40954485,0.119323425
1764767994.6421185,-4.15072,1.63282,0.36624,-0.88891374,0.40954485,0.119323425
1764767994.6421185,-4.15072,1.63282,0.36624,-0.88891374,0.40954485,0.119323425
1764767994.6421185,-4.15072,1.63282,0.36624,-0.88891374,0.40954485,0.119323425
1764767994.6421185,-4.15072,1.63282,0.36624,-0.88891374,0.40954485,0.119323425
1764767994.6421185,-4.15072,1.63282,0.36624,-0.88891374,0.40954485,0.119323425
1764767994.6421185,-3.8913,1.2208,0.39676,-0.88927995,0.409605885,0.11852997
1764767994.6421185,-3.8913,1.2208,0.39676,-0.88927995,0.409605885,0.11852997
1764767994.6421185,-3.8913,1.2208,0.39676,-0.88927995,0.409605885,0.11852997
1764767994.6421185,-3.8913,1.2208,0.39676,-0.88927995,0.409605885,0.11852997
1764767994.6421185,-3.8913,1.2208,0.39676,-0.88927995,0.409605885,0.11852997
1764767994.6421185,-3.8913,1.2208,0.39676,-0.88927995,0.409605885,0.11852997
1764767994.6421185,-3.8913,1.2208,0.39676,-0.88927995,0.409605885,0.11852997
1764767994.6421185,-3.8913,1.2208,0.39676,-0.88927995,0.409605885,0.11852997
1764767994.688255,-3.8913,1.2208,0.39676,-0.88927995,0.409605885,0.11852997
1764767994.688255,-3.8913,1.2208,0.39676,-0.88927995,0.409605885,0.11852997
1764767994.688255,-4.22702,1.26658,0.65618,-0.88903581,0.408507255,0.11779755
1764767994.688255,-4.22702,1.26658,0.65618,-0.88903581,0.408507255,0.11779755
1764767994.688255,-4.22702,1.26658,0.65618,-0.88903581,0.408507255,0.11779755
1764767994.688255,-4.22702,1.26658,0.65618,-0.88903581,0.408507255,0.11779755
1764767994.688255,-4.22702,1.26658,0.65618,-0.88903581,0.408507255,0.11779755
1764767994.6892636,-4.22702,1.26658,0.65618,-0.88903581,0.408507255,0.11779755
1764767994.6892636,-4.22702,1.26658,0.65618,-0.88903581,0.408507255,0.11779755
1764767994.6892636,-4.22702,1.26658,0.65618,-0.88903581,0.408507255,0.11779755
1764767994.6892636,-4.22702,1.26658,0.65618,-0.88903581,0.408507255,0.11779755
1764767994.6892636,-4.22702,1.26658,0.65618,-0.88903581,0.408507255,0.11779755
1764767994.6892636,-4.01338,1.41918,0.51884,-0.88854753,0.4077138,0.117858585
1764767994.6892636,-4.01338,1.41918,0.51884,-0.88854753,0.4077138,0.117858585
1764767994.6892636,-4.01338,1.41918,0.51884,-0.88854753,0.4077138,0.117858585
1764767994.6892636,-4.01338,1.41918,0.51884,-0.88854753,0.4077138,0.117858585
1764767994.6892636,-4.01338,1.41918,0.51884,-0.88854753,0.4077138,0.117858585
1764767994.6892636,-4.01338,1.41918,0.51884,-0.88854753,0.4077138,0.117858585
1764767994.6892636,-4.01338,1.41918,0.51884,-0.88854753,0.4077138,0.117858585
1764767994.6892636,-4.01338,1.41918,0.51884,-0.88854753,0.4077138,0.117858585
1764767994.6892636,-4.01338,1.41918,0.51884,-0.88854753,0.4077138,0.117858585
1764767994.6892636,-4.01338,1.41918,0.51884,-0.88854753,0.4077138,0.117858585
1764767994.6892636,-3.84552,1.09872,0.50358,-0.888974775,0.407530695,0.118957215
1764767994.6892636,-3.84552,1.09872,0.50358,-0.888974775,0.407530695,0.118957215
1764767994.7352476,-3.84552,1.09872,0.50358,-0.888974775,0.407530695,0.118957215
1764767994.7352476,-3.84552,1.09872,0.50358,-0.888974775,0.407530695,0.118957215
1764767994.7352476,-3.84552,1.09872,0.50358,-0.888974775,0.407530695,0.118957215
1764767994.7352476,-3.84552,1.09872,0.50358,-0.888974775,0.407530695,0.118957215
1764767994.7352476,-3.84552,1.09872,0.50358,-0.888974775,0.407530695,0.118957215
1764767994.7352476,-3.84552,1.09872,0.50358,-0.888974775,0.407530695,0.118957215
1764767994.7352476,-3.84552,1.09872,0.50358,-0.888974775,0.407530695,0.118957215
1764767994.7352476,-3.84552,1.09872,0.50358,-0.888974775,0.407530695,0.118957215
1764767994.7352476,-4.10494,1.57178,0.7019599999999999,-0.889951335,0.40856829,0.119445495
1764767994.7352476,-4.10494,1.57178,0.7019599999999999,-0.889951335,0.40856829,0.119445495
1764767994.7352476,-4.10494,1.57178,0.7019599999999999,-0.889951335,0.40856829,0.119445495
1764767994.7352476,-4.10494,1.57178,0.7019599999999999,-0.889951335,0.40856829,0.119445495
1764767994.7357614,-4.10494,1.57178,0.7019599999999999,-0.889951335,0.40856829,0.119445495
1764767994.7357614,-4.10494,1.57178,0.7019599999999999,-0.889951335,0.40856829,0.119445495
1764767994.7357614,-4.10494,1.57178,0.7019599999999999,-0.889951335,0.40856829,0.119445495
1764767994.7357614,-4.10494,1.57178,0.7019599999999999,-0.889951335,0.40856829,0.119445495
1764767994.7357614,-4.10494,1.57178,0.7019599999999999,-0.889951335,0.40856829,0.119445495
1764767994.7357614,-4.10494,1.57178,0.7019599999999999,-0.889951335,0.40856829,0.119445495
1764767994.7357614,-5.12736,0.9003399999999999,0.3051999999999999,-0.8902565100000001,0.40917864,0.118957215
1764767994.7357614,-5.12736,0.9003399999999999,0.3051999999999999,-0.8902565100000001,0.40917864,0.118957215
1764767994.7357614,-5.12736,0.9003399999999999,0.3051999999999999,-0.8902565100000001,0.40917864,0.118957215
1764767994.7357614,-5.12736,0.9003399999999999,0.3051999999999999,-0.8902565100000001,0.40917864,0.118957215
1764767994.7357614,-5.12736,0.9003399999999999,0.3051999999999999,-0.8902565100000001,0.40917864,0.118957215
1764767994.7357614,-5.12736,0.9003399999999999,0.3051999999999999,-0.8902565100000001,0.40917864,0.118957215
1764767994.781988,-5.12736,0.9003399999999999,0.3051999999999999,-0.8902565100000001,0.40917864,0.118957215
1764767994.781988,-5.12736,0.9003399999999999,0.3051999999999999,-0.8902565100000001,0.40917864,0.118957215
1764767994.781988,-5.12736,0.9003399999999999,0.3051999999999999,-0.8902565100000001,0.40917864,0.118957215
1764767994.781988,-5.12736,0.9003399999999999,0.3051999999999999,-0.8902565100000001,0.40917864,0.118957215
1764767994.781988,-5.12736,1.25132,0.48832,-0.89062272,0.40978899,0.1184079
1764767994.781988,-5.12736,1.25132,0.48832,-0.89062272,0.40978899,0.1184079
1764767994.781988,-5.12736,1.25132,0.48832,-0.89062272,0.40978899,0.1184079
1764767994.781988,-5.12736,1.25132,0.48832,-0.89062272,0.40978899,0.1184079
1764767994.781988,-5.12736,1.25132,0.48832,-0.89062272,0.40978899,0.1184079
1764767994.781988,-5.12736,1.25132,0.48832,-0.89062272,0.40978899,0.1184079
1764767994.781988,-5.12736,1.25132,0.48832,-0.89062272,0.40978899,0.1184079
1764767994.781988,-5.12736,1.25132,0.48832,-0.89062272,0.40978899,0.1184079
1764767994.781988,-5.12736,1.25132,0.48832,-0.89062272,0.40978899,0.1184079
1764767994.781988,-5.12736,1.25132,0.48832,-0.89062272,0.40978899,0.1184079
1764767994.781988,-4.8832,1.2055399999999998,0.77826,-0.889951335,0.40820208,0.11743134
1764767994.781988,-4.8832,1.2055399999999998,0.77826,-0.889951335,0.40820208,0.11743134
1764767994.781988,-4.8832,1.2055399999999998,0.77826,-0.889951335,0.40820208,0.11743134
1764767994.781988,-4.8832,1.2055399999999998,0.77826,-0.889951335,0.40820208,0.11743134
1764767994.781988,-4.8832,1.2055399999999998,0.77826,-0.889951335,0.40820208,0.11743134
1764767994.781988,-4.8832,1.2055399999999998,0.77826,-0.889951335,0.40820208,0.11743134
1764767994.781988,-4.8832,1.2055399999999998,0.77826,-0.889951335,0.40820208,0.11743134
1764767994.781988,-4.8832,1.2055399999999998,0.77826,-0.889951335,0.40820208,0.11743134
1764767994.781988,-4.8832,1.2055399999999998,0.77826,-0.889951335,0.40820208,0.11743134
1764767994.781988,-4.8832,1.2055399999999998,0.77826,-0.889951335,0.40820208,0.11743134
1764767994.8282728,-3.78448,1.38866,0.47306,-0.89001237,0.407530695,0.118346865
1764767994.8282728,-3.78448,1.38866,0.47306,-0.89001237,0.407530695,0.118346865
1764767994.8282728,-3.78448,1.38866,0.47306,-0.89001237,0.407530695,0.118346865
1764767994.8282728,-3.78448,1.38866,0.47306,-0.89001237,0.407530695,0.118346865
1764767994.8282728,-3.78448,1.38866,0.47306,-0.89001237,0.407530695,0.118346865
1764767994.8282728,-3.78448,1.38866,0.47306,-0.89001237,0.407530695,0.118346865
1764767994.8282728,-3.78448,1.38866,0.47306,-0.89001237,0.407530695,0.118346865
1764767994.8282728,-3.78448,1.38866,0.47306,-0.89001237,0.407530695,0.118346865
1764767994.8282728,-3.78448,1.38866,0.47306,-0.89001237,0.407530695,0.118346865
1764767994.8282728,-3.78448,1.38866,0.47306,-0.89001237,0.407530695,0.118346865
1764767994.8282728,-3.08252,1.12924,0.5341,-0.89037858,0.4064931,0.11926239
1764767994.8282728,-3.08252,1.12924,0.5341,-0.89037858,0.4064931,0.11926239
1764767994.8282728,-3.08252,1.12924,0.5341,-0.89037858,0.4064931,0.11926239
1764767994.8282728,-3.08252,1.12924,0.5341,-0.89037858,0.4064931,0.11926239
1764767994.8282728,-3.08252,1.12924,0.5341,-0.89037858,0.4064931,0.11926239
1764767994.8282728,-3.08252,1.12924,0.5341,-0.89037858,0.4064931,0.11926239
1764767994.8282728,-3.08252,1.12924,0.5341,-0.89037858,0.4064931,0.11926239
1764767994.8282728,-3.08252,1.12924,0.5341,-0.89037858,0.4064931,0.11926239
1764767994.8282728,-3.08252,1.12924,0.5341,-0.89037858,0.4064931,0.11926239
1764767994.8282728,-3.08252,1.12924,0.5341,-0.89037858,0.4064931,0.11926239
1764767994.8282728,-3.37246,0.88508,0.12208,-0.89147721,0.40783587,0.119079285
1764767994.8282728,-3.37246,0.88508,0.12208,-0.89147721,0.40783587,0.119079285
1764767994.8745682,-3.37246,0.88508,0.12208,-0.89147721,0.40783587,0.119079285
1764767994.8745682,-3.37246,0.88508,0.12208,-0.89147721,0.40783587,0.119079285
1764767994.8745682,-3.37246,0.88508,0.12208,-0.89147721,0.40783587,0.119079285
1764767994.8745682,-3.37246,0.88508,0.12208,-0.89147721,0.40783587,0.119079285
1764767994.8745682,-3.37246,0.88508,0.12208,-0.89147721,0.40783587,0.119079285
1764767994.8745682,-3.37246,0.88508,0.12208,-0.89147721,0.40783587,0.119079285
1764767994.8745682,-3.37246,0.88508,0.12208,-0.89147721,0.40783587,0.119079285
1764767994.8745682,-3.37246,0.88508,0.12208,-0.89147721,0.40783587,0.119079285
1764767994.8745682,-3.72344,1.17502,0.3509799999999999,-0.89098893,0.40844622,0.11865204
1764767994.8745682,-3.72344,1.17502,0.3509799999999999,-0.89098893,0.40844622,0.11865204
1764767994.8745682,-3.72344,1.17502,0.3509799999999999,-0.89098893,0.40844622,0.11865204
1764767994.8745682,-3.72344,1.17502,0.3509799999999999,-0.89098893,0.40844622,0.11865204
1764767994.8745682,-3.72344,1.17502,0.3509799999999999,-0.89098893,0.40844622,0.11865204
1764767994.8745682,-3.72344,1.17502,0.3509799999999999,-0.89098893,0.40844622,0.11865204
1764767994.8745682,-3.72344,1.17502,0.3509799999999999,-0.89098893,0.40844622,0.11865204
1764767994.8745682,-3.72344,1.17502,0.3509799999999999,-0.89098893,0.40844622,0.11865204
1764767994.8745682,-3.72344,1.17502,0.3509799999999999,-0.89098893,0.40844622,0.11865204
1764767994.8745682,-3.72344,1.17502,0.3509799999999999,-0.89098893,0.40844622,0.11865204
1764767994.8745682,-4.15072,0.94612,0.3509799999999999,-0.8897071950000001,0.408507255,0.11926239
1764767994.8745682,-4.15072,0.94612,0.3509799999999999,-0.8897071950000001,0.408507255,0.11926239
1764767994.8745682,-4.15072,0.94612,0.3509799999999999,-0.8897071950000001,0.408507255,0.11926239
1764767994.8745682,-4.15072,0.94612,0.3509799999999999,-0.8897071950000001,0.408507255,0.11926239
1764767994.9215698,-4.15072,0.94612,0.3509799999999999,-0.8897071950000001,0.408507255,0.11926239
1764767994.9215698,-4.15072,0.94612,0.3509799999999999,-0.8897071950000001,0.408507255,0.11926239
1764767994.9215698,-4.15072,0.94612,0.3509799999999999,-0.8897071950000001,0.408507255,0.11926239
1764767994.9215698,-4.15072,0.94612,0.3509799999999999,-0.8897071950000001,0.408507255,0.11926239
1764767994.9215698,-4.15072,0.94612,0.3509799999999999,-0.8897071950000001,0.408507255,0.11926239
1764767994.9215698,-4.15072,0.94612,0.3509799999999999,-0.8897071950000001,0.408507255,0.11926239
1764767994.9215698,-3.69292,1.00716,0.19838,-0.8876320050000001,0.40844622,0.11865204
1764767994.9215698,-3.69292,1.00716,0.19838,-0.8876320050000001,0.40844622,0.11865204
1764767994.9215698,-3.69292,1.00716,0.19838,-0.8876320050000001,0.40844622,0.11865204
1764767994.9220908,-3.69292,1.00716,0.19838,-0.8876320050000001,0.40844622,0.11865204
1764767994.9220908,-3.69292,1.00716,0.19838,-0.8876320050000001,0.40844622,0.11865204
1764767994.9220908,-3.69292,1.00716,0.19838,-0.8876320050000001,0.40844622,0.11865204
1764767994.9220908,-3.69292,1.00716,0.19838,-0.8876320050000001,0.40844622,0.11865204
1764767994.9220908,-3.69292,1.00716,0.19838,-0.8876320050000001,0.40844622,0.11865204
1764767994.9220908,-3.69292,1.00716,0.19838,-0.8876320050000001,0.40844622,0.11865204
1764767994.9220908,-3.69292,1.00716,0.19838,-0.8876320050000001,0.40844622,0.11865204
1764767994.9220908,-4.8069,0.94612,0.0762999999999999,-0.88757097,0.411559005,0.11706513
1764767994.9220908,-4.8069,0.94612,0.0762999999999999,-0.88757097,0.411559005,0.11706513
1764767994.9220908,-4.8069,0.94612,0.0762999999999999,-0.88757097,0.411559005,0.11706513
1764767994.9220908,-4.8069,0.94612,0.0762999999999999,-0.88757097,0.411559005,0.11706513
1764767994.9220908,-4.8069,0.94612,0.0762999999999999,-0.88757097,0.411559005,0.11706513
1764767994.9220908,-4.8069,0.94612,0.0762999999999999,-0.88757097,0.411559005,0.11706513
1764767994.9679368,-4.8069,0.94612,0.0762999999999999,-0.88757097,0.411559005,0.11706513
1764767994.9679368,-4.8069,0.94612,0.0762999999999999,-0.88757097,0.411559005,0.11706513
1764767994.9679368,-4.8069,0.94612,0.0762999999999999,-0.88757097,0.411559005,0.11706513
1764767994.9679368,-4.8069,0.94612,0.0762999999999999,-0.88757097,0.411559005,0.11706513
1764767994.9679368,-6.21082,1.8312,-0.3051999999999999,-0.888608565,0.411559005,0.117126165
1764767994.9679368,-6.21082,1.8312,-0.3051999999999999,-0.888608565,0.411559005,0.117126165
1764767994.9679368,-6.21082,1.8312,-0.3051999999999999,-0.888608565,0.411559005,0.117126165
1764767994.9679368,-6.21082,1.8312,-0.3051999999999999,-0.888608565,0.411559005,0.117126165
1764767994.9679368,-6.21082,1.8312,-0.3051999999999999,-0.888608565,0.411559005,0.117126165
1764767994.9679368,-6.21082,1.8312,-0.3051999999999999,-0.888608565,0.411559005,0.117126165
1764767994.9679368,-6.21082,1.8312,-0.3051999999999999,-0.888608565,0.411559005,0.117126165
1764767994.9679368,-6.21082,1.8312,-0.3051999999999999,-0.888608565,0.411559005,0.117126165
1764767994.9679368,-6.21082,1.8312,-0.3051999999999999,-0.888608565,0.411559005,0.117126165
1764767994.9679368,-6.21082,1.8312,-0.3051999999999999,-0.888608565,0.411559005,0.117126165
1764767994.9679368,-5.46308,1.526,-0.03052,-0.889463055,0.40942278,0.118591005
1764767994.9679368,-5.46308,1.526,-0.03052,-0.889463055,0.40942278,0.118591005
1764767994.9679368,-5.46308,1.526,-0.03052,-0.889463055,0.40942278,0.118591005
1764767994.9679368,-5.46308,1.526,-0.03052,-0.889463055,0.40942278,0.118591005
1764767994.9679368,-5.46308,1.526,-0.03052,-0.889463055,0.40942278,0.118591005
1764767994.9679368,-5.46308,1.526,-0.03052,-0.889463055,0.40942278,0.118591005
1764767994.9679368,-5.46308,1.526,-0.03052,-0.889463055,0.40942278,0.118591005
1764767994.9679368,-5.46308,1.526,-0.03052,-0.889463055,0.40942278,0.118591005
1764767994.9679368,-5.46308,1.526,-0.03052,-0.889463055,0.40942278,0.118591005
1764767994.9679368,-5.46308,1.526,-0.03052,-0.889463055,0.40942278,0.118591005
1764767994.9679368,-5.21892,1.38866,-0.09156,-0.88940202,0.40746966,0.119323425
1764767994.9679368,-5.21892,1.38866,-0.09156,-0.88940202,0.40746966,0.119323425
1764767995.014896,-5.21892,1.38866,-0.09156,-0.88940202,0.40746966,0.119323425
1764767995.014896,-5.21892,1.38866,-0.09156,-0.88940202,0.40746966,0.119323425
1764767995.014896,-5.21892,1.38866,-0.09156,-0.88940202,0.40746966,0.119323425
1764767995.014896,-5.21892,1.38866,-0.09156,-0.88940202,0.40746966,0.119323425
1764767995.014896,-5.21892,1.38866,-0.09156,-0.88940202,0.40746966,0.119323425
1764767995.014896,-5.21892,1.38866,-0.09156,-0.88940202,0.40746966,0.119323425
1764767995.014896,-5.21892,1.38866,-0.09156,-0.88940202,0.40746966,0.119323425
1764767995.014896,-5.21892,1.38866,-0.09156,-0.88940202,0.40746966,0.119323425
1764767995.014896,-5.35626,1.34288,0.28994,-0.89050065,0.405943785,0.119567565
1764767995.014896,-5.35626,1.34288,0.28994,-0.89050065,0.405943785,0.119567565
1764767995.014896,-5.35626,1.34288,0.28994,-0.89050065,0.405943785,0.119567565
1764767995.014896,-5.35626,1.34288,0.28994,-0.89050065,0.405943785,0.119567565
1764767995.014896,-5.35626,1.34288,0.28994,-0.89050065,0.405943785,0.119567565
1764767995.014896,-5.35626,1.34288,0.28994,-0.89050065,0.405943785,0.119567565
1764767995.014896,-5.35626,1.34288,0.28994,-0.89050065,0.405943785,0.119567565
1764767995.014896,-5.35626,1.34288,0.28994,-0.89050065,0.405943785,0.119567565
1764767995.014896,-5.35626,1.34288,0.28994,-0.89050065,0.405943785,0.119567565
1764767995.014896,-5.35626,1.34288,0.28994,-0.89050065,0.405943785,0.119567565
1764767995.014896,-4.07442,1.11398,0.47306,-0.891172035,0.403136175,0.12036102
1764767995.014896,-4.07442,1.11398,0.47306,-0.891172035,0.403136175,0.12036102
1764767995.014896,-4.07442,1.11398,0.47306,-0.891172035,0.403136175,0.12036102
1764767995.014896,-4.07442,1.11398,0.47306,-0.891172035,0.403136175,0.12036102
1764767995.0616298,-4.07442,1.11398,0.47306,-0.891172035,0.403136175,0.12036102
1764767995.0616298,-4.07442,1.11398,0.47306,-0.891172035,0.403136175,0.12036102
1764767995.0616298,-4.07442,1.11398,0.47306,-0.891172035,0.403136175,0.12036102
1764767995.0616298,-4.07442,1.11398,0.47306,-0.891172035,0.403136175,0.12036102
1764767995.062137,-4.07442,1.11398,0.47306,-0.891172035,0.403136175,0.12036102
1764767995.062137,-4.07442,1.11398,0.47306,-0.891172035,0.403136175,0.12036102
1764767995.062137,-2.7468,0.8087799999999999,0.27468,-0.891660315,0.4016103,0.1208493
1764767995.062137,-2.7468,0.8087799999999999,0.27468,-0.891660315,0.4016103,0.1208493
1764767995.062137,-2.7468,0.8087799999999999,0.27468,-0.891660315,0.4016103,0.1208493
1764767995.062137,-2.7468,0.8087799999999999,0.27468,-0.891660315,0.4016103,0.1208493
1764767995.062137,-2.7468,0.8087799999999999,0.27468,-0.891660315,0.4016103,0.1208493
1764767995.062137,-2.7468,0.8087799999999999,0.27468,-0.891660315,0.4016103,0.1208493
1764767995.062137,-2.7468,0.8087799999999999,0.27468,-0.891660315,0.4016103,0.1208493
1764767995.062137,-2.7468,0.8087799999999999,0.27468,-0.891660315,0.4016103,0.1208493
1764767995.062137,-2.7468,0.8087799999999999,0.27468,-0.891660315,0.4016103,0.1208493
1764767995.062137,-2.7468,0.8087799999999999,0.27468,-0.891660315,0.4016103,0.1208493
1764767995.062137,-2.289,0.21364,0.2289,-0.89147721,0.4040517,0.1208493
1764767995.062137,-2.289,0.21364,0.2289,-0.89147721,0.4040517,0.1208493
1764767995.062137,-2.289,0.21364,0.2289,-0.89147721,0.4040517,0.1208493
1764767995.062137,-2.289,0.21364,0.2289,-0.89147721,0.4040517,0.1208493
1764767995.062137,-2.289,0.21364,0.2289,-0.89147721,0.4040517,0.1208493
1764767995.062137,-2.289,0.21364,0.2289,-0.89147721,0.4040517,0.1208493
1764767995.062137,-2.289,0.21364,0.2289,-0.89147721,0.4040517,0.1208493
1764767995.062137,-2.289,0.21364,0.2289,-0.89147721,0.4040517,0.1208493
1764767995.062137,-2.289,0.21364,0.2289,-0.89147721,0.4040517,0.1208493
1764767995.062137,-2.289,0.21364,0.2289,-0.89147721,0.4040517,0.1208493
1764767995.1092756,-3.2046,0.44254,-0.0762999999999999,-0.891111,0.408507255,0.119567565
1764767995.109784,-3.2046,0.44254,-0.0762999999999999,-0.891111,0.408507255,0.119567565
1764767995.109784,-3.2046,0.44254,-0.0762999999999999,-0.891111,0.408507255,0.119567565
1764767995.109784,-3.2046,0.44254,-0.0762999999999999,-0.891111,0.408507255,0.119567565
1764767995.109784,-3.2046,0.44254,-0.0762999999999999,-0.891111,0.408507255,0.119567565
1764767995.109784,-3.2046,0.44254,-0.0762999999999999,-0.891111,0.408507255,0.119567565
1764767995.109784,-3.2046,0.44254,-0.0762999999999999,-0.891111,0.408507255,0.119567565
1764767995.109784,-3.2046,0.44254,-0.0762999999999999,-0.891111,0.408507255,0.119567565
1764767995.109784,-3.2046,0.44254,-0.0762999999999999,-0.891111,0.408507255,0.119567565
1764767995.109784,-3.2046,0.44254,-0.0762999999999999,-0.891111,0.408507255,0.119567565
1764767995.109784,-7.782599999999999,0.96138,-0.21364,-0.889585125,0.411803145,0.11865204
1764767995.109784,-7.782599999999999,0.96138,-0.21364,-0.889585125,0.411803145,0.11865204
1764767995.109784,-7.782599999999999,0.96138,-0.21364,-0.889585125,0.411803145,0.11865204
1764767995.109784,-7.782599999999999,0.96138,-0.21364,-0.889585125,0.411803145,0.11865204
1764767995.109784,-7.782599999999999,0.96138,-0.21364,-0.889585125,0.411803145,0.11865204
1764767995.109784,-7.782599999999999,0.96138,-0.21364,-0.889585125,0.411803145,0.11865204
1764767995.109784,-7.782599999999999,0.96138,-0.21364,-0.889585125,0.411803145,0.11865204
1764767995.109784,-7.782599999999999,0.96138,-0.21364,-0.889585125,0.411803145,0.11865204
1764767995.109784,-7.782599999999999,0.96138,-0.21364,-0.889585125,0.411803145,0.11865204
1764767995.109784,-7.782599999999999,0.96138,-0.21364,-0.889585125,0.411803145,0.11865204
1764767995.109784,-4.62378,1.15976,-0.0762999999999999,-0.888730635,0.413512125,0.1171872
1764767995.109784,-4.62378,1.15976,-0.0762999999999999,-0.888730635,0.413512125,0.1171872
1764767995.156602,-4.62378,1.15976,-0.0762999999999999,-0.888730635,0.413512125,0.1171872
1764767995.156602,-4.62378,1.15976,-0.0762999999999999,-0.888730635,0.413512125,0.1171872
1764767995.156602,-4.62378,1.15976,-0.0762999999999999,-0.888730635,0.413512125,0.1171872
1764767995.156602,-4.62378,1.15976,-0.0762999999999999,-0.888730635,0.413512125,0.1171872
1764767995.156602,-4.62378,1.15976,-0.0762999999999999,-0.888730635,0.413512125,0.1171872
1764767995.156602,-4.62378,1.15976,-0.0762999999999999,-0.888730635,0.413512125,0.1171872
1764767995.156602,-4.62378,1.15976,-0.0762999999999999,-0.888730635,0.413512125,0.1171872
1764767995.156602,-4.62378,1.15976,-0.0762999999999999,-0.888730635,0.413512125,0.1171872
1764767995.156602,-5.12736,1.31236,0.0762999999999999,-0.887509935,0.41125383,0.117736515
1764767995.156602,-5.12736,1.31236,0.0762999999999999,-0.887509935,0.41125383,0.117736515
1764767995.156602,-5.12736,1.31236,0.0762999999999999,-0.887509935,0.41125383,0.117736515
1764767995.156602,-5.12736,1.31236,0.0762999999999999,-0.887509935,0.41125383,0.117736515
1764767995.156602,-5.12736,1.31236,0.0762999999999999,-0.887509935,0.41125383,0.117736515
1764767995.156602,-5.12736,1.31236,0.0762999999999999,-0.887509935,0.41125383,0.117736515
1764767995.156602,-5.12736,1.31236,0.0762999999999999,-0.887509935,0.41125383,0.117736515
1764767995.156602,-5.12736,1.31236,0.0762999999999999,-0.887509935,0.41125383,0.117736515
1764767995.156602,-5.12736,1.31236,0.0762999999999999,-0.887509935,0.41125383,0.117736515
1764767995.156602,-5.12736,1.31236,0.0762999999999999,-0.887509935,0.41125383,0.117736515
1764767995.156602,-5.1121,1.3734,0.04578,-0.887143725,0.408873465,0.1184079
1764767995.156602,-5.1121,1.3734,0.04578,-0.887143725,0.408873465,0.1184079
1764767995.156602,-5.1121,1.3734,0.04578,-0.887143725,0.408873465,0.1184079
1764767995.156602,-5.1121,1.3734,0.04578,-0.887143725,0.408873465,0.1184079
1764767995.156602,-5.1121,1.3734,0.04578,-0.887143725,0.408873465,0.1184079
1764767995.156602,-5.1121,1.3734,0.04578,-0.887143725,0.408873465,0.1184079
1764767995.2030838,-5.1121,1.3734,0.04578,-0.887143725,0.408873465,0.1184079
1764767995.2030838,-5.1121,1.3734,0.04578,-0.887143725,0.408873465,0.1184079
1764767995.2030838,-5.1121,1.3734,0.04578,-0.887143725,0.408873465,0.1184079
1764767995.2030838,-5.1121,1.3734,0.04578,-0.887143725,0.408873465,0.1184079
1764767995.2030838,-4.852679999999999,1.38866,0.18312,-0.8876320050000001,0.408629325,0.11901825
1764767995.2030838,-4.852679999999999,1.38866,0.18312,-0.8876320050000001,0.408629325,0.11901825
1764767995.2030838,-4.852679999999999,1.38866,0.18312,-0.8876320050000001,0.408629325,0.11901825
1764767995.2030838,-4.852679999999999,1.38866,0.18312,-0.8876320050000001,0.408629325,0.11901825
1764767995.2030838,-4.852679999999999,1.38866,0.18312,-0.8876320050000001,0.408629325,0.11901825
1764767995.2030838,-4.852679999999999,1.38866,0.18312,-0.8876320050000001,0.408629325,0.11901825
1764767995.2030838,-4.852679999999999,1.38866,0.18312,-0.8876320050000001,0.408629325,0.11901825
1764767995.2030838,-4.852679999999999,1.38866,0.18312,-0.8876320050000001,0.408629325,0.11901825
1764767995.2030838,-4.852679999999999,1.38866,0.18312,-0.8876320050000001,0.408629325,0.11901825
1764767995.2030838,-4.852679999999999,1.38866,0.18312,-0.8876320050000001,0.408629325,0.11901825
1764767995.2030838,-4.715339999999999,1.11398,0.19838,-0.8891578800000001,0.408141045,0.118591005
1764767995.2030838,-4.715339999999999,1.11398,0.19838,-0.8891578800000001,0.408141045,0.118591005
1764767995.2030838,-4.715339999999999,1.11398,0.19838,-0.8891578800000001,0.408141045,0.118591005
1764767995.2030838,-4.715339999999999,1.11398,0.19838,-0.8891578800000001,0.408141045,0.118591005
1764767995.2030838,-4.715339999999999,1.11398,0.19838,-0.8891578800000001,0.408141045,0.118591005
1764767995.2030838,-4.715339999999999,1.11398,0.19838,-0.8891578800000001,0.408141045,0.118591005
1764767995.2030838,-4.715339999999999,1.11398,0.19838,-0.8891578800000001,0.408141045,0.118591005
1764767995.2030838,-4.715339999999999,1.11398,0.19838,-0.8891578800000001,0.408141045,0.118591005
1764767995.2491844,-4.715339999999999,1.11398,0.19838,-0.8891578800000001,0.408141045,0.118591005
1764767995.2491844,-4.715339999999999,1.11398,0.19838,-0.8891578800000001,0.408141045,0.118591005
1764767995.2491844,-4.86794,1.15976,0.25942,-0.89086686,0.406554135,0.118713075
1764767995.2491844,-4.86794,1.15976,0.25942,-0.89086686,0.406554135,0.118713075
1764767995.2491844,-4.86794,1.15976,0.25942,-0.89086686,0.406554135,0.118713075
1764767995.2491844,-4.86794,1.15976,0.25942,-0.89086686,0.406554135,0.118713075
1764767995.2491844,-4.86794,1.15976,0.25942,-0.89086686,0.406554135,0.118713075
1764767995.2491844,-4.86794,1.15976,0.25942,-0.89086686,0.406554135,0.118713075
1764767995.2491844,-4.86794,1.15976,0.25942,-0.89086686,0.406554135,0.118713075
1764767995.2491844,-4.86794,1.15976,0.25942,-0.89086686,0.406554135,0.118713075
1764767995.2491844,-4.86794,1.15976,0.25942,-0.89086686,0.406554135,0.118713075
1764767995.2491844,-4.86794,1.15976,0.25942,-0.89086686,0.406554135,0.118713075
1764767995.2491844,-4.715339999999999,1.26658,0.10682,-0.890683755,0.406065855,0.118346865
1764767995.2491844,-4.715339999999999,1.26658,0.10682,-0.890683755,0.406065855,0.118346865
1764767995.2491844,-4.715339999999999,1.26658,0.10682,-0.890683755,0.406065855,0.118346865
1764767995.2491844,-4.715339999999999,1.26658,0.10682,-0.890683755,0.406065855,0.118346865
1764767995.2491844,-4.715339999999999,1.26658,0.10682,-0.890683755,0.406065855,0.118346865
1764767995.2491844,-4.715339999999999,1.26658,0.10682,-0.890683755,0.406065855,0.118346865
1764767995.2491844,-4.715339999999999,1.26658,0.10682,-0.890683755,0.406065855,0.118346865
1764767995.2491844,-4.715339999999999,1.26658,0.10682,-0.890683755,0.406065855,0.118346865
1764767995.2491844,-4.715339999999999,1.26658,0.10682,-0.890683755,0.406065855,0.118346865
1764767995.2491844,-4.715339999999999,1.26658,0.10682,-0.890683755,0.406065855,0.118346865
1764767995.2491844,-3.98286,1.28184,-0.10682,-0.891111,0.405943785,0.118346865
1764767995.2491844,-3.98286,1.28184,-0.10682,-0.891111,0.405943785,0.118346865
1764767995.2961771,-3.98286,1.28184,-0.10682,-0.891111,0.405943785,0.118346865
1764767995.2961771,-3.98286,1.28184,-0.10682,-0.891111,0.405943785,0.118346865
1764767995.2961771,-3.98286,1.28184,-0.10682,-0.891111,0.405943785,0.118346865
1764767995.2961771,-3.98286,1.28184,-0.10682,-0.891111,0.405943785,0.118346865
1764767995.2961771,-3.98286,1.28184,-0.10682,-0.891111,0.405943785,0.118346865
1764767995.2961771,-3.98286,1.28184,-0.10682,-0.891111,0.405943785,0.118346865
1764767995.2961771,-3.98286,1.28184,-0.10682,-0.891111,0.405943785,0.118346865
1764767995.2961771,-3.98286,1.28184,-0.10682,-0.891111,0.405943785,0.118346865
1764767995.2961771,-3.67766,1.19028,-0.01526,-0.89062272,0.4064931,0.11816376
1764767995.2961771,-3.67766,1.19028,-0.01526,-0.89062272,0.4064931,0.11816376
1764767995.2961771,-3.67766,1.19028,-0.01526,-0.89062272,0.4064931,0.11816376
1764767995.2961771,-3.67766,1.19028,-0.01526,-0.89062272,0.4064931,0.11816376
1764767995.2961771,-3.67766,1.19028,-0.01526,-0.89062272,0.4064931,0.11816376
1764767995.2961771,-3.67766,1.19028,-0.01526,-0.89062272,0.4064931,0.11816376
1764767995.2961771,-3.67766,1.19028,-0.01526,-0.89062272,0.4064931,0.11816376
1764767995.2961771,-3.67766,1.19028,-0.01526,-0.89062272,0.4064931,0.11816376
1764767995.2961771,-3.67766,1.19028,-0.01526,-0.89062272,0.4064931,0.11816376
1764767995.2961771,-3.67766,1.19028,-0.01526,-0.89062272,0.4064931,0.11816376
1764767995.2961771,-3.72344,1.08346,0.4578,-0.89001237,0.40698138,0.11779755
1764767995.2961771,-3.72344,1.08346,0.4578,-0.89001237,0.40698138,0.11779755
1764767995.2961771,-3.72344,1.08346,0.4578,-0.89001237,0.40698138,0.11779755
1764767995.2961771,-3.72344,1.08346,0.4578,-0.89001237,0.40698138,0.11779755
1764767995.2961771,-3.72344,1.08346,0.4578,-0.89001237,0.40698138,0.11779755
1764767995.2961771,-3.72344,1.08346,0.4578,-0.89001237,0.40698138,0.11779755
1764767995.3426292,-3.72344,1.08346,0.4578,-0.89001237,0.40698138,0.11779755
1764767995.3426292,-3.72344,1.08346,0.4578,-0.89001237,0.40698138,0.11779755
1764767995.3426292,-3.72344,1.08346,0.4578,-0.89001237,0.40698138,0.11779755
1764767995.343634,-3.72344,1.08346,0.4578,-0.89001237,0.40698138,0.11779755
1764767995.343634,-3.52506,1.73964,0.2289,-0.89037858,0.40673724,0.117858585
1764767995.343634,-3.52506,1.73964,0.2289,-0.89037858,0.40673724,0.117858585
1764767995.343634,-3.52506,1.73964,0.2289,-0.89037858,0.40673724,0.117858585
1764767995.343634,-3.52506,1.73964,0.2289,-0.89037858,0.40673724,0.117858585
1764767995.343634,-3.52506,1.73964,0.2289,-0.89037858,0.40673724,0.117858585
1764767995.343634,-3.52506,1.73964,0.2289,-0.89037858,0.40673724,0.117858585
1764767995.343634,-3.52506,1.73964,0.2289,-0.89037858,0.40673724,0.117858585
1764767995.343634,-3.52506,1.73964,0.2289,-0.89037858,0.40673724,0.117858585
1764767995.343634,-3.52506,1.73964,0.2289,-0.89037858,0.40673724,0.117858585
1764767995.343634,-3.52506,1.73964,0.2289,-0.89037858,0.40673724,0.117858585
1764767995.343634,-3.86078,1.54126,0.09156,-0.89001237,0.406920345,0.1184079
1764767995.343634,-3.86078,1.54126,0.09156,-0.89001237,0.406920345,0.1184079
1764767995.343634,-3.86078,1.54126,0.09156,-0.89001237,0.406920345,0.1184079
1764767995.343634,-3.86078,1.54126,0.09156,-0.89001237,0.406920345,0.1184079
1764767995.343634,-3.86078,1.54126,0.09156,-0.89001237,0.406920345,0.1184079
1764767995.343634,-3.86078,1.54126,0.09156,-0.89001237,0.406920345,0.1184079
1764767995.343634,-3.86078,1.54126,0.09156,-0.89001237,0.406920345,0.1184079
1764767995.343634,-3.86078,1.54126,0.09156,-0.89001237,0.406920345,0.1184079
1764767995.389678,-3.86078,1.54126,0.09156,-0.89001237,0.406920345,0.1184079
1764767995.389678,-3.86078,1.54126,0.09156,-0.89001237,0.406920345,0.1184079
1764767995.389678,-3.4335,1.43444,-0.04578,-0.889463055,0.406676205,0.1184079
1764767995.389678,-3.4335,1.43444,-0.04578,-0.889463055,0.406676205,0.1184079
1764767995.389678,-3.4335,1.43444,-0.04578,-0.889463055,0.406676205,0.1184079
1764767995.389678,-3.4335,1.43444,-0.04578,-0.889463055,0.406676205,0.1184079
1764767995.389678,-3.4335,1.43444,-0.04578,-0.889463055,0.406676205,0.1184079
1764767995.389678,-3.4335,1.43444,-0.04578,-0.889463055,0.406676205,0.1184079
1764767995.389678,-3.4335,1.43444,-0.04578,-0.889463055,0.406676205,0.1184079
1764767995.389678,-3.4335,1.43444,-0.04578,-0.889463055,0.406676205,0.1184079
1764767995.389678,-3.4335,1.43444,-0.04578,-0.889463055,0.406676205,0.1184079
1764767995.389678,-3.4335,1.43444,-0.04578,-0.889463055,0.406676205,0.1184079
1764767995.389678,-3.64714,1.4039199999999998,-0.06104,-0.889463055,0.406920345,0.118468935
1764767995.389678,-3.64714,1.4039199999999998,-0.06104,-0.889463055,0.406920345,0.118468935
1764767995.389678,-3.64714,1.4039199999999998,-0.06104,-0.889463055,0.406920345,0.118468935
1764767995.389678,-3.64714,1.4039199999999998,-0.06104,-0.889463055,0.406920345,0.118468935
1764767995.389678,-3.64714,1.4039199999999998,-0.06104,-0.889463055,0.406920345,0.118468935
1764767995.3903005,-3.64714,1.4039199999999998,-0.06104,-0.889463055,0.406920345,0.118468935
1764767995.3903005,-3.64714,1.4039199999999998,-0.06104,-0.889463055,0.406920345,0.118468935
1764767995.3903005,-3.64714,1.4039199999999998,-0.06104,-0.889463055,0.406920345,0.118468935
1764767995.3903005,-3.64714,1.4039199999999998,-0.06104,-0.889463055,0.406920345,0.118468935
1764767995.3903005,-3.64714,1.4039199999999998,-0.06104,-0.889463055,0.406920345,0.118468935
1764767995.3903005,-3.72344,1.19028,0.06104,-0.890073405,0.408507255,0.11804169
1764767995.3903005,-3.72344,1.19028,0.06104,-0.890073405,0.408507255,0.11804169
1764767995.4358196,-3.72344,1.19028,0.06104,-0.890073405,0.408507255,0.11804169
1764767995.4358196,-3.72344,1.19028,0.06104,-0.890073405,0.408507255,0.11804169
1764767995.4358196,-3.72344,1.19028,0.06104,-0.890073405,0.408507255,0.11804169
1764767995.4358196,-3.72344,1.19028,0.06104,-0.890073405,0.408507255,0.11804169
1764767995.4358196,-3.72344,1.19028,0.06104,-0.890073405,0.408507255,0.11804169
1764767995.4358196,-3.72344,1.19028,0.06104,-0.890073405,0.408507255,0.11804169
1764767995.4358196,-3.72344,1.19028,0.06104,-0.890073405,0.408507255,0.11804169
1764767995.4358196,-3.72344,1.19028,0.06104,-0.890073405,0.408507255,0.11804169
1764767995.4358196,-4.53222,1.51074,0.12208,-0.89037858,0.409605885,0.11767548
1764767995.4358196,-4.53222,1.51074,0.12208,-0.89037858,0.409605885,0.11767548
1764767995.4358196,-4.53222,1.51074,0.12208,-0.89037858,0.409605885,0.11767548
1764767995.4358196,-4.53222,1.51074,0.12208,-0.89037858,0.409605885,0.11767548
1764767995.4358196,-4.53222,1.51074,0.12208,-0.89037858,0.409605885,0.11767548
1764767995.4358196,-4.53222,1.51074,0.12208,-0.89037858,0.409605885,0.11767548
1764767995.4358196,-4.53222,1.51074,0.12208,-0.89037858,0.409605885,0.11767548
1764767995.4358196,-4.53222,1.51074,0.12208,-0.89037858,0.409605885,0.11767548
1764767995.4358196,-4.53222,1.51074,0.12208,-0.89037858,0.409605885,0.11767548
1764767995.4358196,-4.53222,1.51074,0.12208,-0.89037858,0.409605885,0.11767548
1764767995.4358196,-4.39488,1.51074,0.41202,-0.890195475,0.40832415,0.11755341
1764767995.4358196,-4.39488,1.51074,0.41202,-0.890195475,0.40832415,0.11755341
1764767995.4358196,-4.39488,1.51074,0.41202,-0.890195475,0.40832415,0.11755341
1764767995.4358196,-4.39488,1.51074,0.41202,-0.890195475,0.40832415,0.11755341
1764767995.482081,-4.39488,1.51074,0.41202,-0.890195475,0.40832415,0.11755341
1764767995.482081,-4.39488,1.51074,0.41202,-0.890195475,0.40832415,0.11755341
1764767995.482081,-4.39488,1.51074,0.41202,-0.890195475,0.40832415,0.11755341
1764767995.482081,-4.39488,1.51074,0.41202,-0.890195475,0.40832415,0.11755341
1764767995.482081,-4.39488,1.51074,0.41202,-0.890195475,0.40832415,0.11755341
1764767995.482081,-4.39488,1.51074,0.41202,-0.890195475,0.40832415,0.11755341
1764767995.482081,-4.07442,1.12924,0.12208,-0.89013444,0.407530695,0.117736515
1764767995.482081,-4.07442,1.12924,0.12208,-0.89013444,0.407530695,0.117736515
1764767995.482081,-4.07442,1.12924,0.12208,-0.89013444,0.407530695,0.117736515
1764767995.482081,-4.07442,1.12924,0.12208,-0.89013444,0.407530695,0.117736515
1764767995.482081,-4.07442,1.12924,0.12208,-0.89013444,0.407530695,0.117736515
1764767995.482081,-4.07442,1.12924,0.12208,-0.89013444,0.407530695,0.117736515
1764767995.482081,-4.07442,1.12924,0.12208,-0.89013444,0.407530695,0.117736515
1764767995.482081,-4.07442,1.12924,0.12208,-0.89013444,0.407530695,0.117736515
1764767995.482081,-4.07442,1.12924,0.12208,-0.89013444,0.407530695,0.117736515
1764767995.482081,-4.07442,1.12924,0.12208,-0.89013444,0.407530695,0.117736515
1764767995.482081,-3.92182,1.31236,0.10682,-0.89037858,0.406187925,0.11816376
1764767995.482081,-3.92182,1.31236,0.10682,-0.89037858,0.406187925,0.11816376
1764767995.482081,-3.92182,1.31236,0.10682,-0.89037858,0.406187925,0.11816376
1764767995.482081,-3.92182,1.31236,0.10682,-0.89037858,0.406187925,0.11816376
1764767995.482081,-3.92182,1.31236,0.10682,-0.89037858,0.406187925,0.11816376
1764767995.482081,-3.92182,1.31236,0.10682,-0.89037858,0.406187925,0.11816376
1764767995.482081,-3.92182,1.31236,0.10682,-0.89037858,0.406187925,0.11816376
1764767995.482081,-3.92182,1.31236,0.10682,-0.89037858,0.406187925,0.11816376
1764767995.482081,-3.92182,1.31236,0.10682,-0.89037858,0.406187925,0.11816376
1764767995.482081,-3.92182,1.31236,0.10682,-0.89037858,0.406187925,0.11816376
1764767995.528852,-3.95234,1.1445,0.39676,-0.891049965,0.40563861,0.1184079
1764767995.528852,-3.95234,1.1445,0.39676,-0.891049965,0.40563861,0.1184079
1764767995.528852,-3.95234,1.1445,0.39676,-0.891049965,0.40563861,0.1184079
1764767995.528852,-3.95234,1.1445,0.39676,-0.891049965,0.40563861,0.1184079
1764767995.528852,-3.95234,1.1445,0.39676,-0.891049965,0.40563861,0.1184079
1764767995.528852,-3.95234,1.1445,0.39676,-0.891049965,0.40563861,0.1184079
1764767995.528852,-3.95234,1.1445,0.39676,-0.891049965,0.40563861,0.1184079
1764767995.528852,-3.95234,1.1445,0.39676,-0.891049965,0.40563861,0.1184079
1764767995.5293567,-3.95234,1.1445,0.39676,-0.891049965,0.40563861,0.1184079
1764767995.5293567,-3.95234,1.1445,0.39676,-0.891049965,0.40563861,0.1184079
1764767995.5293567,-3.99812,0.8392999999999999,0.25942,-0.891172035,0.40563861,0.118835145
1764767995.5293567,-3.99812,0.8392999999999999,0.25942,-0.891172035,0.40563861,0.118835145
1764767995.5293567,-3.99812,0.8392999999999999,0.25942,-0.891172035,0.40563861,0.118835145
1764767995.5293567,-3.99812,0.8392999999999999,0.25942,-0.891172035,0.40563861,0.118835145
1764767995.5293567,-3.99812,0.8392999999999999,0.25942,-0.891172035,0.40563861,0.118835145
1764767995.5293567,-3.99812,0.8392999999999999,0.25942,-0.891172035,0.40563861,0.118835145
1764767995.5293567,-3.99812,0.8392999999999999,0.25942,-0.891172035,0.40563861,0.118835145
1764767995.5293567,-3.99812,0.8392999999999999,0.25942,-0.891172035,0.40563861,0.118835145
1764767995.5293567,-3.99812,0.8392999999999999,0.25942,-0.891172035,0.40563861,0.118835145
1764767995.5293567,-3.99812,0.8392999999999999,0.25942,-0.891172035,0.40563861,0.118835145
1764767995.5293567,-4.24228,0.51884,0.3357199999999999,-0.891172035,0.40710345,0.11877411
1764767995.5293567,-4.24228,0.51884,0.3357199999999999,-0.891172035,0.40710345,0.11877411
1764767995.5750823,-4.24228,0.51884,0.3357199999999999,-0.891172035,0.40710345,0.11877411
1764767995.5750823,-4.24228,0.51884,0.3357199999999999,-0.891172035,0.40710345,0.11877411
1764767995.5750823,-4.24228,0.51884,0.3357199999999999,-0.891172035,0.40710345,0.11877411
1764767995.5750823,-4.24228,0.51884,0.3357199999999999,-0.891172035,0.40710345,0.11877411
1764767995.5750823,-4.24228,0.51884,0.3357199999999999,-0.891172035,0.40710345,0.11877411
1764767995.5750823,-4.24228,0.51884,0.3357199999999999,-0.891172035,0.40710345,0.11877411
1764767995.5750823,-4.24228,0.51884,0.3357199999999999,-0.891172035,0.40710345,0.11877411
1764767995.5750823,-4.24228,0.51884,0.3357199999999999,-0.891172035,0.40710345,0.11877411
1764767995.5750823,-4.303319999999999,0.54936,1.09872,-0.890927895,0.407042415,0.11852997
1764767995.5750823,-4.303319999999999,0.54936,1.09872,-0.890927895,0.407042415,0.11852997
1764767995.5755978,-4.303319999999999,0.54936,1.09872,-0.890927895,0.407042415,0.11852997
1764767995.5755978,-4.303319999999999,0.54936,1.09872,-0.890927895,0.407042415,0.11852997
1764767995.5755978,-4.303319999999999,0.54936,1.09872,-0.890927895,0.407042415,0.11852997
1764767995.5755978,-4.303319999999999,0.54936,1.09872,-0.890927895,0.407042415,0.11852997
1764767995.5755978,-4.303319999999999,0.54936,1.09872,-0.890927895,0.407042415,0.11852997
1764767995.5755978,-4.303319999999999,0.54936,1.09872,-0.890927895,0.407042415,0.11852997
1764767995.5755978,-4.303319999999999,0.54936,1.09872,-0.890927895,0.407042415,0.11852997
1764767995.5755978,-4.303319999999999,0.54936,1.09872,-0.890927895,0.407042415,0.11852997
1764767995.5755978,-4.37962,1.00716,0.71722,-0.89050065,0.407164485,0.117736515
1764767995.5755978,-4.37962,1.00716,0.71722,-0.89050065,0.407164485,0.117736515
1764767995.5755978,-4.37962,1.00716,0.71722,-0.89050065,0.407164485,0.117736515
1764767995.5755978,-4.37962,1.00716,0.71722,-0.89050065,0.407164485,0.117736515
1764767995.6248398,-4.37962,1.00716,0.71722,-0.89050065,0.407164485,0.117736515
1764767995.6248398,-4.37962,1.00716,0.71722,-0.89050065,0.407164485,0.117736515
1764767995.6248398,-4.37962,1.00716,0.71722,-0.89050065,0.407164485,0.117736515
1764767995.6248398,-4.37962,1.00716,0.71722,-0.89050065,0.407164485,0.117736515
1764767995.6248398,-4.37962,1.00716,0.71722,-0.89050065,0.407164485,0.117736515
1764767995.6248398,-4.37962,1.00716,0.71722,-0.89050065,0.407164485,0.117736515
1764767995.6248398,-4.4254,1.09872,0.59514,-0.890073405,0.406798275,0.11767548
1764767995.6248398,-4.4254,1.09872,0.59514,-0.890073405,0.406798275,0.11767548
1764767995.6248398,-4.4254,1.09872,0.59514,-0.890073405,0.406798275,0.11767548
1764767995.6248398,-4.4254,1.09872,0.59514,-0.890073405,0.406798275,0.11767548
1764767995.6248398,-4.4254,1.09872,0.59514,-0.890073405,0.406798275,0.11767548
1764767995.6248398,-4.4254,1.09872,0.59514,-0.890073405,0.406798275,0.11767548
1764767995.6248398,-4.4254,1.09872,0.59514,-0.890073405,0.406798275,0.11767548
1764767995.6248398,-4.4254,1.09872,0.59514,-0.890073405,0.406798275,0.11767548
1764767995.6248398,-4.4254,1.09872,0.59514,-0.890073405,0.406798275,0.11767548
1764767995.6248398,-4.4254,1.09872,0.59514,-0.890073405,0.406798275,0.11767548
1764767995.6248398,-4.01338,1.2971,0.6103999999999999,-0.889463055,0.40698138,0.117736515
1764767995.6248398,-4.01338,1.2971,0.6103999999999999,-0.889463055,0.40698138,0.117736515
1764767995.6248398,-4.01338,1.2971,0.6103999999999999,-0.889463055,0.40698138,0.117736515
1764767995.6248398,-4.01338,1.2971,0.6103999999999999,-0.889463055,0.40698138,0.117736515
1764767995.6248398,-4.01338,1.2971,0.6103999999999999,-0.889463055,0.40698138,0.117736515
1764767995.6248398,-4.01338,1.2971,0.6103999999999999,-0.889463055,0.40698138,0.117736515
1764767995.6248398,-4.01338,1.2971,0.6103999999999999,-0.889463055,0.40698138,0.117736515
1764767995.6248398,-4.01338,1.2971,0.6103999999999999,-0.889463055,0.40698138,0.117736515
1764767995.6717968,-4.01338,1.2971,0.6103999999999999,-0.889463055,0.40698138,0.117736515
1764767995.6717968,-4.01338,1.2971,0.6103999999999999,-0.889463055,0.40698138,0.117736515
1764767995.6717968,-4.24228,0.73248,0.51884,-0.88976823,0.408141045,0.117370305
1764767995.6717968,-4.24228,0.73248,0.51884,-0.88976823,0.408141045,0.117370305
1764767995.6717968,-4.24228,0.73248,0.51884,-0.88976823,0.408141045,0.117370305
1764767995.6717968,-4.24228,0.73248,0.51884,-0.88976823,0.408141045,0.117370305
1764767995.6717968,-4.24228,0.73248,0.51884,-0.88976823,0.408141045,0.117370305
1764767995.6717968,-4.24228,0.73248,0.51884,-0.88976823,0.408141045,0.117370305
1764767995.6717968,-4.24228,0.73248,0.51884,-0.88976823,0.408141045,0.117370305
1764767995.6717968,-4.24228,0.73248,0.51884,-0.88976823,0.408141045,0.117370305
1764767995.6717968,-4.24228,0.73248,0.51884,-0.88976823,0.408141045,0.117370305
1764767995.6717968,-4.24228,0.73248,0.51884,-0.88976823,0.408141045,0.117370305
1764767995.6717968,-5.00528,1.28184,0.04578,-0.8907447900000001,0.408873465,0.11779755
1764767995.6717968,-5.00528,1.28184,0.04578,-0.8907447900000001,0.408873465,0.11779755
1764767995.6717968,-5.00528,1.28184,0.04578,-0.8907447900000001,0.408873465,0.11779755
1764767995.6717968,-5.00528,1.28184,0.04578,-0.8907447900000001,0.408873465,0.11779755
1764767995.6717968,-5.00528,1.28184,0.04578,-0.8907447900000001,0.408873465,0.11779755
1764767995.6717968,-5.00528,1.28184,0.04578,-0.8907447900000001,0.408873465,0.11779755
1764767995.6717968,-5.00528,1.28184,0.04578,-0.8907447900000001,0.408873465,0.11779755
1764767995.6717968,-5.00528,1.28184,0.04578,-0.8907447900000001,0.408873465,0.11779755
1764767995.6717968,-5.00528,1.28184,0.04578,-0.8907447900000001,0.408873465,0.11779755
1764767995.6717968,-5.00528,1.28184,0.04578,-0.8907447900000001,0.408873465,0.11779755
1764767995.6717968,-5.234179999999999,1.25132,0.06104,-0.89001237,0.40856829,0.11730927
1764767995.6717968,-5.234179999999999,1.25132,0.06104,-0.89001237,0.40856829,0.11730927
1764767995.6717968,-5.234179999999999,1.25132,0.06104,-0.89001237,0.40856829,0.11730927
1764767995.6717968,-5.234179999999999,1.25132,0.06104,-0.89001237,0.40856829,0.11730927
1764767995.7188623,-5.234179999999999,1.25132,0.06104,-0.89001237,0.40856829,0.11730927
1764767995.719376,-5.234179999999999,1.25132,0.06104,-0.89001237,0.40856829,0.11730927
1764767995.719376,-5.234179999999999,1.25132,0.06104,-0.89001237,0.40856829,0.11730927
1764767995.719376,-5.234179999999999,1.25132,0.06104,-0.89001237,0.40856829,0.11730927
1764767995.719376,-5.234179999999999,1.25132,0.06104,-0.89001237,0.40856829,0.11730927
1764767995.719376,-5.234179999999999,1.25132,0.06104,-0.89001237,0.40856829,0.11730927
1764767995.719376,-4.77638,1.61756,0.10682,-0.889463055,0.407408625,0.11657685
1764767995.719376,-4.77638,1.61756,0.10682,-0.889463055,0.407408625,0.11657685
1764767995.719376,-4.77638,1.61756,0.10682,-0.889463055,0.407408625,0.11657685
1764767995.719376,-4.77638,1.61756,0.10682,-0.889463055,0.407408625,0.11657685
1764767995.719376,-4.77638,1.61756,0.10682,-0.889463055,0.407408625,0.11657685
1764767995.719376,-4.77638,1.61756,0.10682,-0.889463055,0.407408625,0.11657685
1764767995.719376,-4.77638,1.61756,0.10682,-0.889463055,0.407408625,0.11657685
1764767995.719376,-4.77638,1.61756,0.10682,-0.889463055,0.407408625,0.11657685
1764767995.719376,-4.77638,1.61756,0.10682,-0.889463055,0.407408625,0.11657685
1764767995.719376,-4.77638,1.61756,0.10682,-0.889463055,0.407408625,0.11657685
1764767995.719376,-4.18124,1.43444,0.28994,-0.8902565100000001,0.40612689,0.116149605
1764767995.719376,-4.18124,1.43444,0.28994,-0.8902565100000001,0.40612689,0.116149605
1764767995.719376,-4.18124,1.43444,0.28994,-0.8902565100000001,0.40612689,0.116149605
1764767995.719376,-4.18124,1.43444,0.28994,-0.8902565100000001,0.40612689,0.116149605
1764767995.719376,-4.18124,1.43444,0.28994,-0.8902565100000001,0.40612689,0.116149605
1764767995.719376,-4.18124,1.43444,0.28994,-0.8902565100000001,0.40612689,0.116149605
1764767995.719376,-4.18124,1.43444,0.28994,-0.8902565100000001,0.40612689,0.116149605
1764767995.719376,-4.18124,1.43444,0.28994,-0.8902565100000001,0.40612689,0.116149605
1764767995.7657523,-4.18124,1.43444,0.28994,-0.8902565100000001,0.40612689,0.116149605
1764767995.7657523,-4.18124,1.43444,0.28994,-0.8902565100000001,0.40612689,0.116149605
1764767995.7657523,-3.2809,1.8006799999999998,0.24416,-0.89050065,0.404112735,0.116637885
1764767995.766259,-3.2809,1.8006799999999998,0.24416,-0.89050065,0.404112735,0.116637885
1764767995.766259,-3.2809,1.8006799999999998,0.24416,-0.89050065,0.404112735,0.116637885
1764767995.766259,-3.2809,1.8006799999999998,0.24416,-0.89050065,0.404112735,0.116637885
1764767995.766259,-3.2809,1.8006799999999998,0.24416,-0.89050065,0.404112735,0.116637885
1764767995.766259,-3.2809,1.8006799999999998,0.24416,-0.89050065,0.404112735,0.116637885
1764767995.766259,-3.2809,1.8006799999999998,0.24416,-0.89050065,0.404112735,0.116637885
1764767995.766259,-3.2809,1.8006799999999998,0.24416,-0.89050065,0.404112735,0.116637885
1764767995.766259,-3.2809,1.8006799999999998,0.24416,-0.89050065,0.404112735,0.116637885
1764767995.766259,-3.2809,1.8006799999999998,0.24416,-0.89050065,0.404112735,0.116637885
1764767995.766259,-2.4416,1.35814,0.1678599999999999,-0.8912941050000001,0.403624455,0.11730927
1764767995.766259,-2.4416,1.35814,0.1678599999999999,-0.8912941050000001,0.403624455,0.11730927
1764767995.766259,-2.4416,1.35814,0.1678599999999999,-0.8912941050000001,0.403624455,0.11730927
1764767995.766259,-2.4416,1.35814,0.1678599999999999,-0.8912941050000001,0.403624455,0.11730927
1764767995.766259,-2.4416,1.35814,0.1678599999999999,-0.8912941050000001,0.403624455,0.11730927
1764767995.766259,-2.4416,1.35814,0.1678599999999999,-0.8912941050000001,0.403624455,0.11730927
1764767995.766259,-2.4416,1.35814,0.1678599999999999,-0.8912941050000001,0.403624455,0.11730927
1764767995.766259,-2.4416,1.35814,0.1678599999999999,-0.8912941050000001,0.403624455,0.11730927
1764767995.766259,-2.4416,1.35814,0.1678599999999999,-0.8912941050000001,0.403624455,0.11730927
1764767995.766259,-2.4416,1.35814,0.1678599999999999,-0.8912941050000001,0.403624455,0.11730927
1764767995.8098123,-2.70102,1.00716,0.25942,-0.8917823850000001,0.403868595,0.11877411
1764767995.8098123,-2.70102,1.00716,0.25942,-0.8917823850000001,0.403868595,0.11877411
1764767995.8098123,-2.70102,1.00716,0.25942,-0.8917823850000001,0.403868595,0.11877411
1764767995.8098123,-2.70102,1.00716,0.25942,-0.8917823850000001,0.403868595,0.11877411
1764767995.8098123,-2.70102,1.00716,0.25942,-0.8917823850000001,0.403868595,0.11877411
1764767995.8098123,-2.70102,1.00716,0.25942,-0.8917823850000001,0.403868595,0.11877411
1764767995.8098123,-2.70102,1.00716,0.25942,-0.8917823850000001,0.403868595,0.11877411
1764767995.8098123,-2.70102,1.00716,0.25942,-0.8917823850000001,0.403868595,0.11877411
1764767995.8098123,-2.70102,1.00716,0.25942,-0.8917823850000001,0.403868595,0.11877411
1764767995.8098123,-2.70102,1.00716,0.25942,-0.8917823850000001,0.403868595,0.11877411
1764767995.8098123,-2.57894,1.3734,-0.06104,-0.891049965,0.404845155,0.118957215
1764767995.8098123,-2.57894,1.3734,-0.06104,-0.891049965,0.404845155,0.118957215
1764767995.8109777,-2.57894,1.3734,-0.06104,-0.891049965,0.404845155,0.118957215
1764767995.8109777,-2.57894,1.3734,-0.06104,-0.891049965,0.404845155,0.118957215
1764767995.8109777,-2.57894,1.3734,-0.06104,-0.891049965,0.404845155,0.118957215
1764767995.8109777,-2.57894,1.3734,-0.06104,-0.891049965,0.404845155,0.118957215
1764767995.8109777,-2.57894,1.3734,-0.06104,-0.891049965,0.404845155,0.118957215
1764767995.8109777,-2.57894,1.3734,-0.06104,-0.891049965,0.404845155,0.118957215
1764767995.8109777,-2.57894,1.3734,-0.06104,-0.891049965,0.404845155,0.118957215
1764767995.8109777,-2.57894,1.3734,-0.06104,-0.891049965,0.404845155,0.118957215
1764767995.8109777,-2.2127,0.763,0.04578,-0.889951335,0.404723085,0.118957215
1764767995.8109777,-2.2127,0.763,0.04578,-0.889951335,0.404723085,0.118957215
1764767995.8610375,-2.2127,0.763,0.04578,-0.889951335,0.404723085,0.118957215
1764767995.8610375,-2.2127,0.763,0.04578,-0.889951335,0.404723085,0.118957215
1764767995.8610375,-2.2127,0.763,0.04578,-0.889951335,0.404723085,0.118957215
1764767995.8610375,-2.2127,0.763,0.04578,-0.889951335,0.404723085,0.118957215
1764767995.8610375,-2.2127,0.763,0.04578,-0.889951335,0.404723085,0.118957215
1764767995.8610375,-2.2127,0.763,0.04578,-0.889951335,0.404723085,0.118957215
1764767995.8610375,-2.2127,0.763,0.04578,-0.889951335,0.404723085,0.118957215
1764767995.8610375,-2.2127,0.763,0.04578,-0.889951335,0.404723085,0.118957215
1764767995.8610375,-3.06726,0.96138,0.10682,-0.890439615,0.408263115,0.11743134
1764767995.8610375,-3.06726,0.96138,0.10682,-0.890439615,0.408263115,0.11743134
1764767995.8610375,-3.06726,0.96138,0.10682,-0.890439615,0.408263115,0.11743134
1764767995.8610375,-3.06726,0.96138,0.10682,-0.890439615,0.408263115,0.11743134
1764767995.8610375,-3.06726,0.96138,0.10682,-0.890439615,0.408263115,0.11743134
1764767995.8610375,-3.06726,0.96138,0.10682,-0.890439615,0.408263115,0.11743134
1764767995.8610375,-3.06726,0.96138,0.10682,-0.890439615,0.408263115,0.11743134
1764767995.8610375,-3.06726,0.96138,0.10682,-0.890439615,0.408263115,0.11743134
1764767995.8610375,-3.06726,0.96138,0.10682,-0.890439615,0.408263115,0.11743134
1764767995.8610375,-3.06726,0.96138,0.10682,-0.890439615,0.408263115,0.11743134
1764767995.8610375,-4.63904,1.41918,-0.3509799999999999,-0.891049965,0.411436935,0.1159665
1764767995.8610375,-4.63904,1.41918,-0.3509799999999999,-0.891049965,0.411436935,0.1159665
1764767995.8610375,-4.63904,1.41918,-0.3509799999999999,-0.891049965,0.411436935,0.1159665
1764767995.8610375,-4.63904,1.41918,-0.3509799999999999,-0.891049965,0.411436935,0.1159665
1764767995.8610375,-4.63904,1.41918,-0.3509799999999999,-0.891049965,0.411436935,0.1159665
1764767995.8610375,-4.63904,1.41918,-0.3509799999999999,-0.891049965,0.411436935,0.1159665
1764767995.9048333,-4.63904,1.41918,-0.3509799999999999,-0.891049965,0.411436935,0.1159665
1764767995.9048333,-4.63904,1.41918,-0.3509799999999999,-0.891049965,0.411436935,0.1159665
1764767995.9048333,-4.63904,1.41918,-0.3509799999999999,-0.891049965,0.411436935,0.1159665
1764767995.9048333,-4.63904,1.41918,-0.3509799999999999,-0.891049965,0.411436935,0.1159665
1764767995.9048333,-5.9514,1.2971,-0.74774,-0.8912941050000001,0.41052141,0.115661325
1764767995.9048333,-5.9514,1.2971,-0.74774,-0.8912941050000001,0.41052141,0.115661325
1764767995.9048333,-5.9514,1.2971,-0.74774,-0.8912941050000001,0.41052141,0.115661325
1764767995.9048333,-5.9514,1.2971,-0.74774,-0.8912941050000001,0.41052141,0.115661325
1764767995.9048333,-5.9514,1.2971,-0.74774,-0.8912941050000001,0.41052141,0.115661325
1764767995.9048333,-5.9514,1.2971,-0.74774,-0.8912941050000001,0.41052141,0.115661325
1764767995.9048333,-5.9514,1.2971,-0.74774,-0.8912941050000001,0.41052141,0.115661325
1764767995.9048333,-5.9514,1.2971,-0.74774,-0.8912941050000001,0.41052141,0.115661325
1764767995.9048333,-5.9514,1.2971,-0.74774,-0.8912941050000001,0.41052141,0.115661325
1764767995.9048333,-5.9514,1.2971,-0.74774,-0.8912941050000001,0.41052141,0.115661325
1764767995.9048333,-5.85984,1.28184,-0.13734,-0.89098893,0.40808001,0.11608857
1764767995.9048333,-5.85984,1.28184,-0.13734,-0.89098893,0.40808001,0.11608857
1764767995.9048333,-5.85984,1.28184,-0.13734,-0.89098893,0.40808001,0.11608857
1764767995.9048333,-5.85984,1.28184,-0.13734,-0.89098893,0.40808001,0.11608857
1764767995.9048333,-5.85984,1.28184,-0.13734,-0.89098893,0.40808001,0.11608857
1764767995.9048333,-5.85984,1.28184,-0.13734,-0.89098893,0.40808001,0.11608857
1764767995.9048333,-5.85984,1.28184,-0.13734,-0.89098893,0.40808001,0.11608857
1764767995.9048333,-5.85984,1.28184,-0.13734,-0.89098893,0.40808001,0.11608857
1764767995.9509606,-5.85984,1.28184,-0.13734,-0.89098893,0.40808001,0.11608857
1764767995.9509606,-5.85984,1.28184,-0.13734,-0.89098893,0.40808001,0.11608857
1764767995.9509606,-5.38678,1.69386,0.36624,-0.89159928,0.40515033,0.116515815
1764767995.9509606,-5.38678,1.69386,0.36624,-0.89159928,0.40515033,0.116515815
1764767995.9509606,-5.38678,1.69386,0.36624,-0.89159928,0.40515033,0.116515815
1764767995.9509606,-5.38678,1.69386,0.36624,-0.89159928,0.40515033,0.116515815
1764767995.9509606,-5.38678,1.69386,0.36624,-0.89159928,0.40515033,0.116515815
1764767995.9509606,-5.38678,1.69386,0.36624,-0.89159928,0.40515033,0.116515815
1764767995.9509606,-5.38678,1.69386,0.36624,-0.89159928,0.40515033,0.116515815
1764767995.9509606,-5.38678,1.69386,0.36624,-0.89159928,0.40515033,0.116515815
1764767995.9509606,-5.38678,1.69386,0.36624,-0.89159928,0.40515033,0.116515815
1764767995.9509606,-5.38678,1.69386,0.36624,-0.89159928,0.40515033,0.116515815
1764767995.9509606,-4.303319999999999,0.9156,0.59514,-0.893247225,0.40319721,0.117492375
1764767995.9509606,-4.303319999999999,0.9156,0.59514,-0.893247225,0.40319721,0.117492375
1764767995.9509606,-4.303319999999999,0.9156,0.59514,-0.893247225,0.40319721,0.117492375
1764767995.9509606,-4.303319999999999,0.9156,0.59514,-0.893247225,0.40319721,0.117492375
1764767995.9509606,-4.303319999999999,0.9156,0.59514,-0.893247225,0.40319721,0.117492375
1764767995.9509606,-4.303319999999999,0.9156,0.59514,-0.893247225,0.40319721,0.117492375
1764767995.9509606,-4.303319999999999,0.9156,0.59514,-0.893247225,0.40319721,0.117492375
1764767995.9509606,-4.303319999999999,0.9156,0.59514,-0.893247225,0.40319721,0.117492375
1764767995.9509606,-4.303319999999999,0.9156,0.59514,-0.893247225,0.40319721,0.117492375
1764767995.9509606,-4.303319999999999,0.9156,0.59514,-0.893247225,0.40319721,0.117492375
1764767995.9509606,-3.11304,0.97664,0.82404,-0.89306412,0.40051167,0.118468935
1764767995.9509606,-3.11304,0.97664,0.82404,-0.89306412,0.40051167,0.118468935
1764767996.0012083,-3.11304,0.97664,0.82404,-0.89306412,0.40051167,0.118468935
1764767996.0012083,-3.11304,0.97664,0.82404,-0.89306412,0.40051167,0.118468935
1764767996.0012083,-3.11304,0.97664,0.82404,-0.89306412,0.40051167,0.118468935
1764767996.0012083,-3.11304,0.97664,0.82404,-0.89306412,0.40051167,0.118468935
1764767996.0012083,-3.11304,0.97664,0.82404,-0.89306412,0.40051167,0.118468935
1764767996.0022223,-3.11304,0.97664,0.82404,-0.89306412,0.40051167,0.118468935
1764767996.0022223,-3.11304,0.97664,0.82404,-0.89306412,0.40051167,0.118468935
1764767996.0022223,-3.11304,0.97664,0.82404,-0.89306412,0.40051167,0.118468935
1764767996.0022223,-1.70912,0.763,0.62566,-0.8933692950000001,0.401183055,0.11889618
1764767996.0022223,-1.70912,0.763,0.62566,-0.8933692950000001,0.401183055,0.11889618
1764767996.0022223,-1.70912,0.763,0.62566,-0.8933692950000001,0.401183055,0.11889618
1764767996.0022223,-1.70912,0.763,0.62566,-0.8933692950000001,0.401183055,0.11889618
1764767996.0022223,-1.70912,0.763,0.62566,-0.8933692950000001,0.401183055,0.11889618
1764767996.0022223,-1.70912,0.763,0.62566,-0.8933692950000001,0.401183055,0.11889618
1764767996.0022223,-1.70912,0.763,0.62566,-0.8933692950000001,0.401183055,0.11889618
1764767996.0022223,-1.70912,0.763,0.62566,-0.8933692950000001,0.401183055,0.11889618
1764767996.0022223,-1.70912,0.763,0.62566,-0.8933692950000001,0.401183055,0.11889618
1764767996.0022223,-1.70912,0.763,0.62566,-0.8933692950000001,0.401183055,0.11889618
1764767996.0022223,-2.01432,0.8087799999999999,0.42728,-0.89257584,0.40478412,0.1184079
1764767996.0022223,-2.01432,0.8087799999999999,0.42728,-0.89257584,0.40478412,0.1184079
1764767996.0022223,-2.01432,0.8087799999999999,0.42728,-0.89257584,0.40478412,0.1184079
1764767996.0022223,-2.01432,0.8087799999999999,0.42728,-0.89257584,0.40478412,0.1184079
1764767996.0022223,-2.01432,0.8087799999999999,0.42728,-0.89257584,0.40478412,0.1184079
1764767996.0022223,-2.01432,0.8087799999999999,0.42728,-0.89257584,0.40478412,0.1184079
1764767996.0022223,-2.01432,0.8087799999999999,0.42728,-0.89257584,0.40478412,0.1184079
1764767996.0022223,-2.01432,0.8087799999999999,0.42728,-0.89257584,0.40478412,0.1184079
1764767996.0449986,-2.01432,0.8087799999999999,0.42728,-0.89257584,0.40478412,0.1184079
1764767996.0449986,-2.01432,0.8087799999999999,0.42728,-0.89257584,0.40478412,0.1184079
1764767996.0449986,-2.85362,0.50358,0.39676,-0.89159928,0.408018975,0.1171872
1764767996.0449986,-2.85362,0.50358,0.39676,-0.89159928,0.408018975,0.1171872
1764767996.0449986,-2.85362,0.50358,0.39676,-0.89159928,0.408018975,0.1171872
1764767996.0449986,-2.85362,0.50358,0.39676,-0.89159928,0.408018975,0.1171872
1764767996.0449986,-2.85362,0.50358,0.39676,-0.89159928,0.408018975,0.1171872
1764767996.0449986,-2.85362,0.50358,0.39676,-0.89159928,0.408018975,0.1171872
1764767996.0449986,-2.85362,0.50358,0.39676,-0.89159928,0.408018975,0.1171872
1764767996.0449986,-2.85362,0.50358,0.39676,-0.89159928,0.408018975,0.1171872
1764767996.0449986,-2.85362,0.50358,0.39676,-0.89159928,0.408018975,0.1171872
1764767996.0449986,-2.85362,0.50358,0.39676,-0.89159928,0.408018975,0.1171872
1764767996.0449986,-3.23512,1.02242,0.3051999999999999,-0.890439615,0.410338305,0.11657685
1764767996.0449986,-3.23512,1.02242,0.3051999999999999,-0.890439615,0.410338305,0.11657685
1764767996.0449986,-3.23512,1.02242,0.3051999999999999,-0.890439615,0.410338305,0.11657685
1764767996.0449986,-3.23512,1.02242,0.3051999999999999,-0.890439615,0.410338305,0.11657685
1764767996.0465188,-3.23512,1.02242,0.3051999999999999,-0.890439615,0.410338305,0.11657685
1764767996.0465188,-3.23512,1.02242,0.3051999999999999,-0.890439615,0.410338305,0.11657685
1764767996.0465188,-3.23512,1.02242,0.3051999999999999,-0.890439615,0.410338305,0.11657685
1764767996.0465188,-3.23512,1.02242,0.3051999999999999,-0.890439615,0.410338305,0.11657685
1764767996.0465188,-3.23512,1.02242,0.3051999999999999,-0.890439615,0.410338305,0.11657685
1764767996.0465188,-3.23512,1.02242,0.3051999999999999,-0.890439615,0.410338305,0.11657685
1764767996.0465188,-4.303319999999999,1.2971,0.39676,-0.89037858,0.41100969,0.116882025
1764767996.0465188,-4.303319999999999,1.2971,0.39676,-0.89037858,0.41100969,0.116882025
1764767996.0932417,-4.303319999999999,1.2971,0.39676,-0.89037858,0.41100969,0.116882025
1764767996.0932417,-4.303319999999999,1.2971,0.39676,-0.89037858,0.41100969,0.116882025
1764767996.0932417,-4.303319999999999,1.2971,0.39676,-0.89037858,0.41100969,0.116882025
1764767996.0932417,-4.303319999999999,1.2971,0.39676,-0.89037858,0.41100969,0.116882025
1764767996.0932417,-4.303319999999999,1.2971,0.39676,-0.89037858,0.41100969,0.116882025
1764767996.0932417,-4.303319999999999,1.2971,0.39676,-0.89037858,0.41100969,0.116882025
1764767996.0932417,-4.303319999999999,1.2971,0.39676,-0.89037858,0.41100969,0.116882025
1764767996.0932417,-4.303319999999999,1.2971,0.39676,-0.89037858,0.41100969,0.116882025
1764767996.0932417,-4.24228,1.25132,0.18312,-0.888608565,0.409361745,0.11682099
1764767996.0932417,-4.24228,1.25132,0.18312,-0.888608565,0.409361745,0.11682099
1764767996.0932417,-4.24228,1.25132,0.18312,-0.888608565,0.409361745,0.11682099
1764767996.0932417,-4.24228,1.25132,0.18312,-0.888608565,0.409361745,0.11682099
1764767996.0932417,-4.24228,1.25132,0.18312,-0.888608565,0.409361745,0.11682099
1764767996.0932417,-4.24228,1.25132,0.18312,-0.888608565,0.409361745,0.11682099
1764767996.0932417,-4.24228,1.25132,0.18312,-0.888608565,0.409361745,0.11682099
1764767996.0932417,-4.24228,1.25132,0.18312,-0.888608565,0.409361745,0.11682099
1764767996.0932417,-4.24228,1.25132,0.18312,-0.888608565,0.409361745,0.11682099
1764767996.0932417,-4.24228,1.25132,0.18312,-0.888608565,0.409361745,0.11682099
1764767996.0932417,-3.815,1.19028,-0.03052,-0.88818132,0.40722552,0.11767548
1764767996.0932417,-3.815,1.19028,-0.03052,-0.88818132,0.40722552,0.11767548
1764767996.0932417,-3.815,1.19028,-0.03052,-0.88818132,0.40722552,0.11767548
1764767996.0932417,-3.815,1.19028,-0.03052,-0.88818132,0.40722552,0.11767548
1764767996.1398914,-3.815,1.19028,-0.03052,-0.88818132,0.40722552,0.11767548
1764767996.1398914,-3.815,1.19028,-0.03052,-0.88818132,0.40722552,0.11767548
1764767996.1398914,-3.815,1.19028,-0.03052,-0.88818132,0.40722552,0.11767548
1764767996.1398914,-3.815,1.19028,-0.03052,-0.88818132,0.40722552,0.11767548
1764767996.1398914,-3.815,1.19028,-0.03052,-0.88818132,0.40722552,0.11767548
1764767996.1398914,-3.815,1.19028,-0.03052,-0.88818132,0.40722552,0.11767548
1764767996.1398914,-3.70818,1.55652,0.19838,-0.88927995,0.40673724,0.117736515
1764767996.1398914,-3.70818,1.55652,0.19838,-0.88927995,0.40673724,0.117736515
1764767996.1398914,-3.70818,1.55652,0.19838,-0.88927995,0.40673724,0.117736515
1764767996.1398914,-3.70818,1.55652,0.19838,-0.88927995,0.40673724,0.117736515
1764767996.1409435,-3.70818,1.55652,0.19838,-0.88927995,0.40673724,0.117736515
1764767996.1409435,-3.70818,1.55652,0.19838,-0.88927995,0.40673724,0.117736515
1764767996.1409435,-3.70818,1.55652,0.19838,-0.88927995,0.40673724,0.117736515
1764767996.1409435,-3.70818,1.55652,0.19838,-0.88927995,0.40673724,0.117736515
1764767996.1409435,-3.70818,1.55652,0.19838,-0.88927995,0.40673724,0.117736515
1764767996.1409435,-3.70818,1.55652,0.19838,-0.88927995,0.40673724,0.117736515
1764767996.1409435,-3.2809,1.05294,0.41202,-0.89135514,0.406554135,0.1171872
1764767996.1409435,-3.2809,1.05294,0.41202,-0.89135514,0.406554135,0.1171872
1764767996.1409435,-3.2809,1.05294,0.41202,-0.89135514,0.406554135,0.1171872
1764767996.1409435,-3.2809,1.05294,0.41202,-0.89135514,0.406554135,0.1171872
1764767996.1409435,-3.2809,1.05294,0.41202,-0.89135514,0.406554135,0.1171872
1764767996.1409435,-3.2809,1.05294,0.41202,-0.89135514,0.406554135,0.1171872
1764767996.1849592,-3.2809,1.05294,0.41202,-0.89135514,0.406554135,0.1171872
1764767996.1849592,-3.2809,1.05294,0.41202,-0.89135514,0.406554135,0.1171872
1764767996.1849592,-3.2809,1.05294,0.41202,-0.89135514,0.406554135,0.1171872
1764767996.1849592,-3.2809,1.05294,0.41202,-0.89135514,0.406554135,0.1171872
1764767996.1849592,-3.17408,0.6867,0.06104,-0.89269791,0.406798275,0.117492375
1764767996.1849592,-3.17408,0.6867,0.06104,-0.89269791,0.406798275,0.117492375
1764767996.1849592,-3.17408,0.6867,0.06104,-0.89269791,0.406798275,0.117492375
1764767996.1849592,-3.17408,0.6867,0.06104,-0.89269791,0.406798275,0.117492375
1764767996.1849592,-3.17408,0.6867,0.06104,-0.89269791,0.406798275,0.117492375
1764767996.1849592,-3.17408,0.6867,0.06104,-0.89269791,0.406798275,0.117492375
1764767996.1849592,-3.17408,0.6867,0.06104,-0.89269791,0.406798275,0.117492375
1764767996.1849592,-3.17408,0.6867,0.06104,-0.89269791,0.406798275,0.117492375
1764767996.1849592,-3.17408,0.6867,0.06104,-0.89269791,0.406798275,0.117492375
1764767996.1849592,-3.17408,0.6867,0.06104,-0.89269791,0.406798275,0.117492375
1764767996.1849592,-2.91466,1.26658,0.6103999999999999,-0.892636875,0.406554135,0.117858585
1764767996.1849592,-2.91466,1.26658,0.6103999999999999,-0.892636875,0.406554135,0.117858585
1764767996.1849592,-2.91466,1.26658,0.6103999999999999,-0.892636875,0.406554135,0.117858585
1764767996.1849592,-2.91466,1.26658,0.6103999999999999,-0.892636875,0.406554135,0.117858585
1764767996.1849592,-2.91466,1.26658,0.6103999999999999,-0.892636875,0.406554135,0.117858585
1764767996.1849592,-2.91466,1.26658,0.6103999999999999,-0.892636875,0.406554135,0.117858585
1764767996.1849592,-2.91466,1.26658,0.6103999999999999,-0.892636875,0.406554135,0.117858585
1764767996.1849592,-2.91466,1.26658,0.6103999999999999,-0.892636875,0.406554135,0.117858585
1764767996.1849592,-2.91466,1.26658,0.6103999999999999,-0.892636875,0.406554135,0.117858585
1764767996.1849592,-2.91466,1.26658,0.6103999999999999,-0.892636875,0.406554135,0.117858585
1764767996.2314656,-2.6705,0.97664,0.65618,-0.89318619,0.40661517,0.1171872
1764767996.2314656,-2.6705,0.97664,0.65618,-0.89318619,0.40661517,0.1171872
1764767996.2314656,-2.6705,0.97664,0.65618,-0.89318619,0.40661517,0.1171872
1764767996.2314656,-2.6705,0.97664,0.65618,-0.89318619,0.40661517,0.1171872
1764767996.2314656,-2.6705,0.97664,0.65618,-0.89318619,0.40661517,0.1171872
1764767996.232467,-2.6705,0.97664,0.65618,-0.89318619,0.40661517,0.1171872
1764767996.232467,-2.6705,0.97664,0.65618,-0.89318619,0.40661517,0.1171872
1764767996.232467,-2.6705,0.97664,0.65618,-0.89318619,0.40661517,0.1171872
1764767996.232467,-2.6705,0.97664,0.65618,-0.89318619,0.40661517,0.1171872
1764767996.232467,-2.6705,0.97664,0.65618,-0.89318619,0.40661517,0.1171872
1764767996.232467,-2.83836,0.56462,1.03768,-0.893003085,0.40661517,0.11730927
1764767996.232467,-2.83836,0.56462,1.03768,-0.893003085,0.40661517,0.11730927
1764767996.232467,-2.83836,0.56462,1.03768,-0.893003085,0.40661517,0.11730927
1764767996.232467,-2.83836,0.56462,1.03768,-0.893003085,0.40661517,0.11730927
1764767996.232467,-2.83836,0.56462,1.03768,-0.893003085,0.40661517,0.11730927
1764767996.232467,-2.83836,0.56462,1.03768,-0.893003085,0.40661517,0.11730927
1764767996.232467,-2.83836,0.56462,1.03768,-0.893003085,0.40661517,0.11730927
1764767996.232467,-2.83836,0.56462,1.03768,-0.893003085,0.40661517,0.11730927
1764767996.232467,-2.83836,0.56462,1.03768,-0.893003085,0.40661517,0.11730927
1764767996.232467,-2.83836,0.56462,1.03768,-0.893003085,0.40661517,0.11730927
1764767996.232467,-2.5179,0.763,0.9919,-0.892636875,0.407042415,0.116882025
1764767996.232467,-2.5179,0.763,0.9919,-0.892636875,0.407042415,0.116882025
1764767996.232467,-2.5179,0.763,0.9919,-0.892636875,0.407042415,0.116882025
1764767996.232467,-2.5179,0.763,0.9919,-0.892636875,0.407042415,0.116882025
1764767996.2778363,-2.5179,0.763,0.9919,-0.892636875,0.407042415,0.116882025
1764767996.2778363,-2.5179,0.763,0.9919,-0.892636875,0.407042415,0.116882025
1764767996.2778363,-2.5179,0.763,0.9919,-0.892636875,0.407042415,0.116882025
1764767996.2778363,-2.5179,0.763,0.9919,-0.892636875,0.407042415,0.116882025
1764767996.2778363,-2.5179,0.763,0.9919,-0.892636875,0.407042415,0.116882025
1764767996.2778363,-2.5179,0.763,0.9919,-0.892636875,0.407042415,0.116882025
1764767996.2778363,-2.86888,0.44254,0.8392999999999999,-0.891111,0.407774835,0.11645478
1764767996.2788444,-2.86888,0.44254,0.8392999999999999,-0.891111,0.407774835,0.11645478
1764767996.2788444,-2.86888,0.44254,0.8392999999999999,-0.891111,0.407774835,0.11645478
1764767996.2788444,-2.86888,0.44254,0.8392999999999999,-0.891111,0.407774835,0.11645478
1764767996.2788444,-2.86888,0.44254,0.8392999999999999,-0.891111,0.407774835,0.11645478
1764767996.2788444,-2.86888,0.44254,0.8392999999999999,-0.891111,0.407774835,0.11645478
1764767996.2788444,-2.86888,0.44254,0.8392999999999999,-0.891111,0.407774835,0.11645478
1764767996.2788444,-2.86888,0.44254,0.8392999999999999,-0.891111,0.407774835,0.11645478
1764767996.2788444,-2.86888,0.44254,0.8392999999999999,-0.891111,0.407774835,0.11645478
1764767996.2788444,-2.86888,0.44254,0.8392999999999999,-0.891111,0.407774835,0.11645478
1764767996.2788444,-3.2046,0.21364,1.34288,-0.890683755,0.40795794,0.11682099
1764767996.2788444,-3.2046,0.21364,1.34288,-0.890683755,0.40795794,0.11682099
1764767996.2788444,-3.2046,0.21364,1.34288,-0.890683755,0.40795794,0.11682099
1764767996.2788444,-3.2046,0.21364,1.34288,-0.890683755,0.40795794,0.11682099
1764767996.2788444,-3.2046,0.21364,1.34288,-0.890683755,0.40795794,0.11682099
1764767996.2788444,-3.2046,0.21364,1.34288,-0.890683755,0.40795794,0.11682099
1764767996.3245249,-3.2046,0.21364,1.34288,-0.890683755,0.40795794,0.11682099
1764767996.3245249,-3.2046,0.21364,1.34288,-0.890683755,0.40795794,0.11682099
1764767996.3245249,-3.2046,0.21364,1.34288,-0.890683755,0.40795794,0.11682099
1764767996.3245249,-3.2046,0.21364,1.34288,-0.890683755,0.40795794,0.11682099
1764767996.3245249,-2.41108,0.4578,0.94612,-0.889585125,0.40808001,0.11682099
1764767996.3245249,-2.41108,0.4578,0.94612,-0.889585125,0.40808001,0.11682099
1764767996.3245249,-2.41108,0.4578,0.94612,-0.889585125,0.40808001,0.11682099
1764767996.3245249,-2.41108,0.4578,0.94612,-0.889585125,0.40808001,0.11682099
1764767996.3245249,-2.41108,0.4578,0.94612,-0.889585125,0.40808001,0.11682099
1764767996.3245249,-2.41108,0.4578,0.94612,-0.889585125,0.40808001,0.11682099
1764767996.3245249,-2.41108,0.4578,0.94612,-0.889585125,0.40808001,0.11682099
1764767996.3245249,-2.41108,0.4578,0.94612,-0.889585125,0.40808001,0.11682099
1764767996.3245249,-2.41108,0.4578,0.94612,-0.889585125,0.40808001,0.11682099
1764767996.3245249,-2.41108,0.4578,0.94612,-0.889585125,0.40808001,0.11682099
1764767996.3245249,-2.94518,0.24416,1.38866,-0.89050065,0.408507255,0.116271675
1764767996.3255346,-2.94518,0.24416,1.38866,-0.89050065,0.408507255,0.116271675
1764767996.3255346,-2.94518,0.24416,1.38866,-0.89050065,0.408507255,0.116271675
1764767996.3255346,-2.94518,0.24416,1.38866,-0.89050065,0.408507255,0.116271675
1764767996.3255346,-2.94518,0.24416,1.38866,-0.89050065,0.408507255,0.116271675
1764767996.3255346,-2.94518,0.24416,1.38866,-0.89050065,0.408507255,0.116271675
1764767996.3255346,-2.94518,0.24416,1.38866,-0.89050065,0.408507255,0.116271675
1764767996.3255346,-2.94518,0.24416,1.38866,-0.89050065,0.408507255,0.116271675
1764767996.3711653,-2.94518,0.24416,1.38866,-0.89050065,0.408507255,0.116271675
1764767996.3711653,-2.94518,0.24416,1.38866,-0.89050065,0.408507255,0.116271675
1764767996.3711653,-2.80784,0.3051999999999999,1.03768,-0.890683755,0.40856829,0.116393745
1764767996.3711653,-2.80784,0.3051999999999999,1.03768,-0.890683755,0.40856829,0.116393745
1764767996.3711653,-2.80784,0.3051999999999999,1.03768,-0.890683755,0.40856829,0.116393745
1764767996.3711653,-2.80784,0.3051999999999999,1.03768,-0.890683755,0.40856829,0.116393745
1764767996.3711653,-2.80784,0.3051999999999999,1.03768,-0.890683755,0.40856829,0.116393745
1764767996.3716776,-2.80784,0.3051999999999999,1.03768,-0.890683755,0.40856829,0.116393745
1764767996.3716776,-2.80784,0.3051999999999999,1.03768,-0.890683755,0.40856829,0.116393745
1764767996.3716776,-2.80784,0.3051999999999999,1.03768,-0.890683755,0.40856829,0.116393745
1764767996.3716776,-2.80784,0.3051999999999999,1.03768,-0.890683755,0.40856829,0.116393745
1764767996.3716776,-2.80784,0.3051999999999999,1.03768,-0.890683755,0.40856829,0.116393745
1764767996.3716776,-3.32668,0.01526,1.6022999999999998,-0.89086686,0.40917864,0.11584443
1764767996.3716776,-3.32668,0.01526,1.6022999999999998,-0.89086686,0.40917864,0.11584443
1764767996.3716776,-3.32668,0.01526,1.6022999999999998,-0.89086686,0.40917864,0.11584443
1764767996.3716776,-3.32668,0.01526,1.6022999999999998,-0.89086686,0.40917864,0.11584443
1764767996.3716776,-3.32668,0.01526,1.6022999999999998,-0.89086686,0.40917864,0.11584443
1764767996.3716776,-3.32668,0.01526,1.6022999999999998,-0.89086686,0.40917864,0.11584443
1764767996.3716776,-3.32668,0.01526,1.6022999999999998,-0.89086686,0.40917864,0.11584443
1764767996.3716776,-3.32668,0.01526,1.6022999999999998,-0.89086686,0.40917864,0.11584443
1764767996.3716776,-3.32668,0.01526,1.6022999999999998,-0.89086686,0.40917864,0.11584443
1764767996.3716776,-3.32668,0.01526,1.6022999999999998,-0.89086686,0.40917864,0.11584443
1764767996.3716776,-3.76922,0.13734,1.0682,-0.890805825,0.408995535,0.11560029
1764767996.3716776,-3.76922,0.13734,1.0682,-0.890805825,0.408995535,0.11560029
1764767996.4186146,-3.76922,0.13734,1.0682,-0.890805825,0.408995535,0.11560029
1764767996.4186146,-3.76922,0.13734,1.0682,-0.890805825,0.408995535,0.11560029
1764767996.4186146,-3.76922,0.13734,1.0682,-0.890805825,0.408995535,0.11560029
1764767996.4186146,-3.76922,0.13734,1.0682,-0.890805825,0.408995535,0.11560029
1764767996.4186146,-3.76922,0.13734,1.0682,-0.890805825,0.408995535,0.11560029
1764767996.4186146,-3.76922,0.13734,1.0682,-0.890805825,0.408995535,0.11560029
1764767996.4186146,-3.76922,0.13734,1.0682,-0.890805825,0.408995535,0.11560029
1764767996.4186146,-3.76922,0.13734,1.0682,-0.890805825,0.408995535,0.11560029
1764767996.4186146,-3.4335,0.42728,1.2208,-0.89086686,0.408385185,0.11584443
1764767996.4186146,-3.4335,0.42728,1.2208,-0.89086686,0.408385185,0.11584443
1764767996.4186146,-3.4335,0.42728,1.2208,-0.89086686,0.408385185,0.11584443
1764767996.4186146,-3.4335,0.42728,1.2208,-0.89086686,0.408385185,0.11584443
1764767996.4186146,-3.4335,0.42728,1.2208,-0.89086686,0.408385185,0.11584443
1764767996.4186146,-3.4335,0.42728,1.2208,-0.89086686,0.408385185,0.11584443
1764767996.4186146,-3.4335,0.42728,1.2208,-0.89086686,0.408385185,0.11584443
1764767996.4186146,-3.4335,0.42728,1.2208,-0.89086686,0.408385185,0.11584443
1764767996.4186146,-3.4335,0.42728,1.2208,-0.89086686,0.408385185,0.11584443
1764767996.4186146,-3.4335,0.42728,1.2208,-0.89086686,0.408385185,0.11584443
1764767996.4186146,-3.08252,0.01526,1.2055399999999998,-0.890439615,0.407286555,0.115295115
1764767996.4186146,-3.08252,0.01526,1.2055399999999998,-0.890439615,0.407286555,0.115295115
1764767996.4186146,-3.08252,0.01526,1.2055399999999998,-0.890439615,0.407286555,0.115295115
1764767996.4186146,-3.08252,0.01526,1.2055399999999998,-0.890439615,0.407286555,0.115295115
1764767996.4186146,-3.08252,0.01526,1.2055399999999998,-0.890439615,0.407286555,0.115295115
1764767996.4186146,-3.08252,0.01526,1.2055399999999998,-0.890439615,0.407286555,0.115295115
1764767996.462402,-3.08252,0.01526,1.2055399999999998,-0.890439615,0.407286555,0.115295115
1764767996.462402,-3.08252,0.01526,1.2055399999999998,-0.890439615,0.407286555,0.115295115
1764767996.462402,-3.08252,0.01526,1.2055399999999998,-0.890439615,0.407286555,0.115295115
1764767996.462402,-3.08252,0.01526,1.2055399999999998,-0.890439615,0.407286555,0.115295115
1764767996.462402,-2.71628,-0.19838,1.41918,-0.8907447900000001,0.40734759,0.115417185
1764767996.462402,-2.71628,-0.19838,1.41918,-0.8907447900000001,0.40734759,0.115417185
1764767996.462402,-2.71628,-0.19838,1.41918,-0.8907447900000001,0.40734759,0.115417185
1764767996.462402,-2.71628,-0.19838,1.41918,-0.8907447900000001,0.40734759,0.115417185
1764767996.462402,-2.71628,-0.19838,1.41918,-0.8907447900000001,0.40734759,0.115417185
1764767996.462402,-2.71628,-0.19838,1.41918,-0.8907447900000001,0.40734759,0.115417185
1764767996.462402,-2.71628,-0.19838,1.41918,-0.8907447900000001,0.40734759,0.115417185
1764767996.462402,-2.71628,-0.19838,1.41918,-0.8907447900000001,0.40734759,0.115417185
1764767996.462402,-2.71628,-0.19838,1.41918,-0.8907447900000001,0.40734759,0.115417185
1764767996.462402,-2.71628,-0.19838,1.41918,-0.8907447900000001,0.40734759,0.115417185
1764767996.462402,-2.57894,0.18312,1.526,-0.890561685,0.40722552,0.11560029
1764767996.462402,-2.57894,0.18312,1.526,-0.890561685,0.40722552,0.11560029
1764767996.462402,-2.57894,0.18312,1.526,-0.890561685,0.40722552,0.11560029
1764767996.463568,-2.57894,0.18312,1.526,-0.890561685,0.40722552,0.11560029
1764767996.463568,-2.57894,0.18312,1.526,-0.890561685,0.40722552,0.11560029
1764767996.463568,-2.57894,0.18312,1.526,-0.890561685,0.40722552,0.11560029
1764767996.463568,-2.57894,0.18312,1.526,-0.890561685,0.40722552,0.11560029
1764767996.463568,-2.57894,0.18312,1.526,-0.890561685,0.40722552,0.11560029
1764767996.5096955,-2.57894,0.18312,1.526,-0.890561685,0.40722552,0.11560029
1764767996.5096955,-2.57894,0.18312,1.526,-0.890561685,0.40722552,0.11560029
1764767996.5096955,-2.76206,0.21364,1.57178,-0.890073405,0.40808001,0.11547822
1764767996.5096955,-2.76206,0.21364,1.57178,-0.890073405,0.40808001,0.11547822
1764767996.5096955,-2.76206,0.21364,1.57178,-0.890073405,0.40808001,0.11547822
1764767996.5096955,-2.76206,0.21364,1.57178,-0.890073405,0.40808001,0.11547822
1764767996.5096955,-2.76206,0.21364,1.57178,-0.890073405,0.40808001,0.11547822
1764767996.5096955,-2.76206,0.21364,1.57178,-0.890073405,0.40808001,0.11547822
1764767996.5096955,-2.76206,0.21364,1.57178,-0.890073405,0.40808001,0.11547822
1764767996.5096955,-2.76206,0.21364,1.57178,-0.890073405,0.40808001,0.11547822
1764767996.5096955,-2.76206,0.21364,1.57178,-0.890073405,0.40808001,0.11547822
1764767996.5096955,-2.76206,0.21364,1.57178,-0.890073405,0.40808001,0.11547822
1764767996.5096955,-2.62472,0.03052,1.28184,-0.889585125,0.40844622,0.11572236
1764767996.5096955,-2.62472,0.03052,1.28184,-0.889585125,0.40844622,0.11572236
1764767996.5096955,-2.62472,0.03052,1.28184,-0.889585125,0.40844622,0.11572236
1764767996.5096955,-2.62472,0.03052,1.28184,-0.889585125,0.40844622,0.11572236
1764767996.5096955,-2.62472,0.03052,1.28184,-0.889585125,0.40844622,0.11572236
1764767996.5096955,-2.62472,0.03052,1.28184,-0.889585125,0.40844622,0.11572236
1764767996.510713,-2.62472,0.03052,1.28184,-0.889585125,0.40844622,0.11572236
1764767996.510713,-2.62472,0.03052,1.28184,-0.889585125,0.40844622,0.11572236
1764767996.510713,-2.62472,0.03052,1.28184,-0.889585125,0.40844622,0.11572236
1764767996.510713,-2.62472,0.03052,1.28184,-0.889585125,0.40844622,0.11572236
1764767996.510713,-3.3572,0.28994,0.73248,-0.88940202,0.40905657,0.11645478
1764767996.510713,-3.3572,0.28994,0.73248,-0.88940202,0.40905657,0.11645478
1764767996.5577936,-3.3572,0.28994,0.73248,-0.88940202,0.40905657,0.11645478
1764767996.5577936,-3.3572,0.28994,0.73248,-0.88940202,0.40905657,0.11645478
1764767996.5577936,-3.3572,0.28994,0.73248,-0.88940202,0.40905657,0.11645478
1764767996.5577936,-3.3572,0.28994,0.73248,-0.88940202,0.40905657,0.11645478
1764767996.5577936,-3.3572,0.28994,0.73248,-0.88940202,0.40905657,0.11645478
1764767996.5577936,-3.3572,0.28994,0.73248,-0.88940202,0.40905657,0.11645478
1764767996.5577936,-3.3572,0.28994,0.73248,-0.88940202,0.40905657,0.11645478
1764767996.5577936,-3.3572,0.28994,0.73248,-0.88940202,0.40905657,0.11645478
1764767996.5577936,-3.76922,0.79352,1.02242,-0.88903581,0.4089345,0.115783395
1764767996.5577936,-3.76922,0.79352,1.02242,-0.88903581,0.4089345,0.115783395
1764767996.5577936,-3.76922,0.79352,1.02242,-0.88903581,0.4089345,0.115783395
1764767996.5577936,-3.76922,0.79352,1.02242,-0.88903581,0.4089345,0.115783395
1764767996.5577936,-3.76922,0.79352,1.02242,-0.88903581,0.4089345,0.115783395
1764767996.5577936,-3.76922,0.79352,1.02242,-0.88903581,0.4089345,0.115783395
1764767996.5588014,-3.76922,0.79352,1.02242,-0.88903581,0.4089345,0.115783395
1764767996.5588014,-3.76922,0.79352,1.02242,-0.88903581,0.4089345,0.115783395
1764767996.5588014,-3.76922,0.79352,1.02242,-0.88903581,0.4089345,0.115783395
1764767996.5588014,-3.76922,0.79352,1.02242,-0.88903581,0.4089345,0.115783395
1764767996.5588014,-3.14356,0.73248,0.79352,-0.888974775,0.40917864,0.116149605
1764767996.5588014,-3.14356,0.73248,0.79352,-0.888974775,0.40917864,0.116149605
1764767996.5588014,-3.14356,0.73248,0.79352,-0.888974775,0.40917864,0.116149605
1764767996.5588014,-3.14356,0.73248,0.79352,-0.888974775,0.40917864,0.116149605
1764767996.5588014,-3.14356,0.73248,0.79352,-0.888974775,0.40917864,0.116149605
1764767996.5588014,-3.14356,0.73248,0.79352,-0.888974775,0.40917864,0.116149605
1764767996.6058536,-3.14356,0.73248,0.79352,-0.888974775,0.40917864,0.116149605
1764767996.6058536,-3.14356,0.73248,0.79352,-0.888974775,0.40917864,0.116149605
1764767996.6058536,-3.14356,0.73248,0.79352,-0.888974775,0.40917864,0.116149605
1764767996.6058536,-3.14356,0.73248,0.79352,-0.888974775,0.40917864,0.116149605
1764767996.6058536,-3.78448,0.5341,1.51074,-0.88927995,0.409727955,0.11547822
1764767996.6058536,-3.78448,0.5341,1.51074,-0.88927995,0.409727955,0.11547822
1764767996.6058536,-3.78448,0.5341,1.51074,-0.88927995,0.409727955,0.11547822
1764767996.6058536,-3.78448,0.5341,1.51074,-0.88927995,0.409727955,0.11547822
1764767996.6058536,-3.78448,0.5341,1.51074,-0.88927995,0.409727955,0.11547822
1764767996.6058536,-3.78448,0.5341,1.51074,-0.88927995,0.409727955,0.11547822
1764767996.6058536,-3.78448,0.5341,1.51074,-0.88927995,0.409727955,0.11547822
1764767996.6058536,-3.78448,0.5341,1.51074,-0.88927995,0.409727955,0.11547822
1764767996.6058536,-3.78448,0.5341,1.51074,-0.88927995,0.409727955,0.11547822
1764767996.6058536,-3.78448,0.5341,1.51074,-0.88927995,0.409727955,0.11547822
1764767996.6058536,-2.91466,0.36624,0.50358,-0.88940202,0.40783587,0.116393745
1764767996.6058536,-2.91466,0.36624,0.50358,-0.88940202,0.40783587,0.116393745
1764767996.6058536,-2.91466,0.36624,0.50358,-0.88940202,0.40783587,0.116393745
1764767996.6058536,-2.91466,0.36624,0.50358,-0.88940202,0.40783587,0.116393745
1764767996.6058536,-2.91466,0.36624,0.50358,-0.88940202,0.40783587,0.116393745
1764767996.6058536,-2.91466,0.36624,0.50358,-0.88940202,0.40783587,0.116393745
1764767996.6058536,-2.91466,0.36624,0.50358,-0.88940202,0.40783587,0.116393745
1764767996.6058536,-2.91466,0.36624,0.50358,-0.88940202,0.40783587,0.116393745
1764767996.6515956,-2.91466,0.36624,0.50358,-0.88940202,0.40783587,0.116393745
1764767996.6515956,-2.91466,0.36624,0.50358,-0.88940202,0.40783587,0.116393745
1764767996.6515956,-2.19744,0.50358,1.09872,-0.88927995,0.407774835,0.11657685
1764767996.6515956,-2.19744,0.50358,1.09872,-0.88927995,0.407774835,0.11657685
1764767996.6515956,-2.19744,0.50358,1.09872,-0.88927995,0.407774835,0.11657685
1764767996.6515956,-2.19744,0.50358,1.09872,-0.88927995,0.407774835,0.11657685
1764767996.6515956,-2.19744,0.50358,1.09872,-0.88927995,0.407774835,0.11657685
1764767996.6515956,-2.19744,0.50358,1.09872,-0.88927995,0.407774835,0.11657685
1764767996.6515956,-2.19744,0.50358,1.09872,-0.88927995,0.407774835,0.11657685
1764767996.6515956,-2.19744,0.50358,1.09872,-0.88927995,0.407774835,0.11657685
1764767996.6515956,-2.19744,0.50358,1.09872,-0.88927995,0.407774835,0.11657685
1764767996.6515956,-2.19744,0.50358,1.09872,-0.88927995,0.407774835,0.11657685
1764767996.6515956,-2.56368,0.62566,1.09872,-0.88952409,0.407774835,0.117004095
1764767996.6515956,-2.56368,0.62566,1.09872,-0.88952409,0.407774835,0.117004095
1764767996.6515956,-2.56368,0.62566,1.09872,-0.88952409,0.407774835,0.117004095
1764767996.6515956,-2.56368,0.62566,1.09872,-0.88952409,0.407774835,0.117004095
1764767996.6521,-2.56368,0.62566,1.09872,-0.88952409,0.407774835,0.117004095
1764767996.6521,-2.56368,0.62566,1.09872,-0.88952409,0.407774835,0.117004095
1764767996.6521,-2.56368,0.62566,1.09872,-0.88952409,0.407774835,0.117004095
1764767996.6521,-2.56368,0.62566,1.09872,-0.88952409,0.407774835,0.117004095
1764767996.6521,-2.56368,0.62566,1.09872,-0.88952409,0.407774835,0.117004095
1764767996.6521,-2.56368,0.62566,1.09872,-0.88952409,0.407774835,0.117004095
1764767996.6521,-2.80784,0.6409199999999999,0.8698199999999999,-0.88940202,0.408141045,0.11706513
1764767996.6521,-2.80784,0.6409199999999999,0.8698199999999999,-0.88940202,0.408141045,0.11706513
1764767996.698047,-2.80784,0.6409199999999999,0.8698199999999999,-0.88940202,0.408141045,0.11706513
1764767996.698567,-2.80784,0.6409199999999999,0.8698199999999999,-0.88940202,0.408141045,0.11706513
1764767996.698567,-2.80784,0.6409199999999999,0.8698199999999999,-0.88940202,0.408141045,0.11706513
1764767996.698567,-2.80784,0.6409199999999999,0.8698199999999999,-0.88940202,0.408141045,0.11706513
1764767996.698567,-2.80784,0.6409199999999999,0.8698199999999999,-0.88940202,0.408141045,0.11706513
1764767996.698567,-2.80784,0.6409199999999999,0.8698199999999999,-0.88940202,0.408141045,0.11706513
1764767996.698567,-2.80784,0.6409199999999999,0.8698199999999999,-0.88940202,0.408141045,0.11706513
1764767996.698567,-2.80784,0.6409199999999999,0.8698199999999999,-0.88940202,0.408141045,0.11706513
1764767996.698567,-2.80784,0.48832,0.96138,-0.889218915,0.40966692,0.116393745
1764767996.698567,-2.80784,0.48832,0.96138,-0.889218915,0.40966692,0.116393745
1764767996.698567,-2.80784,0.48832,0.96138,-0.889218915,0.40966692,0.116393745
1764767996.698567,-2.80784,0.48832,0.96138,-0.889218915,0.40966692,0.116393745
1764767996.698567,-2.80784,0.48832,0.96138,-0.889218915,0.40966692,0.116393745
1764767996.698567,-2.80784,0.48832,0.96138,-0.889218915,0.40966692,0.116393745
1764767996.698567,-2.80784,0.48832,0.96138,-0.889218915,0.40966692,0.116393745
1764767996.698567,-2.80784,0.48832,0.96138,-0.889218915,0.40966692,0.116393745
1764767996.698567,-2.80784,0.48832,0.96138,-0.889218915,0.40966692,0.116393745
1764767996.698567,-2.80784,0.48832,0.96138,-0.889218915,0.40966692,0.116393745
1764767996.698567,-3.87604,0.9156,1.4497,-0.889585125,0.41052141,0.11560029
1764767996.698567,-3.87604,0.9156,1.4497,-0.889585125,0.41052141,0.11560029
1764767996.698567,-3.87604,0.9156,1.4497,-0.889585125,0.41052141,0.11560029
1764767996.698567,-3.87604,0.9156,1.4497,-0.889585125,0.41052141,0.11560029
1764767996.698567,-3.87604,0.9156,1.4497,-0.889585125,0.41052141,0.11560029
1764767996.698567,-3.87604,0.9156,1.4497,-0.889585125,0.41052141,0.11560029
1764767996.746285,-3.87604,0.9156,1.4497,-0.889585125,0.41052141,0.11560029
1764767996.746285,-3.87604,0.9156,1.4497,-0.889585125,0.41052141,0.11560029
1764767996.7467637,-3.87604,0.9156,1.4497,-0.889585125,0.41052141,0.11560029
1764767996.7467637,-3.87604,0.9156,1.4497,-0.889585125,0.41052141,0.11560029
1764767996.7467637,-4.07442,0.6409199999999999,1.4039199999999998,-0.8902565100000001,0.411559005,0.115539255
1764767996.7467637,-4.07442,0.6409199999999999,1.4039199999999998,-0.8902565100000001,0.411559005,0.115539255
1764767996.7467637,-4.07442,0.6409199999999999,1.4039199999999998,-0.8902565100000001,0.411559005,0.115539255
1764767996.7467637,-4.07442,0.6409199999999999,1.4039199999999998,-0.8902565100000001,0.411559005,0.115539255
1764767996.7467637,-4.07442,0.6409199999999999,1.4039199999999998,-0.8902565100000001,0.411559005,0.115539255
1764767996.7467637,-4.07442,0.6409199999999999,1.4039199999999998,-0.8902565100000001,0.411559005,0.115539255
1764767996.7467637,-4.07442,0.6409199999999999,1.4039199999999998,-0.8902565100000001,0.411559005,0.115539255
1764767996.7467637,-4.07442,0.6409199999999999,1.4039199999999998,-0.8902565100000001,0.411559005,0.115539255
1764767996.7467637,-4.07442,0.6409199999999999,1.4039199999999998,-0.8902565100000001,0.411559005,0.115539255
1764767996.7467637,-4.07442,0.6409199999999999,1.4039199999999998,-0.8902565100000001,0.411559005,0.115539255
1764767996.7467637,-4.15072,0.763,1.15976,-0.89001237,0.41088762,0.11572236
1764767996.7467637,-4.15072,0.763,1.15976,-0.89001237,0.41088762,0.11572236
1764767996.7467637,-4.15072,0.763,1.15976,-0.89001237,0.41088762,0.11572236
1764767996.7467637,-4.15072,0.763,1.15976,-0.89001237,0.41088762,0.11572236
1764767996.7467637,-4.15072,0.763,1.15976,-0.89001237,0.41088762,0.11572236
1764767996.7467637,-4.15072,0.763,1.15976,-0.89001237,0.41088762,0.11572236
1764767996.7467637,-4.15072,0.763,1.15976,-0.89001237,0.41088762,0.11572236
1764767996.7467637,-4.15072,0.763,1.15976,-0.89001237,0.41088762,0.11572236
1764767996.7894666,-4.15072,0.763,1.15976,-0.89001237,0.41088762,0.11572236
1764767996.7894666,-4.15072,0.763,1.15976,-0.89001237,0.41088762,0.11572236
1764767996.7894666,-3.55558,0.4578,1.00716,-0.889218915,0.40930071,0.1171872
1764767996.7894666,-3.55558,0.4578,1.00716,-0.889218915,0.40930071,0.1171872
1764767996.7894666,-3.55558,0.4578,1.00716,-0.889218915,0.40930071,0.1171872
1764767996.7894666,-3.55558,0.4578,1.00716,-0.889218915,0.40930071,0.1171872
1764767996.7894666,-3.55558,0.4578,1.00716,-0.889218915,0.40930071,0.1171872
1764767996.7894666,-3.55558,0.4578,1.00716,-0.889218915,0.40930071,0.1171872
1764767996.7894666,-3.55558,0.4578,1.00716,-0.889218915,0.40930071,0.1171872
1764767996.7894666,-3.55558,0.4578,1.00716,-0.889218915,0.40930071,0.1171872
1764767996.7894666,-3.55558,0.4578,1.00716,-0.889218915,0.40930071,0.1171872
1764767996.7894666,-3.55558,0.4578,1.00716,-0.889218915,0.40930071,0.1171872
1764767996.7894666,-3.40298,0.59514,1.23606,-0.88952409,0.4089345,0.117858585
1764767996.7894666,-3.40298,0.59514,1.23606,-0.88952409,0.4089345,0.117858585
1764767996.7894666,-3.40298,0.59514,1.23606,-0.88952409,0.4089345,0.117858585
1764767996.7894666,-3.40298,0.59514,1.23606,-0.88952409,0.4089345,0.117858585
1764767996.7894666,-3.40298,0.59514,1.23606,-0.88952409,0.4089345,0.117858585
1764767996.7894666,-3.40298,0.59514,1.23606,-0.88952409,0.4089345,0.117858585
1764767996.7894666,-3.40298,0.59514,1.23606,-0.88952409,0.4089345,0.117858585
1764767996.7894666,-3.40298,0.59514,1.23606,-0.88952409,0.4089345,0.117858585
1764767996.7894666,-3.40298,0.59514,1.23606,-0.88952409,0.4089345,0.117858585
1764767996.7894666,-3.40298,0.59514,1.23606,-0.88952409,0.4089345,0.117858585
1764767996.7894666,-3.8913,0.57988,0.85456,-0.889585125,0.410094165,0.11706513
1764767996.7894666,-3.8913,0.57988,0.85456,-0.889585125,0.410094165,0.11706513
1764767996.8359094,-3.8913,0.57988,0.85456,-0.889585125,0.410094165,0.11706513
1764767996.8359094,-3.8913,0.57988,0.85456,-0.889585125,0.410094165,0.11706513
1764767996.8359094,-3.8913,0.57988,0.85456,-0.889585125,0.410094165,0.11706513
1764767996.8359094,-3.8913,0.57988,0.85456,-0.889585125,0.410094165,0.11706513
1764767996.8359094,-3.8913,0.57988,0.85456,-0.889585125,0.410094165,0.11706513
1764767996.8359094,-3.8913,0.57988,0.85456,-0.889585125,0.410094165,0.11706513
1764767996.8359094,-3.8913,0.57988,0.85456,-0.889585125,0.410094165,0.11706513
1764767996.8359094,-3.8913,0.57988,0.85456,-0.889585125,0.410094165,0.11706513
1764767996.8359094,-3.815,0.7019599999999999,0.6867,-0.88854753,0.409361745,0.11621064
1764767996.8359094,-3.815,0.7019599999999999,0.6867,-0.88854753,0.409361745,0.11621064
1764767996.8359094,-3.815,0.7019599999999999,0.6867,-0.88854753,0.409361745,0.11621064
1764767996.8359094,-3.815,0.7019599999999999,0.6867,-0.88854753,0.409361745,0.11621064
1764767996.8359094,-3.815,0.7019599999999999,0.6867,-0.88854753,0.409361745,0.11621064
1764767996.8359094,-3.815,0.7019599999999999,0.6867,-0.88854753,0.409361745,0.11621064
1764767996.8359094,-3.815,0.7019599999999999,0.6867,-0.88854753,0.409361745,0.11621064
1764767996.8359094,-3.815,0.7019599999999999,0.6867,-0.88854753,0.409361745,0.11621064
1764767996.8359094,-3.815,0.7019599999999999,0.6867,-0.88854753,0.409361745,0.11621064
1764767996.8359094,-3.815,0.7019599999999999,0.6867,-0.88854753,0.409361745,0.11621064
1764767996.8359094,-4.79164,0.39676,0.51884,-0.887265795,0.411314865,0.11547822
1764767996.8359094,-4.79164,0.39676,0.51884,-0.887265795,0.411314865,0.11547822
1764767996.8364124,-4.79164,0.39676,0.51884,-0.887265795,0.411314865,0.11547822
1764767996.8364124,-4.79164,0.39676,0.51884,-0.887265795,0.411314865,0.11547822
1764767996.8364124,-4.79164,0.39676,0.51884,-0.887265795,0.411314865,0.11547822
1764767996.8364124,-4.79164,0.39676,0.51884,-0.887265795,0.411314865,0.11547822
1764767996.8826203,-4.79164,0.39676,0.51884,-0.887265795,0.411314865,0.11547822
1764767996.8826203,-4.79164,0.39676,0.51884,-0.887265795,0.411314865,0.11547822
1764767996.8826203,-4.79164,0.39676,0.51884,-0.887265795,0.411314865,0.11547822
1764767996.8826203,-4.79164,0.39676,0.51884,-0.887265795,0.411314865,0.11547822
1764767996.8826203,-6.22608,0.97664,0.88508,-0.887143725,0.414000405,0.114074415
1764767996.8826203,-6.22608,0.97664,0.88508,-0.887143725,0.414000405,0.114074415
1764767996.8826203,-6.22608,0.97664,0.88508,-0.887143725,0.414000405,0.114074415
1764767996.8826203,-6.22608,0.97664,0.88508,-0.887143725,0.414000405,0.114074415
1764767996.8826203,-6.22608,0.97664,0.88508,-0.887143725,0.414000405,0.114074415
1764767996.8826203,-6.22608,0.97664,0.88508,-0.887143725,0.414000405,0.114074415
1764767996.8826203,-6.22608,0.97664,0.88508,-0.887143725,0.414000405,0.114074415
1764767996.8826203,-6.22608,0.97664,0.88508,-0.887143725,0.414000405,0.114074415
1764767996.8826203,-6.22608,0.97664,0.88508,-0.887143725,0.414000405,0.114074415
1764767996.8826203,-6.22608,0.97664,0.88508,-0.887143725,0.414000405,0.114074415
1764767996.8826203,-6.4855,1.03768,0.12208,-0.888486495,0.411314865,0.11462373
1764767996.8826203,-6.4855,1.03768,0.12208,-0.888486495,0.411314865,0.11462373
1764767996.8826203,-6.4855,1.03768,0.12208,-0.888486495,0.411314865,0.11462373
1764767996.8826203,-6.4855,1.03768,0.12208,-0.888486495,0.411314865,0.11462373
1764767996.8826203,-6.4855,1.03768,0.12208,-0.888486495,0.411314865,0.11462373
1764767996.8826203,-6.4855,1.03768,0.12208,-0.888486495,0.411314865,0.11462373
1764767996.8826203,-6.4855,1.03768,0.12208,-0.888486495,0.411314865,0.11462373
1764767996.8826203,-6.4855,1.03768,0.12208,-0.888486495,0.411314865,0.11462373
1764767996.929659,-6.4855,1.03768,0.12208,-0.888486495,0.411314865,0.11462373
1764767996.929659,-6.4855,1.03768,0.12208,-0.888486495,0.411314865,0.11462373
1764767996.929659,-5.08158,1.41918,0.79352,-0.88940202,0.40832415,0.115783395
1764767996.929659,-5.08158,1.41918,0.79352,-0.88940202,0.40832415,0.115783395
1764767996.929659,-5.08158,1.41918,0.79352,-0.88940202,0.40832415,0.115783395
1764767996.929659,-5.08158,1.41918,0.79352,-0.88940202,0.40832415,0.115783395
1764767996.929659,-5.08158,1.41918,0.79352,-0.88940202,0.40832415,0.115783395
1764767996.929659,-5.08158,1.41918,0.79352,-0.88940202,0.40832415,0.115783395
1764767996.929659,-5.08158,1.41918,0.79352,-0.88940202,0.40832415,0.115783395
1764767996.929659,-5.08158,1.41918,0.79352,-0.88940202,0.40832415,0.115783395
1764767996.929659,-5.08158,1.41918,0.79352,-0.88940202,0.40832415,0.115783395
1764767996.929659,-5.08158,1.41918,0.79352,-0.88940202,0.40832415,0.115783395
1764767996.929659,-4.77638,1.526,1.23606,-0.888852705,0.406920345,0.11682099
1764767996.929659,-4.77638,1.526,1.23606,-0.888852705,0.406920345,0.11682099
1764767996.929659,-4.77638,1.526,1.23606,-0.888852705,0.406920345,0.11682099
1764767996.929659,-4.77638,1.526,1.23606,-0.888852705,0.406920345,0.11682099
1764767996.929659,-4.77638,1.526,1.23606,-0.888852705,0.406920345,0.11682099
1764767996.929659,-4.77638,1.526,1.23606,-0.888852705,0.406920345,0.11682099
1764767996.929659,-4.77638,1.526,1.23606,-0.888852705,0.406920345,0.11682099
1764767996.929659,-4.77638,1.526,1.23606,-0.888852705,0.406920345,0.11682099
1764767996.929659,-4.77638,1.526,1.23606,-0.888852705,0.406920345,0.11682099
1764767996.929659,-4.77638,1.526,1.23606,-0.888852705,0.406920345,0.11682099
1764767996.929659,-3.75396,0.71722,1.12924,-0.88940202,0.40490619,0.117614445
1764767996.929659,-3.75396,0.71722,1.12924,-0.88940202,0.40490619,0.117614445
1764767996.977064,-3.75396,0.71722,1.12924,-0.88940202,0.40490619,0.117614445
1764767996.977064,-3.75396,0.71722,1.12924,-0.88940202,0.40490619,0.117614445
1764767996.977064,-3.75396,0.71722,1.12924,-0.88940202,0.40490619,0.117614445
1764767996.977064,-3.75396,0.71722,1.12924,-0.88940202,0.40490619,0.117614445
1764767996.977064,-3.75396,0.71722,1.12924,-0.88940202,0.40490619,0.117614445
1764767996.977064,-3.75396,0.71722,1.12924,-0.88940202,0.40490619,0.117614445
1764767996.977064,-3.75396,0.71722,1.12924,-0.88940202,0.40490619,0.117614445
1764767996.977064,-3.75396,0.71722,1.12924,-0.88940202,0.40490619,0.117614445
1764767996.977064,-2.83836,0.41202,0.82404,-0.890805825,0.404723085,0.11779755
1764767996.977064,-2.83836,0.41202,0.82404,-0.890805825,0.404723085,0.11779755
1764767996.977064,-2.83836,0.41202,0.82404,-0.890805825,0.404723085,0.11779755
1764767996.977064,-2.83836,0.41202,0.82404,-0.890805825,0.404723085,0.11779755
1764767996.977064,-2.83836,0.41202,0.82404,-0.890805825,0.404723085,0.11779755
1764767996.977064,-2.83836,0.41202,0.82404,-0.890805825,0.404723085,0.11779755
1764767996.977064,-2.83836,0.41202,0.82404,-0.890805825,0.404723085,0.11779755
1764767996.977064,-2.83836,0.41202,0.82404,-0.890805825,0.404723085,0.11779755
1764767996.977064,-2.83836,0.41202,0.82404,-0.890805825,0.404723085,0.11779755
1764767996.977064,-2.83836,0.41202,0.82404,-0.890805825,0.404723085,0.11779755
1764767996.977064,-2.57894,0.47306,0.8087799999999999,-0.89123307,0.40612689,0.117492375
1764767996.977064,-2.57894,0.47306,0.8087799999999999,-0.89123307,0.40612689,0.117492375
1764767996.977064,-2.57894,0.47306,0.8087799999999999,-0.89123307,0.40612689,0.117492375
1764767996.977064,-2.57894,0.47306,0.8087799999999999,-0.89123307,0.40612689,0.117492375
1764767996.977064,-2.57894,0.47306,0.8087799999999999,-0.89123307,0.40612689,0.117492375
1764767996.977064,-2.57894,0.47306,0.8087799999999999,-0.89123307,0.40612689,0.117492375
1764767997.024233,-2.57894,0.47306,0.8087799999999999,-0.89123307,0.40612689,0.117492375
1764767997.024233,-2.57894,0.47306,0.8087799999999999,-0.89123307,0.40612689,0.117492375
1764767997.024233,-2.57894,0.47306,0.8087799999999999,-0.89123307,0.40612689,0.117492375
1764767997.024233,-2.57894,0.47306,0.8087799999999999,-0.89123307,0.40612689,0.117492375
1764767997.024233,-2.30426,0.71722,0.79352,-0.89037858,0.4089345,0.11743134
1764767997.024233,-2.30426,0.71722,0.79352,-0.89037858,0.4089345,0.11743134
1764767997.024233,-2.30426,0.71722,0.79352,-0.89037858,0.4089345,0.11743134
1764767997.024233,-2.30426,0.71722,0.79352,-0.89037858,0.4089345,0.11743134
1764767997.024233,-2.30426,0.71722,0.79352,-0.89037858,0.4089345,0.11743134
1764767997.0247374,-2.30426,0.71722,0.79352,-0.89037858,0.4089345,0.11743134
1764767997.0247374,-2.30426,0.71722,0.79352,-0.89037858,0.4089345,0.11743134
1764767997.0247374,-2.30426,0.71722,0.79352,-0.89037858,0.4089345,0.11743134
1764767997.0247374,-2.30426,0.71722,0.79352,-0.89037858,0.4089345,0.11743134
1764767997.0247374,-2.30426,0.71722,0.79352,-0.89037858,0.4089345,0.11743134
1764767997.0247374,-2.86888,0.6103999999999999,0.24416,-0.88964616,0.412169355,0.1159665
1764767997.0247374,-2.86888,0.6103999999999999,0.24416,-0.88964616,0.412169355,0.1159665
1764767997.0247374,-2.86888,0.6103999999999999,0.24416,-0.88964616,0.412169355,0.1159665
1764767997.0247374,-2.86888,0.6103999999999999,0.24416,-0.88964616,0.412169355,0.1159665
1764767997.0247374,-2.86888,0.6103999999999999,0.24416,-0.88964616,0.412169355,0.1159665
1764767997.0247374,-2.86888,0.6103999999999999,0.24416,-0.88964616,0.412169355,0.1159665
1764767997.0247374,-2.86888,0.6103999999999999,0.24416,-0.88964616,0.412169355,0.1159665
1764767997.0247374,-2.86888,0.6103999999999999,0.24416,-0.88964616,0.412169355,0.1159665
1764767997.0711691,-2.86888,0.6103999999999999,0.24416,-0.88964616,0.412169355,0.1159665
1764767997.0711691,-2.86888,0.6103999999999999,0.24416,-0.88964616,0.412169355,0.1159665
1764767997.0711691,-3.41824,1.41918,0.2289,-0.88854753,0.41393937,0.114806835
1764767997.0711691,-3.41824,1.41918,0.2289,-0.88854753,0.41393937,0.114806835
1764767997.0711691,-3.41824,1.41918,0.2289,-0.88854753,0.41393937,0.114806835
1764767997.0711691,-3.41824,1.41918,0.2289,-0.88854753,0.41393937,0.114806835
1764767997.0711691,-3.41824,1.41918,0.2289,-0.88854753,0.41393937,0.114806835
1764767997.0711691,-3.41824,1.41918,0.2289,-0.88854753,0.41393937,0.114806835
1764767997.0711691,-3.41824,1.41918,0.2289,-0.88854753,0.41393937,0.114806835
1764767997.0711691,-3.41824,1.41918,0.2289,-0.88854753,0.41393937,0.114806835
1764767997.0711691,-3.41824,1.41918,0.2289,-0.88854753,0.41393937,0.114806835
1764767997.0711691,-3.41824,1.41918,0.2289,-0.88854753,0.41393937,0.114806835
1764767997.0711691,-4.39488,1.32762,0.24416,-0.887387865,0.415099035,0.11560029
1764767997.0711691,-4.39488,1.32762,0.24416,-0.887387865,0.415099035,0.11560029
1764767997.0711691,-4.39488,1.32762,0.24416,-0.887387865,0.415099035,0.11560029
1764767997.0711691,-4.39488,1.32762,0.24416,-0.887387865,0.415099035,0.11560029
1764767997.0711691,-4.39488,1.32762,0.24416,-0.887387865,0.415099035,0.11560029
1764767997.0711691,-4.39488,1.32762,0.24416,-0.887387865,0.415099035,0.11560029
1764767997.0711691,-4.39488,1.32762,0.24416,-0.887387865,0.415099035,0.11560029
1764767997.0711691,-4.39488,1.32762,0.24416,-0.887387865,0.415099035,0.11560029
1764767997.0711691,-4.39488,1.32762,0.24416,-0.887387865,0.415099035,0.11560029
1764767997.0711691,-4.39488,1.32762,0.24416,-0.887387865,0.415099035,0.11560029
1764767997.1170886,-4.31858,1.2055399999999998,-0.01526,-0.886655445,0.41320695,0.1171872
1764767997.1170886,-4.31858,1.2055399999999998,-0.01526,-0.886655445,0.41320695,0.1171872
1764767997.1170886,-4.31858,1.2055399999999998,-0.01526,-0.886655445,0.41320695,0.1171872
1764767997.1170886,-4.31858,1.2055399999999998,-0.01526,-0.886655445,0.41320695,0.1171872
1764767997.1170886,-4.31858,1.2055399999999998,-0.01526,-0.886655445,0.41320695,0.1171872
1764767997.1170886,-4.31858,1.2055399999999998,-0.01526,-0.886655445,0.41320695,0.1171872
1764767997.1170886,-4.31858,1.2055399999999998,-0.01526,-0.886655445,0.41320695,0.1171872
1764767997.1170886,-4.31858,1.2055399999999998,-0.01526,-0.886655445,0.41320695,0.1171872
1764767997.1170886,-4.31858,1.2055399999999998,-0.01526,-0.886655445,0.41320695,0.1171872
1764767997.1170886,-4.31858,1.2055399999999998,-0.01526,-0.886655445,0.41320695,0.1171872
1764767997.1170886,-5.08158,0.7019599999999999,0.09156,-0.88598406,0.4125966,0.117004095
1764767997.1170886,-5.08158,0.7019599999999999,0.09156,-0.88598406,0.4125966,0.117004095
1764767997.1170886,-5.08158,0.7019599999999999,0.09156,-0.88598406,0.4125966,0.117004095
1764767997.1170886,-5.08158,0.7019599999999999,0.09156,-0.88598406,0.4125966,0.117004095
1764767997.1170886,-5.08158,0.7019599999999999,0.09156,-0.88598406,0.4125966,0.117004095
1764767997.1170886,-5.08158,0.7019599999999999,0.09156,-0.88598406,0.4125966,0.117004095
1764767997.1170886,-5.08158,0.7019599999999999,0.09156,-0.88598406,0.4125966,0.117004095
1764767997.1170886,-5.08158,0.7019599999999999,0.09156,-0.88598406,0.4125966,0.117004095
1764767997.1170886,-5.08158,0.7019599999999999,0.09156,-0.88598406,0.4125966,0.117004095
1764767997.1170886,-5.08158,0.7019599999999999,0.09156,-0.88598406,0.4125966,0.117004095
1764767997.1170886,-5.12736,0.88508,0.01526,-0.88671648,0.411192795,0.11755341
1764767997.1170886,-5.12736,0.88508,0.01526,-0.88671648,0.411192795,0.11755341
1764767997.1170886,-5.12736,0.88508,0.01526,-0.88671648,0.411192795,0.11755341
1764767997.1170886,-5.12736,0.88508,0.01526,-0.88671648,0.411192795,0.11755341
1764767997.1170886,-5.12736,0.88508,0.01526,-0.88671648,0.411192795,0.11755341
1764767997.1186194,-5.12736,0.88508,0.01526,-0.88671648,0.411192795,0.11755341
1764767997.1613765,-5.12736,0.88508,0.01526,-0.88671648,0.411192795,0.11755341
1764767997.1613765,-5.12736,0.88508,0.01526,-0.88671648,0.411192795,0.11755341
1764767997.1613765,-5.12736,0.88508,0.01526,-0.88671648,0.411192795,0.11755341
1764767997.1613765,-5.12736,0.88508,0.01526,-0.88671648,0.411192795,0.11755341
1764767997.1613765,-4.7306,0.7019599999999999,-0.10682,-0.887754075,0.409483815,0.11743134
1764767997.1613765,-4.7306,0.7019599999999999,-0.10682,-0.887754075,0.409483815,0.11743134
1764767997.1613765,-4.7306,0.7019599999999999,-0.10682,-0.887754075,0.409483815,0.11743134
1764767997.1613765,-4.7306,0.7019599999999999,-0.10682,-0.887754075,0.409483815,0.11743134
1764767997.1613765,-4.7306,0.7019599999999999,-0.10682,-0.887754075,0.409483815,0.11743134
1764767997.1613765,-4.7306,0.7019599999999999,-0.10682,-0.887754075,0.409483815,0.11743134
1764767997.1613765,-4.7306,0.7019599999999999,-0.10682,-0.887754075,0.409483815,0.11743134
1764767997.1613765,-4.7306,0.7019599999999999,-0.10682,-0.887754075,0.409483815,0.11743134
1764767997.1613765,-4.7306,0.7019599999999999,-0.10682,-0.887754075,0.409483815,0.11743134
1764767997.1613765,-4.7306,0.7019599999999999,-0.10682,-0.887754075,0.409483815,0.11743134
1764767997.1613765,-4.91372,1.17502,-0.18312,-0.8891578800000001,0.409239675,0.11682099
1764767997.1613765,-4.91372,1.17502,-0.18312,-0.8891578800000001,0.409239675,0.11682099
1764767997.1613765,-4.91372,1.17502,-0.18312,-0.8891578800000001,0.409239675,0.11682099
1764767997.1613765,-4.91372,1.17502,-0.18312,-0.8891578800000001,0.409239675,0.11682099
1764767997.1613765,-4.91372,1.17502,-0.18312,-0.8891578800000001,0.409239675,0.11682099
1764767997.1613765,-4.91372,1.17502,-0.18312,-0.8891578800000001,0.409239675,0.11682099
1764767997.1613765,-4.91372,1.17502,-0.18312,-0.8891578800000001,0.409239675,0.11682099
1764767997.1613765,-4.91372,1.17502,-0.18312,-0.8891578800000001,0.409239675,0.11682099
1764767997.208141,-4.91372,1.17502,-0.18312,-0.8891578800000001,0.409239675,0.11682099
1764767997.208141,-4.91372,1.17502,-0.18312,-0.8891578800000001,0.409239675,0.11682099
1764767997.208141,-5.02054,1.11398,0.0762999999999999,-0.889585125,0.40978899,0.11645478
1764767997.208141,-5.02054,1.11398,0.0762999999999999,-0.889585125,0.40978899,0.11645478
1764767997.208141,-5.02054,1.11398,0.0762999999999999,-0.889585125,0.40978899,0.11645478
1764767997.208141,-5.02054,1.11398,0.0762999999999999,-0.889585125,0.40978899,0.11645478
1764767997.208141,-5.02054,1.11398,0.0762999999999999,-0.889585125,0.40978899,0.11645478
1764767997.208141,-5.02054,1.11398,0.0762999999999999,-0.889585125,0.40978899,0.11645478
1764767997.208141,-5.02054,1.11398,0.0762999999999999,-0.889585125,0.40978899,0.11645478
1764767997.208141,-5.02054,1.11398,0.0762999999999999,-0.889585125,0.40978899,0.11645478
1764767997.208141,-5.02054,1.11398,0.0762999999999999,-0.889585125,0.40978899,0.11645478
1764767997.208141,-5.02054,1.11398,0.0762999999999999,-0.889585125,0.40978899,0.11645478
1764767997.209267,-4.47118,1.17502,-0.19838,-0.88891374,0.409727955,0.116149605
1764767997.209267,-4.47118,1.17502,-0.19838,-0.88891374,0.409727955,0.116149605
1764767997.209267,-4.47118,1.17502,-0.19838,-0.88891374,0.409727955,0.116149605
1764767997.209267,-4.47118,1.17502,-0.19838,-0.88891374,0.409727955,0.116149605
1764767997.209267,-4.47118,1.17502,-0.19838,-0.88891374,0.409727955,0.116149605
1764767997.209267,-4.47118,1.17502,-0.19838,-0.88891374,0.409727955,0.116149605
1764767997.209267,-4.47118,1.17502,-0.19838,-0.88891374,0.409727955,0.116149605
1764767997.209267,-4.47118,1.17502,-0.19838,-0.88891374,0.409727955,0.116149605
1764767997.209267,-4.47118,1.17502,-0.19838,-0.88891374,0.409727955,0.116149605
1764767997.209267,-4.47118,1.17502,-0.19838,-0.88891374,0.409727955,0.116149605
1764767997.209267,-4.1965,1.2971,0.09156,-0.88903581,0.40869036,0.11645478
1764767997.209267,-4.1965,1.2971,0.09156,-0.88903581,0.40869036,0.11645478
1764767997.2567132,-4.1965,1.2971,0.09156,-0.88903581,0.40869036,0.11645478
1764767997.2567132,-4.1965,1.2971,0.09156,-0.88903581,0.40869036,0.11645478
1764767997.2567132,-4.1965,1.2971,0.09156,-0.88903581,0.40869036,0.11645478
1764767997.2567132,-4.1965,1.2971,0.09156,-0.88903581,0.40869036,0.11645478
1764767997.2567132,-4.1965,1.2971,0.09156,-0.88903581,0.40869036,0.11645478
1764767997.2567132,-4.1965,1.2971,0.09156,-0.88903581,0.40869036,0.11645478
1764767997.2567132,-4.1965,1.2971,0.09156,-0.88903581,0.40869036,0.11645478
1764767997.2567132,-4.1965,1.2971,0.09156,-0.88903581,0.40869036,0.11645478
1764767997.2567132,-4.63904,1.19028,-0.21364,-0.888486495,0.408507255,0.116759955
1764767997.2567132,-4.63904,1.19028,-0.21364,-0.888486495,0.408507255,0.116759955
1764767997.2567132,-4.63904,1.19028,-0.21364,-0.888486495,0.408507255,0.116759955
1764767997.2567132,-4.63904,1.19028,-0.21364,-0.888486495,0.408507255,0.116759955
1764767997.2567132,-4.63904,1.19028,-0.21364,-0.888486495,0.408507255,0.116759955
1764767997.2567132,-4.63904,1.19028,-0.21364,-0.888486495,0.408507255,0.116759955
1764767997.2567132,-4.63904,1.19028,-0.21364,-0.888486495,0.408507255,0.116759955
1764767997.2567132,-4.63904,1.19028,-0.21364,-0.888486495,0.408507255,0.116759955
1764767997.2567132,-4.63904,1.19028,-0.21364,-0.888486495,0.408507255,0.116759955
1764767997.2567132,-4.63904,1.19028,-0.21364,-0.888486495,0.408507255,0.116759955
1764767997.2567132,-4.25754,1.25132,0.01526,-0.88830339,0.408629325,0.116149605
1764767997.2567132,-4.25754,1.25132,0.01526,-0.88830339,0.408629325,0.116149605
1764767997.2567132,-4.25754,1.25132,0.01526,-0.88830339,0.408629325,0.116149605
1764767997.2567132,-4.25754,1.25132,0.01526,-0.88830339,0.408629325,0.116149605
1764767997.2567132,-4.25754,1.25132,0.01526,-0.88830339,0.408629325,0.116149605
1764767997.2567132,-4.25754,1.25132,0.01526,-0.88830339,0.408629325,0.116149605
1764767997.303162,-4.25754,1.25132,0.01526,-0.88830339,0.408629325,0.116149605
1764767997.303162,-4.25754,1.25132,0.01526,-0.88830339,0.408629325,0.116149605
1764767997.303162,-4.25754,1.25132,0.01526,-0.88830339,0.408629325,0.116149605
1764767997.303162,-4.25754,1.25132,0.01526,-0.88830339,0.408629325,0.116149605
1764767997.303162,-3.98286,1.31236,0.36624,-0.8891578800000001,0.40820208,0.11645478
1764767997.303162,-3.98286,1.31236,0.36624,-0.8891578800000001,0.40820208,0.11645478
1764767997.303162,-3.98286,1.31236,0.36624,-0.8891578800000001,0.40820208,0.11645478
1764767997.303162,-3.98286,1.31236,0.36624,-0.8891578800000001,0.40820208,0.11645478
1764767997.303162,-3.98286,1.31236,0.36624,-0.8891578800000001,0.40820208,0.11645478
1764767997.303162,-3.98286,1.31236,0.36624,-0.8891578800000001,0.40820208,0.11645478
1764767997.303162,-3.98286,1.31236,0.36624,-0.8891578800000001,0.40820208,0.11645478
1764767997.303162,-3.98286,1.31236,0.36624,-0.8891578800000001,0.40820208,0.11645478
1764767997.303162,-3.98286,1.31236,0.36624,-0.8891578800000001,0.40820208,0.11645478
1764767997.303162,-3.98286,1.31236,0.36624,-0.8891578800000001,0.40820208,0.11645478
1764767997.303162,-4.74586,1.15976,0.04578,-0.889218915,0.40844622,0.116271675
1764767997.303162,-4.74586,1.15976,0.04578,-0.889218915,0.40844622,0.116271675
1764767997.303162,-4.74586,1.15976,0.04578,-0.889218915,0.40844622,0.116271675
1764767997.303162,-4.74586,1.15976,0.04578,-0.889218915,0.40844622,0.116271675
1764767997.303162,-4.74586,1.15976,0.04578,-0.889218915,0.40844622,0.116271675
1764767997.303162,-4.74586,1.15976,0.04578,-0.889218915,0.40844622,0.116271675
1764767997.303162,-4.74586,1.15976,0.04578,-0.889218915,0.40844622,0.116271675
1764767997.303162,-4.74586,1.15976,0.04578,-0.889218915,0.40844622,0.116271675
1764767997.349955,-4.74586,1.15976,0.04578,-0.889218915,0.40844622,0.116271675
1764767997.349955,-4.74586,1.15976,0.04578,-0.889218915,0.40844622,0.116271675
1764767997.349955,-4.22702,1.526,-0.2289,-0.887998215,0.40905657,0.11657685
1764767997.349955,-4.22702,1.526,-0.2289,-0.887998215,0.40905657,0.11657685
1764767997.349955,-4.22702,1.526,-0.2289,-0.887998215,0.40905657,0.11657685
1764767997.349955,-4.22702,1.526,-0.2289,-0.887998215,0.40905657,0.11657685
1764767997.349955,-4.22702,1.526,-0.2289,-0.887998215,0.40905657,0.11657685
1764767997.349955,-4.22702,1.526,-0.2289,-0.887998215,0.40905657,0.11657685
1764767997.349955,-4.22702,1.526,-0.2289,-0.887998215,0.40905657,0.11657685
1764767997.349955,-4.22702,1.526,-0.2289,-0.887998215,0.40905657,0.11657685
1764767997.349955,-4.22702,1.526,-0.2289,-0.887998215,0.40905657,0.11657685
1764767997.349955,-4.22702,1.526,-0.2289,-0.887998215,0.40905657,0.11657685
1764767997.349955,-4.36436,1.58704,-0.18312,-0.887998215,0.40954485,0.116271675
1764767997.349955,-4.36436,1.58704,-0.18312,-0.887998215,0.40954485,0.116271675
1764767997.349955,-4.36436,1.58704,-0.18312,-0.887998215,0.40954485,0.116271675
1764767997.349955,-4.36436,1.58704,-0.18312,-0.887998215,0.40954485,0.116271675
1764767997.349955,-4.36436,1.58704,-0.18312,-0.887998215,0.40954485,0.116271675
1764767997.349955,-4.36436,1.58704,-0.18312,-0.887998215,0.40954485,0.116271675
1764767997.349955,-4.36436,1.58704,-0.18312,-0.887998215,0.40954485,0.116271675
1764767997.349955,-4.36436,1.58704,-0.18312,-0.887998215,0.40954485,0.116271675
1764767997.35151,-4.36436,1.58704,-0.18312,-0.887998215,0.40954485,0.116271675
1764767997.35151,-4.36436,1.58704,-0.18312,-0.887998215,0.40954485,0.116271675
1764767997.3932796,-4.51696,1.73964,-0.10682,-0.888730635,0.409727955,0.115783395
1764767997.3932796,-4.51696,1.73964,-0.10682,-0.888730635,0.409727955,0.115783395
1764767997.3932796,-4.51696,1.73964,-0.10682,-0.888730635,0.409727955,0.115783395
1764767997.3932796,-4.51696,1.73964,-0.10682,-0.888730635,0.409727955,0.115783395
1764767997.3932796,-4.51696,1.73964,-0.10682,-0.888730635,0.409727955,0.115783395
1764767997.3932796,-4.51696,1.73964,-0.10682,-0.888730635,0.409727955,0.115783395
1764767997.3932796,-4.51696,1.73964,-0.10682,-0.888730635,0.409727955,0.115783395
1764767997.3932796,-4.51696,1.73964,-0.10682,-0.888730635,0.409727955,0.115783395
1764767997.3932796,-4.51696,1.73964,-0.10682,-0.888730635,0.409727955,0.115783395
1764767997.3932796,-4.51696,1.73964,-0.10682,-0.888730635,0.409727955,0.115783395
1764767997.3932796,-4.852679999999999,1.8312,-0.10682,-0.88940202,0.40930071,0.11645478
1764767997.3932796,-4.852679999999999,1.8312,-0.10682,-0.88940202,0.40930071,0.11645478
1764767997.3932796,-4.852679999999999,1.8312,-0.10682,-0.88940202,0.40930071,0.11645478
1764767997.3932796,-4.852679999999999,1.8312,-0.10682,-0.88940202,0.40930071,0.11645478
1764767997.3932796,-4.852679999999999,1.8312,-0.10682,-0.88940202,0.40930071,0.11645478
1764767997.3932796,-4.852679999999999,1.8312,-0.10682,-0.88940202,0.40930071,0.11645478
1764767997.3932796,-4.852679999999999,1.8312,-0.10682,-0.88940202,0.40930071,0.11645478
1764767997.3932796,-4.852679999999999,1.8312,-0.10682,-0.88940202,0.40930071,0.11645478
1764767997.3932796,-4.852679999999999,1.8312,-0.10682,-0.88940202,0.40930071,0.11645478
1764767997.3932796,-4.852679999999999,1.8312,-0.10682,-0.88940202,0.40930071,0.11645478
1764767997.394591,-4.70008,1.73964,-0.48832,-0.8897071950000001,0.40905657,0.11621064
1764767997.394591,-4.70008,1.73964,-0.48832,-0.8897071950000001,0.40905657,0.11621064
1764767997.394591,-4.70008,1.73964,-0.48832,-0.8897071950000001,0.40905657,0.11621064
1764767997.394591,-4.70008,1.73964,-0.48832,-0.8897071950000001,0.40905657,0.11621064
1764767997.4405496,-4.70008,1.73964,-0.48832,-0.8897071950000001,0.40905657,0.11621064
1764767997.4405496,-4.70008,1.73964,-0.48832,-0.8897071950000001,0.40905657,0.11621064
1764767997.4405496,-4.70008,1.73964,-0.48832,-0.8897071950000001,0.40905657,0.11621064
1764767997.4405496,-4.70008,1.73964,-0.48832,-0.8897071950000001,0.40905657,0.11621064
1764767997.4405496,-4.70008,1.73964,-0.48832,-0.8897071950000001,0.40905657,0.11621064
1764767997.4405496,-4.70008,1.73964,-0.48832,-0.8897071950000001,0.40905657,0.11621064
1764767997.4405496,-4.22702,1.84646,-0.1525999999999999,-0.89001237,0.40917864,0.1159665
1764767997.4405496,-4.22702,1.84646,-0.1525999999999999,-0.89001237,0.40917864,0.1159665
1764767997.4405496,-4.22702,1.84646,-0.1525999999999999,-0.89001237,0.40917864,0.1159665
1764767997.4405496,-4.22702,1.84646,-0.1525999999999999,-0.89001237,0.40917864,0.1159665
1764767997.4405496,-4.22702,1.84646,-0.1525999999999999,-0.89001237,0.40917864,0.1159665
1764767997.4405496,-4.22702,1.84646,-0.1525999999999999,-0.89001237,0.40917864,0.1159665
1764767997.4405496,-4.22702,1.84646,-0.1525999999999999,-0.89001237,0.40917864,0.1159665
1764767997.4405496,-4.22702,1.84646,-0.1525999999999999,-0.89001237,0.40917864,0.1159665
1764767997.4405496,-4.22702,1.84646,-0.1525999999999999,-0.89001237,0.40917864,0.1159665
1764767997.4405496,-4.22702,1.84646,-0.1525999999999999,-0.89001237,0.40917864,0.1159665
1764767997.4405496,-5.096839999999999,1.46496,-0.6103999999999999,-0.89037858,0.410582445,0.116637885
1764767997.4405496,-5.096839999999999,1.46496,-0.6103999999999999,-0.89037858,0.410582445,0.116637885
1764767997.4405496,-5.096839999999999,1.46496,-0.6103999999999999,-0.89037858,0.410582445,0.116637885
1764767997.4405496,-5.096839999999999,1.46496,-0.6103999999999999,-0.89037858,0.410582445,0.116637885
