Timestamp,GyroX,GyroY,GyroZ,AccX,AccY,AccZ
1764767136.722997,-3.29616,2.96044,3.3572,0.984067305,0.037780665,0.076965135
1764767136.722997,-3.29616,2.96044,3.3572,0.984067305,0.037780665,0.076965135
1764767136.722997,-3.29616,2.96044,3.3572,0.984067305,0.037780665,0.076965135
1764767136.7235038,-3.29616,2.96044,3.3572,0.984067305,0.037780665,0.076965135
1764767136.7235038,-3.29616,2.96044,3.3572,0.984067305,0.037780665,0.076965135
1764767136.7235038,-3.29616,2.96044,3.3572,0.984067305,0.037780665,0.076965135
1764767136.7235038,-3.29616,2.96044,3.3572,0.984067305,0.037780665,0.076965135
1764767136.7235038,-3.29616,2.96044,3.3572,0.984067305,0.037780665,0.076965135
1764767136.7235038,-3.29616,2.96044,3.3572,0.984067305,0.037780665,0.076965135
1764767136.7235038,-3.7387,2.22796,3.49454,0.98193108,0.03735342,0.07739238
1764767136.7235038,-3.7387,2.22796,3.49454,0.98193108,0.03735342,0.07739238
1764767136.7235038,-3.7387,2.22796,3.49454,0.98193108,0.03735342,0.07739238
1764767136.7235038,-3.7387,2.22796,3.49454,0.98193108,0.03735342,0.07739238
1764767136.7235038,-3.7387,2.22796,3.49454,0.98193108,0.03735342,0.07739238
1764767136.7235038,-3.7387,2.22796,3.49454,0.98193108,0.03735342,0.07739238
1764767136.7235038,-3.7387,2.22796,3.49454,0.98193108,0.03735342,0.07739238
1764767136.7235038,-3.7387,2.22796,3.49454,0.98193108,0.03735342,0.07739238
1764767136.7235038,-3.7387,2.22796,3.49454,0.98193108,0.03735342,0.07739238
1764767136.7235038,-3.7387,2.22796,3.49454,0.98193108,0.03735342,0.07739238
1764767136.7235038,-3.75396,2.35004,3.08252,0.981747975,0.035461335,0.078307905
1764767136.7235038,-3.75396,2.35004,3.08252,0.981747975,0.035461335,0.078307905
1764767136.7235038,-3.75396,2.35004,3.08252,0.981747975,0.035461335,0.078307905
1764767136.7235038,-3.75396,2.35004,3.08252,0.981747975,0.035461335,0.078307905
1764767136.7682374,-3.75396,2.35004,3.08252,0.981747975,0.035461335,0.078307905
1764767136.7682374,-3.75396,2.35004,3.08252,0.981747975,0.035461335,0.078307905
1764767136.7682374,-3.75396,2.35004,3.08252,0.981747975,0.035461335,0.078307905
1764767136.7682374,-3.75396,2.35004,3.08252,0.981747975,0.035461335,0.078307905
1764767136.7682374,-3.75396,2.35004,3.08252,0.981747975,0.035461335,0.078307905
1764767136.7682374,-3.75396,2.35004,3.08252,0.981747975,0.035461335,0.078307905
1764767136.7682374,-3.41824,2.02958,2.35004,0.981381765,0.033752355,0.07800273
1764767136.7682374,-3.41824,2.02958,2.35004,0.981381765,0.033752355,0.07800273
1764767136.7682374,-3.41824,2.02958,2.35004,0.981381765,0.033752355,0.07800273
1764767136.7682374,-3.41824,2.02958,2.35004,0.981381765,0.033752355,0.07800273
1764767136.7682374,-3.41824,2.02958,2.35004,0.981381765,0.033752355,0.07800273
1764767136.7682374,-3.41824,2.02958,2.35004,0.981381765,0.033752355,0.07800273
1764767136.7682374,-3.41824,2.02958,2.35004,0.981381765,0.033752355,0.07800273
1764767136.7682374,-3.41824,2.02958,2.35004,0.981381765,0.033752355,0.07800273
1764767136.7682374,-3.41824,2.02958,2.35004,0.981381765,0.033752355,0.07800273
1764767136.7682374,-3.41824,2.02958,2.35004,0.981381765,0.033752355,0.07800273
1764767136.7682374,-2.25848,1.78542,1.92276,0.98351799,0.03186027,0.07873515
1764767136.7682374,-2.25848,1.78542,1.92276,0.98351799,0.03186027,0.07873515
1764767136.7682374,-2.25848,1.78542,1.92276,0.98351799,0.03186027,0.07873515
1764767136.7682374,-2.25848,1.78542,1.92276,0.98351799,0.03186027,0.07873515
1764767136.7682374,-2.25848,1.78542,1.92276,0.98351799,0.03186027,0.07873515
1764767136.7682374,-2.25848,1.78542,1.92276,0.98351799,0.03186027,0.07873515
1764767136.8155844,-2.25848,1.78542,1.92276,0.98351799,0.03186027,0.07873515
1764767136.8155844,-2.25848,1.78542,1.92276,0.98351799,0.03186027,0.07873515
1764767136.8155844,-2.25848,1.78542,1.92276,0.98351799,0.03186027,0.07873515
1764767136.8155844,-2.25848,1.78542,1.92276,0.98351799,0.03186027,0.07873515
1764767136.8155844,-1.55652,2.65524,1.49548,0.98498283,0.03149406,0.078674115
1764767136.8155844,-1.55652,2.65524,1.49548,0.98498283,0.03149406,0.078674115
1764767136.8155844,-1.55652,2.65524,1.49548,0.98498283,0.03149406,0.078674115
1764767136.8155844,-1.55652,2.65524,1.49548,0.98498283,0.03149406,0.078674115
1764767136.8155844,-1.55652,2.65524,1.49548,0.98498283,0.03149406,0.078674115
1764767136.8155844,-1.55652,2.65524,1.49548,0.98498283,0.03149406,0.078674115
1764767136.8155844,-1.55652,2.65524,1.49548,0.98498283,0.03149406,0.078674115
1764767136.8155844,-1.55652,2.65524,1.49548,0.98498283,0.03149406,0.078674115
1764767136.8155844,-1.55652,2.65524,1.49548,0.98498283,0.03149406,0.078674115
1764767136.8155844,-1.55652,2.65524,1.49548,0.98498283,0.03149406,0.078674115
1764767136.8155844,-1.35814,1.72438,0.93086,0.983090745,0.035217195,0.07678203
1764767136.8155844,-1.35814,1.72438,0.93086,0.983090745,0.035217195,0.07678203
1764767136.8155844,-1.35814,1.72438,0.93086,0.983090745,0.035217195,0.07678203
1764767136.8155844,-1.35814,1.72438,0.93086,0.983090745,0.035217195,0.07678203
1764767136.8155844,-1.35814,1.72438,0.93086,0.983090745,0.035217195,0.07678203
1764767136.8155844,-1.35814,1.72438,0.93086,0.983090745,0.035217195,0.07678203
1764767136.8155844,-1.35814,1.72438,0.93086,0.983090745,0.035217195,0.07678203
1764767136.8155844,-1.35814,1.72438,0.93086,0.983090745,0.035217195,0.07678203
1764767136.8162284,-1.35814,1.72438,0.93086,0.983090745,0.035217195,0.07678203
1764767136.8162284,-1.35814,1.72438,0.93086,0.983090745,0.035217195,0.07678203
1764767136.8625426,-1.38866,2.92992,1.87698,0.98693595,0.03723135,0.077453415
1764767136.8625426,-1.38866,2.92992,1.87698,0.98693595,0.03723135,0.077453415
1764767136.8625426,-1.38866,2.92992,1.87698,0.98693595,0.03723135,0.077453415
1764767136.8625426,-1.38866,2.92992,1.87698,0.98693595,0.03723135,0.077453415
1764767136.8625426,-1.38866,2.92992,1.87698,0.98693595,0.03723135,0.077453415
1764767136.8625426,-1.38866,2.92992,1.87698,0.98693595,0.03723135,0.077453415
1764767136.8625426,-1.38866,2.92992,1.87698,0.98693595,0.03723135,0.077453415
1764767136.8625426,-1.38866,2.92992,1.87698,0.98693595,0.03723135,0.077453415
1764767136.8625426,-1.38866,2.92992,1.87698,0.98693595,0.03723135,0.077453415
1764767136.8625426,-1.38866,2.92992,1.87698,0.98693595,0.03723135,0.077453415
1764767136.8625426,-2.02958,3.25038,3.3572,0.987241125,0.039489645,0.077331345
1764767136.8625426,-2.02958,3.25038,3.3572,0.987241125,0.039489645,0.077331345
1764767136.8625426,-2.02958,3.25038,3.3572,0.987241125,0.039489645,0.077331345
1764767136.8625426,-2.02958,3.25038,3.3572,0.987241125,0.039489645,0.077331345
1764767136.863541,-2.02958,3.25038,3.3572,0.987241125,0.039489645,0.077331345
1764767136.863541,-2.02958,3.25038,3.3572,0.987241125,0.039489645,0.077331345
1764767136.863541,-2.02958,3.25038,3.3572,0.987241125,0.039489645,0.077331345
1764767136.863541,-2.02958,3.25038,3.3572,0.987241125,0.039489645,0.077331345
1764767136.863541,-2.02958,3.25038,3.3572,0.987241125,0.039489645,0.077331345
1764767136.863541,-2.02958,3.25038,3.3572,0.987241125,0.039489645,0.077331345
1764767136.863541,-2.96044,3.2046,4.51696,0.986142495,0.04003896,0.07751445
1764767136.863541,-2.96044,3.2046,4.51696,0.986142495,0.04003896,0.07751445
1764767136.9058096,-2.96044,3.2046,4.51696,0.986142495,0.04003896,0.07751445
1764767136.9058096,-2.96044,3.2046,4.51696,0.986142495,0.04003896,0.07751445
1764767136.9058096,-2.96044,3.2046,4.51696,0.986142495,0.04003896,0.07751445
1764767136.9058096,-2.96044,3.2046,4.51696,0.986142495,0.04003896,0.07751445
1764767136.9058096,-2.96044,3.2046,4.51696,0.986142495,0.04003896,0.07751445
1764767136.9058096,-2.96044,3.2046,4.51696,0.986142495,0.04003896,0.07751445
1764767136.9058096,-2.96044,3.2046,4.51696,0.986142495,0.04003896,0.07751445
1764767136.9058096,-2.96044,3.2046,4.51696,0.986142495,0.04003896,0.07751445
1764767136.9058096,-3.60136,2.7468,5.98192,0.984921795,0.036559965,0.076598925
1764767136.9058096,-3.60136,2.7468,5.98192,0.984921795,0.036559965,0.076598925
1764767136.9058096,-3.60136,2.7468,5.98192,0.984921795,0.036559965,0.076598925
1764767136.9072113,-3.60136,2.7468,5.98192,0.984921795,0.036559965,0.076598925
1764767136.9072113,-3.60136,2.7468,5.98192,0.984921795,0.036559965,0.076598925
1764767136.9072113,-3.60136,2.7468,5.98192,0.984921795,0.036559965,0.076598925
1764767136.9072113,-3.60136,2.7468,5.98192,0.984921795,0.036559965,0.076598925
1764767136.9072113,-3.60136,2.7468,5.98192,0.984921795,0.036559965,0.076598925
1764767136.9072113,-3.60136,2.7468,5.98192,0.984921795,0.036559965,0.076598925
1764767136.9072113,-3.60136,2.7468,5.98192,0.984921795,0.036559965,0.076598925
1764767136.9072113,-3.052,2.45686,5.93614,0.98534904,0.032287515,0.07678203
1764767136.9072113,-3.052,2.45686,5.93614,0.98534904,0.032287515,0.07678203
1764767136.9072113,-3.052,2.45686,5.93614,0.98534904,0.032287515,0.07678203
1764767136.907718,-3.052,2.45686,5.93614,0.98534904,0.032287515,0.07678203
1764767136.907718,-3.052,2.45686,5.93614,0.98534904,0.032287515,0.07678203
1764767136.907718,-3.052,2.45686,5.93614,0.98534904,0.032287515,0.07678203
1764767136.9542348,-3.052,2.45686,5.93614,0.98534904,0.032287515,0.07678203
1764767136.9542348,-3.052,2.45686,5.93614,0.98534904,0.032287515,0.07678203
1764767136.9542348,-3.052,2.45686,5.93614,0.98534904,0.032287515,0.07678203
1764767136.9542348,-3.052,2.45686,5.93614,0.98534904,0.032287515,0.07678203
1764767136.9542348,-2.01432,1.70912,6.28712,0.9838842,0.02734368,0.078307905
1764767136.9542348,-2.01432,1.70912,6.28712,0.9838842,0.02734368,0.078307905
1764767136.9542348,-2.01432,1.70912,6.28712,0.9838842,0.02734368,0.078307905
1764767136.9542348,-2.01432,1.70912,6.28712,0.9838842,0.02734368,0.078307905
1764767136.9542348,-2.01432,1.70912,6.28712,0.9838842,0.02734368,0.078307905
1764767136.9542348,-2.01432,1.70912,6.28712,0.9838842,0.02734368,0.078307905
1764767136.9542348,-2.01432,1.70912,6.28712,0.9838842,0.02734368,0.078307905
1764767136.9542348,-2.01432,1.70912,6.28712,0.9838842,0.02734368,0.078307905
1764767136.9542348,-2.01432,1.70912,6.28712,0.9838842,0.02734368,0.078307905
1764767136.9542348,-2.01432,1.70912,6.28712,0.9838842,0.02734368,0.078307905
1764767136.9542348,-0.763,1.81594,5.46308,0.98315178,0.021911565,0.078674115
1764767136.9542348,-0.763,1.81594,5.46308,0.98315178,0.021911565,0.078674115
1764767136.9542348,-0.763,1.81594,5.46308,0.98315178,0.021911565,0.078674115
1764767136.9542348,-0.763,1.81594,5.46308,0.98315178,0.021911565,0.078674115
1764767136.9547594,-0.763,1.81594,5.46308,0.98315178,0.021911565,0.078674115
1764767136.9547594,-0.763,1.81594,5.46308,0.98315178,0.021911565,0.078674115
1764767136.9547594,-0.763,1.81594,5.46308,0.98315178,0.021911565,0.078674115
1764767136.9547594,-0.763,1.81594,5.46308,0.98315178,0.021911565,0.078674115
1764767136.9547594,-0.763,1.81594,5.46308,0.98315178,0.021911565,0.078674115
1764767136.9547594,-0.763,1.81594,5.46308,0.98315178,0.021911565,0.078674115
1764767137.0003006,0.44254,1.73964,3.7387,0.983334885,0.017883255,0.079772745
1764767137.0003006,0.44254,1.73964,3.7387,0.983334885,0.017883255,0.079772745
1764767137.0003006,0.44254,1.73964,3.7387,0.983334885,0.017883255,0.079772745
1764767137.0003006,0.44254,1.73964,3.7387,0.983334885,0.017883255,0.079772745
1764767137.0003006,0.44254,1.73964,3.7387,0.983334885,0.017883255,0.079772745
1764767137.0003006,0.44254,1.73964,3.7387,0.983334885,0.017883255,0.079772745
1764767137.0003006,0.44254,1.73964,3.7387,0.983334885,0.017883255,0.079772745
1764767137.0003006,0.44254,1.73964,3.7387,0.983334885,0.017883255,0.079772745
1764767137.0003006,0.44254,1.73964,3.7387,0.983334885,0.017883255,0.079772745
1764767137.0003006,0.44254,1.73964,3.7387,0.983334885,0.017883255,0.079772745
1764767137.0003006,0.85456,1.00716,1.70912,0.983090745,0.018005325,0.080138955
1764767137.0003006,0.85456,1.00716,1.70912,0.983090745,0.018005325,0.080138955
1764767137.0003006,0.85456,1.00716,1.70912,0.983090745,0.018005325,0.080138955
1764767137.0003006,0.85456,1.00716,1.70912,0.983090745,0.018005325,0.080138955
1764767137.0003006,0.85456,1.00716,1.70912,0.983090745,0.018005325,0.080138955
1764767137.0003006,0.85456,1.00716,1.70912,0.983090745,0.018005325,0.080138955
1764767137.0003006,0.85456,1.00716,1.70912,0.983090745,0.018005325,0.080138955
1764767137.0003006,0.85456,1.00716,1.70912,0.983090745,0.018005325,0.080138955
1764767137.0003006,0.85456,1.00716,1.70912,0.983090745,0.018005325,0.080138955
1764767137.0003006,0.85456,1.00716,1.70912,0.983090745,0.018005325,0.080138955
1764767137.0003006,0.41202,0.12208,1.05294,0.98339592,0.02172846,0.08081034
1764767137.0003006,0.41202,0.12208,1.05294,0.98339592,0.02172846,0.08081034
1764767137.0003006,0.41202,0.12208,1.05294,0.98339592,0.02172846,0.08081034
1764767137.0003006,0.41202,0.12208,1.05294,0.98339592,0.02172846,0.08081034
1764767137.0492213,0.41202,0.12208,1.05294,0.98339592,0.02172846,0.08081034
1764767137.0492213,0.41202,0.12208,1.05294,0.98339592,0.02172846,0.08081034
1764767137.0492213,0.41202,0.12208,1.05294,0.98339592,0.02172846,0.08081034
1764767137.0492213,0.41202,0.12208,1.05294,0.98339592,0.02172846,0.08081034
1764767137.0492213,0.41202,0.12208,1.05294,0.98339592,0.02172846,0.08081034
1764767137.0492213,0.41202,0.12208,1.05294,0.98339592,0.02172846,0.08081034
1764767137.0492213,-0.12208,-0.06104,1.25132,0.98205315,0.02380365,0.080505165
1764767137.0492213,-0.12208,-0.06104,1.25132,0.98205315,0.02380365,0.080505165
1764767137.0492213,-0.12208,-0.06104,1.25132,0.98205315,0.02380365,0.080505165
1764767137.0497277,-0.12208,-0.06104,1.25132,0.98205315,0.02380365,0.080505165
1764767137.0497277,-0.12208,-0.06104,1.25132,0.98205315,0.02380365,0.080505165
1764767137.0497277,-0.12208,-0.06104,1.25132,0.98205315,0.02380365,0.080505165
1764767137.0497277,-0.12208,-0.06104,1.25132,0.98205315,0.02380365,0.080505165
1764767137.0497277,-0.12208,-0.06104,1.25132,0.98205315,0.02380365,0.080505165
1764767137.0497277,-0.12208,-0.06104,1.25132,0.98205315,0.02380365,0.080505165
1764767137.0497277,-0.12208,-0.06104,1.25132,0.98205315,0.02380365,0.080505165
1764767137.0497277,-1.69386,-0.7019599999999999,2.04484,0.981015555,0.02673333,0.080016885
1764767137.0497277,-1.69386,-0.7019599999999999,2.04484,0.981015555,0.02673333,0.080016885
1764767137.0497277,-1.69386,-0.7019599999999999,2.04484,0.981015555,0.02673333,0.080016885
1764767137.0497277,-1.69386,-0.7019599999999999,2.04484,0.981015555,0.02673333,0.080016885
1764767137.0497277,-1.69386,-0.7019599999999999,2.04484,0.981015555,0.02673333,0.080016885
1764767137.0497277,-1.69386,-0.7019599999999999,2.04484,0.981015555,0.02673333,0.080016885
1764767137.0945506,-1.69386,-0.7019599999999999,2.04484,0.981015555,0.02673333,0.080016885
1764767137.0945506,-1.69386,-0.7019599999999999,2.04484,0.981015555,0.02673333,0.080016885
1764767137.0945506,-1.69386,-0.7019599999999999,2.04484,0.981015555,0.02673333,0.080016885
1764767137.0945506,-1.69386,-0.7019599999999999,2.04484,0.981015555,0.02673333,0.080016885
1764767137.0945506,-2.85362,-1.6022999999999998,2.22796,0.9814428,0.030334395,0.078796185
1764767137.0945506,-2.85362,-1.6022999999999998,2.22796,0.9814428,0.030334395,0.078796185
1764767137.0945506,-2.85362,-1.6022999999999998,2.22796,0.9814428,0.030334395,0.078796185
1764767137.0945506,-2.85362,-1.6022999999999998,2.22796,0.9814428,0.030334395,0.078796185
1764767137.0945506,-2.85362,-1.6022999999999998,2.22796,0.9814428,0.030334395,0.078796185
1764767137.0945506,-2.85362,-1.6022999999999998,2.22796,0.9814428,0.030334395,0.078796185
1764767137.0945506,-2.85362,-1.6022999999999998,2.22796,0.9814428,0.030334395,0.078796185
1764767137.0945506,-2.85362,-1.6022999999999998,2.22796,0.9814428,0.030334395,0.078796185
1764767137.0945506,-2.85362,-1.6022999999999998,2.22796,0.9814428,0.030334395,0.078796185
1764767137.0945506,-2.85362,-1.6022999999999998,2.22796,0.9814428,0.030334395,0.078796185
1764767137.0945506,-4.25754,-2.04484,3.29616,0.98400627,0.032775795,0.078429975
1764767137.0945506,-4.25754,-2.04484,3.29616,0.98400627,0.032775795,0.078429975
1764767137.0945506,-4.25754,-2.04484,3.29616,0.98400627,0.032775795,0.078429975
1764767137.0945506,-4.25754,-2.04484,3.29616,0.98400627,0.032775795,0.078429975
1764767137.0945506,-4.25754,-2.04484,3.29616,0.98400627,0.032775795,0.078429975
1764767137.0945506,-4.25754,-2.04484,3.29616,0.98400627,0.032775795,0.078429975
1764767137.0945506,-4.25754,-2.04484,3.29616,0.98400627,0.032775795,0.078429975
1764767137.0945506,-4.25754,-2.04484,3.29616,0.98400627,0.032775795,0.078429975
1764767137.0945506,-4.25754,-2.04484,3.29616,0.98400627,0.032775795,0.078429975
1764767137.0945506,-4.25754,-2.04484,3.29616,0.98400627,0.032775795,0.078429975
1764767137.1421976,-4.77638,-1.05294,4.059159999999999,0.98681388,0.03222648,0.07739238
1764767137.1421976,-4.77638,-1.05294,4.059159999999999,0.98681388,0.03222648,0.07739238
1764767137.1421976,-4.77638,-1.05294,4.059159999999999,0.98681388,0.03222648,0.07739238
1764767137.1421976,-4.77638,-1.05294,4.059159999999999,0.98681388,0.03222648,0.07739238
1764767137.1421976,-4.77638,-1.05294,4.059159999999999,0.98681388,0.03222648,0.07739238
1764767137.1421976,-4.77638,-1.05294,4.059159999999999,0.98681388,0.03222648,0.07739238
1764767137.1432111,-4.77638,-1.05294,4.059159999999999,0.98681388,0.03222648,0.07739238
1764767137.1432111,-4.77638,-1.05294,4.059159999999999,0.98681388,0.03222648,0.07739238
1764767137.1432111,-4.77638,-1.05294,4.059159999999999,0.98681388,0.03222648,0.07739238
1764767137.1432111,-4.77638,-1.05294,4.059159999999999,0.98681388,0.03222648,0.07739238
1764767137.1432111,-4.10494,-0.36624,4.66956,0.987851475,0.02966301,0.07617168
1764767137.1432111,-4.10494,-0.36624,4.66956,0.987851475,0.02966301,0.07617168
1764767137.1432111,-4.10494,-0.36624,4.66956,0.987851475,0.02966301,0.07617168
1764767137.1432111,-4.10494,-0.36624,4.66956,0.987851475,0.02966301,0.07617168
1764767137.1432111,-4.10494,-0.36624,4.66956,0.987851475,0.02966301,0.07617168
1764767137.1432111,-4.10494,-0.36624,4.66956,0.987851475,0.02966301,0.07617168
1764767137.1432111,-4.10494,-0.36624,4.66956,0.987851475,0.02966301,0.07617168
1764767137.1432111,-4.10494,-0.36624,4.66956,0.987851475,0.02966301,0.07617168
1764767137.1432111,-4.10494,-0.36624,4.66956,0.987851475,0.02966301,0.07617168
1764767137.1432111,-4.10494,-0.36624,4.66956,0.987851475,0.02966301,0.07617168
1764767137.1432111,-3.03674,0.42728,4.83742,0.98815665,0.02490228,0.075134085
1764767137.1432111,-3.03674,0.42728,4.83742,0.98815665,0.02490228,0.075134085
1764767137.1896012,-3.03674,0.42728,4.83742,0.98815665,0.02490228,0.075134085
1764767137.1896012,-3.03674,0.42728,4.83742,0.98815665,0.02490228,0.075134085
1764767137.1896012,-3.03674,0.42728,4.83742,0.98815665,0.02490228,0.075134085
1764767137.1896012,-3.03674,0.42728,4.83742,0.98815665,0.02490228,0.075134085
1764767137.1896012,-3.03674,0.42728,4.83742,0.98815665,0.02490228,0.075134085
1764767137.1896012,-3.03674,0.42728,4.83742,0.98815665,0.02490228,0.075134085
1764767137.1896012,-3.03674,0.42728,4.83742,0.98815665,0.02490228,0.075134085
1764767137.1896012,-3.03674,0.42728,4.83742,0.98815665,0.02490228,0.075134085
1764767137.1896012,-2.27374,0.77826,4.440659999999999,0.987119055,0.02246088,0.075134085
1764767137.1896012,-2.27374,0.77826,4.440659999999999,0.987119055,0.02246088,0.075134085
1764767137.1896012,-2.27374,0.77826,4.440659999999999,0.987119055,0.02246088,0.075134085
1764767137.1896012,-2.27374,0.77826,4.440659999999999,0.987119055,0.02246088,0.075134085
1764767137.1896012,-2.27374,0.77826,4.440659999999999,0.987119055,0.02246088,0.075134085
1764767137.1896012,-2.27374,0.77826,4.440659999999999,0.987119055,0.02246088,0.075134085
1764767137.1896012,-2.27374,0.77826,4.440659999999999,0.987119055,0.02246088,0.075134085
1764767137.1896012,-2.27374,0.77826,4.440659999999999,0.987119055,0.02246088,0.075134085
1764767137.1896012,-2.27374,0.77826,4.440659999999999,0.987119055,0.02246088,0.075134085
1764767137.1896012,-2.27374,0.77826,4.440659999999999,0.987119055,0.02246088,0.075134085
1764767137.1896012,-1.78542,0.54936,4.0439,0.986386635,0.01928706,0.07470684
1764767137.1896012,-1.78542,0.54936,4.0439,0.986386635,0.01928706,0.07470684
1764767137.1896012,-1.78542,0.54936,4.0439,0.986386635,0.01928706,0.07470684
1764767137.1896012,-1.78542,0.54936,4.0439,0.986386635,0.01928706,0.07470684
1764767137.1896012,-1.78542,0.54936,4.0439,0.986386635,0.01928706,0.07470684
1764767137.1896012,-1.78542,0.54936,4.0439,0.986386635,0.01928706,0.07470684
1764767137.1896012,-1.78542,0.54936,4.0439,0.986386635,0.01928706,0.07470684
1764767137.1896012,-1.78542,0.54936,4.0439,0.986386635,0.01928706,0.07470684
1764767137.23726,-1.78542,0.54936,4.0439,0.986386635,0.01928706,0.07470684
1764767137.23726,-1.78542,0.54936,4.0439,0.986386635,0.01928706,0.07470684
1764767137.23726,-1.48022,1.2055399999999998,4.1965,0.985898355,0.018127395,0.07434063
1764767137.23726,-1.48022,1.2055399999999998,4.1965,0.985898355,0.018127395,0.07434063
1764767137.23726,-1.48022,1.2055399999999998,4.1965,0.985898355,0.018127395,0.07434063
1764767137.23726,-1.48022,1.2055399999999998,4.1965,0.985898355,0.018127395,0.07434063
1764767137.23726,-1.48022,1.2055399999999998,4.1965,0.985898355,0.018127395,0.07434063
1764767137.23726,-1.48022,1.2055399999999998,4.1965,0.985898355,0.018127395,0.07434063
1764767137.23726,-1.48022,1.2055399999999998,4.1965,0.985898355,0.018127395,0.07434063
1764767137.23726,-1.48022,1.2055399999999998,4.1965,0.985898355,0.018127395,0.07434063
1764767137.23726,-1.48022,1.2055399999999998,4.1965,0.985898355,0.018127395,0.07434063
1764767137.23726,-1.48022,1.2055399999999998,4.1965,0.985898355,0.018127395,0.07434063
1764767137.23726,-1.25132,1.84646,4.0439,0.98595939,0.01794429,0.07385235
1764767137.23726,-1.25132,1.84646,4.0439,0.98595939,0.01794429,0.07385235
1764767137.23726,-1.25132,1.84646,4.0439,0.98595939,0.01794429,0.07385235
1764767137.23726,-1.25132,1.84646,4.0439,0.98595939,0.01794429,0.07385235
1764767137.23726,-1.25132,1.84646,4.0439,0.98595939,0.01794429,0.07385235
1764767137.23726,-1.25132,1.84646,4.0439,0.98595939,0.01794429,0.07385235
1764767137.23726,-1.25132,1.84646,4.0439,0.98595939,0.01794429,0.07385235
1764767137.23726,-1.25132,1.84646,4.0439,0.98595939,0.01794429,0.07385235
1764767137.23726,-1.25132,1.84646,4.0439,0.98595939,0.01794429,0.07385235
1764767137.23726,-1.25132,1.84646,4.0439,0.98595939,0.01794429,0.07385235
1764767137.2857358,-1.64808,1.86172,3.87604,0.98608146,0.018005325,0.073425105
1764767137.2857358,-1.64808,1.86172,3.87604,0.98608146,0.018005325,0.073425105
1764767137.2857358,-1.64808,1.86172,3.87604,0.98608146,0.018005325,0.073425105
1764767137.2857358,-1.64808,1.86172,3.87604,0.98608146,0.018005325,0.073425105
1764767137.2857358,-1.64808,1.86172,3.87604,0.98608146,0.018005325,0.073425105
1764767137.2857358,-1.64808,1.86172,3.87604,0.98608146,0.018005325,0.073425105
1764767137.2857358,-1.64808,1.86172,3.87604,0.98608146,0.018005325,0.073425105
1764767137.2857358,-1.64808,1.86172,3.87604,0.98608146,0.018005325,0.073425105
1764767137.2857358,-1.64808,1.86172,3.87604,0.98608146,0.018005325,0.073425105
1764767137.2857358,-1.64808,1.86172,3.87604,0.98608146,0.018005325,0.073425105
1764767137.2857358,-2.01432,1.51074,2.7468,0.986752845,0.02001948,0.073425105
1764767137.2857358,-2.01432,1.51074,2.7468,0.986752845,0.02001948,0.073425105
1764767137.2857358,-2.01432,1.51074,2.7468,0.986752845,0.02001948,0.073425105
1764767137.2857358,-2.01432,1.51074,2.7468,0.986752845,0.02001948,0.073425105
1764767137.2857358,-2.01432,1.51074,2.7468,0.986752845,0.02001948,0.073425105
1764767137.2857358,-2.01432,1.51074,2.7468,0.986752845,0.02001948,0.073425105
1764767137.2857358,-2.01432,1.51074,2.7468,0.986752845,0.02001948,0.073425105
1764767137.2857358,-2.01432,1.51074,2.7468,0.986752845,0.02001948,0.073425105
1764767137.2857358,-2.01432,1.51074,2.7468,0.986752845,0.02001948,0.073425105
1764767137.2857358,-2.01432,1.51074,2.7468,0.986752845,0.02001948,0.073425105
1764767137.2857358,-3.6624,1.23606,3.08252,0.98669181,0.021789495,0.07385235
1764767137.2857358,-3.6624,1.23606,3.08252,0.98669181,0.021789495,0.07385235
1764767137.2857358,-3.6624,1.23606,3.08252,0.98669181,0.021789495,0.07385235
1764767137.2857358,-3.6624,1.23606,3.08252,0.98669181,0.021789495,0.07385235
1764767137.3320894,-3.6624,1.23606,3.08252,0.98669181,0.021789495,0.07385235
1764767137.3320894,-3.6624,1.23606,3.08252,0.98669181,0.021789495,0.07385235
1764767137.3320894,-3.6624,1.23606,3.08252,0.98669181,0.021789495,0.07385235
1764767137.3320894,-3.6624,1.23606,3.08252,0.98669181,0.021789495,0.07385235
1764767137.3320894,-3.6624,1.23606,3.08252,0.98669181,0.021789495,0.07385235
1764767137.3320894,-3.6624,1.23606,3.08252,0.98669181,0.021789495,0.07385235
1764767137.3320894,-3.95234,0.9919,3.8913,0.98644767,0.02221674,0.074401665
1764767137.3320894,-3.95234,0.9919,3.8913,0.98644767,0.02221674,0.074401665
1764767137.3320894,-3.95234,0.9919,3.8913,0.98644767,0.02221674,0.074401665
1764767137.3320894,-3.95234,0.9919,3.8913,0.98644767,0.02221674,0.074401665
1764767137.3320894,-3.95234,0.9919,3.8913,0.98644767,0.02221674,0.074401665
1764767137.3320894,-3.95234,0.9919,3.8913,0.98644767,0.02221674,0.074401665
1764767137.3320894,-3.95234,0.9919,3.8913,0.98644767,0.02221674,0.074401665
1764767137.3320894,-3.95234,0.9919,3.8913,0.98644767,0.02221674,0.074401665
1764767137.3320894,-3.95234,0.9919,3.8913,0.98644767,0.02221674,0.074401665
1764767137.3320894,-3.95234,0.9919,3.8913,0.98644767,0.02221674,0.074401665
1764767137.3320894,-4.303319999999999,0.54936,4.02864,0.984677655,0.020324655,0.074889945
1764767137.3320894,-4.303319999999999,0.54936,4.02864,0.984677655,0.020324655,0.074889945
1764767137.3320894,-4.303319999999999,0.54936,4.02864,0.984677655,0.020324655,0.074889945
1764767137.3320894,-4.303319999999999,0.54936,4.02864,0.984677655,0.020324655,0.074889945
1764767137.3320894,-4.303319999999999,0.54936,4.02864,0.984677655,0.020324655,0.074889945
1764767137.3320894,-4.303319999999999,0.54936,4.02864,0.984677655,0.020324655,0.074889945
1764767137.3320894,-4.303319999999999,0.54936,4.02864,0.984677655,0.020324655,0.074889945
1764767137.3320894,-4.303319999999999,0.54936,4.02864,0.984677655,0.020324655,0.074889945
1764767137.3775897,-4.303319999999999,0.54936,4.02864,0.984677655,0.020324655,0.074889945
1764767137.3775897,-4.303319999999999,0.54936,4.02864,0.984677655,0.020324655,0.074889945
1764767137.3775897,-4.16598,0.54936,3.8913,0.982602465,0.01782222,0.075134085
1764767137.3775897,-4.16598,0.54936,3.8913,0.982602465,0.01782222,0.075134085
1764767137.3775897,-4.16598,0.54936,3.8913,0.982602465,0.01782222,0.075134085
1764767137.3789628,-4.16598,0.54936,3.8913,0.982602465,0.01782222,0.075134085
1764767137.3789628,-4.16598,0.54936,3.8913,0.982602465,0.01782222,0.075134085
1764767137.3789628,-4.16598,0.54936,3.8913,0.982602465,0.01782222,0.075134085
1764767137.3789628,-4.16598,0.54936,3.8913,0.982602465,0.01782222,0.075134085
1764767137.3789628,-4.16598,0.54936,3.8913,0.982602465,0.01782222,0.075134085
1764767137.3794706,-4.16598,0.54936,3.8913,0.982602465,0.01782222,0.075134085
1764767137.3794706,-4.16598,0.54936,3.8913,0.982602465,0.01782222,0.075134085
1764767137.3794706,-3.69292,0.54936,2.76206,0.98412834,0.015930135,0.074401665
1764767137.3794706,-3.69292,0.54936,2.76206,0.98412834,0.015930135,0.074401665
1764767137.380469,-3.69292,0.54936,2.76206,0.98412834,0.015930135,0.074401665
1764767137.380469,-3.69292,0.54936,2.76206,0.98412834,0.015930135,0.074401665
1764767137.380469,-3.69292,0.54936,2.76206,0.98412834,0.015930135,0.074401665
1764767137.380469,-3.69292,0.54936,2.76206,0.98412834,0.015930135,0.074401665
1764767137.380469,-3.69292,0.54936,2.76206,0.98412834,0.015930135,0.074401665
1764767137.380469,-3.69292,0.54936,2.76206,0.98412834,0.015930135,0.074401665
1764767137.380469,-3.69292,0.54936,2.76206,0.98412834,0.015930135,0.074401665
1764767137.380469,-3.69292,0.54936,2.76206,0.98412834,0.015930135,0.074401665
1764767137.380469,-2.9757,1.25132,1.8312,0.98669181,0.01452633,0.074523735
1764767137.380469,-2.9757,1.25132,1.8312,0.98669181,0.01452633,0.074523735
1764767137.423007,-2.9757,1.25132,1.8312,0.98669181,0.01452633,0.074523735
1764767137.4235413,-2.9757,1.25132,1.8312,0.98669181,0.01452633,0.074523735
1764767137.4235413,-2.9757,1.25132,1.8312,0.98669181,0.01452633,0.074523735
1764767137.4235413,-2.9757,1.25132,1.8312,0.98669181,0.01452633,0.074523735
1764767137.4235413,-2.9757,1.25132,1.8312,0.98669181,0.01452633,0.074523735
1764767137.4235413,-2.9757,1.25132,1.8312,0.98669181,0.01452633,0.074523735
1764767137.4245634,-2.9757,1.25132,1.8312,0.98669181,0.01452633,0.074523735
1764767137.4245634,-2.9757,1.25132,1.8312,0.98669181,0.01452633,0.074523735
1764767137.4245634,-2.45686,0.96138,1.05294,0.986508705,0.014221155,0.073547175
1764767137.4245634,-2.45686,0.96138,1.05294,0.986508705,0.014221155,0.073547175
1764767137.4245634,-2.45686,0.96138,1.05294,0.986508705,0.014221155,0.073547175
1764767137.4245634,-2.45686,0.96138,1.05294,0.986508705,0.014221155,0.073547175
1764767137.4245634,-2.45686,0.96138,1.05294,0.986508705,0.014221155,0.073547175
1764767137.4245634,-2.45686,0.96138,1.05294,0.986508705,0.014221155,0.073547175
1764767137.4245634,-2.45686,0.96138,1.05294,0.986508705,0.014221155,0.073547175
1764767137.4245634,-2.45686,0.96138,1.05294,0.986508705,0.014221155,0.073547175
1764767137.4245634,-2.45686,0.96138,1.05294,0.986508705,0.014221155,0.073547175
1764767137.425074,-2.45686,0.96138,1.05294,0.986508705,0.014221155,0.073547175
1764767137.425074,-2.09062,1.2208,0.44254,0.9863256,0.01416012,0.07336407
1764767137.425074,-2.09062,1.2208,0.44254,0.9863256,0.01416012,0.07336407
1764767137.425074,-2.09062,1.2208,0.44254,0.9863256,0.01416012,0.07336407
1764767137.4255931,-2.09062,1.2208,0.44254,0.9863256,0.01416012,0.07336407
1764767137.4719918,-2.09062,1.2208,0.44254,0.9863256,0.01416012,0.07336407
1764767137.4719918,-2.09062,1.2208,0.44254,0.9863256,0.01416012,0.07336407
1764767137.4719918,-2.09062,1.2208,0.44254,0.9863256,0.01416012,0.07336407
1764767137.4719918,-2.09062,1.2208,0.44254,0.9863256,0.01416012,0.07336407
1764767137.4719918,-2.09062,1.2208,0.44254,0.9863256,0.01416012,0.07336407
1764767137.4719918,-2.09062,1.2208,0.44254,0.9863256,0.01416012,0.07336407
1764767137.4719918,-1.77016,2.10588,-0.19838,0.986752845,0.01562496,0.073425105
1764767137.4719918,-1.77016,2.10588,-0.19838,0.986752845,0.01562496,0.073425105
1764767137.4719918,-1.77016,2.10588,-0.19838,0.986752845,0.01562496,0.073425105
1764767137.4733412,-1.77016,2.10588,-0.19838,0.986752845,0.01562496,0.073425105
1764767137.4733412,-1.77016,2.10588,-0.19838,0.986752845,0.01562496,0.073425105
1764767137.4733412,-1.77016,2.10588,-0.19838,0.986752845,0.01562496,0.073425105
1764767137.4733412,-1.77016,2.10588,-0.19838,0.986752845,0.01562496,0.073425105
1764767137.4733412,-1.77016,2.10588,-0.19838,0.986752845,0.01562496,0.073425105
1764767137.4733412,-1.77016,2.10588,-0.19838,0.986752845,0.01562496,0.073425105
1764767137.4733412,-1.77016,2.10588,-0.19838,0.986752845,0.01562496,0.073425105
1764767137.4733412,-1.9838,2.83836,0.39676,0.98766837,0.018371535,0.0744627
1764767137.4733412,-1.9838,2.83836,0.39676,0.98766837,0.018371535,0.0744627
1764767137.4733412,-1.9838,2.83836,0.39676,0.98766837,0.018371535,0.0744627
1764767137.4733412,-1.9838,2.83836,0.39676,0.98766837,0.018371535,0.0744627
1764767137.4733412,-1.9838,2.83836,0.39676,0.98766837,0.018371535,0.0744627
1764767137.4733412,-1.9838,2.83836,0.39676,0.98766837,0.018371535,0.0744627
1764767137.515254,-1.9838,2.83836,0.39676,0.98766837,0.018371535,0.0744627
1764767137.515254,-1.9838,2.83836,0.39676,0.98766837,0.018371535,0.0744627
1764767137.5162666,-1.9838,2.83836,0.39676,0.98766837,0.018371535,0.0744627
1764767137.5162666,-1.9838,2.83836,0.39676,0.98766837,0.018371535,0.0744627
1764767137.5162666,-2.4416,2.54842,1.1445,0.987241125,0.02148432,0.0756834
1764767137.5162666,-2.4416,2.54842,1.1445,0.987241125,0.02148432,0.0756834
1764767137.5162666,-2.4416,2.54842,1.1445,0.987241125,0.02148432,0.0756834
1764767137.5162666,-2.4416,2.54842,1.1445,0.987241125,0.02148432,0.0756834
1764767137.5162666,-2.4416,2.54842,1.1445,0.987241125,0.02148432,0.0756834
1764767137.5162666,-2.4416,2.54842,1.1445,0.987241125,0.02148432,0.0756834
1764767137.5162666,-2.4416,2.54842,1.1445,0.987241125,0.02148432,0.0756834
1764767137.5162666,-2.4416,2.54842,1.1445,0.987241125,0.02148432,0.0756834
1764767137.5172613,-2.4416,2.54842,1.1445,0.987241125,0.02148432,0.0756834
1764767137.5172613,-2.4416,2.54842,1.1445,0.987241125,0.02148432,0.0756834
1764767137.5172613,-2.62472,2.48738,2.0601,0.98620353,0.02270502,0.07629375
1764767137.5172613,-2.62472,2.48738,2.0601,0.98620353,0.02270502,0.07629375
1764767137.5172613,-2.62472,2.48738,2.0601,0.98620353,0.02270502,0.07629375
1764767137.5172613,-2.62472,2.48738,2.0601,0.98620353,0.02270502,0.07629375
1764767137.5172613,-2.62472,2.48738,2.0601,0.98620353,0.02270502,0.07629375
1764767137.5172613,-2.62472,2.48738,2.0601,0.98620353,0.02270502,0.07629375
1764767137.5172613,-2.62472,2.48738,2.0601,0.98620353,0.02270502,0.07629375
1764767137.5172613,-2.62472,2.48738,2.0601,0.98620353,0.02270502,0.07629375
1764767137.5172613,-2.62472,2.48738,2.0601,0.98620353,0.02270502,0.07629375
1764767137.5172613,-2.62472,2.48738,2.0601,0.98620353,0.02270502,0.07629375
1764767137.5172613,-3.25038,2.71628,2.35004,0.985410075,0.021545355,0.077697555
1764767137.5172613,-3.25038,2.71628,2.35004,0.985410075,0.021545355,0.077697555
1764767137.5632975,-3.25038,2.71628,2.35004,0.985410075,0.021545355,0.077697555
1764767137.5632975,-3.25038,2.71628,2.35004,0.985410075,0.021545355,0.077697555
1764767137.5632975,-3.25038,2.71628,2.35004,0.985410075,0.021545355,0.077697555
1764767137.5632975,-3.25038,2.71628,2.35004,0.985410075,0.021545355,0.077697555
1764767137.5632975,-3.25038,2.71628,2.35004,0.985410075,0.021545355,0.077697555
1764767137.5632975,-3.25038,2.71628,2.35004,0.985410075,0.021545355,0.077697555
1764767137.5632975,-3.25038,2.71628,2.35004,0.985410075,0.021545355,0.077697555
1764767137.5632975,-3.25038,2.71628,2.35004,0.985410075,0.021545355,0.077697555
1764767137.5632975,-3.15882,2.60946,2.33478,0.98522697,0.020080515,0.077819625
1764767137.5632975,-3.15882,2.60946,2.33478,0.98522697,0.020080515,0.077819625
1764767137.5632975,-3.15882,2.60946,2.33478,0.98522697,0.020080515,0.077819625
1764767137.5632975,-3.15882,2.60946,2.33478,0.98522697,0.020080515,0.077819625
1764767137.563822,-3.15882,2.60946,2.33478,0.98522697,0.020080515,0.077819625
1764767137.563822,-3.15882,2.60946,2.33478,0.98522697,0.020080515,0.077819625
1764767137.563822,-3.15882,2.60946,2.33478,0.98522697,0.020080515,0.077819625
1764767137.563822,-3.15882,2.60946,2.33478,0.98522697,0.020080515,0.077819625
1764767137.563822,-3.15882,2.60946,2.33478,0.98522697,0.020080515,0.077819625
1764767137.563822,-3.15882,2.60946,2.33478,0.98522697,0.020080515,0.077819625
1764767137.563822,-3.2046,2.48738,2.57894,0.98449455,0.018493605,0.07861308
1764767137.563822,-3.2046,2.48738,2.57894,0.98449455,0.018493605,0.07861308
1764767137.563822,-3.2046,2.48738,2.57894,0.98449455,0.018493605,0.07861308
1764767137.563822,-3.2046,2.48738,2.57894,0.98449455,0.018493605,0.07861308
1764767137.609275,-3.2046,2.48738,2.57894,0.98449455,0.018493605,0.07861308
1764767137.609275,-3.2046,2.48738,2.57894,0.98449455,0.018493605,0.07861308
1764767137.609275,-3.2046,2.48738,2.57894,0.98449455,0.018493605,0.07861308
1764767137.6098056,-3.2046,2.48738,2.57894,0.98449455,0.018493605,0.07861308
1764767137.6098056,-3.2046,2.48738,2.57894,0.98449455,0.018493605,0.07861308
1764767137.6098056,-3.2046,2.48738,2.57894,0.98449455,0.018493605,0.07861308
1764767137.6098056,-3.78448,2.01432,2.65524,0.983945235,0.01757808,0.078429975
1764767137.6098056,-3.78448,2.01432,2.65524,0.983945235,0.01757808,0.078429975
1764767137.6098056,-3.78448,2.01432,2.65524,0.983945235,0.01757808,0.078429975
1764767137.6098056,-3.78448,2.01432,2.65524,0.983945235,0.01757808,0.078429975
1764767137.6098056,-3.78448,2.01432,2.65524,0.983945235,0.01757808,0.078429975
1764767137.6098056,-3.78448,2.01432,2.65524,0.983945235,0.01757808,0.078429975
1764767137.6098056,-3.78448,2.01432,2.65524,0.983945235,0.01757808,0.078429975
1764767137.6098056,-3.78448,2.01432,2.65524,0.983945235,0.01757808,0.078429975
1764767137.6098056,-3.78448,2.01432,2.65524,0.983945235,0.01757808,0.078429975
1764767137.6098056,-3.78448,2.01432,2.65524,0.983945235,0.01757808,0.078429975
1764767137.6098056,-3.29616,2.33478,2.15166,0.984799725,0.016662555,0.07824687
1764767137.6098056,-3.29616,2.33478,2.15166,0.984799725,0.016662555,0.07824687
1764767137.610339,-3.29616,2.33478,2.15166,0.984799725,0.016662555,0.07824687
1764767137.610339,-3.29616,2.33478,2.15166,0.984799725,0.016662555,0.07824687
1764767137.610339,-3.29616,2.33478,2.15166,0.984799725,0.016662555,0.07824687
1764767137.610339,-3.29616,2.33478,2.15166,0.984799725,0.016662555,0.07824687
1764767137.610339,-3.29616,2.33478,2.15166,0.984799725,0.016662555,0.07824687
1764767137.6113484,-3.29616,2.33478,2.15166,0.984799725,0.016662555,0.07824687
1764767137.657426,-3.29616,2.33478,2.15166,0.984799725,0.016662555,0.07824687
1764767137.657426,-3.29616,2.33478,2.15166,0.984799725,0.016662555,0.07824687
1764767137.657426,-3.052,2.5942,1.1445,0.986020425,0.015075645,0.07800273
1764767137.657426,-3.052,2.5942,1.1445,0.986020425,0.015075645,0.07800273
1764767137.657426,-3.052,2.5942,1.1445,0.986020425,0.015075645,0.07800273
1764767137.6579323,-3.052,2.5942,1.1445,0.986020425,0.015075645,0.07800273
1764767137.6579323,-3.052,2.5942,1.1445,0.986020425,0.015075645,0.07800273
1764767137.6579323,-3.052,2.5942,1.1445,0.986020425,0.015075645,0.07800273
1764767137.6579323,-3.052,2.5942,1.1445,0.986020425,0.015075645,0.07800273
1764767137.6579323,-3.052,2.5942,1.1445,0.986020425,0.015075645,0.07800273
1764767137.6579323,-3.052,2.5942,1.1445,0.986020425,0.015075645,0.07800273
1764767137.6579323,-3.052,2.5942,1.1445,0.986020425,0.015075645,0.07800273
1764767137.6579323,-3.2046,3.815,0.59514,0.9875463,0.01403805,0.078429975
1764767137.6579323,-3.2046,3.815,0.59514,0.9875463,0.01403805,0.078429975
1764767137.6579323,-3.2046,3.815,0.59514,0.9875463,0.01403805,0.078429975
1764767137.6579323,-3.2046,3.815,0.59514,0.9875463,0.01403805,0.078429975
1764767137.6579323,-3.2046,3.815,0.59514,0.9875463,0.01403805,0.078429975
1764767137.6579323,-3.2046,3.815,0.59514,0.9875463,0.01403805,0.078429975
1764767137.6579323,-3.2046,3.815,0.59514,0.9875463,0.01403805,0.078429975
1764767137.6579323,-3.2046,3.815,0.59514,0.9875463,0.01403805,0.078429975
1764767137.6579323,-3.2046,3.815,0.59514,0.9875463,0.01403805,0.078429975
1764767137.6579323,-3.2046,3.815,0.59514,0.9875463,0.01403805,0.078429975
1764767137.7048411,-3.2046,3.76922,0.6103999999999999,0.9875463,0.013610805,0.07971171
1764767137.7048411,-3.2046,3.76922,0.6103999999999999,0.9875463,0.013610805,0.07971171
1764767137.7048411,-3.2046,3.76922,0.6103999999999999,0.9875463,0.013610805,0.07971171
1764767137.7048411,-3.2046,3.76922,0.6103999999999999,0.9875463,0.013610805,0.07971171
1764767137.7048411,-3.2046,3.76922,0.6103999999999999,0.9875463,0.013610805,0.07971171
1764767137.7048411,-3.2046,3.76922,0.6103999999999999,0.9875463,0.013610805,0.07971171
1764767137.7048411,-3.2046,3.76922,0.6103999999999999,0.9875463,0.013610805,0.07971171
1764767137.7048411,-3.2046,3.76922,0.6103999999999999,0.9875463,0.013610805,0.07971171
1764767137.7048411,-3.2046,3.76922,0.6103999999999999,0.9875463,0.013610805,0.07971171
1764767137.7048411,-3.2046,3.76922,0.6103999999999999,0.9875463,0.013610805,0.07971171
1764767137.7048411,-3.09778,3.37246,0.6867,0.98486076,0.014343225,0.081237585
1764767137.7048411,-3.09778,3.37246,0.6867,0.98486076,0.014343225,0.081237585
1764767137.7048411,-3.09778,3.37246,0.6867,0.98486076,0.014343225,0.081237585
1764767137.7048411,-3.09778,3.37246,0.6867,0.98486076,0.014343225,0.081237585
1764767137.7048411,-3.09778,3.37246,0.6867,0.98486076,0.014343225,0.081237585
1764767137.7048411,-3.09778,3.37246,0.6867,0.98486076,0.014343225,0.081237585
1764767137.7048411,-3.09778,3.37246,0.6867,0.98486076,0.014343225,0.081237585
1764767137.7048411,-3.09778,3.37246,0.6867,0.98486076,0.014343225,0.081237585
1764767137.7058582,-3.09778,3.37246,0.6867,0.98486076,0.014343225,0.081237585
1764767137.7058582,-3.09778,3.37246,0.6867,0.98486076,0.014343225,0.081237585
1764767137.7058582,-2.88414,2.57894,0.51884,0.98437248,0.01452633,0.082458285
1764767137.7058582,-2.88414,2.57894,0.51884,0.98437248,0.01452633,0.082458285
1764767137.7058582,-2.88414,2.57894,0.51884,0.98437248,0.01452633,0.082458285
1764767137.7058582,-2.88414,2.57894,0.51884,0.98437248,0.01452633,0.082458285
1764767137.7484393,-2.88414,2.57894,0.51884,0.98437248,0.01452633,0.082458285
1764767137.7484393,-2.88414,2.57894,0.51884,0.98437248,0.01452633,0.082458285
1764767137.7484393,-2.88414,2.57894,0.51884,0.98437248,0.01452633,0.082458285
1764767137.7484393,-2.88414,2.57894,0.51884,0.98437248,0.01452633,0.082458285
1764767137.7484393,-2.88414,2.57894,0.51884,0.98437248,0.01452633,0.082458285
1764767137.7484393,-2.88414,2.57894,0.51884,0.98437248,0.01452633,0.082458285
1764767137.7484393,-2.35004,2.47212,1.15976,0.983212815,0.01232907,0.083068635
1764767137.7484393,-2.35004,2.47212,1.15976,0.983212815,0.01232907,0.083068635
1764767137.7484393,-2.35004,2.47212,1.15976,0.983212815,0.01232907,0.083068635
1764767137.7484393,-2.35004,2.47212,1.15976,0.983212815,0.01232907,0.083068635
1764767137.7484393,-2.35004,2.47212,1.15976,0.983212815,0.01232907,0.083068635
1764767137.7484393,-2.35004,2.47212,1.15976,0.983212815,0.01232907,0.083068635
1764767137.7484393,-2.35004,2.47212,1.15976,0.983212815,0.01232907,0.083068635
1764767137.7484393,-2.35004,2.47212,1.15976,0.983212815,0.01232907,0.083068635
1764767137.7484393,-2.35004,2.47212,1.15976,0.983212815,0.01232907,0.083068635
1764767137.7484393,-2.35004,2.47212,1.15976,0.983212815,0.01232907,0.083068635
1764767137.7484393,-2.53316,1.89224,1.23606,0.98278557,0.011169405,0.08288553
1764767137.7484393,-2.53316,1.89224,1.23606,0.98278557,0.011169405,0.08288553
1764767137.7484393,-2.53316,1.89224,1.23606,0.98278557,0.011169405,0.08288553
1764767137.749467,-2.53316,1.89224,1.23606,0.98278557,0.011169405,0.08288553
1764767137.749467,-2.53316,1.89224,1.23606,0.98278557,0.011169405,0.08288553
1764767137.749467,-2.53316,1.89224,1.23606,0.98278557,0.011169405,0.08288553
1764767137.796065,-2.53316,1.89224,1.23606,0.98278557,0.011169405,0.08288553
1764767137.796065,-2.53316,1.89224,1.23606,0.98278557,0.011169405,0.08288553
1764767137.7965713,-2.53316,1.89224,1.23606,0.98278557,0.011169405,0.08288553
1764767137.7965713,-2.53316,1.89224,1.23606,0.98278557,0.011169405,0.08288553
1764767137.7965713,-2.80784,0.88508,-0.27468,0.985043865,0.013000455,0.08312967
1764767137.7965713,-2.80784,0.88508,-0.27468,0.985043865,0.013000455,0.08312967
1764767137.7965713,-2.80784,0.88508,-0.27468,0.985043865,0.013000455,0.08312967
1764767137.7965713,-2.80784,0.88508,-0.27468,0.985043865,0.013000455,0.08312967
1764767137.7965713,-2.80784,0.88508,-0.27468,0.985043865,0.013000455,0.08312967
1764767137.7965713,-2.80784,0.88508,-0.27468,0.985043865,0.013000455,0.08312967
1764767137.7965713,-2.80784,0.88508,-0.27468,0.985043865,0.013000455,0.08312967
1764767137.7965713,-2.80784,0.88508,-0.27468,0.985043865,0.013000455,0.08312967
1764767137.7965713,-2.80784,0.88508,-0.27468,0.985043865,0.013000455,0.08312967
1764767137.7965713,-2.80784,0.88508,-0.27468,0.985043865,0.013000455,0.08312967
1764767137.7965713,-3.55558,1.57178,-0.88508,0.98620353,0.01550289,0.0830076
1764767137.7980762,-3.55558,1.57178,-0.88508,0.98620353,0.01550289,0.0830076
1764767137.7980762,-3.55558,1.57178,-0.88508,0.98620353,0.01550289,0.0830076
1764767137.7980762,-3.55558,1.57178,-0.88508,0.98620353,0.01550289,0.0830076
1764767137.7980762,-3.55558,1.57178,-0.88508,0.98620353,0.01550289,0.0830076
1764767137.7980762,-3.55558,1.57178,-0.88508,0.98620353,0.01550289,0.0830076
1764767137.7980762,-3.55558,1.57178,-0.88508,0.98620353,0.01550289,0.0830076
1764767137.7980762,-3.55558,1.57178,-0.88508,0.98620353,0.01550289,0.0830076
1764767137.7980762,-3.55558,1.57178,-0.88508,0.98620353,0.01550289,0.0830076
1764767137.7980762,-3.55558,1.57178,-0.88508,0.98620353,0.01550289,0.0830076
1764767137.8447502,-3.79974,1.54126,-1.02242,0.98425041,0.017761185,0.08312967
1764767137.8447502,-3.79974,1.54126,-1.02242,0.98425041,0.017761185,0.08312967
1764767137.8447502,-3.79974,1.54126,-1.02242,0.98425041,0.017761185,0.08312967
1764767137.8447502,-3.79974,1.54126,-1.02242,0.98425041,0.017761185,0.08312967
1764767137.8447502,-3.79974,1.54126,-1.02242,0.98425041,0.017761185,0.08312967
1764767137.8447502,-3.79974,1.54126,-1.02242,0.98425041,0.017761185,0.08312967
1764767137.8447502,-3.79974,1.54126,-1.02242,0.98425041,0.017761185,0.08312967
1764767137.8447502,-3.79974,1.54126,-1.02242,0.98425041,0.017761185,0.08312967
1764767137.8447502,-3.79974,1.54126,-1.02242,0.98425041,0.017761185,0.08312967
1764767137.8447502,-3.79974,1.54126,-1.02242,0.98425041,0.017761185,0.08312967
1764767137.8447502,-4.18124,1.2971,-1.73964,0.98278557,0.019103955,0.08276346
1764767137.8447502,-4.18124,1.2971,-1.73964,0.98278557,0.019103955,0.08276346
1764767137.8447502,-4.18124,1.2971,-1.73964,0.98278557,0.019103955,0.08276346
1764767137.8447502,-4.18124,1.2971,-1.73964,0.98278557,0.019103955,0.08276346
1764767137.8447502,-4.18124,1.2971,-1.73964,0.98278557,0.019103955,0.08276346
1764767137.8447502,-4.18124,1.2971,-1.73964,0.98278557,0.019103955,0.08276346
1764767137.8447502,-4.18124,1.2971,-1.73964,0.98278557,0.019103955,0.08276346
1764767137.8447502,-4.18124,1.2971,-1.73964,0.98278557,0.019103955,0.08276346
1764767137.8447502,-4.18124,1.2971,-1.73964,0.98278557,0.019103955,0.08276346
1764767137.8447502,-4.18124,1.2971,-1.73964,0.98278557,0.019103955,0.08276346
1764767137.8447502,-4.99002,1.4497,-2.56368,0.9826635,0.021057075,0.082214145
1764767137.8462722,-4.99002,1.4497,-2.56368,0.9826635,0.021057075,0.082214145
1764767137.8462722,-4.99002,1.4497,-2.56368,0.9826635,0.021057075,0.082214145
1764767137.8462722,-4.99002,1.4497,-2.56368,0.9826635,0.021057075,0.082214145
1764767137.8889856,-4.99002,1.4497,-2.56368,0.9826635,0.021057075,0.082214145
1764767137.8889856,-4.99002,1.4497,-2.56368,0.9826635,0.021057075,0.082214145
1764767137.8889856,-4.99002,1.4497,-2.56368,0.9826635,0.021057075,0.082214145
1764767137.8889856,-4.99002,1.4497,-2.56368,0.9826635,0.021057075,0.082214145
1764767137.8889856,-4.99002,1.4497,-2.56368,0.9826635,0.021057075,0.082214145
1764767137.8889856,-4.99002,1.4497,-2.56368,0.9826635,0.021057075,0.082214145
1764767137.8889856,-4.8832,0.9156,-1.51074,0.983945235,0.022399845,0.08154276
1764767137.8889856,-4.8832,0.9156,-1.51074,0.983945235,0.022399845,0.08154276
1764767137.8889856,-4.8832,0.9156,-1.51074,0.983945235,0.022399845,0.08154276
1764767137.8889856,-4.8832,0.9156,-1.51074,0.983945235,0.022399845,0.08154276
1764767137.8889856,-4.8832,0.9156,-1.51074,0.983945235,0.022399845,0.08154276
1764767137.8889856,-4.8832,0.9156,-1.51074,0.983945235,0.022399845,0.08154276
1764767137.8889856,-4.8832,0.9156,-1.51074,0.983945235,0.022399845,0.08154276
1764767137.8889856,-4.8832,0.9156,-1.51074,0.983945235,0.022399845,0.08154276
1764767137.889959,-4.8832,0.9156,-1.51074,0.983945235,0.022399845,0.08154276
1764767137.889959,-4.8832,0.9156,-1.51074,0.983945235,0.022399845,0.08154276
1764767137.889959,-5.340999999999999,1.46496,-0.9156,0.985288005,0.023254335,0.081359655
1764767137.889959,-5.340999999999999,1.46496,-0.9156,0.985288005,0.023254335,0.081359655
1764767137.889959,-5.340999999999999,1.46496,-0.9156,0.985288005,0.023254335,0.081359655
1764767137.889959,-5.340999999999999,1.46496,-0.9156,0.985288005,0.023254335,0.081359655
1764767137.889959,-5.340999999999999,1.46496,-0.9156,0.985288005,0.023254335,0.081359655
1764767137.889959,-5.340999999999999,1.46496,-0.9156,0.985288005,0.023254335,0.081359655
1764767137.937286,-5.340999999999999,1.46496,-0.9156,0.985288005,0.023254335,0.081359655
1764767137.937286,-5.340999999999999,1.46496,-0.9156,0.985288005,0.023254335,0.081359655
1764767137.937286,-5.340999999999999,1.46496,-0.9156,0.985288005,0.023254335,0.081359655
1764767137.937286,-5.340999999999999,1.46496,-0.9156,0.985288005,0.023254335,0.081359655
1764767137.937286,-5.27996,0.88508,-0.03052,0.984921795,0.023010195,0.08166483
1764767137.937286,-5.27996,0.88508,-0.03052,0.984921795,0.023010195,0.08166483
1764767137.937286,-5.27996,0.88508,-0.03052,0.984921795,0.023010195,0.08166483
1764767137.937286,-5.27996,0.88508,-0.03052,0.984921795,0.023010195,0.08166483
1764767137.937286,-5.27996,0.88508,-0.03052,0.984921795,0.023010195,0.08166483
1764767137.937286,-5.27996,0.88508,-0.03052,0.984921795,0.023010195,0.08166483
1764767137.937286,-5.27996,0.88508,-0.03052,0.984921795,0.023010195,0.08166483
1764767137.937286,-5.27996,0.88508,-0.03052,0.984921795,0.023010195,0.08166483
1764767137.937286,-5.27996,0.88508,-0.03052,0.984921795,0.023010195,0.08166483
1764767137.937286,-5.27996,0.88508,-0.03052,0.984921795,0.023010195,0.08166483
1764767137.937286,-4.5017,0.79352,0.82404,0.98608146,0.02099604,0.082946565
1764767137.937286,-4.5017,0.79352,0.82404,0.98608146,0.02099604,0.082946565
1764767137.937286,-4.5017,0.79352,0.82404,0.98608146,0.02099604,0.082946565
1764767137.937286,-4.5017,0.79352,0.82404,0.98608146,0.02099604,0.082946565
1764767137.937286,-4.5017,0.79352,0.82404,0.98608146,0.02099604,0.082946565
1764767137.937286,-4.5017,0.79352,0.82404,0.98608146,0.02099604,0.082946565
1764767137.937286,-4.5017,0.79352,0.82404,0.98608146,0.02099604,0.082946565
1764767137.937286,-4.5017,0.79352,0.82404,0.98608146,0.02099604,0.082946565
1764767137.937286,-4.5017,0.79352,0.82404,0.98608146,0.02099604,0.082946565
1764767137.937286,-4.5017,0.79352,0.82404,0.98608146,0.02099604,0.082946565
1764767137.9808068,-3.72344,0.3357199999999999,0.62566,0.984677655,0.019592235,0.083556915
1764767137.9808068,-3.72344,0.3357199999999999,0.62566,0.984677655,0.019592235,0.083556915
1764767137.9808068,-3.72344,0.3357199999999999,0.62566,0.984677655,0.019592235,0.083556915
1764767137.9808068,-3.72344,0.3357199999999999,0.62566,0.984677655,0.019592235,0.083556915
1764767137.9808068,-3.72344,0.3357199999999999,0.62566,0.984677655,0.019592235,0.083556915
1764767137.9808068,-3.72344,0.3357199999999999,0.62566,0.984677655,0.019592235,0.083556915
1764767137.9808068,-3.72344,0.3357199999999999,0.62566,0.984677655,0.019592235,0.083556915
1764767137.9808068,-3.72344,0.3357199999999999,0.62566,0.984677655,0.019592235,0.083556915
1764767137.9808068,-3.72344,0.3357199999999999,0.62566,0.984677655,0.019592235,0.083556915
1764767137.9808068,-3.72344,0.3357199999999999,0.62566,0.984677655,0.019592235,0.083556915
1764767137.9808068,-3.47928,-0.47306,0.3051999999999999,0.983945235,0.02014155,0.0830076
1764767137.9808068,-3.47928,-0.47306,0.3051999999999999,0.983945235,0.02014155,0.0830076
1764767137.9808068,-3.47928,-0.47306,0.3051999999999999,0.983945235,0.02014155,0.0830076
1764767137.9808068,-3.47928,-0.47306,0.3051999999999999,0.983945235,0.02014155,0.0830076
1764767137.9808068,-3.47928,-0.47306,0.3051999999999999,0.983945235,0.02014155,0.0830076
1764767137.9808068,-3.47928,-0.47306,0.3051999999999999,0.983945235,0.02014155,0.0830076
1764767137.9808068,-3.47928,-0.47306,0.3051999999999999,0.983945235,0.02014155,0.0830076
1764767137.9808068,-3.47928,-0.47306,0.3051999999999999,0.983945235,0.02014155,0.0830076
1764767137.9808068,-3.47928,-0.47306,0.3051999999999999,0.983945235,0.02014155,0.0830076
1764767137.9808068,-3.47928,-0.47306,0.3051999999999999,0.983945235,0.02014155,0.0830076
1764767137.9808068,-3.3572,0.01526,0.50358,0.984921795,0.02160639,0.082458285
1764767137.9808068,-3.3572,0.01526,0.50358,0.984921795,0.02160639,0.082458285
1764767137.9808068,-3.3572,0.01526,0.50358,0.984921795,0.02160639,0.082458285
1764767137.9808068,-3.3572,0.01526,0.50358,0.984921795,0.02160639,0.082458285
1764767138.0290687,-3.3572,0.01526,0.50358,0.984921795,0.02160639,0.082458285
1764767138.0290687,-3.3572,0.01526,0.50358,0.984921795,0.02160639,0.082458285
1764767138.0290687,-3.3572,0.01526,0.50358,0.984921795,0.02160639,0.082458285
1764767138.0290687,-3.3572,0.01526,0.50358,0.984921795,0.02160639,0.082458285
1764767138.0290687,-3.3572,0.01526,0.50358,0.984921795,0.02160639,0.082458285
1764767138.0290687,-3.3572,0.01526,0.50358,0.984921795,0.02160639,0.082458285
1764767138.0290687,-3.5098,0.39676,1.4497,0.9851049,0.02136225,0.08166483
1764767138.0290687,-3.5098,0.39676,1.4497,0.9851049,0.02136225,0.08166483
1764767138.0290687,-3.5098,0.39676,1.4497,0.9851049,0.02136225,0.08166483
1764767138.0290687,-3.5098,0.39676,1.4497,0.9851049,0.02136225,0.08166483
1764767138.0290687,-3.5098,0.39676,1.4497,0.9851049,0.02136225,0.08166483
1764767138.0290687,-3.5098,0.39676,1.4497,0.9851049,0.02136225,0.08166483
1764767138.0290687,-3.5098,0.39676,1.4497,0.9851049,0.02136225,0.08166483
1764767138.0290687,-3.5098,0.39676,1.4497,0.9851049,0.02136225,0.08166483
1764767138.0290687,-3.5098,0.39676,1.4497,0.9851049,0.02136225,0.08166483
1764767138.0290687,-3.5098,0.39676,1.4497,0.9851049,0.02136225,0.08166483
1764767138.0290687,-3.46402,0.96138,2.42634,0.984067305,0.021301215,0.08105448
1764767138.0290687,-3.46402,0.96138,2.42634,0.984067305,0.021301215,0.08105448
1764767138.0290687,-3.46402,0.96138,2.42634,0.984067305,0.021301215,0.08105448
1764767138.0290687,-3.46402,0.96138,2.42634,0.984067305,0.021301215,0.08105448
1764767138.0290687,-3.46402,0.96138,2.42634,0.984067305,0.021301215,0.08105448
1764767138.0290687,-3.46402,0.96138,2.42634,0.984067305,0.021301215,0.08105448
1764767138.0761,-3.46402,0.96138,2.42634,0.984067305,0.021301215,0.08105448
1764767138.0766215,-3.46402,0.96138,2.42634,0.984067305,0.021301215,0.08105448
1764767138.0766215,-3.46402,0.96138,2.42634,0.984067305,0.021301215,0.08105448
1764767138.0766215,-3.46402,0.96138,2.42634,0.984067305,0.021301215,0.08105448
1764767138.0766215,-3.23512,0.6714399999999999,2.86888,0.983945235,0.019103955,0.080261025
1764767138.0766215,-3.23512,0.6714399999999999,2.86888,0.983945235,0.019103955,0.080261025
1764767138.0766215,-3.23512,0.6714399999999999,2.86888,0.983945235,0.019103955,0.080261025
1764767138.0766215,-3.23512,0.6714399999999999,2.86888,0.983945235,0.019103955,0.080261025
1764767138.0766215,-3.23512,0.6714399999999999,2.86888,0.983945235,0.019103955,0.080261025
1764767138.0766215,-3.23512,0.6714399999999999,2.86888,0.983945235,0.019103955,0.080261025
1764767138.0766215,-3.23512,0.6714399999999999,2.86888,0.983945235,0.019103955,0.080261025
1764767138.0766215,-3.23512,0.6714399999999999,2.86888,0.983945235,0.019103955,0.080261025
1764767138.0766215,-3.23512,0.6714399999999999,2.86888,0.983945235,0.019103955,0.080261025
1764767138.0766215,-3.23512,0.6714399999999999,2.86888,0.983945235,0.019103955,0.080261025
1764767138.0766215,-3.38772,0.47306,2.57894,0.98437248,0.01782222,0.079406535
1764767138.0766215,-3.38772,0.47306,2.57894,0.98437248,0.01782222,0.079406535
1764767138.0766215,-3.38772,0.47306,2.57894,0.98437248,0.01782222,0.079406535
1764767138.0766215,-3.38772,0.47306,2.57894,0.98437248,0.01782222,0.079406535
1764767138.0766215,-3.38772,0.47306,2.57894,0.98437248,0.01782222,0.079406535
1764767138.0766215,-3.38772,0.47306,2.57894,0.98437248,0.01782222,0.079406535
1764767138.0766215,-3.38772,0.47306,2.57894,0.98437248,0.01782222,0.079406535
1764767138.0766215,-3.38772,0.47306,2.57894,0.98437248,0.01782222,0.079406535
1764767138.0766215,-3.38772,0.47306,2.57894,0.98437248,0.01782222,0.079406535
1764767138.0766215,-3.38772,0.47306,2.57894,0.98437248,0.01782222,0.079406535
1764767138.1199837,-2.88414,0.19838,1.72438,0.984433515,0.016906695,0.0793455
1764767138.1199837,-2.88414,0.19838,1.72438,0.984433515,0.016906695,0.0793455
1764767138.1205118,-2.88414,0.19838,1.72438,0.984433515,0.016906695,0.0793455
1764767138.1205118,-2.88414,0.19838,1.72438,0.984433515,0.016906695,0.0793455
1764767138.1205118,-2.88414,0.19838,1.72438,0.984433515,0.016906695,0.0793455
1764767138.1205118,-2.88414,0.19838,1.72438,0.984433515,0.016906695,0.0793455
1764767138.1205118,-2.88414,0.19838,1.72438,0.984433515,0.016906695,0.0793455
1764767138.1205118,-2.88414,0.19838,1.72438,0.984433515,0.016906695,0.0793455
1764767138.121719,-2.88414,0.19838,1.72438,0.984433515,0.016906695,0.0793455
1764767138.121719,-2.88414,0.19838,1.72438,0.984433515,0.016906695,0.0793455
1764767138.121719,-2.79258,0.96138,1.2208,0.98583732,0.016174275,0.078918255
1764767138.121719,-2.79258,0.96138,1.2208,0.98583732,0.016174275,0.078918255
1764767138.121719,-2.79258,0.96138,1.2208,0.98583732,0.016174275,0.078918255
1764767138.121719,-2.79258,0.96138,1.2208,0.98583732,0.016174275,0.078918255
1764767138.121719,-2.79258,0.96138,1.2208,0.98583732,0.016174275,0.078918255
1764767138.121719,-2.79258,0.96138,1.2208,0.98583732,0.016174275,0.078918255
1764767138.121719,-2.79258,0.96138,1.2208,0.98583732,0.016174275,0.078918255
1764767138.121719,-2.79258,0.96138,1.2208,0.98583732,0.016174275,0.078918255
1764767138.121719,-2.79258,0.96138,1.2208,0.98583732,0.016174275,0.078918255
1764767138.1227195,-2.79258,0.96138,1.2208,0.98583732,0.016174275,0.078918255
1764767138.1227195,-2.76206,0.6867,0.77826,0.9851049,0.016662555,0.078796185
1764767138.1227195,-2.76206,0.6867,0.77826,0.9851049,0.016662555,0.078796185
1764767138.169009,-2.76206,0.6867,0.77826,0.9851049,0.016662555,0.078796185
1764767138.169009,-2.76206,0.6867,0.77826,0.9851049,0.016662555,0.078796185
1764767138.169009,-2.76206,0.6867,0.77826,0.9851049,0.016662555,0.078796185
1764767138.169009,-2.76206,0.6867,0.77826,0.9851049,0.016662555,0.078796185
1764767138.169009,-2.76206,0.6867,0.77826,0.9851049,0.016662555,0.078796185
1764767138.169009,-2.76206,0.6867,0.77826,0.9851049,0.016662555,0.078796185
1764767138.169009,-2.76206,0.6867,0.77826,0.9851049,0.016662555,0.078796185
1764767138.169009,-2.76206,0.6867,0.77826,0.9851049,0.016662555,0.078796185
1764767138.169009,-3.64714,0.79352,0.77826,0.98486076,0.017394975,0.079162395
1764767138.169009,-3.64714,0.79352,0.77826,0.98486076,0.017394975,0.079162395
1764767138.169009,-3.64714,0.79352,0.77826,0.98486076,0.017394975,0.079162395
1764767138.169009,-3.64714,0.79352,0.77826,0.98486076,0.017394975,0.079162395
1764767138.169009,-3.64714,0.79352,0.77826,0.98486076,0.017394975,0.079162395
1764767138.169009,-3.64714,0.79352,0.77826,0.98486076,0.017394975,0.079162395
1764767138.169009,-3.64714,0.79352,0.77826,0.98486076,0.017394975,0.079162395
1764767138.169009,-3.64714,0.79352,0.77826,0.98486076,0.017394975,0.079162395
1764767138.169009,-3.64714,0.79352,0.77826,0.98486076,0.017394975,0.079162395
1764767138.169009,-3.64714,0.79352,0.77826,0.98486076,0.017394975,0.079162395
1764767138.169009,-3.7387,0.5341,1.19028,0.98400627,0.01745601,0.079162395
1764767138.169009,-3.7387,0.5341,1.19028,0.98400627,0.01745601,0.079162395
1764767138.169009,-3.7387,0.5341,1.19028,0.98400627,0.01745601,0.079162395
1764767138.169009,-3.7387,0.5341,1.19028,0.98400627,0.01745601,0.079162395
1764767138.169009,-3.7387,0.5341,1.19028,0.98400627,0.01745601,0.079162395
1764767138.169009,-3.7387,0.5341,1.19028,0.98400627,0.01745601,0.079162395
1764767138.2168822,-3.7387,0.5341,1.19028,0.98400627,0.01745601,0.079162395
1764767138.2168822,-3.7387,0.5341,1.19028,0.98400627,0.01745601,0.079162395
1764767138.2168822,-3.7387,0.5341,1.19028,0.98400627,0.01745601,0.079162395
1764767138.2168822,-3.7387,0.5341,1.19028,0.98400627,0.01745601,0.079162395
1764767138.2168822,-4.28806,0.5341,1.38866,0.984677655,0.018005325,0.07897929
1764767138.2168822,-4.28806,0.5341,1.38866,0.984677655,0.018005325,0.07897929
1764767138.2168822,-4.28806,0.5341,1.38866,0.984677655,0.018005325,0.07897929
1764767138.2168822,-4.28806,0.5341,1.38866,0.984677655,0.018005325,0.07897929
1764767138.2168822,-4.28806,0.5341,1.38866,0.984677655,0.018005325,0.07897929
1764767138.2168822,-4.28806,0.5341,1.38866,0.984677655,0.018005325,0.07897929
1764767138.2168822,-4.28806,0.5341,1.38866,0.984677655,0.018005325,0.07897929
1764767138.2168822,-4.28806,0.5341,1.38866,0.984677655,0.018005325,0.07897929
1764767138.2168822,-4.28806,0.5341,1.38866,0.984677655,0.018005325,0.07897929
1764767138.2168822,-4.28806,0.5341,1.38866,0.984677655,0.018005325,0.07897929
1764767138.2168822,-4.22702,0.1678599999999999,1.96854,0.984921795,0.01855464,0.078552045
1764767138.2168822,-4.22702,0.1678599999999999,1.96854,0.984921795,0.01855464,0.078552045
1764767138.2168822,-4.22702,0.1678599999999999,1.96854,0.984921795,0.01855464,0.078552045
1764767138.2168822,-4.22702,0.1678599999999999,1.96854,0.984921795,0.01855464,0.078552045
1764767138.2168822,-4.22702,0.1678599999999999,1.96854,0.984921795,0.01855464,0.078552045
1764767138.2168822,-4.22702,0.1678599999999999,1.96854,0.984921795,0.01855464,0.078552045
1764767138.2168822,-4.22702,0.1678599999999999,1.96854,0.984921795,0.01855464,0.078552045
1764767138.2168822,-4.22702,0.1678599999999999,1.96854,0.984921795,0.01855464,0.078552045
1764767138.2168822,-4.22702,0.1678599999999999,1.96854,0.984921795,0.01855464,0.078552045
1764767138.2168822,-4.22702,0.1678599999999999,1.96854,0.984921795,0.01855464,0.078552045
1764767138.2604554,-4.22702,0.3051999999999999,2.09062,0.984799725,0.017761185,0.078552045
1764767138.2604554,-4.22702,0.3051999999999999,2.09062,0.984799725,0.017761185,0.078552045
1764767138.2604554,-4.22702,0.3051999999999999,2.09062,0.984799725,0.017761185,0.078552045
1764767138.2604554,-4.22702,0.3051999999999999,2.09062,0.984799725,0.017761185,0.078552045
1764767138.2604554,-4.22702,0.3051999999999999,2.09062,0.984799725,0.017761185,0.078552045
1764767138.2614963,-4.22702,0.3051999999999999,2.09062,0.984799725,0.017761185,0.078552045
1764767138.2614963,-4.22702,0.3051999999999999,2.09062,0.984799725,0.017761185,0.078552045
1764767138.2614963,-4.22702,0.3051999999999999,2.09062,0.984799725,0.017761185,0.078552045
1764767138.2614963,-4.22702,0.3051999999999999,2.09062,0.984799725,0.017761185,0.078552045
1764767138.2614963,-4.22702,0.3051999999999999,2.09062,0.984799725,0.017761185,0.078552045
1764767138.2614963,-4.0439,0.71722,2.35004,0.985043865,0.016662555,0.07873515
1764767138.2614963,-4.0439,0.71722,2.35004,0.985043865,0.016662555,0.07873515
1764767138.2614963,-4.0439,0.71722,2.35004,0.985043865,0.016662555,0.07873515
1764767138.2614963,-4.0439,0.71722,2.35004,0.985043865,0.016662555,0.07873515
1764767138.2614963,-4.0439,0.71722,2.35004,0.985043865,0.016662555,0.07873515
1764767138.2614963,-4.0439,0.71722,2.35004,0.985043865,0.016662555,0.07873515
1764767138.2614963,-4.0439,0.71722,2.35004,0.985043865,0.016662555,0.07873515
1764767138.2614963,-4.0439,0.71722,2.35004,0.985043865,0.016662555,0.07873515
1764767138.2614963,-4.0439,0.71722,2.35004,0.985043865,0.016662555,0.07873515
1764767138.2614963,-4.0439,0.71722,2.35004,0.985043865,0.016662555,0.07873515
1764767138.2614963,-3.815,0.85456,2.1364,0.985165935,0.016662555,0.078918255
1764767138.2614963,-3.815,0.85456,2.1364,0.985165935,0.016662555,0.078918255
1764767138.311051,-3.815,0.85456,2.1364,0.985165935,0.016662555,0.078918255
1764767138.311051,-3.815,0.85456,2.1364,0.985165935,0.016662555,0.078918255
1764767138.311051,-3.815,0.85456,2.1364,0.985165935,0.016662555,0.078918255
1764767138.311051,-3.815,0.85456,2.1364,0.985165935,0.016662555,0.078918255
1764767138.311051,-3.815,0.85456,2.1364,0.985165935,0.016662555,0.078918255
1764767138.311051,-3.815,0.85456,2.1364,0.985165935,0.016662555,0.078918255
1764767138.311051,-3.815,0.85456,2.1364,0.985165935,0.016662555,0.078918255
1764767138.311051,-3.815,0.85456,2.1364,0.985165935,0.016662555,0.078918255
1764767138.311051,-3.67766,0.9003399999999999,1.92276,0.985532145,0.01623531,0.079284465
1764767138.311051,-3.67766,0.9003399999999999,1.92276,0.985532145,0.01623531,0.079284465
1764767138.311051,-3.67766,0.9003399999999999,1.92276,0.985532145,0.01623531,0.079284465
1764767138.311051,-3.67766,0.9003399999999999,1.92276,0.985532145,0.01623531,0.079284465
1764767138.311051,-3.67766,0.9003399999999999,1.92276,0.985532145,0.01623531,0.079284465
1764767138.311051,-3.67766,0.9003399999999999,1.92276,0.985532145,0.01623531,0.079284465
1764767138.311051,-3.67766,0.9003399999999999,1.92276,0.985532145,0.01623531,0.079284465
1764767138.311051,-3.67766,0.9003399999999999,1.92276,0.985532145,0.01623531,0.079284465
1764767138.311051,-3.67766,0.9003399999999999,1.92276,0.985532145,0.01623531,0.079284465
1764767138.311051,-3.67766,0.9003399999999999,1.92276,0.985532145,0.01623531,0.079284465
1764767138.311051,-3.60136,1.08346,2.18218,0.9851049,0.015441855,0.0793455
1764767138.311571,-3.60136,1.08346,2.18218,0.9851049,0.015441855,0.0793455
1764767138.311571,-3.60136,1.08346,2.18218,0.9851049,0.015441855,0.0793455
1764767138.311571,-3.60136,1.08346,2.18218,0.9851049,0.015441855,0.0793455
1764767138.311571,-3.60136,1.08346,2.18218,0.9851049,0.015441855,0.0793455
1764767138.311571,-3.60136,1.08346,2.18218,0.9851049,0.015441855,0.0793455
1764767138.3567848,-3.60136,1.08346,2.18218,0.9851049,0.015441855,0.0793455
1764767138.3567848,-3.60136,1.08346,2.18218,0.9851049,0.015441855,0.0793455
1764767138.3567848,-3.60136,1.08346,2.18218,0.9851049,0.015441855,0.0793455
1764767138.3567848,-3.60136,1.08346,2.18218,0.9851049,0.015441855,0.0793455
1764767138.3567848,-3.25038,1.03768,2.30426,0.984799725,0.01452633,0.07946757
1764767138.3567848,-3.25038,1.03768,2.30426,0.984799725,0.01452633,0.07946757
1764767138.3567848,-3.25038,1.03768,2.30426,0.984799725,0.01452633,0.07946757
1764767138.3567848,-3.25038,1.03768,2.30426,0.984799725,0.01452633,0.07946757
1764767138.3567848,-3.25038,1.03768,2.30426,0.984799725,0.01452633,0.07946757
1764767138.3567848,-3.25038,1.03768,2.30426,0.984799725,0.01452633,0.07946757
1764767138.3567848,-3.25038,1.03768,2.30426,0.984799725,0.01452633,0.07946757
1764767138.3567848,-3.25038,1.03768,2.30426,0.984799725,0.01452633,0.07946757
1764767138.3567848,-3.25038,1.03768,2.30426,0.984799725,0.01452633,0.07946757
1764767138.3567848,-3.25038,1.03768,2.30426,0.984799725,0.01452633,0.07946757
1764767138.3567848,-3.02148,0.9003399999999999,2.01432,0.985288005,0.01403805,0.080383095
1764767138.3567848,-3.02148,0.9003399999999999,2.01432,0.985288005,0.01403805,0.080383095
1764767138.3567848,-3.02148,0.9003399999999999,2.01432,0.985288005,0.01403805,0.080383095
1764767138.3567848,-3.02148,0.9003399999999999,2.01432,0.985288005,0.01403805,0.080383095
1764767138.3567848,-3.02148,0.9003399999999999,2.01432,0.985288005,0.01403805,0.080383095
1764767138.3567848,-3.02148,0.9003399999999999,2.01432,0.985288005,0.01403805,0.080383095
1764767138.3567848,-3.02148,0.9003399999999999,2.01432,0.985288005,0.01403805,0.080383095
1764767138.3567848,-3.02148,0.9003399999999999,2.01432,0.985288005,0.01403805,0.080383095
1764767138.3567848,-3.02148,0.9003399999999999,2.01432,0.985288005,0.01403805,0.080383095
1764767138.3567848,-3.02148,0.9003399999999999,2.01432,0.985288005,0.01403805,0.080383095
1764767138.4025948,-3.17408,1.43444,2.24322,0.984799725,0.01428219,0.08044413
1764767138.4025948,-3.17408,1.43444,2.24322,0.984799725,0.01428219,0.08044413
1764767138.4036126,-3.17408,1.43444,2.24322,0.984799725,0.01428219,0.08044413
1764767138.4036126,-3.17408,1.43444,2.24322,0.984799725,0.01428219,0.08044413
1764767138.4036126,-3.17408,1.43444,2.24322,0.984799725,0.01428219,0.08044413
1764767138.4036126,-3.17408,1.43444,2.24322,0.984799725,0.01428219,0.08044413
1764767138.4036126,-3.17408,1.43444,2.24322,0.984799725,0.01428219,0.08044413
1764767138.4036126,-3.17408,1.43444,2.24322,0.984799725,0.01428219,0.08044413
1764767138.4036126,-3.17408,1.43444,2.24322,0.984799725,0.01428219,0.08044413
1764767138.4036126,-3.17408,1.43444,2.24322,0.984799725,0.01428219,0.08044413
1764767138.4036126,-3.21986,1.51074,1.6633399999999998,0.98498283,0.014099085,0.079406535
1764767138.4036126,-3.21986,1.51074,1.6633399999999998,0.98498283,0.014099085,0.079406535
1764767138.4036126,-3.21986,1.51074,1.6633399999999998,0.98498283,0.014099085,0.079406535
1764767138.4036126,-3.21986,1.51074,1.6633399999999998,0.98498283,0.014099085,0.079406535
1764767138.404608,-3.21986,1.51074,1.6633399999999998,0.98498283,0.014099085,0.079406535
1764767138.404608,-3.21986,1.51074,1.6633399999999998,0.98498283,0.014099085,0.079406535
1764767138.404608,-3.21986,1.51074,1.6633399999999998,0.98498283,0.014099085,0.079406535
1764767138.404608,-3.21986,1.51074,1.6633399999999998,0.98498283,0.014099085,0.079406535
1764767138.404608,-3.21986,1.51074,1.6633399999999998,0.98498283,0.014099085,0.079406535
1764767138.404608,-3.21986,1.51074,1.6633399999999998,0.98498283,0.014099085,0.079406535
1764767138.404608,-3.17408,1.8312,1.34288,0.985898355,0.01391598,0.07958964
1764767138.404608,-3.17408,1.8312,1.34288,0.985898355,0.01391598,0.07958964
1764767138.404608,-3.17408,1.8312,1.34288,0.985898355,0.01391598,0.07958964
1764767138.404608,-3.17408,1.8312,1.34288,0.985898355,0.01391598,0.07958964
1764767138.4505532,-3.17408,1.8312,1.34288,0.985898355,0.01391598,0.07958964
1764767138.4505532,-3.17408,1.8312,1.34288,0.985898355,0.01391598,0.07958964
1764767138.4505532,-3.17408,1.8312,1.34288,0.985898355,0.01391598,0.07958964
1764767138.4505532,-3.17408,1.8312,1.34288,0.985898355,0.01391598,0.07958964
1764767138.4505532,-3.17408,1.8312,1.34288,0.985898355,0.01391598,0.07958964
1764767138.4505532,-3.17408,1.8312,1.34288,0.985898355,0.01391598,0.07958964
1764767138.4505532,-3.31142,2.42634,1.03768,0.98681388,0.014343225,0.0793455
1764767138.4505532,-3.31142,2.42634,1.03768,0.98681388,0.014343225,0.0793455
1764767138.4505532,-3.31142,2.42634,1.03768,0.98681388,0.014343225,0.0793455
1764767138.4505532,-3.31142,2.42634,1.03768,0.98681388,0.014343225,0.0793455
1764767138.4510696,-3.31142,2.42634,1.03768,0.98681388,0.014343225,0.0793455
1764767138.4510696,-3.31142,2.42634,1.03768,0.98681388,0.014343225,0.0793455
1764767138.4510696,-3.31142,2.42634,1.03768,0.98681388,0.014343225,0.0793455
1764767138.4510696,-3.31142,2.42634,1.03768,0.98681388,0.014343225,0.0793455
1764767138.4510696,-3.31142,2.42634,1.03768,0.98681388,0.014343225,0.0793455
1764767138.4510696,-3.31142,2.42634,1.03768,0.98681388,0.014343225,0.0793455
1764767138.4510696,-3.63188,2.18218,0.9156,0.98620353,0.01416012,0.080016885
1764767138.4510696,-3.63188,2.18218,0.9156,0.98620353,0.01416012,0.080016885
1764767138.4510696,-3.63188,2.18218,0.9156,0.98620353,0.01416012,0.080016885
1764767138.4510696,-3.63188,2.18218,0.9156,0.98620353,0.01416012,0.080016885
1764767138.4510696,-3.63188,2.18218,0.9156,0.98620353,0.01416012,0.080016885
1764767138.4510696,-3.63188,2.18218,0.9156,0.98620353,0.01416012,0.080016885
1764767138.4510696,-3.63188,2.18218,0.9156,0.98620353,0.01416012,0.080016885
1764767138.4510696,-3.63188,2.18218,0.9156,0.98620353,0.01416012,0.080016885
1764767138.4973578,-3.63188,2.18218,0.9156,0.98620353,0.01416012,0.080016885
1764767138.4973578,-3.63188,2.18218,0.9156,0.98620353,0.01416012,0.080016885
1764767138.4973578,-3.7387,1.69386,1.26658,0.985410075,0.015319785,0.08093241
1764767138.4973578,-3.7387,1.69386,1.26658,0.985410075,0.015319785,0.08093241
1764767138.4973578,-3.7387,1.69386,1.26658,0.985410075,0.015319785,0.08093241
1764767138.4973578,-3.7387,1.69386,1.26658,0.985410075,0.015319785,0.08093241
1764767138.4973578,-3.7387,1.69386,1.26658,0.985410075,0.015319785,0.08093241
1764767138.497876,-3.7387,1.69386,1.26658,0.985410075,0.015319785,0.08093241
1764767138.497876,-3.7387,1.69386,1.26658,0.985410075,0.015319785,0.08093241
1764767138.497876,-3.7387,1.69386,1.26658,0.985410075,0.015319785,0.08093241
1764767138.497876,-3.7387,1.69386,1.26658,0.985410075,0.015319785,0.08093241
1764767138.497876,-3.7387,1.69386,1.26658,0.985410075,0.015319785,0.08093241
1764767138.497876,-3.72344,1.58704,2.12114,0.984311445,0.01477047,0.08166483
1764767138.497876,-3.72344,1.58704,2.12114,0.984311445,0.01477047,0.08166483
1764767138.497876,-3.72344,1.58704,2.12114,0.984311445,0.01477047,0.08166483
1764767138.497876,-3.72344,1.58704,2.12114,0.984311445,0.01477047,0.08166483
1764767138.497876,-3.72344,1.58704,2.12114,0.984311445,0.01477047,0.08166483
1764767138.497876,-3.72344,1.58704,2.12114,0.984311445,0.01477047,0.08166483
1764767138.497876,-3.72344,1.58704,2.12114,0.984311445,0.01477047,0.08166483
1764767138.497876,-3.72344,1.58704,2.12114,0.984311445,0.01477047,0.08166483
1764767138.497876,-3.72344,1.58704,2.12114,0.984311445,0.01477047,0.08166483
1764767138.497876,-3.72344,1.58704,2.12114,0.984311445,0.01477047,0.08166483
1764767138.497876,-3.18934,1.41918,1.9075,0.98412834,0.0146484,0.082214145
1764767138.497876,-3.18934,1.41918,1.9075,0.98412834,0.0146484,0.082214145
1764767138.5436149,-3.18934,1.41918,1.9075,0.98412834,0.0146484,0.082214145
1764767138.5436149,-3.18934,1.41918,1.9075,0.98412834,0.0146484,0.082214145
1764767138.5436149,-3.18934,1.41918,1.9075,0.98412834,0.0146484,0.082214145
1764767138.5436149,-3.18934,1.41918,1.9075,0.98412834,0.0146484,0.082214145
1764767138.5436149,-3.18934,1.41918,1.9075,0.98412834,0.0146484,0.082214145
1764767138.5436149,-3.18934,1.41918,1.9075,0.98412834,0.0146484,0.082214145
1764767138.5436149,-3.18934,1.41918,1.9075,0.98412834,0.0146484,0.082214145
1764767138.5436149,-3.18934,1.41918,1.9075,0.98412834,0.0146484,0.082214145
1764767138.5436149,-3.1283,1.78542,1.25132,0.98486076,0.014587365,0.08190897
1764767138.5436149,-3.1283,1.78542,1.25132,0.98486076,0.014587365,0.08190897
1764767138.5436149,-3.1283,1.78542,1.25132,0.98486076,0.014587365,0.08190897
1764767138.5436149,-3.1283,1.78542,1.25132,0.98486076,0.014587365,0.08190897
1764767138.5436149,-3.1283,1.78542,1.25132,0.98486076,0.014587365,0.08190897
1764767138.5436149,-3.1283,1.78542,1.25132,0.98486076,0.014587365,0.08190897
1764767138.5436149,-3.1283,1.78542,1.25132,0.98486076,0.014587365,0.08190897
1764767138.5436149,-3.1283,1.78542,1.25132,0.98486076,0.014587365,0.08190897
1764767138.5436149,-3.1283,1.78542,1.25132,0.98486076,0.014587365,0.08190897
1764767138.5436149,-3.1283,1.78542,1.25132,0.98486076,0.014587365,0.08190897
1764767138.5436149,-2.85362,1.64808,1.55652,0.98473869,0.015319785,0.08154276
1764767138.5436149,-2.85362,1.64808,1.55652,0.98473869,0.015319785,0.08154276
1764767138.5436149,-2.85362,1.64808,1.55652,0.98473869,0.015319785,0.08154276
1764767138.5436149,-2.85362,1.64808,1.55652,0.98473869,0.015319785,0.08154276
1764767138.5912511,-2.85362,1.64808,1.55652,0.98473869,0.015319785,0.08154276
1764767138.5912511,-2.85362,1.64808,1.55652,0.98473869,0.015319785,0.08154276
1764767138.5912511,-2.85362,1.64808,1.55652,0.98473869,0.015319785,0.08154276
1764767138.5912511,-2.85362,1.64808,1.55652,0.98473869,0.015319785,0.08154276
1764767138.5912511,-2.85362,1.64808,1.55652,0.98473869,0.015319785,0.08154276
1764767138.5912511,-2.85362,1.64808,1.55652,0.98473869,0.015319785,0.08154276
1764767138.5912511,-3.09778,1.08346,2.77732,0.98376213,0.014953575,0.080749305
1764767138.5912511,-3.09778,1.08346,2.77732,0.98376213,0.014953575,0.080749305
1764767138.5912511,-3.09778,1.08346,2.77732,0.98376213,0.014953575,0.080749305
1764767138.5912511,-3.09778,1.08346,2.77732,0.98376213,0.014953575,0.080749305
1764767138.5912511,-3.09778,1.08346,2.77732,0.98376213,0.014953575,0.080749305
1764767138.5912511,-3.09778,1.08346,2.77732,0.98376213,0.014953575,0.080749305
1764767138.5912511,-3.09778,1.08346,2.77732,0.98376213,0.014953575,0.080749305
1764767138.5912511,-3.09778,1.08346,2.77732,0.98376213,0.014953575,0.080749305
1764767138.5912511,-3.09778,1.08346,2.77732,0.98376213,0.014953575,0.080749305
1764767138.5912511,-3.09778,1.08346,2.77732,0.98376213,0.014953575,0.080749305
1764767138.5912511,-3.2809,1.61756,2.7468,0.983701095,0.01513668,0.080627235
1764767138.5912511,-3.2809,1.61756,2.7468,0.983701095,0.01513668,0.080627235
1764767138.5912511,-3.2809,1.61756,2.7468,0.983701095,0.01513668,0.080627235
1764767138.5912511,-3.2809,1.61756,2.7468,0.983701095,0.01513668,0.080627235
1764767138.5912511,-3.2809,1.61756,2.7468,0.983701095,0.01513668,0.080627235
1764767138.5912511,-3.2809,1.61756,2.7468,0.983701095,0.01513668,0.080627235
1764767138.6375744,-3.2809,1.61756,2.7468,0.983701095,0.01513668,0.080627235
1764767138.6375744,-3.2809,1.61756,2.7468,0.983701095,0.01513668,0.080627235
1764767138.6375744,-3.2809,1.61756,2.7468,0.983701095,0.01513668,0.080627235
1764767138.6375744,-3.2809,1.61756,2.7468,0.983701095,0.01513668,0.080627235
1764767138.6375744,-2.88414,1.95328,2.30426,0.98449455,0.01391598,0.080383095
1764767138.6375744,-2.88414,1.95328,2.30426,0.98449455,0.01391598,0.080383095
1764767138.6375744,-2.88414,1.95328,2.30426,0.98449455,0.01391598,0.080383095
1764767138.6375744,-2.88414,1.95328,2.30426,0.98449455,0.01391598,0.080383095
1764767138.6375744,-2.88414,1.95328,2.30426,0.98449455,0.01391598,0.080383095
1764767138.6375744,-2.88414,1.95328,2.30426,0.98449455,0.01391598,0.080383095
1764767138.6375744,-2.88414,1.95328,2.30426,0.98449455,0.01391598,0.080383095
1764767138.6375744,-2.88414,1.95328,2.30426,0.98449455,0.01391598,0.080383095
1764767138.6375744,-2.88414,1.95328,2.30426,0.98449455,0.01391598,0.080383095
1764767138.6375744,-2.88414,1.95328,2.30426,0.98449455,0.01391598,0.080383095
1764767138.6375744,-3.09778,1.73964,1.4497,0.984189375,0.013000455,0.080261025
1764767138.6375744,-3.09778,1.73964,1.4497,0.984189375,0.013000455,0.080261025
1764767138.6375744,-3.09778,1.73964,1.4497,0.984189375,0.013000455,0.080261025
1764767138.6375744,-3.09778,1.73964,1.4497,0.984189375,0.013000455,0.080261025
1764767138.6375744,-3.09778,1.73964,1.4497,0.984189375,0.013000455,0.080261025
1764767138.6375744,-3.09778,1.73964,1.4497,0.984189375,0.013000455,0.080261025
1764767138.6375744,-3.09778,1.73964,1.4497,0.984189375,0.013000455,0.080261025
1764767138.6375744,-3.09778,1.73964,1.4497,0.984189375,0.013000455,0.080261025
1764767138.638599,-3.09778,1.73964,1.4497,0.984189375,0.013000455,0.080261025
1764767138.638599,-3.09778,1.73964,1.4497,0.984189375,0.013000455,0.080261025
1764767138.638599,-3.2809,1.54126,1.48022,0.98473869,0.01269528,0.08093241
1764767138.638599,-3.2809,1.54126,1.48022,0.98473869,0.01269528,0.08093241
1764767138.685518,-3.2809,1.54126,1.48022,0.98473869,0.01269528,0.08093241
1764767138.685518,-3.2809,1.54126,1.48022,0.98473869,0.01269528,0.08093241
1764767138.685518,-3.2809,1.54126,1.48022,0.98473869,0.01269528,0.08093241
1764767138.685518,-3.2809,1.54126,1.48022,0.98473869,0.01269528,0.08093241
1764767138.685518,-3.2809,1.54126,1.48022,0.98473869,0.01269528,0.08093241
1764767138.685518,-3.2809,1.54126,1.48022,0.98473869,0.01269528,0.08093241
1764767138.685518,-3.2809,1.54126,1.48022,0.98473869,0.01269528,0.08093241
1764767138.685518,-3.2809,1.54126,1.48022,0.98473869,0.01269528,0.08093241
1764767138.685518,-3.11304,1.96854,1.6786,0.986020425,0.01269528,0.08166483
1764767138.685518,-3.11304,1.96854,1.6786,0.986020425,0.01269528,0.08166483
1764767138.685518,-3.11304,1.96854,1.6786,0.986020425,0.01269528,0.08166483
1764767138.686525,-3.11304,1.96854,1.6786,0.986020425,0.01269528,0.08166483
1764767138.686525,-3.11304,1.96854,1.6786,0.986020425,0.01269528,0.08166483
1764767138.686525,-3.11304,1.96854,1.6786,0.986020425,0.01269528,0.08166483
1764767138.686525,-3.11304,1.96854,1.6786,0.986020425,0.01269528,0.08166483
1764767138.686525,-3.11304,1.96854,1.6786,0.986020425,0.01269528,0.08166483
1764767138.686525,-3.11304,1.96854,1.6786,0.986020425,0.01269528,0.08166483
1764767138.686525,-3.11304,1.96854,1.6786,0.986020425,0.01269528,0.08166483
1764767138.686525,-3.3572,1.58704,1.81594,0.98473869,0.012512175,0.08203104
1764767138.686525,-3.3572,1.58704,1.81594,0.98473869,0.012512175,0.08203104
1764767138.686525,-3.3572,1.58704,1.81594,0.98473869,0.012512175,0.08203104
1764767138.686525,-3.3572,1.58704,1.81594,0.98473869,0.012512175,0.08203104
1764767138.686525,-3.3572,1.58704,1.81594,0.98473869,0.012512175,0.08203104
1764767138.686525,-3.3572,1.58704,1.81594,0.98473869,0.012512175,0.08203104
1764767138.729633,-3.3572,1.58704,1.81594,0.98473869,0.012512175,0.08203104
1764767138.729633,-3.3572,1.58704,1.81594,0.98473869,0.012512175,0.08203104
1764767138.729633,-3.3572,1.58704,1.81594,0.98473869,0.012512175,0.08203104
1764767138.729633,-3.3572,1.58704,1.81594,0.98473869,0.012512175,0.08203104
1764767138.729633,-3.17408,1.32762,2.12114,0.98437248,0.01147458,0.08227518
1764767138.729633,-3.17408,1.32762,2.12114,0.98437248,0.01147458,0.08227518
1764767138.729633,-3.17408,1.32762,2.12114,0.98437248,0.01147458,0.08227518
1764767138.729633,-3.17408,1.32762,2.12114,0.98437248,0.01147458,0.08227518
1764767138.729633,-3.17408,1.32762,2.12114,0.98437248,0.01147458,0.08227518
1764767138.729633,-3.17408,1.32762,2.12114,0.98437248,0.01147458,0.08227518
1764767138.729633,-3.17408,1.32762,2.12114,0.98437248,0.01147458,0.08227518
1764767138.729633,-3.17408,1.32762,2.12114,0.98437248,0.01147458,0.08227518
1764767138.729633,-3.17408,1.32762,2.12114,0.98437248,0.01147458,0.08227518
1764767138.729633,-3.17408,1.32762,2.12114,0.98437248,0.01147458,0.08227518
1764767138.729633,-2.9757,1.8006799999999998,1.57178,0.98547111,0.009826635,0.081847935
1764767138.729633,-2.9757,1.8006799999999998,1.57178,0.98547111,0.009826635,0.081847935
1764767138.729633,-2.9757,1.8006799999999998,1.57178,0.98547111,0.009826635,0.081847935
1764767138.729633,-2.9757,1.8006799999999998,1.57178,0.98547111,0.009826635,0.081847935
1764767138.729633,-2.9757,1.8006799999999998,1.57178,0.98547111,0.009826635,0.081847935
1764767138.729633,-2.9757,1.8006799999999998,1.57178,0.98547111,0.009826635,0.081847935
1764767138.729633,-2.9757,1.8006799999999998,1.57178,0.98547111,0.009826635,0.081847935
1764767138.7306442,-2.9757,1.8006799999999998,1.57178,0.98547111,0.009826635,0.081847935
1764767138.7766232,-2.9757,1.8006799999999998,1.57178,0.98547111,0.009826635,0.081847935
1764767138.7766232,-2.9757,1.8006799999999998,1.57178,0.98547111,0.009826635,0.081847935
1764767138.7766232,-2.5942,2.04484,1.11398,0.9851049,0.009094215,0.08142069
1764767138.7766232,-2.5942,2.04484,1.11398,0.9851049,0.009094215,0.08142069
1764767138.7766232,-2.5942,2.04484,1.11398,0.9851049,0.009094215,0.08142069
1764767138.7766232,-2.5942,2.04484,1.11398,0.9851049,0.009094215,0.08142069
1764767138.7778509,-2.5942,2.04484,1.11398,0.9851049,0.009094215,0.08142069
1764767138.7778509,-2.5942,2.04484,1.11398,0.9851049,0.009094215,0.08142069
1764767138.7778509,-2.5942,2.04484,1.11398,0.9851049,0.009094215,0.08142069
1764767138.7778509,-2.5942,2.04484,1.11398,0.9851049,0.009094215,0.08142069
1764767138.7778509,-2.5942,2.04484,1.11398,0.9851049,0.009094215,0.08142069
1764767138.7778509,-2.5942,2.04484,1.11398,0.9851049,0.009094215,0.08142069
1764767138.7778509,-1.87698,1.57178,0.6714399999999999,0.986874915,0.008239725,0.08117655
1764767138.7778509,-1.87698,1.57178,0.6714399999999999,0.986874915,0.008239725,0.08117655
1764767138.7778509,-1.87698,1.57178,0.6714399999999999,0.986874915,0.008239725,0.08117655
1764767138.7788477,-1.87698,1.57178,0.6714399999999999,0.986874915,0.008239725,0.08117655
1764767138.7788477,-1.87698,1.57178,0.6714399999999999,0.986874915,0.008239725,0.08117655
1764767138.7788477,-1.87698,1.57178,0.6714399999999999,0.986874915,0.008239725,0.08117655
1764767138.7788477,-1.87698,1.57178,0.6714399999999999,0.986874915,0.008239725,0.08117655
1764767138.7788477,-1.87698,1.57178,0.6714399999999999,0.986874915,0.008239725,0.08117655
1764767138.7788477,-1.87698,1.57178,0.6714399999999999,0.986874915,0.008239725,0.08117655
1764767138.7788477,-1.87698,1.57178,0.6714399999999999,0.986874915,0.008239725,0.08117655
1764767138.824565,-1.87698,2.25848,0.73248,0.98779044,0.009826635,0.08166483
1764767138.824565,-1.87698,2.25848,0.73248,0.98779044,0.009826635,0.08166483
1764767138.824565,-1.87698,2.25848,0.73248,0.98779044,0.009826635,0.08166483
1764767138.824565,-1.87698,2.25848,0.73248,0.98779044,0.009826635,0.08166483
1764767138.824565,-1.87698,2.25848,0.73248,0.98779044,0.009826635,0.08166483
1764767138.824565,-1.87698,2.25848,0.73248,0.98779044,0.009826635,0.08166483
1764767138.824565,-1.87698,2.25848,0.73248,0.98779044,0.009826635,0.08166483
1764767138.824565,-1.87698,2.25848,0.73248,0.98779044,0.009826635,0.08166483
1764767138.824565,-1.87698,2.25848,0.73248,0.98779044,0.009826635,0.08166483
1764767138.824565,-1.87698,2.25848,0.73248,0.98779044,0.009826635,0.08166483
1764767138.824565,-2.04484,2.9757,0.97664,0.98559318,0.01171872,0.082092075
1764767138.824565,-2.04484,2.9757,0.97664,0.98559318,0.01171872,0.082092075
1764767138.824565,-2.04484,2.9757,0.97664,0.98559318,0.01171872,0.082092075
1764767138.824565,-2.04484,2.9757,0.97664,0.98559318,0.01171872,0.082092075
1764767138.824565,-2.04484,2.9757,0.97664,0.98559318,0.01171872,0.082092075
1764767138.824565,-2.04484,2.9757,0.97664,0.98559318,0.01171872,0.082092075
1764767138.824565,-2.04484,2.9757,0.97664,0.98559318,0.01171872,0.082092075
1764767138.824565,-2.04484,2.9757,0.97664,0.98559318,0.01171872,0.082092075
1764767138.824565,-2.04484,2.9757,0.97664,0.98559318,0.01171872,0.082092075
1764767138.824565,-2.04484,2.9757,0.97664,0.98559318,0.01171872,0.082092075
1764767138.824565,-2.42634,2.70102,0.57988,0.98351799,0.013488735,0.082580355
1764767138.824565,-2.42634,2.70102,0.57988,0.98351799,0.013488735,0.082580355
1764767138.824565,-2.42634,2.70102,0.57988,0.98351799,0.013488735,0.082580355
1764767138.824565,-2.42634,2.70102,0.57988,0.98351799,0.013488735,0.082580355
1764767138.8710356,-2.42634,2.70102,0.57988,0.98351799,0.013488735,0.082580355
1764767138.8710356,-2.42634,2.70102,0.57988,0.98351799,0.013488735,0.082580355
1764767138.8710356,-2.42634,2.70102,0.57988,0.98351799,0.013488735,0.082580355
1764767138.8710356,-2.42634,2.70102,0.57988,0.98351799,0.013488735,0.082580355
1764767138.8710356,-2.42634,2.70102,0.57988,0.98351799,0.013488735,0.082580355
1764767138.8710356,-2.42634,2.70102,0.57988,0.98351799,0.013488735,0.082580355
1764767138.8710356,-2.99096,2.33478,-0.04578,0.983212815,0.014465295,0.084045195
1764767138.8710356,-2.99096,2.33478,-0.04578,0.983212815,0.014465295,0.084045195
1764767138.8710356,-2.99096,2.33478,-0.04578,0.983212815,0.014465295,0.084045195
1764767138.8710356,-2.99096,2.33478,-0.04578,0.983212815,0.014465295,0.084045195
1764767138.8710356,-2.99096,2.33478,-0.04578,0.983212815,0.014465295,0.084045195
1764767138.8710356,-2.99096,2.33478,-0.04578,0.983212815,0.014465295,0.084045195
1764767138.8710356,-2.99096,2.33478,-0.04578,0.983212815,0.014465295,0.084045195
1764767138.8710356,-2.99096,2.33478,-0.04578,0.983212815,0.014465295,0.084045195
1764767138.8710356,-2.99096,2.33478,-0.04578,0.983212815,0.014465295,0.084045195
1764767138.8710356,-2.99096,2.33478,-0.04578,0.983212815,0.014465295,0.084045195
1764767138.8710356,-3.61662,1.9075,0.24416,0.983945235,0.01562496,0.084777615
1764767138.8710356,-3.61662,1.9075,0.24416,0.983945235,0.01562496,0.084777615
1764767138.8710356,-3.61662,1.9075,0.24416,0.983945235,0.01562496,0.084777615
1764767138.8710356,-3.61662,1.9075,0.24416,0.983945235,0.01562496,0.084777615
1764767138.8710356,-3.61662,1.9075,0.24416,0.983945235,0.01562496,0.084777615
1764767138.8710356,-3.61662,1.9075,0.24416,0.983945235,0.01562496,0.084777615
1764767138.913856,-3.61662,1.9075,0.24416,0.983945235,0.01562496,0.084777615
1764767138.913856,-3.61662,1.9075,0.24416,0.983945235,0.01562496,0.084777615
1764767138.913856,-3.61662,1.9075,0.24416,0.983945235,0.01562496,0.084777615
1764767138.913856,-3.61662,1.9075,0.24416,0.983945235,0.01562496,0.084777615
1764767138.913856,-4.1202,1.72438,1.08346,0.98425041,0.01647945,0.08593728
1764767138.913856,-4.1202,1.72438,1.08346,0.98425041,0.01647945,0.08593728
1764767138.913856,-4.1202,1.72438,1.08346,0.98425041,0.01647945,0.08593728
1764767138.913856,-4.1202,1.72438,1.08346,0.98425041,0.01647945,0.08593728
1764767138.9143667,-4.1202,1.72438,1.08346,0.98425041,0.01647945,0.08593728
1764767138.9143667,-4.1202,1.72438,1.08346,0.98425041,0.01647945,0.08593728
1764767138.9143667,-4.1202,1.72438,1.08346,0.98425041,0.01647945,0.08593728
1764767138.9143667,-4.1202,1.72438,1.08346,0.98425041,0.01647945,0.08593728
1764767138.9143667,-4.1202,1.72438,1.08346,0.98425041,0.01647945,0.08593728
1764767138.9143667,-4.1202,1.72438,1.08346,0.98425041,0.01647945,0.08593728
1764767138.9143667,-4.1965,1.19028,1.99906,0.98437248,0.01611324,0.08557107
1764767138.9143667,-4.1965,1.19028,1.99906,0.98437248,0.01611324,0.08557107
1764767138.9143667,-4.1965,1.19028,1.99906,0.98437248,0.01611324,0.08557107
1764767138.9143667,-4.1965,1.19028,1.99906,0.98437248,0.01611324,0.08557107
1764767138.9143667,-4.1965,1.19028,1.99906,0.98437248,0.01611324,0.08557107
1764767138.9143667,-4.1965,1.19028,1.99906,0.98437248,0.01611324,0.08557107
1764767138.9143667,-4.1965,1.19028,1.99906,0.98437248,0.01611324,0.08557107
1764767138.9143667,-4.1965,1.19028,1.99906,0.98437248,0.01611324,0.08557107
1764767138.9143667,-4.1965,1.19028,1.99906,0.98437248,0.01611324,0.08557107
1764767138.9143667,-4.1965,1.19028,1.99906,0.98437248,0.01611324,0.08557107
1764767138.959597,-4.39488,1.31236,1.87698,0.98376213,0.015319785,0.085632105
1764767138.959597,-4.39488,1.31236,1.87698,0.98376213,0.015319785,0.085632105
1764767138.959597,-4.39488,1.31236,1.87698,0.98376213,0.015319785,0.085632105
1764767138.959597,-4.39488,1.31236,1.87698,0.98376213,0.015319785,0.085632105
1764767138.959597,-4.39488,1.31236,1.87698,0.98376213,0.015319785,0.085632105
1764767138.959597,-4.39488,1.31236,1.87698,0.98376213,0.015319785,0.085632105
1764767138.959597,-4.39488,1.31236,1.87698,0.98376213,0.015319785,0.085632105
1764767138.959597,-4.39488,1.31236,1.87698,0.98376213,0.015319785,0.085632105
1764767138.959597,-4.39488,1.31236,1.87698,0.98376213,0.015319785,0.085632105
1764767138.959597,-4.39488,1.31236,1.87698,0.98376213,0.015319785,0.085632105
1764767138.959597,-4.1965,1.2971,1.63282,0.98449455,0.01318356,0.085265895
1764767138.959597,-4.1965,1.2971,1.63282,0.98449455,0.01318356,0.085265895
1764767138.959597,-4.1965,1.2971,1.63282,0.98449455,0.01318356,0.085265895
1764767138.959597,-4.1965,1.2971,1.63282,0.98449455,0.01318356,0.085265895
1764767138.959597,-4.1965,1.2971,1.63282,0.98449455,0.01318356,0.085265895
1764767138.959597,-4.1965,1.2971,1.63282,0.98449455,0.01318356,0.085265895
1764767138.9610102,-4.1965,1.2971,1.63282,0.98449455,0.01318356,0.085265895
1764767138.9610102,-4.1965,1.2971,1.63282,0.98449455,0.01318356,0.085265895
1764767138.9610102,-4.1965,1.2971,1.63282,0.98449455,0.01318356,0.085265895
1764767138.9610102,-4.1965,1.2971,1.63282,0.98449455,0.01318356,0.085265895
1764767138.9610102,-3.83026,1.28184,0.96138,0.98522697,0.01196286,0.085265895
1764767138.9610102,-3.83026,1.28184,0.96138,0.98522697,0.01196286,0.085265895
1764767139.0073051,-3.83026,1.28184,0.96138,0.98522697,0.01196286,0.085265895
1764767139.0073051,-3.83026,1.28184,0.96138,0.98522697,0.01196286,0.085265895
1764767139.0073051,-3.83026,1.28184,0.96138,0.98522697,0.01196286,0.085265895
1764767139.0073051,-3.83026,1.28184,0.96138,0.98522697,0.01196286,0.085265895
1764767139.0073051,-3.83026,1.28184,0.96138,0.98522697,0.01196286,0.085265895
1764767139.007808,-3.83026,1.28184,0.96138,0.98522697,0.01196286,0.085265895
1764767139.007808,-3.83026,1.28184,0.96138,0.98522697,0.01196286,0.085265895
1764767139.007808,-3.83026,1.28184,0.96138,0.98522697,0.01196286,0.085265895
1764767139.007808,-3.1283,1.41918,0.77826,0.985165935,0.01123044,0.08471658
1764767139.007808,-3.1283,1.41918,0.77826,0.985165935,0.01123044,0.08471658
1764767139.007808,-3.1283,1.41918,0.77826,0.985165935,0.01123044,0.08471658
1764767139.007808,-3.1283,1.41918,0.77826,0.985165935,0.01123044,0.08471658
1764767139.007808,-3.1283,1.41918,0.77826,0.985165935,0.01123044,0.08471658
1764767139.007808,-3.1283,1.41918,0.77826,0.985165935,0.01123044,0.08471658
1764767139.007808,-3.1283,1.41918,0.77826,0.985165935,0.01123044,0.08471658
1764767139.007808,-3.1283,1.41918,0.77826,0.985165935,0.01123044,0.08471658
1764767139.007808,-3.1283,1.41918,0.77826,0.985165935,0.01123044,0.08471658
1764767139.007808,-3.1283,1.41918,0.77826,0.985165935,0.01123044,0.08471658
1764767139.007808,-2.8231,1.26658,1.31236,0.984921795,0.01184079,0.084777615
1764767139.007808,-2.8231,1.26658,1.31236,0.984921795,0.01184079,0.084777615
1764767139.007808,-2.8231,1.26658,1.31236,0.984921795,0.01184079,0.084777615
1764767139.007808,-2.8231,1.26658,1.31236,0.984921795,0.01184079,0.084777615
1764767139.0542665,-2.8231,1.26658,1.31236,0.984921795,0.01184079,0.084777615
1764767139.0547702,-2.8231,1.26658,1.31236,0.984921795,0.01184079,0.084777615
1764767139.0547702,-2.8231,1.26658,1.31236,0.984921795,0.01184079,0.084777615
1764767139.0547702,-2.8231,1.26658,1.31236,0.984921795,0.01184079,0.084777615
1764767139.0547702,-2.8231,1.26658,1.31236,0.984921795,0.01184079,0.084777615
1764767139.0547702,-2.8231,1.26658,1.31236,0.984921795,0.01184079,0.084777615
1764767139.0547702,-2.86888,1.12924,1.89224,0.9838842,0.012512175,0.084167265
1764767139.0547702,-2.86888,1.12924,1.89224,0.9838842,0.012512175,0.084167265
1764767139.0547702,-2.86888,1.12924,1.89224,0.9838842,0.012512175,0.084167265
1764767139.0547702,-2.86888,1.12924,1.89224,0.9838842,0.012512175,0.084167265
1764767139.0547702,-2.86888,1.12924,1.89224,0.9838842,0.012512175,0.084167265
1764767139.0547702,-2.86888,1.12924,1.89224,0.9838842,0.012512175,0.084167265
1764767139.0547702,-2.86888,1.12924,1.89224,0.9838842,0.012512175,0.084167265
1764767139.0547702,-2.86888,1.12924,1.89224,0.9838842,0.012512175,0.084167265
1764767139.0547702,-2.86888,1.12924,1.89224,0.9838842,0.012512175,0.084167265
1764767139.055274,-2.86888,1.12924,1.89224,0.9838842,0.012512175,0.084167265
1764767139.055274,-3.052,1.19028,2.3653,0.98412834,0.012512175,0.08398416
1764767139.055274,-3.052,1.19028,2.3653,0.98412834,0.012512175,0.08398416
1764767139.055274,-3.052,1.19028,2.3653,0.98412834,0.012512175,0.08398416
1764767139.055274,-3.052,1.19028,2.3653,0.98412834,0.012512175,0.08398416
1764767139.055274,-3.052,1.19028,2.3653,0.98412834,0.012512175,0.08398416
1764767139.055274,-3.052,1.19028,2.3653,0.98412834,0.012512175,0.08398416
1764767139.055274,-3.052,1.19028,2.3653,0.98412834,0.012512175,0.08398416
1764767139.055792,-3.052,1.19028,2.3653,0.98412834,0.012512175,0.08398416
1764767139.0990028,-3.052,1.19028,2.3653,0.98412834,0.012512175,0.08398416
1764767139.0990028,-3.052,1.19028,2.3653,0.98412834,0.012512175,0.08398416
1764767139.0990028,-3.54032,1.4497,1.89224,0.985410075,0.01147458,0.0830076
1764767139.0990028,-3.54032,1.4497,1.89224,0.985410075,0.01147458,0.0830076
1764767139.0990028,-3.54032,1.4497,1.89224,0.985410075,0.01147458,0.0830076
1764767139.0990028,-3.54032,1.4497,1.89224,0.985410075,0.01147458,0.0830076
1764767139.0990028,-3.54032,1.4497,1.89224,0.985410075,0.01147458,0.0830076
1764767139.0990028,-3.54032,1.4497,1.89224,0.985410075,0.01147458,0.0830076
1764767139.0990028,-3.54032,1.4497,1.89224,0.985410075,0.01147458,0.0830076
1764767139.0990028,-3.54032,1.4497,1.89224,0.985410075,0.01147458,0.0830076
1764767139.0990028,-3.54032,1.4497,1.89224,0.985410075,0.01147458,0.0830076
1764767139.0990028,-3.54032,1.4497,1.89224,0.985410075,0.01147458,0.0830076
1764767139.0990028,-3.23512,1.9838,1.73964,0.98547111,0.01013181,0.08251932
1764767139.0990028,-3.23512,1.9838,1.73964,0.98547111,0.01013181,0.08251932
1764767139.0995097,-3.23512,1.9838,1.73964,0.98547111,0.01013181,0.08251932
1764767139.0995097,-3.23512,1.9838,1.73964,0.98547111,0.01013181,0.08251932
1764767139.0995097,-3.23512,1.9838,1.73964,0.98547111,0.01013181,0.08251932
1764767139.0995097,-3.23512,1.9838,1.73964,0.98547111,0.01013181,0.08251932
1764767139.0995097,-3.23512,1.9838,1.73964,0.98547111,0.01013181,0.08251932
1764767139.0995097,-3.23512,1.9838,1.73964,0.98547111,0.01013181,0.08251932
1764767139.0995097,-3.23512,1.9838,1.73964,0.98547111,0.01013181,0.08251932
1764767139.0995097,-3.23512,1.9838,1.73964,0.98547111,0.01013181,0.08251932
1764767139.0995097,-3.03674,1.61756,1.8006799999999998,0.98486076,0.009582495,0.08276346
1764767139.0995097,-3.03674,1.61756,1.8006799999999998,0.98486076,0.009582495,0.08276346
1764767139.1471703,-3.03674,1.61756,1.8006799999999998,0.98486076,0.009582495,0.08276346
1764767139.1478937,-3.03674,1.61756,1.8006799999999998,0.98486076,0.009582495,0.08276346
1764767139.1478937,-3.03674,1.61756,1.8006799999999998,0.98486076,0.009582495,0.08276346
1764767139.1478937,-3.03674,1.61756,1.8006799999999998,0.98486076,0.009582495,0.08276346
1764767139.1478937,-3.03674,1.61756,1.8006799999999998,0.98486076,0.009582495,0.08276346
1764767139.1478937,-3.03674,1.61756,1.8006799999999998,0.98486076,0.009582495,0.08276346
1764767139.1478937,-3.03674,1.61756,1.8006799999999998,0.98486076,0.009582495,0.08276346
1764767139.1478937,-3.03674,1.61756,1.8006799999999998,0.98486076,0.009582495,0.08276346
1764767139.1478937,-3.052,1.8006799999999998,1.93802,0.984677655,0.01000974,0.083190705
1764767139.1478937,-3.052,1.8006799999999998,1.93802,0.984677655,0.01000974,0.083190705
1764767139.1478937,-3.052,1.8006799999999998,1.93802,0.984677655,0.01000974,0.083190705
1764767139.1478937,-3.052,1.8006799999999998,1.93802,0.984677655,0.01000974,0.083190705
1764767139.1478937,-3.052,1.8006799999999998,1.93802,0.984677655,0.01000974,0.083190705
1764767139.1478937,-3.052,1.8006799999999998,1.93802,0.984677655,0.01000974,0.083190705
1764767139.1478937,-3.052,1.8006799999999998,1.93802,0.984677655,0.01000974,0.083190705
1764767139.1478937,-3.052,1.8006799999999998,1.93802,0.984677655,0.01000974,0.083190705
1764767139.1478937,-3.052,1.8006799999999998,1.93802,0.984677655,0.01000974,0.083190705
1764767139.1478937,-3.052,1.8006799999999998,1.93802,0.984677655,0.01000974,0.083190705
1764767139.1478937,-3.02148,1.93802,1.43444,0.9851049,0.00952146,0.08361795
1764767139.1478937,-3.02148,1.93802,1.43444,0.9851049,0.00952146,0.08361795
1764767139.1478937,-3.02148,1.93802,1.43444,0.9851049,0.00952146,0.08361795
1764767139.1489074,-3.02148,1.93802,1.43444,0.9851049,0.00952146,0.08361795
1764767139.191934,-3.02148,1.93802,1.43444,0.9851049,0.00952146,0.08361795
1764767139.191934,-3.02148,1.93802,1.43444,0.9851049,0.00952146,0.08361795
1764767139.191934,-3.02148,1.93802,1.43444,0.9851049,0.00952146,0.08361795
1764767139.191934,-3.02148,1.93802,1.43444,0.9851049,0.00952146,0.08361795
1764767139.191934,-3.02148,1.93802,1.43444,0.9851049,0.00952146,0.08361795
1764767139.191934,-3.02148,1.93802,1.43444,0.9851049,0.00952146,0.08361795
1764767139.191934,-2.63998,1.9075,0.85456,0.985043865,0.009094215,0.084045195
1764767139.191934,-2.63998,1.9075,0.85456,0.985043865,0.009094215,0.084045195
1764767139.191934,-2.63998,1.9075,0.85456,0.985043865,0.009094215,0.084045195
1764767139.191934,-2.63998,1.9075,0.85456,0.985043865,0.009094215,0.084045195
1764767139.191934,-2.63998,1.9075,0.85456,0.985043865,0.009094215,0.084045195
1764767139.191934,-2.63998,1.9075,0.85456,0.985043865,0.009094215,0.084045195
1764767139.191934,-2.63998,1.9075,0.85456,0.985043865,0.009094215,0.084045195
1764767139.191934,-2.63998,1.9075,0.85456,0.985043865,0.009094215,0.084045195
1764767139.191934,-2.63998,1.9075,0.85456,0.985043865,0.009094215,0.084045195
1764767139.191934,-2.63998,1.9075,0.85456,0.985043865,0.009094215,0.084045195
1764767139.191934,-2.92992,1.526,0.6409199999999999,0.98498283,0.009460425,0.08508279
1764767139.191934,-2.92992,1.526,0.6409199999999999,0.98498283,0.009460425,0.08508279
1764767139.191934,-2.92992,1.526,0.6409199999999999,0.98498283,0.009460425,0.08508279
1764767139.191934,-2.92992,1.526,0.6409199999999999,0.98498283,0.009460425,0.08508279
1764767139.191934,-2.92992,1.526,0.6409199999999999,0.98498283,0.009460425,0.08508279
1764767139.191934,-2.92992,1.526,0.6409199999999999,0.98498283,0.009460425,0.08508279
1764767139.191934,-2.92992,1.526,0.6409199999999999,0.98498283,0.009460425,0.08508279
1764767139.191934,-2.92992,1.526,0.6409199999999999,0.98498283,0.009460425,0.08508279
1764767139.238299,-2.92992,1.526,0.6409199999999999,0.98498283,0.009460425,0.08508279
1764767139.238803,-2.92992,1.526,0.6409199999999999,0.98498283,0.009460425,0.08508279
1764767139.238803,-2.86888,1.57178,0.44254,0.98473869,0.01000974,0.085387965
1764767139.238803,-2.86888,1.57178,0.44254,0.98473869,0.01000974,0.085387965
1764767139.238803,-2.86888,1.57178,0.44254,0.98473869,0.01000974,0.085387965
1764767139.238803,-2.86888,1.57178,0.44254,0.98473869,0.01000974,0.085387965
1764767139.238803,-2.86888,1.57178,0.44254,0.98473869,0.01000974,0.085387965
1764767139.238803,-2.86888,1.57178,0.44254,0.98473869,0.01000974,0.085387965
1764767139.238803,-2.86888,1.57178,0.44254,0.98473869,0.01000974,0.085387965
1764767139.238803,-2.86888,1.57178,0.44254,0.98473869,0.01000974,0.085387965
1764767139.238803,-2.86888,1.57178,0.44254,0.98473869,0.01000974,0.085387965
1764767139.238803,-2.86888,1.57178,0.44254,0.98473869,0.01000974,0.085387965
1764767139.238803,-3.25038,1.34288,0.97664,0.98486076,0.01086423,0.085998315
1764767139.238803,-3.25038,1.34288,0.97664,0.98486076,0.01086423,0.085998315
1764767139.238803,-3.25038,1.34288,0.97664,0.98486076,0.01086423,0.085998315
1764767139.238803,-3.25038,1.34288,0.97664,0.98486076,0.01086423,0.085998315
1764767139.238803,-3.25038,1.34288,0.97664,0.98486076,0.01086423,0.085998315
1764767139.238803,-3.25038,1.34288,0.97664,0.98486076,0.01086423,0.085998315
1764767139.238803,-3.25038,1.34288,0.97664,0.98486076,0.01086423,0.085998315
1764767139.238803,-3.25038,1.34288,0.97664,0.98486076,0.01086423,0.085998315
1764767139.238803,-3.25038,1.34288,0.97664,0.98486076,0.01086423,0.085998315
1764767139.238803,-3.25038,1.34288,0.97664,0.98486076,0.01086423,0.085998315
1764767139.285365,-3.25038,1.54126,0.59514,0.98534904,0.01135251,0.085632105
1764767139.285365,-3.25038,1.54126,0.59514,0.98534904,0.01135251,0.085632105
1764767139.285365,-3.25038,1.54126,0.59514,0.98534904,0.01135251,0.085632105
1764767139.285365,-3.25038,1.54126,0.59514,0.98534904,0.01135251,0.085632105
1764767139.285365,-3.25038,1.54126,0.59514,0.98534904,0.01135251,0.085632105
1764767139.285365,-3.25038,1.54126,0.59514,0.98534904,0.01135251,0.085632105
1764767139.285365,-3.25038,1.54126,0.59514,0.98534904,0.01135251,0.085632105
1764767139.285365,-3.25038,1.54126,0.59514,0.98534904,0.01135251,0.085632105
1764767139.285365,-3.25038,1.54126,0.59514,0.98534904,0.01135251,0.085632105
1764767139.285365,-3.25038,1.54126,0.59514,0.98534904,0.01135251,0.085632105
1764767139.285365,-3.46402,1.2971,1.02242,0.984555585,0.011535615,0.085632105
1764767139.285365,-3.46402,1.2971,1.02242,0.984555585,0.011535615,0.085632105
1764767139.285365,-3.46402,1.2971,1.02242,0.984555585,0.011535615,0.085632105
1764767139.285365,-3.46402,1.2971,1.02242,0.984555585,0.011535615,0.085632105
1764767139.285365,-3.46402,1.2971,1.02242,0.984555585,0.011535615,0.085632105
1764767139.285365,-3.46402,1.2971,1.02242,0.984555585,0.011535615,0.085632105
1764767139.285365,-3.46402,1.2971,1.02242,0.984555585,0.011535615,0.085632105
1764767139.285365,-3.46402,1.2971,1.02242,0.984555585,0.011535615,0.085632105
1764767139.285365,-3.46402,1.2971,1.02242,0.984555585,0.011535615,0.085632105
1764767139.285365,-3.46402,1.2971,1.02242,0.984555585,0.011535615,0.085632105
1764767139.285365,-3.83026,1.0682,0.9003399999999999,0.984067305,0.011657685,0.08532693
1764767139.285365,-3.83026,1.0682,0.9003399999999999,0.984067305,0.011657685,0.08532693
1764767139.285365,-3.83026,1.0682,0.9003399999999999,0.984067305,0.011657685,0.08532693
1764767139.285365,-3.83026,1.0682,0.9003399999999999,0.984067305,0.011657685,0.08532693
1764767139.3333964,-3.83026,1.0682,0.9003399999999999,0.984067305,0.011657685,0.08532693
1764767139.3333964,-3.83026,1.0682,0.9003399999999999,0.984067305,0.011657685,0.08532693
1764767139.3333964,-3.83026,1.0682,0.9003399999999999,0.984067305,0.011657685,0.08532693
1764767139.3333964,-3.83026,1.0682,0.9003399999999999,0.984067305,0.011657685,0.08532693
1764767139.3333964,-3.83026,1.0682,0.9003399999999999,0.984067305,0.011657685,0.08532693
1764767139.3333964,-3.83026,1.0682,0.9003399999999999,0.984067305,0.011657685,0.08532693
1764767139.3333964,-4.059159999999999,1.48022,0.44254,0.985165935,0.01110837,0.085510035
1764767139.3333964,-4.059159999999999,1.48022,0.44254,0.985165935,0.01110837,0.085510035
1764767139.3333964,-4.059159999999999,1.48022,0.44254,0.985165935,0.01110837,0.085510035
1764767139.3333964,-4.059159999999999,1.48022,0.44254,0.985165935,0.01110837,0.085510035
1764767139.3333964,-4.059159999999999,1.48022,0.44254,0.985165935,0.01110837,0.085510035
1764767139.3333964,-4.059159999999999,1.48022,0.44254,0.985165935,0.01110837,0.085510035
1764767139.3333964,-4.059159999999999,1.48022,0.44254,0.985165935,0.01110837,0.085510035
1764767139.3333964,-4.059159999999999,1.48022,0.44254,0.985165935,0.01110837,0.085510035
1764767139.3333964,-4.059159999999999,1.48022,0.44254,0.985165935,0.01110837,0.085510035
1764767139.3333964,-4.059159999999999,1.48022,0.44254,0.985165935,0.01110837,0.085510035
1764767139.3333964,-3.55558,1.87698,0.41202,0.985410075,0.011413545,0.08593728
1764767139.3333964,-3.55558,1.87698,0.41202,0.985410075,0.011413545,0.08593728
1764767139.3333964,-3.55558,1.87698,0.41202,0.985410075,0.011413545,0.08593728
1764767139.3333964,-3.55558,1.87698,0.41202,0.985410075,0.011413545,0.08593728
1764767139.3333964,-3.55558,1.87698,0.41202,0.985410075,0.011413545,0.08593728
1764767139.3333964,-3.55558,1.87698,0.41202,0.985410075,0.011413545,0.08593728
1764767139.376449,-3.55558,1.87698,0.41202,0.985410075,0.011413545,0.08593728
1764767139.376449,-3.55558,1.87698,0.41202,0.985410075,0.011413545,0.08593728
1764767139.376449,-3.55558,1.87698,0.41202,0.985410075,0.011413545,0.08593728
1764767139.376449,-3.55558,1.87698,0.41202,0.985410075,0.011413545,0.08593728
1764767139.376449,-3.44876,1.08346,1.2055399999999998,0.98473869,0.0109863,0.08593728
1764767139.376449,-3.44876,1.08346,1.2055399999999998,0.98473869,0.0109863,0.08593728
1764767139.376449,-3.44876,1.08346,1.2055399999999998,0.98473869,0.0109863,0.08593728
1764767139.376449,-3.44876,1.08346,1.2055399999999998,0.98473869,0.0109863,0.08593728
1764767139.376449,-3.44876,1.08346,1.2055399999999998,0.98473869,0.0109863,0.08593728
1764767139.376449,-3.44876,1.08346,1.2055399999999998,0.98473869,0.0109863,0.08593728
1764767139.376449,-3.44876,1.08346,1.2055399999999998,0.98473869,0.0109863,0.08593728
1764767139.376449,-3.44876,1.08346,1.2055399999999998,0.98473869,0.0109863,0.08593728
1764767139.376449,-3.44876,1.08346,1.2055399999999998,0.98473869,0.0109863,0.08593728
1764767139.376449,-3.44876,1.08346,1.2055399999999998,0.98473869,0.0109863,0.08593728
1764767139.3774853,-3.32668,1.00716,1.87698,0.98437248,0.01000974,0.086242455
1764767139.3774853,-3.32668,1.00716,1.87698,0.98437248,0.01000974,0.086242455
1764767139.3774853,-3.32668,1.00716,1.87698,0.98437248,0.01000974,0.086242455
1764767139.3774853,-3.32668,1.00716,1.87698,0.98437248,0.01000974,0.086242455
1764767139.3774853,-3.32668,1.00716,1.87698,0.98437248,0.01000974,0.086242455
1764767139.3774853,-3.32668,1.00716,1.87698,0.98437248,0.01000974,0.086242455
1764767139.3774853,-3.32668,1.00716,1.87698,0.98437248,0.01000974,0.086242455
1764767139.3774853,-3.32668,1.00716,1.87698,0.98437248,0.01000974,0.086242455
1764767139.3774853,-3.32668,1.00716,1.87698,0.98437248,0.01000974,0.086242455
1764767139.3774853,-3.32668,1.00716,1.87698,0.98437248,0.01000974,0.086242455
1764767139.422262,-2.71628,0.9003399999999999,1.43444,0.984433515,0.00903318,0.08605935
1764767139.422262,-2.71628,0.9003399999999999,1.43444,0.984433515,0.00903318,0.08605935
1764767139.422262,-2.71628,0.9003399999999999,1.43444,0.984433515,0.00903318,0.08605935
1764767139.422262,-2.71628,0.9003399999999999,1.43444,0.984433515,0.00903318,0.08605935
1764767139.422262,-2.71628,0.9003399999999999,1.43444,0.984433515,0.00903318,0.08605935
1764767139.422262,-2.71628,0.9003399999999999,1.43444,0.984433515,0.00903318,0.08605935
1764767139.422262,-2.71628,0.9003399999999999,1.43444,0.984433515,0.00903318,0.08605935
1764767139.422262,-2.71628,0.9003399999999999,1.43444,0.984433515,0.00903318,0.08605935
1764767139.4232624,-2.71628,0.9003399999999999,1.43444,0.984433515,0.00903318,0.08605935
1764767139.4232624,-2.71628,0.9003399999999999,1.43444,0.984433515,0.00903318,0.08605935
1764767139.4232624,-2.53316,1.19028,0.71722,0.984555585,0.00817869,0.08569314
1764767139.4232624,-2.53316,1.19028,0.71722,0.984555585,0.00817869,0.08569314
1764767139.4232624,-2.53316,1.19028,0.71722,0.984555585,0.00817869,0.08569314
1764767139.4232624,-2.53316,1.19028,0.71722,0.984555585,0.00817869,0.08569314
1764767139.4232624,-2.53316,1.19028,0.71722,0.984555585,0.00817869,0.08569314
1764767139.4232624,-2.53316,1.19028,0.71722,0.984555585,0.00817869,0.08569314
1764767139.4232624,-2.53316,1.19028,0.71722,0.984555585,0.00817869,0.08569314
1764767139.4232624,-2.53316,1.19028,0.71722,0.984555585,0.00817869,0.08569314
1764767139.4232624,-2.53316,1.19028,0.71722,0.984555585,0.00817869,0.08569314
1764767139.4232624,-2.53316,1.19028,0.71722,0.984555585,0.00817869,0.08569314
1764767139.4232624,-2.65524,1.61756,0.4578,0.98534904,0.007995585,0.08557107
1764767139.4232624,-2.65524,1.61756,0.4578,0.98534904,0.007995585,0.08557107
1764767139.4232624,-2.65524,1.61756,0.4578,0.98534904,0.007995585,0.08557107
1764767139.4232624,-2.65524,1.61756,0.4578,0.98534904,0.007995585,0.08557107
1764767139.469425,-2.65524,1.61756,0.4578,0.98534904,0.007995585,0.08557107
1764767139.469425,-2.65524,1.61756,0.4578,0.98534904,0.007995585,0.08557107
1764767139.469425,-2.65524,1.61756,0.4578,0.98534904,0.007995585,0.08557107
1764767139.469425,-2.65524,1.61756,0.4578,0.98534904,0.007995585,0.08557107
1764767139.469425,-2.65524,1.61756,0.4578,0.98534904,0.007995585,0.08557107
1764767139.469425,-2.65524,1.61756,0.4578,0.98534904,0.007995585,0.08557107
1764767139.469425,-2.2127,2.10588,0.12208,0.98534904,0.00830076,0.08630349
1764767139.469425,-2.2127,2.10588,0.12208,0.98534904,0.00830076,0.08630349
1764767139.469425,-2.2127,2.10588,0.12208,0.98534904,0.00830076,0.08630349
1764767139.469425,-2.2127,2.10588,0.12208,0.98534904,0.00830076,0.08630349
1764767139.4704304,-2.2127,2.10588,0.12208,0.98534904,0.00830076,0.08630349
1764767139.4704304,-2.2127,2.10588,0.12208,0.98534904,0.00830076,0.08630349
1764767139.4704304,-2.2127,2.10588,0.12208,0.98534904,0.00830076,0.08630349
1764767139.4704304,-2.2127,2.10588,0.12208,0.98534904,0.00830076,0.08630349
1764767139.4704304,-2.2127,2.10588,0.12208,0.98534904,0.00830076,0.08630349
1764767139.4704304,-2.2127,2.10588,0.12208,0.98534904,0.00830076,0.08630349
1764767139.4704304,-1.96854,2.16692,0.48832,0.9851049,0.00891111,0.085998315
1764767139.4704304,-1.96854,2.16692,0.48832,0.9851049,0.00891111,0.085998315
1764767139.4704304,-1.96854,2.16692,0.48832,0.9851049,0.00891111,0.085998315
1764767139.4704304,-1.96854,2.16692,0.48832,0.9851049,0.00891111,0.085998315
1764767139.5163894,-1.96854,2.16692,0.48832,0.9851049,0.00891111,0.085998315
1764767139.5173953,-1.96854,2.16692,0.48832,0.9851049,0.00891111,0.085998315
1764767139.5173953,-1.96854,2.16692,0.48832,0.9851049,0.00891111,0.085998315
1764767139.5173953,-1.96854,2.16692,0.48832,0.9851049,0.00891111,0.085998315
1764767139.5173953,-1.96854,2.16692,0.48832,0.9851049,0.00891111,0.085998315
1764767139.5173953,-1.96854,2.16692,0.48832,0.9851049,0.00891111,0.085998315
1764767139.5173953,-2.4416,2.289,0.36624,0.984311445,0.009704565,0.08605935
1764767139.5173953,-2.4416,2.289,0.36624,0.984311445,0.009704565,0.08605935
1764767139.5173953,-2.4416,2.289,0.36624,0.984311445,0.009704565,0.08605935
1764767139.5173953,-2.4416,2.289,0.36624,0.984311445,0.009704565,0.08605935
1764767139.5173953,-2.4416,2.289,0.36624,0.984311445,0.009704565,0.08605935
1764767139.5173953,-2.4416,2.289,0.36624,0.984311445,0.009704565,0.08605935
1764767139.5173953,-2.4416,2.289,0.36624,0.984311445,0.009704565,0.08605935
1764767139.5173953,-2.4416,2.289,0.36624,0.984311445,0.009704565,0.08605935
1764767139.5173953,-2.4416,2.289,0.36624,0.984311445,0.009704565,0.08605935
1764767139.5173953,-2.4416,2.289,0.36624,0.984311445,0.009704565,0.08605935
1764767139.5173953,-2.57894,1.6022999999999998,0.59514,0.98364006,0.010925265,0.08630349
1764767139.5173953,-2.57894,1.6022999999999998,0.59514,0.98364006,0.010925265,0.08630349
1764767139.5173953,-2.57894,1.6022999999999998,0.59514,0.98364006,0.010925265,0.08630349
1764767139.5173953,-2.57894,1.6022999999999998,0.59514,0.98364006,0.010925265,0.08630349
1764767139.5173953,-2.57894,1.6022999999999998,0.59514,0.98364006,0.010925265,0.08630349
1764767139.5173953,-2.57894,1.6022999999999998,0.59514,0.98364006,0.010925265,0.08630349
1764767139.5173953,-2.57894,1.6022999999999998,0.59514,0.98364006,0.010925265,0.08630349
1764767139.5173953,-2.57894,1.6022999999999998,0.59514,0.98364006,0.010925265,0.08630349
1764767139.5611467,-2.57894,1.6022999999999998,0.59514,0.98364006,0.010925265,0.08630349
1764767139.5611467,-2.57894,1.6022999999999998,0.59514,0.98364006,0.010925265,0.08630349
1764767139.5611467,-3.17408,1.11398,1.08346,0.983334885,0.011169405,0.08703591
1764767139.5611467,-3.17408,1.11398,1.08346,0.983334885,0.011169405,0.08703591
1764767139.5611467,-3.17408,1.11398,1.08346,0.983334885,0.011169405,0.08703591
1764767139.5611467,-3.17408,1.11398,1.08346,0.983334885,0.011169405,0.08703591
1764767139.5611467,-3.17408,1.11398,1.08346,0.983334885,0.011169405,0.08703591
1764767139.5611467,-3.17408,1.11398,1.08346,0.983334885,0.011169405,0.08703591
1764767139.5611467,-3.17408,1.11398,1.08346,0.983334885,0.011169405,0.08703591
1764767139.5611467,-3.17408,1.11398,1.08346,0.983334885,0.011169405,0.08703591
1764767139.5611467,-3.17408,1.11398,1.08346,0.983334885,0.011169405,0.08703591
1764767139.5611467,-3.17408,1.11398,1.08346,0.983334885,0.011169405,0.08703591
1764767139.5611467,-2.8994,1.05294,1.49548,0.983579025,0.01171872,0.087219015
1764767139.5611467,-2.8994,1.05294,1.49548,0.983579025,0.01171872,0.087219015
1764767139.5611467,-2.8994,1.05294,1.49548,0.983579025,0.01171872,0.087219015
1764767139.5611467,-2.8994,1.05294,1.49548,0.983579025,0.01171872,0.087219015
1764767139.5611467,-2.8994,1.05294,1.49548,0.983579025,0.01171872,0.087219015
1764767139.5611467,-2.8994,1.05294,1.49548,0.983579025,0.01171872,0.087219015
1764767139.5611467,-2.8994,1.05294,1.49548,0.983579025,0.01171872,0.087219015
1764767139.5611467,-2.8994,1.05294,1.49548,0.983579025,0.01171872,0.087219015
1764767139.5611467,-2.8994,1.05294,1.49548,0.983579025,0.01171872,0.087219015
1764767139.5611467,-2.8994,1.05294,1.49548,0.983579025,0.01171872,0.087219015
1764767139.5611467,-3.09778,1.41918,1.2208,0.984799725,0.01147458,0.08728005
1764767139.5611467,-3.09778,1.41918,1.2208,0.984799725,0.01147458,0.08728005
1764767139.607563,-3.09778,1.41918,1.2208,0.984799725,0.01147458,0.08728005
1764767139.607563,-3.09778,1.41918,1.2208,0.984799725,0.01147458,0.08728005
1764767139.607563,-3.09778,1.41918,1.2208,0.984799725,0.01147458,0.08728005
1764767139.607563,-3.09778,1.41918,1.2208,0.984799725,0.01147458,0.08728005
1764767139.607563,-3.09778,1.41918,1.2208,0.984799725,0.01147458,0.08728005
1764767139.607563,-3.09778,1.41918,1.2208,0.984799725,0.01147458,0.08728005
1764767139.607563,-3.09778,1.41918,1.2208,0.984799725,0.01147458,0.08728005
1764767139.60808,-3.09778,1.41918,1.2208,0.984799725,0.01147458,0.08728005
1764767139.60808,-3.29616,1.15976,1.49548,0.983579025,0.011535615,0.08703591
1764767139.60808,-3.29616,1.15976,1.49548,0.983579025,0.011535615,0.08703591
1764767139.60808,-3.29616,1.15976,1.49548,0.983579025,0.011535615,0.08703591
1764767139.60808,-3.29616,1.15976,1.49548,0.983579025,0.011535615,0.08703591
1764767139.60808,-3.29616,1.15976,1.49548,0.983579025,0.011535615,0.08703591
1764767139.60808,-3.29616,1.15976,1.49548,0.983579025,0.011535615,0.08703591
1764767139.60808,-3.29616,1.15976,1.49548,0.983579025,0.011535615,0.08703591
1764767139.60808,-3.29616,1.15976,1.49548,0.983579025,0.011535615,0.08703591
1764767139.60808,-3.29616,1.15976,1.49548,0.983579025,0.011535615,0.08703591
1764767139.60808,-3.29616,1.15976,1.49548,0.983579025,0.011535615,0.08703591
1764767139.60808,-3.3572,0.36624,1.86172,0.98315178,0.010559055,0.08740212
1764767139.60808,-3.3572,0.36624,1.86172,0.98315178,0.010559055,0.08740212
1764767139.60808,-3.3572,0.36624,1.86172,0.98315178,0.010559055,0.08740212
1764767139.60808,-3.3572,0.36624,1.86172,0.98315178,0.010559055,0.08740212
1764767139.60808,-3.3572,0.36624,1.86172,0.98315178,0.010559055,0.08740212
1764767139.60808,-3.3572,0.36624,1.86172,0.98315178,0.010559055,0.08740212
1764767139.654245,-3.3572,0.36624,1.86172,0.98315178,0.010559055,0.08740212
1764767139.654245,-3.3572,0.36624,1.86172,0.98315178,0.010559055,0.08740212
1764767139.654245,-3.3572,0.36624,1.86172,0.98315178,0.010559055,0.08740212
1764767139.654245,-3.3572,0.36624,1.86172,0.98315178,0.010559055,0.08740212
1764767139.654245,-2.85362,0.79352,1.92276,0.984799725,0.01062009,0.0878904
1764767139.654245,-2.85362,0.79352,1.92276,0.984799725,0.01062009,0.0878904
1764767139.654245,-2.85362,0.79352,1.92276,0.984799725,0.01062009,0.0878904
1764767139.654245,-2.85362,0.79352,1.92276,0.984799725,0.01062009,0.0878904
1764767139.654245,-2.85362,0.79352,1.92276,0.984799725,0.01062009,0.0878904
1764767139.654245,-2.85362,0.79352,1.92276,0.984799725,0.01062009,0.0878904
1764767139.654245,-2.85362,0.79352,1.92276,0.984799725,0.01062009,0.0878904
1764767139.654245,-2.85362,0.79352,1.92276,0.984799725,0.01062009,0.0878904
1764767139.655265,-2.85362,0.79352,1.92276,0.984799725,0.01062009,0.0878904
1764767139.655265,-2.85362,0.79352,1.92276,0.984799725,0.01062009,0.0878904
1764767139.655265,-2.85362,1.43444,1.31236,0.98534904,0.009338355,0.087829365
1764767139.655265,-2.85362,1.43444,1.31236,0.98534904,0.009338355,0.087829365
1764767139.655265,-2.85362,1.43444,1.31236,0.98534904,0.009338355,0.087829365
1764767139.655265,-2.85362,1.43444,1.31236,0.98534904,0.009338355,0.087829365
1764767139.655265,-2.85362,1.43444,1.31236,0.98534904,0.009338355,0.087829365
1764767139.655265,-2.85362,1.43444,1.31236,0.98534904,0.009338355,0.087829365
1764767139.655265,-2.85362,1.43444,1.31236,0.98534904,0.009338355,0.087829365
1764767139.655265,-2.85362,1.43444,1.31236,0.98534904,0.009338355,0.087829365
1764767139.655265,-2.85362,1.43444,1.31236,0.98534904,0.009338355,0.087829365
1764767139.655265,-2.85362,1.43444,1.31236,0.98534904,0.009338355,0.087829365
1764767139.7020435,-2.71628,1.84646,0.59514,0.985654215,0.008239725,0.08715798
1764767139.7020435,-2.71628,1.84646,0.59514,0.985654215,0.008239725,0.08715798
1764767139.7030945,-2.71628,1.84646,0.59514,0.985654215,0.008239725,0.08715798
1764767139.7030945,-2.71628,1.84646,0.59514,0.985654215,0.008239725,0.08715798
1764767139.7030945,-2.71628,1.84646,0.59514,0.985654215,0.008239725,0.08715798
1764767139.7030945,-2.71628,1.84646,0.59514,0.985654215,0.008239725,0.08715798
1764767139.7030945,-2.71628,1.84646,0.59514,0.985654215,0.008239725,0.08715798
1764767139.7030945,-2.71628,1.84646,0.59514,0.985654215,0.008239725,0.08715798
1764767139.7030945,-2.71628,1.84646,0.59514,0.985654215,0.008239725,0.08715798
1764767139.7030945,-2.71628,1.84646,0.59514,0.985654215,0.008239725,0.08715798
1764767139.7030945,-1.73964,1.93802,0.54936,0.98571525,0.007141095,0.087707295
1764767139.7030945,-1.73964,1.93802,0.54936,0.98571525,0.007141095,0.087707295
1764767139.7030945,-1.73964,1.93802,0.54936,0.98571525,0.007141095,0.087707295
1764767139.7030945,-1.73964,1.93802,0.54936,0.98571525,0.007141095,0.087707295
1764767139.7030945,-1.73964,1.93802,0.54936,0.98571525,0.007141095,0.087707295
1764767139.7030945,-1.73964,1.93802,0.54936,0.98571525,0.007141095,0.087707295
1764767139.7030945,-1.73964,1.93802,0.54936,0.98571525,0.007141095,0.087707295
1764767139.7030945,-1.73964,1.93802,0.54936,0.98571525,0.007141095,0.087707295
1764767139.7030945,-1.73964,1.93802,0.54936,0.98571525,0.007141095,0.087707295
1764767139.7041306,-1.73964,1.93802,0.54936,0.98571525,0.007141095,0.087707295
1764767139.7041306,-1.6633399999999998,1.4039199999999998,1.03768,0.983334885,0.007019025,0.087829365
1764767139.7041306,-1.6633399999999998,1.4039199999999998,1.03768,0.983334885,0.007019025,0.087829365
