Timestamp,GyroX,GyroY,GyroZ,AccX,AccY,AccZ
1764505021.0212607,-4.1965,1.92276,-0.93086,0.991147365,0.009460425,0.01660152
1764505021.0212607,-4.1965,1.92276,-0.93086,0.991147365,0.009460425,0.01660152
1764505021.0212607,-4.16598,1.7549,-0.3051999999999999,0.9912084,0.01074216,0.01672359
1764505021.0212607,-4.16598,1.7549,-0.3051999999999999,0.9912084,0.01074216,0.01672359
1764505021.0212607,-4.16598,1.7549,-0.3051999999999999,0.9912084,0.01074216,0.01672359
1764505021.0212607,-4.16598,1.7549,-0.3051999999999999,0.9912084,0.01074216,0.01672359
1764505021.0212607,-4.16598,1.7549,-0.3051999999999999,0.9912084,0.01074216,0.01672359
1764505021.0212607,-4.16598,1.7549,-0.3051999999999999,0.9912084,0.01074216,0.01672359
1764505021.0212607,-4.16598,1.7549,-0.3051999999999999,0.9912084,0.01074216,0.01672359
1764505021.0212607,-4.16598,1.7549,-0.3051999999999999,0.9912084,0.01074216,0.01672359
1764505021.0212607,-4.16598,1.7549,-0.3051999999999999,0.9912084,0.01074216,0.01672359
1764505021.0212607,-4.16598,1.7549,-0.3051999999999999,0.9912084,0.01074216,0.01672359
1764505021.022262,-4.715339999999999,1.81594,0.36624,0.99035391,0.010436985,0.016784625
1764505021.022262,-4.715339999999999,1.81594,0.36624,0.99035391,0.010436985,0.016784625
1764505021.022262,-4.715339999999999,1.81594,0.36624,0.99035391,0.010436985,0.016784625
1764505021.022262,-4.715339999999999,1.81594,0.36624,0.99035391,0.010436985,0.016784625
1764505021.022262,-4.715339999999999,1.81594,0.36624,0.99035391,0.010436985,0.016784625
1764505021.022262,-4.715339999999999,1.81594,0.36624,0.99035391,0.010436985,0.016784625
1764505021.022262,-4.715339999999999,1.81594,0.36624,0.99035391,0.010436985,0.016784625
1764505021.022262,-4.715339999999999,1.81594,0.36624,0.99035391,0.010436985,0.016784625
1764505021.022262,-4.715339999999999,1.81594,0.36624,0.99035391,0.010436985,0.016784625
1764505021.022262,-4.715339999999999,1.81594,0.36624,0.99035391,0.010436985,0.016784625
1764505021.022262,-4.18124,0.96138,1.1445,0.98913321,0.00891111,0.017150835
1764505021.022262,-4.18124,0.96138,1.1445,0.98913321,0.00891111,0.017150835
1764505021.0661557,-4.18124,0.96138,1.1445,0.98913321,0.00891111,0.017150835
1764505021.0661557,-4.18124,0.96138,1.1445,0.98913321,0.00891111,0.017150835
1764505021.0661557,-4.18124,0.96138,1.1445,0.98913321,0.00891111,0.017150835
1764505021.0661557,-4.18124,0.96138,1.1445,0.98913321,0.00891111,0.017150835
1764505021.0661557,-4.18124,0.96138,1.1445,0.98913321,0.00891111,0.017150835
1764505021.0661557,-4.18124,0.96138,1.1445,0.98913321,0.00891111,0.017150835
1764505021.0661557,-4.18124,0.96138,1.1445,0.98913321,0.00891111,0.017150835
1764505021.0661557,-4.18124,0.96138,1.1445,0.98913321,0.00891111,0.017150835
1764505021.0661557,-3.40298,0.74774,1.41918,0.98949942,0.007141095,0.017272905
1764505021.0661557,-3.40298,0.74774,1.41918,0.98949942,0.007141095,0.017272905
1764505021.0661557,-3.40298,0.74774,1.41918,0.98949942,0.007141095,0.017272905
1764505021.0661557,-3.40298,0.74774,1.41918,0.98949942,0.007141095,0.017272905
1764505021.0661557,-3.40298,0.74774,1.41918,0.98949942,0.007141095,0.017272905
1764505021.0661557,-3.40298,0.74774,1.41918,0.98949942,0.007141095,0.017272905
1764505021.0661557,-3.40298,0.74774,1.41918,0.98949942,0.007141095,0.017272905
1764505021.0661557,-3.40298,0.74774,1.41918,0.98949942,0.007141095,0.017272905
1764505021.0661557,-3.40298,0.74774,1.41918,0.98949942,0.007141095,0.017272905
1764505021.0661557,-3.40298,0.74774,1.41918,0.98949942,0.007141095,0.017272905
1764505021.0661557,-3.25038,0.42728,0.97664,0.989438385,0.006408675,0.01696773
1764505021.0661557,-3.25038,0.42728,0.97664,0.989438385,0.006408675,0.01696773
1764505021.0676963,-3.25038,0.42728,0.97664,0.989438385,0.006408675,0.01696773
1764505021.0676963,-3.25038,0.42728,0.97664,0.989438385,0.006408675,0.01696773
1764505021.1126373,-3.25038,0.42728,0.97664,0.989438385,0.006408675,0.01696773
1764505021.1126373,-3.25038,0.42728,0.97664,0.989438385,0.006408675,0.01696773
1764505021.1126373,-3.25038,0.42728,0.97664,0.989438385,0.006408675,0.01696773
1764505021.113684,-3.25038,0.42728,0.97664,0.989438385,0.006408675,0.01696773
1764505021.113684,-3.25038,0.42728,0.97664,0.989438385,0.006408675,0.01696773
1764505021.113684,-3.25038,0.42728,0.97664,0.989438385,0.006408675,0.01696773
1764505021.113684,-3.14356,0.6103999999999999,1.31236,0.989804595,0.006408675,0.016296345
1764505021.113684,-3.14356,0.6103999999999999,1.31236,0.989804595,0.006408675,0.016296345
1764505021.113684,-3.14356,0.6103999999999999,1.31236,0.989804595,0.006408675,0.016296345
1764505021.113684,-3.14356,0.6103999999999999,1.31236,0.989804595,0.006408675,0.016296345
1764505021.113684,-3.14356,0.6103999999999999,1.31236,0.989804595,0.006408675,0.016296345
1764505021.113684,-3.14356,0.6103999999999999,1.31236,0.989804595,0.006408675,0.016296345
1764505021.113684,-3.14356,0.6103999999999999,1.31236,0.989804595,0.006408675,0.016296345
1764505021.113684,-3.14356,0.6103999999999999,1.31236,0.989804595,0.006408675,0.016296345
1764505021.113684,-3.14356,0.6103999999999999,1.31236,0.989804595,0.006408675,0.016296345
1764505021.113684,-3.14356,0.6103999999999999,1.31236,0.989804595,0.006408675,0.016296345
1764505021.113684,-3.54032,0.57988,0.8698199999999999,0.990170805,0.006896955,0.015075645
1764505021.113684,-3.54032,0.57988,0.8698199999999999,0.990170805,0.006896955,0.015075645
1764505021.1146824,-3.54032,0.57988,0.8698199999999999,0.990170805,0.006896955,0.015075645
1764505021.1146824,-3.54032,0.57988,0.8698199999999999,0.990170805,0.006896955,0.015075645
1764505021.1146824,-3.54032,0.57988,0.8698199999999999,0.990170805,0.006896955,0.015075645
1764505021.1146824,-3.54032,0.57988,0.8698199999999999,0.990170805,0.006896955,0.015075645
1764505021.1146824,-3.54032,0.57988,0.8698199999999999,0.990170805,0.006896955,0.015075645
1764505021.1146824,-3.54032,0.57988,0.8698199999999999,0.990170805,0.006896955,0.015075645
1764505021.1623704,-3.54032,0.57988,0.8698199999999999,0.990170805,0.006896955,0.015075645
1764505021.1623704,-3.54032,0.57988,0.8698199999999999,0.990170805,0.006896955,0.015075645
1764505021.1623704,-4.2728,0.763,0.79352,0.990292875,0.007019025,0.014465295
1764505021.1623704,-4.2728,0.763,0.79352,0.990292875,0.007019025,0.014465295
1764505021.1623704,-4.2728,0.763,0.79352,0.990292875,0.007019025,0.014465295
1764505021.1623704,-4.2728,0.763,0.79352,0.990292875,0.007019025,0.014465295
1764505021.1623704,-4.2728,0.763,0.79352,0.990292875,0.007019025,0.014465295
1764505021.1623704,-4.2728,0.763,0.79352,0.990292875,0.007019025,0.014465295
1764505021.1623704,-4.2728,0.763,0.79352,0.990292875,0.007019025,0.014465295
1764505021.1623704,-4.2728,0.763,0.79352,0.990292875,0.007019025,0.014465295
1764505021.1623704,-4.2728,0.763,0.79352,0.990292875,0.007019025,0.014465295
1764505021.1623704,-4.2728,0.763,0.79352,0.990292875,0.007019025,0.014465295
1764505021.1623704,-4.6543,1.09872,0.5341,0.99157461,0.00683592,0.01403805
1764505021.1623704,-4.6543,1.09872,0.5341,0.99157461,0.00683592,0.01403805
1764505021.1623704,-4.6543,1.09872,0.5341,0.99157461,0.00683592,0.01403805
1764505021.1623704,-4.6543,1.09872,0.5341,0.99157461,0.00683592,0.01403805
1764505021.1623704,-4.6543,1.09872,0.5341,0.99157461,0.00683592,0.01403805
1764505021.1623704,-4.6543,1.09872,0.5341,0.99157461,0.00683592,0.01403805
1764505021.1623704,-4.6543,1.09872,0.5341,0.99157461,0.00683592,0.01403805
1764505021.1623704,-4.6543,1.09872,0.5341,0.99157461,0.00683592,0.01403805
1764505021.1623704,-4.6543,1.09872,0.5341,0.99157461,0.00683592,0.01403805
1764505021.1623704,-4.6543,1.09872,0.5341,0.99157461,0.00683592,0.01403805
1764505021.2095056,-4.63904,1.38866,0.1678599999999999,0.991757715,0.00695799,0.01367184
1764505021.2095056,-4.63904,1.38866,0.1678599999999999,0.991757715,0.00695799,0.01367184
1764505021.2095056,-4.63904,1.38866,0.1678599999999999,0.991757715,0.00695799,0.01367184
1764505021.2095056,-4.63904,1.38866,0.1678599999999999,0.991757715,0.00695799,0.01367184
1764505021.2095056,-4.63904,1.38866,0.1678599999999999,0.991757715,0.00695799,0.01367184
1764505021.2095056,-4.63904,1.38866,0.1678599999999999,0.991757715,0.00695799,0.01367184
1764505021.2095056,-4.63904,1.38866,0.1678599999999999,0.991757715,0.00695799,0.01367184
1764505021.2095056,-4.63904,1.38866,0.1678599999999999,0.991757715,0.00695799,0.01367184
1764505021.2095056,-4.63904,1.38866,0.1678599999999999,0.991757715,0.00695799,0.01367184
1764505021.2095056,-4.63904,1.38866,0.1678599999999999,0.991757715,0.00695799,0.01367184
1764505021.2095056,-4.24228,1.43444,0.3357199999999999,0.991635645,0.00683592,0.01428219
1764505021.2095056,-4.24228,1.43444,0.3357199999999999,0.991635645,0.00683592,0.01428219
1764505021.2095056,-4.24228,1.43444,0.3357199999999999,0.991635645,0.00683592,0.01428219
1764505021.2095056,-4.24228,1.43444,0.3357199999999999,0.991635645,0.00683592,0.01428219
1764505021.2095056,-4.24228,1.43444,0.3357199999999999,0.991635645,0.00683592,0.01428219
1764505021.2095056,-4.24228,1.43444,0.3357199999999999,0.991635645,0.00683592,0.01428219
1764505021.2095056,-4.24228,1.43444,0.3357199999999999,0.991635645,0.00683592,0.01428219
1764505021.2104852,-4.24228,1.43444,0.3357199999999999,0.991635645,0.00683592,0.01428219
1764505021.2104852,-4.24228,1.43444,0.3357199999999999,0.991635645,0.00683592,0.01428219
1764505021.2104852,-4.24228,1.43444,0.3357199999999999,0.991635645,0.00683592,0.01428219
1764505021.2104852,-3.98286,1.58704,0.09156,0.99157461,0.00671385,0.014831505
1764505021.2104852,-3.98286,1.58704,0.09156,0.99157461,0.00671385,0.014831505
1764505021.2104852,-3.98286,1.58704,0.09156,0.99157461,0.00671385,0.014831505
1764505021.2104852,-3.98286,1.58704,0.09156,0.99157461,0.00671385,0.014831505
1764505021.255617,-3.98286,1.58704,0.09156,0.99157461,0.00671385,0.014831505
1764505021.255617,-3.98286,1.58704,0.09156,0.99157461,0.00671385,0.014831505
1764505021.255617,-3.98286,1.58704,0.09156,0.99157461,0.00671385,0.014831505
1764505021.255617,-3.98286,1.58704,0.09156,0.99157461,0.00671385,0.014831505
1764505021.255617,-3.98286,1.58704,0.09156,0.99157461,0.00671385,0.014831505
1764505021.255617,-3.98286,1.58704,0.09156,0.99157461,0.00671385,0.014831505
1764505021.255617,-3.92182,1.6633399999999998,-0.01526,0.99291738,0.005920395,0.015685995
1764505021.255617,-3.92182,1.6633399999999998,-0.01526,0.99291738,0.005920395,0.015685995
1764505021.255617,-3.92182,1.6633399999999998,-0.01526,0.99291738,0.005920395,0.015685995
1764505021.255617,-3.92182,1.6633399999999998,-0.01526,0.99291738,0.005920395,0.015685995
1764505021.255617,-3.92182,1.6633399999999998,-0.01526,0.99291738,0.005920395,0.015685995
1764505021.255617,-3.92182,1.6633399999999998,-0.01526,0.99291738,0.005920395,0.015685995
1764505021.255617,-3.92182,1.6633399999999998,-0.01526,0.99291738,0.005920395,0.015685995
1764505021.255617,-3.92182,1.6633399999999998,-0.01526,0.99291738,0.005920395,0.015685995
1764505021.255617,-3.92182,1.6633399999999998,-0.01526,0.99291738,0.005920395,0.015685995
1764505021.255617,-3.92182,1.6633399999999998,-0.01526,0.99291738,0.005920395,0.015685995
1764505021.255617,-2.71628,1.72438,0.62566,0.9912084,0.00537108,0.016540485
1764505021.2566175,-2.71628,1.72438,0.62566,0.9912084,0.00537108,0.016540485
1764505021.2566175,-2.71628,1.72438,0.62566,0.9912084,0.00537108,0.016540485
1764505021.2566175,-2.71628,1.72438,0.62566,0.9912084,0.00537108,0.016540485
1764505021.2566175,-2.71628,1.72438,0.62566,0.9912084,0.00537108,0.016540485
1764505021.2566175,-2.71628,1.72438,0.62566,0.9912084,0.00537108,0.016540485
1764505021.2566175,-2.71628,1.72438,0.62566,0.9912084,0.00537108,0.016540485
1764505021.2566175,-2.71628,1.72438,0.62566,0.9912084,0.00537108,0.016540485
1764505021.2997274,-2.71628,1.72438,0.62566,0.9912084,0.00537108,0.016540485
1764505021.2997274,-2.71628,1.72438,0.62566,0.9912084,0.00537108,0.016540485
1764505021.2997274,-2.92992,1.1445,0.9156,0.98815665,0.00622557,0.01660152
1764505021.2997274,-2.92992,1.1445,0.9156,0.98815665,0.00622557,0.01660152
1764505021.2997274,-2.92992,1.1445,0.9156,0.98815665,0.00622557,0.01660152
1764505021.2997274,-2.92992,1.1445,0.9156,0.98815665,0.00622557,0.01660152
1764505021.3012614,-2.92992,1.1445,0.9156,0.98815665,0.00622557,0.01660152
1764505021.3012614,-2.92992,1.1445,0.9156,0.98815665,0.00622557,0.01660152
1764505021.3012614,-2.92992,1.1445,0.9156,0.98815665,0.00622557,0.01660152
1764505021.3012614,-2.92992,1.1445,0.9156,0.98815665,0.00622557,0.01660152
1764505021.3012614,-2.92992,1.1445,0.9156,0.98815665,0.00622557,0.01660152
1764505021.3012614,-2.92992,1.1445,0.9156,0.98815665,0.00622557,0.01660152
1764505021.3012614,-3.26564,0.51884,0.96138,0.989316315,0.006408675,0.016296345
1764505021.3012614,-3.26564,0.51884,0.96138,0.989316315,0.006408675,0.016296345
1764505021.3012614,-3.26564,0.51884,0.96138,0.989316315,0.006408675,0.016296345
1764505021.302273,-3.26564,0.51884,0.96138,0.989316315,0.006408675,0.016296345
1764505021.302273,-3.26564,0.51884,0.96138,0.989316315,0.006408675,0.016296345
1764505021.302273,-3.26564,0.51884,0.96138,0.989316315,0.006408675,0.016296345
1764505021.302273,-3.26564,0.51884,0.96138,0.989316315,0.006408675,0.016296345
1764505021.302273,-3.26564,0.51884,0.96138,0.989316315,0.006408675,0.016296345
1764505021.3032744,-3.26564,0.51884,0.96138,0.989316315,0.006408675,0.016296345
1764505021.3032744,-3.26564,0.51884,0.96138,0.989316315,0.006408675,0.016296345
1764505021.3032744,-3.6624,0.27468,-0.3204599999999999,0.990903225,0.00781248,0.01647945
1764505021.3032744,-3.6624,0.27468,-0.3204599999999999,0.990903225,0.00781248,0.01647945
1764505021.3469467,-3.6624,0.27468,-0.3204599999999999,0.990903225,0.00781248,0.01647945
1764505021.3469467,-3.6624,0.27468,-0.3204599999999999,0.990903225,0.00781248,0.01647945
1764505021.3469467,-3.6624,0.27468,-0.3204599999999999,0.990903225,0.00781248,0.01647945
1764505021.3474965,-3.6624,0.27468,-0.3204599999999999,0.990903225,0.00781248,0.01647945
1764505021.3474965,-3.6624,0.27468,-0.3204599999999999,0.990903225,0.00781248,0.01647945
1764505021.3474965,-3.6624,0.27468,-0.3204599999999999,0.990903225,0.00781248,0.01647945
1764505021.3474965,-3.6624,0.27468,-0.3204599999999999,0.990903225,0.00781248,0.01647945
1764505021.3474965,-3.6624,0.27468,-0.3204599999999999,0.990903225,0.00781248,0.01647945
1764505021.3474965,-4.31858,0.3815,-0.42728,0.992123925,0.008728005,0.015930135
1764505021.3474965,-4.31858,0.3815,-0.42728,0.992123925,0.008728005,0.015930135
1764505021.3474965,-4.31858,0.3815,-0.42728,0.992123925,0.008728005,0.015930135
1764505021.3474965,-4.31858,0.3815,-0.42728,0.992123925,0.008728005,0.015930135
1764505021.3474965,-4.31858,0.3815,-0.42728,0.992123925,0.008728005,0.015930135
1764505021.3474965,-4.31858,0.3815,-0.42728,0.992123925,0.008728005,0.015930135
1764505021.3474965,-4.31858,0.3815,-0.42728,0.992123925,0.008728005,0.015930135
1764505021.3474965,-4.31858,0.3815,-0.42728,0.992123925,0.008728005,0.015930135
1764505021.3474965,-4.31858,0.3815,-0.42728,0.992123925,0.008728005,0.015930135
1764505021.3474965,-4.31858,0.3815,-0.42728,0.992123925,0.008728005,0.015930135
1764505021.3474965,-4.37962,1.12924,0.19838,0.9912084,0.0097656,0.01599117
1764505021.3474965,-4.37962,1.12924,0.19838,0.9912084,0.0097656,0.01599117
1764505021.3474965,-4.37962,1.12924,0.19838,0.9912084,0.0097656,0.01599117
1764505021.3474965,-4.37962,1.12924,0.19838,0.9912084,0.0097656,0.01599117
1764505021.3474965,-4.37962,1.12924,0.19838,0.9912084,0.0097656,0.01599117
1764505021.3474965,-4.37962,1.12924,0.19838,0.9912084,0.0097656,0.01599117
1764505021.396025,-4.37962,1.12924,0.19838,0.9912084,0.0097656,0.01599117
1764505021.396025,-4.37962,1.12924,0.19838,0.9912084,0.0097656,0.01599117
1764505021.396025,-4.37962,1.12924,0.19838,0.9912084,0.0097656,0.01599117
1764505021.396025,-4.37962,1.12924,0.19838,0.9912084,0.0097656,0.01599117
1764505021.396025,-4.45592,1.63282,0.59514,0.99035391,0.00964353,0.01574703
1764505021.396025,-4.45592,1.63282,0.59514,0.99035391,0.00964353,0.01574703
1764505021.396025,-4.45592,1.63282,0.59514,0.99035391,0.00964353,0.01574703
1764505021.396025,-4.45592,1.63282,0.59514,0.99035391,0.00964353,0.01574703
1764505021.396025,-4.45592,1.63282,0.59514,0.99035391,0.00964353,0.01574703
1764505021.396025,-4.45592,1.63282,0.59514,0.99035391,0.00964353,0.01574703
1764505021.396025,-4.45592,1.63282,0.59514,0.99035391,0.00964353,0.01574703
1764505021.396025,-4.45592,1.63282,0.59514,0.99035391,0.00964353,0.01574703
1764505021.396025,-4.45592,1.63282,0.59514,0.99035391,0.00964353,0.01574703
1764505021.396025,-4.45592,1.63282,0.59514,0.99035391,0.00964353,0.01574703
1764505021.396025,-4.0439,1.1445,1.08346,0.99010977,0.009338355,0.015563925
1764505021.396025,-4.0439,1.1445,1.08346,0.99010977,0.009338355,0.015563925
1764505021.396025,-4.0439,1.1445,1.08346,0.99010977,0.009338355,0.015563925
1764505021.396025,-4.0439,1.1445,1.08346,0.99010977,0.009338355,0.015563925
1764505021.397025,-4.0439,1.1445,1.08346,0.99010977,0.009338355,0.015563925
1764505021.397025,-4.0439,1.1445,1.08346,0.99010977,0.009338355,0.015563925
1764505021.397025,-4.0439,1.1445,1.08346,0.99010977,0.009338355,0.015563925
1764505021.397025,-4.0439,1.1445,1.08346,0.99010977,0.009338355,0.015563925
1764505021.4408145,-4.0439,1.1445,1.08346,0.99010977,0.009338355,0.015563925
1764505021.4408145,-4.0439,1.1445,1.08346,0.99010977,0.009338355,0.015563925
1764505021.4408145,-3.18934,1.3734,0.96138,0.990903225,0.00720213,0.016418415
1764505021.4408145,-3.18934,1.3734,0.96138,0.990903225,0.00720213,0.016418415
1764505021.4408145,-3.18934,1.3734,0.96138,0.990903225,0.00720213,0.016418415
1764505021.4408145,-3.18934,1.3734,0.96138,0.990903225,0.00720213,0.016418415
1764505021.4408145,-3.18934,1.3734,0.96138,0.990903225,0.00720213,0.016418415
1764505021.4408145,-3.18934,1.3734,0.96138,0.990903225,0.00720213,0.016418415
1764505021.4418542,-3.18934,1.3734,0.96138,0.990903225,0.00720213,0.016418415
1764505021.4418542,-3.18934,1.3734,0.96138,0.990903225,0.00720213,0.016418415
1764505021.4418542,-3.18934,1.3734,0.96138,0.990903225,0.00720213,0.016418415
1764505021.4418542,-3.18934,1.3734,0.96138,0.990903225,0.00720213,0.016418415
1764505021.4418542,-2.60946,1.25132,1.28184,0.990414945,0.007019025,0.016418415
1764505021.4418542,-2.60946,1.25132,1.28184,0.990414945,0.007019025,0.016418415
1764505021.4418542,-2.60946,1.25132,1.28184,0.990414945,0.007019025,0.016418415
1764505021.4418542,-2.60946,1.25132,1.28184,0.990414945,0.007019025,0.016418415
1764505021.4418542,-2.60946,1.25132,1.28184,0.990414945,0.007019025,0.016418415
1764505021.4418542,-2.60946,1.25132,1.28184,0.990414945,0.007019025,0.016418415
1764505021.4418542,-2.60946,1.25132,1.28184,0.990414945,0.007019025,0.016418415
1764505021.4418542,-2.60946,1.25132,1.28184,0.990414945,0.007019025,0.016418415
1764505021.4418542,-2.60946,1.25132,1.28184,0.990414945,0.007019025,0.016418415
1764505021.4418542,-2.60946,1.25132,1.28184,0.990414945,0.007019025,0.016418415
1764505021.484902,-2.3653,1.2055399999999998,1.78542,0.990414945,0.006896955,0.01672359
1764505021.484902,-2.3653,1.2055399999999998,1.78542,0.990414945,0.006896955,0.01672359
1764505021.484902,-2.3653,1.2055399999999998,1.78542,0.990414945,0.006896955,0.01672359
1764505021.484902,-2.3653,1.2055399999999998,1.78542,0.990414945,0.006896955,0.01672359
1764505021.484902,-2.3653,1.2055399999999998,1.78542,0.990414945,0.006896955,0.01672359
1764505021.484902,-2.3653,1.2055399999999998,1.78542,0.990414945,0.006896955,0.01672359
1764505021.484902,-2.3653,1.2055399999999998,1.78542,0.990414945,0.006896955,0.01672359
1764505021.484902,-2.3653,1.2055399999999998,1.78542,0.990414945,0.006896955,0.01672359
1764505021.484902,-2.3653,1.2055399999999998,1.78542,0.990414945,0.006896955,0.01672359
1764505021.484902,-2.3653,1.2055399999999998,1.78542,0.990414945,0.006896955,0.01672359
1764505021.484902,-2.92992,0.4578,1.89224,0.98986563,0.008239725,0.016052205
1764505021.484902,-2.92992,0.4578,1.89224,0.98986563,0.008239725,0.016052205
1764505021.484902,-2.92992,0.4578,1.89224,0.98986563,0.008239725,0.016052205
1764505021.484902,-2.92992,0.4578,1.89224,0.98986563,0.008239725,0.016052205
1764505021.4865422,-2.92992,0.4578,1.89224,0.98986563,0.008239725,0.016052205
1764505021.4865422,-2.92992,0.4578,1.89224,0.98986563,0.008239725,0.016052205
1764505021.4865422,-2.92992,0.4578,1.89224,0.98986563,0.008239725,0.016052205
1764505021.4865422,-2.92992,0.4578,1.89224,0.98986563,0.008239725,0.016052205
1764505021.4865422,-2.92992,0.4578,1.89224,0.98986563,0.008239725,0.016052205
1764505021.4865422,-2.92992,0.4578,1.89224,0.98986563,0.008239725,0.016052205
1764505021.4865422,-3.79974,0.47306,1.8312,0.99059805,0.00866697,0.016052205
1764505021.4865422,-3.79974,0.47306,1.8312,0.99059805,0.00866697,0.016052205
1764505021.4865422,-3.79974,0.47306,1.8312,0.99059805,0.00866697,0.016052205
1764505021.4865422,-3.79974,0.47306,1.8312,0.99059805,0.00866697,0.016052205
1764505021.5356865,-3.79974,0.47306,1.8312,0.99059805,0.00866697,0.016052205
1764505021.5356865,-3.79974,0.47306,1.8312,0.99059805,0.00866697,0.016052205
1764505021.5356865,-3.79974,0.47306,1.8312,0.99059805,0.00866697,0.016052205
1764505021.5356865,-3.79974,0.47306,1.8312,0.99059805,0.00866697,0.016052205
1764505021.5356865,-3.79974,0.47306,1.8312,0.99059805,0.00866697,0.016052205
1764505021.5356865,-3.79974,0.47306,1.8312,0.99059805,0.00866697,0.016052205
1764505021.5356865,-4.77638,0.88508,1.35814,0.9912084,0.00939939,0.01623531
1764505021.5356865,-4.77638,0.88508,1.35814,0.9912084,0.00939939,0.01623531
1764505021.5356865,-4.77638,0.88508,1.35814,0.9912084,0.00939939,0.01623531
1764505021.5356865,-4.77638,0.88508,1.35814,0.9912084,0.00939939,0.01623531
1764505021.5356865,-4.77638,0.88508,1.35814,0.9912084,0.00939939,0.01623531
1764505021.5356865,-4.77638,0.88508,1.35814,0.9912084,0.00939939,0.01623531
1764505021.5356865,-4.77638,0.88508,1.35814,0.9912084,0.00939939,0.01623531
1764505021.5356865,-4.77638,0.88508,1.35814,0.9912084,0.00939939,0.01623531
1764505021.5356865,-4.77638,0.88508,1.35814,0.9912084,0.00939939,0.01623531
1764505021.5356865,-4.77638,0.88508,1.35814,0.9912084,0.00939939,0.01623531
1764505021.5356865,-5.81406,1.19028,1.48022,0.99059805,0.00805662,0.01623531
1764505021.5356865,-5.81406,1.19028,1.48022,0.99059805,0.00805662,0.01623531
1764505021.536689,-5.81406,1.19028,1.48022,0.99059805,0.00805662,0.01623531
1764505021.536689,-5.81406,1.19028,1.48022,0.99059805,0.00805662,0.01623531
1764505021.536689,-5.81406,1.19028,1.48022,0.99059805,0.00805662,0.01623531
1764505021.536689,-5.81406,1.19028,1.48022,0.99059805,0.00805662,0.01623531
1764505021.536689,-5.81406,1.19028,1.48022,0.99059805,0.00805662,0.01623531
1764505021.536689,-5.81406,1.19028,1.48022,0.99059805,0.00805662,0.01623531
1764505021.581614,-5.81406,1.19028,1.48022,0.99059805,0.00805662,0.01623531
1764505021.581614,-5.81406,1.19028,1.48022,0.99059805,0.00805662,0.01623531
1764505021.5826118,-5.15788,0.763,1.70912,0.98974356,0.005432115,0.01623531
1764505021.5826118,-5.15788,0.763,1.70912,0.98974356,0.005432115,0.01623531
1764505021.5826118,-5.15788,0.763,1.70912,0.98974356,0.005432115,0.01623531
1764505021.5826118,-5.15788,0.763,1.70912,0.98974356,0.005432115,0.01623531
1764505021.5826118,-5.15788,0.763,1.70912,0.98974356,0.005432115,0.01623531
1764505021.5826118,-5.15788,0.763,1.70912,0.98974356,0.005432115,0.01623531
1764505021.5826118,-5.15788,0.763,1.70912,0.98974356,0.005432115,0.01623531
1764505021.5826118,-5.15788,0.763,1.70912,0.98974356,0.005432115,0.01623531
1764505021.5826118,-5.15788,0.763,1.70912,0.98974356,0.005432115,0.01623531
1764505021.5826118,-5.15788,0.763,1.70912,0.98974356,0.005432115,0.01623531
1764505021.5826118,-4.94424,0.06104,1.19028,0.988461825,0.003234855,0.015563925
1764505021.5826118,-4.94424,0.06104,1.19028,0.988461825,0.003234855,0.015563925
1764505021.5826118,-4.94424,0.06104,1.19028,0.988461825,0.003234855,0.015563925
1764505021.5826118,-4.94424,0.06104,1.19028,0.988461825,0.003234855,0.015563925
1764505021.5826118,-4.94424,0.06104,1.19028,0.988461825,0.003234855,0.015563925
1764505021.584123,-4.94424,0.06104,1.19028,0.988461825,0.003234855,0.015563925
1764505021.584123,-4.94424,0.06104,1.19028,0.988461825,0.003234855,0.015563925
1764505021.584123,-4.94424,0.06104,1.19028,0.988461825,0.003234855,0.015563925
1764505021.584123,-4.94424,0.06104,1.19028,0.988461825,0.003234855,0.015563925
1764505021.584123,-4.94424,0.06104,1.19028,0.988461825,0.003234855,0.015563925
1764505021.584123,-4.07442,1.11398,0.1678599999999999,0.991391505,0.001159665,0.015808065
1764505021.584659,-4.07442,1.11398,0.1678599999999999,0.991391505,0.001159665,0.015808065
1764505021.6251848,-4.07442,1.11398,0.1678599999999999,0.991391505,0.001159665,0.015808065
1764505021.6257522,-4.07442,1.11398,0.1678599999999999,0.991391505,0.001159665,0.015808065
1764505021.6257522,-4.07442,1.11398,0.1678599999999999,0.991391505,0.001159665,0.015808065
1764505021.6257522,-4.07442,1.11398,0.1678599999999999,0.991391505,0.001159665,0.015808065
1764505021.6257522,-4.07442,1.11398,0.1678599999999999,0.991391505,0.001159665,0.015808065
1764505021.6257522,-4.07442,1.11398,0.1678599999999999,0.991391505,0.001159665,0.015808065
1764505021.6267667,-4.07442,1.11398,0.1678599999999999,0.991391505,0.001159665,0.015808065
1764505021.6267667,-4.07442,1.11398,0.1678599999999999,0.991391505,0.001159665,0.015808065
1764505021.6267667,-2.83836,1.8312,-0.57988,0.992978415,-6.1035e-05,0.015685995
1764505021.6267667,-2.83836,1.8312,-0.57988,0.992978415,-6.1035e-05,0.015685995
1764505021.6278431,-2.83836,1.8312,-0.57988,0.992978415,-6.1035e-05,0.015685995
1764505021.6278431,-2.83836,1.8312,-0.57988,0.992978415,-6.1035e-05,0.015685995
1764505021.6278431,-2.83836,1.8312,-0.57988,0.992978415,-6.1035e-05,0.015685995
1764505021.6278431,-2.83836,1.8312,-0.57988,0.992978415,-6.1035e-05,0.015685995
1764505021.6288471,-2.83836,1.8312,-0.57988,0.992978415,-6.1035e-05,0.015685995
1764505021.6288471,-2.83836,1.8312,-0.57988,0.992978415,-6.1035e-05,0.015685995
1764505021.6288471,-2.83836,1.8312,-0.57988,0.992978415,-6.1035e-05,0.015685995
1764505021.6288471,-2.83836,1.8312,-0.57988,0.992978415,-6.1035e-05,0.015685995
1764505021.6288471,-1.9838,2.2127,-1.1445,0.99218496,0.000427245,0.01550289
1764505021.6288471,-1.9838,2.2127,-1.1445,0.99218496,0.000427245,0.01550289
1764505021.6288471,-1.9838,2.2127,-1.1445,0.99218496,0.000427245,0.01550289
1764505021.6288471,-1.9838,2.2127,-1.1445,0.99218496,0.000427245,0.01550289
1764505021.674015,-1.9838,2.2127,-1.1445,0.99218496,0.000427245,0.01550289
1764505021.674015,-1.9838,2.2127,-1.1445,0.99218496,0.000427245,0.01550289
1764505021.674015,-1.9838,2.2127,-1.1445,0.99218496,0.000427245,0.01550289
1764505021.674015,-1.9838,2.2127,-1.1445,0.99218496,0.000427245,0.01550289
1764505021.674015,-1.9838,2.2127,-1.1445,0.99218496,0.000427245,0.01550289
1764505021.674015,-1.9838,2.2127,-1.1445,0.99218496,0.000427245,0.01550289
1764505021.674015,-1.95328,1.43444,-1.92276,0.99035391,0.00219726,0.01538082
1764505021.674015,-1.95328,1.43444,-1.92276,0.99035391,0.00219726,0.01538082
1764505021.674015,-1.95328,1.43444,-1.92276,0.99035391,0.00219726,0.01538082
1764505021.674015,-1.95328,1.43444,-1.92276,0.99035391,0.00219726,0.01538082
1764505021.674015,-1.95328,1.43444,-1.92276,0.99035391,0.00219726,0.01538082
1764505021.674015,-1.95328,1.43444,-1.92276,0.99035391,0.00219726,0.01538082
1764505021.674015,-1.95328,1.43444,-1.92276,0.99035391,0.00219726,0.01538082
1764505021.6745226,-1.95328,1.43444,-1.92276,0.99035391,0.00219726,0.01538082
1764505021.6745226,-1.95328,1.43444,-1.92276,0.99035391,0.00219726,0.01538082
1764505021.6745226,-1.95328,1.43444,-1.92276,0.99035391,0.00219726,0.01538082
1764505021.6745226,-1.7549,1.46496,-1.93802,0.98888907,0.004089345,0.01574703
1764505021.6745226,-1.7549,1.46496,-1.93802,0.98888907,0.004089345,0.01574703
1764505021.6745226,-1.7549,1.46496,-1.93802,0.98888907,0.004089345,0.01574703
1764505021.6745226,-1.7549,1.46496,-1.93802,0.98888907,0.004089345,0.01574703
1764505021.6745226,-1.7549,1.46496,-1.93802,0.98888907,0.004089345,0.01574703
1764505021.6745226,-1.7549,1.46496,-1.93802,0.98888907,0.004089345,0.01574703
1764505021.6745226,-1.7549,1.46496,-1.93802,0.98888907,0.004089345,0.01574703
1764505021.6750555,-1.7549,1.46496,-1.93802,0.98888907,0.004089345,0.01574703
1764505021.7220297,-1.7549,1.46496,-1.93802,0.98888907,0.004089345,0.01574703
1764505021.7220297,-1.7549,1.46496,-1.93802,0.98888907,0.004089345,0.01574703
1764505021.7220297,-2.16692,1.1445,-1.78542,0.989682525,0.006530745,0.01562496
1764505021.7230308,-2.16692,1.1445,-1.78542,0.989682525,0.006530745,0.01562496
1764505021.7230308,-2.16692,1.1445,-1.78542,0.989682525,0.006530745,0.01562496
1764505021.7230308,-2.16692,1.1445,-1.78542,0.989682525,0.006530745,0.01562496
1764505021.7230308,-2.16692,1.1445,-1.78542,0.989682525,0.006530745,0.01562496
1764505021.7230308,-2.16692,1.1445,-1.78542,0.989682525,0.006530745,0.01562496
1764505021.7230308,-2.16692,1.1445,-1.78542,0.989682525,0.006530745,0.01562496
1764505021.7230308,-2.16692,1.1445,-1.78542,0.989682525,0.006530745,0.01562496
1764505021.7230308,-2.16692,1.1445,-1.78542,0.989682525,0.006530745,0.01562496
1764505021.7230308,-2.16692,1.1445,-1.78542,0.989682525,0.006530745,0.01562496
1764505021.7230308,-2.63998,0.44254,-1.09872,0.98949942,0.010070775,0.01599117
1764505021.7245405,-2.63998,0.44254,-1.09872,0.98949942,0.010070775,0.01599117
1764505021.7245405,-2.63998,0.44254,-1.09872,0.98949942,0.010070775,0.01599117
1764505021.7245405,-2.63998,0.44254,-1.09872,0.98949942,0.010070775,0.01599117
1764505021.7245405,-2.63998,0.44254,-1.09872,0.98949942,0.010070775,0.01599117
1764505021.7250729,-2.63998,0.44254,-1.09872,0.98949942,0.010070775,0.01599117
1764505021.7250729,-2.63998,0.44254,-1.09872,0.98949942,0.010070775,0.01599117
1764505021.7250729,-2.63998,0.44254,-1.09872,0.98949942,0.010070775,0.01599117
1764505021.7250729,-2.63998,0.44254,-1.09872,0.98949942,0.010070775,0.01599117
1764505021.7250729,-2.63998,0.44254,-1.09872,0.98949942,0.010070775,0.01599117
1764505021.7688994,-2.86888,0.94612,-0.47306,0.98986563,0.012207,0.01550289
1764505021.7688994,-2.86888,0.94612,-0.47306,0.98986563,0.012207,0.01550289
1764505021.7688994,-2.86888,0.94612,-0.47306,0.98986563,0.012207,0.01550289
1764505021.7688994,-2.86888,0.94612,-0.47306,0.98986563,0.012207,0.01550289
1764505021.7688994,-2.86888,0.94612,-0.47306,0.98986563,0.012207,0.01550289
1764505021.7688994,-2.86888,0.94612,-0.47306,0.98986563,0.012207,0.01550289
1764505021.7688994,-2.86888,0.94612,-0.47306,0.98986563,0.012207,0.01550289
1764505021.7688994,-2.86888,0.94612,-0.47306,0.98986563,0.012207,0.01550289
1764505021.7688994,-2.86888,0.94612,-0.47306,0.98986563,0.012207,0.01550289
1764505021.7688994,-2.86888,0.94612,-0.47306,0.98986563,0.012207,0.01550289
1764505021.7688994,-3.76922,0.4578,0.1525999999999999,0.990781155,0.01318356,0.01538082
1764505021.7688994,-3.76922,0.4578,0.1525999999999999,0.990781155,0.01318356,0.01538082
1764505021.7688994,-3.76922,0.4578,0.1525999999999999,0.990781155,0.01318356,0.01538082
1764505021.7688994,-3.76922,0.4578,0.1525999999999999,0.990781155,0.01318356,0.01538082
1764505021.7688994,-3.76922,0.4578,0.1525999999999999,0.990781155,0.01318356,0.01538082
1764505021.7688994,-3.76922,0.4578,0.1525999999999999,0.990781155,0.01318356,0.01538082
1764505021.7688994,-3.76922,0.4578,0.1525999999999999,0.990781155,0.01318356,0.01538082
1764505021.7688994,-3.76922,0.4578,0.1525999999999999,0.990781155,0.01318356,0.01538082
1764505021.7688994,-3.76922,0.4578,0.1525999999999999,0.990781155,0.01318356,0.01538082
1764505021.7688994,-3.76922,0.4578,0.1525999999999999,0.990781155,0.01318356,0.01538082
1764505021.7688994,-3.79974,0.41202,0.62566,0.991757715,0.013122525,0.01513668
1764505021.7688994,-3.79974,0.41202,0.62566,0.991757715,0.013122525,0.01513668
1764505021.7688994,-3.79974,0.41202,0.62566,0.991757715,0.013122525,0.01513668
1764505021.7688994,-3.79974,0.41202,0.62566,0.991757715,0.013122525,0.01513668
1764505021.8149524,-3.79974,0.41202,0.62566,0.991757715,0.013122525,0.01513668
1764505021.8149524,-3.79974,0.41202,0.62566,0.991757715,0.013122525,0.01513668
1764505021.8149524,-3.79974,0.41202,0.62566,0.991757715,0.013122525,0.01513668
1764505021.8149524,-3.79974,0.41202,0.62566,0.991757715,0.013122525,0.01513668
1764505021.8149524,-3.79974,0.41202,0.62566,0.991757715,0.013122525,0.01513668
1764505021.8149524,-3.79974,0.41202,0.62566,0.991757715,0.013122525,0.01513668
1764505021.8149524,-3.64714,0.6409199999999999,1.05294,0.991635645,0.01281735,0.014587365
1764505021.8149524,-3.64714,0.6409199999999999,1.05294,0.991635645,0.01281735,0.014587365
1764505021.8149524,-3.64714,0.6409199999999999,1.05294,0.991635645,0.01281735,0.014587365
1764505021.8149524,-3.64714,0.6409199999999999,1.05294,0.991635645,0.01281735,0.014587365
1764505021.8149524,-3.64714,0.6409199999999999,1.05294,0.991635645,0.01281735,0.014587365
1764505021.8149524,-3.64714,0.6409199999999999,1.05294,0.991635645,0.01281735,0.014587365
1764505021.8149524,-3.64714,0.6409199999999999,1.05294,0.991635645,0.01281735,0.014587365
1764505021.8149524,-3.64714,0.6409199999999999,1.05294,0.991635645,0.01281735,0.014587365
1764505021.815964,-3.64714,0.6409199999999999,1.05294,0.991635645,0.01281735,0.014587365
1764505021.815964,-3.64714,0.6409199999999999,1.05294,0.991635645,0.01281735,0.014587365
1764505021.815964,-3.11304,0.763,1.87698,0.990781155,0.01147458,0.014831505
1764505021.815964,-3.11304,0.763,1.87698,0.990781155,0.01147458,0.014831505
1764505021.815964,-3.11304,0.763,1.87698,0.990781155,0.01147458,0.014831505
1764505021.815964,-3.11304,0.763,1.87698,0.990781155,0.01147458,0.014831505
1764505021.815964,-3.11304,0.763,1.87698,0.990781155,0.01147458,0.014831505
1764505021.815964,-3.11304,0.763,1.87698,0.990781155,0.01147458,0.014831505
1764505021.815964,-3.11304,0.763,1.87698,0.990781155,0.01147458,0.014831505
1764505021.815964,-3.11304,0.763,1.87698,0.990781155,0.01147458,0.014831505
1764505021.8607135,-3.11304,0.763,1.87698,0.990781155,0.01147458,0.014831505
1764505021.8607135,-3.11304,0.763,1.87698,0.990781155,0.01147458,0.014831505
1764505021.8607135,-2.94518,1.17502,2.01432,0.991025295,0.010803195,0.014953575
1764505021.8607135,-2.94518,1.17502,2.01432,0.991025295,0.010803195,0.014953575
1764505021.8607135,-2.94518,1.17502,2.01432,0.991025295,0.010803195,0.014953575
1764505021.8607135,-2.94518,1.17502,2.01432,0.991025295,0.010803195,0.014953575
1764505021.8607135,-2.94518,1.17502,2.01432,0.991025295,0.010803195,0.014953575
1764505021.861728,-2.94518,1.17502,2.01432,0.991025295,0.010803195,0.014953575
1764505021.861728,-2.94518,1.17502,2.01432,0.991025295,0.010803195,0.014953575
1764505021.861728,-2.94518,1.17502,2.01432,0.991025295,0.010803195,0.014953575
1764505021.861728,-2.94518,1.17502,2.01432,0.991025295,0.010803195,0.014953575
1764505021.861728,-2.94518,1.17502,2.01432,0.991025295,0.010803195,0.014953575
1764505021.861728,-2.6705,0.71722,1.69386,0.991635645,0.009704565,0.01501461
1764505021.861728,-2.6705,0.71722,1.69386,0.991635645,0.009704565,0.01501461
1764505021.861728,-2.6705,0.71722,1.69386,0.991635645,0.009704565,0.01501461
1764505021.861728,-2.6705,0.71722,1.69386,0.991635645,0.009704565,0.01501461
1764505021.861728,-2.6705,0.71722,1.69386,0.991635645,0.009704565,0.01501461
1764505021.861728,-2.6705,0.71722,1.69386,0.991635645,0.009704565,0.01501461
1764505021.861728,-2.6705,0.71722,1.69386,0.991635645,0.009704565,0.01501461
1764505021.861728,-2.6705,0.71722,1.69386,0.991635645,0.009704565,0.01501461
1764505021.861728,-2.6705,0.71722,1.69386,0.991635645,0.009704565,0.01501461
1764505021.861728,-2.6705,0.71722,1.69386,0.991635645,0.009704565,0.01501461
1764505021.9081633,-2.85362,1.28184,1.93802,0.9912084,0.0085449,0.01477047
1764505021.9081633,-2.85362,1.28184,1.93802,0.9912084,0.0085449,0.01477047
1764505021.9081633,-2.85362,1.28184,1.93802,0.9912084,0.0085449,0.01477047
1764505021.9081633,-2.85362,1.28184,1.93802,0.9912084,0.0085449,0.01477047
1764505021.9081633,-2.85362,1.28184,1.93802,0.9912084,0.0085449,0.01477047
1764505021.9081633,-2.85362,1.28184,1.93802,0.9912084,0.0085449,0.01477047
1764505021.9081633,-2.85362,1.28184,1.93802,0.9912084,0.0085449,0.01477047
1764505021.9081633,-2.85362,1.28184,1.93802,0.9912084,0.0085449,0.01477047
1764505021.909175,-2.85362,1.28184,1.93802,0.9912084,0.0085449,0.01477047
1764505021.909175,-2.85362,1.28184,1.93802,0.9912084,0.0085449,0.01477047
1764505021.909175,-2.5179,0.8698199999999999,1.73964,0.99047598,0.006652815,0.01501461
1764505021.909175,-2.5179,0.8698199999999999,1.73964,0.99047598,0.006652815,0.01501461
1764505021.909175,-2.5179,0.8698199999999999,1.73964,0.99047598,0.006652815,0.01501461
1764505021.909175,-2.5179,0.8698199999999999,1.73964,0.99047598,0.006652815,0.01501461
1764505021.909175,-2.5179,0.8698199999999999,1.73964,0.99047598,0.006652815,0.01501461
1764505021.909175,-2.5179,0.8698199999999999,1.73964,0.99047598,0.006652815,0.01501461
1764505021.909175,-2.5179,0.8698199999999999,1.73964,0.99047598,0.006652815,0.01501461
1764505021.909175,-2.5179,0.8698199999999999,1.73964,0.99047598,0.006652815,0.01501461
1764505021.909175,-2.5179,0.8698199999999999,1.73964,0.99047598,0.006652815,0.01501461
1764505021.909175,-2.5179,0.8698199999999999,1.73964,0.99047598,0.006652815,0.01501461
1764505021.909175,-2.2127,1.19028,1.3734,0.99035391,0.00695799,0.01538082
1764505021.909175,-2.2127,1.19028,1.3734,0.99035391,0.00695799,0.01538082
1764505021.9101772,-2.2127,1.19028,1.3734,0.99035391,0.00695799,0.01538082
1764505021.9101772,-2.2127,1.19028,1.3734,0.99035391,0.00695799,0.01538082
1764505021.955499,-2.2127,1.19028,1.3734,0.99035391,0.00695799,0.01538082
1764505021.955499,-2.2127,1.19028,1.3734,0.99035391,0.00695799,0.01538082
1764505021.955499,-2.2127,1.19028,1.3734,0.99035391,0.00695799,0.01538082
1764505021.955499,-2.2127,1.19028,1.3734,0.99035391,0.00695799,0.01538082
1764505021.955499,-2.2127,1.19028,1.3734,0.99035391,0.00695799,0.01538082
1764505021.955499,-2.2127,1.19028,1.3734,0.99035391,0.00695799,0.01538082
1764505021.955499,-1.92276,1.2055399999999998,0.77826,0.99133047,0.00695799,0.01562496
1764505021.955499,-1.92276,1.2055399999999998,0.77826,0.99133047,0.00695799,0.01562496
1764505021.955499,-1.92276,1.2055399999999998,0.77826,0.99133047,0.00695799,0.01562496
1764505021.955499,-1.92276,1.2055399999999998,0.77826,0.99133047,0.00695799,0.01562496
1764505021.955499,-1.92276,1.2055399999999998,0.77826,0.99133047,0.00695799,0.01562496
1764505021.955499,-1.92276,1.2055399999999998,0.77826,0.99133047,0.00695799,0.01562496
1764505021.9565213,-1.92276,1.2055399999999998,0.77826,0.99133047,0.00695799,0.01562496
1764505021.9565213,-1.92276,1.2055399999999998,0.77826,0.99133047,0.00695799,0.01562496
1764505021.9565213,-1.92276,1.2055399999999998,0.77826,0.99133047,0.00695799,0.01562496
1764505021.9565213,-1.92276,1.2055399999999998,0.77826,0.99133047,0.00695799,0.01562496
1764505021.9565213,-2.65524,1.2971,0.47306,0.991269435,0.007263165,0.015441855
1764505021.9565213,-2.65524,1.2971,0.47306,0.991269435,0.007263165,0.015441855
1764505021.9565213,-2.65524,1.2971,0.47306,0.991269435,0.007263165,0.015441855
1764505021.9565213,-2.65524,1.2971,0.47306,0.991269435,0.007263165,0.015441855
1764505021.9565213,-2.65524,1.2971,0.47306,0.991269435,0.007263165,0.015441855
1764505021.9565213,-2.65524,1.2971,0.47306,0.991269435,0.007263165,0.015441855
1764505021.9565213,-2.65524,1.2971,0.47306,0.991269435,0.007263165,0.015441855
1764505021.9565213,-2.65524,1.2971,0.47306,0.991269435,0.007263165,0.015441855
1764505022.0011013,-2.65524,1.2971,0.47306,0.991269435,0.007263165,0.015441855
1764505022.0011013,-2.65524,1.2971,0.47306,0.991269435,0.007263165,0.015441855
1764505022.0011013,-3.25038,1.23606,0.763,0.98986563,0.00817869,0.01538082
1764505022.0011013,-3.25038,1.23606,0.763,0.98986563,0.00817869,0.01538082
1764505022.0011013,-3.25038,1.23606,0.763,0.98986563,0.00817869,0.01538082
1764505022.0011013,-3.25038,1.23606,0.763,0.98986563,0.00817869,0.01538082
1764505022.0011013,-3.25038,1.23606,0.763,0.98986563,0.00817869,0.01538082
1764505022.0011013,-3.25038,1.23606,0.763,0.98986563,0.00817869,0.01538082
1764505022.0011013,-3.25038,1.23606,0.763,0.98986563,0.00817869,0.01538082
1764505022.0011013,-3.25038,1.23606,0.763,0.98986563,0.00817869,0.01538082
1764505022.0011013,-3.25038,1.23606,0.763,0.98986563,0.00817869,0.01538082
1764505022.0011013,-3.25038,1.23606,0.763,0.98986563,0.00817869,0.01538082
1764505022.0011013,-2.99096,1.51074,0.8392999999999999,0.99096426,0.00817869,0.01538082
1764505022.0011013,-2.99096,1.51074,0.8392999999999999,0.99096426,0.00817869,0.01538082
1764505022.0011013,-2.99096,1.51074,0.8392999999999999,0.99096426,0.00817869,0.01538082
1764505022.0011013,-2.99096,1.51074,0.8392999999999999,0.99096426,0.00817869,0.01538082
1764505022.0011013,-2.99096,1.51074,0.8392999999999999,0.99096426,0.00817869,0.01538082
1764505022.0011013,-2.99096,1.51074,0.8392999999999999,0.99096426,0.00817869,0.01538082
1764505022.0011013,-2.99096,1.51074,0.8392999999999999,0.99096426,0.00817869,0.01538082
1764505022.0011013,-2.99096,1.51074,0.8392999999999999,0.99096426,0.00817869,0.01538082
1764505022.0011013,-2.99096,1.51074,0.8392999999999999,0.99096426,0.00817869,0.01538082
1764505022.0011013,-2.99096,1.51074,0.8392999999999999,0.99096426,0.00817869,0.01538082
1764505022.04924,-2.99096,1.3734,1.49548,0.990292875,0.0073242,0.016296345
1764505022.04924,-2.99096,1.3734,1.49548,0.990292875,0.0073242,0.016296345
1764505022.04924,-2.99096,1.3734,1.49548,0.990292875,0.0073242,0.016296345
1764505022.04924,-2.99096,1.3734,1.49548,0.990292875,0.0073242,0.016296345
1764505022.04924,-2.99096,1.3734,1.49548,0.990292875,0.0073242,0.016296345
1764505022.04924,-2.99096,1.3734,1.49548,0.990292875,0.0073242,0.016296345
1764505022.04924,-2.99096,1.3734,1.49548,0.990292875,0.0073242,0.016296345
1764505022.04924,-2.99096,1.3734,1.49548,0.990292875,0.0073242,0.016296345
1764505022.04924,-2.99096,1.3734,1.49548,0.990292875,0.0073242,0.016296345
1764505022.04924,-2.99096,1.3734,1.49548,0.990292875,0.0073242,0.016296345
1764505022.04924,-3.14356,0.97664,1.77016,0.989194245,0.00573729,0.016296345
1764505022.04924,-3.14356,0.97664,1.77016,0.989194245,0.00573729,0.016296345
1764505022.0502508,-3.14356,0.97664,1.77016,0.989194245,0.00573729,0.016296345
1764505022.0502508,-3.14356,0.97664,1.77016,0.989194245,0.00573729,0.016296345
1764505022.0502508,-3.14356,0.97664,1.77016,0.989194245,0.00573729,0.016296345
1764505022.0502508,-3.14356,0.97664,1.77016,0.989194245,0.00573729,0.016296345
1764505022.0502508,-3.14356,0.97664,1.77016,0.989194245,0.00573729,0.016296345
1764505022.0502508,-3.14356,0.97664,1.77016,0.989194245,0.00573729,0.016296345
1764505022.0502508,-3.14356,0.97664,1.77016,0.989194245,0.00573729,0.016296345
1764505022.0502508,-3.14356,0.97664,1.77016,0.989194245,0.00573729,0.016296345
1764505022.0502508,-2.83836,0.96138,2.09062,0.98888907,0.00463866,0.01684566
1764505022.0502508,-2.83836,0.96138,2.09062,0.98888907,0.00463866,0.01684566
1764505022.0502508,-2.83836,0.96138,2.09062,0.98888907,0.00463866,0.01684566
1764505022.0502508,-2.83836,0.96138,2.09062,0.98888907,0.00463866,0.01684566
1764505022.0933497,-2.83836,0.96138,2.09062,0.98888907,0.00463866,0.01684566
1764505022.0933497,-2.83836,0.96138,2.09062,0.98888907,0.00463866,0.01684566
1764505022.0933497,-2.83836,0.96138,2.09062,0.98888907,0.00463866,0.01684566
1764505022.0933497,-2.83836,0.96138,2.09062,0.98888907,0.00463866,0.01684566
1764505022.0933497,-2.83836,0.96138,2.09062,0.98888907,0.00463866,0.01684566
1764505022.0933497,-2.83836,0.96138,2.09062,0.98888907,0.00463866,0.01684566
1764505022.0933497,-2.96044,0.5341,0.763,0.990170805,0.003967275,0.01721187
1764505022.0933497,-2.96044,0.5341,0.763,0.990170805,0.003967275,0.01721187
1764505022.0933497,-2.96044,0.5341,0.763,0.990170805,0.003967275,0.01721187
1764505022.0948746,-2.96044,0.5341,0.763,0.990170805,0.003967275,0.01721187
1764505022.0948746,-2.96044,0.5341,0.763,0.990170805,0.003967275,0.01721187
1764505022.0948746,-2.96044,0.5341,0.763,0.990170805,0.003967275,0.01721187
1764505022.0948746,-2.96044,0.5341,0.763,0.990170805,0.003967275,0.01721187
1764505022.0948746,-2.96044,0.5341,0.763,0.990170805,0.003967275,0.01721187
1764505022.0948746,-2.96044,0.5341,0.763,0.990170805,0.003967275,0.01721187
1764505022.0948746,-2.96044,0.5341,0.763,0.990170805,0.003967275,0.01721187
1764505022.0948746,-3.57084,0.0762999999999999,-0.7019599999999999,0.991147365,0.006164535,0.01745601
1764505022.0948746,-3.57084,0.0762999999999999,-0.7019599999999999,0.991147365,0.006164535,0.01745601
1764505022.0948746,-3.57084,0.0762999999999999,-0.7019599999999999,0.991147365,0.006164535,0.01745601
1764505022.0948746,-3.57084,0.0762999999999999,-0.7019599999999999,0.991147365,0.006164535,0.01745601
1764505022.0968406,-3.57084,0.0762999999999999,-0.7019599999999999,0.991147365,0.006164535,0.01745601
1764505022.0968406,-3.57084,0.0762999999999999,-0.7019599999999999,0.991147365,0.006164535,0.01745601
1764505022.0968406,-3.57084,0.0762999999999999,-0.7019599999999999,0.991147365,0.006164535,0.01745601
1764505022.0968406,-3.57084,0.0762999999999999,-0.7019599999999999,0.991147365,0.006164535,0.01745601
1764505022.1411078,-3.57084,0.0762999999999999,-0.7019599999999999,0.991147365,0.006164535,0.01745601
1764505022.1411078,-3.57084,0.0762999999999999,-0.7019599999999999,0.991147365,0.006164535,0.01745601
1764505022.1411078,-4.4254,0.88508,-0.8698199999999999,0.99181875,0.00793455,0.017639115
1764505022.1411078,-4.4254,0.88508,-0.8698199999999999,0.99181875,0.00793455,0.017639115
1764505022.1421,-4.4254,0.88508,-0.8698199999999999,0.99181875,0.00793455,0.017639115
1764505022.1421,-4.4254,0.88508,-0.8698199999999999,0.99181875,0.00793455,0.017639115
1764505022.1421,-4.4254,0.88508,-0.8698199999999999,0.99181875,0.00793455,0.017639115
1764505022.1421,-4.4254,0.88508,-0.8698199999999999,0.99181875,0.00793455,0.017639115
1764505022.1421,-4.4254,0.88508,-0.8698199999999999,0.99181875,0.00793455,0.017639115
1764505022.1421,-4.4254,0.88508,-0.8698199999999999,0.99181875,0.00793455,0.017639115
1764505022.1421,-4.4254,0.88508,-0.8698199999999999,0.99181875,0.00793455,0.017639115
1764505022.1421,-4.4254,0.88508,-0.8698199999999999,0.99181875,0.00793455,0.017639115
1764505022.1421,-5.21892,1.15976,-0.57988,0.991391505,0.009094215,0.017150835
1764505022.1421,-5.21892,1.15976,-0.57988,0.991391505,0.009094215,0.017150835
1764505022.1421,-5.21892,1.15976,-0.57988,0.991391505,0.009094215,0.017150835
1764505022.1421,-5.21892,1.15976,-0.57988,0.991391505,0.009094215,0.017150835
1764505022.1421,-5.21892,1.15976,-0.57988,0.991391505,0.009094215,0.017150835
1764505022.143121,-5.21892,1.15976,-0.57988,0.991391505,0.009094215,0.017150835
1764505022.143121,-5.21892,1.15976,-0.57988,0.991391505,0.009094215,0.017150835
1764505022.143121,-5.21892,1.15976,-0.57988,0.991391505,0.009094215,0.017150835
1764505022.143121,-5.21892,1.15976,-0.57988,0.991391505,0.009094215,0.017150835
1764505022.143121,-5.21892,1.15976,-0.57988,0.991391505,0.009094215,0.017150835
1764505022.143121,-5.38678,0.8087799999999999,0.09156,0.99023184,0.008972145,0.01733394
1764505022.143121,-5.38678,0.8087799999999999,0.09156,0.99023184,0.008972145,0.01733394
1764505022.1864266,-5.38678,0.8087799999999999,0.09156,0.99023184,0.008972145,0.01733394
1764505022.1864266,-5.38678,0.8087799999999999,0.09156,0.99023184,0.008972145,0.01733394
1764505022.1864266,-5.38678,0.8087799999999999,0.09156,0.99023184,0.008972145,0.01733394
1764505022.1864266,-5.38678,0.8087799999999999,0.09156,0.99023184,0.008972145,0.01733394
1764505022.1864266,-5.38678,0.8087799999999999,0.09156,0.99023184,0.008972145,0.01733394
1764505022.1864266,-5.38678,0.8087799999999999,0.09156,0.99023184,0.008972145,0.01733394
1764505022.1864266,-5.38678,0.8087799999999999,0.09156,0.99023184,0.008972145,0.01733394
1764505022.1864266,-5.38678,0.8087799999999999,0.09156,0.99023184,0.008972145,0.01733394
1764505022.1864266,-4.99002,0.57988,0.10682,0.990170805,0.008972145,0.017272905
1764505022.1864266,-4.99002,0.57988,0.10682,0.990170805,0.008972145,0.017272905
1764505022.1864266,-4.99002,0.57988,0.10682,0.990170805,0.008972145,0.017272905
1764505022.187943,-4.99002,0.57988,0.10682,0.990170805,0.008972145,0.017272905
1764505022.187943,-4.99002,0.57988,0.10682,0.990170805,0.008972145,0.017272905
1764505022.187943,-4.99002,0.57988,0.10682,0.990170805,0.008972145,0.017272905
1764505022.187943,-4.99002,0.57988,0.10682,0.990170805,0.008972145,0.017272905
1764505022.187943,-4.99002,0.57988,0.10682,0.990170805,0.008972145,0.017272905
1764505022.187943,-4.99002,0.57988,0.10682,0.990170805,0.008972145,0.017272905
1764505022.187943,-4.99002,0.57988,0.10682,0.990170805,0.008972145,0.017272905
1764505022.187943,-4.22702,0.3815,0.04578,0.9899877,0.009216285,0.017394975
1764505022.187943,-4.22702,0.3815,0.04578,0.9899877,0.009216285,0.017394975
1764505022.1899562,-4.22702,0.3815,0.04578,0.9899877,0.009216285,0.017394975
1764505022.1899562,-4.22702,0.3815,0.04578,0.9899877,0.009216285,0.017394975
1764505022.2346537,-4.22702,0.3815,0.04578,0.9899877,0.009216285,0.017394975
1764505022.2346537,-4.22702,0.3815,0.04578,0.9899877,0.009216285,0.017394975
1764505022.2346537,-4.22702,0.3815,0.04578,0.9899877,0.009216285,0.017394975
1764505022.2346537,-4.22702,0.3815,0.04578,0.9899877,0.009216285,0.017394975
1764505022.2346537,-4.22702,0.3815,0.04578,0.9899877,0.009216285,0.017394975
1764505022.2346537,-4.22702,0.3815,0.04578,0.9899877,0.009216285,0.017394975
1764505022.2346537,-3.57084,0.51884,0.6714399999999999,0.990292875,0.008728005,0.01757808
1764505022.2346537,-3.57084,0.51884,0.6714399999999999,0.990292875,0.008728005,0.01757808
1764505022.2346537,-3.57084,0.51884,0.6714399999999999,0.990292875,0.008728005,0.01757808
1764505022.2346537,-3.57084,0.51884,0.6714399999999999,0.990292875,0.008728005,0.01757808
1764505022.2346537,-3.57084,0.51884,0.6714399999999999,0.990292875,0.008728005,0.01757808
1764505022.2356615,-3.57084,0.51884,0.6714399999999999,0.990292875,0.008728005,0.01757808
1764505022.2356615,-3.57084,0.51884,0.6714399999999999,0.990292875,0.008728005,0.01757808
1764505022.2356615,-3.57084,0.51884,0.6714399999999999,0.990292875,0.008728005,0.01757808
1764505022.2356615,-3.57084,0.51884,0.6714399999999999,0.990292875,0.008728005,0.01757808
1764505022.2356615,-3.57084,0.51884,0.6714399999999999,0.990292875,0.008728005,0.01757808
1764505022.2356615,-2.79258,0.48832,0.82404,0.99059805,0.007751445,0.0170898
1764505022.2356615,-2.79258,0.48832,0.82404,0.99059805,0.007751445,0.0170898
1764505022.2356615,-2.79258,0.48832,0.82404,0.99059805,0.007751445,0.0170898
1764505022.2356615,-2.79258,0.48832,0.82404,0.99059805,0.007751445,0.0170898
1764505022.2356615,-2.79258,0.48832,0.82404,0.99059805,0.007751445,0.0170898
1764505022.2356615,-2.79258,0.48832,0.82404,0.99059805,0.007751445,0.0170898
1764505022.2815309,-2.79258,0.48832,0.82404,0.99059805,0.007751445,0.0170898
1764505022.2815309,-2.79258,0.48832,0.82404,0.99059805,0.007751445,0.0170898
1764505022.2815309,-2.79258,0.48832,0.82404,0.99059805,0.007751445,0.0170898
1764505022.2815309,-2.79258,0.48832,0.82404,0.99059805,0.007751445,0.0170898
1764505022.2815309,-3.052,-0.04578,1.2055399999999998,0.99072012,0.008239725,0.01489254
1764505022.2815309,-3.052,-0.04578,1.2055399999999998,0.99072012,0.008239725,0.01489254
1764505022.2815309,-3.052,-0.04578,1.2055399999999998,0.99072012,0.008239725,0.01489254
1764505022.2815309,-3.052,-0.04578,1.2055399999999998,0.99072012,0.008239725,0.01489254
1764505022.2815309,-3.052,-0.04578,1.2055399999999998,0.99072012,0.008239725,0.01489254
1764505022.2815309,-3.052,-0.04578,1.2055399999999998,0.99072012,0.008239725,0.01489254
1764505022.2815309,-3.052,-0.04578,1.2055399999999998,0.99072012,0.008239725,0.01489254
1764505022.2815309,-3.052,-0.04578,1.2055399999999998,0.99072012,0.008239725,0.01489254
1764505022.2815309,-3.052,-0.04578,1.2055399999999998,0.99072012,0.008239725,0.01489254
1764505022.2815309,-3.052,-0.04578,1.2055399999999998,0.99072012,0.008239725,0.01489254
1764505022.2815309,-3.17408,0.18312,0.94612,0.991879785,0.00927732,0.013977015
1764505022.2815309,-3.17408,0.18312,0.94612,0.991879785,0.00927732,0.013977015
1764505022.2815309,-3.17408,0.18312,0.94612,0.991879785,0.00927732,0.013977015
1764505022.2815309,-3.17408,0.18312,0.94612,0.991879785,0.00927732,0.013977015
1764505022.2815309,-3.17408,0.18312,0.94612,0.991879785,0.00927732,0.013977015
1764505022.2815309,-3.17408,0.18312,0.94612,0.991879785,0.00927732,0.013977015
1764505022.2815309,-3.17408,0.18312,0.94612,0.991879785,0.00927732,0.013977015
1764505022.2815309,-3.17408,0.18312,0.94612,0.991879785,0.00927732,0.013977015
1764505022.2815309,-3.17408,0.18312,0.94612,0.991879785,0.00927732,0.013977015
1764505022.2825644,-3.17408,0.18312,0.94612,0.991879785,0.00927732,0.013977015
1764505022.325727,-3.86078,0.97664,0.8392999999999999,0.9924291,0.00939939,0.01269528
1764505022.326264,-3.86078,0.97664,0.8392999999999999,0.9924291,0.00939939,0.01269528
1764505022.326264,-3.86078,0.97664,0.8392999999999999,0.9924291,0.00939939,0.01269528
1764505022.326264,-3.86078,0.97664,0.8392999999999999,0.9924291,0.00939939,0.01269528
1764505022.326264,-3.86078,0.97664,0.8392999999999999,0.9924291,0.00939939,0.01269528
1764505022.326264,-3.86078,0.97664,0.8392999999999999,0.9924291,0.00939939,0.01269528
1764505022.326264,-3.86078,0.97664,0.8392999999999999,0.9924291,0.00939939,0.01269528
1764505022.326264,-3.86078,0.97664,0.8392999999999999,0.9924291,0.00939939,0.01269528
1764505022.326264,-3.86078,0.97664,0.8392999999999999,0.9924291,0.00939939,0.01269528
1764505022.326264,-3.86078,0.97664,0.8392999999999999,0.9924291,0.00939939,0.01269528
1764505022.326264,-3.84552,1.38866,1.87698,0.991513575,0.00756834,0.011779755
1764505022.326264,-3.84552,1.38866,1.87698,0.991513575,0.00756834,0.011779755
1764505022.326264,-3.84552,1.38866,1.87698,0.991513575,0.00756834,0.011779755
1764505022.326264,-3.84552,1.38866,1.87698,0.991513575,0.00756834,0.011779755
1764505022.326264,-3.84552,1.38866,1.87698,0.991513575,0.00756834,0.011779755
1764505022.326264,-3.84552,1.38866,1.87698,0.991513575,0.00756834,0.011779755
1764505022.326264,-3.84552,1.38866,1.87698,0.991513575,0.00756834,0.011779755
1764505022.326264,-3.84552,1.38866,1.87698,0.991513575,0.00756834,0.011779755
1764505022.326264,-3.84552,1.38866,1.87698,0.991513575,0.00756834,0.011779755
1764505022.326264,-3.84552,1.38866,1.87698,0.991513575,0.00756834,0.011779755
1764505022.326264,-4.16598,-0.24416,1.72438,0.99047598,0.006408675,0.01110837
1764505022.326264,-4.16598,-0.24416,1.72438,0.99047598,0.006408675,0.01110837
1764505022.326264,-4.16598,-0.24416,1.72438,0.99047598,0.006408675,0.01110837
1764505022.326264,-4.16598,-0.24416,1.72438,0.99047598,0.006408675,0.01110837
1764505022.374909,-4.16598,-0.24416,1.72438,0.99047598,0.006408675,0.01110837
1764505022.374909,-4.16598,-0.24416,1.72438,0.99047598,0.006408675,0.01110837
1764505022.374909,-4.16598,-0.24416,1.72438,0.99047598,0.006408675,0.01110837
1764505022.374909,-4.16598,-0.24416,1.72438,0.99047598,0.006408675,0.01110837
1764505022.374909,-4.16598,-0.24416,1.72438,0.99047598,0.006408675,0.01110837
1764505022.374909,-4.16598,-0.24416,1.72438,0.99047598,0.006408675,0.01110837
1764505022.374909,-3.76922,-0.01526,1.26658,0.99023184,0.00622557,0.011657685
1764505022.374909,-3.76922,-0.01526,1.26658,0.99023184,0.00622557,0.011657685
1764505022.374909,-3.76922,-0.01526,1.26658,0.99023184,0.00622557,0.011657685
1764505022.374909,-3.76922,-0.01526,1.26658,0.99023184,0.00622557,0.011657685
1764505022.374909,-3.76922,-0.01526,1.26658,0.99023184,0.00622557,0.011657685
1764505022.375923,-3.76922,-0.01526,1.26658,0.99023184,0.00622557,0.011657685
1764505022.375923,-3.76922,-0.01526,1.26658,0.99023184,0.00622557,0.011657685
1764505022.375923,-3.76922,-0.01526,1.26658,0.99023184,0.00622557,0.011657685
1764505022.375923,-3.76922,-0.01526,1.26658,0.99023184,0.00622557,0.011657685
1764505022.375923,-3.76922,-0.01526,1.26658,0.99023184,0.00622557,0.011657685
1764505022.375923,-3.26564,0.9919,0.763,0.99267324,0.004211415,0.01232907
1764505022.375923,-3.26564,0.9919,0.763,0.99267324,0.004211415,0.01232907
1764505022.375923,-3.26564,0.9919,0.763,0.99267324,0.004211415,0.01232907
1764505022.375923,-3.26564,0.9919,0.763,0.99267324,0.004211415,0.01232907
1764505022.375923,-3.26564,0.9919,0.763,0.99267324,0.004211415,0.01232907
1764505022.375923,-3.26564,0.9919,0.763,0.99267324,0.004211415,0.01232907
1764505022.375923,-3.26564,0.9919,0.763,0.99267324,0.004211415,0.01232907
1764505022.375923,-3.26564,0.9919,0.763,0.99267324,0.004211415,0.01232907
1764505022.4199607,-3.26564,0.9919,0.763,0.99267324,0.004211415,0.01232907
1764505022.4199607,-3.26564,0.9919,0.763,0.99267324,0.004211415,0.01232907
1764505022.4199607,-2.85362,2.4416,0.5341,0.99316152,0.003723135,0.01171872
1764505022.4199607,-2.85362,2.4416,0.5341,0.99316152,0.003723135,0.01171872
1764505022.4199607,-2.85362,2.4416,0.5341,0.99316152,0.003723135,0.01171872
1764505022.4205005,-2.85362,2.4416,0.5341,0.99316152,0.003723135,0.01171872
1764505022.4205005,-2.85362,2.4416,0.5341,0.99316152,0.003723135,0.01171872
1764505022.4205005,-2.85362,2.4416,0.5341,0.99316152,0.003723135,0.01171872
1764505022.4205005,-2.85362,2.4416,0.5341,0.99316152,0.003723135,0.01171872
1764505022.4205005,-2.85362,2.4416,0.5341,0.99316152,0.003723135,0.01171872
1764505022.4205005,-2.85362,2.4416,0.5341,0.99316152,0.003723135,0.01171872
1764505022.4205005,-2.85362,2.4416,0.5341,0.99316152,0.003723135,0.01171872
1764505022.4205005,-2.63998,2.76206,-0.3509799999999999,0.992978415,0.004211415,0.012512175
1764505022.4205005,-2.63998,2.76206,-0.3509799999999999,0.992978415,0.004211415,0.012512175
1764505022.4215138,-2.63998,2.76206,-0.3509799999999999,0.992978415,0.004211415,0.012512175
1764505022.4215138,-2.63998,2.76206,-0.3509799999999999,0.992978415,0.004211415,0.012512175
1764505022.4220254,-2.63998,2.76206,-0.3509799999999999,0.992978415,0.004211415,0.012512175
1764505022.4220254,-2.63998,2.76206,-0.3509799999999999,0.992978415,0.004211415,0.012512175
1764505022.4220254,-2.63998,2.76206,-0.3509799999999999,0.992978415,0.004211415,0.012512175
1764505022.4220254,-2.63998,2.76206,-0.3509799999999999,0.992978415,0.004211415,0.012512175
1764505022.4220254,-2.63998,2.76206,-0.3509799999999999,0.992978415,0.004211415,0.012512175
1764505022.4220254,-2.63998,2.76206,-0.3509799999999999,0.992978415,0.004211415,0.012512175
1764505022.423041,-2.47212,2.53316,-0.57988,0.990659085,0.00524901,0.01354977
1764505022.423041,-2.47212,2.53316,-0.57988,0.990659085,0.00524901,0.01354977
1764505022.4704244,-2.47212,2.53316,-0.57988,0.990659085,0.00524901,0.01354977
1764505022.4704244,-2.47212,2.53316,-0.57988,0.990659085,0.00524901,0.01354977
1764505022.4704244,-2.47212,2.53316,-0.57988,0.990659085,0.00524901,0.01354977
1764505022.4704244,-2.47212,2.53316,-0.57988,0.990659085,0.00524901,0.01354977
1764505022.4704244,-2.47212,2.53316,-0.57988,0.990659085,0.00524901,0.01354977
1764505022.4704244,-2.47212,2.53316,-0.57988,0.990659085,0.00524901,0.01354977
1764505022.4704244,-2.47212,2.53316,-0.57988,0.990659085,0.00524901,0.01354977
1764505022.4704244,-2.47212,2.53316,-0.57988,0.990659085,0.00524901,0.01354977
1764505022.4704244,-2.76206,2.15166,-0.48832,0.98901114,0.00561522,0.01489254
1764505022.4714408,-2.76206,2.15166,-0.48832,0.98901114,0.00561522,0.01489254
1764505022.4714408,-2.76206,2.15166,-0.48832,0.98901114,0.00561522,0.01489254
1764505022.4714408,-2.76206,2.15166,-0.48832,0.98901114,0.00561522,0.01489254
1764505022.4714408,-2.76206,2.15166,-0.48832,0.98901114,0.00561522,0.01489254
1764505022.4714408,-2.76206,2.15166,-0.48832,0.98901114,0.00561522,0.01489254
1764505022.4714408,-2.76206,2.15166,-0.48832,0.98901114,0.00561522,0.01489254
1764505022.4714408,-2.76206,2.15166,-0.48832,0.98901114,0.00561522,0.01489254
1764505022.4714408,-2.76206,2.15166,-0.48832,0.98901114,0.00561522,0.01489254
1764505022.4714408,-2.76206,2.15166,-0.48832,0.98901114,0.00561522,0.01489254
1764505022.4714408,-2.77732,1.99906,-0.04578,0.98901114,0.00708006,0.01562496
1764505022.4714408,-2.77732,1.99906,-0.04578,0.98901114,0.00708006,0.01562496
1764505022.4714408,-2.77732,1.99906,-0.04578,0.98901114,0.00708006,0.01562496
1764505022.4714408,-2.77732,1.99906,-0.04578,0.98901114,0.00708006,0.01562496
1764505022.4714408,-2.77732,1.99906,-0.04578,0.98901114,0.00708006,0.01562496
1764505022.4714408,-2.77732,1.99906,-0.04578,0.98901114,0.00708006,0.01562496
1764505022.5150611,-2.77732,1.99906,-0.04578,0.98901114,0.00708006,0.01562496
1764505022.5150611,-2.77732,1.99906,-0.04578,0.98901114,0.00708006,0.01562496
1764505022.5150611,-2.77732,1.99906,-0.04578,0.98901114,0.00708006,0.01562496
1764505022.5150611,-2.77732,1.99906,-0.04578,0.98901114,0.00708006,0.01562496
1764505022.5150611,-2.65524,1.73964,0.21364,0.989194245,0.008850075,0.016540485
1764505022.5150611,-2.65524,1.73964,0.21364,0.989194245,0.008850075,0.016540485
1764505022.5150611,-2.65524,1.73964,0.21364,0.989194245,0.008850075,0.016540485
1764505022.5150611,-2.65524,1.73964,0.21364,0.989194245,0.008850075,0.016540485
1764505022.5150611,-2.65524,1.73964,0.21364,0.989194245,0.008850075,0.016540485
1764505022.5150611,-2.65524,1.73964,0.21364,0.989194245,0.008850075,0.016540485
1764505022.5166495,-2.65524,1.73964,0.21364,0.989194245,0.008850075,0.016540485
1764505022.5166495,-2.65524,1.73964,0.21364,0.989194245,0.008850075,0.016540485
1764505022.5166495,-2.65524,1.73964,0.21364,0.989194245,0.008850075,0.016540485
1764505022.5166495,-2.65524,1.73964,0.21364,0.989194245,0.008850075,0.016540485
1764505022.5166495,-3.1283,1.526,0.39676,0.989560455,0.009582495,0.01684566
1764505022.5166495,-3.1283,1.526,0.39676,0.989560455,0.009582495,0.01684566
1764505022.5166495,-3.1283,1.526,0.39676,0.989560455,0.009582495,0.01684566
1764505022.5166495,-3.1283,1.526,0.39676,0.989560455,0.009582495,0.01684566
1764505022.5166495,-3.1283,1.526,0.39676,0.989560455,0.009582495,0.01684566
1764505022.5166495,-3.1283,1.526,0.39676,0.989560455,0.009582495,0.01684566
1764505022.5166495,-3.1283,1.526,0.39676,0.989560455,0.009582495,0.01684566
1764505022.517664,-3.1283,1.526,0.39676,0.989560455,0.009582495,0.01684566
1764505022.56044,-3.1283,1.526,0.39676,0.989560455,0.009582495,0.01684566
1764505022.5609517,-3.1283,1.526,0.39676,0.989560455,0.009582495,0.01684566
1764505022.5609517,-3.02148,1.2055399999999998,0.763,0.990170805,0.011047335,0.017150835
1764505022.5609517,-3.02148,1.2055399999999998,0.763,0.990170805,0.011047335,0.017150835
1764505022.5609517,-3.02148,1.2055399999999998,0.763,0.990170805,0.011047335,0.017150835
1764505022.5609517,-3.02148,1.2055399999999998,0.763,0.990170805,0.011047335,0.017150835
1764505022.5609517,-3.02148,1.2055399999999998,0.763,0.990170805,0.011047335,0.017150835
1764505022.5609517,-3.02148,1.2055399999999998,0.763,0.990170805,0.011047335,0.017150835
1764505022.5609517,-3.02148,1.2055399999999998,0.763,0.990170805,0.011047335,0.017150835
1764505022.5609517,-3.02148,1.2055399999999998,0.763,0.990170805,0.011047335,0.017150835
1764505022.5609517,-3.02148,1.2055399999999998,0.763,0.990170805,0.011047335,0.017150835
1764505022.5609517,-3.02148,1.2055399999999998,0.763,0.990170805,0.011047335,0.017150835
1764505022.5609517,-3.70818,0.71722,1.38866,0.989804595,0.011291475,0.017761185
1764505022.5609517,-3.70818,0.71722,1.38866,0.989804595,0.011291475,0.017761185
1764505022.5609517,-3.70818,0.71722,1.38866,0.989804595,0.011291475,0.017761185
1764505022.5609517,-3.70818,0.71722,1.38866,0.989804595,0.011291475,0.017761185
1764505022.5609517,-3.70818,0.71722,1.38866,0.989804595,0.011291475,0.017761185
1764505022.5609517,-3.70818,0.71722,1.38866,0.989804595,0.011291475,0.017761185
1764505022.561963,-3.70818,0.71722,1.38866,0.989804595,0.011291475,0.017761185
1764505022.561963,-3.70818,0.71722,1.38866,0.989804595,0.011291475,0.017761185
1764505022.561963,-3.70818,0.71722,1.38866,0.989804595,0.011291475,0.017761185
1764505022.561963,-3.70818,0.71722,1.38866,0.989804595,0.011291475,0.017761185
1764505022.6092255,-3.26564,0.88508,2.10588,0.98974356,0.010070775,0.017883255
1764505022.6092255,-3.26564,0.88508,2.10588,0.98974356,0.010070775,0.017883255
1764505022.6092255,-3.26564,0.88508,2.10588,0.98974356,0.010070775,0.017883255
1764505022.6092255,-3.26564,0.88508,2.10588,0.98974356,0.010070775,0.017883255
1764505022.6092255,-3.26564,0.88508,2.10588,0.98974356,0.010070775,0.017883255
1764505022.6092255,-3.26564,0.88508,2.10588,0.98974356,0.010070775,0.017883255
1764505022.6092255,-3.26564,0.88508,2.10588,0.98974356,0.010070775,0.017883255
1764505022.6092255,-3.26564,0.88508,2.10588,0.98974356,0.010070775,0.017883255
1764505022.6092255,-3.26564,0.88508,2.10588,0.98974356,0.010070775,0.017883255
1764505022.6092255,-3.26564,0.88508,2.10588,0.98974356,0.010070775,0.017883255
1764505022.6092255,-3.47928,0.85456,1.72438,0.990537015,0.009582495,0.01782222
1764505022.6092255,-3.47928,0.85456,1.72438,0.990537015,0.009582495,0.01782222
1764505022.6092255,-3.47928,0.85456,1.72438,0.990537015,0.009582495,0.01782222
1764505022.6092255,-3.47928,0.85456,1.72438,0.990537015,0.009582495,0.01782222
1764505022.6092255,-3.47928,0.85456,1.72438,0.990537015,0.009582495,0.01782222
1764505022.6092255,-3.47928,0.85456,1.72438,0.990537015,0.009582495,0.01782222
1764505022.6092255,-3.47928,0.85456,1.72438,0.990537015,0.009582495,0.01782222
1764505022.6092255,-3.47928,0.85456,1.72438,0.990537015,0.009582495,0.01782222
1764505022.6092255,-3.47928,0.85456,1.72438,0.990537015,0.009582495,0.01782222
1764505022.6092255,-3.47928,0.85456,1.72438,0.990537015,0.009582495,0.01782222
1764505022.6092255,-3.00622,0.88508,1.55652,0.990170805,0.008117655,0.01770015
1764505022.6092255,-3.00622,0.88508,1.55652,0.990170805,0.008117655,0.01770015
1764505022.6092255,-3.00622,0.88508,1.55652,0.990170805,0.008117655,0.01770015
1764505022.6092255,-3.00622,0.88508,1.55652,0.990170805,0.008117655,0.01770015
1764505022.6538546,-3.00622,0.88508,1.55652,0.990170805,0.008117655,0.01770015
1764505022.6538546,-3.00622,0.88508,1.55652,0.990170805,0.008117655,0.01770015
1764505022.6538546,-3.00622,0.88508,1.55652,0.990170805,0.008117655,0.01770015
1764505022.6538546,-3.00622,0.88508,1.55652,0.990170805,0.008117655,0.01770015
1764505022.6538546,-3.00622,0.88508,1.55652,0.990170805,0.008117655,0.01770015
1764505022.6538546,-3.00622,0.88508,1.55652,0.990170805,0.008117655,0.01770015
1764505022.6538546,-3.37246,0.56462,1.7549,0.98974356,0.007507305,0.017150835
1764505022.654873,-3.37246,0.56462,1.7549,0.98974356,0.007507305,0.017150835
1764505022.654873,-3.37246,0.56462,1.7549,0.98974356,0.007507305,0.017150835
1764505022.654873,-3.37246,0.56462,1.7549,0.98974356,0.007507305,0.017150835
1764505022.654873,-3.37246,0.56462,1.7549,0.98974356,0.007507305,0.017150835
1764505022.654873,-3.37246,0.56462,1.7549,0.98974356,0.007507305,0.017150835
1764505022.654873,-3.37246,0.56462,1.7549,0.98974356,0.007507305,0.017150835
1764505022.6553826,-3.37246,0.56462,1.7549,0.98974356,0.007507305,0.017150835
1764505022.6553826,-3.37246,0.56462,1.7549,0.98974356,0.007507305,0.017150835
1764505022.6553826,-3.37246,0.56462,1.7549,0.98974356,0.007507305,0.017150835
1764505022.6553826,-3.55558,0.3357199999999999,1.19028,0.98937735,0.007141095,0.017150835
1764505022.6553826,-3.55558,0.3357199999999999,1.19028,0.98937735,0.007141095,0.017150835
1764505022.6553826,-3.55558,0.3357199999999999,1.19028,0.98937735,0.007141095,0.017150835
1764505022.6553826,-3.55558,0.3357199999999999,1.19028,0.98937735,0.007141095,0.017150835
1764505022.6553826,-3.55558,0.3357199999999999,1.19028,0.98937735,0.007141095,0.017150835
1764505022.6553826,-3.55558,0.3357199999999999,1.19028,0.98937735,0.007141095,0.017150835
1764505022.6553826,-3.55558,0.3357199999999999,1.19028,0.98937735,0.007141095,0.017150835
1764505022.6553826,-3.55558,0.3357199999999999,1.19028,0.98937735,0.007141095,0.017150835
1764505022.7027545,-3.55558,0.3357199999999999,1.19028,0.98937735,0.007141095,0.017150835
1764505022.7027545,-3.55558,0.3357199999999999,1.19028,0.98937735,0.007141095,0.017150835
1764505022.7027545,-3.69292,0.54936,0.93086,0.9899877,0.00598143,0.0158691
1764505022.7027545,-3.69292,0.54936,0.93086,0.9899877,0.00598143,0.0158691
1764505022.7027545,-3.69292,0.54936,0.93086,0.9899877,0.00598143,0.0158691
1764505022.7027545,-3.69292,0.54936,0.93086,0.9899877,0.00598143,0.0158691
1764505022.7027545,-3.69292,0.54936,0.93086,0.9899877,0.00598143,0.0158691
1764505022.7027545,-3.69292,0.54936,0.93086,0.9899877,0.00598143,0.0158691
1764505022.7037692,-3.69292,0.54936,0.93086,0.9899877,0.00598143,0.0158691
1764505022.7037692,-3.69292,0.54936,0.93086,0.9899877,0.00598143,0.0158691
1764505022.7037692,-3.69292,0.54936,0.93086,0.9899877,0.00598143,0.0158691
1764505022.7037692,-3.69292,0.54936,0.93086,0.9899877,0.00598143,0.0158691
1764505022.7037692,-3.92182,0.82404,0.25942,0.99084219,0.006042465,0.014953575
1764505022.7037692,-3.92182,0.82404,0.25942,0.99084219,0.006042465,0.014953575
1764505022.7037692,-3.92182,0.82404,0.25942,0.99084219,0.006042465,0.014953575
1764505022.7037692,-3.92182,0.82404,0.25942,0.99084219,0.006042465,0.014953575
1764505022.7037692,-3.92182,0.82404,0.25942,0.99084219,0.006042465,0.014953575
1764505022.7037692,-3.92182,0.82404,0.25942,0.99084219,0.006042465,0.014953575
1764505022.7037692,-3.92182,0.82404,0.25942,0.99084219,0.006042465,0.014953575
1764505022.7037692,-3.92182,0.82404,0.25942,0.99084219,0.006042465,0.014953575
1764505022.7037692,-3.92182,0.82404,0.25942,0.99084219,0.006042465,0.014953575
1764505022.7037692,-3.92182,0.82404,0.25942,0.99084219,0.006042465,0.014953575
1764505022.7037692,-3.75396,1.2971,0.59514,0.991635645,0.0061035,0.014587365
1764505022.7037692,-3.75396,1.2971,0.59514,0.991635645,0.0061035,0.014587365
1764505022.7510216,-3.75396,1.2971,0.59514,0.991635645,0.0061035,0.014587365
1764505022.7510216,-3.75396,1.2971,0.59514,0.991635645,0.0061035,0.014587365
1764505022.7510216,-3.75396,1.2971,0.59514,0.991635645,0.0061035,0.014587365
1764505022.752539,-3.75396,1.2971,0.59514,0.991635645,0.0061035,0.014587365
1764505022.752539,-3.75396,1.2971,0.59514,0.991635645,0.0061035,0.014587365
1764505022.752539,-3.75396,1.2971,0.59514,0.991635645,0.0061035,0.014587365
1764505022.752539,-3.75396,1.2971,0.59514,0.991635645,0.0061035,0.014587365
1764505022.752539,-3.75396,1.2971,0.59514,0.991635645,0.0061035,0.014587365
1764505022.752539,-4.1965,1.28184,0.7019599999999999,0.99145254,0.0061035,0.014221155
1764505022.752539,-4.1965,1.28184,0.7019599999999999,0.99145254,0.0061035,0.014221155
1764505022.752539,-4.1965,1.28184,0.7019599999999999,0.99145254,0.0061035,0.014221155
1764505022.752539,-4.1965,1.28184,0.7019599999999999,0.99145254,0.0061035,0.014221155
1764505022.752539,-4.1965,1.28184,0.7019599999999999,0.99145254,0.0061035,0.014221155
1764505022.752539,-4.1965,1.28184,0.7019599999999999,0.99145254,0.0061035,0.014221155
1764505022.752539,-4.1965,1.28184,0.7019599999999999,0.99145254,0.0061035,0.014221155
1764505022.752539,-4.1965,1.28184,0.7019599999999999,0.99145254,0.0061035,0.014221155
1764505022.752539,-4.1965,1.28184,0.7019599999999999,0.99145254,0.0061035,0.014221155
1764505022.752539,-4.1965,1.28184,0.7019599999999999,0.99145254,0.0061035,0.014221155
1764505022.752539,-3.83026,1.32762,0.9919,0.991147365,0.00549315,0.015319785
1764505022.752539,-3.83026,1.32762,0.9919,0.991147365,0.00549315,0.015319785
1764505022.752539,-3.83026,1.32762,0.9919,0.991147365,0.00549315,0.015319785
1764505022.752539,-3.83026,1.32762,0.9919,0.991147365,0.00549315,0.015319785
1764505022.752539,-3.83026,1.32762,0.9919,0.991147365,0.00549315,0.015319785
1764505022.752539,-3.83026,1.32762,0.9919,0.991147365,0.00549315,0.015319785
1764505022.7979977,-3.83026,1.32762,0.9919,0.991147365,0.00549315,0.015319785
1764505022.7979977,-3.83026,1.32762,0.9919,0.991147365,0.00549315,0.015319785
1764505022.7979977,-3.83026,1.32762,0.9919,0.991147365,0.00549315,0.015319785
1764505022.7979977,-3.83026,1.32762,0.9919,0.991147365,0.00549315,0.015319785
1764505022.7979977,-3.5861,0.47306,1.48022,0.98705802,0.00524901,0.01477047
1764505022.7979977,-3.5861,0.47306,1.48022,0.98705802,0.00524901,0.01477047
1764505022.7979977,-3.5861,0.47306,1.48022,0.98705802,0.00524901,0.01477047
1764505022.7979977,-3.5861,0.47306,1.48022,0.98705802,0.00524901,0.01477047
1764505022.7979977,-3.5861,0.47306,1.48022,0.98705802,0.00524901,0.01477047
1764505022.7979977,-3.5861,0.47306,1.48022,0.98705802,0.00524901,0.01477047
1764505022.7979977,-3.5861,0.47306,1.48022,0.98705802,0.00524901,0.01477047
1764505022.7979977,-3.5861,0.47306,1.48022,0.98705802,0.00524901,0.01477047
1764505022.7979977,-3.5861,0.47306,1.48022,0.98705802,0.00524901,0.01477047
1764505022.7979977,-3.5861,0.47306,1.48022,0.98705802,0.00524901,0.01477047
1764505022.7979977,-3.86078,0.8392999999999999,1.46496,0.98656974,0.00439452,0.0134277
1764505022.7979977,-3.86078,0.8392999999999999,1.46496,0.98656974,0.00439452,0.0134277
1764505022.7979977,-3.86078,0.8392999999999999,1.46496,0.98656974,0.00439452,0.0134277
1764505022.7979977,-3.86078,0.8392999999999999,1.46496,0.98656974,0.00439452,0.0134277
1764505022.7979977,-3.86078,0.8392999999999999,1.46496,0.98656974,0.00439452,0.0134277
1764505022.7979977,-3.86078,0.8392999999999999,1.46496,0.98656974,0.00439452,0.0134277
1764505022.7979977,-3.86078,0.8392999999999999,1.46496,0.98656974,0.00439452,0.0134277
1764505022.7979977,-3.86078,0.8392999999999999,1.46496,0.98656974,0.00439452,0.0134277
1764505022.842194,-3.86078,0.8392999999999999,1.46496,0.98656974,0.00439452,0.0134277
1764505022.842194,-3.86078,0.8392999999999999,1.46496,0.98656974,0.00439452,0.0134277
1764505022.842194,-3.8913,1.43444,0.1678599999999999,0.99157461,0.003967275,0.012207
1764505022.842194,-3.8913,1.43444,0.1678599999999999,0.99157461,0.003967275,0.012207
1764505022.842194,-3.8913,1.43444,0.1678599999999999,0.99157461,0.003967275,0.012207
1764505022.842194,-3.8913,1.43444,0.1678599999999999,0.99157461,0.003967275,0.012207
1764505022.842194,-3.8913,1.43444,0.1678599999999999,0.99157461,0.003967275,0.012207
1764505022.842194,-3.8913,1.43444,0.1678599999999999,0.99157461,0.003967275,0.012207
1764505022.842194,-3.8913,1.43444,0.1678599999999999,0.99157461,0.003967275,0.012207
1764505022.842194,-3.8913,1.43444,0.1678599999999999,0.99157461,0.003967275,0.012207
1764505022.842194,-3.8913,1.43444,0.1678599999999999,0.99157461,0.003967275,0.012207
1764505022.842194,-3.8913,1.43444,0.1678599999999999,0.99157461,0.003967275,0.012207
1764505022.842194,-3.83026,1.73964,-1.35814,0.99352773,0.005554185,0.011047335
1764505022.842194,-3.83026,1.73964,-1.35814,0.99352773,0.005554185,0.011047335
1764505022.842194,-3.83026,1.73964,-1.35814,0.99352773,0.005554185,0.011047335
1764505022.842194,-3.83026,1.73964,-1.35814,0.99352773,0.005554185,0.011047335
1764505022.842194,-3.83026,1.73964,-1.35814,0.99352773,0.005554185,0.011047335
1764505022.842194,-3.83026,1.73964,-1.35814,0.99352773,0.005554185,0.011047335
1764505022.842194,-3.83026,1.73964,-1.35814,0.99352773,0.005554185,0.011047335
1764505022.8432205,-3.83026,1.73964,-1.35814,0.99352773,0.005554185,0.011047335
1764505022.8432205,-3.83026,1.73964,-1.35814,0.99352773,0.005554185,0.011047335
1764505022.8432205,-3.83026,1.73964,-1.35814,0.99352773,0.005554185,0.011047335
1764505022.890327,-4.45592,2.65524,-1.78542,0.99426015,0.006896955,0.010925265
1764505022.891861,-4.45592,2.65524,-1.78542,0.99426015,0.006896955,0.010925265
1764505022.891861,-4.45592,2.65524,-1.78542,0.99426015,0.006896955,0.010925265
1764505022.891861,-4.45592,2.65524,-1.78542,0.99426015,0.006896955,0.010925265
1764505022.891861,-4.45592,2.65524,-1.78542,0.99426015,0.006896955,0.010925265
1764505022.891861,-4.45592,2.65524,-1.78542,0.99426015,0.006896955,0.010925265
1764505022.891861,-4.45592,2.65524,-1.78542,0.99426015,0.006896955,0.010925265
1764505022.891861,-4.45592,2.65524,-1.78542,0.99426015,0.006896955,0.010925265
1764505022.891861,-4.45592,2.65524,-1.78542,0.99426015,0.006896955,0.010925265
1764505022.891861,-4.45592,2.65524,-1.78542,0.99426015,0.006896955,0.010925265
1764505022.891861,-3.76922,3.08252,-1.0682,0.99230703,0.006530745,0.011779755
1764505022.891861,-3.76922,3.08252,-1.0682,0.99230703,0.006530745,0.011779755
1764505022.891861,-3.76922,3.08252,-1.0682,0.99230703,0.006530745,0.011779755
1764505022.891861,-3.76922,3.08252,-1.0682,0.99230703,0.006530745,0.011779755
1764505022.891861,-3.76922,3.08252,-1.0682,0.99230703,0.006530745,0.011779755
1764505022.891861,-3.76922,3.08252,-1.0682,0.99230703,0.006530745,0.011779755
1764505022.891861,-3.76922,3.08252,-1.0682,0.99230703,0.006530745,0.011779755
1764505022.891861,-3.76922,3.08252,-1.0682,0.99230703,0.006530745,0.011779755
1764505022.891861,-3.76922,3.08252,-1.0682,0.99230703,0.006530745,0.011779755
1764505022.891861,-3.76922,3.08252,-1.0682,0.99230703,0.006530745,0.011779755
1764505022.891861,-2.8231,2.77732,-0.6867,0.99145254,0.006408675,0.013488735
1764505022.8928754,-2.8231,2.77732,-0.6867,0.99145254,0.006408675,0.013488735
1764505022.8928754,-2.8231,2.77732,-0.6867,0.99145254,0.006408675,0.013488735
1764505022.8928754,-2.8231,2.77732,-0.6867,0.99145254,0.006408675,0.013488735
1764505022.938466,-2.8231,2.77732,-0.6867,0.99145254,0.006408675,0.013488735
1764505022.938466,-2.8231,2.77732,-0.6867,0.99145254,0.006408675,0.013488735
1764505022.938466,-2.8231,2.77732,-0.6867,0.99145254,0.006408675,0.013488735
1764505022.938466,-2.8231,2.77732,-0.6867,0.99145254,0.006408675,0.013488735
1764505022.938466,-2.8231,2.77732,-0.6867,0.99145254,0.006408675,0.013488735
1764505022.938466,-2.8231,2.77732,-0.6867,0.99145254,0.006408675,0.013488735
1764505022.938466,-2.22796,3.1283,0.0762999999999999,0.99072012,0.00744627,0.015808065
1764505022.938466,-2.22796,3.1283,0.0762999999999999,0.99072012,0.00744627,0.015808065
1764505022.9394715,-2.22796,3.1283,0.0762999999999999,0.99072012,0.00744627,0.015808065
1764505022.9394715,-2.22796,3.1283,0.0762999999999999,0.99072012,0.00744627,0.015808065
1764505022.9394715,-2.22796,3.1283,0.0762999999999999,0.99072012,0.00744627,0.015808065
1764505022.9394715,-2.22796,3.1283,0.0762999999999999,0.99072012,0.00744627,0.015808065
1764505022.9394715,-2.22796,3.1283,0.0762999999999999,0.99072012,0.00744627,0.015808065
1764505022.9394715,-2.22796,3.1283,0.0762999999999999,0.99072012,0.00744627,0.015808065
1764505022.9394715,-2.22796,3.1283,0.0762999999999999,0.99072012,0.00744627,0.015808065
1764505022.9394715,-2.22796,3.1283,0.0762999999999999,0.99072012,0.00744627,0.015808065
1764505022.9394715,-1.9838,2.96044,-0.04578,0.99023184,0.00878904,0.016662555
1764505022.9394715,-1.9838,2.96044,-0.04578,0.99023184,0.00878904,0.016662555
1764505022.9394715,-1.9838,2.96044,-0.04578,0.99023184,0.00878904,0.016662555
1764505022.9394715,-1.9838,2.96044,-0.04578,0.99023184,0.00878904,0.016662555
1764505022.9394715,-1.9838,2.96044,-0.04578,0.99023184,0.00878904,0.016662555
1764505022.9394715,-1.9838,2.96044,-0.04578,0.99023184,0.00878904,0.016662555
1764505022.9394715,-1.9838,2.96044,-0.04578,0.99023184,0.00878904,0.016662555
1764505022.9394715,-1.9838,2.96044,-0.04578,0.99023184,0.00878904,0.016662555
1764505022.9837744,-1.9838,2.96044,-0.04578,0.99023184,0.00878904,0.016662555
1764505022.9837744,-1.9838,2.96044,-0.04578,0.99023184,0.00878904,0.016662555
1764505022.9837744,-1.9838,2.83836,0.48832,0.990537015,0.010559055,0.018615675
1764505022.9837744,-1.9838,2.83836,0.48832,0.990537015,0.010559055,0.018615675
1764505022.9837744,-1.9838,2.83836,0.48832,0.990537015,0.010559055,0.018615675
1764505022.9837744,-1.9838,2.83836,0.48832,0.990537015,0.010559055,0.018615675
1764505022.9837744,-1.9838,2.83836,0.48832,0.990537015,0.010559055,0.018615675
1764505022.9837744,-1.9838,2.83836,0.48832,0.990537015,0.010559055,0.018615675
1764505022.9837744,-1.9838,2.83836,0.48832,0.990537015,0.010559055,0.018615675
1764505022.984786,-1.9838,2.83836,0.48832,0.990537015,0.010559055,0.018615675
1764505022.986436,-1.9838,2.83836,0.48832,0.990537015,0.010559055,0.018615675
1764505022.986436,-1.9838,2.83836,0.48832,0.990537015,0.010559055,0.018615675
1764505022.987375,-2.30426,2.48738,1.32762,0.990170805,0.012268035,0.018981885
1764505022.987375,-2.30426,2.48738,1.32762,0.990170805,0.012268035,0.018981885
1764505022.987375,-2.30426,2.48738,1.32762,0.990170805,0.012268035,0.018981885
1764505022.987375,-2.30426,2.48738,1.32762,0.990170805,0.012268035,0.018981885
1764505022.987375,-2.30426,2.48738,1.32762,0.990170805,0.012268035,0.018981885
1764505022.987375,-2.30426,2.48738,1.32762,0.990170805,0.012268035,0.018981885
1764505022.987375,-2.30426,2.48738,1.32762,0.990170805,0.012268035,0.018981885
1764505022.987375,-2.30426,2.48738,1.32762,0.990170805,0.012268035,0.018981885
1764505022.987375,-2.30426,2.48738,1.32762,0.990170805,0.012268035,0.018981885
1764505022.987375,-2.30426,2.48738,1.32762,0.990170805,0.012268035,0.018981885
1764505022.987375,-3.23512,2.02958,1.64808,0.990414945,0.013244595,0.020080515
1764505022.987375,-3.23512,2.02958,1.64808,0.990414945,0.013244595,0.020080515
1764505022.987375,-3.23512,2.02958,1.64808,0.990414945,0.013244595,0.020080515
1764505022.987375,-3.23512,2.02958,1.64808,0.990414945,0.013244595,0.020080515
1764505023.0323572,-3.23512,2.02958,1.64808,0.990414945,0.013244595,0.020080515
1764505023.0323572,-3.23512,2.02958,1.64808,0.990414945,0.013244595,0.020080515
1764505023.0323572,-3.23512,2.02958,1.64808,0.990414945,0.013244595,0.020080515
1764505023.0323572,-3.23512,2.02958,1.64808,0.990414945,0.013244595,0.020080515
1764505023.0323572,-3.23512,2.02958,1.64808,0.990414945,0.013244595,0.020080515
1764505023.0323572,-3.23512,2.02958,1.64808,0.990414945,0.013244595,0.020080515
1764505023.0323572,-3.93708,1.46496,2.24322,0.989926665,0.01367184,0.02026362
1764505023.0323572,-3.93708,1.46496,2.24322,0.989926665,0.01367184,0.02026362
1764505023.0323572,-3.93708,1.46496,2.24322,0.989926665,0.01367184,0.02026362
1764505023.0323572,-3.93708,1.46496,2.24322,0.989926665,0.01367184,0.02026362
1764505023.0323572,-3.93708,1.46496,2.24322,0.989926665,0.01367184,0.02026362
1764505023.0323572,-3.93708,1.46496,2.24322,0.989926665,0.01367184,0.02026362
1764505023.0323572,-3.93708,1.46496,2.24322,0.989926665,0.01367184,0.02026362
1764505023.0323572,-3.93708,1.46496,2.24322,0.989926665,0.01367184,0.02026362
1764505023.0323572,-3.93708,1.46496,2.24322,0.989926665,0.01367184,0.02026362
1764505023.0323572,-3.93708,1.46496,2.24322,0.989926665,0.01367184,0.02026362
1764505023.0323572,-4.1202,0.71722,2.54842,0.98901114,0.01232907,0.02026362
1764505023.0323572,-4.1202,0.71722,2.54842,0.98901114,0.01232907,0.02026362
1764505023.0323572,-4.1202,0.71722,2.54842,0.98901114,0.01232907,0.02026362
1764505023.0323572,-4.1202,0.71722,2.54842,0.98901114,0.01232907,0.02026362
1764505023.0333562,-4.1202,0.71722,2.54842,0.98901114,0.01232907,0.02026362
1764505023.0333562,-4.1202,0.71722,2.54842,0.98901114,0.01232907,0.02026362
1764505023.0775375,-4.1202,0.71722,2.54842,0.98901114,0.01232907,0.02026362
1764505023.0775375,-4.1202,0.71722,2.54842,0.98901114,0.01232907,0.02026362
1764505023.0775375,-4.1202,0.71722,2.54842,0.98901114,0.01232907,0.02026362
1764505023.0775375,-4.1202,0.71722,2.54842,0.98901114,0.01232907,0.02026362
1764505023.0775375,-4.2728,0.96138,3.09778,0.989072175,0.01013181,0.02087397
1764505023.0775375,-4.2728,0.96138,3.09778,0.989072175,0.01013181,0.02087397
1764505023.0775375,-4.2728,0.96138,3.09778,0.989072175,0.01013181,0.02087397
1764505023.0775375,-4.2728,0.96138,3.09778,0.989072175,0.01013181,0.02087397
1764505023.0775375,-4.2728,0.96138,3.09778,0.989072175,0.01013181,0.02087397
1764505023.0775375,-4.2728,0.96138,3.09778,0.989072175,0.01013181,0.02087397
1764505023.0775375,-4.2728,0.96138,3.09778,0.989072175,0.01013181,0.02087397
1764505023.0775375,-4.2728,0.96138,3.09778,0.989072175,0.01013181,0.02087397
1764505023.0775375,-4.2728,0.96138,3.09778,0.989072175,0.01013181,0.02087397
1764505023.0775375,-4.2728,0.96138,3.09778,0.989072175,0.01013181,0.02087397
1764505023.079054,-3.69292,0.41202,2.63998,0.988339755,0.00659178,0.020202585
1764505023.079054,-3.69292,0.41202,2.63998,0.988339755,0.00659178,0.020202585
1764505023.079054,-3.69292,0.41202,2.63998,0.988339755,0.00659178,0.020202585
1764505023.079054,-3.69292,0.41202,2.63998,0.988339755,0.00659178,0.020202585
1764505023.079054,-3.69292,0.41202,2.63998,0.988339755,0.00659178,0.020202585
1764505023.079054,-3.69292,0.41202,2.63998,0.988339755,0.00659178,0.020202585
1764505023.079054,-3.69292,0.41202,2.63998,0.988339755,0.00659178,0.020202585
1764505023.079054,-3.69292,0.41202,2.63998,0.988339755,0.00659178,0.020202585
1764505023.079054,-3.69292,0.41202,2.63998,0.988339755,0.00659178,0.020202585
1764505023.079054,-3.69292,0.41202,2.63998,0.988339755,0.00659178,0.020202585
1764505023.1249046,-3.31142,-0.7019599999999999,2.71628,0.98705802,0.00512694,0.018737745
1764505023.1249046,-3.31142,-0.7019599999999999,2.71628,0.98705802,0.00512694,0.018737745
1764505023.1249046,-3.31142,-0.7019599999999999,2.71628,0.98705802,0.00512694,0.018737745
1764505023.1249046,-3.31142,-0.7019599999999999,2.71628,0.98705802,0.00512694,0.018737745
1764505023.1249046,-3.31142,-0.7019599999999999,2.71628,0.98705802,0.00512694,0.018737745
1764505023.1249046,-3.31142,-0.7019599999999999,2.71628,0.98705802,0.00512694,0.018737745
1764505023.1249046,-3.31142,-0.7019599999999999,2.71628,0.98705802,0.00512694,0.018737745
1764505023.1249046,-3.31142,-0.7019599999999999,2.71628,0.98705802,0.00512694,0.018737745
1764505023.1249046,-3.31142,-0.7019599999999999,2.71628,0.98705802,0.00512694,0.018737745
1764505023.1249046,-3.31142,-0.7019599999999999,2.71628,0.98705802,0.00512694,0.018737745
1764505023.1249046,-2.8994,0.19838,2.33478,0.98974356,0.002868645,0.017394975
1764505023.1249046,-2.8994,0.19838,2.33478,0.98974356,0.002868645,0.017394975
1764505023.1249046,-2.8994,0.19838,2.33478,0.98974356,0.002868645,0.017394975
1764505023.1249046,-2.8994,0.19838,2.33478,0.98974356,0.002868645,0.017394975
1764505023.1249046,-2.8994,0.19838,2.33478,0.98974356,0.002868645,0.017394975
1764505023.1249046,-2.8994,0.19838,2.33478,0.98974356,0.002868645,0.017394975
1764505023.1249046,-2.8994,0.19838,2.33478,0.98974356,0.002868645,0.017394975
1764505023.1249046,-2.8994,0.19838,2.33478,0.98974356,0.002868645,0.017394975
1764505023.1249046,-2.8994,0.19838,2.33478,0.98974356,0.002868645,0.017394975
1764505023.1249046,-2.8994,0.19838,2.33478,0.98974356,0.002868645,0.017394975
1764505023.125914,-2.85362,1.02242,1.28184,0.991757715,0.00158691,0.016784625
1764505023.125914,-2.85362,1.02242,1.28184,0.991757715,0.00158691,0.016784625
1764505023.1689613,-2.85362,1.02242,1.28184,0.991757715,0.00158691,0.016784625
1764505023.169474,-2.85362,1.02242,1.28184,0.991757715,0.00158691,0.016784625
1764505023.169474,-2.85362,1.02242,1.28184,0.991757715,0.00158691,0.016784625
1764505023.169474,-2.85362,1.02242,1.28184,0.991757715,0.00158691,0.016784625
1764505023.169474,-2.85362,1.02242,1.28184,0.991757715,0.00158691,0.016784625
1764505023.169474,-2.85362,1.02242,1.28184,0.991757715,0.00158691,0.016784625
1764505023.169474,-2.85362,1.02242,1.28184,0.991757715,0.00158691,0.016784625
1764505023.169474,-2.85362,1.02242,1.28184,0.991757715,0.00158691,0.016784625
1764505023.169474,-3.11304,1.6633399999999998,0.6867,0.99267324,0.002380365,0.01635738
1764505023.169474,-3.11304,1.6633399999999998,0.6867,0.99267324,0.002380365,0.01635738
1764505023.169474,-3.11304,1.6633399999999998,0.6867,0.99267324,0.002380365,0.01635738
1764505023.169474,-3.11304,1.6633399999999998,0.6867,0.99267324,0.002380365,0.01635738
1764505023.169474,-3.11304,1.6633399999999998,0.6867,0.99267324,0.002380365,0.01635738
1764505023.169474,-3.11304,1.6633399999999998,0.6867,0.99267324,0.002380365,0.01635738
1764505023.170002,-3.11304,1.6633399999999998,0.6867,0.99267324,0.002380365,0.01635738
1764505023.170002,-3.11304,1.6633399999999998,0.6867,0.99267324,0.002380365,0.01635738
1764505023.170002,-3.11304,1.6633399999999998,0.6867,0.99267324,0.002380365,0.01635738
1764505023.170002,-3.11304,1.6633399999999998,0.6867,0.99267324,0.002380365,0.01635738
1764505023.170002,-2.8994,2.25848,-0.01526,0.99181875,0.00305175,0.01574703
1764505023.170002,-2.8994,2.25848,-0.01526,0.99181875,0.00305175,0.01574703
1764505023.170002,-2.8994,2.25848,-0.01526,0.99181875,0.00305175,0.01574703
1764505023.170002,-2.8994,2.25848,-0.01526,0.99181875,0.00305175,0.01574703
1764505023.2187314,-2.8994,2.25848,-0.01526,0.99181875,0.00305175,0.01574703
1764505023.2187314,-2.8994,2.25848,-0.01526,0.99181875,0.00305175,0.01574703
1764505023.2187314,-2.8994,2.25848,-0.01526,0.99181875,0.00305175,0.01574703
1764505023.2187314,-2.8994,2.25848,-0.01526,0.99181875,0.00305175,0.01574703
1764505023.2187314,-2.8994,2.25848,-0.01526,0.99181875,0.00305175,0.01574703
1764505023.2187314,-2.8994,2.25848,-0.01526,0.99181875,0.00305175,0.01574703
1764505023.2187314,-3.4335,1.99906,-0.3051999999999999,0.991269435,0.003356925,0.01672359
1764505023.2187314,-3.4335,1.99906,-0.3051999999999999,0.991269435,0.003356925,0.01672359
1764505023.2187314,-3.4335,1.99906,-0.3051999999999999,0.991269435,0.003356925,0.01672359
1764505023.2187314,-3.4335,1.99906,-0.3051999999999999,0.991269435,0.003356925,0.01672359
1764505023.2187314,-3.4335,1.99906,-0.3051999999999999,0.991269435,0.003356925,0.01672359
1764505023.2187314,-3.4335,1.99906,-0.3051999999999999,0.991269435,0.003356925,0.01672359
1764505023.2187314,-3.4335,1.99906,-0.3051999999999999,0.991269435,0.003356925,0.01672359
1764505023.2187314,-3.4335,1.99906,-0.3051999999999999,0.991269435,0.003356925,0.01672359
1764505023.2187314,-3.4335,1.99906,-0.3051999999999999,0.991269435,0.003356925,0.01672359
1764505023.2187314,-3.4335,1.99906,-0.3051999999999999,0.991269435,0.003356925,0.01672359
1764505023.2187314,-3.44876,1.7549,-0.3051999999999999,0.98962149,0.004089345,0.017883255
1764505023.2187314,-3.44876,1.7549,-0.3051999999999999,0.98962149,0.004089345,0.017883255
1764505023.2187314,-3.44876,1.7549,-0.3051999999999999,0.98962149,0.004089345,0.017883255
1764505023.2187314,-3.44876,1.7549,-0.3051999999999999,0.98962149,0.004089345,0.017883255
1764505023.2196915,-3.44876,1.7549,-0.3051999999999999,0.98962149,0.004089345,0.017883255
1764505023.2196915,-3.44876,1.7549,-0.3051999999999999,0.98962149,0.004089345,0.017883255
1764505023.2196915,-3.44876,1.7549,-0.3051999999999999,0.98962149,0.004089345,0.017883255
1764505023.2196915,-3.44876,1.7549,-0.3051999999999999,0.98962149,0.004089345,0.017883255
1764505023.2196915,-3.44876,1.7549,-0.3051999999999999,0.98962149,0.004089345,0.017883255
1764505023.2196915,-3.44876,1.7549,-0.3051999999999999,0.98962149,0.004089345,0.017883255
1764505023.262215,-3.41824,0.97664,-0.2289,0.989682525,0.004577625,0.01818843
1764505023.262215,-3.41824,0.97664,-0.2289,0.989682525,0.004577625,0.01818843
1764505023.2632444,-3.41824,0.97664,-0.2289,0.989682525,0.004577625,0.01818843
1764505023.2632444,-3.41824,0.97664,-0.2289,0.989682525,0.004577625,0.01818843
1764505023.2632444,-3.41824,0.97664,-0.2289,0.989682525,0.004577625,0.01818843
1764505023.2632444,-3.41824,0.97664,-0.2289,0.989682525,0.004577625,0.01818843
1764505023.2632444,-3.41824,0.97664,-0.2289,0.989682525,0.004577625,0.01818843
1764505023.2632444,-3.41824,0.97664,-0.2289,0.989682525,0.004577625,0.01818843
1764505023.2632444,-3.41824,0.97664,-0.2289,0.989682525,0.004577625,0.01818843
1764505023.2632444,-3.41824,0.97664,-0.2289,0.989682525,0.004577625,0.01818843
1764505023.2632444,-3.76922,0.9156,0.09156,0.98901114,0.00671385,0.01892085
1764505023.2632444,-3.76922,0.9156,0.09156,0.98901114,0.00671385,0.01892085
1764505023.264901,-3.76922,0.9156,0.09156,0.98901114,0.00671385,0.01892085
1764505023.264901,-3.76922,0.9156,0.09156,0.98901114,0.00671385,0.01892085
1764505023.264901,-3.76922,0.9156,0.09156,0.98901114,0.00671385,0.01892085
1764505023.264901,-3.76922,0.9156,0.09156,0.98901114,0.00671385,0.01892085
1764505023.264901,-3.76922,0.9156,0.09156,0.98901114,0.00671385,0.01892085
1764505023.264901,-3.76922,0.9156,0.09156,0.98901114,0.00671385,0.01892085
1764505023.264901,-3.76922,0.9156,0.09156,0.98901114,0.00671385,0.01892085
1764505023.264901,-3.76922,0.9156,0.09156,0.98901114,0.00671385,0.01892085
1764505023.264901,-3.37246,0.71722,0.19838,0.98937735,0.00720213,0.01892085
1764505023.264901,-3.37246,0.71722,0.19838,0.98937735,0.00720213,0.01892085
1764505023.3114114,-3.37246,0.71722,0.19838,0.98937735,0.00720213,0.01892085
1764505023.3114114,-3.37246,0.71722,0.19838,0.98937735,0.00720213,0.01892085
1764505023.3114114,-3.37246,0.71722,0.19838,0.98937735,0.00720213,0.01892085
1764505023.3114114,-3.37246,0.71722,0.19838,0.98937735,0.00720213,0.01892085
1764505023.3114114,-3.37246,0.71722,0.19838,0.98937735,0.00720213,0.01892085
1764505023.3114114,-3.37246,0.71722,0.19838,0.98937735,0.00720213,0.01892085
1764505023.3126209,-3.37246,0.71722,0.19838,0.98937735,0.00720213,0.01892085
1764505023.3126209,-3.37246,0.71722,0.19838,0.98937735,0.00720213,0.01892085
1764505023.3126209,-4.08968,0.48832,0.82404,0.98986563,0.00878904,0.018737745
1764505023.3126209,-4.08968,0.48832,0.82404,0.98986563,0.00878904,0.018737745
1764505023.3126209,-4.08968,0.48832,0.82404,0.98986563,0.00878904,0.018737745
1764505023.3126209,-4.08968,0.48832,0.82404,0.98986563,0.00878904,0.018737745
1764505023.3126209,-4.08968,0.48832,0.82404,0.98986563,0.00878904,0.018737745
1764505023.3126209,-4.08968,0.48832,0.82404,0.98986563,0.00878904,0.018737745
1764505023.3126209,-4.08968,0.48832,0.82404,0.98986563,0.00878904,0.018737745
1764505023.3126209,-4.08968,0.48832,0.82404,0.98986563,0.00878904,0.018737745
1764505023.3126209,-4.08968,0.48832,0.82404,0.98986563,0.00878904,0.018737745
1764505023.3126209,-4.08968,0.48832,0.82404,0.98986563,0.00878904,0.018737745
1764505023.3126209,-3.98286,1.08346,0.97664,0.990170805,0.00866697,0.01806636
1764505023.3126209,-3.98286,1.08346,0.97664,0.990170805,0.00866697,0.01806636
1764505023.3126209,-3.98286,1.08346,0.97664,0.990170805,0.00866697,0.01806636
1764505023.3126209,-3.98286,1.08346,0.97664,0.990170805,0.00866697,0.01806636
1764505023.3126209,-3.98286,1.08346,0.97664,0.990170805,0.00866697,0.01806636
1764505023.3126209,-3.98286,1.08346,0.97664,0.990170805,0.00866697,0.01806636
1764505023.3574474,-3.98286,1.08346,0.97664,0.990170805,0.00866697,0.01806636
1764505023.3574474,-3.98286,1.08346,0.97664,0.990170805,0.00866697,0.01806636
1764505023.3574474,-3.98286,1.08346,0.97664,0.990170805,0.00866697,0.01806636
1764505023.3574474,-3.98286,1.08346,0.97664,0.990170805,0.00866697,0.01806636
1764505023.359448,-3.98286,0.74774,1.17502,0.990781155,0.00769041,0.01757808
1764505023.3604517,-3.98286,0.74774,1.17502,0.990781155,0.00769041,0.01757808
1764505023.3608258,-3.98286,0.74774,1.17502,0.990781155,0.00769041,0.01757808
1764505023.3608258,-3.98286,0.74774,1.17502,0.990781155,0.00769041,0.01757808
1764505023.3608258,-3.98286,0.74774,1.17502,0.990781155,0.00769041,0.01757808
1764505023.3608258,-3.98286,0.74774,1.17502,0.990781155,0.00769041,0.01757808
1764505023.3608258,-3.98286,0.74774,1.17502,0.990781155,0.00769041,0.01757808
1764505023.3608258,-3.98286,0.74774,1.17502,0.990781155,0.00769041,0.01757808
1764505023.3608258,-3.98286,0.74774,1.17502,0.990781155,0.00769041,0.01757808
1764505023.3608258,-3.98286,0.74774,1.17502,0.990781155,0.00769041,0.01757808
1764505023.3608258,-3.83026,0.93086,0.82404,0.99096426,0.00720213,0.01745601
1764505023.3608258,-3.83026,0.93086,0.82404,0.99096426,0.00720213,0.01745601
1764505023.3608258,-3.83026,0.93086,0.82404,0.99096426,0.00720213,0.01745601
1764505023.3608258,-3.83026,0.93086,0.82404,0.99096426,0.00720213,0.01745601
1764505023.3614516,-3.83026,0.93086,0.82404,0.99096426,0.00720213,0.01745601
1764505023.3614516,-3.83026,0.93086,0.82404,0.99096426,0.00720213,0.01745601
1764505023.3614516,-3.83026,0.93086,0.82404,0.99096426,0.00720213,0.01745601
1764505023.3614516,-3.83026,0.93086,0.82404,0.99096426,0.00720213,0.01745601
1764505023.3614516,-3.83026,0.93086,0.82404,0.99096426,0.00720213,0.01745601
1764505023.3614516,-3.83026,0.93086,0.82404,0.99096426,0.00720213,0.01745601
1764505023.4053357,-3.70818,1.17502,0.54936,0.99072012,0.00634764,0.01757808
1764505023.4065585,-3.70818,1.17502,0.54936,0.99072012,0.00634764,0.01757808
1764505023.4065585,-3.70818,1.17502,0.54936,0.99072012,0.00634764,0.01757808
1764505023.4065585,-3.70818,1.17502,0.54936,0.99072012,0.00634764,0.01757808
1764505023.4065585,-3.70818,1.17502,0.54936,0.99072012,0.00634764,0.01757808
1764505023.4065585,-3.70818,1.17502,0.54936,0.99072012,0.00634764,0.01757808
1764505023.4065585,-3.70818,1.17502,0.54936,0.99072012,0.00634764,0.01757808
1764505023.4166625,-3.70818,1.17502,0.54936,0.99072012,0.00634764,0.01757808
1764505023.4166625,-3.70818,1.17502,0.54936,0.99072012,0.00634764,0.01757808
1764505023.4166625,-3.70818,1.17502,0.54936,0.99072012,0.00634764,0.01757808
1764505023.417675,-2.94518,1.11398,0.24416,0.99010977,0.006042465,0.01721187
1764505023.417675,-2.94518,1.11398,0.24416,0.99010977,0.006042465,0.01721187
1764505023.417675,-2.94518,1.11398,0.24416,0.99010977,0.006042465,0.01721187
1764505023.417675,-2.94518,1.11398,0.24416,0.99010977,0.006042465,0.01721187
1764505023.417675,-2.94518,1.11398,0.24416,0.99010977,0.006042465,0.01721187
1764505023.4186735,-2.94518,1.11398,0.24416,0.99010977,0.006042465,0.01721187
1764505023.4186735,-2.94518,1.11398,0.24416,0.99010977,0.006042465,0.01721187
1764505023.4186735,-2.94518,1.11398,0.24416,0.99010977,0.006042465,0.01721187
1764505023.4186735,-2.94518,1.11398,0.24416,0.99010977,0.006042465,0.01721187
1764505023.419676,-2.94518,1.11398,0.24416,0.99010977,0.006042465,0.01721187
1764505023.419676,-3.14356,0.36624,0.47306,0.99023184,0.005798325,0.01696773
1764505023.419676,-3.14356,0.36624,0.47306,0.99023184,0.005798325,0.01696773
1764505023.4206738,-3.14356,0.36624,0.47306,0.99023184,0.005798325,0.01696773
1764505023.4206738,-3.14356,0.36624,0.47306,0.99023184,0.005798325,0.01696773
1764505023.453937,-3.14356,0.36624,0.47306,0.99023184,0.005798325,0.01696773
1764505023.453937,-3.14356,0.36624,0.47306,0.99023184,0.005798325,0.01696773
1764505023.4549286,-3.14356,0.36624,0.47306,0.99023184,0.005798325,0.01696773
1764505023.4549286,-3.14356,0.36624,0.47306,0.99023184,0.005798325,0.01696773
1764505023.4549286,-3.14356,0.36624,0.47306,0.99023184,0.005798325,0.01696773
1764505023.4549286,-3.14356,0.36624,0.47306,0.99023184,0.005798325,0.01696773
1764505023.4549286,-3.44876,0.85456,0.19838,0.99084219,0.006530745,0.016662555
1764505023.4549286,-3.44876,0.85456,0.19838,0.99084219,0.006530745,0.016662555
1764505023.4549286,-3.44876,0.85456,0.19838,0.99084219,0.006530745,0.016662555
1764505023.4549286,-3.44876,0.85456,0.19838,0.99084219,0.006530745,0.016662555
1764505023.4549286,-3.44876,0.85456,0.19838,0.99084219,0.006530745,0.016662555
1764505023.4549286,-3.44876,0.85456,0.19838,0.99084219,0.006530745,0.016662555
1764505023.4549286,-3.44876,0.85456,0.19838,0.99084219,0.006530745,0.016662555
1764505023.4549286,-3.44876,0.85456,0.19838,0.99084219,0.006530745,0.016662555
1764505023.4549286,-3.44876,0.85456,0.19838,0.99084219,0.006530745,0.016662555
1764505023.4554353,-3.44876,0.85456,0.19838,0.99084219,0.006530745,0.016662555
1764505023.4554353,-4.2728,1.00716,0.59514,0.991391505,0.00805662,0.015930135
1764505023.4554353,-4.2728,1.00716,0.59514,0.991391505,0.00805662,0.015930135
1764505023.4554353,-4.2728,1.00716,0.59514,0.991391505,0.00805662,0.015930135
1764505023.4554353,-4.2728,1.00716,0.59514,0.991391505,0.00805662,0.015930135
1764505023.4554353,-4.2728,1.00716,0.59514,0.991391505,0.00805662,0.015930135
1764505023.4554353,-4.2728,1.00716,0.59514,0.991391505,0.00805662,0.015930135
1764505023.498434,-4.2728,1.00716,0.59514,0.991391505,0.00805662,0.015930135
1764505023.498434,-4.2728,1.00716,0.59514,0.991391505,0.00805662,0.015930135
1764505023.498434,-4.2728,1.00716,0.59514,0.991391505,0.00805662,0.015930135
1764505023.498434,-4.2728,1.00716,0.59514,0.991391505,0.00805662,0.015930135
1764505023.498434,-4.08968,1.4497,0.5341,0.99157461,0.007629375,0.016418415
1764505023.498434,-4.08968,1.4497,0.5341,0.99157461,0.007629375,0.016418415
1764505023.498434,-4.08968,1.4497,0.5341,0.99157461,0.007629375,0.016418415
1764505023.498434,-4.08968,1.4497,0.5341,0.99157461,0.007629375,0.016418415
1764505023.498434,-4.08968,1.4497,0.5341,0.99157461,0.007629375,0.016418415
1764505023.498434,-4.08968,1.4497,0.5341,0.99157461,0.007629375,0.016418415
1764505023.498434,-4.08968,1.4497,0.5341,0.99157461,0.007629375,0.016418415
1764505023.498434,-4.08968,1.4497,0.5341,0.99157461,0.007629375,0.016418415
1764505023.4994488,-4.08968,1.4497,0.5341,0.99157461,0.007629375,0.016418415
1764505023.4994488,-4.08968,1.4497,0.5341,0.99157461,0.007629375,0.016418415
1764505023.4994488,-3.8913,1.73964,1.00716,0.99108633,0.007019025,0.01660152
1764505023.4994488,-3.8913,1.73964,1.00716,0.99108633,0.007019025,0.01660152
1764505023.4994488,-3.8913,1.73964,1.00716,0.99108633,0.007019025,0.01660152
1764505023.4994488,-3.8913,1.73964,1.00716,0.99108633,0.007019025,0.01660152
1764505023.4994488,-3.8913,1.73964,1.00716,0.99108633,0.007019025,0.01660152
1764505023.4994488,-3.8913,1.73964,1.00716,0.99108633,0.007019025,0.01660152
1764505023.4994488,-3.8913,1.73964,1.00716,0.99108633,0.007019025,0.01660152
1764505023.4994488,-3.8913,1.73964,1.00716,0.99108633,0.007019025,0.01660152
1764505023.4994488,-3.8913,1.73964,1.00716,0.99108633,0.007019025,0.01660152
1764505023.4994488,-3.8913,1.73964,1.00716,0.99108633,0.007019025,0.01660152
1764505023.547498,-3.90656,2.24322,1.05294,0.99108633,0.0073242,0.016906695
1764505023.547498,-3.90656,2.24322,1.05294,0.99108633,0.0073242,0.016906695
1764505023.547498,-3.90656,2.24322,1.05294,0.99108633,0.0073242,0.016906695
1764505023.547498,-3.90656,2.24322,1.05294,0.99108633,0.0073242,0.016906695
1764505023.547498,-3.90656,2.24322,1.05294,0.99108633,0.0073242,0.016906695
1764505023.547498,-3.90656,2.24322,1.05294,0.99108633,0.0073242,0.016906695
1764505023.547498,-3.90656,2.24322,1.05294,0.99108633,0.0073242,0.016906695
1764505023.547498,-3.90656,2.24322,1.05294,0.99108633,0.0073242,0.016906695
1764505023.547498,-3.90656,2.24322,1.05294,0.99108633,0.0073242,0.016906695
1764505023.547498,-3.90656,2.24322,1.05294,0.99108633,0.0073242,0.016906695
1764505023.547498,-3.23512,2.1364,0.77826,0.992368065,0.005065905,0.017883255
1764505023.547498,-3.23512,2.1364,0.77826,0.992368065,0.005065905,0.017883255
1764505023.547498,-3.23512,2.1364,0.77826,0.992368065,0.005065905,0.017883255
1764505023.547498,-3.23512,2.1364,0.77826,0.992368065,0.005065905,0.017883255
1764505023.547498,-3.23512,2.1364,0.77826,0.992368065,0.005065905,0.017883255
1764505023.547498,-3.23512,2.1364,0.77826,0.992368065,0.005065905,0.017883255
1764505023.547498,-3.23512,2.1364,0.77826,0.992368065,0.005065905,0.017883255
1764505023.547498,-3.23512,2.1364,0.77826,0.992368065,0.005065905,0.017883255
1764505023.5484982,-3.23512,2.1364,0.77826,0.992368065,0.005065905,0.017883255
1764505023.5484982,-3.23512,2.1364,0.77826,0.992368065,0.005065905,0.017883255
1764505023.5484982,-2.02958,1.78542,1.17502,0.989926665,0.00427245,0.0183105
1764505023.5484982,-2.02958,1.78542,1.17502,0.989926665,0.00427245,0.0183105
1764505023.5484982,-2.02958,1.78542,1.17502,0.989926665,0.00427245,0.0183105
1764505023.5484982,-2.02958,1.78542,1.17502,0.989926665,0.00427245,0.0183105
1764505023.592898,-2.02958,1.78542,1.17502,0.989926665,0.00427245,0.0183105
1764505023.592898,-2.02958,1.78542,1.17502,0.989926665,0.00427245,0.0183105
1764505023.592898,-2.02958,1.78542,1.17502,0.989926665,0.00427245,0.0183105
1764505023.592898,-2.02958,1.78542,1.17502,0.989926665,0.00427245,0.0183105
1764505023.592898,-2.02958,1.78542,1.17502,0.989926665,0.00427245,0.0183105
1764505023.592898,-2.02958,1.78542,1.17502,0.989926665,0.00427245,0.0183105
1764505023.592898,-2.12114,0.74774,1.7549,0.98803458,0.00476073,0.01818843
1764505023.592898,-2.12114,0.74774,1.7549,0.98803458,0.00476073,0.01818843
1764505023.592898,-2.12114,0.74774,1.7549,0.98803458,0.00476073,0.01818843
1764505023.592898,-2.12114,0.74774,1.7549,0.98803458,0.00476073,0.01818843
1764505023.592898,-2.12114,0.74774,1.7549,0.98803458,0.00476073,0.01818843
1764505023.592898,-2.12114,0.74774,1.7549,0.98803458,0.00476073,0.01818843
1764505023.592898,-2.12114,0.74774,1.7549,0.98803458,0.00476073,0.01818843
1764505023.592898,-2.12114,0.74774,1.7549,0.98803458,0.00476073,0.01818843
1764505023.592898,-2.12114,0.74774,1.7549,0.98803458,0.00476073,0.01818843
1764505023.592898,-2.12114,0.74774,1.7549,0.98803458,0.00476073,0.01818843
1764505023.592898,-2.50264,0.6103999999999999,0.8392999999999999,0.990292875,0.00573729,0.018493605
1764505023.592898,-2.50264,0.6103999999999999,0.8392999999999999,0.990292875,0.00573729,0.018493605
1764505023.592898,-2.50264,0.6103999999999999,0.8392999999999999,0.990292875,0.00573729,0.018493605
1764505023.592898,-2.50264,0.6103999999999999,0.8392999999999999,0.990292875,0.00573729,0.018493605
1764505023.592898,-2.50264,0.6103999999999999,0.8392999999999999,0.990292875,0.00573729,0.018493605
1764505023.592898,-2.50264,0.6103999999999999,0.8392999999999999,0.990292875,0.00573729,0.018493605
1764505023.592898,-2.50264,0.6103999999999999,0.8392999999999999,0.990292875,0.00573729,0.018493605
1764505023.592898,-2.50264,0.6103999999999999,0.8392999999999999,0.990292875,0.00573729,0.018493605
1764505023.6420865,-2.50264,0.6103999999999999,0.8392999999999999,0.990292875,0.00573729,0.018493605
1764505023.6420865,-2.50264,0.6103999999999999,0.8392999999999999,0.990292875,0.00573729,0.018493605
1764505023.6420865,-3.29616,0.5341,0.27468,0.99035391,0.00720213,0.01879878
1764505023.6420865,-3.29616,0.5341,0.27468,0.99035391,0.00720213,0.01879878
1764505023.6420865,-3.29616,0.5341,0.27468,0.99035391,0.00720213,0.01879878
1764505023.6420865,-3.29616,0.5341,0.27468,0.99035391,0.00720213,0.01879878
1764505023.6420865,-3.29616,0.5341,0.27468,0.99035391,0.00720213,0.01879878
1764505023.6420865,-3.29616,0.5341,0.27468,0.99035391,0.00720213,0.01879878
1764505023.6420865,-3.29616,0.5341,0.27468,0.99035391,0.00720213,0.01879878
1764505023.6430876,-3.29616,0.5341,0.27468,0.99035391,0.00720213,0.01879878
1764505023.6430876,-3.29616,0.5341,0.27468,0.99035391,0.00720213,0.01879878
1764505023.6430876,-3.29616,0.5341,0.27468,0.99035391,0.00720213,0.01879878
1764505023.6430876,-4.18124,1.2055399999999998,-0.36624,0.991635645,0.007995585,0.019470165
1764505023.6430876,-4.18124,1.2055399999999998,-0.36624,0.991635645,0.007995585,0.019470165
1764505023.6430876,-4.18124,1.2055399999999998,-0.36624,0.991635645,0.007995585,0.019470165
1764505023.6430876,-4.18124,1.2055399999999998,-0.36624,0.991635645,0.007995585,0.019470165
1764505023.6430876,-4.18124,1.2055399999999998,-0.36624,0.991635645,0.007995585,0.019470165
1764505023.6430876,-4.18124,1.2055399999999998,-0.36624,0.991635645,0.007995585,0.019470165
1764505023.6430876,-4.18124,1.2055399999999998,-0.36624,0.991635645,0.007995585,0.019470165
1764505023.6430876,-4.18124,1.2055399999999998,-0.36624,0.991635645,0.007995585,0.019470165
1764505023.6430876,-4.18124,1.2055399999999998,-0.36624,0.991635645,0.007995585,0.019470165
1764505023.6430876,-4.18124,1.2055399999999998,-0.36624,0.991635645,0.007995585,0.019470165
1764505023.6896806,-4.47118,1.0682,-0.01526,0.990903225,0.00866697,0.019226025
1764505023.6896806,-4.47118,1.0682,-0.01526,0.990903225,0.00866697,0.019226025
1764505023.6896806,-4.47118,1.0682,-0.01526,0.990903225,0.00866697,0.019226025
1764505023.6896806,-4.47118,1.0682,-0.01526,0.990903225,0.00866697,0.019226025
1764505023.690678,-4.47118,1.0682,-0.01526,0.990903225,0.00866697,0.019226025
1764505023.690678,-4.47118,1.0682,-0.01526,0.990903225,0.00866697,0.019226025
1764505023.690678,-4.47118,1.0682,-0.01526,0.990903225,0.00866697,0.019226025
1764505023.690678,-4.47118,1.0682,-0.01526,0.990903225,0.00866697,0.019226025
1764505023.690678,-4.47118,1.0682,-0.01526,0.990903225,0.00866697,0.019226025
1764505023.691681,-4.47118,1.0682,-0.01526,0.990903225,0.00866697,0.019226025
1764505023.691681,-4.8069,0.88508,-0.28994,0.99084219,0.00891111,0.02001948
1764505023.691681,-4.8069,0.88508,-0.28994,0.99084219,0.00891111,0.02001948
1764505023.692678,-4.8069,0.88508,-0.28994,0.99084219,0.00891111,0.02001948
1764505023.692678,-4.8069,0.88508,-0.28994,0.99084219,0.00891111,0.02001948
1764505023.692678,-4.8069,0.88508,-0.28994,0.99084219,0.00891111,0.02001948
1764505023.692678,-4.8069,0.88508,-0.28994,0.99084219,0.00891111,0.02001948
1764505023.693678,-4.8069,0.88508,-0.28994,0.99084219,0.00891111,0.02001948
1764505023.693678,-4.8069,0.88508,-0.28994,0.99084219,0.00891111,0.02001948
1764505023.693678,-4.8069,0.88508,-0.28994,0.99084219,0.00891111,0.02001948
1764505023.693678,-4.8069,0.88508,-0.28994,0.99084219,0.00891111,0.02001948
1764505023.693678,-4.62378,0.77826,0.12208,0.99035391,0.009216285,0.02026362
1764505023.693678,-4.62378,0.77826,0.12208,0.99035391,0.009216285,0.02026362
1764505023.693678,-4.62378,0.77826,0.12208,0.99035391,0.009216285,0.02026362
1764505023.693678,-4.62378,0.77826,0.12208,0.99035391,0.009216285,0.02026362
1764505023.7351203,-4.62378,0.77826,0.12208,0.99035391,0.009216285,0.02026362
1764505023.7351203,-4.62378,0.77826,0.12208,0.99035391,0.009216285,0.02026362
1764505023.7351203,-4.62378,0.77826,0.12208,0.99035391,0.009216285,0.02026362
1764505023.7351203,-4.62378,0.77826,0.12208,0.99035391,0.009216285,0.02026362
1764505023.7351203,-4.62378,0.77826,0.12208,0.99035391,0.009216285,0.02026362
1764505023.7351203,-4.62378,0.77826,0.12208,0.99035391,0.009216285,0.02026362
1764505023.7351203,-4.25754,0.54936,0.6103999999999999,0.99059805,0.008972145,0.02050776
1764505023.7351203,-4.25754,0.54936,0.6103999999999999,0.99059805,0.008972145,0.02050776
1764505023.7351203,-4.25754,0.54936,0.6103999999999999,0.99059805,0.008972145,0.02050776
1764505023.7351203,-4.25754,0.54936,0.6103999999999999,0.99059805,0.008972145,0.02050776
1764505023.7351203,-4.25754,0.54936,0.6103999999999999,0.99059805,0.008972145,0.02050776
1764505023.7351203,-4.25754,0.54936,0.6103999999999999,0.99059805,0.008972145,0.02050776
1764505023.7351203,-4.25754,0.54936,0.6103999999999999,0.99059805,0.008972145,0.02050776
1764505023.7351203,-4.25754,0.54936,0.6103999999999999,0.99059805,0.008972145,0.02050776
1764505023.7376745,-4.25754,0.54936,0.6103999999999999,0.99059805,0.008972145,0.02050776
1764505023.7376745,-4.25754,0.54936,0.6103999999999999,0.99059805,0.008972145,0.02050776
1764505023.7376745,-3.34194,0.57988,1.4497,0.99059805,0.008728005,0.01989741
1764505023.7376745,-3.34194,0.57988,1.4497,0.99059805,0.008728005,0.01989741
1764505023.7376745,-3.34194,0.57988,1.4497,0.99059805,0.008728005,0.01989741
1764505023.7376745,-3.34194,0.57988,1.4497,0.99059805,0.008728005,0.01989741
1764505023.7376745,-3.34194,0.57988,1.4497,0.99059805,0.008728005,0.01989741
1764505023.7376745,-3.34194,0.57988,1.4497,0.99059805,0.008728005,0.01989741
1764505023.7376745,-3.34194,0.57988,1.4497,0.99059805,0.008728005,0.01989741
1764505023.738687,-3.34194,0.57988,1.4497,0.99059805,0.008728005,0.01989741
1764505023.7833316,-3.34194,0.57988,1.4497,0.99059805,0.008728005,0.01989741
1764505023.7833316,-3.34194,0.57988,1.4497,0.99059805,0.008728005,0.01989741
1764505023.7833316,-3.37246,0.3815,1.84646,0.99059805,0.008361795,0.019103955
1764505023.7833316,-3.37246,0.3815,1.84646,0.99059805,0.008361795,0.019103955
1764505023.7833316,-3.37246,0.3815,1.84646,0.99059805,0.008361795,0.019103955
1764505023.7833316,-3.37246,0.3815,1.84646,0.99059805,0.008361795,0.019103955
1764505023.7833316,-3.37246,0.3815,1.84646,0.99059805,0.008361795,0.019103955
1764505023.7833316,-3.37246,0.3815,1.84646,0.99059805,0.008361795,0.019103955
1764505023.7833316,-3.37246,0.3815,1.84646,0.99059805,0.008361795,0.019103955
1764505023.7833316,-3.37246,0.3815,1.84646,0.99059805,0.008361795,0.019103955
1764505023.7833316,-3.37246,0.3815,1.84646,0.99059805,0.008361795,0.019103955
1764505023.7833316,-3.37246,0.3815,1.84646,0.99059805,0.008361795,0.019103955
1764505023.7833316,-3.09778,-0.12208,1.99906,0.990903225,0.00793455,0.018249465
1764505023.7833316,-3.09778,-0.12208,1.99906,0.990903225,0.00793455,0.018249465
1764505023.7833316,-3.09778,-0.12208,1.99906,0.990903225,0.00793455,0.018249465
1764505023.7833316,-3.09778,-0.12208,1.99906,0.990903225,0.00793455,0.018249465
1764505023.7833316,-3.09778,-0.12208,1.99906,0.990903225,0.00793455,0.018249465
1764505023.7833316,-3.09778,-0.12208,1.99906,0.990903225,0.00793455,0.018249465
1764505023.7833316,-3.09778,-0.12208,1.99906,0.990903225,0.00793455,0.018249465
1764505023.7833316,-3.09778,-0.12208,1.99906,0.990903225,0.00793455,0.018249465
1764505023.7833316,-3.09778,-0.12208,1.99906,0.990903225,0.00793455,0.018249465
1764505023.7833316,-3.09778,-0.12208,1.99906,0.990903225,0.00793455,0.018249465
1764505023.8277938,-3.38772,-0.06104,2.01432,0.991391505,0.00769041,0.01672359
1764505023.8283277,-3.38772,-0.06104,2.01432,0.991391505,0.00769041,0.01672359
1764505023.8283277,-3.38772,-0.06104,2.01432,0.991391505,0.00769041,0.01672359
1764505023.8283277,-3.38772,-0.06104,2.01432,0.991391505,0.00769041,0.01672359
1764505023.8283277,-3.38772,-0.06104,2.01432,0.991391505,0.00769041,0.01672359
1764505023.8283277,-3.38772,-0.06104,2.01432,0.991391505,0.00769041,0.01672359
1764505023.8283277,-3.38772,-0.06104,2.01432,0.991391505,0.00769041,0.01672359
1764505023.8283277,-3.38772,-0.06104,2.01432,0.991391505,0.00769041,0.01672359
1764505023.8283277,-3.38772,-0.06104,2.01432,0.991391505,0.00769041,0.01672359
1764505023.8283277,-3.38772,-0.06104,2.01432,0.991391505,0.00769041,0.01672359
1764505023.8283277,-3.61662,0.5341,1.55652,0.991757715,0.007995585,0.015685995
1764505023.8283277,-3.61662,0.5341,1.55652,0.991757715,0.007995585,0.015685995
1764505023.8283277,-3.61662,0.5341,1.55652,0.991757715,0.007995585,0.015685995
1764505023.8283277,-3.61662,0.5341,1.55652,0.991757715,0.007995585,0.015685995
1764505023.8283277,-3.61662,0.5341,1.55652,0.991757715,0.007995585,0.015685995
1764505023.8283277,-3.61662,0.5341,1.55652,0.991757715,0.007995585,0.015685995
1764505023.8283277,-3.61662,0.5341,1.55652,0.991757715,0.007995585,0.015685995
1764505023.8283277,-3.61662,0.5341,1.55652,0.991757715,0.007995585,0.015685995
1764505023.8283277,-3.61662,0.5341,1.55652,0.991757715,0.007995585,0.015685995
1764505023.8283277,-3.61662,0.5341,1.55652,0.991757715,0.007995585,0.015685995
1764505023.8283277,-3.75396,0.50358,1.87698,0.99047598,0.00708006,0.01501461
1764505023.830864,-3.75396,0.50358,1.87698,0.99047598,0.00708006,0.01501461
1764505023.830864,-3.75396,0.50358,1.87698,0.99047598,0.00708006,0.01501461
1764505023.830864,-3.75396,0.50358,1.87698,0.99047598,0.00708006,0.01501461
1764505023.8749776,-3.75396,0.50358,1.87698,0.99047598,0.00708006,0.01501461
1764505023.8749776,-3.75396,0.50358,1.87698,0.99047598,0.00708006,0.01501461
1764505023.8749776,-3.75396,0.50358,1.87698,0.99047598,0.00708006,0.01501461
1764505023.8749776,-3.75396,0.50358,1.87698,0.99047598,0.00708006,0.01501461
1764505023.8749776,-3.75396,0.50358,1.87698,0.99047598,0.00708006,0.01501461
1764505023.8749776,-3.75396,0.50358,1.87698,0.99047598,0.00708006,0.01501461
1764505023.8749776,-4.01338,-0.06104,2.5179,0.98913321,0.005432115,0.014099085
1764505023.8749776,-4.01338,-0.06104,2.5179,0.98913321,0.005432115,0.014099085
1764505023.8749776,-4.01338,-0.06104,2.5179,0.98913321,0.005432115,0.014099085
1764505023.8749776,-4.01338,-0.06104,2.5179,0.98913321,0.005432115,0.014099085
1764505023.8749776,-4.01338,-0.06104,2.5179,0.98913321,0.005432115,0.014099085
1764505023.8749776,-4.01338,-0.06104,2.5179,0.98913321,0.005432115,0.014099085
1764505023.8749776,-4.01338,-0.06104,2.5179,0.98913321,0.005432115,0.014099085
1764505023.8749776,-4.01338,-0.06104,2.5179,0.98913321,0.005432115,0.014099085
1764505023.8749776,-4.01338,-0.06104,2.5179,0.98913321,0.005432115,0.014099085
1764505023.8749776,-4.01338,-0.06104,2.5179,0.98913321,0.005432115,0.014099085
1764505023.8749776,-3.95234,0.5341,1.28184,0.99059805,0.004211415,0.01428219
1764505023.8749776,-3.95234,0.5341,1.28184,0.99059805,0.004211415,0.01428219
1764505023.87599,-3.95234,0.5341,1.28184,0.99059805,0.004211415,0.01428219
1764505023.87599,-3.95234,0.5341,1.28184,0.99059805,0.004211415,0.01428219
1764505023.8769915,-3.95234,0.5341,1.28184,0.99059805,0.004211415,0.01428219
1764505023.8769915,-3.95234,0.5341,1.28184,0.99059805,0.004211415,0.01428219
1764505023.8769915,-3.95234,0.5341,1.28184,0.99059805,0.004211415,0.01428219
1764505023.8769915,-3.95234,0.5341,1.28184,0.99059805,0.004211415,0.01428219
1764505023.9205017,-3.95234,0.5341,1.28184,0.99059805,0.004211415,0.01428219
1764505023.9205017,-3.95234,0.5341,1.28184,0.99059805,0.004211415,0.01428219
1764505023.9210107,-3.84552,1.12924,0.96138,0.99206289,0.002136225,0.014465295
1764505023.9210107,-3.84552,1.12924,0.96138,0.99206289,0.002136225,0.014465295
1764505023.9210107,-3.84552,1.12924,0.96138,0.99206289,0.002136225,0.014465295
1764505023.9210107,-3.84552,1.12924,0.96138,0.99206289,0.002136225,0.014465295
1764505023.9210107,-3.84552,1.12924,0.96138,0.99206289,0.002136225,0.014465295
1764505023.9210107,-3.84552,1.12924,0.96138,0.99206289,0.002136225,0.014465295
1764505023.9210107,-3.84552,1.12924,0.96138,0.99206289,0.002136225,0.014465295
1764505023.9210107,-3.84552,1.12924,0.96138,0.99206289,0.002136225,0.014465295
1764505023.9210107,-3.84552,1.12924,0.96138,0.99206289,0.002136225,0.014465295
1764505023.9210107,-3.84552,1.12924,0.96138,0.99206289,0.002136225,0.014465295
1764505023.9210107,-3.11304,1.58704,0.21364,0.99169668,0.00146484,0.0146484
1764505023.9210107,-3.11304,1.58704,0.21364,0.99169668,0.00146484,0.0146484
1764505023.9210107,-3.11304,1.58704,0.21364,0.99169668,0.00146484,0.0146484
1764505023.9210107,-3.11304,1.58704,0.21364,0.99169668,0.00146484,0.0146484
1764505023.9210107,-3.11304,1.58704,0.21364,0.99169668,0.00146484,0.0146484
1764505023.9210107,-3.11304,1.58704,0.21364,0.99169668,0.00146484,0.0146484
1764505023.9210107,-3.11304,1.58704,0.21364,0.99169668,0.00146484,0.0146484
1764505023.9210107,-3.11304,1.58704,0.21364,0.99169668,0.00146484,0.0146484
1764505023.9210107,-3.11304,1.58704,0.21364,0.99169668,0.00146484,0.0146484
1764505023.9210107,-3.11304,1.58704,0.21364,0.99169668,0.00146484,0.0146484
1764505023.9210107,-2.85362,1.92276,-0.54936,0.99181875,0.001892085,0.015319785
1764505023.9210107,-2.85362,1.92276,-0.54936,0.99181875,0.001892085,0.015319785
1764505023.9720016,-2.85362,1.92276,-0.54936,0.99181875,0.001892085,0.015319785
1764505023.972999,-2.85362,1.92276,-0.54936,0.99181875,0.001892085,0.015319785
1764505023.972999,-2.85362,1.92276,-0.54936,0.99181875,0.001892085,0.015319785
1764505023.972999,-2.85362,1.92276,-0.54936,0.99181875,0.001892085,0.015319785
1764505023.972999,-2.85362,1.92276,-0.54936,0.99181875,0.001892085,0.015319785
1764505023.972999,-2.85362,1.92276,-0.54936,0.99181875,0.001892085,0.015319785
1764505023.972999,-2.85362,1.92276,-0.54936,0.99181875,0.001892085,0.015319785
1764505023.972999,-2.85362,1.92276,-0.54936,0.99181875,0.001892085,0.015319785
1764505023.972999,-2.79258,1.78542,-0.88508,0.991879785,0.00292968,0.01599117
1764505023.972999,-2.79258,1.78542,-0.88508,0.991879785,0.00292968,0.01599117
1764505023.972999,-2.79258,1.78542,-0.88508,0.991879785,0.00292968,0.01599117
1764505023.972999,-2.79258,1.78542,-0.88508,0.991879785,0.00292968,0.01599117
1764505023.972999,-2.79258,1.78542,-0.88508,0.991879785,0.00292968,0.01599117
1764505023.972999,-2.79258,1.78542,-0.88508,0.991879785,0.00292968,0.01599117
1764505023.972999,-2.79258,1.78542,-0.88508,0.991879785,0.00292968,0.01599117
1764505023.9739957,-2.79258,1.78542,-0.88508,0.991879785,0.00292968,0.01599117
1764505023.9739957,-2.79258,1.78542,-0.88508,0.991879785,0.00292968,0.01599117
1764505023.9739957,-2.79258,1.78542,-0.88508,0.991879785,0.00292968,0.01599117
1764505023.9739957,-2.9757,2.30426,-0.3204599999999999,0.99096426,0.004455555,0.01647945
