Timestamp,GyroX,GyroY,GyroZ,AccX,AccY,AccZ
1764504865.0184455,-4.15072,0.54936,-0.04578,-0.85741968,0.47326539,0.1110837
1764504865.0184455,-4.15072,0.54936,-0.04578,-0.85741968,0.47326539,0.1110837
1764504865.0184455,-4.15072,0.54936,-0.04578,-0.85741968,0.47326539,0.1110837
1764504865.0184455,-4.15072,0.54936,-0.04578,-0.85741968,0.47326539,0.1110837
1764504865.0184455,-4.15072,0.54936,-0.04578,-0.85741968,0.47326539,0.1110837
1764504865.0195005,-4.15072,0.54936,-0.04578,-0.85741968,0.47326539,0.1110837
1764504865.0195005,-4.15072,0.54936,-0.04578,-0.85741968,0.47326539,0.1110837
1764504865.0195005,-4.15072,0.54936,-0.04578,-0.85741968,0.47326539,0.1110837
1764504865.0195005,-4.15072,0.54936,-0.04578,-0.85741968,0.47326539,0.1110837
1764504865.0195005,-4.15072,0.54936,-0.04578,-0.85741968,0.47326539,0.1110837
1764504865.022032,-2.5179,0.3509799999999999,0.42728,-0.85705347,0.473204355,0.11218233
1764504865.022032,-2.5179,0.3509799999999999,0.42728,-0.85705347,0.473204355,0.11218233
1764504865.022032,-2.5179,0.3509799999999999,0.42728,-0.85705347,0.473204355,0.11218233
1764504865.022032,-2.5179,0.3509799999999999,0.42728,-0.85705347,0.473204355,0.11218233
1764504865.022032,-2.5179,0.3509799999999999,0.42728,-0.85705347,0.473204355,0.11218233
1764504865.022032,-2.5179,0.3509799999999999,0.42728,-0.85705347,0.473204355,0.11218233
1764504865.022032,-2.5179,0.3509799999999999,0.42728,-0.85705347,0.473204355,0.11218233
1764504865.022032,-2.5179,0.3509799999999999,0.42728,-0.85705347,0.473204355,0.11218233
1764504865.022032,-2.5179,0.3509799999999999,0.42728,-0.85705347,0.473204355,0.11218233
1764504865.023037,-2.5179,0.3509799999999999,0.42728,-0.85705347,0.473204355,0.11218233
1764504865.023037,-1.73964,0.73248,0.18312,-0.856870365,0.47436402,0.112487505
1764504865.023037,-1.73964,0.73248,0.18312,-0.856870365,0.47436402,0.112487505
1764504865.023037,-1.73964,0.73248,0.18312,-0.856870365,0.47436402,0.112487505
1764504865.023037,-1.73964,0.73248,0.18312,-0.856870365,0.47436402,0.112487505
1764504865.0674348,-1.73964,0.73248,0.18312,-0.856870365,0.47436402,0.112487505
1764504865.0674348,-1.73964,0.73248,0.18312,-0.856870365,0.47436402,0.112487505
1764504865.0674348,-1.73964,0.73248,0.18312,-0.856870365,0.47436402,0.112487505
1764504865.0674348,-1.73964,0.73248,0.18312,-0.856870365,0.47436402,0.112487505
1764504865.0674348,-1.73964,0.73248,0.18312,-0.856870365,0.47436402,0.112487505
1764504865.0674348,-1.73964,0.73248,0.18312,-0.856870365,0.47436402,0.112487505
1764504865.0684316,-2.33478,0.18312,-0.03052,-0.8561379450000001,0.475279545,0.11193819
1764504865.0684316,-2.33478,0.18312,-0.03052,-0.8561379450000001,0.475279545,0.11193819
1764504865.0684316,-2.33478,0.18312,-0.03052,-0.8561379450000001,0.475279545,0.11193819
1764504865.0684316,-2.33478,0.18312,-0.03052,-0.8561379450000001,0.475279545,0.11193819
1764504865.0684316,-2.33478,0.18312,-0.03052,-0.8561379450000001,0.475279545,0.11193819
1764504865.0684316,-2.33478,0.18312,-0.03052,-0.8561379450000001,0.475279545,0.11193819
1764504865.0684316,-2.33478,0.18312,-0.03052,-0.8561379450000001,0.475279545,0.11193819
1764504865.0684316,-2.33478,0.18312,-0.03052,-0.8561379450000001,0.475279545,0.11193819
1764504865.0684316,-2.33478,0.18312,-0.03052,-0.8561379450000001,0.475279545,0.11193819
1764504865.0684316,-2.33478,0.18312,-0.03052,-0.8561379450000001,0.475279545,0.11193819
1764504865.0684316,-3.76922,1.55652,0.0762999999999999,-0.855771735,0.47680542,0.11132784
1764504865.0684316,-3.76922,1.55652,0.0762999999999999,-0.855771735,0.47680542,0.11132784
1764504865.0684316,-3.76922,1.55652,0.0762999999999999,-0.855771735,0.47680542,0.11132784
1764504865.0684316,-3.76922,1.55652,0.0762999999999999,-0.855771735,0.47680542,0.11132784
1764504865.0684316,-3.76922,1.55652,0.0762999999999999,-0.855771735,0.47680542,0.11132784
1764504865.0684316,-3.76922,1.55652,0.0762999999999999,-0.855771735,0.47680542,0.11132784
1764504865.1134646,-3.76922,1.55652,0.0762999999999999,-0.855771735,0.47680542,0.11132784
1764504865.1134646,-3.76922,1.55652,0.0762999999999999,-0.855771735,0.47680542,0.11132784
1764504865.1134646,-3.76922,1.55652,0.0762999999999999,-0.855771735,0.47680542,0.11132784
1764504865.1134646,-3.76922,1.55652,0.0762999999999999,-0.855771735,0.47680542,0.11132784
1764504865.1134646,-4.48644,0.65618,0.4578,-0.856015875,0.47802612,0.111144735
1764504865.1134646,-4.48644,0.65618,0.4578,-0.856015875,0.47802612,0.111144735
1764504865.1134646,-4.48644,0.65618,0.4578,-0.856015875,0.47802612,0.111144735
1764504865.1134646,-4.48644,0.65618,0.4578,-0.856015875,0.47802612,0.111144735
1764504865.1146102,-4.48644,0.65618,0.4578,-0.856015875,0.47802612,0.111144735
1764504865.1146102,-4.48644,0.65618,0.4578,-0.856015875,0.47802612,0.111144735
1764504865.1146102,-4.48644,0.65618,0.4578,-0.856015875,0.47802612,0.111144735
1764504865.1146102,-4.48644,0.65618,0.4578,-0.856015875,0.47802612,0.111144735
1764504865.1146102,-4.48644,0.65618,0.4578,-0.856015875,0.47802612,0.111144735
1764504865.1146102,-4.48644,0.65618,0.4578,-0.856015875,0.47802612,0.111144735
1764504865.1146102,-4.45592,0.73248,0.0762999999999999,-0.856015875,0.47839233,0.11132784
1764504865.1146102,-4.45592,0.73248,0.0762999999999999,-0.856015875,0.47839233,0.11132784
1764504865.1146102,-4.45592,0.73248,0.0762999999999999,-0.856015875,0.47839233,0.11132784
1764504865.1146102,-4.45592,0.73248,0.0762999999999999,-0.856015875,0.47839233,0.11132784
1764504865.1146102,-4.45592,0.73248,0.0762999999999999,-0.856015875,0.47839233,0.11132784
1764504865.115613,-4.45592,0.73248,0.0762999999999999,-0.856015875,0.47839233,0.11132784
1764504865.115613,-4.45592,0.73248,0.0762999999999999,-0.856015875,0.47839233,0.11132784
1764504865.115613,-4.45592,0.73248,0.0762999999999999,-0.856015875,0.47839233,0.11132784
1764504865.1594603,-4.45592,0.73248,0.0762999999999999,-0.856015875,0.47839233,0.11132784
1764504865.1604755,-4.45592,0.73248,0.0762999999999999,-0.856015875,0.47839233,0.11132784
1764504865.1604755,-4.51696,0.88508,-0.59514,-0.85583277,0.476256105,0.112243365
1764504865.1604755,-4.51696,0.88508,-0.59514,-0.85583277,0.476256105,0.112243365
1764504865.1604755,-4.51696,0.88508,-0.59514,-0.85583277,0.476256105,0.112243365
1764504865.1604755,-4.51696,0.88508,-0.59514,-0.85583277,0.476256105,0.112243365
1764504865.1614964,-4.51696,0.88508,-0.59514,-0.85583277,0.476256105,0.112243365
1764504865.1614964,-4.51696,0.88508,-0.59514,-0.85583277,0.476256105,0.112243365
1764504865.1624992,-4.51696,0.88508,-0.59514,-0.85583277,0.476256105,0.112243365
1764504865.1624992,-4.51696,0.88508,-0.59514,-0.85583277,0.476256105,0.112243365
1764504865.1624992,-4.51696,0.88508,-0.59514,-0.85583277,0.476256105,0.112243365
1764504865.1624992,-4.51696,0.88508,-0.59514,-0.85583277,0.476256105,0.112243365
1764504865.1624992,-4.68482,1.9838,-0.19838,-0.856992435,0.474058845,0.11254854
1764504865.1638331,-4.68482,1.9838,-0.19838,-0.856992435,0.474058845,0.11254854
1764504865.1638331,-4.68482,1.9838,-0.19838,-0.856992435,0.474058845,0.11254854
1764504865.1638331,-4.68482,1.9838,-0.19838,-0.856992435,0.474058845,0.11254854
1764504865.164478,-4.68482,1.9838,-0.19838,-0.856992435,0.474058845,0.11254854
1764504865.164478,-4.68482,1.9838,-0.19838,-0.856992435,0.474058845,0.11254854
1764504865.164478,-4.68482,1.9838,-0.19838,-0.856992435,0.474058845,0.11254854
1764504865.164478,-4.68482,1.9838,-0.19838,-0.856992435,0.474058845,0.11254854
1764504865.164478,-4.68482,1.9838,-0.19838,-0.856992435,0.474058845,0.11254854
1764504865.164478,-4.68482,1.9838,-0.19838,-0.856992435,0.474058845,0.11254854
1764504865.165475,-4.959499999999999,2.01432,-0.0762999999999999,-0.85803003,0.471739515,0.111755085
1764504865.165475,-4.959499999999999,2.01432,-0.0762999999999999,-0.85803003,0.471739515,0.111755085
1764504865.206357,-4.959499999999999,2.01432,-0.0762999999999999,-0.85803003,0.471739515,0.111755085
1764504865.206357,-4.959499999999999,2.01432,-0.0762999999999999,-0.85803003,0.471739515,0.111755085
1764504865.206357,-4.959499999999999,2.01432,-0.0762999999999999,-0.85803003,0.471739515,0.111755085
1764504865.206357,-4.959499999999999,2.01432,-0.0762999999999999,-0.85803003,0.471739515,0.111755085
1764504865.206357,-4.959499999999999,2.01432,-0.0762999999999999,-0.85803003,0.471739515,0.111755085
1764504865.206357,-4.959499999999999,2.01432,-0.0762999999999999,-0.85803003,0.471739515,0.111755085
1764504865.206357,-4.959499999999999,2.01432,-0.0762999999999999,-0.85803003,0.471739515,0.111755085
1764504865.206357,-4.959499999999999,2.01432,-0.0762999999999999,-0.85803003,0.471739515,0.111755085
1764504865.206357,-3.93708,1.23606,0.0,-0.858457275,0.47045778,0.1110837
1764504865.206357,-3.93708,1.23606,0.0,-0.858457275,0.47045778,0.1110837
1764504865.206357,-3.93708,1.23606,0.0,-0.858457275,0.47045778,0.1110837
1764504865.206357,-3.93708,1.23606,0.0,-0.858457275,0.47045778,0.1110837
1764504865.206357,-3.93708,1.23606,0.0,-0.858457275,0.47045778,0.1110837
1764504865.206357,-3.93708,1.23606,0.0,-0.858457275,0.47045778,0.1110837
1764504865.206357,-3.93708,1.23606,0.0,-0.858457275,0.47045778,0.1110837
1764504865.206357,-3.93708,1.23606,0.0,-0.858457275,0.47045778,0.1110837
1764504865.206357,-3.93708,1.23606,0.0,-0.858457275,0.47045778,0.1110837
1764504865.206357,-3.93708,1.23606,0.0,-0.858457275,0.47045778,0.1110837
1764504865.206357,-2.65524,0.7019599999999999,0.18312,-0.858335205,0.47009157,0.11047335
1764504865.206357,-2.65524,0.7019599999999999,0.18312,-0.858335205,0.47009157,0.11047335
1764504865.206357,-2.65524,0.7019599999999999,0.18312,-0.858335205,0.47009157,0.11047335
1764504865.206357,-2.65524,0.7019599999999999,0.18312,-0.858335205,0.47009157,0.11047335
1764504865.206357,-2.65524,0.7019599999999999,0.18312,-0.858335205,0.47009157,0.11047335
1764504865.206357,-2.65524,0.7019599999999999,0.18312,-0.858335205,0.47009157,0.11047335
1764504865.2516596,-2.65524,0.7019599999999999,0.18312,-0.858335205,0.47009157,0.11047335
1764504865.2516596,-2.65524,0.7019599999999999,0.18312,-0.858335205,0.47009157,0.11047335
1764504865.2516596,-2.65524,0.7019599999999999,0.18312,-0.858335205,0.47009157,0.11047335
1764504865.2516596,-2.65524,0.7019599999999999,0.18312,-0.858335205,0.47009157,0.11047335
1764504865.2516596,-1.69386,0.28994,-0.3815,-0.857968995,0.47070192,0.109924035
1764504865.2516596,-1.69386,0.28994,-0.3815,-0.857968995,0.47070192,0.109924035
1764504865.2526753,-1.69386,0.28994,-0.3815,-0.857968995,0.47070192,0.109924035
1764504865.2526753,-1.69386,0.28994,-0.3815,-0.857968995,0.47070192,0.109924035
1764504865.2526753,-1.69386,0.28994,-0.3815,-0.857968995,0.47070192,0.109924035
1764504865.2526753,-1.69386,0.28994,-0.3815,-0.857968995,0.47070192,0.109924035
1764504865.2526753,-1.69386,0.28994,-0.3815,-0.857968995,0.47070192,0.109924035
1764504865.2526753,-1.69386,0.28994,-0.3815,-0.857968995,0.47070192,0.109924035
1764504865.2526753,-1.69386,0.28994,-0.3815,-0.857968995,0.47070192,0.109924035
1764504865.2526753,-1.69386,0.28994,-0.3815,-0.857968995,0.47070192,0.109924035
1764504865.2526753,-1.8006799999999998,0.47306,0.1678599999999999,-0.857846925,0.47180055,0.110046105
1764504865.2526753,-1.8006799999999998,0.47306,0.1678599999999999,-0.857846925,0.47180055,0.110046105
1764504865.2526753,-1.8006799999999998,0.47306,0.1678599999999999,-0.857846925,0.47180055,0.110046105
1764504865.2526753,-1.8006799999999998,0.47306,0.1678599999999999,-0.857846925,0.47180055,0.110046105
1764504865.2526753,-1.8006799999999998,0.47306,0.1678599999999999,-0.857846925,0.47180055,0.110046105
1764504865.2526753,-1.8006799999999998,0.47306,0.1678599999999999,-0.857846925,0.47180055,0.110046105
1764504865.2526753,-1.8006799999999998,0.47306,0.1678599999999999,-0.857846925,0.47180055,0.110046105
1764504865.2526753,-1.8006799999999998,0.47306,0.1678599999999999,-0.857846925,0.47180055,0.110046105
1764504865.2983673,-1.8006799999999998,0.47306,0.1678599999999999,-0.857846925,0.47180055,0.110046105
1764504865.2983673,-1.8006799999999998,0.47306,0.1678599999999999,-0.857846925,0.47180055,0.110046105
1764504865.2983673,-2.42634,0.9156,0.27468,-0.858457275,0.474547125,0.109924035
1764504865.2983673,-2.42634,0.9156,0.27468,-0.858457275,0.474547125,0.109924035
1764504865.2983673,-2.42634,0.9156,0.27468,-0.858457275,0.474547125,0.109924035
1764504865.2983673,-2.42634,0.9156,0.27468,-0.858457275,0.474547125,0.109924035
1764504865.2983673,-2.42634,0.9156,0.27468,-0.858457275,0.474547125,0.109924035
1764504865.2983673,-2.42634,0.9156,0.27468,-0.858457275,0.474547125,0.109924035
1764504865.2983673,-2.42634,0.9156,0.27468,-0.858457275,0.474547125,0.109924035
1764504865.2983673,-2.42634,0.9156,0.27468,-0.858457275,0.474547125,0.109924035
1764504865.2983673,-2.42634,0.9156,0.27468,-0.858457275,0.474547125,0.109924035
1764504865.2983673,-2.42634,0.9156,0.27468,-0.858457275,0.474547125,0.109924035
1764504865.2983673,-2.62472,1.03768,0.44254,-0.858213135,0.476256105,0.110290245
1764504865.2983673,-2.62472,1.03768,0.44254,-0.858213135,0.476256105,0.110290245
1764504865.2983673,-2.62472,1.03768,0.44254,-0.858213135,0.476256105,0.110290245
1764504865.2983673,-2.62472,1.03768,0.44254,-0.858213135,0.476256105,0.110290245
1764504865.2983673,-2.62472,1.03768,0.44254,-0.858213135,0.476256105,0.110290245
1764504865.2983673,-2.62472,1.03768,0.44254,-0.858213135,0.476256105,0.110290245
1764504865.2983673,-2.62472,1.03768,0.44254,-0.858213135,0.476256105,0.110290245
1764504865.2983673,-2.62472,1.03768,0.44254,-0.858213135,0.476256105,0.110290245
1764504865.2983673,-2.62472,1.03768,0.44254,-0.858213135,0.476256105,0.110290245
1764504865.2983673,-2.62472,1.03768,0.44254,-0.858213135,0.476256105,0.110290245
1764504865.2983673,-3.32668,1.15976,0.1525999999999999,-0.85790796,0.476256105,0.111510945
1764504865.2983673,-3.32668,1.15976,0.1525999999999999,-0.85790796,0.476256105,0.111510945
1764504865.3431325,-3.32668,1.15976,0.1525999999999999,-0.85790796,0.476256105,0.111510945
1764504865.3431325,-3.32668,1.15976,0.1525999999999999,-0.85790796,0.476256105,0.111510945
1764504865.3431325,-3.32668,1.15976,0.1525999999999999,-0.85790796,0.476256105,0.111510945
1764504865.3431325,-3.32668,1.15976,0.1525999999999999,-0.85790796,0.476256105,0.111510945
1764504865.3431325,-3.32668,1.15976,0.1525999999999999,-0.85790796,0.476256105,0.111510945
1764504865.3431325,-3.32668,1.15976,0.1525999999999999,-0.85790796,0.476256105,0.111510945
1764504865.3431325,-3.32668,1.15976,0.1525999999999999,-0.85790796,0.476256105,0.111510945
1764504865.3431325,-3.32668,1.15976,0.1525999999999999,-0.85790796,0.476256105,0.111510945
1764504865.3431325,-4.68482,1.78542,0.19838,-0.85766382,0.47497437,0.112487505
1764504865.3431325,-4.68482,1.78542,0.19838,-0.85766382,0.47497437,0.112487505
1764504865.3431325,-4.68482,1.78542,0.19838,-0.85766382,0.47497437,0.112487505
1764504865.3431325,-4.68482,1.78542,0.19838,-0.85766382,0.47497437,0.112487505
1764504865.3431325,-4.68482,1.78542,0.19838,-0.85766382,0.47497437,0.112487505
1764504865.3431325,-4.68482,1.78542,0.19838,-0.85766382,0.47497437,0.112487505
1764504865.3431325,-4.68482,1.78542,0.19838,-0.85766382,0.47497437,0.112487505
1764504865.3431325,-4.68482,1.78542,0.19838,-0.85766382,0.47497437,0.112487505
1764504865.3431325,-4.68482,1.78542,0.19838,-0.85766382,0.47497437,0.112487505
1764504865.3431325,-4.68482,1.78542,0.19838,-0.85766382,0.47497437,0.112487505
1764504865.3431325,-5.27996,1.72438,0.3051999999999999,-0.857602785,0.47411988,0.111266805
1764504865.3431325,-5.27996,1.72438,0.3051999999999999,-0.857602785,0.47411988,0.111266805
1764504865.3431325,-5.27996,1.72438,0.3051999999999999,-0.857602785,0.47411988,0.111266805
1764504865.3431325,-5.27996,1.72438,0.3051999999999999,-0.857602785,0.47411988,0.111266805
1764504865.3929183,-5.27996,1.72438,0.3051999999999999,-0.857602785,0.47411988,0.111266805
1764504865.3929183,-5.27996,1.72438,0.3051999999999999,-0.857602785,0.47411988,0.111266805
1764504865.3929183,-5.27996,1.72438,0.3051999999999999,-0.857602785,0.47411988,0.111266805
1764504865.3929183,-5.27996,1.72438,0.3051999999999999,-0.857602785,0.47411988,0.111266805
1764504865.3929183,-5.27996,1.72438,0.3051999999999999,-0.857602785,0.47411988,0.111266805
1764504865.3929183,-5.27996,1.72438,0.3051999999999999,-0.857602785,0.47411988,0.111266805
1764504865.3929183,-4.97476,1.51074,0.5341,-0.85778589,0.47399781,0.10925265
1764504865.3929183,-4.97476,1.51074,0.5341,-0.85778589,0.47399781,0.10925265
1764504865.3929183,-4.97476,1.51074,0.5341,-0.85778589,0.47399781,0.10925265
1764504865.3941538,-4.97476,1.51074,0.5341,-0.85778589,0.47399781,0.10925265
1764504865.3941538,-4.97476,1.51074,0.5341,-0.85778589,0.47399781,0.10925265
1764504865.3941538,-4.97476,1.51074,0.5341,-0.85778589,0.47399781,0.10925265
1764504865.3941538,-4.97476,1.51074,0.5341,-0.85778589,0.47399781,0.10925265
1764504865.3941538,-4.97476,1.51074,0.5341,-0.85778589,0.47399781,0.10925265
1764504865.3941538,-4.97476,1.51074,0.5341,-0.85778589,0.47399781,0.10925265
1764504865.3941538,-4.97476,1.51074,0.5341,-0.85778589,0.47399781,0.10925265
1764504865.3941538,-3.90656,1.12924,0.03052,-0.8577248550000001,0.473204355,0.10815402
1764504865.3941538,-3.90656,1.12924,0.03052,-0.8577248550000001,0.473204355,0.10815402
1764504865.3941538,-3.90656,1.12924,0.03052,-0.8577248550000001,0.473204355,0.10815402
1764504865.3941538,-3.90656,1.12924,0.03052,-0.8577248550000001,0.473204355,0.10815402
1764504865.3941538,-3.90656,1.12924,0.03052,-0.8577248550000001,0.473204355,0.10815402
1764504865.3941538,-3.90656,1.12924,0.03052,-0.8577248550000001,0.473204355,0.10815402
1764504865.3941538,-3.90656,1.12924,0.03052,-0.8577248550000001,0.473204355,0.10815402
1764504865.3941538,-3.90656,1.12924,0.03052,-0.8577248550000001,0.473204355,0.10815402
1764504865.4392292,-3.90656,1.12924,0.03052,-0.8577248550000001,0.473204355,0.10815402
1764504865.4392292,-3.90656,1.12924,0.03052,-0.8577248550000001,0.473204355,0.10815402
1764504865.4392292,-2.70102,1.03768,-0.3509799999999999,-0.8569314,0.471739515,0.109069545
1764504865.4392292,-2.70102,1.03768,-0.3509799999999999,-0.8569314,0.471739515,0.109069545
1764504865.4392292,-2.70102,1.03768,-0.3509799999999999,-0.8569314,0.471739515,0.109069545
1764504865.4392292,-2.70102,1.03768,-0.3509799999999999,-0.8569314,0.471739515,0.109069545
1764504865.4392292,-2.70102,1.03768,-0.3509799999999999,-0.8569314,0.471739515,0.109069545
1764504865.4392292,-2.70102,1.03768,-0.3509799999999999,-0.8569314,0.471739515,0.109069545
1764504865.4392292,-2.70102,1.03768,-0.3509799999999999,-0.8569314,0.471739515,0.109069545
1764504865.4392292,-2.70102,1.03768,-0.3509799999999999,-0.8569314,0.471739515,0.109069545
1764504865.4392292,-2.70102,1.03768,-0.3509799999999999,-0.8569314,0.471739515,0.109069545
1764504865.4392292,-2.70102,1.03768,-0.3509799999999999,-0.8569314,0.471739515,0.109069545
1764504865.4407644,-1.8006799999999998,1.12924,0.06104,-0.85656519,0.47155641,0.10937472
1764504865.4407644,-1.8006799999999998,1.12924,0.06104,-0.85656519,0.47155641,0.10937472
1764504865.4407644,-1.8006799999999998,1.12924,0.06104,-0.85656519,0.47155641,0.10937472
1764504865.4407644,-1.8006799999999998,1.12924,0.06104,-0.85656519,0.47155641,0.10937472
1764504865.4407644,-1.8006799999999998,1.12924,0.06104,-0.85656519,0.47155641,0.10937472
1764504865.4407644,-1.8006799999999998,1.12924,0.06104,-0.85656519,0.47155641,0.10937472
1764504865.4407644,-1.8006799999999998,1.12924,0.06104,-0.85656519,0.47155641,0.10937472
1764504865.4407644,-1.8006799999999998,1.12924,0.06104,-0.85656519,0.47155641,0.10937472
1764504865.4407644,-1.8006799999999998,1.12924,0.06104,-0.85656519,0.47155641,0.10937472
1764504865.4407644,-1.8006799999999998,1.12924,0.06104,-0.85656519,0.47155641,0.10937472
1764504865.4407644,-2.289,0.96138,0.5341,-0.8577248550000001,0.472471935,0.108703335
1764504865.4407644,-2.289,0.96138,0.5341,-0.8577248550000001,0.472471935,0.108703335
1764504865.4842372,-2.289,0.96138,0.5341,-0.8577248550000001,0.472471935,0.108703335
1764504865.4842372,-2.289,0.96138,0.5341,-0.8577248550000001,0.472471935,0.108703335
1764504865.4842372,-2.289,0.96138,0.5341,-0.8577248550000001,0.472471935,0.108703335
1764504865.4842372,-2.289,0.96138,0.5341,-0.8577248550000001,0.472471935,0.108703335
1764504865.4842372,-2.289,0.96138,0.5341,-0.8577248550000001,0.472471935,0.108703335
1764504865.4842372,-2.289,0.96138,0.5341,-0.8577248550000001,0.472471935,0.108703335
1764504865.4842372,-2.289,0.96138,0.5341,-0.8577248550000001,0.472471935,0.108703335
1764504865.4842372,-2.289,0.96138,0.5341,-0.8577248550000001,0.472471935,0.108703335
1764504865.4842372,-3.57084,0.93086,0.82404,-0.859433835,0.475401615,0.108947475
1764504865.4842372,-3.57084,0.93086,0.82404,-0.859433835,0.475401615,0.108947475
1764504865.4842372,-3.57084,0.93086,0.82404,-0.859433835,0.475401615,0.108947475
1764504865.4842372,-3.57084,0.93086,0.82404,-0.859433835,0.475401615,0.108947475
1764504865.4842372,-3.57084,0.93086,0.82404,-0.859433835,0.475401615,0.108947475
1764504865.4842372,-3.57084,0.93086,0.82404,-0.859433835,0.475401615,0.108947475
1764504865.4842372,-3.57084,0.93086,0.82404,-0.859433835,0.475401615,0.108947475
1764504865.4842372,-3.57084,0.93086,0.82404,-0.859433835,0.475401615,0.108947475
1764504865.4842372,-3.57084,0.93086,0.82404,-0.859433835,0.475401615,0.108947475
1764504865.4842372,-3.57084,0.93086,0.82404,-0.859433835,0.475401615,0.108947475
1764504865.4842372,-4.25754,1.09872,0.3357199999999999,-0.860288325,0.476622315,0.109313685
1764504865.4842372,-4.25754,1.09872,0.3357199999999999,-0.860288325,0.476622315,0.109313685
1764504865.4842372,-4.25754,1.09872,0.3357199999999999,-0.860288325,0.476622315,0.109313685
1764504865.4842372,-4.25754,1.09872,0.3357199999999999,-0.860288325,0.476622315,0.109313685
1764504865.4853556,-4.25754,1.09872,0.3357199999999999,-0.860288325,0.476622315,0.109313685
1764504865.4853556,-4.25754,1.09872,0.3357199999999999,-0.860288325,0.476622315,0.109313685
1764504865.5300603,-4.25754,1.09872,0.3357199999999999,-0.860288325,0.476622315,0.109313685
1764504865.5300603,-4.25754,1.09872,0.3357199999999999,-0.860288325,0.476622315,0.109313685
1764504865.5300603,-4.25754,1.09872,0.3357199999999999,-0.860288325,0.476622315,0.109313685
1764504865.5300603,-4.25754,1.09872,0.3357199999999999,-0.860288325,0.476622315,0.109313685
1764504865.5300603,-4.92898,1.2208,0.3204599999999999,-0.85973901,0.47509644,0.10925265
1764504865.5300603,-4.92898,1.2208,0.3204599999999999,-0.85973901,0.47509644,0.10925265
1764504865.5320532,-4.92898,1.2208,0.3204599999999999,-0.85973901,0.47509644,0.10925265
1764504865.5320532,-4.92898,1.2208,0.3204599999999999,-0.85973901,0.47509644,0.10925265
1764504865.5320532,-4.92898,1.2208,0.3204599999999999,-0.85973901,0.47509644,0.10925265
1764504865.5320532,-4.92898,1.2208,0.3204599999999999,-0.85973901,0.47509644,0.10925265
1764504865.5320532,-4.92898,1.2208,0.3204599999999999,-0.85973901,0.47509644,0.10925265
1764504865.5320532,-4.92898,1.2208,0.3204599999999999,-0.85973901,0.47509644,0.10925265
1764504865.5320532,-4.92898,1.2208,0.3204599999999999,-0.85973901,0.47509644,0.10925265
1764504865.5320532,-4.92898,1.2208,0.3204599999999999,-0.85973901,0.47509644,0.10925265
1764504865.5320532,-4.959499999999999,1.19028,0.8087799999999999,-0.85925073,0.474425055,0.108337125
1764504865.5320532,-4.959499999999999,1.19028,0.8087799999999999,-0.85925073,0.474425055,0.108337125
1764504865.5320532,-4.959499999999999,1.19028,0.8087799999999999,-0.85925073,0.474425055,0.108337125
1764504865.5320532,-4.959499999999999,1.19028,0.8087799999999999,-0.85925073,0.474425055,0.108337125
1764504865.5320532,-4.959499999999999,1.19028,0.8087799999999999,-0.85925073,0.474425055,0.108337125
1764504865.5320532,-4.959499999999999,1.19028,0.8087799999999999,-0.85925073,0.474425055,0.108337125
1764504865.5320532,-4.959499999999999,1.19028,0.8087799999999999,-0.85925073,0.474425055,0.108337125
1764504865.5320532,-4.959499999999999,1.19028,0.8087799999999999,-0.85925073,0.474425055,0.108337125
1764504865.5785313,-4.959499999999999,1.19028,0.8087799999999999,-0.85925073,0.474425055,0.108337125
1764504865.5785313,-4.959499999999999,1.19028,0.8087799999999999,-0.85925073,0.474425055,0.108337125
1764504865.5785313,-4.76112,0.3357199999999999,0.10682,-0.858579345,0.472594005,0.109069545
1764504865.5785313,-4.76112,0.3357199999999999,0.10682,-0.858579345,0.472594005,0.109069545
1764504865.5785313,-4.76112,0.3357199999999999,0.10682,-0.858579345,0.472594005,0.109069545
1764504865.5785313,-4.76112,0.3357199999999999,0.10682,-0.858579345,0.472594005,0.109069545
1764504865.5785313,-4.76112,0.3357199999999999,0.10682,-0.858579345,0.472594005,0.109069545
1764504865.5785313,-4.76112,0.3357199999999999,0.10682,-0.858579345,0.472594005,0.109069545
1764504865.5785313,-4.76112,0.3357199999999999,0.10682,-0.858579345,0.472594005,0.109069545
1764504865.5785313,-4.76112,0.3357199999999999,0.10682,-0.858579345,0.472594005,0.109069545
1764504865.5785313,-4.76112,0.3357199999999999,0.10682,-0.858579345,0.472594005,0.109069545
1764504865.5785313,-4.76112,0.3357199999999999,0.10682,-0.858579345,0.472594005,0.109069545
1764504865.5785313,-3.38772,1.15976,-0.04578,-0.85558863,0.470885025,0.108947475
1764504865.5785313,-3.38772,1.15976,-0.04578,-0.85558863,0.470885025,0.108947475
1764504865.5797858,-3.38772,1.15976,-0.04578,-0.85558863,0.470885025,0.108947475
1764504865.5797858,-3.38772,1.15976,-0.04578,-0.85558863,0.470885025,0.108947475
1764504865.5797858,-3.38772,1.15976,-0.04578,-0.85558863,0.470885025,0.108947475
1764504865.5797858,-3.38772,1.15976,-0.04578,-0.85558863,0.470885025,0.108947475
1764504865.5797858,-3.38772,1.15976,-0.04578,-0.85558863,0.470885025,0.108947475
1764504865.5797858,-3.38772,1.15976,-0.04578,-0.85558863,0.470885025,0.108947475
1764504865.5797858,-3.38772,1.15976,-0.04578,-0.85558863,0.470885025,0.108947475
1764504865.5797858,-3.38772,1.15976,-0.04578,-0.85558863,0.470885025,0.108947475
1764504865.624863,-2.8231,1.78542,0.48832,-0.85607691,0.4711902,0.10778781
1764504865.624863,-2.8231,1.78542,0.48832,-0.85607691,0.4711902,0.10778781
1764504865.624863,-2.8231,1.78542,0.48832,-0.85607691,0.4711902,0.10778781
1764504865.624863,-2.8231,1.78542,0.48832,-0.85607691,0.4711902,0.10778781
1764504865.624863,-2.8231,1.78542,0.48832,-0.85607691,0.4711902,0.10778781
1764504865.624863,-2.8231,1.78542,0.48832,-0.85607691,0.4711902,0.10778781
1764504865.624863,-2.8231,1.78542,0.48832,-0.85607691,0.4711902,0.10778781
1764504865.624863,-2.8231,1.78542,0.48832,-0.85607691,0.4711902,0.10778781
1764504865.624863,-2.8231,1.78542,0.48832,-0.85607691,0.4711902,0.10778781
1764504865.624863,-2.8231,1.78542,0.48832,-0.85607691,0.4711902,0.10778781
1764504865.624863,-3.15882,1.11398,1.2971,-0.859677975,0.473936775,0.106628145
1764504865.624863,-3.15882,1.11398,1.2971,-0.859677975,0.473936775,0.106628145
1764504865.6260812,-3.15882,1.11398,1.2971,-0.859677975,0.473936775,0.106628145
1764504865.6260812,-3.15882,1.11398,1.2971,-0.859677975,0.473936775,0.106628145
1764504865.6260812,-3.15882,1.11398,1.2971,-0.859677975,0.473936775,0.106628145
1764504865.6260812,-3.15882,1.11398,1.2971,-0.859677975,0.473936775,0.106628145
1764504865.6260812,-3.15882,1.11398,1.2971,-0.859677975,0.473936775,0.106628145
1764504865.6260812,-3.15882,1.11398,1.2971,-0.859677975,0.473936775,0.106628145
1764504865.6260812,-3.15882,1.11398,1.2971,-0.859677975,0.473936775,0.106628145
1764504865.6260812,-3.15882,1.11398,1.2971,-0.859677975,0.473936775,0.106628145
1764504865.6260812,-3.4335,-0.3815,0.7019599999999999,-0.860166255,0.476256105,0.106994355
1764504865.6260812,-3.4335,-0.3815,0.7019599999999999,-0.860166255,0.476256105,0.106994355
1764504865.6260812,-3.4335,-0.3815,0.7019599999999999,-0.860166255,0.476256105,0.106994355
1764504865.6260812,-3.4335,-0.3815,0.7019599999999999,-0.860166255,0.476256105,0.106994355
1764504865.6686149,-3.4335,-0.3815,0.7019599999999999,-0.860166255,0.476256105,0.106994355
1764504865.6686149,-3.4335,-0.3815,0.7019599999999999,-0.860166255,0.476256105,0.106994355
1764504865.6686149,-3.4335,-0.3815,0.7019599999999999,-0.860166255,0.476256105,0.106994355
1764504865.6686149,-3.4335,-0.3815,0.7019599999999999,-0.860166255,0.476256105,0.106994355
1764504865.6686149,-3.4335,-0.3815,0.7019599999999999,-0.860166255,0.476256105,0.106994355
1764504865.6686149,-3.4335,-0.3815,0.7019599999999999,-0.860166255,0.476256105,0.106994355
1764504865.6686149,-4.1202,0.3357199999999999,-0.42728,-0.858701415,0.476073,0.108947475
1764504865.6686149,-4.1202,0.3357199999999999,-0.42728,-0.858701415,0.476073,0.108947475
1764504865.6686149,-4.1202,0.3357199999999999,-0.42728,-0.858701415,0.476073,0.108947475
1764504865.6686149,-4.1202,0.3357199999999999,-0.42728,-0.858701415,0.476073,0.108947475
1764504865.6686149,-4.1202,0.3357199999999999,-0.42728,-0.858701415,0.476073,0.108947475
1764504865.6686149,-4.1202,0.3357199999999999,-0.42728,-0.858701415,0.476073,0.108947475
1764504865.6686149,-4.1202,0.3357199999999999,-0.42728,-0.858701415,0.476073,0.108947475
1764504865.6686149,-4.1202,0.3357199999999999,-0.42728,-0.858701415,0.476073,0.108947475
1764504865.6686149,-4.1202,0.3357199999999999,-0.42728,-0.858701415,0.476073,0.108947475
1764504865.6686149,-4.1202,0.3357199999999999,-0.42728,-0.858701415,0.476073,0.108947475
1764504865.6686149,-3.6624,1.64808,-0.10682,-0.8569314,0.473692635,0.111022665
1764504865.6686149,-3.6624,1.64808,-0.10682,-0.8569314,0.473692635,0.111022665
1764504865.6686149,-3.6624,1.64808,-0.10682,-0.8569314,0.473692635,0.111022665
1764504865.669631,-3.6624,1.64808,-0.10682,-0.8569314,0.473692635,0.111022665
1764504865.669631,-3.6624,1.64808,-0.10682,-0.8569314,0.473692635,0.111022665
1764504865.669631,-3.6624,1.64808,-0.10682,-0.8569314,0.473692635,0.111022665
1764504865.7182877,-3.6624,1.64808,-0.10682,-0.8569314,0.473692635,0.111022665
1764504865.7182877,-3.6624,1.64808,-0.10682,-0.8569314,0.473692635,0.111022665
1764504865.7182877,-3.6624,1.64808,-0.10682,-0.8569314,0.473692635,0.111022665
1764504865.7182877,-3.6624,1.64808,-0.10682,-0.8569314,0.473692635,0.111022665
1764504865.7182877,-3.57084,1.89224,1.32762,-0.85607691,0.47265504,0.11035128
1764504865.7182877,-3.57084,1.89224,1.32762,-0.85607691,0.47265504,0.11035128
1764504865.7182877,-3.57084,1.89224,1.32762,-0.85607691,0.47265504,0.11035128
1764504865.7182877,-3.57084,1.89224,1.32762,-0.85607691,0.47265504,0.11035128
1764504865.7182877,-3.57084,1.89224,1.32762,-0.85607691,0.47265504,0.11035128
1764504865.7182877,-3.57084,1.89224,1.32762,-0.85607691,0.47265504,0.11035128
1764504865.7182877,-3.57084,1.89224,1.32762,-0.85607691,0.47265504,0.11035128
1764504865.7182877,-3.57084,1.89224,1.32762,-0.85607691,0.47265504,0.11035128
1764504865.7182877,-3.57084,1.89224,1.32762,-0.85607691,0.47265504,0.11035128
1764504865.7182877,-3.57084,1.89224,1.32762,-0.85607691,0.47265504,0.11035128
1764504865.7182877,-3.5861,1.3734,1.61756,-0.856260015,0.473082285,0.109313685
1764504865.7182877,-3.5861,1.3734,1.61756,-0.856260015,0.473082285,0.109313685
1764504865.7182877,-3.5861,1.3734,1.61756,-0.856260015,0.473082285,0.109313685
1764504865.7182877,-3.5861,1.3734,1.61756,-0.856260015,0.473082285,0.109313685
1764504865.7182877,-3.5861,1.3734,1.61756,-0.856260015,0.473082285,0.109313685
1764504865.7182877,-3.5861,1.3734,1.61756,-0.856260015,0.473082285,0.109313685
1764504865.7192998,-3.5861,1.3734,1.61756,-0.856260015,0.473082285,0.109313685
1764504865.7192998,-3.5861,1.3734,1.61756,-0.856260015,0.473082285,0.109313685
1764504865.7192998,-3.5861,1.3734,1.61756,-0.856260015,0.473082285,0.109313685
1764504865.7192998,-3.5861,1.3734,1.61756,-0.856260015,0.473082285,0.109313685
1764504865.7192998,-3.92182,1.78542,0.4578,-0.85656519,0.473570565,0.107848845
1764504865.7192998,-3.92182,1.78542,0.4578,-0.85656519,0.473570565,0.107848845
1764504865.7645133,-3.92182,1.78542,0.4578,-0.85656519,0.473570565,0.107848845
1764504865.7645133,-3.92182,1.78542,0.4578,-0.85656519,0.473570565,0.107848845
1764504865.7645133,-3.92182,1.78542,0.4578,-0.85656519,0.473570565,0.107848845
1764504865.7645133,-3.92182,1.78542,0.4578,-0.85656519,0.473570565,0.107848845
1764504865.7645133,-3.92182,1.78542,0.4578,-0.85656519,0.473570565,0.107848845
1764504865.7645133,-3.92182,1.78542,0.4578,-0.85656519,0.473570565,0.107848845
1764504865.7645133,-3.92182,1.78542,0.4578,-0.85656519,0.473570565,0.107848845
1764504865.7645133,-3.92182,1.78542,0.4578,-0.85656519,0.473570565,0.107848845
1764504865.7645133,-5.14262,1.19028,-0.21364,-0.856748295,0.4736316,0.107970915
1764504865.7645133,-5.14262,1.19028,-0.21364,-0.856748295,0.4736316,0.107970915
1764504865.7645133,-5.14262,1.19028,-0.21364,-0.856748295,0.4736316,0.107970915
1764504865.766081,-5.14262,1.19028,-0.21364,-0.856748295,0.4736316,0.107970915
1764504865.766081,-5.14262,1.19028,-0.21364,-0.856748295,0.4736316,0.107970915
1764504865.766081,-5.14262,1.19028,-0.21364,-0.856748295,0.4736316,0.107970915
1764504865.766081,-5.14262,1.19028,-0.21364,-0.856748295,0.4736316,0.107970915
1764504865.766081,-5.14262,1.19028,-0.21364,-0.856748295,0.4736316,0.107970915
1764504865.766081,-5.14262,1.19028,-0.21364,-0.856748295,0.4736316,0.107970915
1764504865.766081,-5.14262,1.19028,-0.21364,-0.856748295,0.4736316,0.107970915
1764504865.766081,-4.31858,0.4578,0.51884,-0.85766382,0.472594005,0.108581265
1764504865.766081,-4.31858,0.4578,0.51884,-0.85766382,0.472594005,0.108581265
1764504865.766081,-4.31858,0.4578,0.51884,-0.85766382,0.472594005,0.108581265
1764504865.766081,-4.31858,0.4578,0.51884,-0.85766382,0.472594005,0.108581265
1764504865.8100858,-4.31858,0.4578,0.51884,-0.85766382,0.472594005,0.108581265
1764504865.8100858,-4.31858,0.4578,0.51884,-0.85766382,0.472594005,0.108581265
1764504865.8100858,-4.31858,0.4578,0.51884,-0.85766382,0.472594005,0.108581265
1764504865.8100858,-4.31858,0.4578,0.51884,-0.85766382,0.472594005,0.108581265
1764504865.8100858,-4.31858,0.4578,0.51884,-0.85766382,0.472594005,0.108581265
1764504865.8100858,-4.31858,0.4578,0.51884,-0.85766382,0.472594005,0.108581265
1764504865.8100858,-2.6705,0.77826,1.34288,-0.85803003,0.47277711,0.108337125
1764504865.8100858,-2.6705,0.77826,1.34288,-0.85803003,0.47277711,0.108337125
1764504865.8100858,-2.6705,0.77826,1.34288,-0.85803003,0.47277711,0.108337125
1764504865.8100858,-2.6705,0.77826,1.34288,-0.85803003,0.47277711,0.108337125
1764504865.8100858,-2.6705,0.77826,1.34288,-0.85803003,0.47277711,0.108337125
1764504865.8100858,-2.6705,0.77826,1.34288,-0.85803003,0.47277711,0.108337125
1764504865.8100858,-2.6705,0.77826,1.34288,-0.85803003,0.47277711,0.108337125
1764504865.8100858,-2.6705,0.77826,1.34288,-0.85803003,0.47277711,0.108337125
1764504865.8100858,-2.6705,0.77826,1.34288,-0.85803003,0.47277711,0.108337125
1764504865.8100858,-2.6705,0.77826,1.34288,-0.85803003,0.47277711,0.108337125
1764504865.8100858,-1.9075,0.57988,1.2055399999999998,-0.85839624,0.47436402,0.10778781
1764504865.8100858,-1.9075,0.57988,1.2055399999999998,-0.85839624,0.47436402,0.10778781
1764504865.8100858,-1.9075,0.57988,1.2055399999999998,-0.85839624,0.47436402,0.10778781
1764504865.8100858,-1.9075,0.57988,1.2055399999999998,-0.85839624,0.47436402,0.10778781
1764504865.8110929,-1.9075,0.57988,1.2055399999999998,-0.85839624,0.47436402,0.10778781
1764504865.8110929,-1.9075,0.57988,1.2055399999999998,-0.85839624,0.47436402,0.10778781
1764504865.8552225,-1.9075,0.57988,1.2055399999999998,-0.85839624,0.47436402,0.10778781
1764504865.8552225,-1.9075,0.57988,1.2055399999999998,-0.85839624,0.47436402,0.10778781
1764504865.8552225,-1.9075,0.57988,1.2055399999999998,-0.85839624,0.47436402,0.10778781
1764504865.8552225,-1.9075,0.57988,1.2055399999999998,-0.85839624,0.47436402,0.10778781
1764504865.8552225,-2.63998,0.9919,-0.42728,-0.856992435,0.47631714,0.10839816
1764504865.856223,-2.63998,0.9919,-0.42728,-0.856992435,0.47631714,0.10839816
1764504865.856223,-2.63998,0.9919,-0.42728,-0.856992435,0.47631714,0.10839816
1764504865.856223,-2.63998,0.9919,-0.42728,-0.856992435,0.47631714,0.10839816
1764504865.856223,-2.63998,0.9919,-0.42728,-0.856992435,0.47631714,0.10839816
1764504865.856223,-2.63998,0.9919,-0.42728,-0.856992435,0.47631714,0.10839816
1764504865.856223,-2.63998,0.9919,-0.42728,-0.856992435,0.47631714,0.10839816
1764504865.856223,-2.63998,0.9919,-0.42728,-0.856992435,0.47631714,0.10839816
1764504865.856223,-2.63998,0.9919,-0.42728,-0.856992435,0.47631714,0.10839816
1764504865.856223,-2.63998,0.9919,-0.42728,-0.856992435,0.47631714,0.10839816
1764504865.856223,-4.74586,1.46496,-0.42728,-0.8556496650000001,0.478453365,0.108337125
1764504865.856223,-4.74586,1.46496,-0.42728,-0.8556496650000001,0.478453365,0.108337125
1764504865.8567328,-4.74586,1.46496,-0.42728,-0.8556496650000001,0.478453365,0.108337125
1764504865.8567328,-4.74586,1.46496,-0.42728,-0.8556496650000001,0.478453365,0.108337125
1764504865.8567328,-4.74586,1.46496,-0.42728,-0.8556496650000001,0.478453365,0.108337125
1764504865.8567328,-4.74586,1.46496,-0.42728,-0.8556496650000001,0.478453365,0.108337125
1764504865.8567328,-4.74586,1.46496,-0.42728,-0.8556496650000001,0.478453365,0.108337125
1764504865.8567328,-4.74586,1.46496,-0.42728,-0.8556496650000001,0.478453365,0.108337125
1764504865.8567328,-4.74586,1.46496,-0.42728,-0.8556496650000001,0.478453365,0.108337125
1764504865.8567328,-4.74586,1.46496,-0.42728,-0.8556496650000001,0.478453365,0.108337125
1764504865.9021409,-5.890359999999999,1.26658,0.39676,-0.856992435,0.47888061,0.10839816
1764504865.9021409,-5.890359999999999,1.26658,0.39676,-0.856992435,0.47888061,0.10839816
1764504865.9021409,-5.890359999999999,1.26658,0.39676,-0.856992435,0.47888061,0.10839816
1764504865.9021409,-5.890359999999999,1.26658,0.39676,-0.856992435,0.47888061,0.10839816
1764504865.9021409,-5.890359999999999,1.26658,0.39676,-0.856992435,0.47888061,0.10839816
1764504865.903164,-5.890359999999999,1.26658,0.39676,-0.856992435,0.47888061,0.10839816
1764504865.903164,-5.890359999999999,1.26658,0.39676,-0.856992435,0.47888061,0.10839816
1764504865.903164,-5.890359999999999,1.26658,0.39676,-0.856992435,0.47888061,0.10839816
1764504865.903164,-5.890359999999999,1.26658,0.39676,-0.856992435,0.47888061,0.10839816
1764504865.903164,-5.890359999999999,1.26658,0.39676,-0.856992435,0.47888061,0.10839816
1764504865.903164,-6.2566,0.6714399999999999,0.09156,-0.85803003,0.47827026,0.107970915
1764504865.903164,-6.2566,0.6714399999999999,0.09156,-0.85803003,0.47827026,0.107970915
1764504865.903164,-6.2566,0.6714399999999999,0.09156,-0.85803003,0.47827026,0.107970915
1764504865.903164,-6.2566,0.6714399999999999,0.09156,-0.85803003,0.47827026,0.107970915
1764504865.903164,-6.2566,0.6714399999999999,0.09156,-0.85803003,0.47827026,0.107970915
1764504865.903164,-6.2566,0.6714399999999999,0.09156,-0.85803003,0.47827026,0.107970915
1764504865.903164,-6.2566,0.6714399999999999,0.09156,-0.85803003,0.47827026,0.107970915
1764504865.903164,-6.2566,0.6714399999999999,0.09156,-0.85803003,0.47827026,0.107970915
1764504865.903164,-6.2566,0.6714399999999999,0.09156,-0.85803003,0.47827026,0.107970915
1764504865.903164,-6.2566,0.6714399999999999,0.09156,-0.85803003,0.47827026,0.107970915
1764504865.903164,-6.1803,0.8392999999999999,-0.6409199999999999,-0.858091065,0.476134035,0.10888644
1764504865.903164,-6.1803,0.8392999999999999,-0.6409199999999999,-0.858091065,0.476134035,0.10888644
1764504865.903164,-6.1803,0.8392999999999999,-0.6409199999999999,-0.858091065,0.476134035,0.10888644
1764504865.903164,-6.1803,0.8392999999999999,-0.6409199999999999,-0.858091065,0.476134035,0.10888644
1764504865.950935,-6.1803,0.8392999999999999,-0.6409199999999999,-0.858091065,0.476134035,0.10888644
1764504865.952242,-6.1803,0.8392999999999999,-0.6409199999999999,-0.858091065,0.476134035,0.10888644
1764504865.952242,-6.1803,0.8392999999999999,-0.6409199999999999,-0.858091065,0.476134035,0.10888644
1764504865.952242,-6.1803,0.8392999999999999,-0.6409199999999999,-0.858091065,0.476134035,0.10888644
1764504865.952242,-6.1803,0.8392999999999999,-0.6409199999999999,-0.858091065,0.476134035,0.10888644
1764504865.952242,-6.1803,0.8392999999999999,-0.6409199999999999,-0.858091065,0.476134035,0.10888644
1764504865.952242,-6.45498,1.4039199999999998,-0.93086,-0.857602785,0.473570565,0.108947475
1764504865.952242,-6.45498,1.4039199999999998,-0.93086,-0.857602785,0.473570565,0.108947475
1764504865.952242,-6.45498,1.4039199999999998,-0.93086,-0.857602785,0.473570565,0.108947475
1764504865.952242,-6.45498,1.4039199999999998,-0.93086,-0.857602785,0.473570565,0.108947475
1764504865.952242,-6.45498,1.4039199999999998,-0.93086,-0.857602785,0.473570565,0.108947475
1764504865.9532406,-6.45498,1.4039199999999998,-0.93086,-0.857602785,0.473570565,0.108947475
1764504865.9532406,-6.45498,1.4039199999999998,-0.93086,-0.857602785,0.473570565,0.108947475
1764504865.9532406,-6.45498,1.4039199999999998,-0.93086,-0.857602785,0.473570565,0.108947475
1764504865.9532406,-6.45498,1.4039199999999998,-0.93086,-0.857602785,0.473570565,0.108947475
1764504865.9532406,-6.45498,1.4039199999999998,-0.93086,-0.857602785,0.473570565,0.108947475
1764504865.9532406,-5.55464,1.63282,0.24416,-0.858091065,0.471129165,0.108703335
1764504865.9532406,-5.55464,1.63282,0.24416,-0.858091065,0.471129165,0.108703335
1764504865.9532406,-5.55464,1.63282,0.24416,-0.858091065,0.471129165,0.108703335
1764504865.9532406,-5.55464,1.63282,0.24416,-0.858091065,0.471129165,0.108703335
1764504865.9532406,-5.55464,1.63282,0.24416,-0.858091065,0.471129165,0.108703335
1764504865.9532406,-5.55464,1.63282,0.24416,-0.858091065,0.471129165,0.108703335
1764504865.9532406,-5.55464,1.63282,0.24416,-0.858091065,0.471129165,0.108703335
1764504865.9532406,-5.55464,1.63282,0.24416,-0.858091065,0.471129165,0.108703335
1764504865.997465,-5.55464,1.63282,0.24416,-0.858091065,0.471129165,0.108703335
1764504865.997465,-5.55464,1.63282,0.24416,-0.858091065,0.471129165,0.108703335
1764504865.997465,-4.79164,0.41202,0.56462,-0.85851831,0.469420185,0.106750215
1764504865.997465,-4.79164,0.41202,0.56462,-0.85851831,0.469420185,0.106750215
1764504865.997465,-4.79164,0.41202,0.56462,-0.85851831,0.469420185,0.106750215
1764504865.997465,-4.79164,0.41202,0.56462,-0.85851831,0.469420185,0.106750215
1764504865.997465,-4.79164,0.41202,0.56462,-0.85851831,0.469420185,0.106750215
1764504865.997465,-4.79164,0.41202,0.56462,-0.85851831,0.469420185,0.106750215
1764504865.997465,-4.79164,0.41202,0.56462,-0.85851831,0.469420185,0.106750215
1764504865.997465,-4.79164,0.41202,0.56462,-0.85851831,0.469420185,0.106750215
1764504865.997465,-4.79164,0.41202,0.56462,-0.85851831,0.469420185,0.106750215
1764504865.997465,-4.79164,0.41202,0.56462,-0.85851831,0.469420185,0.106750215
1764504865.998477,-3.38772,0.06104,0.10682,-0.8593117650000001,0.469298115,0.105529515
1764504865.998477,-3.38772,0.06104,0.10682,-0.8593117650000001,0.469298115,0.105529515
1764504865.998477,-3.38772,0.06104,0.10682,-0.8593117650000001,0.469298115,0.105529515
1764504865.998477,-3.38772,0.06104,0.10682,-0.8593117650000001,0.469298115,0.105529515
1764504865.998477,-3.38772,0.06104,0.10682,-0.8593117650000001,0.469298115,0.105529515
1764504865.998477,-3.38772,0.06104,0.10682,-0.8593117650000001,0.469298115,0.105529515
1764504865.998477,-3.38772,0.06104,0.10682,-0.8593117650000001,0.469298115,0.105529515
1764504865.998477,-3.38772,0.06104,0.10682,-0.8593117650000001,0.469298115,0.105529515
1764504865.998477,-3.38772,0.06104,0.10682,-0.8593117650000001,0.469298115,0.105529515
1764504865.998477,-3.38772,0.06104,0.10682,-0.8593117650000001,0.469298115,0.105529515
1764504865.998477,-2.30426,-0.06104,0.42728,-0.85851831,0.46899294,0.10607883
1764504865.998477,-2.30426,-0.06104,0.42728,-0.85851831,0.46899294,0.10607883
1764504866.0450404,-2.30426,-0.06104,0.42728,-0.85851831,0.46899294,0.10607883
1764504866.0450404,-2.30426,-0.06104,0.42728,-0.85851831,0.46899294,0.10607883
1764504866.0450404,-2.30426,-0.06104,0.42728,-0.85851831,0.46899294,0.10607883
1764504866.0450404,-2.30426,-0.06104,0.42728,-0.85851831,0.46899294,0.10607883
1764504866.046039,-2.30426,-0.06104,0.42728,-0.85851831,0.46899294,0.10607883
1764504866.046039,-2.30426,-0.06104,0.42728,-0.85851831,0.46899294,0.10607883
1764504866.046039,-2.30426,-0.06104,0.42728,-0.85851831,0.46899294,0.10607883
1764504866.046039,-2.30426,-0.06104,0.42728,-0.85851831,0.46899294,0.10607883
1764504866.046039,-1.6786,-0.1525999999999999,0.48832,-0.858579345,0.470640885,0.108092985
1764504866.046039,-1.6786,-0.1525999999999999,0.48832,-0.858579345,0.470640885,0.108092985
1764504866.046039,-1.6786,-0.1525999999999999,0.48832,-0.858579345,0.470640885,0.108092985
1764504866.0470378,-1.6786,-0.1525999999999999,0.48832,-0.858579345,0.470640885,0.108092985
1764504866.0470378,-1.6786,-0.1525999999999999,0.48832,-0.858579345,0.470640885,0.108092985
1764504866.0470378,-1.6786,-0.1525999999999999,0.48832,-0.858579345,0.470640885,0.108092985
1764504866.0470378,-1.6786,-0.1525999999999999,0.48832,-0.858579345,0.470640885,0.108092985
1764504866.0470378,-1.6786,-0.1525999999999999,0.48832,-0.858579345,0.470640885,0.108092985
1764504866.0470378,-1.6786,-0.1525999999999999,0.48832,-0.858579345,0.470640885,0.108092985
1764504866.048547,-1.6786,-0.1525999999999999,0.48832,-0.858579345,0.470640885,0.108092985
1764504866.048547,-1.9838,-0.03052,0.62566,-0.85790796,0.4724109,0.109679895
1764504866.048547,-1.9838,-0.03052,0.62566,-0.85790796,0.4724109,0.109679895
1764504866.048547,-1.9838,-0.03052,0.62566,-0.85790796,0.4724109,0.109679895
1764504866.048547,-1.9838,-0.03052,0.62566,-0.85790796,0.4724109,0.109679895
1764504866.0906014,-1.9838,-0.03052,0.62566,-0.85790796,0.4724109,0.109679895
1764504866.0906014,-1.9838,-0.03052,0.62566,-0.85790796,0.4724109,0.109679895
1764504866.0906014,-1.9838,-0.03052,0.62566,-0.85790796,0.4724109,0.109679895
1764504866.0906014,-1.9838,-0.03052,0.62566,-0.85790796,0.4724109,0.109679895
1764504866.0906014,-1.9838,-0.03052,0.62566,-0.85790796,0.4724109,0.109679895
1764504866.0906014,-1.9838,-0.03052,0.62566,-0.85790796,0.4724109,0.109679895
1764504866.0906014,-2.71628,0.77826,0.65618,-0.857846925,0.475401615,0.109924035
1764504866.0906014,-2.71628,0.77826,0.65618,-0.857846925,0.475401615,0.109924035
1764504866.0906014,-2.71628,0.77826,0.65618,-0.857846925,0.475401615,0.109924035
1764504866.0906014,-2.71628,0.77826,0.65618,-0.857846925,0.475401615,0.109924035
1764504866.093157,-2.71628,0.77826,0.65618,-0.857846925,0.475401615,0.109924035
1764504866.093157,-2.71628,0.77826,0.65618,-0.857846925,0.475401615,0.109924035
1764504866.093157,-2.71628,0.77826,0.65618,-0.857846925,0.475401615,0.109924035
1764504866.093157,-2.71628,0.77826,0.65618,-0.857846925,0.475401615,0.109924035
1764504866.093157,-2.71628,0.77826,0.65618,-0.857846925,0.475401615,0.109924035
1764504866.093157,-2.71628,0.77826,0.65618,-0.857846925,0.475401615,0.109924035
1764504866.093157,-4.1965,0.88508,0.41202,-0.857358645,0.4772937,0.11120577
1764504866.093157,-4.1965,0.88508,0.41202,-0.857358645,0.4772937,0.11120577
1764504866.093157,-4.1965,0.88508,0.41202,-0.857358645,0.4772937,0.11120577
1764504866.093157,-4.1965,0.88508,0.41202,-0.857358645,0.4772937,0.11120577
1764504866.093157,-4.1965,0.88508,0.41202,-0.857358645,0.4772937,0.11120577
1764504866.093157,-4.1965,0.88508,0.41202,-0.857358645,0.4772937,0.11120577
1764504866.1369288,-4.1965,0.88508,0.41202,-0.857358645,0.4772937,0.11120577
1764504866.1369288,-4.1965,0.88508,0.41202,-0.857358645,0.4772937,0.11120577
1764504866.1369288,-4.1965,0.88508,0.41202,-0.857358645,0.4772937,0.11120577
1764504866.1369288,-4.1965,0.88508,0.41202,-0.857358645,0.4772937,0.11120577
1764504866.1369288,-6.62284,1.6022999999999998,0.3051999999999999,-0.8572365750000001,0.477476805,0.11206026
1764504866.1369288,-6.62284,1.6022999999999998,0.3051999999999999,-0.8572365750000001,0.477476805,0.11206026
1764504866.1369288,-6.62284,1.6022999999999998,0.3051999999999999,-0.8572365750000001,0.477476805,0.11206026
1764504866.1369288,-6.62284,1.6022999999999998,0.3051999999999999,-0.8572365750000001,0.477476805,0.11206026
1764504866.1369288,-6.62284,1.6022999999999998,0.3051999999999999,-0.8572365750000001,0.477476805,0.11206026
1764504866.1369288,-6.62284,1.6022999999999998,0.3051999999999999,-0.8572365750000001,0.477476805,0.11206026
1764504866.1369288,-6.62284,1.6022999999999998,0.3051999999999999,-0.8572365750000001,0.477476805,0.11206026
1764504866.1369288,-6.62284,1.6022999999999998,0.3051999999999999,-0.8572365750000001,0.477476805,0.11206026
1764504866.1369288,-6.62284,1.6022999999999998,0.3051999999999999,-0.8572365750000001,0.477476805,0.11206026
1764504866.1369288,-6.62284,1.6022999999999998,0.3051999999999999,-0.8572365750000001,0.477476805,0.11206026
1764504866.1369288,-7.15694,1.58704,-3.8913,-0.857846925,0.476500245,0.111022665
1764504866.1369288,-7.15694,1.58704,-3.8913,-0.857846925,0.476500245,0.111022665
1764504866.1369288,-7.15694,1.58704,-3.8913,-0.857846925,0.476500245,0.111022665
1764504866.1369288,-7.15694,1.58704,-3.8913,-0.857846925,0.476500245,0.111022665
1764504866.1369288,-7.15694,1.58704,-3.8913,-0.857846925,0.476500245,0.111022665
1764504866.1369288,-7.15694,1.58704,-3.8913,-0.857846925,0.476500245,0.111022665
1764504866.1369288,-7.15694,1.58704,-3.8913,-0.857846925,0.476500245,0.111022665
1764504866.1369288,-7.15694,1.58704,-3.8913,-0.857846925,0.476500245,0.111022665
1764504866.1369288,-7.15694,1.58704,-3.8913,-0.857846925,0.476500245,0.111022665
1764504866.1369288,-7.15694,1.58704,-3.8913,-0.857846925,0.476500245,0.111022665
1764504866.1842723,-6.36342,1.46496,0.59514,-0.858701415,0.474791265,0.109435755
1764504866.1853094,-6.36342,1.46496,0.59514,-0.858701415,0.474791265,0.109435755
1764504866.1853094,-6.36342,1.46496,0.59514,-0.858701415,0.474791265,0.109435755
1764504866.1853094,-6.36342,1.46496,0.59514,-0.858701415,0.474791265,0.109435755
1764504866.1863024,-6.36342,1.46496,0.59514,-0.858701415,0.474791265,0.109435755
1764504866.1863024,-6.36342,1.46496,0.59514,-0.858701415,0.474791265,0.109435755
1764504866.1863024,-6.36342,1.46496,0.59514,-0.858701415,0.474791265,0.109435755
1764504866.1863024,-6.36342,1.46496,0.59514,-0.858701415,0.474791265,0.109435755
1764504866.1863024,-6.36342,1.46496,0.59514,-0.858701415,0.474791265,0.109435755
1764504866.1863024,-6.36342,1.46496,0.59514,-0.858701415,0.474791265,0.109435755
1764504866.1863024,-5.234179999999999,0.9003399999999999,0.03052,-0.858213135,0.47326539,0.10827609
1764504866.1863024,-5.234179999999999,0.9003399999999999,0.03052,-0.858213135,0.47326539,0.10827609
1764504866.1863024,-5.234179999999999,0.9003399999999999,0.03052,-0.858213135,0.47326539,0.10827609
1764504866.1863024,-5.234179999999999,0.9003399999999999,0.03052,-0.858213135,0.47326539,0.10827609
1764504866.1863024,-5.234179999999999,0.9003399999999999,0.03052,-0.858213135,0.47326539,0.10827609
1764504866.1863024,-5.234179999999999,0.9003399999999999,0.03052,-0.858213135,0.47326539,0.10827609
1764504866.1863024,-5.234179999999999,0.9003399999999999,0.03052,-0.858213135,0.47326539,0.10827609
1764504866.1863024,-5.234179999999999,0.9003399999999999,0.03052,-0.858213135,0.47326539,0.10827609
1764504866.1863024,-5.234179999999999,0.9003399999999999,0.03052,-0.858213135,0.47326539,0.10827609
1764504866.1872828,-5.234179999999999,0.9003399999999999,0.03052,-0.858213135,0.47326539,0.10827609
1764504866.1872828,-4.60852,1.0682,0.3204599999999999,-0.85864038,0.47216676,0.10815402
1764504866.1872828,-4.60852,1.0682,0.3204599999999999,-0.85864038,0.47216676,0.10815402
1764504866.1872828,-4.60852,1.0682,0.3204599999999999,-0.85864038,0.47216676,0.10815402
1764504866.1872828,-4.60852,1.0682,0.3204599999999999,-0.85864038,0.47216676,0.10815402
1764504866.2321973,-4.60852,1.0682,0.3204599999999999,-0.85864038,0.47216676,0.10815402
1764504866.2321973,-4.60852,1.0682,0.3204599999999999,-0.85864038,0.47216676,0.10815402
1764504866.2321973,-4.60852,1.0682,0.3204599999999999,-0.85864038,0.47216676,0.10815402
1764504866.2321973,-4.60852,1.0682,0.3204599999999999,-0.85864038,0.47216676,0.10815402
1764504866.2321973,-4.60852,1.0682,0.3204599999999999,-0.85864038,0.47216676,0.10815402
1764504866.2332098,-4.60852,1.0682,0.3204599999999999,-0.85864038,0.47216676,0.10815402
1764504866.2332098,-4.1965,0.763,0.54936,-0.859433835,0.472349865,0.108581265
1764504866.2332098,-4.1965,0.763,0.54936,-0.859433835,0.472349865,0.108581265
1764504866.2332098,-4.1965,0.763,0.54936,-0.859433835,0.472349865,0.108581265
1764504866.2332098,-4.1965,0.763,0.54936,-0.859433835,0.472349865,0.108581265
1764504866.2332098,-4.1965,0.763,0.54936,-0.859433835,0.472349865,0.108581265
1764504866.2332098,-4.1965,0.763,0.54936,-0.859433835,0.472349865,0.108581265
1764504866.2332098,-4.1965,0.763,0.54936,-0.859433835,0.472349865,0.108581265
1764504866.2332098,-4.1965,0.763,0.54936,-0.859433835,0.472349865,0.108581265
1764504866.2332098,-4.1965,0.763,0.54936,-0.859433835,0.472349865,0.108581265
1764504866.2332098,-4.1965,0.763,0.54936,-0.859433835,0.472349865,0.108581265
1764504866.2332098,-4.41014,0.44254,0.48832,-0.85912866,0.47289918,0.109435755
1764504866.2332098,-4.41014,0.44254,0.48832,-0.85912866,0.47289918,0.109435755
1764504866.2332098,-4.41014,0.44254,0.48832,-0.85912866,0.47289918,0.109435755
1764504866.2332098,-4.41014,0.44254,0.48832,-0.85912866,0.47289918,0.109435755
1764504866.2332098,-4.41014,0.44254,0.48832,-0.85912866,0.47289918,0.109435755
1764504866.2332098,-4.41014,0.44254,0.48832,-0.85912866,0.47289918,0.109435755
1764504866.2332098,-4.41014,0.44254,0.48832,-0.85912866,0.47289918,0.109435755
1764504866.2332098,-4.41014,0.44254,0.48832,-0.85912866,0.47289918,0.109435755
1764504866.277588,-4.41014,0.44254,0.48832,-0.85912866,0.47289918,0.109435755
1764504866.277588,-4.41014,0.44254,0.48832,-0.85912866,0.47289918,0.109435755
1764504866.277588,-4.41014,1.2208,0.8698199999999999,-0.85864038,0.47326539,0.109557825
1764504866.277588,-4.41014,1.2208,0.8698199999999999,-0.85864038,0.47326539,0.109557825
1764504866.277588,-4.41014,1.2208,0.8698199999999999,-0.85864038,0.47326539,0.109557825
1764504866.277588,-4.41014,1.2208,0.8698199999999999,-0.85864038,0.47326539,0.109557825
1764504866.277588,-4.41014,1.2208,0.8698199999999999,-0.85864038,0.47326539,0.109557825
1764504866.277588,-4.41014,1.2208,0.8698199999999999,-0.85864038,0.47326539,0.109557825
1764504866.277588,-4.41014,1.2208,0.8698199999999999,-0.85864038,0.47326539,0.109557825
1764504866.277588,-4.41014,1.2208,0.8698199999999999,-0.85864038,0.47326539,0.109557825
1764504866.277588,-4.41014,1.2208,0.8698199999999999,-0.85864038,0.47326539,0.109557825
1764504866.277588,-4.41014,1.2208,0.8698199999999999,-0.85864038,0.47326539,0.109557825
1764504866.277588,-4.440659999999999,0.79352,0.19838,-0.85839624,0.472716075,0.109924035
1764504866.277588,-4.440659999999999,0.79352,0.19838,-0.85839624,0.472716075,0.109924035
1764504866.277588,-4.440659999999999,0.79352,0.19838,-0.85839624,0.472716075,0.109924035
1764504866.277588,-4.440659999999999,0.79352,0.19838,-0.85839624,0.472716075,0.109924035
1764504866.277588,-4.440659999999999,0.79352,0.19838,-0.85839624,0.472716075,0.109924035
1764504866.277588,-4.440659999999999,0.79352,0.19838,-0.85839624,0.472716075,0.109924035
1764504866.277588,-4.440659999999999,0.79352,0.19838,-0.85839624,0.472716075,0.109924035
1764504866.277588,-4.440659999999999,0.79352,0.19838,-0.85839624,0.472716075,0.109924035
1764504866.277588,-4.440659999999999,0.79352,0.19838,-0.85839624,0.472716075,0.109924035
1764504866.2785983,-4.440659999999999,0.79352,0.19838,-0.85839624,0.472716075,0.109924035
1764504866.3226676,-4.2728,0.9919,0.25942,-0.857358645,0.472960215,0.10949679
1764504866.323227,-4.2728,0.9919,0.25942,-0.857358645,0.472960215,0.10949679
1764504866.323227,-4.2728,0.9919,0.25942,-0.857358645,0.472960215,0.10949679
1764504866.323227,-4.2728,0.9919,0.25942,-0.857358645,0.472960215,0.10949679
1764504866.323227,-4.2728,0.9919,0.25942,-0.857358645,0.472960215,0.10949679
1764504866.323227,-4.2728,0.9919,0.25942,-0.857358645,0.472960215,0.10949679
1764504866.323227,-4.2728,0.9919,0.25942,-0.857358645,0.472960215,0.10949679
1764504866.323227,-4.2728,0.9919,0.25942,-0.857358645,0.472960215,0.10949679
1764504866.323227,-4.2728,0.9919,0.25942,-0.857358645,0.472960215,0.10949679
1764504866.323227,-4.2728,0.9919,0.25942,-0.857358645,0.472960215,0.10949679
1764504866.323227,-5.27996,1.2208,-0.01526,-0.85717554,0.47338746,0.10839816
1764504866.323227,-5.27996,1.2208,-0.01526,-0.85717554,0.47338746,0.10839816
1764504866.323227,-5.27996,1.2208,-0.01526,-0.85717554,0.47338746,0.10839816
1764504866.323227,-5.27996,1.2208,-0.01526,-0.85717554,0.47338746,0.10839816
1764504866.323227,-5.27996,1.2208,-0.01526,-0.85717554,0.47338746,0.10839816
1764504866.3237894,-5.27996,1.2208,-0.01526,-0.85717554,0.47338746,0.10839816
1764504866.3237894,-5.27996,1.2208,-0.01526,-0.85717554,0.47338746,0.10839816
1764504866.3237894,-5.27996,1.2208,-0.01526,-0.85717554,0.47338746,0.10839816
1764504866.3237894,-5.27996,1.2208,-0.01526,-0.85717554,0.47338746,0.10839816
1764504866.3237894,-5.27996,1.2208,-0.01526,-0.85717554,0.47338746,0.10839816
1764504866.3237894,-4.822159999999999,1.34288,0.9156,-0.8582741700000001,0.475035405,0.10668918
1764504866.3237894,-4.822159999999999,1.34288,0.9156,-0.8582741700000001,0.475035405,0.10668918
1764504866.3237894,-4.822159999999999,1.34288,0.9156,-0.8582741700000001,0.475035405,0.10668918
1764504866.3237894,-4.822159999999999,1.34288,0.9156,-0.8582741700000001,0.475035405,0.10668918
1764504866.369763,-4.822159999999999,1.34288,0.9156,-0.8582741700000001,0.475035405,0.10668918
1764504866.369763,-4.822159999999999,1.34288,0.9156,-0.8582741700000001,0.475035405,0.10668918
1764504866.369763,-4.822159999999999,1.34288,0.9156,-0.8582741700000001,0.475035405,0.10668918
1764504866.369763,-4.822159999999999,1.34288,0.9156,-0.8582741700000001,0.475035405,0.10668918
1764504866.369763,-4.822159999999999,1.34288,0.9156,-0.8582741700000001,0.475035405,0.10668918
1764504866.369763,-4.822159999999999,1.34288,0.9156,-0.8582741700000001,0.475035405,0.10668918
1764504866.369763,-4.53222,-0.3051999999999999,1.00716,-0.860776605,0.47753784,0.10668918
1764504866.3707783,-4.53222,-0.3051999999999999,1.00716,-0.860776605,0.47753784,0.10668918
1764504866.3707783,-4.53222,-0.3051999999999999,1.00716,-0.860776605,0.47753784,0.10668918
1764504866.3707783,-4.53222,-0.3051999999999999,1.00716,-0.860776605,0.47753784,0.10668918
1764504866.3707783,-4.53222,-0.3051999999999999,1.00716,-0.860776605,0.47753784,0.10668918
1764504866.3707783,-4.53222,-0.3051999999999999,1.00716,-0.860776605,0.47753784,0.10668918
1764504866.3707783,-4.53222,-0.3051999999999999,1.00716,-0.860776605,0.47753784,0.10668918
1764504866.3707783,-4.53222,-0.3051999999999999,1.00716,-0.860776605,0.47753784,0.10668918
1764504866.3707783,-4.53222,-0.3051999999999999,1.00716,-0.860776605,0.47753784,0.10668918
1764504866.3707783,-4.53222,-0.3051999999999999,1.00716,-0.860776605,0.47753784,0.10668918
1764504866.371774,-4.76112,-0.44254,-0.51884,-0.85998315,0.477354735,0.10949679
1764504866.371774,-4.76112,-0.44254,-0.51884,-0.85998315,0.477354735,0.10949679
1764504866.371774,-4.76112,-0.44254,-0.51884,-0.85998315,0.477354735,0.10949679
1764504866.371774,-4.76112,-0.44254,-0.51884,-0.85998315,0.477354735,0.10949679
1764504866.371774,-4.76112,-0.44254,-0.51884,-0.85998315,0.477354735,0.10949679
1764504866.371774,-4.76112,-0.44254,-0.51884,-0.85998315,0.477354735,0.10949679
1764504866.4185767,-4.76112,-0.44254,-0.51884,-0.85998315,0.477354735,0.10949679
1764504866.4185767,-4.76112,-0.44254,-0.51884,-0.85998315,0.477354735,0.10949679
1764504866.4185767,-4.76112,-0.44254,-0.51884,-0.85998315,0.477354735,0.10949679
1764504866.4185767,-4.76112,-0.44254,-0.51884,-0.85998315,0.477354735,0.10949679
1764504866.4185767,-5.32574,0.51884,-0.85456,-0.85851831,0.47521851,0.111144735
1764504866.4185767,-5.32574,0.51884,-0.85456,-0.85851831,0.47521851,0.111144735
1764504866.4185767,-5.32574,0.51884,-0.85456,-0.85851831,0.47521851,0.111144735
1764504866.4185767,-5.32574,0.51884,-0.85456,-0.85851831,0.47521851,0.111144735
1764504866.4195917,-5.32574,0.51884,-0.85456,-0.85851831,0.47521851,0.111144735
1764504866.4195917,-5.32574,0.51884,-0.85456,-0.85851831,0.47521851,0.111144735
1764504866.4195917,-5.32574,0.51884,-0.85456,-0.85851831,0.47521851,0.111144735
1764504866.4195917,-5.32574,0.51884,-0.85456,-0.85851831,0.47521851,0.111144735
1764504866.4195917,-5.32574,0.51884,-0.85456,-0.85851831,0.47521851,0.111144735
1764504866.4195917,-5.32574,0.51884,-0.85456,-0.85851831,0.47521851,0.111144735
1764504866.4195917,-5.17314,1.6633399999999998,0.44254,-0.856870365,0.473692635,0.111144735
1764504866.4195917,-5.17314,1.6633399999999998,0.44254,-0.856870365,0.473692635,0.111144735
1764504866.4195917,-5.17314,1.6633399999999998,0.44254,-0.856870365,0.473692635,0.111144735
1764504866.4195917,-5.17314,1.6633399999999998,0.44254,-0.856870365,0.473692635,0.111144735
1764504866.4195917,-5.17314,1.6633399999999998,0.44254,-0.856870365,0.473692635,0.111144735
1764504866.4195917,-5.17314,1.6633399999999998,0.44254,-0.856870365,0.473692635,0.111144735
1764504866.4195917,-5.17314,1.6633399999999998,0.44254,-0.856870365,0.473692635,0.111144735
1764504866.4195917,-5.17314,1.6633399999999998,0.44254,-0.856870365,0.473692635,0.111144735
1764504866.4195917,-5.17314,1.6633399999999998,0.44254,-0.856870365,0.473692635,0.111144735
1764504866.4195917,-5.17314,1.6633399999999998,0.44254,-0.856870365,0.473692635,0.111144735
1764504866.464891,-4.54748,1.55652,1.526,-0.8569314,0.47326539,0.11010714
1764504866.464891,-4.54748,1.55652,1.526,-0.8569314,0.47326539,0.11010714
1764504866.464891,-4.54748,1.55652,1.526,-0.8569314,0.47326539,0.11010714
1764504866.464891,-4.54748,1.55652,1.526,-0.8569314,0.47326539,0.11010714
1764504866.464891,-4.54748,1.55652,1.526,-0.8569314,0.47326539,0.11010714
1764504866.464891,-4.54748,1.55652,1.526,-0.8569314,0.47326539,0.11010714
1764504866.464891,-4.54748,1.55652,1.526,-0.8569314,0.47326539,0.11010714
1764504866.464891,-4.54748,1.55652,1.526,-0.8569314,0.47326539,0.11010714
1764504866.464891,-4.54748,1.55652,1.526,-0.8569314,0.47326539,0.11010714
1764504866.464891,-4.54748,1.55652,1.526,-0.8569314,0.47326539,0.11010714
1764504866.464891,-4.92898,0.8698199999999999,0.71722,-0.858335205,0.47326539,0.108947475
1764504866.464891,-4.92898,0.8698199999999999,0.71722,-0.858335205,0.47326539,0.108947475
1764504866.464891,-4.92898,0.8698199999999999,0.71722,-0.858335205,0.47326539,0.108947475
1764504866.464891,-4.92898,0.8698199999999999,0.71722,-0.858335205,0.47326539,0.108947475
1764504866.464891,-4.92898,0.8698199999999999,0.71722,-0.858335205,0.47326539,0.108947475
1764504866.464891,-4.92898,0.8698199999999999,0.71722,-0.858335205,0.47326539,0.108947475
1764504866.4658885,-4.92898,0.8698199999999999,0.71722,-0.858335205,0.47326539,0.108947475
1764504866.4658885,-4.92898,0.8698199999999999,0.71722,-0.858335205,0.47326539,0.108947475
1764504866.4658885,-4.92898,0.8698199999999999,0.71722,-0.858335205,0.47326539,0.108947475
1764504866.4658885,-4.92898,0.8698199999999999,0.71722,-0.858335205,0.47326539,0.108947475
1764504866.4658885,-6.24134,0.93086,0.09156,-0.8593117650000001,0.472960215,0.109435755
1764504866.4658885,-6.24134,0.93086,0.09156,-0.8593117650000001,0.472960215,0.109435755
1764504866.5097086,-6.24134,0.93086,0.09156,-0.8593117650000001,0.472960215,0.109435755
1764504866.5097086,-6.24134,0.93086,0.09156,-0.8593117650000001,0.472960215,0.109435755
1764504866.5097086,-6.24134,0.93086,0.09156,-0.8593117650000001,0.472960215,0.109435755
1764504866.5097086,-6.24134,0.93086,0.09156,-0.8593117650000001,0.472960215,0.109435755
1764504866.5097086,-6.24134,0.93086,0.09156,-0.8593117650000001,0.472960215,0.109435755
1764504866.5097086,-6.24134,0.93086,0.09156,-0.8593117650000001,0.472960215,0.109435755
1764504866.5097086,-6.24134,0.93086,0.09156,-0.8593117650000001,0.472960215,0.109435755
1764504866.5097086,-6.24134,0.93086,0.09156,-0.8593117650000001,0.472960215,0.109435755
1764504866.5097086,-6.34816,0.42728,0.13734,-0.860410395,0.473204355,0.11096163
1764504866.5097086,-6.34816,0.42728,0.13734,-0.860410395,0.473204355,0.11096163
1764504866.5097086,-6.34816,0.42728,0.13734,-0.860410395,0.473204355,0.11096163
1764504866.5097086,-6.34816,0.42728,0.13734,-0.860410395,0.473204355,0.11096163
1764504866.5097086,-6.34816,0.42728,0.13734,-0.860410395,0.473204355,0.11096163
1764504866.5097086,-6.34816,0.42728,0.13734,-0.860410395,0.473204355,0.11096163
1764504866.5097086,-6.34816,0.42728,0.13734,-0.860410395,0.473204355,0.11096163
1764504866.5097086,-6.34816,0.42728,0.13734,-0.860410395,0.473204355,0.11096163
1764504866.5097086,-6.34816,0.42728,0.13734,-0.860410395,0.473204355,0.11096163
1764504866.5097086,-6.34816,0.42728,0.13734,-0.860410395,0.473204355,0.11096163
1764504866.5112238,-4.577999999999999,0.09156,0.8087799999999999,-0.85912866,0.47228883,0.111144735
1764504866.5112238,-4.577999999999999,0.09156,0.8087799999999999,-0.85912866,0.47228883,0.111144735
1764504866.5112238,-4.577999999999999,0.09156,0.8087799999999999,-0.85912866,0.47228883,0.111144735
1764504866.5122285,-4.577999999999999,0.09156,0.8087799999999999,-0.85912866,0.47228883,0.111144735
1764504866.5122285,-4.577999999999999,0.09156,0.8087799999999999,-0.85912866,0.47228883,0.111144735
1764504866.5122285,-4.577999999999999,0.09156,0.8087799999999999,-0.85912866,0.47228883,0.111144735
1764504866.5122285,-4.577999999999999,0.09156,0.8087799999999999,-0.85912866,0.47228883,0.111144735
1764504866.51323,-4.577999999999999,0.09156,0.8087799999999999,-0.85912866,0.47228883,0.111144735
1764504866.558302,-4.577999999999999,0.09156,0.8087799999999999,-0.85912866,0.47228883,0.111144735
1764504866.558302,-4.577999999999999,0.09156,0.8087799999999999,-0.85912866,0.47228883,0.111144735
1764504866.558302,-3.14356,0.1678599999999999,0.04578,-0.85729761,0.472227795,0.10998507
1764504866.558302,-3.14356,0.1678599999999999,0.04578,-0.85729761,0.472227795,0.10998507
1764504866.558302,-3.14356,0.1678599999999999,0.04578,-0.85729761,0.472227795,0.10998507
1764504866.558302,-3.14356,0.1678599999999999,0.04578,-0.85729761,0.472227795,0.10998507
1764504866.558302,-3.14356,0.1678599999999999,0.04578,-0.85729761,0.472227795,0.10998507
1764504866.558302,-3.14356,0.1678599999999999,0.04578,-0.85729761,0.472227795,0.10998507
1764504866.558302,-3.14356,0.1678599999999999,0.04578,-0.85729761,0.472227795,0.10998507
1764504866.558302,-3.14356,0.1678599999999999,0.04578,-0.85729761,0.472227795,0.10998507
1764504866.558302,-3.14356,0.1678599999999999,0.04578,-0.85729761,0.472227795,0.10998507
1764504866.558302,-3.14356,0.1678599999999999,0.04578,-0.85729761,0.472227795,0.10998507
1764504866.558302,-1.9075,0.1678599999999999,-1.25132,-0.858091065,0.470274675,0.11047335
1764504866.558302,-1.9075,0.1678599999999999,-1.25132,-0.858091065,0.470274675,0.11047335
1764504866.558302,-1.9075,0.1678599999999999,-1.25132,-0.858091065,0.470274675,0.11047335
1764504866.558302,-1.9075,0.1678599999999999,-1.25132,-0.858091065,0.470274675,0.11047335
1764504866.558302,-1.9075,0.1678599999999999,-1.25132,-0.858091065,0.470274675,0.11047335
1764504866.558302,-1.9075,0.1678599999999999,-1.25132,-0.858091065,0.470274675,0.11047335
1764504866.558302,-1.9075,0.1678599999999999,-1.25132,-0.858091065,0.470274675,0.11047335
1764504866.558302,-1.9075,0.1678599999999999,-1.25132,-0.858091065,0.470274675,0.11047335
1764504866.558302,-1.9075,0.1678599999999999,-1.25132,-0.858091065,0.470274675,0.11047335
1764504866.558302,-1.9075,0.1678599999999999,-1.25132,-0.858091065,0.470274675,0.11047335
1764504866.6033244,-2.22796,1.86172,-1.72438,-0.8582741700000001,0.468321555,0.11010714
1764504866.6033244,-2.22796,1.86172,-1.72438,-0.8582741700000001,0.468321555,0.11010714
1764504866.6033244,-2.22796,1.86172,-1.72438,-0.8582741700000001,0.468321555,0.11010714
1764504866.6033244,-2.22796,1.86172,-1.72438,-0.8582741700000001,0.468321555,0.11010714
1764504866.6033244,-2.22796,1.86172,-1.72438,-0.8582741700000001,0.468321555,0.11010714
1764504866.6033244,-2.22796,1.86172,-1.72438,-0.8582741700000001,0.468321555,0.11010714
1764504866.6033244,-2.22796,1.86172,-1.72438,-0.8582741700000001,0.468321555,0.11010714
1764504866.6033244,-2.22796,1.86172,-1.72438,-0.8582741700000001,0.468321555,0.11010714
1764504866.6033244,-2.22796,1.86172,-1.72438,-0.8582741700000001,0.468321555,0.11010714
1764504866.6033244,-2.22796,1.86172,-1.72438,-0.8582741700000001,0.468321555,0.11010714
1764504866.6033244,-3.00622,1.23606,-1.2055399999999998,-0.8593117650000001,0.469053975,0.10729953
1764504866.6033244,-3.00622,1.23606,-1.2055399999999998,-0.8593117650000001,0.469053975,0.10729953
1764504866.6033244,-3.00622,1.23606,-1.2055399999999998,-0.8593117650000001,0.469053975,0.10729953
1764504866.6033244,-3.00622,1.23606,-1.2055399999999998,-0.8593117650000001,0.469053975,0.10729953
1764504866.6033244,-3.00622,1.23606,-1.2055399999999998,-0.8593117650000001,0.469053975,0.10729953
1764504866.6033244,-3.00622,1.23606,-1.2055399999999998,-0.8593117650000001,0.469053975,0.10729953
1764504866.6033244,-3.00622,1.23606,-1.2055399999999998,-0.8593117650000001,0.469053975,0.10729953
1764504866.6033244,-3.00622,1.23606,-1.2055399999999998,-0.8593117650000001,0.469053975,0.10729953
1764504866.6033244,-3.00622,1.23606,-1.2055399999999998,-0.8593117650000001,0.469053975,0.10729953
1764504866.6033244,-3.00622,1.23606,-1.2055399999999998,-0.8593117650000001,0.469053975,0.10729953
1764504866.6043422,-2.289,-0.6409199999999999,-0.09156,-0.858091065,0.472960215,0.107482635
1764504866.6043422,-2.289,-0.6409199999999999,-0.09156,-0.858091065,0.472960215,0.107482635
1764504866.6043422,-2.289,-0.6409199999999999,-0.09156,-0.858091065,0.472960215,0.107482635
1764504866.6043422,-2.289,-0.6409199999999999,-0.09156,-0.858091065,0.472960215,0.107482635
1764504866.6512687,-2.289,-0.6409199999999999,-0.09156,-0.858091065,0.472960215,0.107482635
1764504866.6512687,-2.289,-0.6409199999999999,-0.09156,-0.858091065,0.472960215,0.107482635
1764504866.6512687,-2.289,-0.6409199999999999,-0.09156,-0.858091065,0.472960215,0.107482635
1764504866.6512687,-2.289,-0.6409199999999999,-0.09156,-0.858091065,0.472960215,0.107482635
1764504866.6512687,-2.289,-0.6409199999999999,-0.09156,-0.858091065,0.472960215,0.107482635
1764504866.6512687,-2.289,-0.6409199999999999,-0.09156,-0.858091065,0.472960215,0.107482635
1764504866.6512687,-2.65524,-0.4578,0.1525999999999999,-0.856870365,0.47668335,0.10949679
1764504866.6512687,-2.65524,-0.4578,0.1525999999999999,-0.856870365,0.47668335,0.10949679
1764504866.6512687,-2.65524,-0.4578,0.1525999999999999,-0.856870365,0.47668335,0.10949679
1764504866.6512687,-2.65524,-0.4578,0.1525999999999999,-0.856870365,0.47668335,0.10949679
1764504866.6512687,-2.65524,-0.4578,0.1525999999999999,-0.856870365,0.47668335,0.10949679
1764504866.6512687,-2.65524,-0.4578,0.1525999999999999,-0.856870365,0.47668335,0.10949679
1764504866.6512687,-2.65524,-0.4578,0.1525999999999999,-0.856870365,0.47668335,0.10949679
1764504866.6512687,-2.65524,-0.4578,0.1525999999999999,-0.856870365,0.47668335,0.10949679
1764504866.6512687,-2.65524,-0.4578,0.1525999999999999,-0.856870365,0.47668335,0.10949679
1764504866.6512687,-2.65524,-0.4578,0.1525999999999999,-0.856870365,0.47668335,0.10949679
1764504866.6512687,-3.69292,0.97664,0.56462,-0.8557107,0.47900268,0.11047335
1764504866.6512687,-3.69292,0.97664,0.56462,-0.8557107,0.47900268,0.11047335
1764504866.6512687,-3.69292,0.97664,0.56462,-0.8557107,0.47900268,0.11047335
1764504866.6512687,-3.69292,0.97664,0.56462,-0.8557107,0.47900268,0.11047335
1764504866.6512687,-3.69292,0.97664,0.56462,-0.8557107,0.47900268,0.11047335
1764504866.6512687,-3.69292,0.97664,0.56462,-0.8557107,0.47900268,0.11047335
1764504866.6962156,-3.69292,0.97664,0.56462,-0.8557107,0.47900268,0.11047335
1764504866.6962156,-3.69292,0.97664,0.56462,-0.8557107,0.47900268,0.11047335
1764504866.6962156,-3.69292,0.97664,0.56462,-0.8557107,0.47900268,0.11047335
1764504866.6962156,-3.69292,0.97664,0.56462,-0.8557107,0.47900268,0.11047335
1764504866.6962156,-5.66146,1.89224,0.8087799999999999,-0.8551003500000001,0.478819575,0.110168175
1764504866.6962156,-5.66146,1.89224,0.8087799999999999,-0.8551003500000001,0.478819575,0.110168175
1764504866.6962156,-5.66146,1.89224,0.8087799999999999,-0.8551003500000001,0.478819575,0.110168175
1764504866.6962156,-5.66146,1.89224,0.8087799999999999,-0.8551003500000001,0.478819575,0.110168175
1764504866.6962156,-5.66146,1.89224,0.8087799999999999,-0.8551003500000001,0.478819575,0.110168175
1764504866.6962156,-5.66146,1.89224,0.8087799999999999,-0.8551003500000001,0.478819575,0.110168175
1764504866.6962156,-5.66146,1.89224,0.8087799999999999,-0.8551003500000001,0.478819575,0.110168175
1764504866.6962156,-5.66146,1.89224,0.8087799999999999,-0.8551003500000001,0.478819575,0.110168175
1764504866.6962156,-5.66146,1.89224,0.8087799999999999,-0.8551003500000001,0.478819575,0.110168175
1764504866.6962156,-5.66146,1.89224,0.8087799999999999,-0.8551003500000001,0.478819575,0.110168175
1764504866.6962156,-6.76018,1.3734,0.9919,-0.85546656,0.47704956,0.10998507
1764504866.6962156,-6.76018,1.3734,0.9919,-0.85546656,0.47704956,0.10998507
1764504866.6962156,-6.76018,1.3734,0.9919,-0.85546656,0.47704956,0.10998507
1764504866.6962156,-6.76018,1.3734,0.9919,-0.85546656,0.47704956,0.10998507
1764504866.6962156,-6.76018,1.3734,0.9919,-0.85546656,0.47704956,0.10998507
1764504866.6962156,-6.76018,1.3734,0.9919,-0.85546656,0.47704956,0.10998507
1764504866.6962156,-6.76018,1.3734,0.9919,-0.85546656,0.47704956,0.10998507
1764504866.6962156,-6.76018,1.3734,0.9919,-0.85546656,0.47704956,0.10998507
1764504866.6962156,-6.76018,1.3734,0.9919,-0.85546656,0.47704956,0.10998507
1764504866.6962156,-6.76018,1.3734,0.9919,-0.85546656,0.47704956,0.10998507
1764504866.742723,-5.66146,1.25132,0.8087799999999999,-0.85644312,0.474425055,0.109863
1764504866.742723,-5.66146,1.25132,0.8087799999999999,-0.85644312,0.474425055,0.109863
1764504866.742723,-5.66146,1.25132,0.8087799999999999,-0.85644312,0.474425055,0.109863
1764504866.742723,-5.66146,1.25132,0.8087799999999999,-0.85644312,0.474425055,0.109863
1764504866.743735,-5.66146,1.25132,0.8087799999999999,-0.85644312,0.474425055,0.109863
1764504866.743735,-5.66146,1.25132,0.8087799999999999,-0.85644312,0.474425055,0.109863
1764504866.743735,-5.66146,1.25132,0.8087799999999999,-0.85644312,0.474425055,0.109863
1764504866.7447338,-5.66146,1.25132,0.8087799999999999,-0.85644312,0.474425055,0.109863
1764504866.7447338,-5.66146,1.25132,0.8087799999999999,-0.85644312,0.474425055,0.109863
1764504866.7447338,-5.66146,1.25132,0.8087799999999999,-0.85644312,0.474425055,0.109863
1764504866.7447338,-4.36436,1.17502,0.39676,-0.857968995,0.472471935,0.109557825
1764504866.7447338,-4.36436,1.17502,0.39676,-0.857968995,0.472471935,0.109557825
1764504866.7457345,-4.36436,1.17502,0.39676,-0.857968995,0.472471935,0.109557825
1764504866.7457345,-4.36436,1.17502,0.39676,-0.857968995,0.472471935,0.109557825
1764504866.7467475,-4.36436,1.17502,0.39676,-0.857968995,0.472471935,0.109557825
1764504866.7467475,-4.36436,1.17502,0.39676,-0.857968995,0.472471935,0.109557825
1764504866.7467475,-4.36436,1.17502,0.39676,-0.857968995,0.472471935,0.109557825
1764504866.7467475,-4.36436,1.17502,0.39676,-0.857968995,0.472471935,0.109557825
1764504866.7467475,-4.36436,1.17502,0.39676,-0.857968995,0.472471935,0.109557825
1764504866.7467475,-4.36436,1.17502,0.39676,-0.857968995,0.472471935,0.109557825
1764504866.7467475,-3.5861,0.9156,0.3204599999999999,-0.85925073,0.471129165,0.109679895
1764504866.7467475,-3.5861,0.9156,0.3204599999999999,-0.85925073,0.471129165,0.109679895
1764504866.7467475,-3.5861,0.9156,0.3204599999999999,-0.85925073,0.471129165,0.109679895
1764504866.7467475,-3.5861,0.9156,0.3204599999999999,-0.85925073,0.471129165,0.109679895
1764504866.7863233,-3.5861,0.9156,0.3204599999999999,-0.85925073,0.471129165,0.109679895
1764504866.7873657,-3.5861,0.9156,0.3204599999999999,-0.85925073,0.471129165,0.109679895
1764504866.7873657,-3.5861,0.9156,0.3204599999999999,-0.85925073,0.471129165,0.109679895
1764504866.7873657,-3.5861,0.9156,0.3204599999999999,-0.85925073,0.471129165,0.109679895
1764504866.7873657,-3.5861,0.9156,0.3204599999999999,-0.85925073,0.471129165,0.109679895
1764504866.7873657,-3.5861,0.9156,0.3204599999999999,-0.85925073,0.471129165,0.109679895
1764504866.7873657,-3.64714,1.00716,0.5341,-0.858823485,0.471251235,0.10974093
1764504866.7873657,-3.64714,1.00716,0.5341,-0.858823485,0.471251235,0.10974093
1764504866.7873657,-3.64714,1.00716,0.5341,-0.858823485,0.471251235,0.10974093
1764504866.7873657,-3.64714,1.00716,0.5341,-0.858823485,0.471251235,0.10974093
1764504866.7873657,-3.64714,1.00716,0.5341,-0.858823485,0.471251235,0.10974093
1764504866.7873657,-3.64714,1.00716,0.5341,-0.858823485,0.471251235,0.10974093
1764504866.7873657,-3.64714,1.00716,0.5341,-0.858823485,0.471251235,0.10974093
1764504866.788366,-3.64714,1.00716,0.5341,-0.858823485,0.471251235,0.10974093
1764504866.788366,-3.64714,1.00716,0.5341,-0.858823485,0.471251235,0.10974093
1764504866.788366,-3.64714,1.00716,0.5341,-0.858823485,0.471251235,0.10974093
1764504866.788366,-3.76922,0.62566,0.8698199999999999,-0.8581521,0.473448495,0.109801965
1764504866.788366,-3.76922,0.62566,0.8698199999999999,-0.8581521,0.473448495,0.109801965
1764504866.788366,-3.76922,0.62566,0.8698199999999999,-0.8581521,0.473448495,0.109801965
1764504866.788366,-3.76922,0.62566,0.8698199999999999,-0.8581521,0.473448495,0.109801965
1764504866.788366,-3.76922,0.62566,0.8698199999999999,-0.8581521,0.473448495,0.109801965
1764504866.788366,-3.76922,0.62566,0.8698199999999999,-0.8581521,0.473448495,0.109801965
1764504866.8349102,-3.76922,0.62566,0.8698199999999999,-0.8581521,0.473448495,0.109801965
1764504866.8349102,-3.76922,0.62566,0.8698199999999999,-0.8581521,0.473448495,0.109801965
1764504866.8349102,-3.76922,0.62566,0.8698199999999999,-0.8581521,0.473448495,0.109801965
1764504866.8349102,-3.76922,0.62566,0.8698199999999999,-0.8581521,0.473448495,0.109801965
1764504866.8349102,-4.18124,0.54936,1.08346,-0.8582741700000001,0.474791265,0.11047335
1764504866.8349102,-4.18124,0.54936,1.08346,-0.8582741700000001,0.474791265,0.11047335
1764504866.8349102,-4.18124,0.54936,1.08346,-0.8582741700000001,0.474791265,0.11047335
1764504866.8349102,-4.18124,0.54936,1.08346,-0.8582741700000001,0.474791265,0.11047335
1764504866.8349102,-4.18124,0.54936,1.08346,-0.8582741700000001,0.474791265,0.11047335
1764504866.8349102,-4.18124,0.54936,1.08346,-0.8582741700000001,0.474791265,0.11047335
1764504866.8349102,-4.18124,0.54936,1.08346,-0.8582741700000001,0.474791265,0.11047335
1764504866.8349102,-4.18124,0.54936,1.08346,-0.8582741700000001,0.474791265,0.11047335
1764504866.8349102,-4.18124,0.54936,1.08346,-0.8582741700000001,0.474791265,0.11047335
1764504866.8349102,-4.18124,0.54936,1.08346,-0.8582741700000001,0.474791265,0.11047335
1764504866.8359256,-5.52412,1.05294,0.65618,-0.858213135,0.47534058,0.11083956
1764504866.8359256,-5.52412,1.05294,0.65618,-0.858213135,0.47534058,0.11083956
1764504866.8359256,-5.52412,1.05294,0.65618,-0.858213135,0.47534058,0.11083956
1764504866.8359256,-5.52412,1.05294,0.65618,-0.858213135,0.47534058,0.11083956
1764504866.8359256,-5.52412,1.05294,0.65618,-0.858213135,0.47534058,0.11083956
1764504866.8359256,-5.52412,1.05294,0.65618,-0.858213135,0.47534058,0.11083956
1764504866.8359256,-5.52412,1.05294,0.65618,-0.858213135,0.47534058,0.11083956
1764504866.8359256,-5.52412,1.05294,0.65618,-0.858213135,0.47534058,0.11083956
1764504866.8359256,-5.52412,1.05294,0.65618,-0.858213135,0.47534058,0.11083956
1764504866.8359256,-5.52412,1.05294,0.65618,-0.858213135,0.47534058,0.11083956
1764504866.884635,-6.134519999999999,1.32762,0.50358,-0.8577248550000001,0.474669195,0.11071749
1764504866.884635,-6.134519999999999,1.32762,0.50358,-0.8577248550000001,0.474669195,0.11071749
1764504866.884635,-6.134519999999999,1.32762,0.50358,-0.8577248550000001,0.474669195,0.11071749
1764504866.884635,-6.134519999999999,1.32762,0.50358,-0.8577248550000001,0.474669195,0.11071749
1764504866.884635,-6.134519999999999,1.32762,0.50358,-0.8577248550000001,0.474669195,0.11071749
1764504866.884635,-6.134519999999999,1.32762,0.50358,-0.8577248550000001,0.474669195,0.11071749
1764504866.884635,-6.134519999999999,1.32762,0.50358,-0.8577248550000001,0.474669195,0.11071749
1764504866.884635,-6.134519999999999,1.32762,0.50358,-0.8577248550000001,0.474669195,0.11071749
1764504866.884635,-6.134519999999999,1.32762,0.50358,-0.8577248550000001,0.474669195,0.11071749
1764504866.884635,-6.134519999999999,1.32762,0.50358,-0.8577248550000001,0.474669195,0.11071749
1764504866.884635,-6.42446,1.64808,0.41202,-0.85790796,0.47375367,0.110412315
1764504866.884635,-6.42446,1.64808,0.41202,-0.85790796,0.47375367,0.110412315
1764504866.8856397,-6.42446,1.64808,0.41202,-0.85790796,0.47375367,0.110412315
1764504866.8856397,-6.42446,1.64808,0.41202,-0.85790796,0.47375367,0.110412315
1764504866.8856397,-6.42446,1.64808,0.41202,-0.85790796,0.47375367,0.110412315
1764504866.8856397,-6.42446,1.64808,0.41202,-0.85790796,0.47375367,0.110412315
1764504866.8856397,-6.42446,1.64808,0.41202,-0.85790796,0.47375367,0.110412315
1764504866.8856397,-6.42446,1.64808,0.41202,-0.85790796,0.47375367,0.110412315
1764504866.8856397,-6.42446,1.64808,0.41202,-0.85790796,0.47375367,0.110412315
1764504866.8856397,-6.42446,1.64808,0.41202,-0.85790796,0.47375367,0.110412315
1764504866.8856397,-5.58516,1.35814,0.65618,-0.8587624500000001,0.472960215,0.110656455
1764504866.8856397,-5.58516,1.35814,0.65618,-0.8587624500000001,0.472960215,0.110656455
1764504866.8856397,-5.58516,1.35814,0.65618,-0.8587624500000001,0.472960215,0.110656455
1764504866.8856397,-5.58516,1.35814,0.65618,-0.8587624500000001,0.472960215,0.110656455
1764504866.929871,-5.58516,1.35814,0.65618,-0.8587624500000001,0.472960215,0.110656455
1764504866.929871,-5.58516,1.35814,0.65618,-0.8587624500000001,0.472960215,0.110656455
1764504866.929871,-5.58516,1.35814,0.65618,-0.8587624500000001,0.472960215,0.110656455
1764504866.929871,-5.58516,1.35814,0.65618,-0.8587624500000001,0.472960215,0.110656455
1764504866.929871,-5.58516,1.35814,0.65618,-0.8587624500000001,0.472960215,0.110656455
1764504866.929871,-5.58516,1.35814,0.65618,-0.8587624500000001,0.472960215,0.110656455
1764504866.929871,-5.14262,1.00716,0.71722,-0.85888452,0.47253297,0.109069545
1764504866.929871,-5.14262,1.00716,0.71722,-0.85888452,0.47253297,0.109069545
1764504866.929871,-5.14262,1.00716,0.71722,-0.85888452,0.47253297,0.109069545
1764504866.929871,-5.14262,1.00716,0.71722,-0.85888452,0.47253297,0.109069545
1764504866.929871,-5.14262,1.00716,0.71722,-0.85888452,0.47253297,0.109069545
1764504866.929871,-5.14262,1.00716,0.71722,-0.85888452,0.47253297,0.109069545
1764504866.9305658,-5.14262,1.00716,0.71722,-0.85888452,0.47253297,0.109069545
1764504866.9305658,-5.14262,1.00716,0.71722,-0.85888452,0.47253297,0.109069545
1764504866.9305658,-5.14262,1.00716,0.71722,-0.85888452,0.47253297,0.109069545
1764504866.9305658,-5.14262,1.00716,0.71722,-0.85888452,0.47253297,0.109069545
1764504866.9305658,-3.90656,1.12924,0.73248,-0.859067625,0.47192262,0.10876437
1764504866.9320765,-3.90656,1.12924,0.73248,-0.859067625,0.47192262,0.10876437
1764504866.9320765,-3.90656,1.12924,0.73248,-0.859067625,0.47192262,0.10876437
1764504866.9320765,-3.90656,1.12924,0.73248,-0.859067625,0.47192262,0.10876437
1764504866.9329689,-3.90656,1.12924,0.73248,-0.859067625,0.47192262,0.10876437
1764504866.9329689,-3.90656,1.12924,0.73248,-0.859067625,0.47192262,0.10876437
1764504866.9768367,-3.90656,1.12924,0.73248,-0.859067625,0.47192262,0.10876437
1764504866.9768367,-3.90656,1.12924,0.73248,-0.859067625,0.47192262,0.10876437
1764504866.9768367,-3.90656,1.12924,0.73248,-0.859067625,0.47192262,0.10876437
1764504866.9768367,-3.90656,1.12924,0.73248,-0.859067625,0.47192262,0.10876437
1764504866.9768367,-3.6624,0.44254,0.9919,-0.859555905,0.472105725,0.10925265
1764504866.9768367,-3.6624,0.44254,0.9919,-0.859555905,0.472105725,0.10925265
1764504866.9768367,-3.6624,0.44254,0.9919,-0.859555905,0.472105725,0.10925265
1764504866.9768367,-3.6624,0.44254,0.9919,-0.859555905,0.472105725,0.10925265
1764504866.9768367,-3.6624,0.44254,0.9919,-0.859555905,0.472105725,0.10925265
1764504866.9768367,-3.6624,0.44254,0.9919,-0.859555905,0.472105725,0.10925265
1764504866.9768367,-3.6624,0.44254,0.9919,-0.859555905,0.472105725,0.10925265
1764504866.9768367,-3.6624,0.44254,0.9919,-0.859555905,0.472105725,0.10925265
1764504866.9768367,-3.6624,0.44254,0.9919,-0.859555905,0.472105725,0.10925265
1764504866.9768367,-3.6624,0.44254,0.9919,-0.859555905,0.472105725,0.10925265
1764504866.9768367,-3.67766,0.4578,1.03768,-0.859555905,0.47302125,0.11047335
1764504866.9768367,-3.67766,0.4578,1.03768,-0.859555905,0.47302125,0.11047335
1764504866.9768367,-3.67766,0.4578,1.03768,-0.859555905,0.47302125,0.11047335
1764504866.9768367,-3.67766,0.4578,1.03768,-0.859555905,0.47302125,0.11047335
1764504866.9768367,-3.67766,0.4578,1.03768,-0.859555905,0.47302125,0.11047335
1764504866.9768367,-3.67766,0.4578,1.03768,-0.859555905,0.47302125,0.11047335
1764504866.9768367,-3.67766,0.4578,1.03768,-0.859555905,0.47302125,0.11047335
1764504866.9768367,-3.67766,0.4578,1.03768,-0.859555905,0.47302125,0.11047335
1764504866.9768367,-3.67766,0.4578,1.03768,-0.859555905,0.47302125,0.11047335
1764504866.9768367,-3.67766,0.4578,1.03768,-0.859555905,0.47302125,0.11047335
1764504867.020367,-4.24228,0.5341,0.8698199999999999,-0.85961694,0.473936775,0.110656455
1764504867.0209818,-4.24228,0.5341,0.8698199999999999,-0.85961694,0.473936775,0.110656455
1764504867.0209818,-4.24228,0.5341,0.8698199999999999,-0.85961694,0.473936775,0.110656455
1764504867.0209818,-4.24228,0.5341,0.8698199999999999,-0.85961694,0.473936775,0.110656455
1764504867.0209818,-4.24228,0.5341,0.8698199999999999,-0.85961694,0.473936775,0.110656455
1764504867.0209818,-4.24228,0.5341,0.8698199999999999,-0.85961694,0.473936775,0.110656455
1764504867.0209818,-4.24228,0.5341,0.8698199999999999,-0.85961694,0.473936775,0.110656455
1764504867.0209818,-4.24228,0.5341,0.8698199999999999,-0.85961694,0.473936775,0.110656455
1764504867.0231776,-4.24228,0.5341,0.8698199999999999,-0.85961694,0.473936775,0.110656455
1764504867.0231776,-4.24228,0.5341,0.8698199999999999,-0.85961694,0.473936775,0.110656455
1764504867.0231776,-4.39488,1.00716,0.8698199999999999,-0.85998315,0.475157475,0.11010714
1764504867.0231776,-4.39488,1.00716,0.8698199999999999,-0.85998315,0.475157475,0.11010714
1764504867.0231776,-4.39488,1.00716,0.8698199999999999,-0.85998315,0.475157475,0.11010714
1764504867.0231776,-4.39488,1.00716,0.8698199999999999,-0.85998315,0.475157475,0.11010714
1764504867.0231776,-4.39488,1.00716,0.8698199999999999,-0.85998315,0.475157475,0.11010714
1764504867.0231776,-4.39488,1.00716,0.8698199999999999,-0.85998315,0.475157475,0.11010714
1764504867.0231776,-4.39488,1.00716,0.8698199999999999,-0.85998315,0.475157475,0.11010714
1764504867.0231776,-4.39488,1.00716,0.8698199999999999,-0.85998315,0.475157475,0.11010714
1764504867.0231776,-4.39488,1.00716,0.8698199999999999,-0.85998315,0.475157475,0.11010714
1764504867.0231776,-4.39488,1.00716,0.8698199999999999,-0.85998315,0.475157475,0.11010714
1764504867.0231776,-4.15072,0.06104,0.21364,-0.858457275,0.47570679,0.111266805
1764504867.0231776,-4.15072,0.06104,0.21364,-0.858457275,0.47570679,0.111266805
1764504867.0231776,-4.15072,0.06104,0.21364,-0.858457275,0.47570679,0.111266805
1764504867.0231776,-4.15072,0.06104,0.21364,-0.858457275,0.47570679,0.111266805
1764504867.0686717,-4.15072,0.06104,0.21364,-0.858457275,0.47570679,0.111266805
1764504867.0686717,-4.15072,0.06104,0.21364,-0.858457275,0.47570679,0.111266805
1764504867.070688,-4.15072,0.06104,0.21364,-0.858457275,0.47570679,0.111266805
1764504867.070688,-4.15072,0.06104,0.21364,-0.858457275,0.47570679,0.111266805
1764504867.070688,-4.15072,0.06104,0.21364,-0.858457275,0.47570679,0.111266805
1764504867.070688,-4.15072,0.06104,0.21364,-0.858457275,0.47570679,0.111266805
1764504867.070688,-3.87604,0.3815,-0.25942,-0.85522242,0.47497437,0.113097855
1764504867.070688,-3.87604,0.3815,-0.25942,-0.85522242,0.47497437,0.113097855
1764504867.070688,-3.87604,0.3815,-0.25942,-0.85522242,0.47497437,0.113097855
1764504867.070688,-3.87604,0.3815,-0.25942,-0.85522242,0.47497437,0.113097855
1764504867.070688,-3.87604,0.3815,-0.25942,-0.85522242,0.47497437,0.113097855
1764504867.070688,-3.87604,0.3815,-0.25942,-0.85522242,0.47497437,0.113097855
1764504867.070688,-3.87604,0.3815,-0.25942,-0.85522242,0.47497437,0.113097855
1764504867.070688,-3.87604,0.3815,-0.25942,-0.85522242,0.47497437,0.113097855
1764504867.070688,-3.87604,0.3815,-0.25942,-0.85522242,0.47497437,0.113097855
1764504867.070688,-3.87604,0.3815,-0.25942,-0.85522242,0.47497437,0.113097855
1764504867.0717015,-4.440659999999999,1.43444,0.21364,-0.854306895,0.474669195,0.112365435
1764504867.0722349,-4.440659999999999,1.43444,0.21364,-0.854306895,0.474669195,0.112365435
1764504867.0722349,-4.440659999999999,1.43444,0.21364,-0.854306895,0.474669195,0.112365435
1764504867.0722349,-4.440659999999999,1.43444,0.21364,-0.854306895,0.474669195,0.112365435
1764504867.0722349,-4.440659999999999,1.43444,0.21364,-0.854306895,0.474669195,0.112365435
1764504867.0722349,-4.440659999999999,1.43444,0.21364,-0.854306895,0.474669195,0.112365435
1764504867.117449,-4.440659999999999,1.43444,0.21364,-0.854306895,0.474669195,0.112365435
1764504867.1184456,-4.440659999999999,1.43444,0.21364,-0.854306895,0.474669195,0.112365435
1764504867.1184456,-4.440659999999999,1.43444,0.21364,-0.854306895,0.474669195,0.112365435
1764504867.1184456,-4.440659999999999,1.43444,0.21364,-0.854306895,0.474669195,0.112365435
1764504867.1184456,-5.24944,1.6786,1.2055399999999998,-0.85717554,0.477232665,0.109863
1764504867.1184456,-5.24944,1.6786,1.2055399999999998,-0.85717554,0.477232665,0.109863
1764504867.1184456,-5.24944,1.6786,1.2055399999999998,-0.85717554,0.477232665,0.109863
1764504867.1184456,-5.24944,1.6786,1.2055399999999998,-0.85717554,0.477232665,0.109863
1764504867.1184456,-5.24944,1.6786,1.2055399999999998,-0.85717554,0.477232665,0.109863
1764504867.1184456,-5.24944,1.6786,1.2055399999999998,-0.85717554,0.477232665,0.109863
1764504867.1184456,-5.24944,1.6786,1.2055399999999998,-0.85717554,0.477232665,0.109863
1764504867.1184456,-5.24944,1.6786,1.2055399999999998,-0.85717554,0.477232665,0.109863
1764504867.1184456,-5.24944,1.6786,1.2055399999999998,-0.85717554,0.477232665,0.109863
1764504867.1184456,-5.24944,1.6786,1.2055399999999998,-0.85717554,0.477232665,0.109863
1764504867.1184456,-5.20366,-0.3357199999999999,0.62566,-0.859067625,0.479551995,0.10974093
1764504867.1184456,-5.20366,-0.3357199999999999,0.62566,-0.859067625,0.479551995,0.10974093
1764504867.1189518,-5.20366,-0.3357199999999999,0.62566,-0.859067625,0.479551995,0.10974093
1764504867.1189518,-5.20366,-0.3357199999999999,0.62566,-0.859067625,0.479551995,0.10974093
1764504867.1189518,-5.20366,-0.3357199999999999,0.62566,-0.859067625,0.479551995,0.10974093
1764504867.1189518,-5.20366,-0.3357199999999999,0.62566,-0.859067625,0.479551995,0.10974093
1764504867.1189518,-5.20366,-0.3357199999999999,0.62566,-0.859067625,0.479551995,0.10974093
1764504867.1189518,-5.20366,-0.3357199999999999,0.62566,-0.859067625,0.479551995,0.10974093
1764504867.1189518,-5.20366,-0.3357199999999999,0.62566,-0.859067625,0.479551995,0.10974093
1764504867.1189518,-5.20366,-0.3357199999999999,0.62566,-0.859067625,0.479551995,0.10974093
1764504867.1632226,-5.15788,0.1525999999999999,-0.71722,-0.8598000450000001,0.47790405,0.11144991
1764504867.1632226,-5.15788,0.1525999999999999,-0.71722,-0.8598000450000001,0.47790405,0.11144991
1764504867.1632226,-5.15788,0.1525999999999999,-0.71722,-0.8598000450000001,0.47790405,0.11144991
1764504867.1642232,-5.15788,0.1525999999999999,-0.71722,-0.8598000450000001,0.47790405,0.11144991
1764504867.1642232,-5.15788,0.1525999999999999,-0.71722,-0.8598000450000001,0.47790405,0.11144991
1764504867.1642232,-5.15788,0.1525999999999999,-0.71722,-0.8598000450000001,0.47790405,0.11144991
1764504867.1642232,-5.15788,0.1525999999999999,-0.71722,-0.8598000450000001,0.47790405,0.11144991
1764504867.165231,-5.15788,0.1525999999999999,-0.71722,-0.8598000450000001,0.47790405,0.11144991
1764504867.165231,-5.15788,0.1525999999999999,-0.71722,-0.8598000450000001,0.47790405,0.11144991
1764504867.165231,-5.15788,0.1525999999999999,-0.71722,-0.8598000450000001,0.47790405,0.11144991
1764504867.165231,-5.17314,0.8087799999999999,-0.27468,-0.859677975,0.47350953,0.11303682
1764504867.165231,-5.17314,0.8087799999999999,-0.27468,-0.859677975,0.47350953,0.11303682
1764504867.165231,-5.17314,0.8087799999999999,-0.27468,-0.859677975,0.47350953,0.11303682
1764504867.165231,-5.17314,0.8087799999999999,-0.27468,-0.859677975,0.47350953,0.11303682
1764504867.1662216,-5.17314,0.8087799999999999,-0.27468,-0.859677975,0.47350953,0.11303682
1764504867.1662216,-5.17314,0.8087799999999999,-0.27468,-0.859677975,0.47350953,0.11303682
1764504867.1662216,-5.17314,0.8087799999999999,-0.27468,-0.859677975,0.47350953,0.11303682
1764504867.1662216,-5.17314,0.8087799999999999,-0.27468,-0.859677975,0.47350953,0.11303682
1764504867.1662216,-5.17314,0.8087799999999999,-0.27468,-0.859677975,0.47350953,0.11303682
1764504867.1662216,-5.17314,0.8087799999999999,-0.27468,-0.859677975,0.47350953,0.11303682
1764504867.1672206,-4.56274,1.02242,1.25132,-0.85949487,0.47180055,0.11206026
1764504867.1672206,-4.56274,1.02242,1.25132,-0.85949487,0.47180055,0.11206026
1764504867.1672206,-4.56274,1.02242,1.25132,-0.85949487,0.47180055,0.11206026
1764504867.1672206,-4.56274,1.02242,1.25132,-0.85949487,0.47180055,0.11206026
1764504867.2079394,-4.56274,1.02242,1.25132,-0.85949487,0.47180055,0.11206026
1764504867.2079394,-4.56274,1.02242,1.25132,-0.85949487,0.47180055,0.11206026
1764504867.2079394,-4.56274,1.02242,1.25132,-0.85949487,0.47180055,0.11206026
1764504867.2079394,-4.56274,1.02242,1.25132,-0.85949487,0.47180055,0.11206026
1764504867.2079394,-4.56274,1.02242,1.25132,-0.85949487,0.47180055,0.11206026
1764504867.2079394,-4.56274,1.02242,1.25132,-0.85949487,0.47180055,0.11206026
1764504867.2079394,-4.4254,0.9003399999999999,1.3734,-0.858823485,0.471251235,0.111755085
1764504867.2079394,-4.4254,0.9003399999999999,1.3734,-0.858823485,0.471251235,0.111755085
1764504867.2079394,-4.4254,0.9003399999999999,1.3734,-0.858823485,0.471251235,0.111755085
1764504867.2079394,-4.4254,0.9003399999999999,1.3734,-0.858823485,0.471251235,0.111755085
1764504867.2079394,-4.4254,0.9003399999999999,1.3734,-0.858823485,0.471251235,0.111755085
1764504867.2084718,-4.4254,0.9003399999999999,1.3734,-0.858823485,0.471251235,0.111755085
1764504867.2084718,-4.4254,0.9003399999999999,1.3734,-0.858823485,0.471251235,0.111755085
1764504867.2084718,-4.4254,0.9003399999999999,1.3734,-0.858823485,0.471251235,0.111755085
1764504867.2084718,-4.4254,0.9003399999999999,1.3734,-0.858823485,0.471251235,0.111755085
1764504867.2084718,-4.4254,0.9003399999999999,1.3734,-0.858823485,0.471251235,0.111755085
1764504867.2084718,-4.1965,1.2208,0.3357199999999999,-0.857480715,0.47131227,0.11120577
1764504867.2084718,-4.1965,1.2208,0.3357199999999999,-0.857480715,0.47131227,0.11120577
1764504867.2084718,-4.1965,1.2208,0.3357199999999999,-0.857480715,0.47131227,0.11120577
1764504867.2084718,-4.1965,1.2208,0.3357199999999999,-0.857480715,0.47131227,0.11120577
1764504867.2084718,-4.1965,1.2208,0.3357199999999999,-0.857480715,0.47131227,0.11120577
1764504867.2084718,-4.1965,1.2208,0.3357199999999999,-0.857480715,0.47131227,0.11120577
1764504867.256864,-4.1965,1.2208,0.3357199999999999,-0.857480715,0.47131227,0.11120577
1764504867.256864,-4.1965,1.2208,0.3357199999999999,-0.857480715,0.47131227,0.11120577
1764504867.256864,-4.1965,1.2208,0.3357199999999999,-0.857480715,0.47131227,0.11120577
1764504867.256864,-4.1965,1.2208,0.3357199999999999,-0.857480715,0.47131227,0.11120577
1764504867.256864,-5.05106,1.23606,-0.06104,-0.8577248550000001,0.471983655,0.11157198
1764504867.256864,-5.05106,1.23606,-0.06104,-0.8577248550000001,0.471983655,0.11157198
1764504867.256864,-5.05106,1.23606,-0.06104,-0.8577248550000001,0.471983655,0.11157198
1764504867.256864,-5.05106,1.23606,-0.06104,-0.8577248550000001,0.471983655,0.11157198
1764504867.256864,-5.05106,1.23606,-0.06104,-0.8577248550000001,0.471983655,0.11157198
1764504867.256864,-5.05106,1.23606,-0.06104,-0.8577248550000001,0.471983655,0.11157198
1764504867.256864,-5.05106,1.23606,-0.06104,-0.8577248550000001,0.471983655,0.11157198
1764504867.256864,-5.05106,1.23606,-0.06104,-0.8577248550000001,0.471983655,0.11157198
1764504867.256864,-5.05106,1.23606,-0.06104,-0.8577248550000001,0.471983655,0.11157198
1764504867.256864,-5.05106,1.23606,-0.06104,-0.8577248550000001,0.471983655,0.11157198
1764504867.256864,-4.8832,0.12208,0.3357199999999999,-0.8582741700000001,0.47155641,0.110900595
1764504867.256864,-4.8832,0.12208,0.3357199999999999,-0.8582741700000001,0.47155641,0.110900595
1764504867.256864,-4.8832,0.12208,0.3357199999999999,-0.8582741700000001,0.47155641,0.110900595
1764504867.256864,-4.8832,0.12208,0.3357199999999999,-0.8582741700000001,0.47155641,0.110900595
1764504867.256864,-4.8832,0.12208,0.3357199999999999,-0.8582741700000001,0.47155641,0.110900595
1764504867.256864,-4.8832,0.12208,0.3357199999999999,-0.8582741700000001,0.47155641,0.110900595
1764504867.256864,-4.8832,0.12208,0.3357199999999999,-0.8582741700000001,0.47155641,0.110900595
1764504867.256864,-4.8832,0.12208,0.3357199999999999,-0.8582741700000001,0.47155641,0.110900595
1764504867.256864,-4.8832,0.12208,0.3357199999999999,-0.8582741700000001,0.47155641,0.110900595
1764504867.256864,-4.8832,0.12208,0.3357199999999999,-0.8582741700000001,0.47155641,0.110900595
1764504867.3005111,-3.29616,-0.18312,0.79352,-0.85851831,0.471739515,0.109801965
1764504867.3005111,-3.29616,-0.18312,0.79352,-0.85851831,0.471739515,0.109801965
1764504867.3005111,-3.29616,-0.18312,0.79352,-0.85851831,0.471739515,0.109801965
1764504867.3005111,-3.29616,-0.18312,0.79352,-0.85851831,0.471739515,0.109801965
1764504867.3005111,-3.29616,-0.18312,0.79352,-0.85851831,0.471739515,0.109801965
1764504867.3005111,-3.29616,-0.18312,0.79352,-0.85851831,0.471739515,0.109801965
1764504867.3005111,-3.29616,-0.18312,0.79352,-0.85851831,0.471739515,0.109801965
1764504867.3005111,-3.29616,-0.18312,0.79352,-0.85851831,0.471739515,0.109801965
1764504867.301531,-3.29616,-0.18312,0.79352,-0.85851831,0.471739515,0.109801965
1764504867.301531,-3.29616,-0.18312,0.79352,-0.85851831,0.471739515,0.109801965
1764504867.301531,-0.7019599999999999,0.3357199999999999,1.0682,-0.85864038,0.47338746,0.109069545
1764504867.301531,-0.7019599999999999,0.3357199999999999,1.0682,-0.85864038,0.47338746,0.109069545
1764504867.301531,-0.7019599999999999,0.3357199999999999,1.0682,-0.85864038,0.47338746,0.109069545
1764504867.301531,-0.7019599999999999,0.3357199999999999,1.0682,-0.85864038,0.47338746,0.109069545
1764504867.301531,-0.7019599999999999,0.3357199999999999,1.0682,-0.85864038,0.47338746,0.109069545
1764504867.301531,-0.7019599999999999,0.3357199999999999,1.0682,-0.85864038,0.47338746,0.109069545
1764504867.301531,-0.7019599999999999,0.3357199999999999,1.0682,-0.85864038,0.47338746,0.109069545
1764504867.301531,-0.7019599999999999,0.3357199999999999,1.0682,-0.85864038,0.47338746,0.109069545
1764504867.301531,-0.7019599999999999,0.3357199999999999,1.0682,-0.85864038,0.47338746,0.109069545
1764504867.301531,-0.7019599999999999,0.3357199999999999,1.0682,-0.85864038,0.47338746,0.109069545
1764504867.301531,-0.1525999999999999,0.47306,-0.03052,-0.85851831,0.476500245,0.10974093
1764504867.301531,-0.1525999999999999,0.47306,-0.03052,-0.85851831,0.476500245,0.10974093
1764504867.301531,-0.1525999999999999,0.47306,-0.03052,-0.85851831,0.476500245,0.10974093
1764504867.301531,-0.1525999999999999,0.47306,-0.03052,-0.85851831,0.476500245,0.10974093
1764504867.349529,-0.1525999999999999,0.47306,-0.03052,-0.85851831,0.476500245,0.10974093
1764504867.3500383,-0.1525999999999999,0.47306,-0.03052,-0.85851831,0.476500245,0.10974093
1764504867.3500383,-0.1525999999999999,0.47306,-0.03052,-0.85851831,0.476500245,0.10974093
1764504867.3500383,-0.1525999999999999,0.47306,-0.03052,-0.85851831,0.476500245,0.10974093
1764504867.3500383,-0.1525999999999999,0.47306,-0.03052,-0.85851831,0.476500245,0.10974093
1764504867.3500383,-0.1525999999999999,0.47306,-0.03052,-0.85851831,0.476500245,0.10974093
1764504867.3500383,-1.38866,0.57988,-0.82404,-0.85790796,0.478453365,0.110412315
1764504867.3500383,-1.38866,0.57988,-0.82404,-0.85790796,0.478453365,0.110412315
1764504867.3500383,-1.38866,0.57988,-0.82404,-0.85790796,0.478453365,0.110412315
1764504867.3500383,-1.38866,0.57988,-0.82404,-0.85790796,0.478453365,0.110412315
1764504867.3500383,-1.38866,0.57988,-0.82404,-0.85790796,0.478453365,0.110412315
1764504867.3500383,-1.38866,0.57988,-0.82404,-0.85790796,0.478453365,0.110412315
1764504867.3500383,-1.38866,0.57988,-0.82404,-0.85790796,0.478453365,0.110412315
1764504867.3500383,-1.38866,0.57988,-0.82404,-0.85790796,0.478453365,0.110412315
1764504867.3500383,-1.38866,0.57988,-0.82404,-0.85790796,0.478453365,0.110412315
1764504867.3500383,-1.38866,0.57988,-0.82404,-0.85790796,0.478453365,0.110412315
1764504867.3500383,-3.87604,1.19028,-0.62566,-0.856015875,0.47961303,0.11083956
1764504867.3500383,-3.87604,1.19028,-0.62566,-0.856015875,0.47961303,0.11083956
1764504867.3500383,-3.87604,1.19028,-0.62566,-0.856015875,0.47961303,0.11083956
1764504867.3500383,-3.87604,1.19028,-0.62566,-0.856015875,0.47961303,0.11083956
1764504867.3505652,-3.87604,1.19028,-0.62566,-0.856015875,0.47961303,0.11083956
1764504867.3505652,-3.87604,1.19028,-0.62566,-0.856015875,0.47961303,0.11083956
1764504867.3945572,-3.87604,1.19028,-0.62566,-0.856015875,0.47961303,0.11083956
1764504867.3945572,-3.87604,1.19028,-0.62566,-0.856015875,0.47961303,0.11083956
1764504867.3945572,-3.87604,1.19028,-0.62566,-0.856015875,0.47961303,0.11083956
1764504867.3945572,-3.87604,1.19028,-0.62566,-0.856015875,0.47961303,0.11083956
1764504867.3945572,-5.69198,1.89224,1.03768,-0.85741968,0.47997924,0.110412315
1764504867.3945572,-5.69198,1.89224,1.03768,-0.85741968,0.47997924,0.110412315
1764504867.3945572,-5.69198,1.89224,1.03768,-0.85741968,0.47997924,0.110412315
1764504867.3945572,-5.69198,1.89224,1.03768,-0.85741968,0.47997924,0.110412315
1764504867.3945572,-5.69198,1.89224,1.03768,-0.85741968,0.47997924,0.110412315
1764504867.3945572,-5.69198,1.89224,1.03768,-0.85741968,0.47997924,0.110412315
1764504867.3945572,-5.69198,1.89224,1.03768,-0.85741968,0.47997924,0.110412315
1764504867.3945572,-5.69198,1.89224,1.03768,-0.85741968,0.47997924,0.110412315
1764504867.3945572,-5.69198,1.89224,1.03768,-0.85741968,0.47997924,0.110412315
1764504867.3945572,-5.69198,1.89224,1.03768,-0.85741968,0.47997924,0.110412315
1764504867.3945572,-7.90468,1.25132,0.6714399999999999,-0.85741968,0.47961303,0.110534385
1764504867.3945572,-7.90468,1.25132,0.6714399999999999,-0.85741968,0.47961303,0.110534385
1764504867.3945572,-7.90468,1.25132,0.6714399999999999,-0.85741968,0.47961303,0.110534385
1764504867.3945572,-7.90468,1.25132,0.6714399999999999,-0.85741968,0.47961303,0.110534385
1764504867.3955662,-7.90468,1.25132,0.6714399999999999,-0.85741968,0.47961303,0.110534385
1764504867.3955662,-7.90468,1.25132,0.6714399999999999,-0.85741968,0.47961303,0.110534385
1764504867.3955662,-7.90468,1.25132,0.6714399999999999,-0.85741968,0.47961303,0.110534385
1764504867.3955662,-7.90468,1.25132,0.6714399999999999,-0.85741968,0.47961303,0.110534385
1764504867.3955662,-7.90468,1.25132,0.6714399999999999,-0.85741968,0.47961303,0.110534385
1764504867.3955662,-7.90468,1.25132,0.6714399999999999,-0.85741968,0.47961303,0.110534385
1764504867.4456756,-8.91184,0.88508,-0.25942,-0.85607691,0.47717163,0.11181612
1764504867.4456756,-8.91184,0.88508,-0.25942,-0.85607691,0.47717163,0.11181612
1764504867.4456756,-8.91184,0.88508,-0.25942,-0.85607691,0.47717163,0.11181612
1764504867.4456756,-8.91184,0.88508,-0.25942,-0.85607691,0.47717163,0.11181612
1764504867.4456756,-8.91184,0.88508,-0.25942,-0.85607691,0.47717163,0.11181612
1764504867.4456756,-8.91184,0.88508,-0.25942,-0.85607691,0.47717163,0.11181612
1764504867.4456756,-8.91184,0.88508,-0.25942,-0.85607691,0.47717163,0.11181612
1764504867.4456756,-8.91184,0.88508,-0.25942,-0.85607691,0.47717163,0.11181612
1764504867.4456756,-8.91184,0.88508,-0.25942,-0.85607691,0.47717163,0.11181612
1764504867.4456756,-8.91184,0.88508,-0.25942,-0.85607691,0.47717163,0.11181612
1764504867.4456756,-9.03392,1.25132,-0.12208,-0.855893805,0.4711902,0.111144735
1764504867.4456756,-9.03392,1.25132,-0.12208,-0.855893805,0.4711902,0.111144735
1764504867.4456756,-9.03392,1.25132,-0.12208,-0.855893805,0.4711902,0.111144735
1764504867.4456756,-9.03392,1.25132,-0.12208,-0.855893805,0.4711902,0.111144735
1764504867.4456756,-9.03392,1.25132,-0.12208,-0.855893805,0.4711902,0.111144735
1764504867.4456756,-9.03392,1.25132,-0.12208,-0.855893805,0.4711902,0.111144735
1764504867.4456756,-9.03392,1.25132,-0.12208,-0.855893805,0.4711902,0.111144735
1764504867.4456756,-9.03392,1.25132,-0.12208,-0.855893805,0.4711902,0.111144735
1764504867.4456756,-9.03392,1.25132,-0.12208,-0.855893805,0.4711902,0.111144735
1764504867.4456756,-9.03392,1.25132,-0.12208,-0.855893805,0.4711902,0.111144735
1764504867.4456756,-7.507919999999999,1.03768,0.62566,-0.857480715,0.466124295,0.110534385
1764504867.4456756,-7.507919999999999,1.03768,0.62566,-0.857480715,0.466124295,0.110534385
1764504867.4456756,-7.507919999999999,1.03768,0.62566,-0.857480715,0.466124295,0.110534385
1764504867.4456756,-7.507919999999999,1.03768,0.62566,-0.857480715,0.466124295,0.110534385
1764504867.4914763,-7.507919999999999,1.03768,0.62566,-0.857480715,0.466124295,0.110534385
1764504867.4914763,-7.507919999999999,1.03768,0.62566,-0.857480715,0.466124295,0.110534385
1764504867.4914763,-7.507919999999999,1.03768,0.62566,-0.857480715,0.466124295,0.110534385
1764504867.4914763,-7.507919999999999,1.03768,0.62566,-0.857480715,0.466124295,0.110534385
1764504867.4914763,-7.507919999999999,1.03768,0.62566,-0.857480715,0.466124295,0.110534385
1764504867.4914763,-7.507919999999999,1.03768,0.62566,-0.857480715,0.466124295,0.110534385
1764504867.4914763,-3.98286,0.04578,1.32762,-0.857968995,0.463316685,0.1086423
1764504867.4914763,-3.98286,0.04578,1.32762,-0.857968995,0.463316685,0.1086423
1764504867.4914763,-3.98286,0.04578,1.32762,-0.857968995,0.463316685,0.1086423
1764504867.4924664,-3.98286,0.04578,1.32762,-0.857968995,0.463316685,0.1086423
1764504867.4924664,-3.98286,0.04578,1.32762,-0.857968995,0.463316685,0.1086423
1764504867.4924664,-3.98286,0.04578,1.32762,-0.857968995,0.463316685,0.1086423
1764504867.4924664,-3.98286,0.04578,1.32762,-0.857968995,0.463316685,0.1086423
1764504867.4924664,-3.98286,0.04578,1.32762,-0.857968995,0.463316685,0.1086423
1764504867.4924664,-3.98286,0.04578,1.32762,-0.857968995,0.463316685,0.1086423
1764504867.4924664,-3.98286,0.04578,1.32762,-0.857968995,0.463316685,0.1086423
1764504867.4924664,-0.97664,-0.6867,1.11398,-0.85864038,0.46423221,0.107970915
1764504867.4924664,-0.97664,-0.6867,1.11398,-0.85864038,0.46423221,0.107970915
1764504867.4924664,-0.97664,-0.6867,1.11398,-0.85864038,0.46423221,0.107970915
1764504867.4924664,-0.97664,-0.6867,1.11398,-0.85864038,0.46423221,0.107970915
1764504867.4924664,-0.97664,-0.6867,1.11398,-0.85864038,0.46423221,0.107970915
1764504867.4924664,-0.97664,-0.6867,1.11398,-0.85864038,0.46423221,0.107970915
1764504867.5361905,-0.97664,-0.6867,1.11398,-0.85864038,0.46423221,0.107970915
1764504867.5361905,-0.97664,-0.6867,1.11398,-0.85864038,0.46423221,0.107970915
1764504867.5361905,-0.97664,-0.6867,1.11398,-0.85864038,0.46423221,0.107970915
1764504867.5361905,-0.97664,-0.6867,1.11398,-0.85864038,0.46423221,0.107970915
1764504867.5361905,-0.763,-0.4578,0.10682,-0.858945555,0.467467065,0.10852023
1764504867.5361905,-0.763,-0.4578,0.10682,-0.858945555,0.467467065,0.10852023
1764504867.5361905,-0.763,-0.4578,0.10682,-0.858945555,0.467467065,0.10852023
1764504867.5361905,-0.763,-0.4578,0.10682,-0.858945555,0.467467065,0.10852023
1764504867.5361905,-0.763,-0.4578,0.10682,-0.858945555,0.467467065,0.10852023
1764504867.5361905,-0.763,-0.4578,0.10682,-0.858945555,0.467467065,0.10852023
1764504867.5361905,-0.763,-0.4578,0.10682,-0.858945555,0.467467065,0.10852023
1764504867.5361905,-0.763,-0.4578,0.10682,-0.858945555,0.467467065,0.10852023
1764504867.5361905,-0.763,-0.4578,0.10682,-0.858945555,0.467467065,0.10852023
1764504867.5361905,-0.763,-0.4578,0.10682,-0.858945555,0.467467065,0.10852023
1764504867.5361905,-1.61756,-0.65618,-0.19838,-0.85986108,0.4724109,0.11047335
1764504867.5361905,-1.61756,-0.65618,-0.19838,-0.85986108,0.4724109,0.11047335
1764504867.5361905,-1.61756,-0.65618,-0.19838,-0.85986108,0.4724109,0.11047335
1764504867.5361905,-1.61756,-0.65618,-0.19838,-0.85986108,0.4724109,0.11047335
1764504867.5361905,-1.61756,-0.65618,-0.19838,-0.85986108,0.4724109,0.11047335
1764504867.5361905,-1.61756,-0.65618,-0.19838,-0.85986108,0.4724109,0.11047335
1764504867.5361905,-1.61756,-0.65618,-0.19838,-0.85986108,0.4724109,0.11047335
1764504867.537228,-1.61756,-0.65618,-0.19838,-0.85986108,0.4724109,0.11047335
1764504867.537228,-1.61756,-0.65618,-0.19838,-0.85986108,0.4724109,0.11047335
1764504867.537228,-1.61756,-0.65618,-0.19838,-0.85986108,0.4724109,0.11047335
1764504867.58457,-2.9757,-0.50358,0.18312,-0.85888452,0.476073,0.11291475
1764504867.58457,-2.9757,-0.50358,0.18312,-0.85888452,0.476073,0.11291475
1764504867.5855703,-2.9757,-0.50358,0.18312,-0.85888452,0.476073,0.11291475
1764504867.5855703,-2.9757,-0.50358,0.18312,-0.85888452,0.476073,0.11291475
1764504867.5855703,-2.9757,-0.50358,0.18312,-0.85888452,0.476073,0.11291475
1764504867.5855703,-2.9757,-0.50358,0.18312,-0.85888452,0.476073,0.11291475
1764504867.5855703,-2.9757,-0.50358,0.18312,-0.85888452,0.476073,0.11291475
1764504867.5855703,-2.9757,-0.50358,0.18312,-0.85888452,0.476073,0.11291475
1764504867.5855703,-2.9757,-0.50358,0.18312,-0.85888452,0.476073,0.11291475
1764504867.5855703,-2.9757,-0.50358,0.18312,-0.85888452,0.476073,0.11291475
1764504867.5855703,-3.75396,0.9919,-0.1525999999999999,-0.856626225,0.47802612,0.11389131
1764504867.5855703,-3.75396,0.9919,-0.1525999999999999,-0.856626225,0.47802612,0.11389131
1764504867.5855703,-3.75396,0.9919,-0.1525999999999999,-0.856626225,0.47802612,0.11389131
1764504867.5855703,-3.75396,0.9919,-0.1525999999999999,-0.856626225,0.47802612,0.11389131
1764504867.5855703,-3.75396,0.9919,-0.1525999999999999,-0.856626225,0.47802612,0.11389131
1764504867.5855703,-3.75396,0.9919,-0.1525999999999999,-0.856626225,0.47802612,0.11389131
1764504867.5855703,-3.75396,0.9919,-0.1525999999999999,-0.856626225,0.47802612,0.11389131
1764504867.5855703,-3.75396,0.9919,-0.1525999999999999,-0.856626225,0.47802612,0.11389131
1764504867.5855703,-3.75396,0.9919,-0.1525999999999999,-0.856626225,0.47802612,0.11389131
1764504867.5855703,-3.75396,0.9919,-0.1525999999999999,-0.856626225,0.47802612,0.11389131
1764504867.5855703,-5.21892,1.84646,0.3815,-0.85644312,0.478697505,0.11315889
1764504867.5855703,-5.21892,1.84646,0.3815,-0.85644312,0.478697505,0.11315889
1764504867.5855703,-5.21892,1.84646,0.3815,-0.85644312,0.478697505,0.11315889
1764504867.5855703,-5.21892,1.84646,0.3815,-0.85644312,0.478697505,0.11315889
1764504867.6313813,-5.21892,1.84646,0.3815,-0.85644312,0.478697505,0.11315889
1764504867.6313813,-5.21892,1.84646,0.3815,-0.85644312,0.478697505,0.11315889
1764504867.6313813,-5.21892,1.84646,0.3815,-0.85644312,0.478697505,0.11315889
1764504867.6313813,-5.21892,1.84646,0.3815,-0.85644312,0.478697505,0.11315889
1764504867.6313813,-5.21892,1.84646,0.3815,-0.85644312,0.478697505,0.11315889
1764504867.6313813,-5.21892,1.84646,0.3815,-0.85644312,0.478697505,0.11315889
1764504867.6313813,-5.890359999999999,1.41918,0.10682,-0.85632105,0.47790405,0.11206026
1764504867.632398,-5.890359999999999,1.41918,0.10682,-0.85632105,0.47790405,0.11206026
1764504867.632398,-5.890359999999999,1.41918,0.10682,-0.85632105,0.47790405,0.11206026
1764504867.632398,-5.890359999999999,1.41918,0.10682,-0.85632105,0.47790405,0.11206026
1764504867.632398,-5.890359999999999,1.41918,0.10682,-0.85632105,0.47790405,0.11206026
1764504867.632398,-5.890359999999999,1.41918,0.10682,-0.85632105,0.47790405,0.11206026
1764504867.632398,-5.890359999999999,1.41918,0.10682,-0.85632105,0.47790405,0.11206026
1764504867.632398,-5.890359999999999,1.41918,0.10682,-0.85632105,0.47790405,0.11206026
1764504867.632398,-5.890359999999999,1.41918,0.10682,-0.85632105,0.47790405,0.11206026
1764504867.632398,-5.890359999999999,1.41918,0.10682,-0.85632105,0.47790405,0.11206026
1764504867.632398,-5.27996,0.9003399999999999,0.47306,-0.856382085,0.47668335,0.111633015
1764504867.632398,-5.27996,0.9003399999999999,0.47306,-0.856382085,0.47668335,0.111633015
1764504867.632398,-5.27996,0.9003399999999999,0.47306,-0.856382085,0.47668335,0.111633015
1764504867.632398,-5.27996,0.9003399999999999,0.47306,-0.856382085,0.47668335,0.111633015
1764504867.632398,-5.27996,0.9003399999999999,0.47306,-0.856382085,0.47668335,0.111633015
1764504867.632398,-5.27996,0.9003399999999999,0.47306,-0.856382085,0.47668335,0.111633015
1764504867.6774986,-5.27996,0.9003399999999999,0.47306,-0.856382085,0.47668335,0.111633015
1764504867.6774986,-5.27996,0.9003399999999999,0.47306,-0.856382085,0.47668335,0.111633015
1764504867.6774986,-5.27996,0.9003399999999999,0.47306,-0.856382085,0.47668335,0.111633015
1764504867.6774986,-5.27996,0.9003399999999999,0.47306,-0.856382085,0.47668335,0.111633015
1764504867.6774986,-5.02054,0.85456,0.4578,-0.856015875,0.47509644,0.111388875
1764504867.6774986,-5.02054,0.85456,0.4578,-0.856015875,0.47509644,0.111388875
1764504867.6774986,-5.02054,0.85456,0.4578,-0.856015875,0.47509644,0.111388875
1764504867.6774986,-5.02054,0.85456,0.4578,-0.856015875,0.47509644,0.111388875
1764504867.6774986,-5.02054,0.85456,0.4578,-0.856015875,0.47509644,0.111388875
1764504867.6774986,-5.02054,0.85456,0.4578,-0.856015875,0.47509644,0.111388875
1764504867.6785092,-5.02054,0.85456,0.4578,-0.856015875,0.47509644,0.111388875
1764504867.6785092,-5.02054,0.85456,0.4578,-0.856015875,0.47509644,0.111388875
1764504867.6785092,-5.02054,0.85456,0.4578,-0.856015875,0.47509644,0.111388875
1764504867.6790247,-5.02054,0.85456,0.4578,-0.856015875,0.47509644,0.111388875
1764504867.6790247,-4.76112,-0.04578,0.27468,-0.85754175,0.473082285,0.111999225
1764504867.6790247,-4.76112,-0.04578,0.27468,-0.85754175,0.473082285,0.111999225
1764504867.6790247,-4.76112,-0.04578,0.27468,-0.85754175,0.473082285,0.111999225
1764504867.6790247,-4.76112,-0.04578,0.27468,-0.85754175,0.473082285,0.111999225
1764504867.6790247,-4.76112,-0.04578,0.27468,-0.85754175,0.473082285,0.111999225
1764504867.6790247,-4.76112,-0.04578,0.27468,-0.85754175,0.473082285,0.111999225
1764504867.6790247,-4.76112,-0.04578,0.27468,-0.85754175,0.473082285,0.111999225
1764504867.6790247,-4.76112,-0.04578,0.27468,-0.85754175,0.473082285,0.111999225
1764504867.6790247,-4.76112,-0.04578,0.27468,-0.85754175,0.473082285,0.111999225
1764504867.680042,-4.76112,-0.04578,0.27468,-0.85754175,0.473082285,0.111999225
1764504867.7226665,-4.8832,-0.39676,0.57988,-0.8577248550000001,0.471739515,0.112609575
1764504867.7226665,-4.8832,-0.39676,0.57988,-0.8577248550000001,0.471739515,0.112609575
1764504867.723177,-4.8832,-0.39676,0.57988,-0.8577248550000001,0.471739515,0.112609575
1764504867.723177,-4.8832,-0.39676,0.57988,-0.8577248550000001,0.471739515,0.112609575
1764504867.723177,-4.8832,-0.39676,0.57988,-0.8577248550000001,0.471739515,0.112609575
1764504867.723177,-4.8832,-0.39676,0.57988,-0.8577248550000001,0.471739515,0.112609575
1764504867.723177,-4.8832,-0.39676,0.57988,-0.8577248550000001,0.471739515,0.112609575
1764504867.723177,-4.8832,-0.39676,0.57988,-0.8577248550000001,0.471739515,0.112609575
1764504867.723177,-4.8832,-0.39676,0.57988,-0.8577248550000001,0.471739515,0.112609575
1764504867.723177,-4.8832,-0.39676,0.57988,-0.8577248550000001,0.471739515,0.112609575
1764504867.723177,-0.01526,0.3815,0.9003399999999999,-0.85680933,0.471861585,0.113341995
1764504867.723177,-0.01526,0.3815,0.9003399999999999,-0.85680933,0.471861585,0.113341995
1764504867.723177,-0.01526,0.3815,0.9003399999999999,-0.85680933,0.471861585,0.113341995
1764504867.723177,-0.01526,0.3815,0.9003399999999999,-0.85680933,0.471861585,0.113341995
1764504867.723177,-0.01526,0.3815,0.9003399999999999,-0.85680933,0.471861585,0.113341995
1764504867.723177,-0.01526,0.3815,0.9003399999999999,-0.85680933,0.471861585,0.113341995
1764504867.723177,-0.01526,0.3815,0.9003399999999999,-0.85680933,0.471861585,0.113341995
1764504867.723177,-0.01526,0.3815,0.9003399999999999,-0.85680933,0.471861585,0.113341995
1764504867.723177,-0.01526,0.3815,0.9003399999999999,-0.85680933,0.471861585,0.113341995
1764504867.723177,-0.01526,0.3815,0.9003399999999999,-0.85680933,0.471861585,0.113341995
1764504867.723177,-3.08252,1.63282,0.57988,-0.85680933,0.47131227,0.113097855
1764504867.723177,-3.08252,1.63282,0.57988,-0.85680933,0.47131227,0.113097855
1764504867.7664812,-3.08252,1.63282,0.57988,-0.85680933,0.47131227,0.113097855
1764504867.7669904,-3.08252,1.63282,0.57988,-0.85680933,0.47131227,0.113097855
1764504867.7669904,-3.08252,1.63282,0.57988,-0.85680933,0.47131227,0.113097855
1764504867.7669904,-3.08252,1.63282,0.57988,-0.85680933,0.47131227,0.113097855
1764504867.7669904,-3.08252,1.63282,0.57988,-0.85680933,0.47131227,0.113097855
1764504867.7669904,-3.08252,1.63282,0.57988,-0.85680933,0.47131227,0.113097855
1764504867.7669904,-3.08252,1.63282,0.57988,-0.85680933,0.47131227,0.113097855
1764504867.7669904,-3.08252,1.63282,0.57988,-0.85680933,0.47131227,0.113097855
1764504867.7669904,-4.303319999999999,0.9003399999999999,0.59514,-0.85741968,0.47253297,0.112365435
1764504867.7669904,-4.303319999999999,0.9003399999999999,0.59514,-0.85741968,0.47253297,0.112365435
1764504867.7669904,-4.303319999999999,0.9003399999999999,0.59514,-0.85741968,0.47253297,0.112365435
1764504867.7669904,-4.303319999999999,0.9003399999999999,0.59514,-0.85741968,0.47253297,0.112365435
1764504867.7669904,-4.303319999999999,0.9003399999999999,0.59514,-0.85741968,0.47253297,0.112365435
1764504867.7669904,-4.303319999999999,0.9003399999999999,0.59514,-0.85741968,0.47253297,0.112365435
1764504867.7669904,-4.303319999999999,0.9003399999999999,0.59514,-0.85741968,0.47253297,0.112365435
1764504867.7669904,-4.303319999999999,0.9003399999999999,0.59514,-0.85741968,0.47253297,0.112365435
1764504867.7669904,-4.303319999999999,0.9003399999999999,0.59514,-0.85741968,0.47253297,0.112365435
1764504867.7669904,-4.303319999999999,0.9003399999999999,0.59514,-0.85741968,0.47253297,0.112365435
1764504867.768018,-5.06632,1.2208,0.0,-0.85717554,0.472471935,0.111266805
1764504867.768018,-5.06632,1.2208,0.0,-0.85717554,0.472471935,0.111266805
1764504867.768018,-5.06632,1.2208,0.0,-0.85717554,0.472471935,0.111266805
1764504867.768018,-5.06632,1.2208,0.0,-0.85717554,0.472471935,0.111266805
1764504867.768018,-5.06632,1.2208,0.0,-0.85717554,0.472471935,0.111266805
1764504867.768018,-5.06632,1.2208,0.0,-0.85717554,0.472471935,0.111266805
1764504867.815502,-5.06632,1.2208,0.0,-0.85717554,0.472471935,0.111266805
1764504867.815502,-5.06632,1.2208,0.0,-0.85717554,0.472471935,0.111266805
1764504867.815502,-5.06632,1.2208,0.0,-0.85717554,0.472471935,0.111266805
1764504867.815502,-5.06632,1.2208,0.0,-0.85717554,0.472471935,0.111266805
1764504867.815502,-5.340999999999999,0.97664,-0.18312,-0.85729761,0.473204355,0.11083956
1764504867.815502,-5.340999999999999,0.97664,-0.18312,-0.85729761,0.473204355,0.11083956
1764504867.815502,-5.340999999999999,0.97664,-0.18312,-0.85729761,0.473204355,0.11083956
1764504867.8164997,-5.340999999999999,0.97664,-0.18312,-0.85729761,0.473204355,0.11083956
1764504867.8164997,-5.340999999999999,0.97664,-0.18312,-0.85729761,0.473204355,0.11083956
1764504867.8164997,-5.340999999999999,0.97664,-0.18312,-0.85729761,0.473204355,0.11083956
