Timestamp,GyroX,GyroY,GyroZ,AccX,AccY,AccZ
1764505489.4904451,0.3509799999999999,4.822159999999999,0.25942,0.74889945,-0.6150496950000001,0.25366146
1764505489.4904451,0.3509799999999999,4.822159999999999,0.25942,0.74889945,-0.6150496950000001,0.25366146
1764505489.4904451,0.3509799999999999,4.822159999999999,0.25942,0.74889945,-0.6150496950000001,0.25366146
1764505489.4904451,0.3509799999999999,4.822159999999999,0.25942,0.74889945,-0.6150496950000001,0.25366146
1764505489.4904451,0.3509799999999999,4.822159999999999,0.25942,0.74889945,-0.6150496950000001,0.25366146
1764505489.4904451,0.3509799999999999,4.822159999999999,0.25942,0.74889945,-0.6150496950000001,0.25366146
1764505489.4904451,-0.47306,4.56274,0.1678599999999999,0.7487163450000001,-0.615782115,0.25488216
1764505489.4904451,-0.47306,4.56274,0.1678599999999999,0.7487163450000001,-0.615782115,0.25488216
1764505489.4904451,-0.47306,4.56274,0.1678599999999999,0.7487163450000001,-0.615782115,0.25488216
1764505489.4914465,-0.47306,4.56274,0.1678599999999999,0.7487163450000001,-0.615782115,0.25488216
1764505489.4914465,-0.47306,4.56274,0.1678599999999999,0.7487163450000001,-0.615782115,0.25488216
1764505489.4914465,-0.47306,4.56274,0.1678599999999999,0.7487163450000001,-0.615782115,0.25488216
1764505489.4914465,-0.47306,4.56274,0.1678599999999999,0.7487163450000001,-0.615782115,0.25488216
1764505489.4914465,-0.47306,4.56274,0.1678599999999999,0.7487163450000001,-0.615782115,0.25488216
1764505489.4914465,-0.47306,4.56274,0.1678599999999999,0.7487163450000001,-0.615782115,0.25488216
1764505489.4914465,-0.47306,4.56274,0.1678599999999999,0.7487163450000001,-0.615782115,0.25488216
1764505489.4924457,-0.8087799999999999,4.31858,0.1525999999999999,0.748228065,-0.615171765,0.25500423
1764505489.4924457,-0.8087799999999999,4.31858,0.1525999999999999,0.748228065,-0.615171765,0.25500423
1764505489.4924457,-0.8087799999999999,4.31858,0.1525999999999999,0.748228065,-0.615171765,0.25500423
1764505489.4924457,-0.8087799999999999,4.31858,0.1525999999999999,0.748228065,-0.615171765,0.25500423
1764505489.5361016,-0.8087799999999999,4.31858,0.1525999999999999,0.748228065,-0.615171765,0.25500423
1764505489.5361016,-0.8087799999999999,4.31858,0.1525999999999999,0.748228065,-0.615171765,0.25500423
1764505489.5361016,-0.8087799999999999,4.31858,0.1525999999999999,0.748228065,-0.615171765,0.25500423
1764505489.5361016,-0.8087799999999999,4.31858,0.1525999999999999,0.748228065,-0.615171765,0.25500423
1764505489.5361016,-0.8087799999999999,4.31858,0.1525999999999999,0.748228065,-0.615171765,0.25500423
1764505489.5361016,-0.8087799999999999,4.31858,0.1525999999999999,0.748228065,-0.615171765,0.25500423
1764505489.5361016,-0.4578,4.31858,1.11398,0.74853324,-0.614195205,0.254699055
1764505489.5361016,-0.4578,4.31858,1.11398,0.74853324,-0.614195205,0.254699055
1764505489.5361016,-0.4578,4.31858,1.11398,0.74853324,-0.614195205,0.254699055
1764505489.5361016,-0.4578,4.31858,1.11398,0.74853324,-0.614195205,0.254699055
1764505489.5361016,-0.4578,4.31858,1.11398,0.74853324,-0.614195205,0.254699055
1764505489.5361016,-0.4578,4.31858,1.11398,0.74853324,-0.614195205,0.254699055
1764505489.5361016,-0.4578,4.31858,1.11398,0.74853324,-0.614195205,0.254699055
1764505489.5361016,-0.4578,4.31858,1.11398,0.74853324,-0.614195205,0.254699055
1764505489.5361016,-0.4578,4.31858,1.11398,0.74853324,-0.614195205,0.254699055
1764505489.5361016,-0.4578,4.31858,1.11398,0.74853324,-0.614195205,0.254699055
1764505489.5361016,0.56462,4.07442,1.51074,0.74865531,-0.613462785,0.25476009
1764505489.5361016,0.56462,4.07442,1.51074,0.74865531,-0.613462785,0.25476009
1764505489.5361016,0.56462,4.07442,1.51074,0.74865531,-0.613462785,0.25476009
1764505489.5361016,0.56462,4.07442,1.51074,0.74865531,-0.613462785,0.25476009
1764505489.5361016,0.56462,4.07442,1.51074,0.74865531,-0.613462785,0.25476009
1764505489.5361016,0.56462,4.07442,1.51074,0.74865531,-0.613462785,0.25476009
1764505489.5376422,0.56462,4.07442,1.51074,0.74865531,-0.613462785,0.25476009
1764505489.5376422,0.56462,4.07442,1.51074,0.74865531,-0.613462785,0.25476009
1764505489.5805705,0.56462,4.07442,1.51074,0.74865531,-0.613462785,0.25476009
1764505489.5805705,0.56462,4.07442,1.51074,0.74865531,-0.613462785,0.25476009
1764505489.5805705,0.8087799999999999,4.5017,1.9838,0.74853324,-0.61340175,0.25537044
1764505489.5805705,0.8087799999999999,4.5017,1.9838,0.74853324,-0.61340175,0.25537044
1764505489.5805705,0.8087799999999999,4.5017,1.9838,0.74853324,-0.61340175,0.25537044
1764505489.5815902,0.8087799999999999,4.5017,1.9838,0.74853324,-0.61340175,0.25537044
1764505489.5815902,0.8087799999999999,4.5017,1.9838,0.74853324,-0.61340175,0.25537044
1764505489.5815902,0.8087799999999999,4.5017,1.9838,0.74853324,-0.61340175,0.25537044
1764505489.5815902,0.8087799999999999,4.5017,1.9838,0.74853324,-0.61340175,0.25537044
1764505489.5815902,0.8087799999999999,4.5017,1.9838,0.74853324,-0.61340175,0.25537044
1764505489.5815902,0.8087799999999999,4.5017,1.9838,0.74853324,-0.61340175,0.25537044
1764505489.5815902,0.8087799999999999,4.5017,1.9838,0.74853324,-0.61340175,0.25537044
1764505489.5815902,0.3051999999999999,3.67766,1.86172,0.748228065,-0.613706925,0.254699055
1764505489.5815902,0.3051999999999999,3.67766,1.86172,0.748228065,-0.613706925,0.254699055
1764505489.5815902,0.3051999999999999,3.67766,1.86172,0.748228065,-0.613706925,0.254699055
1764505489.5815902,0.3051999999999999,3.67766,1.86172,0.748228065,-0.613706925,0.254699055
1764505489.5815902,0.3051999999999999,3.67766,1.86172,0.748228065,-0.613706925,0.254699055
1764505489.5815902,0.3051999999999999,3.67766,1.86172,0.748228065,-0.613706925,0.254699055
1764505489.5815902,0.3051999999999999,3.67766,1.86172,0.748228065,-0.613706925,0.254699055
1764505489.5826032,0.3051999999999999,3.67766,1.86172,0.748228065,-0.613706925,0.254699055
1764505489.5826032,0.3051999999999999,3.67766,1.86172,0.748228065,-0.613706925,0.254699055
1764505489.5826032,0.3051999999999999,3.67766,1.86172,0.748228065,-0.613706925,0.254699055
1764505489.5826032,-0.2289,4.059159999999999,1.55652,0.748105995,-0.61437831,0.25524837
1764505489.5826032,-0.2289,4.059159999999999,1.55652,0.748105995,-0.61437831,0.25524837
1764505489.6298273,-0.2289,4.059159999999999,1.55652,0.748105995,-0.61437831,0.25524837
1764505489.6298273,-0.2289,4.059159999999999,1.55652,0.748105995,-0.61437831,0.25524837
1764505489.6298273,-0.2289,4.059159999999999,1.55652,0.748105995,-0.61437831,0.25524837
1764505489.63034,-0.2289,4.059159999999999,1.55652,0.748105995,-0.61437831,0.25524837
1764505489.63034,-0.2289,4.059159999999999,1.55652,0.748105995,-0.61437831,0.25524837
1764505489.63034,-0.2289,4.059159999999999,1.55652,0.748105995,-0.61437831,0.25524837
1764505489.63034,-0.2289,4.059159999999999,1.55652,0.748105995,-0.61437831,0.25524837
1764505489.63034,-0.2289,4.059159999999999,1.55652,0.748105995,-0.61437831,0.25524837
1764505489.63034,-0.13734,3.815,1.34288,0.74780082,-0.61450038,0.25585872
1764505489.63034,-0.13734,3.815,1.34288,0.74780082,-0.61450038,0.25585872
1764505489.63034,-0.13734,3.815,1.34288,0.74780082,-0.61450038,0.25585872
1764505489.63034,-0.13734,3.815,1.34288,0.74780082,-0.61450038,0.25585872
1764505489.63034,-0.13734,3.815,1.34288,0.74780082,-0.61450038,0.25585872
1764505489.63034,-0.13734,3.815,1.34288,0.74780082,-0.61450038,0.25585872
1764505489.63034,-0.13734,3.815,1.34288,0.74780082,-0.61450038,0.25585872
1764505489.63034,-0.13734,3.815,1.34288,0.74780082,-0.61450038,0.25585872
1764505489.63034,-0.13734,3.815,1.34288,0.74780082,-0.61450038,0.25585872
1764505489.63034,-0.13734,3.815,1.34288,0.74780082,-0.61450038,0.25585872
1764505489.63034,-0.18312,3.9676,1.38866,0.74731254,-0.614805555,0.25549251
1764505489.63034,-0.18312,3.9676,1.38866,0.74731254,-0.614805555,0.25549251
1764505489.63034,-0.18312,3.9676,1.38866,0.74731254,-0.614805555,0.25549251
1764505489.63034,-0.18312,3.9676,1.38866,0.74731254,-0.614805555,0.25549251
1764505489.63034,-0.18312,3.9676,1.38866,0.74731254,-0.614805555,0.25549251
1764505489.63034,-0.18312,3.9676,1.38866,0.74731254,-0.614805555,0.25549251
1764505489.678923,-0.18312,3.9676,1.38866,0.74731254,-0.614805555,0.25549251
1764505489.678923,-0.18312,3.9676,1.38866,0.74731254,-0.614805555,0.25549251
1764505489.678923,-0.18312,3.9676,1.38866,0.74731254,-0.614805555,0.25549251
1764505489.678923,-0.18312,3.9676,1.38866,0.74731254,-0.614805555,0.25549251
1764505489.678923,-0.27468,3.75396,1.81594,0.74682426,-0.614195205,0.255309405
1764505489.678923,-0.27468,3.75396,1.81594,0.74682426,-0.614195205,0.255309405
1764505489.678923,-0.27468,3.75396,1.81594,0.74682426,-0.614195205,0.255309405
1764505489.678923,-0.27468,3.75396,1.81594,0.74682426,-0.614195205,0.255309405
1764505489.678923,-0.27468,3.75396,1.81594,0.74682426,-0.614195205,0.255309405
1764505489.678923,-0.27468,3.75396,1.81594,0.74682426,-0.614195205,0.255309405
1764505489.678923,-0.27468,3.75396,1.81594,0.74682426,-0.614195205,0.255309405
1764505489.678923,-0.27468,3.75396,1.81594,0.74682426,-0.614195205,0.255309405
1764505489.678923,-0.27468,3.75396,1.81594,0.74682426,-0.614195205,0.255309405
1764505489.678923,-0.27468,3.75396,1.81594,0.74682426,-0.614195205,0.255309405
1764505489.678923,-0.4578,4.08968,1.28184,0.7470684,-0.61474452,0.25439388
1764505489.678923,-0.4578,4.08968,1.28184,0.7470684,-0.61474452,0.25439388
1764505489.678923,-0.4578,4.08968,1.28184,0.7470684,-0.61474452,0.25439388
1764505489.678923,-0.4578,4.08968,1.28184,0.7470684,-0.61474452,0.25439388
1764505489.678923,-0.4578,4.08968,1.28184,0.7470684,-0.61474452,0.25439388
1764505489.679929,-0.4578,4.08968,1.28184,0.7470684,-0.61474452,0.25439388
1764505489.679929,-0.4578,4.08968,1.28184,0.7470684,-0.61474452,0.25439388
1764505489.679929,-0.4578,4.08968,1.28184,0.7470684,-0.61474452,0.25439388
1764505489.679929,-0.4578,4.08968,1.28184,0.7470684,-0.61474452,0.25439388
1764505489.679929,-0.4578,4.08968,1.28184,0.7470684,-0.61474452,0.25439388
1764505489.7229676,-0.18312,4.3491,1.1445,0.747251505,-0.614927625,0.25463802
1764505489.7229676,-0.18312,4.3491,1.1445,0.747251505,-0.614927625,0.25463802
1764505489.7229676,-0.18312,4.3491,1.1445,0.747251505,-0.614927625,0.25463802
1764505489.7229676,-0.18312,4.3491,1.1445,0.747251505,-0.614927625,0.25463802
1764505489.7229676,-0.18312,4.3491,1.1445,0.747251505,-0.614927625,0.25463802
1764505489.7229676,-0.18312,4.3491,1.1445,0.747251505,-0.614927625,0.25463802
1764505489.7229676,-0.18312,4.3491,1.1445,0.747251505,-0.614927625,0.25463802
1764505489.7229676,-0.18312,4.3491,1.1445,0.747251505,-0.614927625,0.25463802
1764505489.7229676,-0.18312,4.3491,1.1445,0.747251505,-0.614927625,0.25463802
1764505489.7229676,-0.18312,4.3491,1.1445,0.747251505,-0.614927625,0.25463802
1764505489.7239866,0.01526,4.5017,0.8392999999999999,0.74719047,-0.61572108,0.25537044
1764505489.7239866,0.01526,4.5017,0.8392999999999999,0.74719047,-0.61572108,0.25537044
1764505489.7239866,0.01526,4.5017,0.8392999999999999,0.74719047,-0.61572108,0.25537044
1764505489.7239866,0.01526,4.5017,0.8392999999999999,0.74719047,-0.61572108,0.25537044
1764505489.7239866,0.01526,4.5017,0.8392999999999999,0.74719047,-0.61572108,0.25537044
1764505489.7239866,0.01526,4.5017,0.8392999999999999,0.74719047,-0.61572108,0.25537044
1764505489.7239866,0.01526,4.5017,0.8392999999999999,0.74719047,-0.61572108,0.25537044
1764505489.7239866,0.01526,4.5017,0.8392999999999999,0.74719047,-0.61572108,0.25537044
1764505489.7239866,0.01526,4.5017,0.8392999999999999,0.74719047,-0.61572108,0.25537044
1764505489.7239866,0.01526,4.5017,0.8392999999999999,0.74719047,-0.61572108,0.25537044
1764505489.7260568,-0.3815,4.18124,0.9156,0.74682426,-0.6150496950000001,0.25610286
1764505489.7260568,-0.3815,4.18124,0.9156,0.74682426,-0.6150496950000001,0.25610286
1764505489.7260568,-0.3815,4.18124,0.9156,0.74682426,-0.6150496950000001,0.25610286
1764505489.7260568,-0.3815,4.18124,0.9156,0.74682426,-0.6150496950000001,0.25610286
1764505489.7686644,-0.3815,4.18124,0.9156,0.74682426,-0.6150496950000001,0.25610286
1764505489.7686644,-0.3815,4.18124,0.9156,0.74682426,-0.6150496950000001,0.25610286
1764505489.7686644,-0.3815,4.18124,0.9156,0.74682426,-0.6150496950000001,0.25610286
1764505489.7686644,-0.3815,4.18124,0.9156,0.74682426,-0.6150496950000001,0.25610286
1764505489.7686644,-0.3815,4.18124,0.9156,0.74682426,-0.6150496950000001,0.25610286
1764505489.7686644,-0.3815,4.18124,0.9156,0.74682426,-0.6150496950000001,0.25610286
1764505489.7686644,-0.3051999999999999,4.33384,1.0682,0.747007365,-0.614927625,0.25646907
1764505489.7686644,-0.3051999999999999,4.33384,1.0682,0.747007365,-0.614927625,0.25646907
1764505489.7686644,-0.3051999999999999,4.33384,1.0682,0.747007365,-0.614927625,0.25646907
1764505489.7686644,-0.3051999999999999,4.33384,1.0682,0.747007365,-0.614927625,0.25646907
1764505489.7686644,-0.3051999999999999,4.33384,1.0682,0.747007365,-0.614927625,0.25646907
1764505489.7686644,-0.3051999999999999,4.33384,1.0682,0.747007365,-0.614927625,0.25646907
1764505489.7686644,-0.3051999999999999,4.33384,1.0682,0.747007365,-0.614927625,0.25646907
1764505489.7686644,-0.3051999999999999,4.33384,1.0682,0.747007365,-0.614927625,0.25646907
1764505489.7686644,-0.3051999999999999,4.33384,1.0682,0.747007365,-0.614927625,0.25646907
1764505489.7686644,-0.3051999999999999,4.33384,1.0682,0.747007365,-0.614927625,0.25646907
1764505489.7696795,0.0762999999999999,4.4254,1.25132,0.74731254,-0.61437831,0.255919755
1764505489.7696795,0.0762999999999999,4.4254,1.25132,0.74731254,-0.61437831,0.255919755
1764505489.7696795,0.0762999999999999,4.4254,1.25132,0.74731254,-0.61437831,0.255919755
1764505489.7696795,0.0762999999999999,4.4254,1.25132,0.74731254,-0.61437831,0.255919755
1764505489.7696795,0.0762999999999999,4.4254,1.25132,0.74731254,-0.61437831,0.255919755
1764505489.7696795,0.0762999999999999,4.4254,1.25132,0.74731254,-0.61437831,0.255919755
1764505489.8159397,0.0762999999999999,4.4254,1.25132,0.74731254,-0.61437831,0.255919755
1764505489.8159397,0.0762999999999999,4.4254,1.25132,0.74731254,-0.61437831,0.255919755
1764505489.8159397,0.0762999999999999,4.4254,1.25132,0.74731254,-0.61437831,0.255919755
1764505489.8159397,0.0762999999999999,4.4254,1.25132,0.74731254,-0.61437831,0.255919755
1764505489.8159397,0.04578,4.715339999999999,1.73964,0.7466411550000001,-0.614561415,0.255919755
1764505489.8176284,0.04578,4.715339999999999,1.73964,0.7466411550000001,-0.614561415,0.255919755
1764505489.8176284,0.04578,4.715339999999999,1.73964,0.7466411550000001,-0.614561415,0.255919755
1764505489.8176284,0.04578,4.715339999999999,1.73964,0.7466411550000001,-0.614561415,0.255919755
1764505489.8176284,0.04578,4.715339999999999,1.73964,0.7466411550000001,-0.614561415,0.255919755
1764505489.8176284,0.04578,4.715339999999999,1.73964,0.7466411550000001,-0.614561415,0.255919755
1764505489.8176284,0.04578,4.715339999999999,1.73964,0.7466411550000001,-0.614561415,0.255919755
1764505489.8176284,0.04578,4.715339999999999,1.73964,0.7466411550000001,-0.614561415,0.255919755
1764505489.8176284,0.04578,4.715339999999999,1.73964,0.7466411550000001,-0.614561415,0.255919755
1764505489.8176284,0.04578,4.715339999999999,1.73964,0.7466411550000001,-0.614561415,0.255919755
1764505489.8176284,-0.06104,4.24228,1.92276,0.74645805,-0.6150496950000001,0.255553545
1764505489.8176284,-0.06104,4.24228,1.92276,0.74645805,-0.6150496950000001,0.255553545
1764505489.8176284,-0.06104,4.24228,1.92276,0.74645805,-0.6150496950000001,0.255553545
1764505489.8176284,-0.06104,4.24228,1.92276,0.74645805,-0.6150496950000001,0.255553545
1764505489.8176284,-0.06104,4.24228,1.92276,0.74645805,-0.6150496950000001,0.255553545
1764505489.8176284,-0.06104,4.24228,1.92276,0.74645805,-0.6150496950000001,0.255553545
1764505489.8176284,-0.06104,4.24228,1.92276,0.74645805,-0.6150496950000001,0.255553545
1764505489.8176284,-0.06104,4.24228,1.92276,0.74645805,-0.6150496950000001,0.255553545
1764505489.8625011,-0.06104,4.24228,1.92276,0.74645805,-0.6150496950000001,0.255553545
1764505489.8625011,-0.06104,4.24228,1.92276,0.74645805,-0.6150496950000001,0.255553545
1764505489.8625011,0.25942,3.7387,1.61756,0.74645805,-0.615293835,0.25573665
1764505489.8625011,0.25942,3.7387,1.61756,0.74645805,-0.615293835,0.25573665
1764505489.8625011,0.25942,3.7387,1.61756,0.74645805,-0.615293835,0.25573665
1764505489.8625011,0.25942,3.7387,1.61756,0.74645805,-0.615293835,0.25573665
1764505489.8625011,0.25942,3.7387,1.61756,0.74645805,-0.615293835,0.25573665
1764505489.8625011,0.25942,3.7387,1.61756,0.74645805,-0.615293835,0.25573665
1764505489.8625011,0.25942,3.7387,1.61756,0.74645805,-0.615293835,0.25573665
1764505489.8625011,0.25942,3.7387,1.61756,0.74645805,-0.615293835,0.25573665
1764505489.8625011,0.25942,3.7387,1.61756,0.74645805,-0.615293835,0.25573665
1764505489.863662,0.25942,3.7387,1.61756,0.74645805,-0.615293835,0.25573665
1764505489.863662,-0.3509799999999999,3.815,1.43444,0.746274945,-0.6155990100000001,0.256530105
1764505489.863662,-0.3509799999999999,3.815,1.43444,0.746274945,-0.6155990100000001,0.256530105
1764505489.863662,-0.3509799999999999,3.815,1.43444,0.746274945,-0.6155990100000001,0.256530105
1764505489.863662,-0.3509799999999999,3.815,1.43444,0.746274945,-0.6155990100000001,0.256530105
1764505489.863662,-0.3509799999999999,3.815,1.43444,0.746274945,-0.6155990100000001,0.256530105
1764505489.863662,-0.3509799999999999,3.815,1.43444,0.746274945,-0.6155990100000001,0.256530105
1764505489.863662,-0.3509799999999999,3.815,1.43444,0.746274945,-0.6155990100000001,0.256530105
1764505489.863662,-0.3509799999999999,3.815,1.43444,0.746274945,-0.6155990100000001,0.256530105
1764505489.863662,-0.3509799999999999,3.815,1.43444,0.746274945,-0.6155990100000001,0.256530105
1764505489.863662,-0.3509799999999999,3.815,1.43444,0.746274945,-0.6155990100000001,0.256530105
1764505489.863662,-0.25942,3.98286,1.63282,0.746274945,-0.615415905,0.256774245
1764505489.863662,-0.25942,3.98286,1.63282,0.746274945,-0.615415905,0.256774245
1764505489.9085827,-0.25942,3.98286,1.63282,0.746274945,-0.615415905,0.256774245
1764505489.9085827,-0.25942,3.98286,1.63282,0.746274945,-0.615415905,0.256774245
1764505489.9085827,-0.25942,3.98286,1.63282,0.746274945,-0.615415905,0.256774245
1764505489.9085827,-0.25942,3.98286,1.63282,0.746274945,-0.615415905,0.256774245
1764505489.9085827,-0.25942,3.98286,1.63282,0.746274945,-0.615415905,0.256774245
1764505489.9085827,-0.25942,3.98286,1.63282,0.746274945,-0.615415905,0.256774245
1764505489.9085827,-0.25942,3.98286,1.63282,0.746274945,-0.615415905,0.256774245
1764505489.9085827,-0.25942,3.98286,1.63282,0.746274945,-0.615415905,0.256774245
1764505489.9085827,-0.03052,4.15072,1.46496,0.746763225,-0.615415905,0.25683528
1764505489.9085827,-0.03052,4.15072,1.46496,0.746763225,-0.615415905,0.25683528
1764505489.9085827,-0.03052,4.15072,1.46496,0.746763225,-0.615415905,0.25683528
1764505489.9085827,-0.03052,4.15072,1.46496,0.746763225,-0.615415905,0.25683528
1764505489.9085827,-0.03052,4.15072,1.46496,0.746763225,-0.615415905,0.25683528
1764505489.9085827,-0.03052,4.15072,1.46496,0.746763225,-0.615415905,0.25683528
1764505489.9085827,-0.03052,4.15072,1.46496,0.746763225,-0.615415905,0.25683528
1764505489.9085827,-0.03052,4.15072,1.46496,0.746763225,-0.615415905,0.25683528
1764505489.9085827,-0.03052,4.15072,1.46496,0.746763225,-0.615415905,0.25683528
1764505489.9085827,-0.03052,4.15072,1.46496,0.746763225,-0.615415905,0.25683528
1764505489.9085827,-0.3204599999999999,3.70818,0.73248,0.746030805,-0.6166366050000001,0.25793391
1764505489.9085827,-0.3204599999999999,3.70818,0.73248,0.746030805,-0.6166366050000001,0.25793391
1764505489.9085827,-0.3204599999999999,3.70818,0.73248,0.746030805,-0.6166366050000001,0.25793391
1764505489.9085827,-0.3204599999999999,3.70818,0.73248,0.746030805,-0.6166366050000001,0.25793391
1764505489.9085827,-0.3204599999999999,3.70818,0.73248,0.746030805,-0.6166366050000001,0.25793391
1764505489.9085827,-0.3204599999999999,3.70818,0.73248,0.746030805,-0.6166366050000001,0.25793391
1764505489.958076,-0.3204599999999999,3.70818,0.73248,0.746030805,-0.6166366050000001,0.25793391
1764505489.958076,-0.3204599999999999,3.70818,0.73248,0.746030805,-0.6166366050000001,0.25793391
1764505489.958076,-0.3204599999999999,3.70818,0.73248,0.746030805,-0.6166366050000001,0.25793391
1764505489.958076,-0.3204599999999999,3.70818,0.73248,0.746030805,-0.6166366050000001,0.25793391
1764505489.958076,-1.23606,3.72344,-0.03052,0.74560356,-0.61706385,0.258361155
1764505489.958076,-1.23606,3.72344,-0.03052,0.74560356,-0.61706385,0.258361155
1764505489.958076,-1.23606,3.72344,-0.03052,0.74560356,-0.61706385,0.258361155
1764505489.958076,-1.23606,3.72344,-0.03052,0.74560356,-0.61706385,0.258361155
1764505489.958076,-1.23606,3.72344,-0.03052,0.74560356,-0.61706385,0.258361155
1764505489.958076,-1.23606,3.72344,-0.03052,0.74560356,-0.61706385,0.258361155
1764505489.958076,-1.23606,3.72344,-0.03052,0.74560356,-0.61706385,0.258361155
1764505489.958076,-1.23606,3.72344,-0.03052,0.74560356,-0.61706385,0.258361155
1764505489.958076,-1.23606,3.72344,-0.03052,0.74560356,-0.61706385,0.258361155
1764505489.958076,-1.23606,3.72344,-0.03052,0.74560356,-0.61706385,0.258361155
1764505489.959093,-1.05294,4.01338,0.50358,0.7450542450000001,-0.6164535,0.25695735
1764505489.959093,-1.05294,4.01338,0.50358,0.7450542450000001,-0.6164535,0.25695735
1764505489.959093,-1.05294,4.01338,0.50358,0.7450542450000001,-0.6164535,0.25695735
1764505489.959093,-1.05294,4.01338,0.50358,0.7450542450000001,-0.6164535,0.25695735
1764505489.959093,-1.05294,4.01338,0.50358,0.7450542450000001,-0.6164535,0.25695735
1764505489.959093,-1.05294,4.01338,0.50358,0.7450542450000001,-0.6164535,0.25695735
1764505489.959093,-1.05294,4.01338,0.50358,0.7450542450000001,-0.6164535,0.25695735
1764505489.959093,-1.05294,4.01338,0.50358,0.7450542450000001,-0.6164535,0.25695735
1764505489.959093,-1.05294,4.01338,0.50358,0.7450542450000001,-0.6164535,0.25695735
1764505489.959093,-1.05294,4.01338,0.50358,0.7450542450000001,-0.6164535,0.25695735
1764505490.0051,-0.06104,4.303319999999999,0.48832,0.745664595,-0.615415905,0.256652175
1764505490.0051,-0.06104,4.303319999999999,0.48832,0.745664595,-0.615415905,0.256652175
1764505490.0051,-0.06104,4.303319999999999,0.48832,0.745664595,-0.615415905,0.256652175
1764505490.0051,-0.06104,4.303319999999999,0.48832,0.745664595,-0.615415905,0.256652175
1764505490.0051,-0.06104,4.303319999999999,0.48832,0.745664595,-0.615415905,0.256652175
1764505490.0051,-0.06104,4.303319999999999,0.48832,0.745664595,-0.615415905,0.256652175
1764505490.0051,-0.06104,4.303319999999999,0.48832,0.745664595,-0.615415905,0.256652175
1764505490.0051,-0.06104,4.303319999999999,0.48832,0.745664595,-0.615415905,0.256652175
1764505490.0051,-0.06104,4.303319999999999,0.48832,0.745664595,-0.615415905,0.256652175
1764505490.0051,-0.06104,4.303319999999999,0.48832,0.745664595,-0.615415905,0.256652175
1764505490.0061026,0.12208,4.1202,0.8087799999999999,0.7458477,-0.61474452,0.25744563
1764505490.0061026,0.12208,4.1202,0.8087799999999999,0.7458477,-0.61474452,0.25744563
1764505490.0061026,0.12208,4.1202,0.8087799999999999,0.7458477,-0.61474452,0.25744563
1764505490.0061026,0.12208,4.1202,0.8087799999999999,0.7458477,-0.61474452,0.25744563
1764505490.0061026,0.12208,4.1202,0.8087799999999999,0.7458477,-0.61474452,0.25744563
1764505490.0061026,0.12208,4.1202,0.8087799999999999,0.7458477,-0.61474452,0.25744563
1764505490.0061026,0.12208,4.1202,0.8087799999999999,0.7458477,-0.61474452,0.25744563
1764505490.0061026,0.12208,4.1202,0.8087799999999999,0.7458477,-0.61474452,0.25744563
1764505490.0061026,0.12208,4.1202,0.8087799999999999,0.7458477,-0.61474452,0.25744563
1764505490.0061026,0.12208,4.1202,0.8087799999999999,0.7458477,-0.61474452,0.25744563
1764505490.0061026,0.06104,4.37962,1.02242,0.745786665,-0.614317275,0.25695735
1764505490.0061026,0.06104,4.37962,1.02242,0.745786665,-0.614317275,0.25695735
1764505490.0061026,0.06104,4.37962,1.02242,0.745786665,-0.614317275,0.25695735
1764505490.0061026,0.06104,4.37962,1.02242,0.745786665,-0.614317275,0.25695735
1764505490.0504906,0.06104,4.37962,1.02242,0.745786665,-0.614317275,0.25695735
1764505490.0504906,0.06104,4.37962,1.02242,0.745786665,-0.614317275,0.25695735
1764505490.0504906,0.06104,4.37962,1.02242,0.745786665,-0.614317275,0.25695735
1764505490.0504906,0.06104,4.37962,1.02242,0.745786665,-0.614317275,0.25695735
1764505490.051504,0.06104,4.37962,1.02242,0.745786665,-0.614317275,0.25695735
1764505490.051504,0.06104,4.37962,1.02242,0.745786665,-0.614317275,0.25695735
1764505490.051504,-0.06104,3.79974,1.2971,0.74572563,-0.614805555,0.25768977
1764505490.051504,-0.06104,3.79974,1.2971,0.74572563,-0.614805555,0.25768977
1764505490.051504,-0.06104,3.79974,1.2971,0.74572563,-0.614805555,0.25768977
1764505490.051504,-0.06104,3.79974,1.2971,0.74572563,-0.614805555,0.25768977
1764505490.054013,-0.06104,3.79974,1.2971,0.74572563,-0.614805555,0.25768977
1764505490.055029,-0.06104,3.79974,1.2971,0.74572563,-0.614805555,0.25768977
1764505490.055029,-0.06104,3.79974,1.2971,0.74572563,-0.614805555,0.25768977
1764505490.055029,-0.06104,3.79974,1.2971,0.74572563,-0.614805555,0.25768977
1764505490.055029,-0.06104,3.79974,1.2971,0.74572563,-0.614805555,0.25768977
1764505490.055029,-0.06104,3.79974,1.2971,0.74572563,-0.614805555,0.25768977
1764505490.055029,-0.39676,3.47928,1.23606,0.745908735,-0.61498866,0.25842219
1764505490.055029,-0.39676,3.47928,1.23606,0.745908735,-0.61498866,0.25842219
1764505490.055029,-0.39676,3.47928,1.23606,0.745908735,-0.61498866,0.25842219
1764505490.055029,-0.39676,3.47928,1.23606,0.745908735,-0.61498866,0.25842219
1764505490.055029,-0.39676,3.47928,1.23606,0.745908735,-0.61498866,0.25842219
1764505490.055029,-0.39676,3.47928,1.23606,0.745908735,-0.61498866,0.25842219
1764505490.055029,-0.39676,3.47928,1.23606,0.745908735,-0.61498866,0.25842219
1764505490.055029,-0.39676,3.47928,1.23606,0.745908735,-0.61498866,0.25842219
1764505490.099423,-0.39676,3.47928,1.23606,0.745908735,-0.61498866,0.25842219
1764505490.099423,-0.39676,3.47928,1.23606,0.745908735,-0.61498866,0.25842219
1764505490.099423,-0.6409199999999999,3.17408,1.6786,0.746030805,-0.614805555,0.258849435
1764505490.099423,-0.6409199999999999,3.17408,1.6786,0.746030805,-0.614805555,0.258849435
1764505490.099423,-0.6409199999999999,3.17408,1.6786,0.746030805,-0.614805555,0.258849435
1764505490.099423,-0.6409199999999999,3.17408,1.6786,0.746030805,-0.614805555,0.258849435
1764505490.1004078,-0.6409199999999999,3.17408,1.6786,0.746030805,-0.614805555,0.258849435
1764505490.1004078,-0.6409199999999999,3.17408,1.6786,0.746030805,-0.614805555,0.258849435
1764505490.1004078,-0.6409199999999999,3.17408,1.6786,0.746030805,-0.614805555,0.258849435
1764505490.1004078,-0.6409199999999999,3.17408,1.6786,0.746030805,-0.614805555,0.258849435
1764505490.1004078,-0.6409199999999999,3.17408,1.6786,0.746030805,-0.614805555,0.258849435
1764505490.1004078,-0.6409199999999999,3.17408,1.6786,0.746030805,-0.614805555,0.258849435
1764505490.1004078,-0.48832,3.3572,1.2971,0.7458477,-0.6155990100000001,0.257750805
1764505490.1004078,-0.48832,3.3572,1.2971,0.7458477,-0.6155990100000001,0.257750805
1764505490.1004078,-0.48832,3.3572,1.2971,0.7458477,-0.6155990100000001,0.257750805
1764505490.1004078,-0.48832,3.3572,1.2971,0.7458477,-0.6155990100000001,0.257750805
1764505490.1004078,-0.48832,3.3572,1.2971,0.7458477,-0.6155990100000001,0.257750805
1764505490.1004078,-0.48832,3.3572,1.2971,0.7458477,-0.6155990100000001,0.257750805
1764505490.1004078,-0.48832,3.3572,1.2971,0.7458477,-0.6155990100000001,0.257750805
1764505490.1004078,-0.48832,3.3572,1.2971,0.7458477,-0.6155990100000001,0.257750805
1764505490.1004078,-0.48832,3.3572,1.2971,0.7458477,-0.6155990100000001,0.257750805
1764505490.1004078,-0.48832,3.3572,1.2971,0.7458477,-0.6155990100000001,0.257750805
1764505490.144127,0.09156,4.01338,1.48022,0.745908735,-0.61608729,0.25707942
1764505490.144127,0.09156,4.01338,1.48022,0.745908735,-0.61608729,0.25707942
1764505490.144127,0.09156,4.01338,1.48022,0.745908735,-0.61608729,0.25707942
1764505490.144127,0.09156,4.01338,1.48022,0.745908735,-0.61608729,0.25707942
1764505490.144127,0.09156,4.01338,1.48022,0.745908735,-0.61608729,0.25707942
1764505490.144127,0.09156,4.01338,1.48022,0.745908735,-0.61608729,0.25707942
1764505490.144127,0.09156,4.01338,1.48022,0.745908735,-0.61608729,0.25707942
1764505490.144127,0.09156,4.01338,1.48022,0.745908735,-0.61608729,0.25707942
1764505490.144127,0.09156,4.01338,1.48022,0.745908735,-0.61608729,0.25707942
1764505490.144127,0.09156,4.01338,1.48022,0.745908735,-0.61608729,0.25707942
1764505490.144127,-3.90656,4.56274,1.00716,0.74535942,-0.61681971,0.257872875
1764505490.144127,-3.90656,4.56274,1.00716,0.74535942,-0.61681971,0.257872875
1764505490.144127,-3.90656,4.56274,1.00716,0.74535942,-0.61681971,0.257872875
1764505490.144127,-3.90656,4.56274,1.00716,0.74535942,-0.61681971,0.257872875
1764505490.144127,-3.90656,4.56274,1.00716,0.74535942,-0.61681971,0.257872875
1764505490.144127,-3.90656,4.56274,1.00716,0.74535942,-0.61681971,0.257872875
1764505490.144127,-3.90656,4.56274,1.00716,0.74535942,-0.61681971,0.257872875
1764505490.144127,-3.90656,4.56274,1.00716,0.74535942,-0.61681971,0.257872875
1764505490.144127,-3.90656,4.56274,1.00716,0.74535942,-0.61681971,0.257872875
1764505490.144127,-3.90656,4.56274,1.00716,0.74535942,-0.61681971,0.257872875
1764505490.144127,0.28994,4.2728,0.8087799999999999,0.74511528,-0.61706385,0.258361155
1764505490.144127,0.28994,4.2728,0.8087799999999999,0.74511528,-0.61706385,0.258361155
1764505490.1916103,0.28994,4.2728,0.8087799999999999,0.74511528,-0.61706385,0.258361155
1764505490.1916103,0.28994,4.2728,0.8087799999999999,0.74511528,-0.61706385,0.258361155
1764505490.1916103,0.28994,4.2728,0.8087799999999999,0.74511528,-0.61706385,0.258361155
1764505490.1916103,0.28994,4.2728,0.8087799999999999,0.74511528,-0.61706385,0.258361155
1764505490.1916103,0.28994,4.2728,0.8087799999999999,0.74511528,-0.61706385,0.258361155
1764505490.1916103,0.28994,4.2728,0.8087799999999999,0.74511528,-0.61706385,0.258361155
1764505490.1916103,0.28994,4.2728,0.8087799999999999,0.74511528,-0.61706385,0.258361155
1764505490.1916103,0.28994,4.2728,0.8087799999999999,0.74511528,-0.61706385,0.258361155
1764505490.1916103,0.01526,3.46402,0.82404,0.745908735,-0.61657557,0.259825995
1764505490.192625,0.01526,3.46402,0.82404,0.745908735,-0.61657557,0.259825995
1764505490.192625,0.01526,3.46402,0.82404,0.745908735,-0.61657557,0.259825995
1764505490.192625,0.01526,3.46402,0.82404,0.745908735,-0.61657557,0.259825995
1764505490.192625,0.01526,3.46402,0.82404,0.745908735,-0.61657557,0.259825995
1764505490.192625,0.01526,3.46402,0.82404,0.745908735,-0.61657557,0.259825995
1764505490.192625,0.01526,3.46402,0.82404,0.745908735,-0.61657557,0.259825995
1764505490.192625,0.01526,3.46402,0.82404,0.745908735,-0.61657557,0.259825995
1764505490.192625,0.01526,3.46402,0.82404,0.745908735,-0.61657557,0.259825995
1764505490.192625,0.01526,3.46402,0.82404,0.745908735,-0.61657557,0.259825995
1764505490.192625,-0.763,2.96044,0.85456,0.74621391,-0.61608729,0.25952082
1764505490.192625,-0.763,2.96044,0.85456,0.74621391,-0.61608729,0.25952082
1764505490.192625,-0.763,2.96044,0.85456,0.74621391,-0.61608729,0.25952082
1764505490.192625,-0.763,2.96044,0.85456,0.74621391,-0.61608729,0.25952082
1764505490.192625,-0.763,2.96044,0.85456,0.74621391,-0.61608729,0.25952082
1764505490.192625,-0.763,2.96044,0.85456,0.74621391,-0.61608729,0.25952082
1764505490.2401636,-0.763,2.96044,0.85456,0.74621391,-0.61608729,0.25952082
1764505490.2401636,-0.763,2.96044,0.85456,0.74621391,-0.61608729,0.25952082
1764505490.2401636,-0.763,2.96044,0.85456,0.74621391,-0.61608729,0.25952082
1764505490.2401636,-0.763,2.96044,0.85456,0.74621391,-0.61608729,0.25952082
1764505490.2401636,-0.97664,2.92992,1.2208,0.745176315,-0.616392465,0.2587884
1764505490.2401636,-0.97664,2.92992,1.2208,0.745176315,-0.616392465,0.2587884
1764505490.2401636,-0.97664,2.92992,1.2208,0.745176315,-0.616392465,0.2587884
1764505490.2401636,-0.97664,2.92992,1.2208,0.745176315,-0.616392465,0.2587884
1764505490.2401636,-0.97664,2.92992,1.2208,0.745176315,-0.616392465,0.2587884
1764505490.2401636,-0.97664,2.92992,1.2208,0.745176315,-0.616392465,0.2587884
1764505490.241186,-0.97664,2.92992,1.2208,0.745176315,-0.616392465,0.2587884
1764505490.241186,-0.97664,2.92992,1.2208,0.745176315,-0.616392465,0.2587884
1764505490.241186,-0.97664,2.92992,1.2208,0.745176315,-0.616392465,0.2587884
1764505490.241186,-0.97664,2.92992,1.2208,0.745176315,-0.616392465,0.2587884
1764505490.241186,-0.54936,3.2809,1.12924,0.74499321,-0.616148325,0.257750805
1764505490.241186,-0.54936,3.2809,1.12924,0.74499321,-0.616148325,0.257750805
1764505490.241186,-0.54936,3.2809,1.12924,0.74499321,-0.616148325,0.257750805
1764505490.2421727,-0.54936,3.2809,1.12924,0.74499321,-0.616148325,0.257750805
1764505490.2421727,-0.54936,3.2809,1.12924,0.74499321,-0.616148325,0.257750805
1764505490.2421727,-0.54936,3.2809,1.12924,0.74499321,-0.616148325,0.257750805
1764505490.2421727,-0.54936,3.2809,1.12924,0.74499321,-0.616148325,0.257750805
1764505490.2421727,-0.54936,3.2809,1.12924,0.74499321,-0.616148325,0.257750805
1764505490.2421727,-0.54936,3.2809,1.12924,0.74499321,-0.616148325,0.257750805
1764505490.2421727,-0.54936,3.2809,1.12924,0.74499321,-0.616148325,0.257750805
1764505490.2847233,-0.04578,3.61662,1.58704,0.745298385,-0.615293835,0.257384595
1764505490.2847233,-0.04578,3.61662,1.58704,0.745298385,-0.615293835,0.257384595
1764505490.2847233,-0.04578,3.61662,1.58704,0.745298385,-0.615293835,0.257384595
1764505490.2847233,-0.04578,3.61662,1.58704,0.745298385,-0.615293835,0.257384595
1764505490.2857273,-0.04578,3.61662,1.58704,0.745298385,-0.615293835,0.257384595
1764505490.2857273,-0.04578,3.61662,1.58704,0.745298385,-0.615293835,0.257384595
1764505490.2857273,-0.04578,3.61662,1.58704,0.745298385,-0.615293835,0.257384595
1764505490.2857273,-0.04578,3.61662,1.58704,0.745298385,-0.615293835,0.257384595
1764505490.2857273,-0.04578,3.61662,1.58704,0.745298385,-0.615293835,0.257384595
1764505490.2857273,-0.04578,3.61662,1.58704,0.745298385,-0.615293835,0.257384595
1764505490.2857273,-0.28994,4.02864,1.02242,0.744688035,-0.616270395,0.25695735
1764505490.2857273,-0.28994,4.02864,1.02242,0.744688035,-0.616270395,0.25695735
1764505490.2857273,-0.28994,4.02864,1.02242,0.744688035,-0.616270395,0.25695735
1764505490.2857273,-0.28994,4.02864,1.02242,0.744688035,-0.616270395,0.25695735
1764505490.2857273,-0.28994,4.02864,1.02242,0.744688035,-0.616270395,0.25695735
1764505490.286719,-0.28994,4.02864,1.02242,0.744688035,-0.616270395,0.25695735
1764505490.286719,-0.28994,4.02864,1.02242,0.744688035,-0.616270395,0.25695735
1764505490.286719,-0.28994,4.02864,1.02242,0.744688035,-0.616270395,0.25695735
1764505490.286719,-0.28994,4.02864,1.02242,0.744688035,-0.616270395,0.25695735
1764505490.286719,-0.28994,4.02864,1.02242,0.744688035,-0.616270395,0.25695735
1764505490.286719,-0.39676,4.577999999999999,0.8698199999999999,0.744810105,-0.61620936,0.257140455
1764505490.286719,-0.39676,4.577999999999999,0.8698199999999999,0.744810105,-0.61620936,0.257140455
1764505490.286719,-0.39676,4.577999999999999,0.8698199999999999,0.744810105,-0.61620936,0.257140455
1764505490.286719,-0.39676,4.577999999999999,0.8698199999999999,0.744810105,-0.61620936,0.257140455
1764505490.330845,-0.39676,4.577999999999999,0.8698199999999999,0.744810105,-0.61620936,0.257140455
1764505490.330845,-0.39676,4.577999999999999,0.8698199999999999,0.744810105,-0.61620936,0.257140455
1764505490.3318615,-0.39676,4.577999999999999,0.8698199999999999,0.744810105,-0.61620936,0.257140455
1764505490.3318615,-0.39676,4.577999999999999,0.8698199999999999,0.744810105,-0.61620936,0.257140455
1764505490.3318615,-0.39676,4.577999999999999,0.8698199999999999,0.744810105,-0.61620936,0.257140455
1764505490.3318615,-0.39676,4.577999999999999,0.8698199999999999,0.744810105,-0.61620936,0.257140455
1764505490.3318615,-0.18312,4.51696,0.56462,0.74426079,-0.61657557,0.25732356
1764505490.3318615,-0.18312,4.51696,0.56462,0.74426079,-0.61657557,0.25732356
1764505490.3318615,-0.18312,4.51696,0.56462,0.74426079,-0.61657557,0.25732356
1764505490.3318615,-0.18312,4.51696,0.56462,0.74426079,-0.61657557,0.25732356
1764505490.3318615,-0.18312,4.51696,0.56462,0.74426079,-0.61657557,0.25732356
1764505490.3318615,-0.18312,4.51696,0.56462,0.74426079,-0.61657557,0.25732356
1764505490.3318615,-0.18312,4.51696,0.56462,0.74426079,-0.61657557,0.25732356
1764505490.3318615,-0.18312,4.51696,0.56462,0.74426079,-0.61657557,0.25732356
1764505490.3318615,-0.18312,4.51696,0.56462,0.74426079,-0.61657557,0.25732356
1764505490.3318615,-0.18312,4.51696,0.56462,0.74426079,-0.61657557,0.25732356
1764505490.3318615,-0.57988,4.94424,0.763,0.74499321,-0.61669764,0.257994945
1764505490.3318615,-0.57988,4.94424,0.763,0.74499321,-0.61669764,0.257994945
1764505490.3333728,-0.57988,4.94424,0.763,0.74499321,-0.61669764,0.257994945
1764505490.3333728,-0.57988,4.94424,0.763,0.74499321,-0.61669764,0.257994945
1764505490.3333728,-0.57988,4.94424,0.763,0.74499321,-0.61669764,0.257994945
1764505490.3333728,-0.57988,4.94424,0.763,0.74499321,-0.61669764,0.257994945
1764505490.3333728,-0.57988,4.94424,0.763,0.74499321,-0.61669764,0.257994945
1764505490.3333728,-0.57988,4.94424,0.763,0.74499321,-0.61669764,0.257994945
1764505490.3778465,-0.57988,4.94424,0.763,0.74499321,-0.61669764,0.257994945
1764505490.3778465,-0.57988,4.94424,0.763,0.74499321,-0.61669764,0.257994945
1764505490.3778465,-0.3204599999999999,4.77638,0.8087799999999999,0.745420455,-0.6166366050000001,0.25842219
1764505490.3778465,-0.3204599999999999,4.77638,0.8087799999999999,0.745420455,-0.6166366050000001,0.25842219
1764505490.3778465,-0.3204599999999999,4.77638,0.8087799999999999,0.745420455,-0.6166366050000001,0.25842219
1764505490.3778465,-0.3204599999999999,4.77638,0.8087799999999999,0.745420455,-0.6166366050000001,0.25842219
1764505490.3778465,-0.3204599999999999,4.77638,0.8087799999999999,0.745420455,-0.6166366050000001,0.25842219
1764505490.3778465,-0.3204599999999999,4.77638,0.8087799999999999,0.745420455,-0.6166366050000001,0.25842219
1764505490.3778465,-0.3204599999999999,4.77638,0.8087799999999999,0.745420455,-0.6166366050000001,0.25842219
1764505490.3778465,-0.3204599999999999,4.77638,0.8087799999999999,0.745420455,-0.6166366050000001,0.25842219
1764505490.3778465,-0.3204599999999999,4.77638,0.8087799999999999,0.745420455,-0.6166366050000001,0.25842219
1764505490.3778465,-0.3204599999999999,4.77638,0.8087799999999999,0.745420455,-0.6166366050000001,0.25842219
1764505490.3778465,-0.39676,4.8832,0.77826,0.745176315,-0.61633143,0.258483225
1764505490.3778465,-0.39676,4.8832,0.77826,0.745176315,-0.61633143,0.258483225
1764505490.3778465,-0.39676,4.8832,0.77826,0.745176315,-0.61633143,0.258483225
1764505490.3788595,-0.39676,4.8832,0.77826,0.745176315,-0.61633143,0.258483225
1764505490.3788595,-0.39676,4.8832,0.77826,0.745176315,-0.61633143,0.258483225
1764505490.3788595,-0.39676,4.8832,0.77826,0.745176315,-0.61633143,0.258483225
1764505490.3788595,-0.39676,4.8832,0.77826,0.745176315,-0.61633143,0.258483225
1764505490.3788595,-0.39676,4.8832,0.77826,0.745176315,-0.61633143,0.258483225
1764505490.4246962,-0.39676,4.8832,0.77826,0.745176315,-0.61633143,0.258483225
1764505490.4246962,-0.39676,4.8832,0.77826,0.745176315,-0.61633143,0.258483225
1764505490.425699,-0.13734,5.06632,1.11398,0.74548149,-0.615782115,0.258483225
1764505490.425699,-0.13734,5.06632,1.11398,0.74548149,-0.615782115,0.258483225
1764505490.425699,-0.13734,5.06632,1.11398,0.74548149,-0.615782115,0.258483225
1764505490.425699,-0.13734,5.06632,1.11398,0.74548149,-0.615782115,0.258483225
1764505490.425699,-0.13734,5.06632,1.11398,0.74548149,-0.615782115,0.258483225
1764505490.425699,-0.13734,5.06632,1.11398,0.74548149,-0.615782115,0.258483225
1764505490.425699,-0.13734,5.06632,1.11398,0.74548149,-0.615782115,0.258483225
1764505490.4266973,-0.13734,5.06632,1.11398,0.74548149,-0.615782115,0.258483225
1764505490.4266973,-0.13734,5.06632,1.11398,0.74548149,-0.615782115,0.258483225
1764505490.4266973,-0.13734,5.06632,1.11398,0.74548149,-0.615782115,0.258483225
1764505490.4266973,-0.25942,4.68482,1.12924,0.745176315,-0.61572108,0.258971505
1764505490.4266973,-0.25942,4.68482,1.12924,0.745176315,-0.61572108,0.258971505
1764505490.4276922,-0.25942,4.68482,1.12924,0.745176315,-0.61572108,0.258971505
1764505490.4276922,-0.25942,4.68482,1.12924,0.745176315,-0.61572108,0.258971505
1764505490.4276922,-0.25942,4.68482,1.12924,0.745176315,-0.61572108,0.258971505
1764505490.4286947,-0.25942,4.68482,1.12924,0.745176315,-0.61572108,0.258971505
1764505490.4286947,-0.25942,4.68482,1.12924,0.745176315,-0.61572108,0.258971505
1764505490.4286947,-0.25942,4.68482,1.12924,0.745176315,-0.61572108,0.258971505
1764505490.4286947,-0.25942,4.68482,1.12924,0.745176315,-0.61572108,0.258971505
1764505490.4286947,-0.25942,4.68482,1.12924,0.745176315,-0.61572108,0.258971505
1764505490.4286947,0.21364,4.39488,1.12924,0.744932175,-0.615904185,0.25915461
1764505490.4286947,0.21364,4.39488,1.12924,0.744932175,-0.615904185,0.25915461
1764505490.472342,0.21364,4.39488,1.12924,0.744932175,-0.615904185,0.25915461
1764505490.472891,0.21364,4.39488,1.12924,0.744932175,-0.615904185,0.25915461
1764505490.472891,0.21364,4.39488,1.12924,0.744932175,-0.615904185,0.25915461
1764505490.472891,0.21364,4.39488,1.12924,0.744932175,-0.615904185,0.25915461
1764505490.472891,0.21364,4.39488,1.12924,0.744932175,-0.615904185,0.25915461
1764505490.472891,0.21364,4.39488,1.12924,0.744932175,-0.615904185,0.25915461
1764505490.472891,0.21364,4.39488,1.12924,0.744932175,-0.615904185,0.25915461
1764505490.472891,0.21364,4.39488,1.12924,0.744932175,-0.615904185,0.25915461
1764505490.472891,-0.18312,3.61662,1.15976,0.745664595,-0.61596522,0.25976496
1764505490.472891,-0.18312,3.61662,1.15976,0.745664595,-0.61596522,0.25976496
1764505490.472891,-0.18312,3.61662,1.15976,0.745664595,-0.61596522,0.25976496
1764505490.472891,-0.18312,3.61662,1.15976,0.745664595,-0.61596522,0.25976496
1764505490.472891,-0.18312,3.61662,1.15976,0.745664595,-0.61596522,0.25976496
1764505490.472891,-0.18312,3.61662,1.15976,0.745664595,-0.61596522,0.25976496
1764505490.472891,-0.18312,3.61662,1.15976,0.745664595,-0.61596522,0.25976496
1764505490.472891,-0.18312,3.61662,1.15976,0.745664595,-0.61596522,0.25976496
1764505490.472891,-0.18312,3.61662,1.15976,0.745664595,-0.61596522,0.25976496
1764505490.472891,-0.18312,3.61662,1.15976,0.745664595,-0.61596522,0.25976496
1764505490.472891,-0.57988,3.49454,1.58704,0.74535942,-0.616026255,0.260192205
1764505490.472891,-0.57988,3.49454,1.58704,0.74535942,-0.616026255,0.260192205
1764505490.472891,-0.57988,3.49454,1.58704,0.74535942,-0.616026255,0.260192205
1764505490.472891,-0.57988,3.49454,1.58704,0.74535942,-0.616026255,0.260192205
1764505490.472891,-0.57988,3.49454,1.58704,0.74535942,-0.616026255,0.260192205
1764505490.472891,-0.57988,3.49454,1.58704,0.74535942,-0.616026255,0.260192205
1764505490.5216997,-0.57988,3.49454,1.58704,0.74535942,-0.616026255,0.260192205
1764505490.5216997,-0.57988,3.49454,1.58704,0.74535942,-0.616026255,0.260192205
1764505490.5216997,-0.57988,3.49454,1.58704,0.74535942,-0.616026255,0.260192205
1764505490.5216997,-0.57988,3.49454,1.58704,0.74535942,-0.616026255,0.260192205
1764505490.5216997,-0.25942,3.44876,1.43444,0.744627,-0.615904185,0.26061945
1764505490.5216997,-0.25942,3.44876,1.43444,0.744627,-0.615904185,0.26061945
1764505490.5216997,-0.25942,3.44876,1.43444,0.744627,-0.615904185,0.26061945
1764505490.5216997,-0.25942,3.44876,1.43444,0.744627,-0.615904185,0.26061945
1764505490.5216997,-0.25942,3.44876,1.43444,0.744627,-0.615904185,0.26061945
1764505490.5216997,-0.25942,3.44876,1.43444,0.744627,-0.615904185,0.26061945
1764505490.5216997,-0.25942,3.44876,1.43444,0.744627,-0.615904185,0.26061945
1764505490.5216997,-0.25942,3.44876,1.43444,0.744627,-0.615904185,0.26061945
1764505490.5216997,-0.25942,3.44876,1.43444,0.744627,-0.615904185,0.26061945
1764505490.5216997,-0.25942,3.44876,1.43444,0.744627,-0.615904185,0.26061945
1764505490.5216997,-0.28994,3.44876,1.32762,0.744321825,-0.61633143,0.26025324
1764505490.5216997,-0.28994,3.44876,1.32762,0.744321825,-0.61633143,0.26025324
1764505490.522697,-0.28994,3.44876,1.32762,0.744321825,-0.61633143,0.26025324
1764505490.522697,-0.28994,3.44876,1.32762,0.744321825,-0.61633143,0.26025324
1764505490.522697,-0.28994,3.44876,1.32762,0.744321825,-0.61633143,0.26025324
1764505490.522697,-0.28994,3.44876,1.32762,0.744321825,-0.61633143,0.26025324
1764505490.522697,-0.28994,3.44876,1.32762,0.744321825,-0.61633143,0.26025324
1764505490.522697,-0.28994,3.44876,1.32762,0.744321825,-0.61633143,0.26025324
1764505490.522697,-0.28994,3.44876,1.32762,0.744321825,-0.61633143,0.26025324
1764505490.522697,-0.28994,3.44876,1.32762,0.744321825,-0.61633143,0.26025324
1764505490.566051,-0.19838,3.49454,1.55652,0.7445049300000001,-0.61596522,0.259703925
1764505490.566051,-0.19838,3.49454,1.55652,0.7445049300000001,-0.61596522,0.259703925
1764505490.566051,-0.19838,3.49454,1.55652,0.7445049300000001,-0.61596522,0.259703925
1764505490.566051,-0.19838,3.49454,1.55652,0.7445049300000001,-0.61596522,0.259703925
1764505490.566051,-0.19838,3.49454,1.55652,0.7445049300000001,-0.61596522,0.259703925
1764505490.566051,-0.19838,3.49454,1.55652,0.7445049300000001,-0.61596522,0.259703925
1764505490.566051,-0.19838,3.49454,1.55652,0.7445049300000001,-0.61596522,0.259703925
1764505490.566584,-0.19838,3.49454,1.55652,0.7445049300000001,-0.61596522,0.259703925
1764505490.566584,-0.19838,3.49454,1.55652,0.7445049300000001,-0.61596522,0.259703925
1764505490.566584,-0.19838,3.49454,1.55652,0.7445049300000001,-0.61596522,0.259703925
1764505490.566584,-0.03052,3.23512,1.02242,0.74377251,-0.616514535,0.25891047
1764505490.566584,-0.03052,3.23512,1.02242,0.74377251,-0.616514535,0.25891047
1764505490.566584,-0.03052,3.23512,1.02242,0.74377251,-0.616514535,0.25891047
1764505490.566584,-0.03052,3.23512,1.02242,0.74377251,-0.616514535,0.25891047
1764505490.566584,-0.03052,3.23512,1.02242,0.74377251,-0.616514535,0.25891047
1764505490.566584,-0.03052,3.23512,1.02242,0.74377251,-0.616514535,0.25891047
1764505490.566584,-0.03052,3.23512,1.02242,0.74377251,-0.616514535,0.25891047
1764505490.566584,-0.03052,3.23512,1.02242,0.74377251,-0.616514535,0.25891047
1764505490.566584,-0.03052,3.23512,1.02242,0.74377251,-0.616514535,0.25891047
1764505490.566584,-0.03052,3.23512,1.02242,0.74377251,-0.616514535,0.25891047
1764505490.566584,-0.50358,3.98286,1.34288,0.74365044,-0.617369025,0.259215645
1764505490.566584,-0.50358,3.98286,1.34288,0.74365044,-0.617369025,0.259215645
1764505490.566584,-0.50358,3.98286,1.34288,0.74365044,-0.617369025,0.259215645
1764505490.566584,-0.50358,3.98286,1.34288,0.74365044,-0.617369025,0.259215645
1764505490.6097093,-0.50358,3.98286,1.34288,0.74365044,-0.617369025,0.259215645
1764505490.6097093,-0.50358,3.98286,1.34288,0.74365044,-0.617369025,0.259215645
1764505490.6097093,-0.50358,3.98286,1.34288,0.74365044,-0.617369025,0.259215645
1764505490.6097093,-0.50358,3.98286,1.34288,0.74365044,-0.617369025,0.259215645
1764505490.6097093,-0.50358,3.98286,1.34288,0.74365044,-0.617369025,0.259215645
1764505490.6097093,-0.50358,3.98286,1.34288,0.74365044,-0.617369025,0.259215645
1764505490.6107287,-0.71722,4.10494,1.6022999999999998,0.74328423,-0.61694178,0.259215645
1764505490.6107287,-0.71722,4.10494,1.6022999999999998,0.74328423,-0.61694178,0.259215645
1764505490.6107287,-0.71722,4.10494,1.6022999999999998,0.74328423,-0.61694178,0.259215645
1764505490.6107287,-0.71722,4.10494,1.6022999999999998,0.74328423,-0.61694178,0.259215645
1764505490.6107287,-0.71722,4.10494,1.6022999999999998,0.74328423,-0.61694178,0.259215645
1764505490.6107287,-0.71722,4.10494,1.6022999999999998,0.74328423,-0.61694178,0.259215645
1764505490.6107287,-0.71722,4.10494,1.6022999999999998,0.74328423,-0.61694178,0.259215645
1764505490.6107287,-0.71722,4.10494,1.6022999999999998,0.74328423,-0.61694178,0.259215645
1764505490.6107287,-0.71722,4.10494,1.6022999999999998,0.74328423,-0.61694178,0.259215645
1764505490.6107287,-0.71722,4.10494,1.6022999999999998,0.74328423,-0.61694178,0.259215645
1764505490.6107287,-0.10682,4.39488,1.4039199999999998,0.74438286,-0.61743006,0.259337715
1764505490.6107287,-0.10682,4.39488,1.4039199999999998,0.74438286,-0.61743006,0.259337715
1764505490.6107287,-0.10682,4.39488,1.4039199999999998,0.74438286,-0.61743006,0.259337715
1764505490.6107287,-0.10682,4.39488,1.4039199999999998,0.74438286,-0.61743006,0.259337715
1764505490.6107287,-0.10682,4.39488,1.4039199999999998,0.74438286,-0.61743006,0.259337715
1764505490.6107287,-0.10682,4.39488,1.4039199999999998,0.74438286,-0.61743006,0.259337715
1764505490.6594076,-0.10682,4.39488,1.4039199999999998,0.74438286,-0.61743006,0.259337715
1764505490.6594076,-0.10682,4.39488,1.4039199999999998,0.74438286,-0.61743006,0.259337715
1764505490.6594076,-0.10682,4.39488,1.4039199999999998,0.74438286,-0.61743006,0.259337715
1764505490.6594076,-0.10682,4.39488,1.4039199999999998,0.74438286,-0.61743006,0.259337715
1764505490.6594076,-0.8087799999999999,3.44876,0.73248,0.744565965,-0.61743006,0.25976496
1764505490.6594076,-0.8087799999999999,3.44876,0.73248,0.744565965,-0.61743006,0.25976496
1764505490.6594076,-0.8087799999999999,3.44876,0.73248,0.744565965,-0.61743006,0.25976496
1764505490.6594076,-0.8087799999999999,3.44876,0.73248,0.744565965,-0.61743006,0.25976496
1764505490.6594076,-0.8087799999999999,3.44876,0.73248,0.744565965,-0.61743006,0.25976496
1764505490.6594076,-0.8087799999999999,3.44876,0.73248,0.744565965,-0.61743006,0.25976496
1764505490.6594076,-0.8087799999999999,3.44876,0.73248,0.744565965,-0.61743006,0.25976496
1764505490.6594076,-0.8087799999999999,3.44876,0.73248,0.744565965,-0.61743006,0.25976496
1764505490.6594076,-0.8087799999999999,3.44876,0.73248,0.744565965,-0.61743006,0.25976496
1764505490.6594076,-0.8087799999999999,3.44876,0.73248,0.744565965,-0.61743006,0.25976496
1764505490.6594076,-1.4039199999999998,2.27374,0.10682,0.7440166500000001,-0.617735235,0.260070135
1764505490.6594076,-1.4039199999999998,2.27374,0.10682,0.7440166500000001,-0.617735235,0.260070135
1764505490.6594076,-1.4039199999999998,2.27374,0.10682,0.7440166500000001,-0.617735235,0.260070135
1764505490.6594076,-1.4039199999999998,2.27374,0.10682,0.7440166500000001,-0.617735235,0.260070135
1764505490.6594076,-1.4039199999999998,2.27374,0.10682,0.7440166500000001,-0.617735235,0.260070135
1764505490.6594076,-1.4039199999999998,2.27374,0.10682,0.7440166500000001,-0.617735235,0.260070135
1764505490.6594076,-1.4039199999999998,2.27374,0.10682,0.7440166500000001,-0.617735235,0.260070135
1764505490.6594076,-1.4039199999999998,2.27374,0.10682,0.7440166500000001,-0.617735235,0.260070135
1764505490.6594076,-1.4039199999999998,2.27374,0.10682,0.7440166500000001,-0.617735235,0.260070135
1764505490.6594076,-1.4039199999999998,2.27374,0.10682,0.7440166500000001,-0.617735235,0.260070135
1764505490.704202,-1.4039199999999998,3.5861,0.24416,0.743589405,-0.617491095,0.259703925
1764505490.704202,-1.4039199999999998,3.5861,0.24416,0.743589405,-0.617491095,0.259703925
1764505490.704202,-1.4039199999999998,3.5861,0.24416,0.743589405,-0.617491095,0.259703925
1764505490.704202,-1.4039199999999998,3.5861,0.24416,0.743589405,-0.617491095,0.259703925
1764505490.704202,-1.4039199999999998,3.5861,0.24416,0.743589405,-0.617491095,0.259703925
1764505490.704202,-1.4039199999999998,3.5861,0.24416,0.743589405,-0.617491095,0.259703925
1764505490.704202,-1.4039199999999998,3.5861,0.24416,0.743589405,-0.617491095,0.259703925
1764505490.704202,-1.4039199999999998,3.5861,0.24416,0.743589405,-0.617491095,0.259703925
1764505490.704202,-1.4039199999999998,3.5861,0.24416,0.743589405,-0.617491095,0.259703925
1764505490.704202,-1.4039199999999998,3.5861,0.24416,0.743589405,-0.617491095,0.259703925
1764505490.704202,-0.93086,3.7387,0.6103999999999999,0.744077685,-0.61669764,0.258727365
1764505490.7062187,-0.93086,3.7387,0.6103999999999999,0.744077685,-0.61669764,0.258727365
1764505490.7062187,-0.93086,3.7387,0.6103999999999999,0.744077685,-0.61669764,0.258727365
1764505490.7062187,-0.93086,3.7387,0.6103999999999999,0.744077685,-0.61669764,0.258727365
1764505490.7062187,-0.93086,3.7387,0.6103999999999999,0.744077685,-0.61669764,0.258727365
1764505490.707221,-0.93086,3.7387,0.6103999999999999,0.744077685,-0.61669764,0.258727365
1764505490.707221,-0.93086,3.7387,0.6103999999999999,0.744077685,-0.61669764,0.258727365
1764505490.707221,-0.93086,3.7387,0.6103999999999999,0.744077685,-0.61669764,0.258727365
1764505490.7082148,-0.93086,3.7387,0.6103999999999999,0.744077685,-0.61669764,0.258727365
1764505490.7082148,-0.93086,3.7387,0.6103999999999999,0.744077685,-0.61669764,0.258727365
1764505490.7082148,0.36624,4.1965,1.00716,0.7440166500000001,-0.61608729,0.258727365
1764505490.7082148,0.36624,4.1965,1.00716,0.7440166500000001,-0.61608729,0.258727365
1764505490.7537165,0.36624,4.1965,1.00716,0.7440166500000001,-0.61608729,0.258727365
1764505490.7537165,0.36624,4.1965,1.00716,0.7440166500000001,-0.61608729,0.258727365
1764505490.7537165,0.36624,4.1965,1.00716,0.7440166500000001,-0.61608729,0.258727365
1764505490.7537165,0.36624,4.1965,1.00716,0.7440166500000001,-0.61608729,0.258727365
1764505490.7537165,0.36624,4.1965,1.00716,0.7440166500000001,-0.61608729,0.258727365
1764505490.7537165,0.36624,4.1965,1.00716,0.7440166500000001,-0.61608729,0.258727365
1764505490.7537165,0.36624,4.1965,1.00716,0.7440166500000001,-0.61608729,0.258727365
1764505490.7537165,0.36624,4.1965,1.00716,0.7440166500000001,-0.61608729,0.258727365
1764505490.7537165,-0.3815,4.01338,1.23606,0.74328423,-0.61633143,0.259337715
1764505490.7537165,-0.3815,4.01338,1.23606,0.74328423,-0.61633143,0.259337715
1764505490.7537165,-0.3815,4.01338,1.23606,0.74328423,-0.61633143,0.259337715
1764505490.7537165,-0.3815,4.01338,1.23606,0.74328423,-0.61633143,0.259337715
1764505490.7537165,-0.3815,4.01338,1.23606,0.74328423,-0.61633143,0.259337715
1764505490.7537165,-0.3815,4.01338,1.23606,0.74328423,-0.61633143,0.259337715
1764505490.7537165,-0.3815,4.01338,1.23606,0.74328423,-0.61633143,0.259337715
1764505490.7537165,-0.3815,4.01338,1.23606,0.74328423,-0.61633143,0.259337715
1764505490.7537165,-0.3815,4.01338,1.23606,0.74328423,-0.61633143,0.259337715
1764505490.754729,-0.3815,4.01338,1.23606,0.74328423,-0.61633143,0.259337715
1764505490.754729,-0.57988,3.83026,0.8698199999999999,0.743589405,-0.61633143,0.259825995
1764505490.754729,-0.57988,3.83026,0.8698199999999999,0.743589405,-0.61633143,0.259825995
1764505490.754729,-0.57988,3.83026,0.8698199999999999,0.743589405,-0.61633143,0.259825995
1764505490.754729,-0.57988,3.83026,0.8698199999999999,0.743589405,-0.61633143,0.259825995
1764505490.754729,-0.57988,3.83026,0.8698199999999999,0.743589405,-0.61633143,0.259825995
1764505490.754729,-0.57988,3.83026,0.8698199999999999,0.743589405,-0.61633143,0.259825995
1764505490.7981312,-0.57988,3.83026,0.8698199999999999,0.743589405,-0.61633143,0.259825995
1764505490.7981312,-0.57988,3.83026,0.8698199999999999,0.743589405,-0.61633143,0.259825995
1764505490.7981312,-0.57988,3.83026,0.8698199999999999,0.743589405,-0.61633143,0.259825995
1764505490.7981312,-0.57988,3.83026,0.8698199999999999,0.743589405,-0.61633143,0.259825995
1764505490.7981312,-0.51884,2.80784,1.26658,0.7440166500000001,-0.61657557,0.260436345
1764505490.7981312,-0.51884,2.80784,1.26658,0.7440166500000001,-0.61657557,0.260436345
1764505490.7981312,-0.51884,2.80784,1.26658,0.7440166500000001,-0.61657557,0.260436345
1764505490.7981312,-0.51884,2.80784,1.26658,0.7440166500000001,-0.61657557,0.260436345
1764505490.7981312,-0.51884,2.80784,1.26658,0.7440166500000001,-0.61657557,0.260436345
1764505490.7981312,-0.51884,2.80784,1.26658,0.7440166500000001,-0.61657557,0.260436345
1764505490.7981312,-0.51884,2.80784,1.26658,0.7440166500000001,-0.61657557,0.260436345
1764505490.7981312,-0.51884,2.80784,1.26658,0.7440166500000001,-0.61657557,0.260436345
1764505490.7981312,-0.51884,2.80784,1.26658,0.7440166500000001,-0.61657557,0.260436345
1764505490.7981312,-0.51884,2.80784,1.26658,0.7440166500000001,-0.61657557,0.260436345
1764505490.7981312,-0.94612,2.70102,0.94612,0.74413872,-0.617491095,0.260192205
1764505490.7981312,-0.94612,2.70102,0.94612,0.74413872,-0.617491095,0.260192205
1764505490.7981312,-0.94612,2.70102,0.94612,0.74413872,-0.617491095,0.260192205
1764505490.7981312,-0.94612,2.70102,0.94612,0.74413872,-0.617491095,0.260192205
1764505490.7981312,-0.94612,2.70102,0.94612,0.74413872,-0.617491095,0.260192205
1764505490.7981312,-0.94612,2.70102,0.94612,0.74413872,-0.617491095,0.260192205
1764505490.7981312,-0.94612,2.70102,0.94612,0.74413872,-0.617491095,0.260192205
1764505490.7981312,-0.94612,2.70102,0.94612,0.74413872,-0.617491095,0.260192205
1764505490.7991662,-0.94612,2.70102,0.94612,0.74413872,-0.617491095,0.260192205
1764505490.7991662,-0.94612,2.70102,0.94612,0.74413872,-0.617491095,0.260192205
1764505490.8462296,-1.11398,2.99096,0.09156,0.74487114,-0.61779627,0.25988703
1764505490.8462296,-1.11398,2.99096,0.09156,0.74487114,-0.61779627,0.25988703
1764505490.8462296,-1.11398,2.99096,0.09156,0.74487114,-0.61779627,0.25988703
1764505490.8462296,-1.11398,2.99096,0.09156,0.74487114,-0.61779627,0.25988703
1764505490.8462296,-1.11398,2.99096,0.09156,0.74487114,-0.61779627,0.25988703
1764505490.8477564,-1.11398,2.99096,0.09156,0.74487114,-0.61779627,0.25988703
1764505490.8477564,-1.11398,2.99096,0.09156,0.74487114,-0.61779627,0.25988703
1764505490.8477564,-1.11398,2.99096,0.09156,0.74487114,-0.61779627,0.25988703
1764505490.8477564,-1.11398,2.99096,0.09156,0.74487114,-0.61779627,0.25988703
1764505490.8477564,-1.11398,2.99096,0.09156,0.74487114,-0.61779627,0.25988703
1764505490.8477564,-1.28184,3.47928,-0.09156,0.744627,-0.61706385,0.25915461
1764505490.8477564,-1.28184,3.47928,-0.09156,0.744627,-0.61706385,0.25915461
1764505490.8477564,-1.28184,3.47928,-0.09156,0.744627,-0.61706385,0.25915461
1764505490.8477564,-1.28184,3.47928,-0.09156,0.744627,-0.61706385,0.25915461
1764505490.8477564,-1.28184,3.47928,-0.09156,0.744627,-0.61706385,0.25915461
1764505490.8477564,-1.28184,3.47928,-0.09156,0.744627,-0.61706385,0.25915461
1764505490.8477564,-1.28184,3.47928,-0.09156,0.744627,-0.61706385,0.25915461
1764505490.8477564,-1.28184,3.47928,-0.09156,0.744627,-0.61706385,0.25915461
1764505490.8477564,-1.28184,3.47928,-0.09156,0.744627,-0.61706385,0.25915461
1764505490.8477564,-1.28184,3.47928,-0.09156,0.744627,-0.61706385,0.25915461
1764505490.8477564,-1.2208,4.28806,-0.8392999999999999,0.743589405,-0.617857305,0.258483225
1764505490.8477564,-1.2208,4.28806,-0.8392999999999999,0.743589405,-0.617857305,0.258483225
1764505490.8477564,-1.2208,4.28806,-0.8392999999999999,0.743589405,-0.617857305,0.258483225
1764505490.8477564,-1.2208,4.28806,-0.8392999999999999,0.743589405,-0.617857305,0.258483225
1764505490.8922846,-1.2208,4.28806,-0.8392999999999999,0.743589405,-0.617857305,0.258483225
1764505490.8922846,-1.2208,4.28806,-0.8392999999999999,0.743589405,-0.617857305,0.258483225
1764505490.8922846,-1.2208,4.28806,-0.8392999999999999,0.743589405,-0.617857305,0.258483225
1764505490.8922846,-1.2208,4.28806,-0.8392999999999999,0.743589405,-0.617857305,0.258483225
1764505490.8922846,-1.2208,4.28806,-0.8392999999999999,0.743589405,-0.617857305,0.258483225
1764505490.8922846,-1.2208,4.28806,-0.8392999999999999,0.743589405,-0.617857305,0.258483225
1764505490.8922846,-1.19028,4.059159999999999,-1.87698,0.74352837,-0.6176742000000001,0.259703925
1764505490.8922846,-1.19028,4.059159999999999,-1.87698,0.74352837,-0.6176742000000001,0.259703925
1764505490.8922846,-1.19028,4.059159999999999,-1.87698,0.74352837,-0.6176742000000001,0.259703925
1764505490.8922846,-1.19028,4.059159999999999,-1.87698,0.74352837,-0.6176742000000001,0.259703925
1764505490.8922846,-1.19028,4.059159999999999,-1.87698,0.74352837,-0.6176742000000001,0.259703925
1764505490.8922846,-1.19028,4.059159999999999,-1.87698,0.74352837,-0.6176742000000001,0.259703925
1764505490.8922846,-1.19028,4.059159999999999,-1.87698,0.74352837,-0.6176742000000001,0.259703925
1764505490.8922846,-1.19028,4.059159999999999,-1.87698,0.74352837,-0.6176742000000001,0.259703925
1764505490.8922846,-1.19028,4.059159999999999,-1.87698,0.74352837,-0.6176742000000001,0.259703925
1764505490.8922846,-1.19028,4.059159999999999,-1.87698,0.74352837,-0.6176742000000001,0.259703925
1764505490.8922846,-1.32762,3.5098,-2.07536,0.744443895,-0.617491095,0.260558415
1764505490.8922846,-1.32762,3.5098,-2.07536,0.744443895,-0.617491095,0.260558415
1764505490.8922846,-1.32762,3.5098,-2.07536,0.744443895,-0.617491095,0.260558415
1764505490.8922846,-1.32762,3.5098,-2.07536,0.744443895,-0.617491095,0.260558415
1764505490.893793,-1.32762,3.5098,-2.07536,0.744443895,-0.617491095,0.260558415
1764505490.893793,-1.32762,3.5098,-2.07536,0.744443895,-0.617491095,0.260558415
1764505490.937985,-1.32762,3.5098,-2.07536,0.744443895,-0.617491095,0.260558415
1764505490.937985,-1.32762,3.5098,-2.07536,0.744443895,-0.617491095,0.260558415
1764505490.937985,-1.32762,3.5098,-2.07536,0.744443895,-0.617491095,0.260558415
1764505490.937985,-1.32762,3.5098,-2.07536,0.744443895,-0.617491095,0.260558415
1764505490.937985,-2.35004,3.03674,-1.9075,0.74487114,-0.616880745,0.26135187
1764505490.937985,-2.35004,3.03674,-1.9075,0.74487114,-0.616880745,0.26135187
1764505490.937985,-2.35004,3.03674,-1.9075,0.74487114,-0.616880745,0.26135187
1764505490.937985,-2.35004,3.03674,-1.9075,0.74487114,-0.616880745,0.26135187
1764505490.937985,-2.35004,3.03674,-1.9075,0.74487114,-0.616880745,0.26135187
1764505490.937985,-2.35004,3.03674,-1.9075,0.74487114,-0.616880745,0.26135187
1764505490.937985,-2.35004,3.03674,-1.9075,0.74487114,-0.616880745,0.26135187
1764505490.937985,-2.35004,3.03674,-1.9075,0.74487114,-0.616880745,0.26135187
1764505490.937985,-2.35004,3.03674,-1.9075,0.74487114,-0.616880745,0.26135187
1764505490.9390004,-2.35004,3.03674,-1.9075,0.74487114,-0.616880745,0.26135187
1764505490.9390004,-2.27374,2.83836,-1.2055399999999998,0.74511528,-0.616270395,0.260680485
1764505490.9390004,-2.27374,2.83836,-1.2055399999999998,0.74511528,-0.616270395,0.260680485
1764505490.9390004,-2.27374,2.83836,-1.2055399999999998,0.74511528,-0.616270395,0.260680485
1764505490.9390004,-2.27374,2.83836,-1.2055399999999998,0.74511528,-0.616270395,0.260680485
1764505490.9390004,-2.27374,2.83836,-1.2055399999999998,0.74511528,-0.616270395,0.260680485
1764505490.9390004,-2.27374,2.83836,-1.2055399999999998,0.74511528,-0.616270395,0.260680485
1764505490.9390004,-2.27374,2.83836,-1.2055399999999998,0.74511528,-0.616270395,0.260680485
1764505490.9390004,-2.27374,2.83836,-1.2055399999999998,0.74511528,-0.616270395,0.260680485
1764505490.985502,-2.27374,2.83836,-1.2055399999999998,0.74511528,-0.616270395,0.260680485
1764505490.985502,-2.27374,2.83836,-1.2055399999999998,0.74511528,-0.616270395,0.260680485
1764505490.9860404,-1.77016,2.8231,-0.9156,0.74596977,-0.615782115,0.259703925
1764505490.9860404,-1.77016,2.8231,-0.9156,0.74596977,-0.615782115,0.259703925
1764505490.9860404,-1.77016,2.8231,-0.9156,0.74596977,-0.615782115,0.259703925
1764505490.9860404,-1.77016,2.8231,-0.9156,0.74596977,-0.615782115,0.259703925
1764505490.9860404,-1.77016,2.8231,-0.9156,0.74596977,-0.615782115,0.259703925
1764505490.9860404,-1.77016,2.8231,-0.9156,0.74596977,-0.615782115,0.259703925
1764505490.9860404,-1.77016,2.8231,-0.9156,0.74596977,-0.615782115,0.259703925
1764505490.9860404,-1.77016,2.8231,-0.9156,0.74596977,-0.615782115,0.259703925
1764505490.9860404,-1.77016,2.8231,-0.9156,0.74596977,-0.615782115,0.259703925
1764505490.9860404,-1.77016,2.8231,-0.9156,0.74596977,-0.615782115,0.259703925
1764505490.9860404,-1.51074,3.11304,-0.4578,0.74596977,-0.6152328,0.259215645
1764505490.9860404,-1.51074,3.11304,-0.4578,0.74596977,-0.6152328,0.259215645
1764505490.9860404,-1.51074,3.11304,-0.4578,0.74596977,-0.6152328,0.259215645
1764505490.9860404,-1.51074,3.11304,-0.4578,0.74596977,-0.6152328,0.259215645
1764505490.9860404,-1.51074,3.11304,-0.4578,0.74596977,-0.6152328,0.259215645
1764505490.9860404,-1.51074,3.11304,-0.4578,0.74596977,-0.6152328,0.259215645
1764505490.9860404,-1.51074,3.11304,-0.4578,0.74596977,-0.6152328,0.259215645
1764505490.9860404,-1.51074,3.11304,-0.4578,0.74596977,-0.6152328,0.259215645
1764505490.9860404,-1.51074,3.11304,-0.4578,0.74596977,-0.6152328,0.259215645
1764505490.9860404,-1.51074,3.11304,-0.4578,0.74596977,-0.6152328,0.259215645
1764505490.9860404,-1.25132,3.93708,-0.10682,0.74621391,-0.61486659,0.258971505
1764505490.9860404,-1.25132,3.93708,-0.10682,0.74621391,-0.61486659,0.258971505
1764505491.0341208,-1.25132,3.93708,-0.10682,0.74621391,-0.61486659,0.258971505
1764505491.0341208,-1.25132,3.93708,-0.10682,0.74621391,-0.61486659,0.258971505
1764505491.0341208,-1.25132,3.93708,-0.10682,0.74621391,-0.61486659,0.258971505
1764505491.0341208,-1.25132,3.93708,-0.10682,0.74621391,-0.61486659,0.258971505
1764505491.0341208,-1.25132,3.93708,-0.10682,0.74621391,-0.61486659,0.258971505
1764505491.0341208,-1.25132,3.93708,-0.10682,0.74621391,-0.61486659,0.258971505
1764505491.0341208,-1.25132,3.93708,-0.10682,0.74621391,-0.61486659,0.258971505
1764505491.0341208,-1.25132,3.93708,-0.10682,0.74621391,-0.61486659,0.258971505
1764505491.0341208,-1.3734,3.55558,0.2289,0.746519085,-0.615415905,0.25830012
1764505491.0341208,-1.3734,3.55558,0.2289,0.746519085,-0.615415905,0.25830012
1764505491.0341208,-1.3734,3.55558,0.2289,0.746519085,-0.615415905,0.25830012
1764505491.0341208,-1.3734,3.55558,0.2289,0.746519085,-0.615415905,0.25830012
1764505491.0341208,-1.3734,3.55558,0.2289,0.746519085,-0.615415905,0.25830012
1764505491.0351365,-1.3734,3.55558,0.2289,0.746519085,-0.615415905,0.25830012
1764505491.0351365,-1.3734,3.55558,0.2289,0.746519085,-0.615415905,0.25830012
1764505491.0351365,-1.3734,3.55558,0.2289,0.746519085,-0.615415905,0.25830012
1764505491.0351365,-1.3734,3.55558,0.2289,0.746519085,-0.615415905,0.25830012
1764505491.0351365,-1.3734,3.55558,0.2289,0.746519085,-0.615415905,0.25830012
1764505491.0351365,-1.23606,3.64714,0.82404,0.7470684,-0.61498866,0.258727365
1764505491.0351365,-1.23606,3.64714,0.82404,0.7470684,-0.61498866,0.258727365
1764505491.0351365,-1.23606,3.64714,0.82404,0.7470684,-0.61498866,0.258727365
1764505491.0351365,-1.23606,3.64714,0.82404,0.7470684,-0.61498866,0.258727365
1764505491.0351365,-1.23606,3.64714,0.82404,0.7470684,-0.61498866,0.258727365
1764505491.0366457,-1.23606,3.64714,0.82404,0.7470684,-0.61498866,0.258727365
1764505491.080523,-1.23606,3.64714,0.82404,0.7470684,-0.61498866,0.258727365
1764505491.080523,-1.23606,3.64714,0.82404,0.7470684,-0.61498866,0.258727365
1764505491.0815334,-1.23606,3.64714,0.82404,0.7470684,-0.61498866,0.258727365
1764505491.0815334,-1.23606,3.64714,0.82404,0.7470684,-0.61498866,0.258727365
1764505491.0815334,-1.6022999999999998,3.49454,0.27468,0.74670219,-0.6152328,0.25842219
1764505491.0815334,-1.6022999999999998,3.49454,0.27468,0.74670219,-0.6152328,0.25842219
1764505491.0815334,-1.6022999999999998,3.49454,0.27468,0.74670219,-0.6152328,0.25842219
1764505491.0825343,-1.6022999999999998,3.49454,0.27468,0.74670219,-0.6152328,0.25842219
1764505491.0825343,-1.6022999999999998,3.49454,0.27468,0.74670219,-0.6152328,0.25842219
1764505491.0825343,-1.6022999999999998,3.49454,0.27468,0.74670219,-0.6152328,0.25842219
1764505491.0825343,-1.6022999999999998,3.49454,0.27468,0.74670219,-0.6152328,0.25842219
1764505491.0825343,-1.6022999999999998,3.49454,0.27468,0.74670219,-0.6152328,0.25842219
1764505491.0825343,-1.6022999999999998,3.49454,0.27468,0.74670219,-0.6152328,0.25842219
1764505491.0825343,-1.6022999999999998,3.49454,0.27468,0.74670219,-0.6152328,0.25842219
1764505491.084071,-1.28184,3.00622,0.65618,0.746885295,-0.6152328,0.258483225
1764505491.084854,-1.28184,3.00622,0.65618,0.746885295,-0.6152328,0.258483225
1764505491.084854,-1.28184,3.00622,0.65618,0.746885295,-0.6152328,0.258483225
1764505491.084854,-1.28184,3.00622,0.65618,0.746885295,-0.6152328,0.258483225
1764505491.084854,-1.28184,3.00622,0.65618,0.746885295,-0.6152328,0.258483225
1764505491.084854,-1.28184,3.00622,0.65618,0.746885295,-0.6152328,0.258483225
1764505491.084854,-1.28184,3.00622,0.65618,0.746885295,-0.6152328,0.258483225
1764505491.084854,-1.28184,3.00622,0.65618,0.746885295,-0.6152328,0.258483225
1764505491.084854,-1.28184,3.00622,0.65618,0.746885295,-0.6152328,0.258483225
1764505491.084854,-1.28184,3.00622,0.65618,0.746885295,-0.6152328,0.258483225
1764505491.125935,-1.48022,2.91466,0.3509799999999999,0.74682426,-0.6152328,0.257994945
1764505491.1265051,-1.48022,2.91466,0.3509799999999999,0.74682426,-0.6152328,0.257994945
1764505491.1265051,-1.48022,2.91466,0.3509799999999999,0.74682426,-0.6152328,0.257994945
1764505491.1265051,-1.48022,2.91466,0.3509799999999999,0.74682426,-0.6152328,0.257994945
1764505491.1265051,-1.48022,2.91466,0.3509799999999999,0.74682426,-0.6152328,0.257994945
1764505491.1265051,-1.48022,2.91466,0.3509799999999999,0.74682426,-0.6152328,0.257994945
1764505491.1265051,-1.48022,2.91466,0.3509799999999999,0.74682426,-0.6152328,0.257994945
1764505491.1265051,-1.48022,2.91466,0.3509799999999999,0.74682426,-0.6152328,0.257994945
1764505491.1265051,-1.48022,2.91466,0.3509799999999999,0.74682426,-0.6152328,0.257994945
1764505491.1265051,-1.48022,2.91466,0.3509799999999999,0.74682426,-0.6152328,0.257994945
1764505491.1265051,-1.19028,3.34194,-0.27468,0.746519085,-0.61535487,0.25793391
1764505491.1265051,-1.19028,3.34194,-0.27468,0.746519085,-0.61535487,0.25793391
1764505491.1265051,-1.19028,3.34194,-0.27468,0.746519085,-0.61535487,0.25793391
1764505491.1265051,-1.19028,3.34194,-0.27468,0.746519085,-0.61535487,0.25793391
1764505491.1265051,-1.19028,3.34194,-0.27468,0.746519085,-0.61535487,0.25793391
1764505491.1265051,-1.19028,3.34194,-0.27468,0.746519085,-0.61535487,0.25793391
1764505491.1265051,-1.19028,3.34194,-0.27468,0.746519085,-0.61535487,0.25793391
1764505491.1265051,-1.19028,3.34194,-0.27468,0.746519085,-0.61535487,0.25793391
1764505491.1265051,-1.19028,3.34194,-0.27468,0.746519085,-0.61535487,0.25793391
1764505491.1265051,-1.19028,3.34194,-0.27468,0.746519085,-0.61535487,0.25793391
1764505491.1265051,-1.05294,3.55558,0.06104,0.746274945,-0.614805555,0.25732356
1764505491.1265051,-1.05294,3.55558,0.06104,0.746274945,-0.614805555,0.25732356
1764505491.1265051,-1.05294,3.55558,0.06104,0.746274945,-0.614805555,0.25732356
1764505491.1265051,-1.05294,3.55558,0.06104,0.746274945,-0.614805555,0.25732356
1764505491.175553,-1.05294,3.55558,0.06104,0.746274945,-0.614805555,0.25732356
1764505491.175553,-1.05294,3.55558,0.06104,0.746274945,-0.614805555,0.25732356
1764505491.175553,-1.05294,3.55558,0.06104,0.746274945,-0.614805555,0.25732356
1764505491.175553,-1.05294,3.55558,0.06104,0.746274945,-0.614805555,0.25732356
1764505491.175553,-1.05294,3.55558,0.06104,0.746274945,-0.614805555,0.25732356
1764505491.175553,-1.05294,3.55558,0.06104,0.746274945,-0.614805555,0.25732356
1764505491.175553,-1.2055399999999998,3.52506,0.54936,0.7466411550000001,-0.61511073,0.25768977
1764505491.175553,-1.2055399999999998,3.52506,0.54936,0.7466411550000001,-0.61511073,0.25768977
1764505491.175553,-1.2055399999999998,3.52506,0.54936,0.7466411550000001,-0.61511073,0.25768977
1764505491.175553,-1.2055399999999998,3.52506,0.54936,0.7466411550000001,-0.61511073,0.25768977
1764505491.175553,-1.2055399999999998,3.52506,0.54936,0.7466411550000001,-0.61511073,0.25768977
1764505491.175553,-1.2055399999999998,3.52506,0.54936,0.7466411550000001,-0.61511073,0.25768977
1764505491.175553,-1.2055399999999998,3.52506,0.54936,0.7466411550000001,-0.61511073,0.25768977
1764505491.175553,-1.2055399999999998,3.52506,0.54936,0.7466411550000001,-0.61511073,0.25768977
1764505491.175553,-1.2055399999999998,3.52506,0.54936,0.7466411550000001,-0.61511073,0.25768977
1764505491.175553,-1.2055399999999998,3.52506,0.54936,0.7466411550000001,-0.61511073,0.25768977
1764505491.175553,-0.96138,3.49454,0.51884,0.746274945,-0.61462245,0.257628735
1764505491.175553,-0.96138,3.49454,0.51884,0.746274945,-0.61462245,0.257628735
1764505491.175553,-0.96138,3.49454,0.51884,0.746274945,-0.61462245,0.257628735
1764505491.175553,-0.96138,3.49454,0.51884,0.746274945,-0.61462245,0.257628735
1764505491.175553,-0.96138,3.49454,0.51884,0.746274945,-0.61462245,0.257628735
1764505491.175553,-0.96138,3.49454,0.51884,0.746274945,-0.61462245,0.257628735
1764505491.175553,-0.96138,3.49454,0.51884,0.746274945,-0.61462245,0.257628735
1764505491.175553,-0.96138,3.49454,0.51884,0.746274945,-0.61462245,0.257628735
1764505491.2199194,-0.96138,3.49454,0.51884,0.746274945,-0.61462245,0.257628735
1764505491.2199194,-0.96138,3.49454,0.51884,0.746274945,-0.61462245,0.257628735
1764505491.2199194,-1.00716,3.3572,1.17502,0.74682426,-0.61450038,0.257506665
1764505491.2199194,-1.00716,3.3572,1.17502,0.74682426,-0.61450038,0.257506665
1764505491.2199194,-1.00716,3.3572,1.17502,0.74682426,-0.61450038,0.257506665
1764505491.2199194,-1.00716,3.3572,1.17502,0.74682426,-0.61450038,0.257506665
1764505491.2199194,-1.00716,3.3572,1.17502,0.74682426,-0.61450038,0.257506665
1764505491.2199194,-1.00716,3.3572,1.17502,0.74682426,-0.61450038,0.257506665
1764505491.2199194,-1.00716,3.3572,1.17502,0.74682426,-0.61450038,0.257506665
1764505491.2199194,-1.00716,3.3572,1.17502,0.74682426,-0.61450038,0.257506665
1764505491.2199194,-1.00716,3.3572,1.17502,0.74682426,-0.61450038,0.257506665
1764505491.2199194,-1.00716,3.3572,1.17502,0.74682426,-0.61450038,0.257506665
1764505491.2199194,-1.05294,3.2046,1.19028,0.746763225,-0.61511073,0.25744563
1764505491.2209418,-1.05294,3.2046,1.19028,0.746763225,-0.61511073,0.25744563
1764505491.2209418,-1.05294,3.2046,1.19028,0.746763225,-0.61511073,0.25744563
1764505491.2209418,-1.05294,3.2046,1.19028,0.746763225,-0.61511073,0.25744563
1764505491.2209418,-1.05294,3.2046,1.19028,0.746763225,-0.61511073,0.25744563
1764505491.2209418,-1.05294,3.2046,1.19028,0.746763225,-0.61511073,0.25744563
1764505491.2209418,-1.05294,3.2046,1.19028,0.746763225,-0.61511073,0.25744563
1764505491.2209418,-1.05294,3.2046,1.19028,0.746763225,-0.61511073,0.25744563
1764505491.2209418,-1.05294,3.2046,1.19028,0.746763225,-0.61511073,0.25744563
1764505491.2209418,-1.05294,3.2046,1.19028,0.746763225,-0.61511073,0.25744563
1764505491.270161,-1.2055399999999998,3.18934,1.2055399999999998,0.74645805,-0.615293835,0.257506665
1764505491.270161,-1.2055399999999998,3.18934,1.2055399999999998,0.74645805,-0.615293835,0.257506665
1764505491.270161,-1.2055399999999998,3.18934,1.2055399999999998,0.74645805,-0.615293835,0.257506665
1764505491.270161,-1.2055399999999998,3.18934,1.2055399999999998,0.74645805,-0.615293835,0.257506665
1764505491.270161,-1.2055399999999998,3.18934,1.2055399999999998,0.74645805,-0.615293835,0.257506665
1764505491.270161,-1.2055399999999998,3.18934,1.2055399999999998,0.74645805,-0.615293835,0.257506665
1764505491.270161,-1.2055399999999998,3.18934,1.2055399999999998,0.74645805,-0.615293835,0.257506665
1764505491.270161,-1.2055399999999998,3.18934,1.2055399999999998,0.74645805,-0.615293835,0.257506665
1764505491.270161,-1.2055399999999998,3.18934,1.2055399999999998,0.74645805,-0.615293835,0.257506665
1764505491.270161,-1.2055399999999998,3.18934,1.2055399999999998,0.74645805,-0.615293835,0.257506665
1764505491.270161,-0.96138,2.88414,1.0682,0.746885295,-0.615415905,0.25781184
1764505491.270161,-0.96138,2.88414,1.0682,0.746885295,-0.615415905,0.25781184
1764505491.270161,-0.96138,2.88414,1.0682,0.746885295,-0.615415905,0.25781184
1764505491.270161,-0.96138,2.88414,1.0682,0.746885295,-0.615415905,0.25781184
1764505491.270161,-0.96138,2.88414,1.0682,0.746885295,-0.615415905,0.25781184
1764505491.270161,-0.96138,2.88414,1.0682,0.746885295,-0.615415905,0.25781184
1764505491.270161,-0.96138,2.88414,1.0682,0.746885295,-0.615415905,0.25781184
1764505491.2711718,-0.96138,2.88414,1.0682,0.746885295,-0.615415905,0.25781184
1764505491.2711718,-0.96138,2.88414,1.0682,0.746885295,-0.615415905,0.25781184
1764505491.2711718,-0.96138,2.88414,1.0682,0.746885295,-0.615415905,0.25781184
1764505491.2711718,-1.6022999999999998,2.92992,0.73248,0.74670219,-0.615293835,0.257628735
1764505491.2711718,-1.6022999999999998,2.92992,0.73248,0.74670219,-0.615293835,0.257628735
1764505491.2711718,-1.6022999999999998,2.92992,0.73248,0.74670219,-0.615293835,0.257628735
1764505491.2711718,-1.6022999999999998,2.92992,0.73248,0.74670219,-0.615293835,0.257628735
1764505491.315599,-1.6022999999999998,2.92992,0.73248,0.74670219,-0.615293835,0.257628735
1764505491.315599,-1.6022999999999998,2.92992,0.73248,0.74670219,-0.615293835,0.257628735
1764505491.315599,-1.6022999999999998,2.92992,0.73248,0.74670219,-0.615293835,0.257628735
1764505491.315599,-1.6022999999999998,2.92992,0.73248,0.74670219,-0.615293835,0.257628735
1764505491.315599,-1.6022999999999998,2.92992,0.73248,0.74670219,-0.615293835,0.257628735
1764505491.315599,-1.6022999999999998,2.92992,0.73248,0.74670219,-0.615293835,0.257628735
1764505491.315599,-1.89224,2.92992,0.09156,0.7470684,-0.6155990100000001,0.257750805
1764505491.315599,-1.89224,2.92992,0.09156,0.7470684,-0.6155990100000001,0.257750805
1764505491.315599,-1.89224,2.92992,0.09156,0.7470684,-0.6155990100000001,0.257750805
1764505491.315599,-1.89224,2.92992,0.09156,0.7470684,-0.6155990100000001,0.257750805
1764505491.315599,-1.89224,2.92992,0.09156,0.7470684,-0.6155990100000001,0.257750805
1764505491.316612,-1.89224,2.92992,0.09156,0.7470684,-0.6155990100000001,0.257750805
1764505491.316612,-1.89224,2.92992,0.09156,0.7470684,-0.6155990100000001,0.257750805
1764505491.316612,-1.89224,2.92992,0.09156,0.7470684,-0.6155990100000001,0.257750805
1764505491.316612,-1.89224,2.92992,0.09156,0.7470684,-0.6155990100000001,0.257750805
1764505491.316612,-1.89224,2.92992,0.09156,0.7470684,-0.6155990100000001,0.257750805
1764505491.316612,-2.6705,3.14356,-0.88508,0.74658012,-0.616026255,0.25720149
1764505491.316612,-2.6705,3.14356,-0.88508,0.74658012,-0.616026255,0.25720149
1764505491.316612,-2.6705,3.14356,-0.88508,0.74658012,-0.616026255,0.25720149
1764505491.316612,-2.6705,3.14356,-0.88508,0.74658012,-0.616026255,0.25720149
1764505491.316612,-2.6705,3.14356,-0.88508,0.74658012,-0.616026255,0.25720149
1764505491.316612,-2.6705,3.14356,-0.88508,0.74658012,-0.616026255,0.25720149
1764505491.3629477,-2.6705,3.14356,-0.88508,0.74658012,-0.616026255,0.25720149
1764505491.3629477,-2.6705,3.14356,-0.88508,0.74658012,-0.616026255,0.25720149
1764505491.3629477,-2.6705,3.14356,-0.88508,0.74658012,-0.616026255,0.25720149
1764505491.3629477,-2.6705,3.14356,-0.88508,0.74658012,-0.616026255,0.25720149
1764505491.3629477,-2.6705,3.49454,0.09156,0.74658012,-0.61596522,0.25646907
1764505491.3629477,-2.6705,3.49454,0.09156,0.74658012,-0.61596522,0.25646907
1764505491.3629477,-2.6705,3.49454,0.09156,0.74658012,-0.61596522,0.25646907
1764505491.3629477,-2.6705,3.49454,0.09156,0.74658012,-0.61596522,0.25646907
1764505491.3629477,-2.6705,3.49454,0.09156,0.74658012,-0.61596522,0.25646907
1764505491.3629477,-2.6705,3.49454,0.09156,0.74658012,-0.61596522,0.25646907
1764505491.3629477,-2.6705,3.49454,0.09156,0.74658012,-0.61596522,0.25646907
1764505491.3629477,-2.6705,3.49454,0.09156,0.74658012,-0.61596522,0.25646907
1764505491.3629477,-2.6705,3.49454,0.09156,0.74658012,-0.61596522,0.25646907
1764505491.3629477,-2.6705,3.49454,0.09156,0.74658012,-0.61596522,0.25646907
1764505491.3629477,-1.72438,4.5017,-1.15976,0.74633598,-0.6155990100000001,0.254821125
1764505491.3629477,-1.72438,4.5017,-1.15976,0.74633598,-0.6155990100000001,0.254821125
1764505491.3629477,-1.72438,4.5017,-1.15976,0.74633598,-0.6155990100000001,0.254821125
1764505491.3629477,-1.72438,4.5017,-1.15976,0.74633598,-0.6155990100000001,0.254821125
1764505491.3629477,-1.72438,4.5017,-1.15976,0.74633598,-0.6155990100000001,0.254821125
1764505491.3629477,-1.72438,4.5017,-1.15976,0.74633598,-0.6155990100000001,0.254821125
1764505491.3629477,-1.72438,4.5017,-1.15976,0.74633598,-0.6155990100000001,0.254821125
1764505491.3629477,-1.72438,4.5017,-1.15976,0.74633598,-0.6155990100000001,0.254821125
1764505491.3629477,-1.72438,4.5017,-1.15976,0.74633598,-0.6155990100000001,0.254821125
1764505491.3629477,-1.72438,4.5017,-1.15976,0.74633598,-0.6155990100000001,0.254821125
1764505491.4101102,-1.2055399999999998,4.47118,-1.9838,0.74731254,-0.615660045,0.255065265
1764505491.4101102,-1.2055399999999998,4.47118,-1.9838,0.74731254,-0.615660045,0.255065265
1764505491.4101102,-1.2055399999999998,4.47118,-1.9838,0.74731254,-0.615660045,0.255065265
1764505491.4101102,-1.2055399999999998,4.47118,-1.9838,0.74731254,-0.615660045,0.255065265
1764505491.4101102,-1.2055399999999998,4.47118,-1.9838,0.74731254,-0.615660045,0.255065265
1764505491.4101102,-1.2055399999999998,4.47118,-1.9838,0.74731254,-0.615660045,0.255065265
1764505491.4101102,-1.2055399999999998,4.47118,-1.9838,0.74731254,-0.615660045,0.255065265
1764505491.4101102,-1.2055399999999998,4.47118,-1.9838,0.74731254,-0.615660045,0.255065265
1764505491.4101102,-1.2055399999999998,4.47118,-1.9838,0.74731254,-0.615660045,0.255065265
1764505491.4101102,-1.2055399999999998,4.47118,-1.9838,0.74731254,-0.615660045,0.255065265
1764505491.4101102,-2.15166,3.9676,-2.25848,0.74694633,-0.61620936,0.257384595
1764505491.4101102,-2.15166,3.9676,-2.25848,0.74694633,-0.61620936,0.257384595
1764505491.4101102,-2.15166,3.9676,-2.25848,0.74694633,-0.61620936,0.257384595
1764505491.4101102,-2.15166,3.9676,-2.25848,0.74694633,-0.61620936,0.257384595
1764505491.4101102,-2.15166,3.9676,-2.25848,0.74694633,-0.61620936,0.257384595
1764505491.4101102,-2.15166,3.9676,-2.25848,0.74694633,-0.61620936,0.257384595
1764505491.4101102,-2.15166,3.9676,-2.25848,0.74694633,-0.61620936,0.257384595
1764505491.4101102,-2.15166,3.9676,-2.25848,0.74694633,-0.61620936,0.257384595
1764505491.4101102,-2.15166,3.9676,-2.25848,0.74694633,-0.61620936,0.257384595
1764505491.4101102,-2.15166,3.9676,-2.25848,0.74694633,-0.61620936,0.257384595
1764505491.4114213,-3.00622,3.5098,-2.0601,0.747007365,-0.61498866,0.257140455
1764505491.4114213,-3.00622,3.5098,-2.0601,0.747007365,-0.61498866,0.257140455
1764505491.455273,-3.00622,3.5098,-2.0601,0.747007365,-0.61498866,0.257140455
1764505491.455273,-3.00622,3.5098,-2.0601,0.747007365,-0.61498866,0.257140455
1764505491.455273,-3.00622,3.5098,-2.0601,0.747007365,-0.61498866,0.257140455
1764505491.455273,-3.00622,3.5098,-2.0601,0.747007365,-0.61498866,0.257140455
1764505491.455273,-3.00622,3.5098,-2.0601,0.747007365,-0.61498866,0.257140455
1764505491.455273,-3.00622,3.5098,-2.0601,0.747007365,-0.61498866,0.257140455
1764505491.455273,-3.00622,3.5098,-2.0601,0.747007365,-0.61498866,0.257140455
1764505491.455273,-3.00622,3.5098,-2.0601,0.747007365,-0.61498866,0.257140455
1764505491.455273,-1.92276,3.25038,-1.12924,0.74780082,-0.613584855,0.25646907
1764505491.455273,-1.92276,3.25038,-1.12924,0.74780082,-0.613584855,0.25646907
1764505491.455273,-1.92276,3.25038,-1.12924,0.74780082,-0.613584855,0.25646907
1764505491.455273,-1.92276,3.25038,-1.12924,0.74780082,-0.613584855,0.25646907
1764505491.455273,-1.92276,3.25038,-1.12924,0.74780082,-0.613584855,0.25646907
1764505491.455273,-1.92276,3.25038,-1.12924,0.74780082,-0.613584855,0.25646907
1764505491.455273,-1.92276,3.25038,-1.12924,0.74780082,-0.613584855,0.25646907
1764505491.455273,-1.92276,3.25038,-1.12924,0.74780082,-0.613584855,0.25646907
1764505491.455273,-1.92276,3.25038,-1.12924,0.74780082,-0.613584855,0.25646907
1764505491.455273,-1.92276,3.25038,-1.12924,0.74780082,-0.613584855,0.25646907
1764505491.455273,-1.28184,3.4335,0.06104,0.748350135,-0.61315761,0.257018385
1764505491.455273,-1.28184,3.4335,0.06104,0.748350135,-0.61315761,0.257018385
1764505491.455273,-1.28184,3.4335,0.06104,0.748350135,-0.61315761,0.257018385
1764505491.455273,-1.28184,3.4335,0.06104,0.748350135,-0.61315761,0.257018385
1764505491.455273,-1.28184,3.4335,0.06104,0.748350135,-0.61315761,0.257018385
1764505491.455273,-1.28184,3.4335,0.06104,0.748350135,-0.61315761,0.257018385
1764505491.5039272,-1.28184,3.4335,0.06104,0.748350135,-0.61315761,0.257018385
1764505491.5039272,-1.28184,3.4335,0.06104,0.748350135,-0.61315761,0.257018385
1764505491.5039272,-1.28184,3.4335,0.06104,0.748350135,-0.61315761,0.257018385
1764505491.5039272,-1.28184,3.4335,0.06104,0.748350135,-0.61315761,0.257018385
1764505491.5039272,-1.28184,3.03674,0.51884,0.748838415,-0.6127914,0.25573665
1764505491.5039272,-1.28184,3.03674,0.51884,0.748838415,-0.6127914,0.25573665
1764505491.5039272,-1.28184,3.03674,0.51884,0.748838415,-0.6127914,0.25573665
1764505491.5039272,-1.28184,3.03674,0.51884,0.748838415,-0.6127914,0.25573665
1764505491.5039272,-1.28184,3.03674,0.51884,0.748838415,-0.6127914,0.25573665
1764505491.5053508,-1.28184,3.03674,0.51884,0.748838415,-0.6127914,0.25573665
1764505491.5053508,-1.28184,3.03674,0.51884,0.748838415,-0.6127914,0.25573665
1764505491.5053508,-1.28184,3.03674,0.51884,0.748838415,-0.6127914,0.25573665
1764505491.5053508,-1.28184,3.03674,0.51884,0.748838415,-0.6127914,0.25573665
1764505491.5053508,-1.28184,3.03674,0.51884,0.748838415,-0.6127914,0.25573665
1764505491.5053508,-2.22796,2.8994,0.3509799999999999,0.74792289,-0.614073135,0.255797685
1764505491.5053508,-2.22796,2.8994,0.3509799999999999,0.74792289,-0.614073135,0.255797685
1764505491.5053508,-2.22796,2.8994,0.3509799999999999,0.74792289,-0.614073135,0.255797685
1764505491.5053508,-2.22796,2.8994,0.3509799999999999,0.74792289,-0.614073135,0.255797685
1764505491.5053508,-2.22796,2.8994,0.3509799999999999,0.74792289,-0.614073135,0.255797685
1764505491.5053508,-2.22796,2.8994,0.3509799999999999,0.74792289,-0.614073135,0.255797685
1764505491.5053508,-2.22796,2.8994,0.3509799999999999,0.74792289,-0.614073135,0.255797685
1764505491.5053508,-2.22796,2.8994,0.3509799999999999,0.74792289,-0.614073135,0.255797685
1764505491.5053508,-2.22796,2.8994,0.3509799999999999,0.74792289,-0.614073135,0.255797685
1764505491.5053508,-2.22796,2.8994,0.3509799999999999,0.74792289,-0.614073135,0.255797685
1764505491.5502143,-1.7549,2.24322,0.04578,0.7482891,-0.61413417,0.256347
1764505491.5502143,-1.7549,2.24322,0.04578,0.7482891,-0.61413417,0.256347
1764505491.5502143,-1.7549,2.24322,0.04578,0.7482891,-0.61413417,0.256347
1764505491.5502143,-1.7549,2.24322,0.04578,0.7482891,-0.61413417,0.256347
1764505491.5502143,-1.7549,2.24322,0.04578,0.7482891,-0.61413417,0.256347
1764505491.5502143,-1.7549,2.24322,0.04578,0.7482891,-0.61413417,0.256347
1764505491.5502143,-1.7549,2.24322,0.04578,0.7482891,-0.61413417,0.256347
1764505491.5502143,-1.7549,2.24322,0.04578,0.7482891,-0.61413417,0.256347
1764505491.5502143,-1.7549,2.24322,0.04578,0.7482891,-0.61413417,0.256347
1764505491.5502143,-1.7549,2.24322,0.04578,0.7482891,-0.61413417,0.256347
1764505491.5502143,-2.22796,2.5179,0.28994,0.74902152,-0.614439345,0.25610286
1764505491.5502143,-2.22796,2.5179,0.28994,0.74902152,-0.614439345,0.25610286
1764505491.5502143,-2.22796,2.5179,0.28994,0.74902152,-0.614439345,0.25610286
1764505491.5502143,-2.22796,2.5179,0.28994,0.74902152,-0.614439345,0.25610286
1764505491.5502143,-2.22796,2.5179,0.28994,0.74902152,-0.614439345,0.25610286
1764505491.5502143,-2.22796,2.5179,0.28994,0.74902152,-0.614439345,0.25610286
1764505491.5502143,-2.22796,2.5179,0.28994,0.74902152,-0.614439345,0.25610286
1764505491.5502143,-2.22796,2.5179,0.28994,0.74902152,-0.614439345,0.25610286
1764505491.5502143,-2.22796,2.5179,0.28994,0.74902152,-0.614439345,0.25610286
1764505491.5502143,-2.22796,2.5179,0.28994,0.74902152,-0.614439345,0.25610286
1764505491.5502143,-1.8312,3.2809,0.7019599999999999,0.7487163450000001,-0.613951065,0.25451595
1764505491.551217,-1.8312,3.2809,0.7019599999999999,0.7487163450000001,-0.613951065,0.25451595
1764505491.551217,-1.8312,3.2809,0.7019599999999999,0.7487163450000001,-0.613951065,0.25451595
1764505491.551217,-1.8312,3.2809,0.7019599999999999,0.7487163450000001,-0.613951065,0.25451595
1764505491.5944698,-1.8312,3.2809,0.7019599999999999,0.7487163450000001,-0.613951065,0.25451595
1764505491.5944698,-1.8312,3.2809,0.7019599999999999,0.7487163450000001,-0.613951065,0.25451595
1764505491.5954869,-1.8312,3.2809,0.7019599999999999,0.7487163450000001,-0.613951065,0.25451595
1764505491.5954869,-1.8312,3.2809,0.7019599999999999,0.7487163450000001,-0.613951065,0.25451595
1764505491.5954869,-1.8312,3.2809,0.7019599999999999,0.7487163450000001,-0.613951065,0.25451595
1764505491.5954869,-1.8312,3.2809,0.7019599999999999,0.7487163450000001,-0.613951065,0.25451595
1764505491.5954869,-1.32762,2.99096,0.73248,0.74853324,-0.614073135,0.25427181
1764505491.5954869,-1.32762,2.99096,0.73248,0.74853324,-0.614073135,0.25427181
1764505491.5954869,-1.32762,2.99096,0.73248,0.74853324,-0.614073135,0.25427181
1764505491.5954869,-1.32762,2.99096,0.73248,0.74853324,-0.614073135,0.25427181
1764505491.5954869,-1.32762,2.99096,0.73248,0.74853324,-0.614073135,0.25427181
1764505491.5954869,-1.32762,2.99096,0.73248,0.74853324,-0.614073135,0.25427181
1764505491.5954869,-1.32762,2.99096,0.73248,0.74853324,-0.614073135,0.25427181
1764505491.5954869,-1.32762,2.99096,0.73248,0.74853324,-0.614073135,0.25427181
1764505491.5954869,-1.32762,2.99096,0.73248,0.74853324,-0.614073135,0.25427181
1764505491.5954869,-1.32762,2.99096,0.73248,0.74853324,-0.614073135,0.25427181
1764505491.5954869,-1.2971,3.78448,0.47306,0.748350135,-0.61450038,0.254576985
1764505491.5954869,-1.2971,3.78448,0.47306,0.748350135,-0.61450038,0.254576985
1764505491.5954869,-1.2971,3.78448,0.47306,0.748350135,-0.61450038,0.254576985
1764505491.5959997,-1.2971,3.78448,0.47306,0.748350135,-0.61450038,0.254576985
1764505491.5959997,-1.2971,3.78448,0.47306,0.748350135,-0.61450038,0.254576985
1764505491.5959997,-1.2971,3.78448,0.47306,0.748350135,-0.61450038,0.254576985
1764505491.6428108,-1.2971,3.78448,0.47306,0.748350135,-0.61450038,0.254576985
1764505491.6428108,-1.2971,3.78448,0.47306,0.748350135,-0.61450038,0.254576985
1764505491.6428108,-1.2971,3.78448,0.47306,0.748350135,-0.61450038,0.254576985
1764505491.6428108,-1.2971,3.78448,0.47306,0.748350135,-0.61450038,0.254576985
1764505491.6428108,-1.15976,4.63904,-0.8698199999999999,0.748472205,-0.614805555,0.254332845
1764505491.6428108,-1.15976,4.63904,-0.8698199999999999,0.748472205,-0.614805555,0.254332845
1764505491.6428108,-1.15976,4.63904,-0.8698199999999999,0.748472205,-0.614805555,0.254332845
1764505491.6428108,-1.15976,4.63904,-0.8698199999999999,0.748472205,-0.614805555,0.254332845
1764505491.6428108,-1.15976,4.63904,-0.8698199999999999,0.748472205,-0.614805555,0.254332845
1764505491.6428108,-1.15976,4.63904,-0.8698199999999999,0.748472205,-0.614805555,0.254332845
1764505491.6428108,-1.15976,4.63904,-0.8698199999999999,0.748472205,-0.614805555,0.254332845
1764505491.6428108,-1.15976,4.63904,-0.8698199999999999,0.748472205,-0.614805555,0.254332845
1764505491.6447537,-1.15976,4.63904,-0.8698199999999999,0.748472205,-0.614805555,0.254332845
1764505491.6447537,-1.15976,4.63904,-0.8698199999999999,0.748472205,-0.614805555,0.254332845
1764505491.6447537,-0.96138,3.90656,-0.97664,0.74865531,-0.61486659,0.25500423
1764505491.6447537,-0.96138,3.90656,-0.97664,0.74865531,-0.61486659,0.25500423
1764505491.6447537,-0.96138,3.90656,-0.97664,0.74865531,-0.61486659,0.25500423
1764505491.6447537,-0.96138,3.90656,-0.97664,0.74865531,-0.61486659,0.25500423
1764505491.6447537,-0.96138,3.90656,-0.97664,0.74865531,-0.61486659,0.25500423
1764505491.6447537,-0.96138,3.90656,-0.97664,0.74865531,-0.61486659,0.25500423
1764505491.6447537,-0.96138,3.90656,-0.97664,0.74865531,-0.61486659,0.25500423
1764505491.6447537,-0.96138,3.90656,-0.97664,0.74865531,-0.61486659,0.25500423
1764505491.6447537,-0.96138,3.90656,-0.97664,0.74865531,-0.61486659,0.25500423
1764505491.6447537,-0.96138,3.90656,-0.97664,0.74865531,-0.61486659,0.25500423
1764505491.6877174,-1.61756,3.69292,-0.5341,0.749204625,-0.613706925,0.25610286
1764505491.6887405,-1.61756,3.69292,-0.5341,0.749204625,-0.613706925,0.25610286
1764505491.6887405,-1.61756,3.69292,-0.5341,0.749204625,-0.613706925,0.25610286
1764505491.6887405,-1.61756,3.69292,-0.5341,0.749204625,-0.613706925,0.25610286
1764505491.6887405,-1.61756,3.69292,-0.5341,0.749204625,-0.613706925,0.25610286
1764505491.6887405,-1.61756,3.69292,-0.5341,0.749204625,-0.613706925,0.25610286
1764505491.6887405,-1.61756,3.69292,-0.5341,0.749204625,-0.613706925,0.25610286
1764505491.6887405,-1.61756,3.69292,-0.5341,0.749204625,-0.613706925,0.25610286
1764505491.6887405,-1.61756,3.69292,-0.5341,0.749204625,-0.613706925,0.25610286
1764505491.6887405,-1.61756,3.69292,-0.5341,0.749204625,-0.613706925,0.25610286
1764505491.6887405,-1.84646,3.61662,-0.25942,0.749448765,-0.61315761,0.25598079
1764505491.6887405,-1.84646,3.61662,-0.25942,0.749448765,-0.61315761,0.25598079
1764505491.6887405,-1.84646,3.61662,-0.25942,0.749448765,-0.61315761,0.25598079
1764505491.6887405,-1.84646,3.61662,-0.25942,0.749448765,-0.61315761,0.25598079
1764505491.6887405,-1.84646,3.61662,-0.25942,0.749448765,-0.61315761,0.25598079
1764505491.6887405,-1.84646,3.61662,-0.25942,0.749448765,-0.61315761,0.25598079
1764505491.6887405,-1.84646,3.61662,-0.25942,0.749448765,-0.61315761,0.25598079
1764505491.6887405,-1.84646,3.61662,-0.25942,0.749448765,-0.61315761,0.25598079
1764505491.6887405,-1.84646,3.61662,-0.25942,0.749448765,-0.61315761,0.25598079
1764505491.6887405,-1.84646,3.61662,-0.25942,0.749448765,-0.61315761,0.25598079
1764505491.6887405,-0.9919,3.98286,0.1678599999999999,0.74963187,-0.613584855,0.254943195
1764505491.6887405,-0.9919,3.98286,0.1678599999999999,0.74963187,-0.613584855,0.254943195
1764505491.7353024,-0.9919,3.98286,0.1678599999999999,0.74963187,-0.613584855,0.254943195
1764505491.7353024,-0.9919,3.98286,0.1678599999999999,0.74963187,-0.613584855,0.254943195
1764505491.7353024,-0.9919,3.98286,0.1678599999999999,0.74963187,-0.613584855,0.254943195
1764505491.7353024,-0.9919,3.98286,0.1678599999999999,0.74963187,-0.613584855,0.254943195
1764505491.7353024,-0.9919,3.98286,0.1678599999999999,0.74963187,-0.613584855,0.254943195
1764505491.7353024,-0.9919,3.98286,0.1678599999999999,0.74963187,-0.613584855,0.254943195
1764505491.7353024,-0.9919,3.98286,0.1678599999999999,0.74963187,-0.613584855,0.254943195
1764505491.7365708,-0.9919,3.98286,0.1678599999999999,0.74963187,-0.613584855,0.254943195
1764505491.7365708,-0.79352,3.93708,0.74774,0.74889945,-0.613218645,0.254210775
1764505491.7365708,-0.79352,3.93708,0.74774,0.74889945,-0.613218645,0.254210775
1764505491.7365708,-0.79352,3.93708,0.74774,0.74889945,-0.613218645,0.254210775
1764505491.7365708,-0.79352,3.93708,0.74774,0.74889945,-0.613218645,0.254210775
1764505491.7365708,-0.79352,3.93708,0.74774,0.74889945,-0.613218645,0.254210775
1764505491.7365708,-0.79352,3.93708,0.74774,0.74889945,-0.613218645,0.254210775
1764505491.7365708,-0.79352,3.93708,0.74774,0.74889945,-0.613218645,0.254210775
1764505491.7365708,-0.79352,3.93708,0.74774,0.74889945,-0.613218645,0.254210775
1764505491.7365708,-0.79352,3.93708,0.74774,0.74889945,-0.613218645,0.254210775
1764505491.7365708,-0.79352,3.93708,0.74774,0.74889945,-0.613218645,0.254210775
1764505491.7365708,-0.42728,3.815,1.43444,0.749448765,-0.61266933,0.253844565
1764505491.7365708,-0.42728,3.815,1.43444,0.749448765,-0.61266933,0.253844565
1764505491.7365708,-0.42728,3.815,1.43444,0.749448765,-0.61266933,0.253844565
1764505491.7365708,-0.42728,3.815,1.43444,0.749448765,-0.61266933,0.253844565
1764505491.7365708,-0.42728,3.815,1.43444,0.749448765,-0.61266933,0.253844565
1764505491.7365708,-0.42728,3.815,1.43444,0.749448765,-0.61266933,0.253844565
1764505491.785514,-0.42728,3.815,1.43444,0.749448765,-0.61266933,0.253844565
1764505491.785514,-0.42728,3.815,1.43444,0.749448765,-0.61266933,0.253844565
1764505491.785514,-0.42728,3.815,1.43444,0.749448765,-0.61266933,0.253844565
1764505491.785514,-0.42728,3.815,1.43444,0.749448765,-0.61266933,0.253844565
1764505491.785514,-0.19838,3.84552,1.93802,0.749326695,-0.611997945,0.253722495
1764505491.785514,-0.19838,3.84552,1.93802,0.749326695,-0.611997945,0.253722495
1764505491.785514,-0.19838,3.84552,1.93802,0.749326695,-0.611997945,0.253722495
1764505491.785514,-0.19838,3.84552,1.93802,0.749326695,-0.611997945,0.253722495
1764505491.785514,-0.19838,3.84552,1.93802,0.749326695,-0.611997945,0.253722495
1764505491.785514,-0.19838,3.84552,1.93802,0.749326695,-0.611997945,0.253722495
1764505491.785514,-0.19838,3.84552,1.93802,0.749326695,-0.611997945,0.253722495
1764505491.785514,-0.19838,3.84552,1.93802,0.749326695,-0.611997945,0.253722495
1764505491.785514,-0.19838,3.84552,1.93802,0.749326695,-0.611997945,0.253722495
1764505491.785514,-0.19838,3.84552,1.93802,0.749326695,-0.611997945,0.253722495
1764505491.785514,-0.42728,3.46402,1.95328,0.749204625,-0.61315761,0.25463802
1764505491.785514,-0.42728,3.46402,1.95328,0.749204625,-0.61315761,0.25463802
1764505491.785514,-0.42728,3.46402,1.95328,0.749204625,-0.61315761,0.25463802
1764505491.785514,-0.42728,3.46402,1.95328,0.749204625,-0.61315761,0.25463802
1764505491.7865286,-0.42728,3.46402,1.95328,0.749204625,-0.61315761,0.25463802
1764505491.7865286,-0.42728,3.46402,1.95328,0.749204625,-0.61315761,0.25463802
1764505491.7865286,-0.42728,3.46402,1.95328,0.749204625,-0.61315761,0.25463802
1764505491.7865286,-0.42728,3.46402,1.95328,0.749204625,-0.61315761,0.25463802
1764505491.7865286,-0.42728,3.46402,1.95328,0.749204625,-0.61315761,0.25463802
1764505491.7865286,-0.42728,3.46402,1.95328,0.749204625,-0.61315761,0.25463802
1764505491.8302908,-0.5341,3.54032,1.23606,0.749082555,-0.61376796,0.25488216
1764505491.8302908,-0.5341,3.54032,1.23606,0.749082555,-0.61376796,0.25488216
1764505491.8302908,-0.5341,3.54032,1.23606,0.749082555,-0.61376796,0.25488216
1764505491.8302908,-0.5341,3.54032,1.23606,0.749082555,-0.61376796,0.25488216
1764505491.8302908,-0.5341,3.54032,1.23606,0.749082555,-0.61376796,0.25488216
1764505491.8302908,-0.5341,3.54032,1.23606,0.749082555,-0.61376796,0.25488216
1764505491.8302908,-0.5341,3.54032,1.23606,0.749082555,-0.61376796,0.25488216
1764505491.8302908,-0.5341,3.54032,1.23606,0.749082555,-0.61376796,0.25488216
1764505491.8302908,-0.5341,3.54032,1.23606,0.749082555,-0.61376796,0.25488216
1764505491.8302908,-0.5341,3.54032,1.23606,0.749082555,-0.61376796,0.25488216
1764505491.8302908,-0.7019599999999999,3.21986,1.1445,0.749937045,-0.6140121000000001,0.25561458
1764505491.831755,-0.7019599999999999,3.21986,1.1445,0.749937045,-0.6140121000000001,0.25561458
1764505491.831755,-0.7019599999999999,3.21986,1.1445,0.749937045,-0.6140121000000001,0.25561458
1764505491.831755,-0.7019599999999999,3.21986,1.1445,0.749937045,-0.6140121000000001,0.25561458
1764505491.831755,-0.7019599999999999,3.21986,1.1445,0.749937045,-0.6140121000000001,0.25561458
1764505491.831755,-0.7019599999999999,3.21986,1.1445,0.749937045,-0.6140121000000001,0.25561458
1764505491.831755,-0.7019599999999999,3.21986,1.1445,0.749937045,-0.6140121000000001,0.25561458
1764505491.831755,-0.7019599999999999,3.21986,1.1445,0.749937045,-0.6140121000000001,0.25561458
1764505491.831755,-0.7019599999999999,3.21986,1.1445,0.749937045,-0.6140121000000001,0.25561458
1764505491.831755,-0.7019599999999999,3.21986,1.1445,0.749937045,-0.6140121000000001,0.25561458
1764505491.831755,-0.62566,3.76922,1.4497,0.749326695,-0.61437831,0.254943195
1764505491.831755,-0.62566,3.76922,1.4497,0.749326695,-0.61437831,0.254943195
1764505491.831755,-0.62566,3.76922,1.4497,0.749326695,-0.61437831,0.254943195
1764505491.831755,-0.62566,3.76922,1.4497,0.749326695,-0.61437831,0.254943195
1764505491.8753507,-0.62566,3.76922,1.4497,0.749326695,-0.61437831,0.254943195
1764505491.8753507,-0.62566,3.76922,1.4497,0.749326695,-0.61437831,0.254943195
1764505491.876496,-0.62566,3.76922,1.4497,0.749326695,-0.61437831,0.254943195
1764505491.876496,-0.62566,3.76922,1.4497,0.749326695,-0.61437831,0.254943195
1764505491.876496,-0.62566,3.76922,1.4497,0.749326695,-0.61437831,0.254943195
1764505491.876496,-0.62566,3.76922,1.4497,0.749326695,-0.61437831,0.254943195
1764505491.876496,-0.6714399999999999,3.815,0.93086,0.7487163450000001,-0.61462245,0.25451595
1764505491.876496,-0.6714399999999999,3.815,0.93086,0.7487163450000001,-0.61462245,0.25451595
1764505491.876496,-0.6714399999999999,3.815,0.93086,0.7487163450000001,-0.61462245,0.25451595
1764505491.876496,-0.6714399999999999,3.815,0.93086,0.7487163450000001,-0.61462245,0.25451595
1764505491.876496,-0.6714399999999999,3.815,0.93086,0.7487163450000001,-0.61462245,0.25451595
1764505491.876496,-0.6714399999999999,3.815,0.93086,0.7487163450000001,-0.61462245,0.25451595
1764505491.876496,-0.6714399999999999,3.815,0.93086,0.7487163450000001,-0.61462245,0.25451595
1764505491.876496,-0.6714399999999999,3.815,0.93086,0.7487163450000001,-0.61462245,0.25451595
1764505491.8775158,-0.6714399999999999,3.815,0.93086,0.7487163450000001,-0.61462245,0.25451595
1764505491.8775158,-0.6714399999999999,3.815,0.93086,0.7487163450000001,-0.61462245,0.25451595
1764505491.8775158,0.06104,4.76112,0.73248,0.74780082,-0.61474452,0.25463802
1764505491.8775158,0.06104,4.76112,0.73248,0.74780082,-0.61474452,0.25463802
1764505491.8775158,0.06104,4.76112,0.73248,0.74780082,-0.61474452,0.25463802
1764505491.8775158,0.06104,4.76112,0.73248,0.74780082,-0.61474452,0.25463802
1764505491.8775158,0.06104,4.76112,0.73248,0.74780082,-0.61474452,0.25463802
1764505491.8775158,0.06104,4.76112,0.73248,0.74780082,-0.61474452,0.25463802
1764505491.8775158,0.06104,4.76112,0.73248,0.74780082,-0.61474452,0.25463802
1764505491.8775158,0.06104,4.76112,0.73248,0.74780082,-0.61474452,0.25463802
1764505491.9244225,0.06104,4.76112,0.73248,0.74780082,-0.61474452,0.25463802
1764505491.9244225,0.06104,4.76112,0.73248,0.74780082,-0.61474452,0.25463802
1764505491.9244225,-0.1678599999999999,4.62378,0.77826,0.74780082,-0.6140121000000001,0.254576985
1764505491.9244225,-0.1678599999999999,4.62378,0.77826,0.74780082,-0.6140121000000001,0.254576985
1764505491.9244225,-0.1678599999999999,4.62378,0.77826,0.74780082,-0.6140121000000001,0.254576985
1764505491.9244225,-0.1678599999999999,4.62378,0.77826,0.74780082,-0.6140121000000001,0.254576985
1764505491.9244225,-0.1678599999999999,4.62378,0.77826,0.74780082,-0.6140121000000001,0.254576985
1764505491.9244225,-0.1678599999999999,4.62378,0.77826,0.74780082,-0.6140121000000001,0.254576985
1764505491.9244225,-0.1678599999999999,4.62378,0.77826,0.74780082,-0.6140121000000001,0.254576985
1764505491.92493,-0.1678599999999999,4.62378,0.77826,0.74780082,-0.6140121000000001,0.254576985
1764505491.92493,-0.1678599999999999,4.62378,0.77826,0.74780082,-0.6140121000000001,0.254576985
1764505491.92493,-0.1678599999999999,4.62378,0.77826,0.74780082,-0.6140121000000001,0.254576985
1764505491.92493,0.3204599999999999,4.68482,1.6633399999999998,0.748105995,-0.614195205,0.25463802
1764505491.92493,0.3204599999999999,4.68482,1.6633399999999998,0.748105995,-0.614195205,0.25463802
1764505491.92493,0.3204599999999999,4.68482,1.6633399999999998,0.748105995,-0.614195205,0.25463802
1764505491.92493,0.3204599999999999,4.68482,1.6633399999999998,0.748105995,-0.614195205,0.25463802
1764505491.92493,0.3204599999999999,4.68482,1.6633399999999998,0.748105995,-0.614195205,0.25463802
1764505491.92493,0.3204599999999999,4.68482,1.6633399999999998,0.748105995,-0.614195205,0.25463802
1764505491.92493,0.3204599999999999,4.68482,1.6633399999999998,0.748105995,-0.614195205,0.25463802
1764505491.92493,0.3204599999999999,4.68482,1.6633399999999998,0.748105995,-0.614195205,0.25463802
1764505491.92493,0.3204599999999999,4.68482,1.6633399999999998,0.748105995,-0.614195205,0.25463802
1764505491.92493,0.3204599999999999,4.68482,1.6633399999999998,0.748105995,-0.614195205,0.25463802
1764505491.92493,0.1678599999999999,4.303319999999999,2.12114,0.74865531,-0.61340175,0.255309405
1764505491.92493,0.1678599999999999,4.303319999999999,2.12114,0.74865531,-0.61340175,0.255309405
1764505491.9681618,0.1678599999999999,4.303319999999999,2.12114,0.74865531,-0.61340175,0.255309405
1764505491.9681618,0.1678599999999999,4.303319999999999,2.12114,0.74865531,-0.61340175,0.255309405
1764505491.9681618,0.1678599999999999,4.303319999999999,2.12114,0.74865531,-0.61340175,0.255309405
1764505491.9681618,0.1678599999999999,4.303319999999999,2.12114,0.74865531,-0.61340175,0.255309405
1764505491.970731,0.1678599999999999,4.303319999999999,2.12114,0.74865531,-0.61340175,0.255309405
1764505491.970731,0.1678599999999999,4.303319999999999,2.12114,0.74865531,-0.61340175,0.255309405
1764505491.970731,0.1678599999999999,4.303319999999999,2.12114,0.74865531,-0.61340175,0.255309405
1764505491.970731,0.1678599999999999,4.303319999999999,2.12114,0.74865531,-0.61340175,0.255309405
1764505491.970731,0.4578,4.51696,1.72438,0.74841117,-0.6140121000000001,0.25549251
1764505491.970731,0.4578,4.51696,1.72438,0.74841117,-0.6140121000000001,0.25549251
1764505491.970731,0.4578,4.51696,1.72438,0.74841117,-0.6140121000000001,0.25549251
1764505491.970731,0.4578,4.51696,1.72438,0.74841117,-0.6140121000000001,0.25549251
1764505491.970731,0.4578,4.51696,1.72438,0.74841117,-0.6140121000000001,0.25549251
1764505491.970731,0.4578,4.51696,1.72438,0.74841117,-0.6140121000000001,0.25549251
1764505491.970731,0.4578,4.51696,1.72438,0.74841117,-0.6140121000000001,0.25549251
1764505491.970731,0.4578,4.51696,1.72438,0.74841117,-0.6140121000000001,0.25549251
1764505491.970731,0.4578,4.51696,1.72438,0.74841117,-0.6140121000000001,0.25549251
1764505491.970731,0.4578,4.51696,1.72438,0.74841117,-0.6140121000000001,0.25549251
1764505491.970731,0.41202,4.28806,2.42634,0.74755668,-0.613951065,0.25463802
1764505491.970731,0.41202,4.28806,2.42634,0.74755668,-0.613951065,0.25463802
1764505491.970731,0.41202,4.28806,2.42634,0.74755668,-0.613951065,0.25463802
1764505491.9717383,0.41202,4.28806,2.42634,0.74755668,-0.613951065,0.25463802
1764505492.0147154,0.41202,4.28806,2.42634,0.74755668,-0.613951065,0.25463802
1764505492.0153117,0.41202,4.28806,2.42634,0.74755668,-0.613951065,0.25463802
1764505492.0153117,0.41202,4.28806,2.42634,0.74755668,-0.613951065,0.25463802
1764505492.0153117,0.41202,4.28806,2.42634,0.74755668,-0.613951065,0.25463802
1764505492.0153117,0.41202,4.28806,2.42634,0.74755668,-0.613951065,0.25463802
1764505492.0153117,0.41202,4.28806,2.42634,0.74755668,-0.613951065,0.25463802
1764505492.0153117,0.27468,4.62378,2.50264,0.747495645,-0.61413417,0.255065265
1764505492.0153117,0.27468,4.62378,2.50264,0.747495645,-0.61413417,0.255065265
1764505492.0153117,0.27468,4.62378,2.50264,0.747495645,-0.61413417,0.255065265
1764505492.0153117,0.27468,4.62378,2.50264,0.747495645,-0.61413417,0.255065265
1764505492.0153117,0.27468,4.62378,2.50264,0.747495645,-0.61413417,0.255065265
1764505492.016856,0.27468,4.62378,2.50264,0.747495645,-0.61413417,0.255065265
1764505492.016856,0.27468,4.62378,2.50264,0.747495645,-0.61413417,0.255065265
1764505492.016856,0.27468,4.62378,2.50264,0.747495645,-0.61413417,0.255065265
1764505492.016856,0.27468,4.62378,2.50264,0.747495645,-0.61413417,0.255065265
1764505492.016856,0.27468,4.62378,2.50264,0.747495645,-0.61413417,0.255065265
1764505492.016856,0.3051999999999999,4.86794,2.60946,0.74743461,-0.61462245,0.25537044
1764505492.016856,0.3051999999999999,4.86794,2.60946,0.74743461,-0.61462245,0.25537044
1764505492.016856,0.3051999999999999,4.86794,2.60946,0.74743461,-0.61462245,0.25537044
1764505492.016856,0.3051999999999999,4.86794,2.60946,0.74743461,-0.61462245,0.25537044
1764505492.0178716,0.3051999999999999,4.86794,2.60946,0.74743461,-0.61462245,0.25537044
1764505492.0178716,0.3051999999999999,4.86794,2.60946,0.74743461,-0.61462245,0.25537044
1764505492.060736,0.3051999999999999,4.86794,2.60946,0.74743461,-0.61462245,0.25537044
1764505492.060736,0.3051999999999999,4.86794,2.60946,0.74743461,-0.61462245,0.25537044
1764505492.060736,0.3051999999999999,4.86794,2.60946,0.74743461,-0.61462245,0.25537044
1764505492.060736,0.3051999999999999,4.86794,2.60946,0.74743461,-0.61462245,0.25537044
1764505492.060736,-0.03052,4.66956,2.60946,0.7471294350000001,-0.614561415,0.255797685
1764505492.0617585,-0.03052,4.66956,2.60946,0.7471294350000001,-0.614561415,0.255797685
1764505492.0617585,-0.03052,4.66956,2.60946,0.7471294350000001,-0.614561415,0.255797685
1764505492.0653534,-0.03052,4.66956,2.60946,0.7471294350000001,-0.614561415,0.255797685
1764505492.0653534,-0.03052,4.66956,2.60946,0.7471294350000001,-0.614561415,0.255797685
1764505492.0653534,-0.03052,4.66956,2.60946,0.7471294350000001,-0.614561415,0.255797685
1764505492.0663598,-0.03052,4.66956,2.60946,0.7471294350000001,-0.614561415,0.255797685
1764505492.0663598,-0.03052,4.66956,2.60946,0.7471294350000001,-0.614561415,0.255797685
1764505492.0663598,-0.03052,4.66956,2.60946,0.7471294350000001,-0.614561415,0.255797685
1764505492.0663598,-0.03052,4.66956,2.60946,0.7471294350000001,-0.614561415,0.255797685
1764505492.0663598,0.1525999999999999,4.54748,3.18934,0.74694633,-0.61572108,0.256774245
1764505492.068893,0.1525999999999999,4.54748,3.18934,0.74694633,-0.61572108,0.256774245
1764505492.068893,0.1525999999999999,4.54748,3.18934,0.74694633,-0.61572108,0.256774245
1764505492.068893,0.1525999999999999,4.54748,3.18934,0.74694633,-0.61572108,0.256774245
1764505492.068893,0.1525999999999999,4.54748,3.18934,0.74694633,-0.61572108,0.256774245
1764505492.068893,0.1525999999999999,4.54748,3.18934,0.74694633,-0.61572108,0.256774245
1764505492.068893,0.1525999999999999,4.54748,3.18934,0.74694633,-0.61572108,0.256774245
1764505492.068893,0.1525999999999999,4.54748,3.18934,0.74694633,-0.61572108,0.256774245
1764505492.068893,0.1525999999999999,4.54748,3.18934,0.74694633,-0.61572108,0.256774245
1764505492.068893,0.1525999999999999,4.54748,3.18934,0.74694633,-0.61572108,0.256774245
1764505492.109269,0.18312,5.0358,3.1283,0.746397015,-0.6152328,0.256652175
1764505492.109269,0.18312,5.0358,3.1283,0.746397015,-0.6152328,0.256652175
1764505492.109269,0.18312,5.0358,3.1283,0.746397015,-0.6152328,0.256652175
1764505492.109269,0.18312,5.0358,3.1283,0.746397015,-0.6152328,0.256652175
1764505492.109269,0.18312,5.0358,3.1283,0.746397015,-0.6152328,0.256652175
1764505492.109269,0.18312,5.0358,3.1283,0.746397015,-0.6152328,0.256652175
1764505492.109269,0.18312,5.0358,3.1283,0.746397015,-0.6152328,0.256652175
1764505492.110801,0.18312,5.0358,3.1283,0.746397015,-0.6152328,0.256652175
1764505492.110801,0.18312,5.0358,3.1283,0.746397015,-0.6152328,0.256652175
1764505492.110801,0.18312,5.0358,3.1283,0.746397015,-0.6152328,0.256652175
1764505492.110801,0.10682,4.22702,2.4416,0.74682426,-0.61572108,0.25683528
1764505492.110801,0.10682,4.22702,2.4416,0.74682426,-0.61572108,0.25683528
1764505492.110801,0.10682,4.22702,2.4416,0.74682426,-0.61572108,0.25683528
1764505492.110801,0.10682,4.22702,2.4416,0.74682426,-0.61572108,0.25683528
1764505492.110801,0.10682,4.22702,2.4416,0.74682426,-0.61572108,0.25683528
1764505492.110801,0.10682,4.22702,2.4416,0.74682426,-0.61572108,0.25683528
1764505492.110801,0.10682,4.22702,2.4416,0.74682426,-0.61572108,0.25683528
1764505492.110801,0.10682,4.22702,2.4416,0.74682426,-0.61572108,0.25683528
1764505492.110801,0.10682,4.22702,2.4416,0.74682426,-0.61572108,0.25683528
1764505492.110801,0.10682,4.22702,2.4416,0.74682426,-0.61572108,0.25683528
1764505492.110801,-2.91466,0.96138,0.50358,0.742734915,-0.613096575,0.25854426
1764505492.110801,-2.91466,0.96138,0.50358,0.742734915,-0.613096575,0.25854426
1764505492.110801,-2.91466,0.96138,0.50358,0.742734915,-0.613096575,0.25854426
1764505492.110801,-2.91466,0.96138,0.50358,0.742734915,-0.613096575,0.25854426
1764505492.157756,-2.91466,0.96138,0.50358,0.742734915,-0.613096575,0.25854426
1764505492.157756,-2.91466,0.96138,0.50358,0.742734915,-0.613096575,0.25854426
1764505492.157756,-2.91466,0.96138,0.50358,0.742734915,-0.613096575,0.25854426
1764505492.1587725,-2.91466,0.96138,0.50358,0.742734915,-0.613096575,0.25854426
1764505492.1587725,-2.91466,0.96138,0.50358,0.742734915,-0.613096575,0.25854426
1764505492.1587725,-2.91466,0.96138,0.50358,0.742734915,-0.613096575,0.25854426
1764505492.1587725,-4.41014,1.4039199999999998,1.78542,0.744810105,-0.61291347,0.256896315
1764505492.1587725,-4.41014,1.4039199999999998,1.78542,0.744810105,-0.61291347,0.256896315
1764505492.1587725,-4.41014,1.4039199999999998,1.78542,0.744810105,-0.61291347,0.256896315
1764505492.1587725,-4.41014,1.4039199999999998,1.78542,0.744810105,-0.61291347,0.256896315
1764505492.1587725,-4.41014,1.4039199999999998,1.78542,0.744810105,-0.61291347,0.256896315
1764505492.1587725,-4.41014,1.4039199999999998,1.78542,0.744810105,-0.61291347,0.256896315
1764505492.1587725,-4.41014,1.4039199999999998,1.78542,0.744810105,-0.61291347,0.256896315
1764505492.1587725,-4.41014,1.4039199999999998,1.78542,0.744810105,-0.61291347,0.256896315
1764505492.1587725,-4.41014,1.4039199999999998,1.78542,0.744810105,-0.61291347,0.256896315
1764505492.1587725,-4.41014,1.4039199999999998,1.78542,0.744810105,-0.61291347,0.256896315
1764505492.1587725,-1.03768,5.00528,2.3653,0.74902152,-0.618467655,0.254699055
1764505492.1587725,-1.03768,5.00528,2.3653,0.74902152,-0.618467655,0.254699055
1764505492.1587725,-1.03768,5.00528,2.3653,0.74902152,-0.618467655,0.254699055
1764505492.1587725,-1.03768,5.00528,2.3653,0.74902152,-0.618467655,0.254699055
1764505492.1587725,-1.03768,5.00528,2.3653,0.74902152,-0.618467655,0.254699055
1764505492.1587725,-1.03768,5.00528,2.3653,0.74902152,-0.618467655,0.254699055
1764505492.20507,-1.03768,5.00528,2.3653,0.74902152,-0.618467655,0.254699055
1764505492.20507,-1.03768,5.00528,2.3653,0.74902152,-0.618467655,0.254699055
1764505492.20507,-1.03768,5.00528,2.3653,0.74902152,-0.618467655,0.254699055
1764505492.20507,-1.03768,5.00528,2.3653,0.74902152,-0.618467655,0.254699055
1764505492.20507,0.3815,4.15072,2.18218,0.74682426,-0.61669764,0.254943195
1764505492.20507,0.3815,4.15072,2.18218,0.74682426,-0.61669764,0.254943195
1764505492.20507,0.3815,4.15072,2.18218,0.74682426,-0.61669764,0.254943195
1764505492.20507,0.3815,4.15072,2.18218,0.74682426,-0.61669764,0.254943195
1764505492.20507,0.3815,4.15072,2.18218,0.74682426,-0.61669764,0.254943195
1764505492.20507,0.3815,4.15072,2.18218,0.74682426,-0.61669764,0.254943195
1764505492.20507,0.3815,4.15072,2.18218,0.74682426,-0.61669764,0.254943195
1764505492.20507,0.3815,4.15072,2.18218,0.74682426,-0.61669764,0.254943195
1764505492.20507,0.3815,4.15072,2.18218,0.74682426,-0.61669764,0.254943195
1764505492.2062285,0.3815,4.15072,2.18218,0.74682426,-0.61669764,0.254943195
1764505492.2062285,-1.77016,2.71628,1.9838,0.745298385,-0.6152328,0.257018385
1764505492.2062285,-1.77016,2.71628,1.9838,0.745298385,-0.6152328,0.257018385
1764505492.2062285,-1.77016,2.71628,1.9838,0.745298385,-0.6152328,0.257018385
1764505492.2062285,-1.77016,2.71628,1.9838,0.745298385,-0.6152328,0.257018385
1764505492.2062285,-1.77016,2.71628,1.9838,0.745298385,-0.6152328,0.257018385
1764505492.2062285,-1.77016,2.71628,1.9838,0.745298385,-0.6152328,0.257018385
1764505492.2062285,-1.77016,2.71628,1.9838,0.745298385,-0.6152328,0.257018385
1764505492.2062285,-1.77016,2.71628,1.9838,0.745298385,-0.6152328,0.257018385
1764505492.2062285,-1.77016,2.71628,1.9838,0.745298385,-0.6152328,0.257018385
1764505492.2062285,-1.77016,2.71628,1.9838,0.745298385,-0.6152328,0.257018385
1764505492.2062285,-2.47212,2.47212,2.48738,0.74523735,-0.614561415,0.25732356
1764505492.2062285,-2.47212,2.47212,2.48738,0.74523735,-0.614561415,0.25732356
1764505492.2506711,-2.47212,2.47212,2.48738,0.74523735,-0.614561415,0.25732356
1764505492.2506711,-2.47212,2.47212,2.48738,0.74523735,-0.614561415,0.25732356
1764505492.2506711,-2.47212,2.47212,2.48738,0.74523735,-0.614561415,0.25732356
1764505492.2520938,-2.47212,2.47212,2.48738,0.74523735,-0.614561415,0.25732356
1764505492.2520938,-2.47212,2.47212,2.48738,0.74523735,-0.614561415,0.25732356
1764505492.2520938,-2.47212,2.47212,2.48738,0.74523735,-0.614561415,0.25732356
1764505492.2520938,-2.47212,2.47212,2.48738,0.74523735,-0.614561415,0.25732356
1764505492.2520938,-2.47212,2.47212,2.48738,0.74523735,-0.614561415,0.25732356
1764505492.2520938,-3.26564,0.25942,3.02148,0.74438286,-0.614317275,0.25707942
1764505492.2520938,-3.26564,0.25942,3.02148,0.74438286,-0.614317275,0.25707942
1764505492.2520938,-3.26564,0.25942,3.02148,0.74438286,-0.614317275,0.25707942
1764505492.2520938,-3.26564,0.25942,3.02148,0.74438286,-0.614317275,0.25707942
1764505492.2531073,-3.26564,0.25942,3.02148,0.74438286,-0.614317275,0.25707942
1764505492.2531073,-3.26564,0.25942,3.02148,0.74438286,-0.614317275,0.25707942
1764505492.2531073,-3.26564,0.25942,3.02148,0.74438286,-0.614317275,0.25707942
1764505492.2541032,-3.26564,0.25942,3.02148,0.74438286,-0.614317275,0.25707942
1764505492.2541032,-3.26564,0.25942,3.02148,0.74438286,-0.614317275,0.25707942
1764505492.2541032,-3.26564,0.25942,3.02148,0.74438286,-0.614317275,0.25707942
1764505492.2541032,-4.02864,0.39676,3.052,0.743833545,-0.614561415,0.25720149
1764505492.2541032,-4.02864,0.39676,3.052,0.743833545,-0.614561415,0.25720149
1764505492.2541032,-4.02864,0.39676,3.052,0.743833545,-0.614561415,0.25720149
1764505492.2541032,-4.02864,0.39676,3.052,0.743833545,-0.614561415,0.25720149
1764505492.2541032,-4.02864,0.39676,3.052,0.743833545,-0.614561415,0.25720149
1764505492.2553391,-4.02864,0.39676,3.052,0.743833545,-0.614561415,0.25720149
1764505492.300174,-4.02864,0.39676,3.052,0.743833545,-0.614561415,0.25720149
1764505492.300174,-4.02864,0.39676,3.052,0.743833545,-0.614561415,0.25720149
1764505492.300174,-4.02864,0.39676,3.052,0.743833545,-0.614561415,0.25720149
1764505492.300174,-4.02864,0.39676,3.052,0.743833545,-0.614561415,0.25720149
1764505492.300174,-1.84646,2.76206,4.10494,0.7470684,-0.617979375,0.254088705
1764505492.300174,-1.84646,2.76206,4.10494,0.7470684,-0.617979375,0.254088705
1764505492.300174,-1.84646,2.76206,4.10494,0.7470684,-0.617979375,0.254088705
1764505492.300174,-1.84646,2.76206,4.10494,0.7470684,-0.617979375,0.254088705
1764505492.300174,-1.84646,2.76206,4.10494,0.7470684,-0.617979375,0.254088705
1764505492.300174,-1.84646,2.76206,4.10494,0.7470684,-0.617979375,0.254088705
1764505492.300174,-1.84646,2.76206,4.10494,0.7470684,-0.617979375,0.254088705
1764505492.300174,-1.84646,2.76206,4.10494,0.7470684,-0.617979375,0.254088705
1764505492.300174,-1.84646,2.76206,4.10494,0.7470684,-0.617979375,0.254088705
1764505492.300174,-1.84646,2.76206,4.10494,0.7470684,-0.617979375,0.254088705
1764505492.300174,-1.526,2.31952,2.7468,0.74645805,-0.618955935,0.25414974
1764505492.300174,-1.526,2.31952,2.7468,0.74645805,-0.618955935,0.25414974
1764505492.300174,-1.526,2.31952,2.7468,0.74645805,-0.618955935,0.25414974
1764505492.300174,-1.526,2.31952,2.7468,0.74645805,-0.618955935,0.25414974
1764505492.300174,-1.526,2.31952,2.7468,0.74645805,-0.618955935,0.25414974
1764505492.300174,-1.526,2.31952,2.7468,0.74645805,-0.618955935,0.25414974
1764505492.3436391,-1.526,2.31952,2.7468,0.74645805,-0.618955935,0.25414974
1764505492.3436391,-1.526,2.31952,2.7468,0.74645805,-0.618955935,0.25414974
1764505492.3436391,-1.526,2.31952,2.7468,0.74645805,-0.618955935,0.25414974
1764505492.3441706,-1.526,2.31952,2.7468,0.74645805,-0.618955935,0.25414974
1764505492.3441706,-3.09778,2.48738,1.526,0.74426079,-0.617857305,0.25414974
1764505492.3441706,-3.09778,2.48738,1.526,0.74426079,-0.617857305,0.25414974
1764505492.3441706,-3.09778,2.48738,1.526,0.74426079,-0.617857305,0.25414974
1764505492.3441706,-3.09778,2.48738,1.526,0.74426079,-0.617857305,0.25414974
1764505492.3441706,-3.09778,2.48738,1.526,0.74426079,-0.617857305,0.25414974
1764505492.3441706,-3.09778,2.48738,1.526,0.74426079,-0.617857305,0.25414974
1764505492.3441706,-3.09778,2.48738,1.526,0.74426079,-0.617857305,0.25414974
1764505492.3441706,-3.09778,2.48738,1.526,0.74426079,-0.617857305,0.25414974
1764505492.3441706,-3.09778,2.48738,1.526,0.74426079,-0.617857305,0.25414974
1764505492.3441706,-3.09778,2.48738,1.526,0.74426079,-0.617857305,0.25414974
1764505492.3441706,-1.00716,4.63904,2.47212,0.74621391,-0.62121423,0.25353939
