Timestamp,GyroX,GyroY,GyroZ,AccX,AccY,AccZ
1764504786.7262158,-7.858899999999999,2.07536,0.56462,-0.8399026350000001,0.513853665,0.0683592
1764504786.7262158,-7.76734,1.48022,0.62566,-0.83947539,0.512999175,0.06811506
1764504786.7262158,-7.76734,1.48022,0.62566,-0.83947539,0.512999175,0.06811506
1764504786.7262158,-7.76734,1.48022,0.62566,-0.83947539,0.512999175,0.06811506
1764504786.7262158,-7.76734,1.48022,0.62566,-0.83947539,0.512999175,0.06811506
1764504786.7262158,-7.76734,1.48022,0.62566,-0.83947539,0.512999175,0.06811506
1764504786.7262158,-7.76734,1.48022,0.62566,-0.83947539,0.512999175,0.06811506
1764504786.7262158,-7.76734,1.48022,0.62566,-0.83947539,0.512999175,0.06811506
1764504786.7262158,-7.76734,1.48022,0.62566,-0.83947539,0.512999175,0.06811506
1764504786.7262158,-7.76734,1.48022,0.62566,-0.83947539,0.512999175,0.06811506
1764504786.7262158,-7.76734,1.48022,0.62566,-0.83947539,0.512999175,0.06811506
1764504786.7262158,-8.57612,1.6633399999999998,0.09156,-0.83971953,0.51196158,0.068908515
1764504786.7262158,-8.57612,1.6633399999999998,0.09156,-0.83971953,0.51196158,0.068908515
1764504786.7262158,-8.57612,1.6633399999999998,0.09156,-0.83971953,0.51196158,0.068908515
1764504786.7262158,-8.57612,1.6633399999999998,0.09156,-0.83971953,0.51196158,0.068908515
1764504786.7262158,-8.57612,1.6633399999999998,0.09156,-0.83971953,0.51196158,0.068908515
1764504786.7262158,-8.57612,1.6633399999999998,0.09156,-0.83971953,0.51196158,0.068908515
1764504786.7262158,-8.57612,1.6633399999999998,0.09156,-0.83971953,0.51196158,0.068908515
1764504786.7262158,-8.57612,1.6633399999999998,0.09156,-0.83971953,0.51196158,0.068908515
1764504786.7262158,-8.57612,1.6633399999999998,0.09156,-0.83971953,0.51196158,0.068908515
1764504786.7262158,-8.57612,1.6633399999999998,0.09156,-0.83971953,0.51196158,0.068908515
1764504786.773397,-8.118319999999999,1.46496,0.12208,-0.8399026350000001,0.50890983,0.06970197
1764504786.773397,-8.118319999999999,1.46496,0.12208,-0.8399026350000001,0.50890983,0.06970197
1764504786.773397,-8.118319999999999,1.46496,0.12208,-0.8399026350000001,0.50890983,0.06970197
1764504786.773397,-8.118319999999999,1.46496,0.12208,-0.8399026350000001,0.50890983,0.06970197
1764504786.773397,-8.118319999999999,1.46496,0.12208,-0.8399026350000001,0.50890983,0.06970197
1764504786.773397,-8.118319999999999,1.46496,0.12208,-0.8399026350000001,0.50890983,0.06970197
1764504786.773397,-8.118319999999999,1.46496,0.12208,-0.8399026350000001,0.50890983,0.06970197
1764504786.773397,-8.118319999999999,1.46496,0.12208,-0.8399026350000001,0.50890983,0.06970197
1764504786.773397,-8.118319999999999,1.46496,0.12208,-0.8399026350000001,0.50890983,0.06970197
1764504786.773397,-8.118319999999999,1.46496,0.12208,-0.8399026350000001,0.50890983,0.06970197
1764504786.773397,-5.478339999999999,1.34288,0.2289,-0.840757125,0.506773605,0.068786445
1764504786.773397,-5.478339999999999,1.34288,0.2289,-0.840757125,0.506773605,0.068786445
1764504786.7743936,-5.478339999999999,1.34288,0.2289,-0.840757125,0.506773605,0.068786445
1764504786.7743936,-5.478339999999999,1.34288,0.2289,-0.840757125,0.506773605,0.068786445
1764504786.7743936,-5.478339999999999,1.34288,0.2289,-0.840757125,0.506773605,0.068786445
1764504786.7743936,-5.478339999999999,1.34288,0.2289,-0.840757125,0.506773605,0.068786445
1764504786.7743936,-5.478339999999999,1.34288,0.2289,-0.840757125,0.506773605,0.068786445
1764504786.7743936,-5.478339999999999,1.34288,0.2289,-0.840757125,0.506773605,0.068786445
1764504786.7743936,-5.478339999999999,1.34288,0.2289,-0.840757125,0.506773605,0.068786445
1764504786.7743936,-5.478339999999999,1.34288,0.2289,-0.840757125,0.506773605,0.068786445
1764504786.7743936,-2.56368,0.3051999999999999,0.77826,-0.841367475,0.50720085,0.065978835
1764504786.7743936,-2.56368,0.3051999999999999,0.77826,-0.841367475,0.50720085,0.065978835
1764504786.7743936,-2.56368,0.3051999999999999,0.77826,-0.841367475,0.50720085,0.065978835
1764504786.7743936,-2.56368,0.3051999999999999,0.77826,-0.841367475,0.50720085,0.065978835
1764504786.8168306,-2.56368,0.3051999999999999,0.77826,-0.841367475,0.50720085,0.065978835
1764504786.8168306,-2.56368,0.3051999999999999,0.77826,-0.841367475,0.50720085,0.065978835
1764504786.8168306,-2.56368,0.3051999999999999,0.77826,-0.841367475,0.50720085,0.065978835
1764504786.8168306,-2.56368,0.3051999999999999,0.77826,-0.841367475,0.50720085,0.065978835
1764504786.817835,-2.56368,0.3051999999999999,0.77826,-0.841367475,0.50720085,0.065978835
1764504786.817835,-2.56368,0.3051999999999999,0.77826,-0.841367475,0.50720085,0.065978835
1764504786.817835,-1.00716,0.5341,0.13734,-0.83996367,0.51061881,0.06249984
1764504786.817835,-1.00716,0.5341,0.13734,-0.83996367,0.51061881,0.06249984
1764504786.817835,-1.00716,0.5341,0.13734,-0.83996367,0.51061881,0.06249984
1764504786.817835,-1.00716,0.5341,0.13734,-0.83996367,0.51061881,0.06249984
1764504786.817835,-1.00716,0.5341,0.13734,-0.83996367,0.51061881,0.06249984
1764504786.817835,-1.00716,0.5341,0.13734,-0.83996367,0.51061881,0.06249984
1764504786.817835,-1.00716,0.5341,0.13734,-0.83996367,0.51061881,0.06249984
1764504786.817835,-1.00716,0.5341,0.13734,-0.83996367,0.51061881,0.06249984
1764504786.817835,-1.00716,0.5341,0.13734,-0.83996367,0.51061881,0.06249984
1764504786.817835,-1.00716,0.5341,0.13734,-0.83996367,0.51061881,0.06249984
1764504786.817835,-1.6633399999999998,0.04578,0.65618,-0.838681935,0.516905415,0.062072595
1764504786.817835,-1.6633399999999998,0.04578,0.65618,-0.838681935,0.516905415,0.062072595
1764504786.817835,-1.6633399999999998,0.04578,0.65618,-0.838681935,0.516905415,0.062072595
1764504786.817835,-1.6633399999999998,0.04578,0.65618,-0.838681935,0.516905415,0.062072595
1764504786.817835,-1.6633399999999998,0.04578,0.65618,-0.838681935,0.516905415,0.062072595
1764504786.817835,-1.6633399999999998,0.04578,0.65618,-0.838681935,0.516905415,0.062072595
1764504786.865721,-1.6633399999999998,0.04578,0.65618,-0.838681935,0.516905415,0.062072595
1764504786.865721,-1.6633399999999998,0.04578,0.65618,-0.838681935,0.516905415,0.062072595
1764504786.865721,-1.6633399999999998,0.04578,0.65618,-0.838681935,0.516905415,0.062072595
1764504786.865721,-1.6633399999999998,0.04578,0.65618,-0.838681935,0.516905415,0.062072595
1764504786.865721,-3.03674,-0.3509799999999999,0.85456,-0.83837676,0.521544075,0.06542952
1764504786.865721,-3.03674,-0.3509799999999999,0.85456,-0.83837676,0.521544075,0.06542952
1764504786.8662474,-3.03674,-0.3509799999999999,0.85456,-0.83837676,0.521544075,0.06542952
1764504786.8662474,-3.03674,-0.3509799999999999,0.85456,-0.83837676,0.521544075,0.06542952
1764504786.8662474,-3.03674,-0.3509799999999999,0.85456,-0.83837676,0.521544075,0.06542952
1764504786.8662474,-3.03674,-0.3509799999999999,0.85456,-0.83837676,0.521544075,0.06542952
1764504786.8662474,-3.03674,-0.3509799999999999,0.85456,-0.83837676,0.521544075,0.06542952
1764504786.8662474,-3.03674,-0.3509799999999999,0.85456,-0.83837676,0.521544075,0.06542952
1764504786.8662474,-3.03674,-0.3509799999999999,0.85456,-0.83837676,0.521544075,0.06542952
1764504786.8662474,-3.03674,-0.3509799999999999,0.85456,-0.83837676,0.521544075,0.06542952
1764504786.8662474,-5.24944,0.3357199999999999,0.4578,-0.83825469,0.52197132,0.069396795
1764504786.8662474,-5.24944,0.3357199999999999,0.4578,-0.83825469,0.52197132,0.069396795
1764504786.8662474,-5.24944,0.3357199999999999,0.4578,-0.83825469,0.52197132,0.069396795
1764504786.8662474,-5.24944,0.3357199999999999,0.4578,-0.83825469,0.52197132,0.069396795
1764504786.8662474,-5.24944,0.3357199999999999,0.4578,-0.83825469,0.52197132,0.069396795
1764504786.8662474,-5.24944,0.3357199999999999,0.4578,-0.83825469,0.52197132,0.069396795
1764504786.8662474,-5.24944,0.3357199999999999,0.4578,-0.83825469,0.52197132,0.069396795
1764504786.8662474,-5.24944,0.3357199999999999,0.4578,-0.83825469,0.52197132,0.069396795
1764504786.8662474,-5.24944,0.3357199999999999,0.4578,-0.83825469,0.52197132,0.069396795
1764504786.8662474,-5.24944,0.3357199999999999,0.4578,-0.83825469,0.52197132,0.069396795
1764504786.9144602,-6.31764,1.54126,0.03052,-0.8386209,0.519468885,0.06982404
1764504786.9144602,-6.31764,1.54126,0.03052,-0.8386209,0.519468885,0.06982404
1764504786.9144602,-6.31764,1.54126,0.03052,-0.8386209,0.519468885,0.06982404
1764504786.9144602,-6.31764,1.54126,0.03052,-0.8386209,0.519468885,0.06982404
1764504786.9144602,-6.31764,1.54126,0.03052,-0.8386209,0.519468885,0.06982404
1764504786.9144602,-6.31764,1.54126,0.03052,-0.8386209,0.519468885,0.06982404
1764504786.9144602,-6.31764,1.54126,0.03052,-0.8386209,0.519468885,0.06982404
1764504786.9144602,-6.31764,1.54126,0.03052,-0.8386209,0.519468885,0.06982404
1764504786.9144602,-6.31764,1.54126,0.03052,-0.8386209,0.519468885,0.06982404
1764504786.9144602,-6.31764,1.54126,0.03052,-0.8386209,0.519468885,0.06982404
1764504786.9144602,-6.302379999999999,1.99906,-0.12208,-0.8398416,0.516783345,0.06811506
1764504786.9144602,-6.302379999999999,1.99906,-0.12208,-0.8398416,0.516783345,0.06811506
1764504786.9149852,-6.302379999999999,1.99906,-0.12208,-0.8398416,0.516783345,0.06811506
1764504786.9149852,-6.302379999999999,1.99906,-0.12208,-0.8398416,0.516783345,0.06811506
1764504786.9149852,-6.302379999999999,1.99906,-0.12208,-0.8398416,0.516783345,0.06811506
1764504786.9149852,-6.302379999999999,1.99906,-0.12208,-0.8398416,0.516783345,0.06811506
1764504786.9149852,-6.302379999999999,1.99906,-0.12208,-0.8398416,0.516783345,0.06811506
1764504786.9149852,-6.302379999999999,1.99906,-0.12208,-0.8398416,0.516783345,0.06811506
1764504786.9149852,-6.302379999999999,1.99906,-0.12208,-0.8398416,0.516783345,0.06811506
1764504786.9149852,-6.302379999999999,1.99906,-0.12208,-0.8398416,0.516783345,0.06811506
1764504786.9149852,-6.43972,0.94612,0.06104,-0.84057402,0.515562645,0.06640608
1764504786.9149852,-6.43972,0.94612,0.06104,-0.84057402,0.515562645,0.06640608
1764504786.9149852,-6.43972,0.94612,0.06104,-0.84057402,0.515562645,0.06640608
1764504786.9149852,-6.43972,0.94612,0.06104,-0.84057402,0.515562645,0.06640608
1764504786.9609263,-6.43972,0.94612,0.06104,-0.84057402,0.515562645,0.06640608
1764504786.9609263,-6.43972,0.94612,0.06104,-0.84057402,0.515562645,0.06640608
1764504786.9614782,-6.43972,0.94612,0.06104,-0.84057402,0.515562645,0.06640608
1764504786.9614782,-6.43972,0.94612,0.06104,-0.84057402,0.515562645,0.06640608
1764504786.9614782,-6.43972,0.94612,0.06104,-0.84057402,0.515562645,0.06640608
1764504786.9614782,-6.43972,0.94612,0.06104,-0.84057402,0.515562645,0.06640608
1764504786.9614782,-4.86794,0.21364,-0.0762999999999999,-0.84057402,0.512694,0.06677229
1764504786.962501,-4.86794,0.21364,-0.0762999999999999,-0.84057402,0.512694,0.06677229
1764504786.962501,-4.86794,0.21364,-0.0762999999999999,-0.84057402,0.512694,0.06677229
1764504786.962501,-4.86794,0.21364,-0.0762999999999999,-0.84057402,0.512694,0.06677229
1764504786.962501,-4.86794,0.21364,-0.0762999999999999,-0.84057402,0.512694,0.06677229
1764504786.962501,-4.86794,0.21364,-0.0762999999999999,-0.84057402,0.512694,0.06677229
1764504786.962501,-4.86794,0.21364,-0.0762999999999999,-0.84057402,0.512694,0.06677229
1764504786.963502,-4.86794,0.21364,-0.0762999999999999,-0.84057402,0.512694,0.06677229
1764504786.963502,-4.86794,0.21364,-0.0762999999999999,-0.84057402,0.512694,0.06677229
1764504786.963502,-4.86794,0.21364,-0.0762999999999999,-0.84057402,0.512694,0.06677229
1764504786.963502,-3.5861,0.1678599999999999,0.2289,-0.840635055,0.508848795,0.067687815
1764504786.963502,-3.5861,0.1678599999999999,0.2289,-0.840635055,0.508848795,0.067687815
1764504786.963502,-3.5861,0.1678599999999999,0.2289,-0.840635055,0.508848795,0.067687815
1764504786.963502,-3.5861,0.1678599999999999,0.2289,-0.840635055,0.508848795,0.067687815
1764504786.963502,-3.5861,0.1678599999999999,0.2289,-0.840635055,0.508848795,0.067687815
1764504786.963502,-3.5861,0.1678599999999999,0.2289,-0.840635055,0.508848795,0.067687815
1764504787.0067203,-3.5861,0.1678599999999999,0.2289,-0.840635055,0.508848795,0.067687815
1764504787.0067203,-3.5861,0.1678599999999999,0.2289,-0.840635055,0.508848795,0.067687815
1764504787.0067203,-3.5861,0.1678599999999999,0.2289,-0.840635055,0.508848795,0.067687815
1764504787.0067203,-3.5861,0.1678599999999999,0.2289,-0.840635055,0.508848795,0.067687815
1764504787.0067203,-1.99906,-0.5341,0.6867,-0.842283,0.50768913,0.06787092
1764504787.0067203,-1.99906,-0.5341,0.6867,-0.842283,0.50768913,0.06787092
1764504787.007756,-1.99906,-0.5341,0.6867,-0.842283,0.50768913,0.06787092
1764504787.007756,-1.99906,-0.5341,0.6867,-0.842283,0.50768913,0.06787092
1764504787.007756,-1.99906,-0.5341,0.6867,-0.842283,0.50768913,0.06787092
1764504787.007756,-1.99906,-0.5341,0.6867,-0.842283,0.50768913,0.06787092
1764504787.007756,-1.99906,-0.5341,0.6867,-0.842283,0.50768913,0.06787092
1764504787.007756,-1.99906,-0.5341,0.6867,-0.842283,0.50768913,0.06787092
1764504787.007756,-1.99906,-0.5341,0.6867,-0.842283,0.50768913,0.06787092
1764504787.007756,-1.99906,-0.5341,0.6867,-0.842283,0.50768913,0.06787092
1764504787.007756,-1.23606,-1.17502,0.65618,-0.84313749,0.50927604,0.06652815
1764504787.007756,-1.23606,-1.17502,0.65618,-0.84313749,0.50927604,0.06652815
1764504787.007756,-1.23606,-1.17502,0.65618,-0.84313749,0.50927604,0.06652815
1764504787.0087538,-1.23606,-1.17502,0.65618,-0.84313749,0.50927604,0.06652815
1764504787.0092747,-1.23606,-1.17502,0.65618,-0.84313749,0.50927604,0.06652815
1764504787.0092747,-1.23606,-1.17502,0.65618,-0.84313749,0.50927604,0.06652815
1764504787.0092747,-1.23606,-1.17502,0.65618,-0.84313749,0.50927604,0.06652815
1764504787.0092747,-1.23606,-1.17502,0.65618,-0.84313749,0.50927604,0.06652815
1764504787.0092747,-1.23606,-1.17502,0.65618,-0.84313749,0.50927604,0.06652815
1764504787.0092747,-1.23606,-1.17502,0.65618,-0.84313749,0.50927604,0.06652815
1764504787.0515096,-1.57178,-1.49548,0.01526,-0.841367475,0.513609525,0.0671385
1764504787.0515096,-1.57178,-1.49548,0.01526,-0.841367475,0.513609525,0.0671385
1764504787.0515096,-1.57178,-1.49548,0.01526,-0.841367475,0.513609525,0.0671385
1764504787.0515096,-1.57178,-1.49548,0.01526,-0.841367475,0.513609525,0.0671385
1764504787.0515096,-1.57178,-1.49548,0.01526,-0.841367475,0.513609525,0.0671385
1764504787.0515096,-1.57178,-1.49548,0.01526,-0.841367475,0.513609525,0.0671385
1764504787.0515096,-1.57178,-1.49548,0.01526,-0.841367475,0.513609525,0.0671385
1764504787.0515096,-1.57178,-1.49548,0.01526,-0.841367475,0.513609525,0.0671385
1764504787.0515096,-1.57178,-1.49548,0.01526,-0.841367475,0.513609525,0.0671385
1764504787.0515096,-1.57178,-1.49548,0.01526,-0.841367475,0.513609525,0.0671385
1764504787.0515096,-2.2127,-0.96138,0.01526,-0.8399026350000001,0.51733266,0.069396795
1764504787.0515096,-2.2127,-0.96138,0.01526,-0.8399026350000001,0.51733266,0.069396795
1764504787.0530128,-2.2127,-0.96138,0.01526,-0.8399026350000001,0.51733266,0.069396795
1764504787.0530128,-2.2127,-0.96138,0.01526,-0.8399026350000001,0.51733266,0.069396795
1764504787.0530128,-2.2127,-0.96138,0.01526,-0.8399026350000001,0.51733266,0.069396795
1764504787.0530128,-2.2127,-0.96138,0.01526,-0.8399026350000001,0.51733266,0.069396795
1764504787.0530128,-2.2127,-0.96138,0.01526,-0.8399026350000001,0.51733266,0.069396795
1764504787.0530128,-2.2127,-0.96138,0.01526,-0.8399026350000001,0.51733266,0.069396795
1764504787.0530128,-2.2127,-0.96138,0.01526,-0.8399026350000001,0.51733266,0.069396795
1764504787.0530128,-2.2127,-0.96138,0.01526,-0.8399026350000001,0.51733266,0.069396795
1764504787.0530128,-3.815,0.48832,-0.36624,-0.83764434,0.518126115,0.071716125
1764504787.0530128,-3.815,0.48832,-0.36624,-0.83764434,0.518126115,0.071716125
1764504787.1000082,-3.815,0.48832,-0.36624,-0.83764434,0.518126115,0.071716125
1764504787.1000082,-3.815,0.48832,-0.36624,-0.83764434,0.518126115,0.071716125
1764504787.1000082,-3.815,0.48832,-0.36624,-0.83764434,0.518126115,0.071716125
1764504787.1000082,-3.815,0.48832,-0.36624,-0.83764434,0.518126115,0.071716125
1764504787.1000082,-3.815,0.48832,-0.36624,-0.83764434,0.518126115,0.071716125
1764504787.1000082,-3.815,0.48832,-0.36624,-0.83764434,0.518126115,0.071716125
1764504787.1000082,-3.815,0.48832,-0.36624,-0.83764434,0.518126115,0.071716125
1764504787.1000082,-3.815,0.48832,-0.36624,-0.83764434,0.518126115,0.071716125
1764504787.1000082,-5.52412,1.35814,-0.3204599999999999,-0.837705375,0.51782094,0.072570615
1764504787.1000082,-5.52412,1.35814,-0.3204599999999999,-0.837705375,0.51782094,0.072570615
1764504787.1000082,-5.52412,1.35814,-0.3204599999999999,-0.837705375,0.51782094,0.072570615
1764504787.1000082,-5.52412,1.35814,-0.3204599999999999,-0.837705375,0.51782094,0.072570615
1764504787.1000082,-5.52412,1.35814,-0.3204599999999999,-0.837705375,0.51782094,0.072570615
1764504787.1000082,-5.52412,1.35814,-0.3204599999999999,-0.837705375,0.51782094,0.072570615
1764504787.1000082,-5.52412,1.35814,-0.3204599999999999,-0.837705375,0.51782094,0.072570615
1764504787.1005163,-5.52412,1.35814,-0.3204599999999999,-0.837705375,0.51782094,0.072570615
1764504787.1005163,-5.52412,1.35814,-0.3204599999999999,-0.837705375,0.51782094,0.072570615
1764504787.1005163,-5.52412,1.35814,-0.3204599999999999,-0.837705375,0.51782094,0.072570615
1764504787.1005163,-6.2566,0.9156,-0.1525999999999999,-0.83788848,0.516905415,0.07153302
1764504787.1005163,-6.2566,0.9156,-0.1525999999999999,-0.83788848,0.516905415,0.07153302
1764504787.102532,-6.2566,0.9156,-0.1525999999999999,-0.83788848,0.516905415,0.07153302
1764504787.102532,-6.2566,0.9156,-0.1525999999999999,-0.83788848,0.516905415,0.07153302
1764504787.102532,-6.2566,0.9156,-0.1525999999999999,-0.83788848,0.516905415,0.07153302
1764504787.102532,-6.2566,0.9156,-0.1525999999999999,-0.83788848,0.516905415,0.07153302
1764504787.1440878,-6.2566,0.9156,-0.1525999999999999,-0.83788848,0.516905415,0.07153302
1764504787.145104,-6.2566,0.9156,-0.1525999999999999,-0.83788848,0.516905415,0.07153302
1764504787.145104,-6.2566,0.9156,-0.1525999999999999,-0.83788848,0.516905415,0.07153302
1764504787.145104,-6.2566,0.9156,-0.1525999999999999,-0.83788848,0.516905415,0.07153302
1764504787.145104,-5.4173,1.35814,0.03052,-0.838193655,0.51684438,0.06933576
1764504787.145104,-5.4173,1.35814,0.03052,-0.838193655,0.51684438,0.06933576
1764504787.1464562,-5.4173,1.35814,0.03052,-0.838193655,0.51684438,0.06933576
1764504787.1464562,-5.4173,1.35814,0.03052,-0.838193655,0.51684438,0.06933576
1764504787.1464562,-5.4173,1.35814,0.03052,-0.838193655,0.51684438,0.06933576
1764504787.1464562,-5.4173,1.35814,0.03052,-0.838193655,0.51684438,0.06933576
1764504787.1464562,-5.4173,1.35814,0.03052,-0.838193655,0.51684438,0.06933576
1764504787.1464562,-5.4173,1.35814,0.03052,-0.838193655,0.51684438,0.06933576
1764504787.1464562,-5.4173,1.35814,0.03052,-0.838193655,0.51684438,0.06933576
1764504787.1474583,-5.4173,1.35814,0.03052,-0.838193655,0.51684438,0.06933576
1764504787.1474583,-5.15788,0.59514,-0.36624,-0.838437795,0.516050925,0.0671385
1764504787.1474583,-5.15788,0.59514,-0.36624,-0.838437795,0.516050925,0.0671385
1764504787.1474583,-5.15788,0.59514,-0.36624,-0.838437795,0.516050925,0.0671385
1764504787.1474583,-5.15788,0.59514,-0.36624,-0.838437795,0.516050925,0.0671385
1764504787.1474583,-5.15788,0.59514,-0.36624,-0.838437795,0.516050925,0.0671385
1764504787.1474583,-5.15788,0.59514,-0.36624,-0.838437795,0.516050925,0.0671385
1764504787.1474583,-5.15788,0.59514,-0.36624,-0.838437795,0.516050925,0.0671385
1764504787.1474583,-5.15788,0.59514,-0.36624,-0.838437795,0.516050925,0.0671385
1764504787.1474583,-5.15788,0.59514,-0.36624,-0.838437795,0.516050925,0.0671385
1764504787.1474583,-5.15788,0.59514,-0.36624,-0.838437795,0.516050925,0.0671385
1764504787.1951623,-5.08158,-0.0762999999999999,-0.6103999999999999,-0.838804005,0.51489126,0.067565745
1764504787.1951623,-5.08158,-0.0762999999999999,-0.6103999999999999,-0.838804005,0.51489126,0.067565745
1764504787.196616,-5.08158,-0.0762999999999999,-0.6103999999999999,-0.838804005,0.51489126,0.067565745
1764504787.196616,-5.08158,-0.0762999999999999,-0.6103999999999999,-0.838804005,0.51489126,0.067565745
1764504787.196616,-5.08158,-0.0762999999999999,-0.6103999999999999,-0.838804005,0.51489126,0.067565745
1764504787.1976168,-5.08158,-0.0762999999999999,-0.6103999999999999,-0.838804005,0.51489126,0.067565745
1764504787.1976168,-5.08158,-0.0762999999999999,-0.6103999999999999,-0.838804005,0.51489126,0.067565745
1764504787.1976168,-5.08158,-0.0762999999999999,-0.6103999999999999,-0.838804005,0.51489126,0.067565745
1764504787.19809,-5.08158,-0.0762999999999999,-0.6103999999999999,-0.838804005,0.51489126,0.067565745
1764504787.19809,-5.08158,-0.0762999999999999,-0.6103999999999999,-0.838804005,0.51489126,0.067565745
1764504787.1986225,-4.6543,0.27468,-0.50358,-0.839292285,0.512388825,0.068420235
1764504787.1986225,-4.6543,0.27468,-0.50358,-0.839292285,0.512388825,0.068420235
1764504787.1986225,-4.6543,0.27468,-0.50358,-0.839292285,0.512388825,0.068420235
1764504787.1986225,-4.6543,0.27468,-0.50358,-0.839292285,0.512388825,0.068420235
1764504787.1986225,-4.6543,0.27468,-0.50358,-0.839292285,0.512388825,0.068420235
1764504787.1986225,-4.6543,0.27468,-0.50358,-0.839292285,0.512388825,0.068420235
1764504787.1996078,-4.6543,0.27468,-0.50358,-0.839292285,0.512388825,0.068420235
1764504787.1996078,-4.6543,0.27468,-0.50358,-0.839292285,0.512388825,0.068420235
1764504787.1996078,-4.6543,0.27468,-0.50358,-0.839292285,0.512388825,0.068420235
1764504787.1996078,-4.6543,0.27468,-0.50358,-0.839292285,0.512388825,0.068420235
1764504787.1996078,-3.6624,0.85456,0.41202,-0.84020781,0.509337075,0.068176095
1764504787.1996078,-3.6624,0.85456,0.41202,-0.84020781,0.509337075,0.068176095
1764504787.1996078,-3.6624,0.85456,0.41202,-0.84020781,0.509337075,0.068176095
1764504787.1996078,-3.6624,0.85456,0.41202,-0.84020781,0.509337075,0.068176095
1764504787.240013,-3.6624,0.85456,0.41202,-0.84020781,0.509337075,0.068176095
1764504787.240013,-3.6624,0.85456,0.41202,-0.84020781,0.509337075,0.068176095
1764504787.240013,-3.6624,0.85456,0.41202,-0.84020781,0.509337075,0.068176095
1764504787.240013,-3.6624,0.85456,0.41202,-0.84020781,0.509337075,0.068176095
1764504787.240013,-3.6624,0.85456,0.41202,-0.84020781,0.509337075,0.068176095
1764504787.240013,-3.6624,0.85456,0.41202,-0.84020781,0.509337075,0.068176095
1764504787.240013,-2.8231,0.56462,0.88508,-0.84020781,0.50988639,0.06896955
1764504787.240013,-2.8231,0.56462,0.88508,-0.84020781,0.50988639,0.06896955
1764504787.240013,-2.8231,0.56462,0.88508,-0.84020781,0.50988639,0.06896955
1764504787.240013,-2.8231,0.56462,0.88508,-0.84020781,0.50988639,0.06896955
1764504787.240013,-2.8231,0.56462,0.88508,-0.84020781,0.50988639,0.06896955
1764504787.240013,-2.8231,0.56462,0.88508,-0.84020781,0.50988639,0.06896955
1764504787.240013,-2.8231,0.56462,0.88508,-0.84020781,0.50988639,0.06896955
1764504787.240013,-2.8231,0.56462,0.88508,-0.84020781,0.50988639,0.06896955
1764504787.240013,-2.8231,0.56462,0.88508,-0.84020781,0.50988639,0.06896955
1764504787.240013,-2.8231,0.56462,0.88508,-0.84020781,0.50988639,0.06896955
1764504787.240013,-2.16692,0.7019599999999999,0.54936,-0.83813262,0.510923985,0.06933576
1764504787.240013,-2.16692,0.7019599999999999,0.54936,-0.83813262,0.510923985,0.06933576
1764504787.240013,-2.16692,0.7019599999999999,0.54936,-0.83813262,0.510923985,0.06933576
1764504787.240013,-2.16692,0.7019599999999999,0.54936,-0.83813262,0.510923985,0.06933576
1764504787.240013,-2.16692,0.7019599999999999,0.54936,-0.83813262,0.510923985,0.06933576
1764504787.240013,-2.16692,0.7019599999999999,0.54936,-0.83813262,0.510923985,0.06933576
1764504787.240013,-2.16692,0.7019599999999999,0.54936,-0.83813262,0.510923985,0.06933576
1764504787.240013,-2.16692,0.7019599999999999,0.54936,-0.83813262,0.510923985,0.06933576
1764504787.289976,-2.16692,0.7019599999999999,0.54936,-0.83813262,0.510923985,0.06933576
1764504787.289976,-2.16692,0.7019599999999999,0.54936,-0.83813262,0.510923985,0.06933576
1764504787.289976,-3.84552,2.24322,-0.1525999999999999,-0.837095025,0.511046055,0.06945783
1764504787.289976,-3.84552,2.24322,-0.1525999999999999,-0.837095025,0.511046055,0.06945783
1764504787.289976,-3.84552,2.24322,-0.1525999999999999,-0.837095025,0.511046055,0.06945783
1764504787.289976,-3.84552,2.24322,-0.1525999999999999,-0.837095025,0.511046055,0.06945783
1764504787.289976,-3.84552,2.24322,-0.1525999999999999,-0.837095025,0.511046055,0.06945783
1764504787.289976,-3.84552,2.24322,-0.1525999999999999,-0.837095025,0.511046055,0.06945783
1764504787.289976,-3.84552,2.24322,-0.1525999999999999,-0.837095025,0.511046055,0.06945783
1764504787.289976,-3.84552,2.24322,-0.1525999999999999,-0.837095025,0.511046055,0.06945783
1764504787.289976,-3.84552,2.24322,-0.1525999999999999,-0.837095025,0.511046055,0.06945783
1764504787.289976,-3.84552,2.24322,-0.1525999999999999,-0.837095025,0.511046055,0.06945783
1764504787.289976,-3.99812,1.86172,1.05294,-0.84020781,0.512755035,0.06823713
1764504787.289976,-3.99812,1.86172,1.05294,-0.84020781,0.512755035,0.06823713
1764504787.289976,-3.99812,1.86172,1.05294,-0.84020781,0.512755035,0.06823713
1764504787.289976,-3.99812,1.86172,1.05294,-0.84020781,0.512755035,0.06823713
1764504787.289976,-3.99812,1.86172,1.05294,-0.84020781,0.512755035,0.06823713
1764504787.289976,-3.99812,1.86172,1.05294,-0.84020781,0.512755035,0.06823713
1764504787.289976,-3.99812,1.86172,1.05294,-0.84020781,0.512755035,0.06823713
1764504787.289976,-3.99812,1.86172,1.05294,-0.84020781,0.512755035,0.06823713
1764504787.289976,-3.99812,1.86172,1.05294,-0.84020781,0.512755035,0.06823713
1764504787.289976,-3.99812,1.86172,1.05294,-0.84020781,0.512755035,0.06823713
1764504787.289976,-3.61662,-0.59514,1.25132,-0.843198525,0.51525747,0.0683592
1764504787.289976,-3.61662,-0.59514,1.25132,-0.843198525,0.51525747,0.0683592
1764504787.3364975,-3.61662,-0.59514,1.25132,-0.843198525,0.51525747,0.0683592
1764504787.3364975,-3.61662,-0.59514,1.25132,-0.843198525,0.51525747,0.0683592
1764504787.3364975,-3.61662,-0.59514,1.25132,-0.843198525,0.51525747,0.0683592
1764504787.3364975,-3.61662,-0.59514,1.25132,-0.843198525,0.51525747,0.0683592
1764504787.3364975,-3.61662,-0.59514,1.25132,-0.843198525,0.51525747,0.0683592
1764504787.3364975,-3.61662,-0.59514,1.25132,-0.843198525,0.51525747,0.0683592
1764504787.3364975,-3.61662,-0.59514,1.25132,-0.843198525,0.51525747,0.0683592
1764504787.3364975,-3.61662,-0.59514,1.25132,-0.843198525,0.51525747,0.0683592
1764504787.3364975,-4.2728,-0.19838,-0.1525999999999999,-0.842466105,0.516295065,0.06982404
1764504787.3364975,-4.2728,-0.19838,-0.1525999999999999,-0.842466105,0.516295065,0.06982404
1764504787.3364975,-4.2728,-0.19838,-0.1525999999999999,-0.842466105,0.516295065,0.06982404
1764504787.3364975,-4.2728,-0.19838,-0.1525999999999999,-0.842466105,0.516295065,0.06982404
1764504787.3364975,-4.2728,-0.19838,-0.1525999999999999,-0.842466105,0.516295065,0.06982404
1764504787.3364975,-4.2728,-0.19838,-0.1525999999999999,-0.842466105,0.516295065,0.06982404
1764504787.3364975,-4.2728,-0.19838,-0.1525999999999999,-0.842466105,0.516295065,0.06982404
1764504787.3364975,-4.2728,-0.19838,-0.1525999999999999,-0.842466105,0.516295065,0.06982404
1764504787.3364975,-4.2728,-0.19838,-0.1525999999999999,-0.842466105,0.516295065,0.06982404
1764504787.3364975,-4.2728,-0.19838,-0.1525999999999999,-0.842466105,0.516295065,0.06982404
1764504787.3364975,-4.66956,0.96138,-0.3357199999999999,-0.84069609,0.51452505,0.07092267
1764504787.3364975,-4.66956,0.96138,-0.3357199999999999,-0.84069609,0.51452505,0.07092267
1764504787.3364975,-4.66956,0.96138,-0.3357199999999999,-0.84069609,0.51452505,0.07092267
1764504787.3364975,-4.66956,0.96138,-0.3357199999999999,-0.84069609,0.51452505,0.07092267
1764504787.3819292,-4.66956,0.96138,-0.3357199999999999,-0.84069609,0.51452505,0.07092267
1764504787.3819292,-4.66956,0.96138,-0.3357199999999999,-0.84069609,0.51452505,0.07092267
1764504787.3819292,-4.66956,0.96138,-0.3357199999999999,-0.84069609,0.51452505,0.07092267
1764504787.3819292,-4.66956,0.96138,-0.3357199999999999,-0.84069609,0.51452505,0.07092267
1764504787.3819292,-4.66956,0.96138,-0.3357199999999999,-0.84069609,0.51452505,0.07092267
1764504787.3819292,-4.66956,0.96138,-0.3357199999999999,-0.84069609,0.51452505,0.07092267
1764504787.3819292,-5.06632,1.46496,0.50358,-0.8398416,0.513121245,0.06982404
1764504787.3819292,-5.06632,1.46496,0.50358,-0.8398416,0.513121245,0.06982404
1764504787.3819292,-5.06632,1.46496,0.50358,-0.8398416,0.513121245,0.06982404
1764504787.3819292,-5.06632,1.46496,0.50358,-0.8398416,0.513121245,0.06982404
1764504787.3819292,-5.06632,1.46496,0.50358,-0.8398416,0.513121245,0.06982404
1764504787.3819292,-5.06632,1.46496,0.50358,-0.8398416,0.513121245,0.06982404
1764504787.3819292,-5.06632,1.46496,0.50358,-0.8398416,0.513121245,0.06982404
1764504787.3819292,-5.06632,1.46496,0.50358,-0.8398416,0.513121245,0.06982404
1764504787.3819292,-5.06632,1.46496,0.50358,-0.8398416,0.513121245,0.06982404
1764504787.3819292,-5.06632,1.46496,0.50358,-0.8398416,0.513121245,0.06982404
1764504787.3819292,-4.28806,1.2208,1.54126,-0.83935332,0.51135123,0.06945783
1764504787.3819292,-4.28806,1.2208,1.54126,-0.83935332,0.51135123,0.06945783
1764504787.382939,-4.28806,1.2208,1.54126,-0.83935332,0.51135123,0.06945783
1764504787.382939,-4.28806,1.2208,1.54126,-0.83935332,0.51135123,0.06945783
1764504787.382939,-4.28806,1.2208,1.54126,-0.83935332,0.51135123,0.06945783
1764504787.382939,-4.28806,1.2208,1.54126,-0.83935332,0.51135123,0.06945783
1764504787.382939,-4.28806,1.2208,1.54126,-0.83935332,0.51135123,0.06945783
1764504787.382939,-4.28806,1.2208,1.54126,-0.83935332,0.51135123,0.06945783
1764504787.4310176,-4.28806,1.2208,1.54126,-0.83935332,0.51135123,0.06945783
1764504787.4310176,-4.28806,1.2208,1.54126,-0.83935332,0.51135123,0.06945783
1764504787.4310176,-3.26564,0.18312,1.4039199999999998,-0.839536425,0.510923985,0.0695799
1764504787.4310176,-3.26564,0.18312,1.4039199999999998,-0.839536425,0.510923985,0.0695799
1764504787.4310176,-3.26564,0.18312,1.4039199999999998,-0.839536425,0.510923985,0.0695799
1764504787.4310176,-3.26564,0.18312,1.4039199999999998,-0.839536425,0.510923985,0.0695799
1764504787.4310176,-3.26564,0.18312,1.4039199999999998,-0.839536425,0.510923985,0.0695799
1764504787.4310176,-3.26564,0.18312,1.4039199999999998,-0.839536425,0.510923985,0.0695799
1764504787.4310176,-3.26564,0.18312,1.4039199999999998,-0.839536425,0.510923985,0.0695799
1764504787.4310176,-3.26564,0.18312,1.4039199999999998,-0.839536425,0.510923985,0.0695799
1764504787.4310176,-3.26564,0.18312,1.4039199999999998,-0.839536425,0.510923985,0.0695799
1764504787.4310176,-3.26564,0.18312,1.4039199999999998,-0.839536425,0.510923985,0.0695799
1764504787.4310176,-4.0439,0.47306,0.65618,-0.840512985,0.51171744,0.070007145
1764504787.4310176,-4.0439,0.47306,0.65618,-0.840512985,0.51171744,0.070007145
1764504787.4310176,-4.0439,0.47306,0.65618,-0.840512985,0.51171744,0.070007145
1764504787.4310176,-4.0439,0.47306,0.65618,-0.840512985,0.51171744,0.070007145
1764504787.4320185,-4.0439,0.47306,0.65618,-0.840512985,0.51171744,0.070007145
1764504787.4320185,-4.0439,0.47306,0.65618,-0.840512985,0.51171744,0.070007145
1764504787.4320185,-4.0439,0.47306,0.65618,-0.840512985,0.51171744,0.070007145
1764504787.4320185,-4.0439,0.47306,0.65618,-0.840512985,0.51171744,0.070007145
1764504787.4320185,-4.0439,0.47306,0.65618,-0.840512985,0.51171744,0.070007145
1764504787.4320185,-4.0439,0.47306,0.65618,-0.840512985,0.51171744,0.070007145
1764504787.4320185,-5.1121,0.6409199999999999,0.4578,-0.84155058,0.51415884,0.069763005
1764504787.4320185,-5.1121,0.6409199999999999,0.4578,-0.84155058,0.51415884,0.069763005
1764504787.476882,-5.1121,0.6409199999999999,0.4578,-0.84155058,0.51415884,0.069763005
1764504787.476882,-5.1121,0.6409199999999999,0.4578,-0.84155058,0.51415884,0.069763005
1764504787.476882,-5.1121,0.6409199999999999,0.4578,-0.84155058,0.51415884,0.069763005
1764504787.476882,-5.1121,0.6409199999999999,0.4578,-0.84155058,0.51415884,0.069763005
1764504787.476882,-5.1121,0.6409199999999999,0.4578,-0.84155058,0.51415884,0.069763005
1764504787.4778905,-5.1121,0.6409199999999999,0.4578,-0.84155058,0.51415884,0.069763005
1764504787.4778905,-5.1121,0.6409199999999999,0.4578,-0.84155058,0.51415884,0.069763005
1764504787.4778905,-5.1121,0.6409199999999999,0.4578,-0.84155058,0.51415884,0.069763005
1764504787.4778905,-4.68482,0.6867,0.24416,-0.841001265,0.516295065,0.06909162
1764504787.4778905,-4.68482,0.6867,0.24416,-0.841001265,0.516295065,0.06909162
1764504787.4778905,-4.68482,0.6867,0.24416,-0.841001265,0.516295065,0.06909162
1764504787.478938,-4.68482,0.6867,0.24416,-0.841001265,0.516295065,0.06909162
1764504787.478938,-4.68482,0.6867,0.24416,-0.841001265,0.516295065,0.06909162
1764504787.478938,-4.68482,0.6867,0.24416,-0.841001265,0.516295065,0.06909162
1764504787.478938,-4.68482,0.6867,0.24416,-0.841001265,0.516295065,0.06909162
1764504787.4796424,-4.68482,0.6867,0.24416,-0.841001265,0.516295065,0.06909162
1764504787.4796424,-4.68482,0.6867,0.24416,-0.841001265,0.516295065,0.06909162
1764504787.4796424,-4.68482,0.6867,0.24416,-0.841001265,0.516295065,0.06909162
1764504787.4801972,-3.5861,-0.48832,-0.41202,-0.8399026350000001,0.5165392050000001,0.0683592
1764504787.4801972,-3.5861,-0.48832,-0.41202,-0.8399026350000001,0.5165392050000001,0.0683592
1764504787.4801972,-3.5861,-0.48832,-0.41202,-0.8399026350000001,0.5165392050000001,0.0683592
1764504787.4801972,-3.5861,-0.48832,-0.41202,-0.8399026350000001,0.5165392050000001,0.0683592
1764504787.524438,-3.5861,-0.48832,-0.41202,-0.8399026350000001,0.5165392050000001,0.0683592
1764504787.524438,-3.5861,-0.48832,-0.41202,-0.8399026350000001,0.5165392050000001,0.0683592
1764504787.524438,-3.5861,-0.48832,-0.41202,-0.8399026350000001,0.5165392050000001,0.0683592
1764504787.524438,-3.5861,-0.48832,-0.41202,-0.8399026350000001,0.5165392050000001,0.0683592
1764504787.524438,-3.5861,-0.48832,-0.41202,-0.8399026350000001,0.5165392050000001,0.0683592
1764504787.524438,-3.5861,-0.48832,-0.41202,-0.8399026350000001,0.5165392050000001,0.0683592
1764504787.524438,-3.2046,0.77826,-0.41202,-0.838193655,0.515684715,0.068420235
1764504787.524438,-3.2046,0.77826,-0.41202,-0.838193655,0.515684715,0.068420235
1764504787.5729055,-3.2046,0.77826,-0.41202,-0.838193655,0.515684715,0.068420235
1764504787.5729055,-3.2046,0.77826,-0.41202,-0.838193655,0.515684715,0.068420235
1764504787.5729055,-3.2046,0.77826,-0.41202,-0.838193655,0.515684715,0.068420235
1764504787.5729055,-3.2046,0.77826,-0.41202,-0.838193655,0.515684715,0.068420235
1764504787.5729055,-3.2046,0.77826,-0.41202,-0.838193655,0.515684715,0.068420235
1764504787.5729055,-3.2046,0.77826,-0.41202,-0.838193655,0.515684715,0.068420235
1764504787.5729055,-3.2046,0.77826,-0.41202,-0.838193655,0.515684715,0.068420235
1764504787.5729055,-3.2046,0.77826,-0.41202,-0.838193655,0.515684715,0.068420235
1764504787.5729055,-4.51696,0.77826,0.0762999999999999,-0.83947539,0.51672231,0.068786445
1764504787.5729055,-4.51696,0.77826,0.0762999999999999,-0.83947539,0.51672231,0.068786445
1764504787.5729055,-4.51696,0.77826,0.0762999999999999,-0.83947539,0.51672231,0.068786445
1764504787.5729055,-4.51696,0.77826,0.0762999999999999,-0.83947539,0.51672231,0.068786445
1764504787.5729055,-4.51696,0.77826,0.0762999999999999,-0.83947539,0.51672231,0.068786445
1764504787.5729055,-4.51696,0.77826,0.0762999999999999,-0.83947539,0.51672231,0.068786445
1764504787.5729055,-4.51696,0.77826,0.0762999999999999,-0.83947539,0.51672231,0.068786445
1764504787.5729055,-4.51696,0.77826,0.0762999999999999,-0.83947539,0.51672231,0.068786445
1764504787.5729055,-4.51696,0.77826,0.0762999999999999,-0.83947539,0.51672231,0.068786445
1764504787.5729055,-4.51696,0.77826,0.0762999999999999,-0.83947539,0.51672231,0.068786445
1764504787.5729055,-5.38678,0.21364,-0.39676,-0.8404519500000001,0.517149555,0.06945783
1764504787.5729055,-5.38678,0.21364,-0.39676,-0.8404519500000001,0.517149555,0.06945783
1764504787.5729055,-5.38678,0.21364,-0.39676,-0.8404519500000001,0.517149555,0.06945783
1764504787.5729055,-5.38678,0.21364,-0.39676,-0.8404519500000001,0.517149555,0.06945783
1764504787.5729055,-5.38678,0.21364,-0.39676,-0.8404519500000001,0.517149555,0.06945783
1764504787.5729055,-5.38678,0.21364,-0.39676,-0.8404519500000001,0.517149555,0.06945783
1764504787.5729055,-5.38678,0.21364,-0.39676,-0.8404519500000001,0.517149555,0.06945783
1764504787.5729055,-5.38678,0.21364,-0.39676,-0.8404519500000001,0.517149555,0.06945783
1764504787.5729055,-5.38678,0.21364,-0.39676,-0.8404519500000001,0.517149555,0.06945783
1764504787.5729055,-5.38678,0.21364,-0.39676,-0.8404519500000001,0.517149555,0.06945783
1764504787.5729055,-5.70724,0.01526,-0.54936,-0.8399026350000001,0.51782094,0.068664375
1764504787.5729055,-5.70724,0.01526,-0.54936,-0.8399026350000001,0.51782094,0.068664375
1764504787.5729055,-5.70724,0.01526,-0.54936,-0.8399026350000001,0.51782094,0.068664375
1764504787.5729055,-5.70724,0.01526,-0.54936,-0.8399026350000001,0.51782094,0.068664375
1764504787.5729055,-5.70724,0.01526,-0.54936,-0.8399026350000001,0.51782094,0.068664375
1764504787.5729055,-5.70724,0.01526,-0.54936,-0.8399026350000001,0.51782094,0.068664375
1764504787.5729055,-5.70724,0.01526,-0.54936,-0.8399026350000001,0.51782094,0.068664375
1764504787.5729055,-5.70724,0.01526,-0.54936,-0.8399026350000001,0.51782094,0.068664375
1764504787.5729055,-5.70724,0.01526,-0.54936,-0.8399026350000001,0.51782094,0.068664375
1764504787.5729055,-5.70724,0.01526,-0.54936,-0.8399026350000001,0.51782094,0.068664375
1764504787.5729055,-4.99002,0.13734,-0.94612,-0.83849883,0.516417135,0.069152655
1764504787.5729055,-4.99002,0.13734,-0.94612,-0.83849883,0.516417135,0.069152655
1764504787.6190555,-4.99002,0.13734,-0.94612,-0.83849883,0.516417135,0.069152655
1764504787.6190555,-4.99002,0.13734,-0.94612,-0.83849883,0.516417135,0.069152655
1764504787.6190555,-4.99002,0.13734,-0.94612,-0.83849883,0.516417135,0.069152655
1764504787.6190555,-4.99002,0.13734,-0.94612,-0.83849883,0.516417135,0.069152655
1764504787.6190555,-4.99002,0.13734,-0.94612,-0.83849883,0.516417135,0.069152655
1764504787.6190555,-4.99002,0.13734,-0.94612,-0.83849883,0.516417135,0.069152655
1764504787.6190555,-4.99002,0.13734,-0.94612,-0.83849883,0.516417135,0.069152655
1764504787.6200547,-4.99002,0.13734,-0.94612,-0.83849883,0.516417135,0.069152655
1764504787.6200547,-4.89846,1.26658,-0.27468,-0.83923125,0.513487455,0.07067853
1764504787.6200547,-4.89846,1.26658,-0.27468,-0.83923125,0.513487455,0.07067853
1764504787.6200547,-4.89846,1.26658,-0.27468,-0.83923125,0.513487455,0.07067853
1764504787.6200547,-4.89846,1.26658,-0.27468,-0.83923125,0.513487455,0.07067853
1764504787.6200547,-4.89846,1.26658,-0.27468,-0.83923125,0.513487455,0.07067853
1764504787.6200547,-4.89846,1.26658,-0.27468,-0.83923125,0.513487455,0.07067853
1764504787.6200547,-4.89846,1.26658,-0.27468,-0.83923125,0.513487455,0.07067853
1764504787.6200547,-4.89846,1.26658,-0.27468,-0.83923125,0.513487455,0.07067853
1764504787.6200547,-4.89846,1.26658,-0.27468,-0.83923125,0.513487455,0.07067853
1764504787.6200547,-4.89846,1.26658,-0.27468,-0.83923125,0.513487455,0.07067853
1764504787.6200547,-4.54748,1.63282,0.24416,-0.839292285,0.51037467,0.070373355
1764504787.6200547,-4.54748,1.63282,0.24416,-0.839292285,0.51037467,0.070373355
1764504787.6200547,-4.54748,1.63282,0.24416,-0.839292285,0.51037467,0.070373355
1764504787.6200547,-4.54748,1.63282,0.24416,-0.839292285,0.51037467,0.070373355
1764504787.6200547,-4.54748,1.63282,0.24416,-0.839292285,0.51037467,0.070373355
1764504787.6200547,-4.54748,1.63282,0.24416,-0.839292285,0.51037467,0.070373355
1764504787.6643856,-4.54748,1.63282,0.24416,-0.839292285,0.51037467,0.070373355
1764504787.6643856,-4.54748,1.63282,0.24416,-0.839292285,0.51037467,0.070373355
1764504787.6643856,-4.54748,1.63282,0.24416,-0.839292285,0.51037467,0.070373355
1764504787.6643856,-4.54748,1.63282,0.24416,-0.839292285,0.51037467,0.070373355
1764504787.6643856,-3.93708,1.05294,0.44254,-0.840512985,0.50927604,0.06945783
1764504787.6643856,-3.93708,1.05294,0.44254,-0.840512985,0.50927604,0.06945783
1764504787.6643856,-3.93708,1.05294,0.44254,-0.840512985,0.50927604,0.06945783
1764504787.6643856,-3.93708,1.05294,0.44254,-0.840512985,0.50927604,0.06945783
1764504787.6643856,-3.93708,1.05294,0.44254,-0.840512985,0.50927604,0.06945783
1764504787.6648982,-3.93708,1.05294,0.44254,-0.840512985,0.50927604,0.06945783
1764504787.6648982,-3.93708,1.05294,0.44254,-0.840512985,0.50927604,0.06945783
1764504787.6648982,-3.93708,1.05294,0.44254,-0.840512985,0.50927604,0.06945783
1764504787.6648982,-3.93708,1.05294,0.44254,-0.840512985,0.50927604,0.06945783
1764504787.6648982,-3.93708,1.05294,0.44254,-0.840512985,0.50927604,0.06945783
1764504787.6648982,-3.2809,0.3509799999999999,0.41202,-0.8409402300000001,0.51110709,0.068786445
1764504787.6648982,-3.2809,0.3509799999999999,0.41202,-0.8409402300000001,0.51110709,0.068786445
1764504787.6648982,-3.2809,0.3509799999999999,0.41202,-0.8409402300000001,0.51110709,0.068786445
1764504787.6648982,-3.2809,0.3509799999999999,0.41202,-0.8409402300000001,0.51110709,0.068786445
1764504787.6648982,-3.2809,0.3509799999999999,0.41202,-0.8409402300000001,0.51110709,0.068786445
1764504787.6648982,-3.2809,0.3509799999999999,0.41202,-0.8409402300000001,0.51110709,0.068786445
1764504787.6648982,-3.2809,0.3509799999999999,0.41202,-0.8409402300000001,0.51110709,0.068786445
1764504787.6648982,-3.2809,0.3509799999999999,0.41202,-0.8409402300000001,0.51110709,0.068786445
1764504787.710521,-3.2809,0.3509799999999999,0.41202,-0.8409402300000001,0.51110709,0.068786445
1764504787.710521,-3.2809,0.3509799999999999,0.41202,-0.8409402300000001,0.51110709,0.068786445
1764504787.710521,-2.8994,-0.3051999999999999,0.39676,-0.84057402,0.51318228,0.0695799
1764504787.710521,-2.8994,-0.3051999999999999,0.39676,-0.84057402,0.51318228,0.0695799
1764504787.710521,-2.8994,-0.3051999999999999,0.39676,-0.84057402,0.51318228,0.0695799
1764504787.71106,-2.8994,-0.3051999999999999,0.39676,-0.84057402,0.51318228,0.0695799
1764504787.71106,-2.8994,-0.3051999999999999,0.39676,-0.84057402,0.51318228,0.0695799
1764504787.71106,-2.8994,-0.3051999999999999,0.39676,-0.84057402,0.51318228,0.0695799
1764504787.71106,-2.8994,-0.3051999999999999,0.39676,-0.84057402,0.51318228,0.0695799
1764504787.71106,-2.8994,-0.3051999999999999,0.39676,-0.84057402,0.51318228,0.0695799
1764504787.71106,-2.8994,-0.3051999999999999,0.39676,-0.84057402,0.51318228,0.0695799
1764504787.71106,-2.8994,-0.3051999999999999,0.39676,-0.84057402,0.51318228,0.0695799
1764504787.71106,-2.70102,0.12208,0.41202,-0.840146775,0.51367056,0.07043439
1764504787.71106,-2.70102,0.12208,0.41202,-0.840146775,0.51367056,0.07043439
1764504787.71106,-2.70102,0.12208,0.41202,-0.840146775,0.51367056,0.07043439
1764504787.71106,-2.70102,0.12208,0.41202,-0.840146775,0.51367056,0.07043439
1764504787.71106,-2.70102,0.12208,0.41202,-0.840146775,0.51367056,0.07043439
1764504787.71106,-2.70102,0.12208,0.41202,-0.840146775,0.51367056,0.07043439
1764504787.71106,-2.70102,0.12208,0.41202,-0.840146775,0.51367056,0.07043439
1764504787.71106,-2.70102,0.12208,0.41202,-0.840146775,0.51367056,0.07043439
1764504787.71106,-2.70102,0.12208,0.41202,-0.840146775,0.51367056,0.07043439
1764504787.71106,-2.70102,0.12208,0.41202,-0.840146775,0.51367056,0.07043439
1764504787.71106,-3.25038,0.41202,0.3204599999999999,-0.8404519500000001,0.5139147000000001,0.07055646
1764504787.71106,-3.25038,0.41202,0.3204599999999999,-0.8404519500000001,0.5139147000000001,0.07055646
1764504787.755271,-3.25038,0.41202,0.3204599999999999,-0.8404519500000001,0.5139147000000001,0.07055646
1764504787.7562864,-3.25038,0.41202,0.3204599999999999,-0.8404519500000001,0.5139147000000001,0.07055646
1764504787.7562864,-3.25038,0.41202,0.3204599999999999,-0.8404519500000001,0.5139147000000001,0.07055646
1764504787.7562864,-3.25038,0.41202,0.3204599999999999,-0.8404519500000001,0.5139147000000001,0.07055646
1764504787.7562864,-3.25038,0.41202,0.3204599999999999,-0.8404519500000001,0.5139147000000001,0.07055646
1764504787.7572918,-3.25038,0.41202,0.3204599999999999,-0.8404519500000001,0.5139147000000001,0.07055646
1764504787.7572918,-3.25038,0.41202,0.3204599999999999,-0.8404519500000001,0.5139147000000001,0.07055646
1764504787.7572918,-3.25038,0.41202,0.3204599999999999,-0.8404519500000001,0.5139147000000001,0.07055646
1764504787.759287,-4.16598,0.3509799999999999,0.57988,-0.839170215,0.514830225,0.071349915
1764504787.759287,-4.16598,0.3509799999999999,0.57988,-0.839170215,0.514830225,0.071349915
1764504787.759287,-4.16598,0.3509799999999999,0.57988,-0.839170215,0.514830225,0.071349915
1764504787.759287,-4.16598,0.3509799999999999,0.57988,-0.839170215,0.514830225,0.071349915
1764504787.759287,-4.16598,0.3509799999999999,0.57988,-0.839170215,0.514830225,0.071349915
1764504787.759287,-4.16598,0.3509799999999999,0.57988,-0.839170215,0.514830225,0.071349915
1764504787.759287,-4.16598,0.3509799999999999,0.57988,-0.839170215,0.514830225,0.071349915
1764504787.759287,-4.16598,0.3509799999999999,0.57988,-0.839170215,0.514830225,0.071349915
1764504787.759287,-4.16598,0.3509799999999999,0.57988,-0.839170215,0.514830225,0.071349915
1764504787.759287,-4.16598,0.3509799999999999,0.57988,-0.839170215,0.514830225,0.071349915
1764504787.759287,-5.4173,1.09872,-0.10682,-0.838804005,0.514830225,0.07177716
1764504787.759287,-5.4173,1.09872,-0.10682,-0.838804005,0.514830225,0.07177716
1764504787.759287,-5.4173,1.09872,-0.10682,-0.838804005,0.514830225,0.07177716
1764504787.759287,-5.4173,1.09872,-0.10682,-0.838804005,0.514830225,0.07177716
1764504787.8055184,-5.4173,1.09872,-0.10682,-0.838804005,0.514830225,0.07177716
1764504787.8055184,-5.4173,1.09872,-0.10682,-0.838804005,0.514830225,0.07177716
1764504787.8055184,-5.4173,1.09872,-0.10682,-0.838804005,0.514830225,0.07177716
1764504787.8055184,-5.4173,1.09872,-0.10682,-0.838804005,0.514830225,0.07177716
1764504787.8055184,-5.4173,1.09872,-0.10682,-0.838804005,0.514830225,0.07177716
1764504787.8055184,-5.4173,1.09872,-0.10682,-0.838804005,0.514830225,0.07177716
1764504787.8055184,-5.81406,1.6786,0.28994,-0.8388650400000001,0.5139147000000001,0.07177716
1764504787.8055184,-5.81406,1.6786,0.28994,-0.8388650400000001,0.5139147000000001,0.07177716
1764504787.8055184,-5.81406,1.6786,0.28994,-0.8388650400000001,0.5139147000000001,0.07177716
1764504787.8055184,-5.81406,1.6786,0.28994,-0.8388650400000001,0.5139147000000001,0.07177716
1764504787.8055184,-5.81406,1.6786,0.28994,-0.8388650400000001,0.5139147000000001,0.07177716
1764504787.8065348,-5.81406,1.6786,0.28994,-0.8388650400000001,0.5139147000000001,0.07177716
1764504787.8065348,-5.81406,1.6786,0.28994,-0.8388650400000001,0.5139147000000001,0.07177716
1764504787.8065348,-5.81406,1.6786,0.28994,-0.8388650400000001,0.5139147000000001,0.07177716
1764504787.8065348,-5.81406,1.6786,0.28994,-0.8388650400000001,0.5139147000000001,0.07177716
1764504787.8065348,-5.81406,1.6786,0.28994,-0.8388650400000001,0.5139147000000001,0.07177716
1764504787.8065348,-5.2647,1.11398,0.42728,-0.8404519500000001,0.511534335,0.070861635
1764504787.8065348,-5.2647,1.11398,0.42728,-0.8404519500000001,0.511534335,0.070861635
1764504787.8065348,-5.2647,1.11398,0.42728,-0.8404519500000001,0.511534335,0.070861635
1764504787.8065348,-5.2647,1.11398,0.42728,-0.8404519500000001,0.511534335,0.070861635
1764504787.8065348,-5.2647,1.11398,0.42728,-0.8404519500000001,0.511534335,0.070861635
1764504787.8065348,-5.2647,1.11398,0.42728,-0.8404519500000001,0.511534335,0.070861635
1764504787.8065348,-5.2647,1.11398,0.42728,-0.8404519500000001,0.511534335,0.070861635
1764504787.8065348,-5.2647,1.11398,0.42728,-0.8404519500000001,0.511534335,0.070861635
1764504787.848352,-5.2647,1.11398,0.42728,-0.8404519500000001,0.511534335,0.070861635
1764504787.848352,-5.2647,1.11398,0.42728,-0.8404519500000001,0.511534335,0.070861635
1764504787.848352,-3.98286,0.7019599999999999,0.50358,-0.842221965,0.510435705,0.06945783
1764504787.848352,-3.98286,0.7019599999999999,0.50358,-0.842221965,0.510435705,0.06945783
1764504787.848352,-3.98286,0.7019599999999999,0.50358,-0.842221965,0.510435705,0.06945783
1764504787.848352,-3.98286,0.7019599999999999,0.50358,-0.842221965,0.510435705,0.06945783
1764504787.848352,-3.98286,0.7019599999999999,0.50358,-0.842221965,0.510435705,0.06945783
1764504787.848352,-3.98286,0.7019599999999999,0.50358,-0.842221965,0.510435705,0.06945783
1764504787.8493657,-3.98286,0.7019599999999999,0.50358,-0.842221965,0.510435705,0.06945783
1764504787.8493657,-3.98286,0.7019599999999999,0.50358,-0.842221965,0.510435705,0.06945783
1764504787.8493657,-3.98286,0.7019599999999999,0.50358,-0.842221965,0.510435705,0.06945783
1764504787.850365,-3.98286,0.7019599999999999,0.50358,-0.842221965,0.510435705,0.06945783
1764504787.850365,-4.02864,0.3051999999999999,0.59514,-0.841977825,0.5114733,0.068664375
1764504787.850365,-4.02864,0.3051999999999999,0.59514,-0.841977825,0.5114733,0.068664375
1764504787.850365,-4.02864,0.3051999999999999,0.59514,-0.841977825,0.5114733,0.068664375
1764504787.850365,-4.02864,0.3051999999999999,0.59514,-0.841977825,0.5114733,0.068664375
1764504787.850365,-4.02864,0.3051999999999999,0.59514,-0.841977825,0.5114733,0.068664375
1764504787.850365,-4.02864,0.3051999999999999,0.59514,-0.841977825,0.5114733,0.068664375
1764504787.850365,-4.02864,0.3051999999999999,0.59514,-0.841977825,0.5114733,0.068664375
1764504787.850365,-4.02864,0.3051999999999999,0.59514,-0.841977825,0.5114733,0.068664375
1764504787.850365,-4.02864,0.3051999999999999,0.59514,-0.841977825,0.5114733,0.068664375
1764504787.850365,-4.02864,0.3051999999999999,0.59514,-0.841977825,0.5114733,0.068664375
1764504787.850365,-3.37246,0.93086,0.27468,-0.8404519500000001,0.51196158,0.06896955
1764504787.850365,-3.37246,0.93086,0.27468,-0.8404519500000001,0.51196158,0.06896955
1764504787.8972487,-3.37246,0.93086,0.27468,-0.8404519500000001,0.51196158,0.06896955
1764504787.8972487,-3.37246,0.93086,0.27468,-0.8404519500000001,0.51196158,0.06896955
1764504787.8972487,-3.37246,0.93086,0.27468,-0.8404519500000001,0.51196158,0.06896955
1764504787.8972487,-3.37246,0.93086,0.27468,-0.8404519500000001,0.51196158,0.06896955
1764504787.8972487,-3.37246,0.93086,0.27468,-0.8404519500000001,0.51196158,0.06896955
1764504787.8972487,-3.37246,0.93086,0.27468,-0.8404519500000001,0.51196158,0.06896955
1764504787.8972487,-3.37246,0.93086,0.27468,-0.8404519500000001,0.51196158,0.06896955
1764504787.8972487,-3.37246,0.93086,0.27468,-0.8404519500000001,0.51196158,0.06896955
1764504787.8972487,-3.92182,0.88508,0.3204599999999999,-0.84020781,0.51318228,0.06909162
1764504787.8972487,-3.92182,0.88508,0.3204599999999999,-0.84020781,0.51318228,0.06909162
1764504787.8972487,-3.92182,0.88508,0.3204599999999999,-0.84020781,0.51318228,0.06909162
1764504787.8972487,-3.92182,0.88508,0.3204599999999999,-0.84020781,0.51318228,0.06909162
1764504787.8972487,-3.92182,0.88508,0.3204599999999999,-0.84020781,0.51318228,0.06909162
1764504787.8972487,-3.92182,0.88508,0.3204599999999999,-0.84020781,0.51318228,0.06909162
1764504787.8972487,-3.92182,0.88508,0.3204599999999999,-0.84020781,0.51318228,0.06909162
1764504787.8972487,-3.92182,0.88508,0.3204599999999999,-0.84020781,0.51318228,0.06909162
1764504787.8972487,-3.92182,0.88508,0.3204599999999999,-0.84020781,0.51318228,0.06909162
1764504787.8972487,-3.92182,0.88508,0.3204599999999999,-0.84020781,0.51318228,0.06909162
1764504787.8972487,-4.60852,1.00716,0.5341,-0.8398416,0.5139147000000001,0.06982404
1764504787.8972487,-4.60852,1.00716,0.5341,-0.8398416,0.5139147000000001,0.06982404
1764504787.8972487,-4.60852,1.00716,0.5341,-0.8398416,0.5139147000000001,0.06982404
1764504787.8972487,-4.60852,1.00716,0.5341,-0.8398416,0.5139147000000001,0.06982404
1764504787.9439554,-4.60852,1.00716,0.5341,-0.8398416,0.5139147000000001,0.06982404
1764504787.9439554,-4.60852,1.00716,0.5341,-0.8398416,0.5139147000000001,0.06982404
1764504787.9439554,-4.60852,1.00716,0.5341,-0.8398416,0.5139147000000001,0.06982404
1764504787.9454622,-4.60852,1.00716,0.5341,-0.8398416,0.5139147000000001,0.06982404
1764504787.9454622,-4.60852,1.00716,0.5341,-0.8398416,0.5139147000000001,0.06982404
1764504787.9454622,-4.60852,1.00716,0.5341,-0.8398416,0.5139147000000001,0.06982404
1764504787.9454622,-4.54748,0.6714399999999999,0.4578,-0.840024705,0.514708155,0.07019025
1764504787.946002,-4.54748,0.6714399999999999,0.4578,-0.840024705,0.514708155,0.07019025
1764504787.946002,-4.54748,0.6714399999999999,0.4578,-0.840024705,0.514708155,0.07019025
1764504787.9467716,-4.54748,0.6714399999999999,0.4578,-0.840024705,0.514708155,0.07019025
1764504787.9467716,-4.54748,0.6714399999999999,0.4578,-0.840024705,0.514708155,0.07019025
1764504787.9467716,-4.54748,0.6714399999999999,0.4578,-0.840024705,0.514708155,0.07019025
1764504787.9467716,-4.54748,0.6714399999999999,0.4578,-0.840024705,0.514708155,0.07019025
1764504787.9467716,-4.54748,0.6714399999999999,0.4578,-0.840024705,0.514708155,0.07019025
1764504787.947786,-4.54748,0.6714399999999999,0.4578,-0.840024705,0.514708155,0.07019025
1764504787.947786,-4.54748,0.6714399999999999,0.4578,-0.840024705,0.514708155,0.07019025
1764504787.947786,-4.56274,1.23606,0.77826,-0.839170215,0.514708155,0.070129215
1764504787.947786,-4.56274,1.23606,0.77826,-0.839170215,0.514708155,0.070129215
1764504787.947786,-4.56274,1.23606,0.77826,-0.839170215,0.514708155,0.070129215
1764504787.947786,-4.56274,1.23606,0.77826,-0.839170215,0.514708155,0.070129215
1764504787.947786,-4.56274,1.23606,0.77826,-0.839170215,0.514708155,0.070129215
1764504787.947786,-4.56274,1.23606,0.77826,-0.839170215,0.514708155,0.070129215
1764504787.947786,-4.56274,1.23606,0.77826,-0.839170215,0.514708155,0.070129215
1764504787.947786,-4.56274,1.23606,0.77826,-0.839170215,0.514708155,0.070129215
1764504787.988536,-4.56274,1.23606,0.77826,-0.839170215,0.514708155,0.070129215
1764504787.988536,-4.56274,1.23606,0.77826,-0.839170215,0.514708155,0.070129215
1764504787.988536,-4.22702,1.51074,1.03768,-0.840146775,0.514097805,0.068420235
1764504787.988536,-4.22702,1.51074,1.03768,-0.840146775,0.514097805,0.068420235
1764504787.988536,-4.22702,1.51074,1.03768,-0.840146775,0.514097805,0.068420235
1764504787.988536,-4.22702,1.51074,1.03768,-0.840146775,0.514097805,0.068420235
1764504787.988536,-4.22702,1.51074,1.03768,-0.840146775,0.514097805,0.068420235
1764504787.988536,-4.22702,1.51074,1.03768,-0.840146775,0.514097805,0.068420235
1764504787.988536,-4.22702,1.51074,1.03768,-0.840146775,0.514097805,0.068420235
1764504787.988536,-4.22702,1.51074,1.03768,-0.840146775,0.514097805,0.068420235
1764504787.988536,-4.22702,1.51074,1.03768,-0.840146775,0.514097805,0.068420235
1764504787.988536,-4.22702,1.51074,1.03768,-0.840146775,0.514097805,0.068420235
1764504787.988536,-3.44876,-0.06104,0.12208,-0.83923125,0.51342642,0.068664375
1764504787.988536,-3.44876,-0.06104,0.12208,-0.83923125,0.51342642,0.068664375
1764504787.988536,-3.44876,-0.06104,0.12208,-0.83923125,0.51342642,0.068664375
1764504787.988536,-3.44876,-0.06104,0.12208,-0.83923125,0.51342642,0.068664375
1764504787.9900854,-3.44876,-0.06104,0.12208,-0.83923125,0.51342642,0.068664375
1764504787.9900854,-3.44876,-0.06104,0.12208,-0.83923125,0.51342642,0.068664375
1764504787.9900854,-3.44876,-0.06104,0.12208,-0.83923125,0.51342642,0.068664375
1764504787.9900854,-3.44876,-0.06104,0.12208,-0.83923125,0.51342642,0.068664375
1764504787.9900854,-3.44876,-0.06104,0.12208,-0.83923125,0.51342642,0.068664375
1764504787.9900854,-3.44876,-0.06104,0.12208,-0.83923125,0.51342642,0.068664375
1764504788.0363724,-3.15882,0.6409199999999999,0.01526,-0.8374002,0.51306021,0.06933576
1764504788.0363724,-3.15882,0.6409199999999999,0.01526,-0.8374002,0.51306021,0.06933576
1764504788.0363724,-3.15882,0.6409199999999999,0.01526,-0.8374002,0.51306021,0.06933576
1764504788.0363724,-3.15882,0.6409199999999999,0.01526,-0.8374002,0.51306021,0.06933576
1764504788.0363724,-3.15882,0.6409199999999999,0.01526,-0.8374002,0.51306021,0.06933576
1764504788.0363724,-3.15882,0.6409199999999999,0.01526,-0.8374002,0.51306021,0.06933576
1764504788.0363724,-3.15882,0.6409199999999999,0.01526,-0.8374002,0.51306021,0.06933576
1764504788.0363724,-3.15882,0.6409199999999999,0.01526,-0.8374002,0.51306021,0.06933576
1764504788.0363724,-3.15882,0.6409199999999999,0.01526,-0.8374002,0.51306021,0.06933576
1764504788.0363724,-3.15882,0.6409199999999999,0.01526,-0.8374002,0.51306021,0.06933576
1764504788.0363724,-3.95234,1.63282,0.51884,-0.8378274450000001,0.512632965,0.06945783
1764504788.0363724,-3.95234,1.63282,0.51884,-0.8378274450000001,0.512632965,0.06945783
1764504788.0363724,-3.95234,1.63282,0.51884,-0.8378274450000001,0.512632965,0.06945783
1764504788.0363724,-3.95234,1.63282,0.51884,-0.8378274450000001,0.512632965,0.06945783
1764504788.0363724,-3.95234,1.63282,0.51884,-0.8378274450000001,0.512632965,0.06945783
1764504788.0363724,-3.95234,1.63282,0.51884,-0.8378274450000001,0.512632965,0.06945783
1764504788.0363724,-3.95234,1.63282,0.51884,-0.8378274450000001,0.512632965,0.06945783
1764504788.0363724,-3.95234,1.63282,0.51884,-0.8378274450000001,0.512632965,0.06945783
1764504788.0363724,-3.95234,1.63282,0.51884,-0.8378274450000001,0.512632965,0.06945783
1764504788.037408,-3.95234,1.63282,0.51884,-0.8378274450000001,0.512632965,0.06945783
1764504788.037408,-3.76922,0.763,1.41918,-0.841123335,0.5139147000000001,0.068664375
1764504788.037408,-3.76922,0.763,1.41918,-0.841123335,0.5139147000000001,0.068664375
1764504788.037408,-3.76922,0.763,1.41918,-0.841123335,0.5139147000000001,0.068664375
1764504788.037408,-3.76922,0.763,1.41918,-0.841123335,0.5139147000000001,0.068664375
1764504788.0840282,-3.76922,0.763,1.41918,-0.841123335,0.5139147000000001,0.068664375
1764504788.0840282,-3.76922,0.763,1.41918,-0.841123335,0.5139147000000001,0.068664375
1764504788.0840282,-3.76922,0.763,1.41918,-0.841123335,0.5139147000000001,0.068664375
1764504788.0840282,-3.76922,0.763,1.41918,-0.841123335,0.5139147000000001,0.068664375
1764504788.0840282,-3.76922,0.763,1.41918,-0.841123335,0.5139147000000001,0.068664375
1764504788.0840282,-3.76922,0.763,1.41918,-0.841123335,0.5139147000000001,0.068664375
1764504788.0840282,-3.37246,-0.48832,0.56462,-0.84362577,0.516905415,0.06884748
1764504788.0840282,-3.37246,-0.48832,0.56462,-0.84362577,0.516905415,0.06884748
1764504788.0855355,-3.37246,-0.48832,0.56462,-0.84362577,0.516905415,0.06884748
1764504788.0855355,-3.37246,-0.48832,0.56462,-0.84362577,0.516905415,0.06884748
1764504788.0855355,-3.37246,-0.48832,0.56462,-0.84362577,0.516905415,0.06884748
1764504788.0855355,-3.37246,-0.48832,0.56462,-0.84362577,0.516905415,0.06884748
1764504788.0855355,-3.37246,-0.48832,0.56462,-0.84362577,0.516905415,0.06884748
1764504788.0855355,-3.37246,-0.48832,0.56462,-0.84362577,0.516905415,0.06884748
1764504788.0855355,-3.37246,-0.48832,0.56462,-0.84362577,0.516905415,0.06884748
1764504788.0855355,-3.37246,-0.48832,0.56462,-0.84362577,0.516905415,0.06884748
1764504788.0855355,-5.12736,0.3051999999999999,-0.96138,-0.841855755,0.517149555,0.069885075
1764504788.0855355,-5.12736,0.3051999999999999,-0.96138,-0.841855755,0.517149555,0.069885075
1764504788.0855355,-5.12736,0.3051999999999999,-0.96138,-0.841855755,0.517149555,0.069885075
1764504788.0855355,-5.12736,0.3051999999999999,-0.96138,-0.841855755,0.517149555,0.069885075
1764504788.0855355,-5.12736,0.3051999999999999,-0.96138,-0.841855755,0.517149555,0.069885075
1764504788.0855355,-5.12736,0.3051999999999999,-0.96138,-0.841855755,0.517149555,0.069885075
1764504788.0855355,-5.12736,0.3051999999999999,-0.96138,-0.841855755,0.517149555,0.069885075
1764504788.0855355,-5.12736,0.3051999999999999,-0.96138,-0.841855755,0.517149555,0.069885075
1764504788.1310446,-5.12736,0.3051999999999999,-0.96138,-0.841855755,0.517149555,0.069885075
1764504788.1310446,-5.12736,0.3051999999999999,-0.96138,-0.841855755,0.517149555,0.069885075
1764504788.1310446,-6.302379999999999,1.03768,-0.9919,-0.83935332,0.51537954,0.0695799
1764504788.1310446,-6.302379999999999,1.03768,-0.9919,-0.83935332,0.51537954,0.0695799
1764504788.1310446,-6.302379999999999,1.03768,-0.9919,-0.83935332,0.51537954,0.0695799
1764504788.1310446,-6.302379999999999,1.03768,-0.9919,-0.83935332,0.51537954,0.0695799
1764504788.1310446,-6.302379999999999,1.03768,-0.9919,-0.83935332,0.51537954,0.0695799
1764504788.1310446,-6.302379999999999,1.03768,-0.9919,-0.83935332,0.51537954,0.0695799
1764504788.1310446,-6.302379999999999,1.03768,-0.9919,-0.83935332,0.51537954,0.0695799
1764504788.1310446,-6.302379999999999,1.03768,-0.9919,-0.83935332,0.51537954,0.0695799
1764504788.1310446,-6.302379999999999,1.03768,-0.9919,-0.83935332,0.51537954,0.0695799
1764504788.1310446,-6.302379999999999,1.03768,-0.9919,-0.83935332,0.51537954,0.0695799
1764504788.1310446,-5.32574,1.34288,1.09872,-0.839292285,0.51171744,0.06945783
1764504788.1310446,-5.32574,1.34288,1.09872,-0.839292285,0.51171744,0.06945783
1764504788.1310446,-5.32574,1.34288,1.09872,-0.839292285,0.51171744,0.06945783
1764504788.1310446,-5.32574,1.34288,1.09872,-0.839292285,0.51171744,0.06945783
1764504788.1310446,-5.32574,1.34288,1.09872,-0.839292285,0.51171744,0.06945783
1764504788.1310446,-5.32574,1.34288,1.09872,-0.839292285,0.51171744,0.06945783
1764504788.1310446,-5.32574,1.34288,1.09872,-0.839292285,0.51171744,0.06945783
1764504788.1310446,-5.32574,1.34288,1.09872,-0.839292285,0.51171744,0.06945783
1764504788.1310446,-5.32574,1.34288,1.09872,-0.839292285,0.51171744,0.06945783
1764504788.1310446,-5.32574,1.34288,1.09872,-0.839292285,0.51171744,0.06945783
1764504788.1310446,-4.36436,0.57988,1.1445,-0.84020781,0.508848795,0.069640935
1764504788.1310446,-4.36436,0.57988,1.1445,-0.84020781,0.508848795,0.069640935
1764504788.175908,-4.36436,0.57988,1.1445,-0.84020781,0.508848795,0.069640935
1764504788.175908,-4.36436,0.57988,1.1445,-0.84020781,0.508848795,0.069640935
1764504788.175908,-4.36436,0.57988,1.1445,-0.84020781,0.508848795,0.069640935
1764504788.175908,-4.36436,0.57988,1.1445,-0.84020781,0.508848795,0.069640935
1764504788.175908,-4.36436,0.57988,1.1445,-0.84020781,0.508848795,0.069640935
1764504788.175908,-4.36436,0.57988,1.1445,-0.84020781,0.508848795,0.069640935
1764504788.175908,-4.36436,0.57988,1.1445,-0.84020781,0.508848795,0.069640935
1764504788.175908,-4.36436,0.57988,1.1445,-0.84020781,0.508848795,0.069640935
1764504788.176932,-3.5861,0.79352,0.71722,-0.84167265,0.50878776,0.070007145
1764504788.176932,-3.5861,0.79352,0.71722,-0.84167265,0.50878776,0.070007145
1764504788.176932,-3.5861,0.79352,0.71722,-0.84167265,0.50878776,0.070007145
1764504788.176932,-3.5861,0.79352,0.71722,-0.84167265,0.50878776,0.070007145
1764504788.176932,-3.5861,0.79352,0.71722,-0.84167265,0.50878776,0.070007145
1764504788.176932,-3.5861,0.79352,0.71722,-0.84167265,0.50878776,0.070007145
1764504788.176932,-3.5861,0.79352,0.71722,-0.84167265,0.50878776,0.070007145
1764504788.176932,-3.5861,0.79352,0.71722,-0.84167265,0.50878776,0.070007145
1764504788.176932,-3.5861,0.79352,0.71722,-0.84167265,0.50878776,0.070007145
1764504788.176932,-3.5861,0.79352,0.71722,-0.84167265,0.50878776,0.070007145
1764504788.176932,-4.36436,0.59514,0.56462,-0.841733685,0.511656405,0.070739565
1764504788.176932,-4.36436,0.59514,0.56462,-0.841733685,0.511656405,0.070739565
1764504788.176932,-4.36436,0.59514,0.56462,-0.841733685,0.511656405,0.070739565
1764504788.176932,-4.36436,0.59514,0.56462,-0.841733685,0.511656405,0.070739565
1764504788.176932,-4.36436,0.59514,0.56462,-0.841733685,0.511656405,0.070739565
1764504788.176932,-4.36436,0.59514,0.56462,-0.841733685,0.511656405,0.070739565
1764504788.223079,-4.36436,0.59514,0.56462,-0.841733685,0.511656405,0.070739565
1764504788.223079,-4.36436,0.59514,0.56462,-0.841733685,0.511656405,0.070739565
1764504788.2236102,-4.36436,0.59514,0.56462,-0.841733685,0.511656405,0.070739565
1764504788.2236102,-4.36436,0.59514,0.56462,-0.841733685,0.511656405,0.070739565
1764504788.2236102,-4.303319999999999,0.10682,0.10682,-0.841855755,0.51293814,0.07067853
1764504788.2236102,-4.303319999999999,0.10682,0.10682,-0.841855755,0.51293814,0.07067853
1764504788.2236102,-4.303319999999999,0.10682,0.10682,-0.841855755,0.51293814,0.07067853
1764504788.2236102,-4.303319999999999,0.10682,0.10682,-0.841855755,0.51293814,0.07067853
1764504788.2236102,-4.303319999999999,0.10682,0.10682,-0.841855755,0.51293814,0.07067853
1764504788.2236102,-4.303319999999999,0.10682,0.10682,-0.841855755,0.51293814,0.07067853
1764504788.2236102,-4.303319999999999,0.10682,0.10682,-0.841855755,0.51293814,0.07067853
1764504788.2236102,-4.303319999999999,0.10682,0.10682,-0.841855755,0.51293814,0.07067853
1764504788.2236102,-4.303319999999999,0.10682,0.10682,-0.841855755,0.51293814,0.07067853
1764504788.2236102,-4.303319999999999,0.10682,0.10682,-0.841855755,0.51293814,0.07067853
1764504788.2236102,-2.88414,0.36624,0.06104,-0.841001265,0.51403677,0.06945783
1764504788.2236102,-2.88414,0.36624,0.06104,-0.841001265,0.51403677,0.06945783
1764504788.2236102,-2.88414,0.36624,0.06104,-0.841001265,0.51403677,0.06945783
1764504788.2236102,-2.88414,0.36624,0.06104,-0.841001265,0.51403677,0.06945783
1764504788.2236102,-2.88414,0.36624,0.06104,-0.841001265,0.51403677,0.06945783
1764504788.2236102,-2.88414,0.36624,0.06104,-0.841001265,0.51403677,0.06945783
1764504788.2236102,-2.88414,0.36624,0.06104,-0.841001265,0.51403677,0.06945783
1764504788.2236102,-2.88414,0.36624,0.06104,-0.841001265,0.51403677,0.06945783
1764504788.2720926,-2.88414,0.36624,0.06104,-0.841001265,0.51403677,0.06945783
1764504788.2720926,-2.88414,0.36624,0.06104,-0.841001265,0.51403677,0.06945783
1764504788.2720926,-2.18218,-0.74774,-0.21364,-0.839048145,0.513609525,0.06945783
1764504788.2720926,-2.18218,-0.74774,-0.21364,-0.839048145,0.513609525,0.06945783
1764504788.2720926,-2.18218,-0.74774,-0.21364,-0.839048145,0.513609525,0.06945783
1764504788.2720926,-2.18218,-0.74774,-0.21364,-0.839048145,0.513609525,0.06945783
1764504788.2720926,-2.18218,-0.74774,-0.21364,-0.839048145,0.513609525,0.06945783
1764504788.2720926,-2.18218,-0.74774,-0.21364,-0.839048145,0.513609525,0.06945783
1764504788.2720926,-2.18218,-0.74774,-0.21364,-0.839048145,0.513609525,0.06945783
1764504788.2720926,-2.18218,-0.74774,-0.21364,-0.839048145,0.513609525,0.06945783
1764504788.2720926,-2.18218,-0.74774,-0.21364,-0.839048145,0.513609525,0.06945783
1764504788.2720926,-2.18218,-0.74774,-0.21364,-0.839048145,0.513609525,0.06945783
1764504788.2720926,-3.00622,0.9156,-0.21364,-0.837949515,0.51415884,0.07019025
1764504788.2720926,-3.00622,0.9156,-0.21364,-0.837949515,0.51415884,0.07019025
1764504788.2720926,-3.00622,0.9156,-0.21364,-0.837949515,0.51415884,0.07019025
1764504788.2720926,-3.00622,0.9156,-0.21364,-0.837949515,0.51415884,0.07019025
1764504788.2720926,-3.00622,0.9156,-0.21364,-0.837949515,0.51415884,0.07019025
1764504788.2720926,-3.00622,0.9156,-0.21364,-0.837949515,0.51415884,0.07019025
1764504788.2720926,-3.00622,0.9156,-0.21364,-0.837949515,0.51415884,0.07019025
1764504788.2720926,-3.00622,0.9156,-0.21364,-0.837949515,0.51415884,0.07019025
1764504788.2720926,-3.00622,0.9156,-0.21364,-0.837949515,0.51415884,0.07019025
1764504788.2720926,-3.00622,0.9156,-0.21364,-0.837949515,0.51415884,0.07019025
1764504788.273101,-4.83742,1.41918,0.3357199999999999,-0.83959746,0.51672231,0.069640935
1764504788.273101,-4.83742,1.41918,0.3357199999999999,-0.83959746,0.51672231,0.069640935
1764504788.3156295,-4.83742,1.41918,0.3357199999999999,-0.83959746,0.51672231,0.069640935
1764504788.3156295,-4.83742,1.41918,0.3357199999999999,-0.83959746,0.51672231,0.069640935
1764504788.3156295,-4.83742,1.41918,0.3357199999999999,-0.83959746,0.51672231,0.069640935
1764504788.3156295,-4.83742,1.41918,0.3357199999999999,-0.83959746,0.51672231,0.069640935
1764504788.3156295,-4.83742,1.41918,0.3357199999999999,-0.83959746,0.51672231,0.069640935
1764504788.3156295,-4.83742,1.41918,0.3357199999999999,-0.83959746,0.51672231,0.069640935
1764504788.3156295,-4.83742,1.41918,0.3357199999999999,-0.83959746,0.51672231,0.069640935
1764504788.3156295,-4.83742,1.41918,0.3357199999999999,-0.83959746,0.51672231,0.069640935
1764504788.3156295,-6.39394,0.763,0.21364,-0.84032988,0.51928578,0.069763005
1764504788.3156295,-6.39394,0.763,0.21364,-0.84032988,0.51928578,0.069763005
1764504788.3156295,-6.39394,0.763,0.21364,-0.84032988,0.51928578,0.069763005
1764504788.3156295,-6.39394,0.763,0.21364,-0.84032988,0.51928578,0.069763005
1764504788.3156295,-6.39394,0.763,0.21364,-0.84032988,0.51928578,0.069763005
1764504788.3156295,-6.39394,0.763,0.21364,-0.84032988,0.51928578,0.069763005
1764504788.3178737,-6.39394,0.763,0.21364,-0.84032988,0.51928578,0.069763005
1764504788.3178737,-6.39394,0.763,0.21364,-0.84032988,0.51928578,0.069763005
1764504788.3178737,-6.39394,0.763,0.21364,-0.84032988,0.51928578,0.069763005
1764504788.3178737,-6.39394,0.763,0.21364,-0.84032988,0.51928578,0.069763005
1764504788.3188703,-6.11926,0.44254,-0.1525999999999999,-0.84008574,0.517759905,0.07055646
1764504788.3188703,-6.11926,0.44254,-0.1525999999999999,-0.84008574,0.517759905,0.07055646
1764504788.3188703,-6.11926,0.44254,-0.1525999999999999,-0.84008574,0.517759905,0.07055646
1764504788.3188703,-6.11926,0.44254,-0.1525999999999999,-0.84008574,0.517759905,0.07055646
1764504788.3188703,-6.11926,0.44254,-0.1525999999999999,-0.84008574,0.517759905,0.07055646
1764504788.3188703,-6.11926,0.44254,-0.1525999999999999,-0.84008574,0.517759905,0.07055646
1764504788.362124,-6.11926,0.44254,-0.1525999999999999,-0.84008574,0.517759905,0.07055646
1764504788.362124,-6.11926,0.44254,-0.1525999999999999,-0.84008574,0.517759905,0.07055646
1764504788.362124,-6.11926,0.44254,-0.1525999999999999,-0.84008574,0.517759905,0.07055646
1764504788.362124,-6.11926,0.44254,-0.1525999999999999,-0.84008574,0.517759905,0.07055646
1764504788.362124,-5.63094,1.12924,-0.85456,-0.839536425,0.512510895,0.07165509
1764504788.362124,-5.63094,1.12924,-0.85456,-0.839536425,0.512510895,0.07165509
1764504788.362124,-5.63094,1.12924,-0.85456,-0.839536425,0.512510895,0.07165509
1764504788.362124,-5.63094,1.12924,-0.85456,-0.839536425,0.512510895,0.07165509
1764504788.362124,-5.63094,1.12924,-0.85456,-0.839536425,0.512510895,0.07165509
1764504788.362124,-5.63094,1.12924,-0.85456,-0.839536425,0.512510895,0.07165509
1764504788.362124,-5.63094,1.12924,-0.85456,-0.839536425,0.512510895,0.07165509
1764504788.362124,-5.63094,1.12924,-0.85456,-0.839536425,0.512510895,0.07165509
1764504788.362124,-5.63094,1.12924,-0.85456,-0.839536425,0.512510895,0.07165509
1764504788.362124,-5.63094,1.12924,-0.85456,-0.839536425,0.512510895,0.07165509
1764504788.362124,-5.0358,1.89224,0.47306,-0.83971953,0.508604655,0.071227845
1764504788.362124,-5.0358,1.89224,0.47306,-0.83971953,0.508604655,0.071227845
1764504788.362124,-5.0358,1.89224,0.47306,-0.83971953,0.508604655,0.071227845
1764504788.362124,-5.0358,1.89224,0.47306,-0.83971953,0.508604655,0.071227845
1764504788.362124,-5.0358,1.89224,0.47306,-0.83971953,0.508604655,0.071227845
1764504788.3631375,-5.0358,1.89224,0.47306,-0.83971953,0.508604655,0.071227845
1764504788.3631375,-5.0358,1.89224,0.47306,-0.83971953,0.508604655,0.071227845
1764504788.3631375,-5.0358,1.89224,0.47306,-0.83971953,0.508604655,0.071227845
1764504788.4081562,-5.0358,1.89224,0.47306,-0.83971953,0.508604655,0.071227845
1764504788.4081562,-5.0358,1.89224,0.47306,-0.83971953,0.508604655,0.071227845
1764504788.4081562,-4.74586,1.8006799999999998,1.12924,-0.84081816,0.507261885,0.06970197
1764504788.4081562,-4.74586,1.8006799999999998,1.12924,-0.84081816,0.507261885,0.06970197
1764504788.4081562,-4.74586,1.8006799999999998,1.12924,-0.84081816,0.507261885,0.06970197
1764504788.4081562,-4.74586,1.8006799999999998,1.12924,-0.84081816,0.507261885,0.06970197
1764504788.4081562,-4.74586,1.8006799999999998,1.12924,-0.84081816,0.507261885,0.06970197
1764504788.4081562,-4.74586,1.8006799999999998,1.12924,-0.84081816,0.507261885,0.06970197
1764504788.4097333,-4.74586,1.8006799999999998,1.12924,-0.84081816,0.507261885,0.06970197
1764504788.4097333,-4.74586,1.8006799999999998,1.12924,-0.84081816,0.507261885,0.06970197
1764504788.4097333,-4.74586,1.8006799999999998,1.12924,-0.84081816,0.507261885,0.06970197
1764504788.4097333,-4.74586,1.8006799999999998,1.12924,-0.84081816,0.507261885,0.06970197
1764504788.4097333,-2.86888,0.51884,0.9156,-0.841245405,0.50817741,0.068664375
1764504788.4097333,-2.86888,0.51884,0.9156,-0.841245405,0.50817741,0.068664375
1764504788.4097333,-2.86888,0.51884,0.9156,-0.841245405,0.50817741,0.068664375
1764504788.4097333,-2.86888,0.51884,0.9156,-0.841245405,0.50817741,0.068664375
1764504788.4097333,-2.86888,0.51884,0.9156,-0.841245405,0.50817741,0.068664375
1764504788.4097333,-2.86888,0.51884,0.9156,-0.841245405,0.50817741,0.068664375
1764504788.4097333,-2.86888,0.51884,0.9156,-0.841245405,0.50817741,0.068664375
1764504788.4097333,-2.86888,0.51884,0.9156,-0.841245405,0.50817741,0.068664375
1764504788.4097333,-2.86888,0.51884,0.9156,-0.841245405,0.50817741,0.068664375
1764504788.4097333,-2.86888,0.51884,0.9156,-0.841245405,0.50817741,0.068664375
1764504788.4097333,-1.93802,-0.1525999999999999,0.03052,-0.84167265,0.51074088,0.068420235
1764504788.4097333,-1.93802,-0.1525999999999999,0.03052,-0.84167265,0.51074088,0.068420235
1764504788.4575343,-1.93802,-0.1525999999999999,0.03052,-0.84167265,0.51074088,0.068420235
1764504788.4575343,-1.93802,-0.1525999999999999,0.03052,-0.84167265,0.51074088,0.068420235
1764504788.4575343,-1.93802,-0.1525999999999999,0.03052,-0.84167265,0.51074088,0.068420235
1764504788.4575343,-1.93802,-0.1525999999999999,0.03052,-0.84167265,0.51074088,0.068420235
1764504788.4585493,-1.93802,-0.1525999999999999,0.03052,-0.84167265,0.51074088,0.068420235
1764504788.4585493,-1.93802,-0.1525999999999999,0.03052,-0.84167265,0.51074088,0.068420235
1764504788.4585493,-1.93802,-0.1525999999999999,0.03052,-0.84167265,0.51074088,0.068420235
1764504788.4585493,-1.93802,-0.1525999999999999,0.03052,-0.84167265,0.51074088,0.068420235
1764504788.4595442,-2.57894,0.21364,0.12208,-0.841001265,0.512510895,0.07019025
1764504788.4596426,-2.57894,0.21364,0.12208,-0.841001265,0.512510895,0.07019025
1764504788.4596426,-2.57894,0.21364,0.12208,-0.841001265,0.512510895,0.07019025
1764504788.4596426,-2.57894,0.21364,0.12208,-0.841001265,0.512510895,0.07019025
1764504788.4596426,-2.57894,0.21364,0.12208,-0.841001265,0.512510895,0.07019025
1764504788.4596426,-2.57894,0.21364,0.12208,-0.841001265,0.512510895,0.07019025
1764504788.4596426,-2.57894,0.21364,0.12208,-0.841001265,0.512510895,0.07019025
1764504788.460657,-2.57894,0.21364,0.12208,-0.841001265,0.512510895,0.07019025
1764504788.460657,-2.57894,0.21364,0.12208,-0.841001265,0.512510895,0.07019025
1764504788.460657,-2.57894,0.21364,0.12208,-0.841001265,0.512510895,0.07019025
1764504788.460657,-2.71628,-0.03052,0.41202,-0.84118437,0.51440298,0.070983705
1764504788.460657,-2.71628,-0.03052,0.41202,-0.84118437,0.51440298,0.070983705
1764504788.460657,-2.71628,-0.03052,0.41202,-0.84118437,0.51440298,0.070983705
1764504788.4616487,-2.71628,-0.03052,0.41202,-0.84118437,0.51440298,0.070983705
1764504788.502267,-2.71628,-0.03052,0.41202,-0.84118437,0.51440298,0.070983705
1764504788.503278,-2.71628,-0.03052,0.41202,-0.84118437,0.51440298,0.070983705
1764504788.503278,-2.71628,-0.03052,0.41202,-0.84118437,0.51440298,0.070983705
1764504788.503278,-2.71628,-0.03052,0.41202,-0.84118437,0.51440298,0.070983705
1764504788.5042746,-2.71628,-0.03052,0.41202,-0.84118437,0.51440298,0.070983705
1764504788.5042746,-2.71628,-0.03052,0.41202,-0.84118437,0.51440298,0.070983705
1764504788.5042746,-3.67766,0.79352,0.25942,-0.84032988,0.51623403,0.070495425
1764504788.5042746,-3.67766,0.79352,0.25942,-0.84032988,0.51623403,0.070495425
1764504788.5052738,-3.67766,0.79352,0.25942,-0.84032988,0.51623403,0.070495425
1764504788.5052738,-3.67766,0.79352,0.25942,-0.84032988,0.51623403,0.070495425
1764504788.5060966,-3.67766,0.79352,0.25942,-0.84032988,0.51623403,0.070495425
1764504788.5060966,-3.67766,0.79352,0.25942,-0.84032988,0.51623403,0.070495425
1764504788.5060966,-3.67766,0.79352,0.25942,-0.84032988,0.51623403,0.070495425
1764504788.5060966,-3.67766,0.79352,0.25942,-0.84032988,0.51623403,0.070495425
1764504788.5060966,-3.67766,0.79352,0.25942,-0.84032988,0.51623403,0.070495425
1764504788.5060966,-3.67766,0.79352,0.25942,-0.84032988,0.51623403,0.070495425
1764504788.5071154,-5.17314,0.8698199999999999,-0.1678599999999999,-0.8398416,0.517149555,0.071105775
1764504788.5071154,-5.17314,0.8698199999999999,-0.1678599999999999,-0.8398416,0.517149555,0.071105775
1764504788.5071154,-5.17314,0.8698199999999999,-0.1678599999999999,-0.8398416,0.517149555,0.071105775
1764504788.5071154,-5.17314,0.8698199999999999,-0.1678599999999999,-0.8398416,0.517149555,0.071105775
1764504788.5071154,-5.17314,0.8698199999999999,-0.1678599999999999,-0.8398416,0.517149555,0.071105775
1764504788.5071154,-5.17314,0.8698199999999999,-0.1678599999999999,-0.8398416,0.517149555,0.071105775
1764504788.5071154,-5.17314,0.8698199999999999,-0.1678599999999999,-0.8398416,0.517149555,0.071105775
1764504788.5071154,-5.17314,0.8698199999999999,-0.1678599999999999,-0.8398416,0.517149555,0.071105775
1764504788.5524132,-5.17314,0.8698199999999999,-0.1678599999999999,-0.8398416,0.517149555,0.071105775
1764504788.5524132,-5.17314,0.8698199999999999,-0.1678599999999999,-0.8398416,0.517149555,0.071105775
1764504788.5524132,-5.24944,1.6786,-0.06104,-0.83971953,0.51550161,0.071716125
1764504788.5524132,-5.24944,1.6786,-0.06104,-0.83971953,0.51550161,0.071716125
1764504788.5524132,-5.24944,1.6786,-0.06104,-0.83971953,0.51550161,0.071716125
1764504788.5524132,-5.24944,1.6786,-0.06104,-0.83971953,0.51550161,0.071716125
1764504788.5524132,-5.24944,1.6786,-0.06104,-0.83971953,0.51550161,0.071716125
1764504788.5524132,-5.24944,1.6786,-0.06104,-0.83971953,0.51550161,0.071716125
1764504788.5524132,-5.24944,1.6786,-0.06104,-0.83971953,0.51550161,0.071716125
1764504788.5524132,-5.24944,1.6786,-0.06104,-0.83971953,0.51550161,0.071716125
1764504788.5534215,-5.24944,1.6786,-0.06104,-0.83971953,0.51550161,0.071716125
1764504788.5534215,-5.24944,1.6786,-0.06104,-0.83971953,0.51550161,0.071716125
1764504788.5534215,-5.32574,2.09062,0.42728,-0.84020781,0.51367056,0.07128888
1764504788.5534215,-5.32574,2.09062,0.42728,-0.84020781,0.51367056,0.07128888
1764504788.5534215,-5.32574,2.09062,0.42728,-0.84020781,0.51367056,0.07128888
1764504788.5540245,-5.32574,2.09062,0.42728,-0.84020781,0.51367056,0.07128888
1764504788.5540245,-5.32574,2.09062,0.42728,-0.84020781,0.51367056,0.07128888
1764504788.5540245,-5.32574,2.09062,0.42728,-0.84020781,0.51367056,0.07128888
1764504788.5540245,-5.32574,2.09062,0.42728,-0.84020781,0.51367056,0.07128888
1764504788.5540245,-5.32574,2.09062,0.42728,-0.84020781,0.51367056,0.07128888
1764504788.5540245,-5.32574,2.09062,0.42728,-0.84020781,0.51367056,0.07128888
1764504788.5540245,-5.32574,2.09062,0.42728,-0.84020781,0.51367056,0.07128888
1764504788.5540245,-5.00528,1.09872,0.73248,-0.841611615,0.511168125,0.07006818
1764504788.5540245,-5.00528,1.09872,0.73248,-0.841611615,0.511168125,0.07006818
1764504788.59736,-5.00528,1.09872,0.73248,-0.841611615,0.511168125,0.07006818
1764504788.59736,-5.00528,1.09872,0.73248,-0.841611615,0.511168125,0.07006818
1764504788.59736,-5.00528,1.09872,0.73248,-0.841611615,0.511168125,0.07006818
1764504788.59736,-5.00528,1.09872,0.73248,-0.841611615,0.511168125,0.07006818
1764504788.59736,-5.00528,1.09872,0.73248,-0.841611615,0.511168125,0.07006818
1764504788.59736,-5.00528,1.09872,0.73248,-0.841611615,0.511168125,0.07006818
1764504788.59736,-5.00528,1.09872,0.73248,-0.841611615,0.511168125,0.07006818
1764504788.59736,-5.00528,1.09872,0.73248,-0.841611615,0.511168125,0.07006818
1764504788.59736,-3.92182,0.73248,0.54936,-0.84179472,0.509215005,0.068786445
1764504788.59736,-3.92182,0.73248,0.54936,-0.84179472,0.509215005,0.068786445
1764504788.59736,-3.92182,0.73248,0.54936,-0.84179472,0.509215005,0.068786445
1764504788.59736,-3.92182,0.73248,0.54936,-0.84179472,0.509215005,0.068786445
1764504788.59736,-3.92182,0.73248,0.54936,-0.84179472,0.509215005,0.068786445
1764504788.59736,-3.92182,0.73248,0.54936,-0.84179472,0.509215005,0.068786445
1764504788.5984,-3.92182,0.73248,0.54936,-0.84179472,0.509215005,0.068786445
1764504788.5984,-3.92182,0.73248,0.54936,-0.84179472,0.509215005,0.068786445
1764504788.5993738,-3.92182,0.73248,0.54936,-0.84179472,0.509215005,0.068786445
1764504788.5993738,-3.92182,0.73248,0.54936,-0.84179472,0.509215005,0.068786445
1764504788.5993738,-2.62472,0.1525999999999999,0.19838,-0.84118437,0.508360515,0.069152655
1764504788.5993738,-2.62472,0.1525999999999999,0.19838,-0.84118437,0.508360515,0.069152655
1764504788.5993738,-2.62472,0.1525999999999999,0.19838,-0.84118437,0.508360515,0.069152655
1764504788.6004207,-2.62472,0.1525999999999999,0.19838,-0.84118437,0.508360515,0.069152655
1764504788.6004207,-2.62472,0.1525999999999999,0.19838,-0.84118437,0.508360515,0.069152655
1764504788.6004207,-2.62472,0.1525999999999999,0.19838,-0.84118437,0.508360515,0.069152655
1764504788.646839,-2.62472,0.1525999999999999,0.19838,-0.84118437,0.508360515,0.069152655
1764504788.647831,-2.62472,0.1525999999999999,0.19838,-0.84118437,0.508360515,0.069152655
1764504788.647831,-2.62472,0.1525999999999999,0.19838,-0.84118437,0.508360515,0.069152655
1764504788.647831,-2.62472,0.1525999999999999,0.19838,-0.84118437,0.508360515,0.069152655
1764504788.647831,-1.84646,0.3815,0.3357199999999999,-0.8409402300000001,0.50890983,0.070129215
1764504788.647831,-1.84646,0.3815,0.3357199999999999,-0.8409402300000001,0.50890983,0.070129215
1764504788.647831,-1.84646,0.3815,0.3357199999999999,-0.8409402300000001,0.50890983,0.070129215
1764504788.647831,-1.84646,0.3815,0.3357199999999999,-0.8409402300000001,0.50890983,0.070129215
1764504788.647831,-1.84646,0.3815,0.3357199999999999,-0.8409402300000001,0.50890983,0.070129215
1764504788.647831,-1.84646,0.3815,0.3357199999999999,-0.8409402300000001,0.50890983,0.070129215
1764504788.6493404,-1.84646,0.3815,0.3357199999999999,-0.8409402300000001,0.50890983,0.070129215
1764504788.6493404,-1.84646,0.3815,0.3357199999999999,-0.8409402300000001,0.50890983,0.070129215
1764504788.6493404,-1.84646,0.3815,0.3357199999999999,-0.8409402300000001,0.50890983,0.070129215
1764504788.6493404,-1.84646,0.3815,0.3357199999999999,-0.8409402300000001,0.50890983,0.070129215
1764504788.6493404,-2.0601,1.0682,0.9156,-0.840757125,0.51049674,0.069640935
1764504788.6493404,-2.0601,1.0682,0.9156,-0.840757125,0.51049674,0.069640935
1764504788.6493404,-2.0601,1.0682,0.9156,-0.840757125,0.51049674,0.069640935
1764504788.6503518,-2.0601,1.0682,0.9156,-0.840757125,0.51049674,0.069640935
1764504788.6503518,-2.0601,1.0682,0.9156,-0.840757125,0.51049674,0.069640935
1764504788.6503518,-2.0601,1.0682,0.9156,-0.840757125,0.51049674,0.069640935
1764504788.6503518,-2.0601,1.0682,0.9156,-0.840757125,0.51049674,0.069640935
1764504788.6503518,-2.0601,1.0682,0.9156,-0.840757125,0.51049674,0.069640935
1764504788.6903636,-2.0601,1.0682,0.9156,-0.840757125,0.51049674,0.069640935
1764504788.6903636,-2.0601,1.0682,0.9156,-0.840757125,0.51049674,0.069640935
1764504788.6903636,-2.79258,0.93086,1.03768,-0.84118437,0.5139147000000001,0.069518865
1764504788.6908748,-2.79258,0.93086,1.03768,-0.84118437,0.5139147000000001,0.069518865
1764504788.6908748,-2.79258,0.93086,1.03768,-0.84118437,0.5139147000000001,0.069518865
1764504788.6908748,-2.79258,0.93086,1.03768,-0.84118437,0.5139147000000001,0.069518865
1764504788.6908748,-2.79258,0.93086,1.03768,-0.84118437,0.5139147000000001,0.069518865
1764504788.6908748,-2.79258,0.93086,1.03768,-0.84118437,0.5139147000000001,0.069518865
1764504788.6908748,-2.79258,0.93086,1.03768,-0.84118437,0.5139147000000001,0.069518865
1764504788.6908748,-2.79258,0.93086,1.03768,-0.84118437,0.5139147000000001,0.069518865
1764504788.6908748,-2.79258,0.93086,1.03768,-0.84118437,0.5139147000000001,0.069518865
1764504788.6908748,-2.79258,0.93086,1.03768,-0.84118437,0.5139147000000001,0.069518865
1764504788.6908748,-3.6624,0.93086,0.12208,-0.8404519500000001,0.51574575,0.0695799
1764504788.6908748,-3.6624,0.93086,0.12208,-0.8404519500000001,0.51574575,0.0695799
1764504788.6908748,-3.6624,0.93086,0.12208,-0.8404519500000001,0.51574575,0.0695799
1764504788.6908748,-3.6624,0.93086,0.12208,-0.8404519500000001,0.51574575,0.0695799
1764504788.6908748,-3.6624,0.93086,0.12208,-0.8404519500000001,0.51574575,0.0695799
1764504788.6908748,-3.6624,0.93086,0.12208,-0.8404519500000001,0.51574575,0.0695799
1764504788.6908748,-3.6624,0.93086,0.12208,-0.8404519500000001,0.51574575,0.0695799
1764504788.6908748,-3.6624,0.93086,0.12208,-0.8404519500000001,0.51574575,0.0695799
1764504788.6908748,-3.6624,0.93086,0.12208,-0.8404519500000001,0.51574575,0.0695799
1764504788.6908748,-3.6624,0.93086,0.12208,-0.8404519500000001,0.51574575,0.0695799
1764504788.6908748,-3.70818,1.0682,-0.3357199999999999,-0.8398416,0.51562368,0.07006818
1764504788.6908748,-3.70818,1.0682,-0.3357199999999999,-0.8398416,0.51562368,0.07006818
1764504788.7410216,-3.70818,1.0682,-0.3357199999999999,-0.8398416,0.51562368,0.07006818
1764504788.7410216,-3.70818,1.0682,-0.3357199999999999,-0.8398416,0.51562368,0.07006818
1764504788.7416754,-3.70818,1.0682,-0.3357199999999999,-0.8398416,0.51562368,0.07006818
1764504788.7416754,-3.70818,1.0682,-0.3357199999999999,-0.8398416,0.51562368,0.07006818
1764504788.741887,-3.70818,1.0682,-0.3357199999999999,-0.8398416,0.51562368,0.07006818
1764504788.741887,-3.70818,1.0682,-0.3357199999999999,-0.8398416,0.51562368,0.07006818
1764504788.741887,-3.70818,1.0682,-0.3357199999999999,-0.8398416,0.51562368,0.07006818
1764504788.741887,-3.70818,1.0682,-0.3357199999999999,-0.8398416,0.51562368,0.07006818
1764504788.741887,-4.47118,1.4497,0.2289,-0.83971953,0.51501333,0.069885075
1764504788.741887,-4.47118,1.4497,0.2289,-0.83971953,0.51501333,0.069885075
1764504788.741887,-4.47118,1.4497,0.2289,-0.83971953,0.51501333,0.069885075
1764504788.741887,-4.47118,1.4497,0.2289,-0.83971953,0.51501333,0.069885075
1764504788.741887,-4.47118,1.4497,0.2289,-0.83971953,0.51501333,0.069885075
1764504788.741887,-4.47118,1.4497,0.2289,-0.83971953,0.51501333,0.069885075
1764504788.741887,-4.47118,1.4497,0.2289,-0.83971953,0.51501333,0.069885075
1764504788.741887,-4.47118,1.4497,0.2289,-0.83971953,0.51501333,0.069885075
1764504788.741887,-4.47118,1.4497,0.2289,-0.83971953,0.51501333,0.069885075
1764504788.741887,-4.47118,1.4497,0.2289,-0.83971953,0.51501333,0.069885075
1764504788.741887,-4.07442,0.8392999999999999,0.763,-0.841001265,0.5151354,0.069030585
1764504788.741887,-4.07442,0.8392999999999999,0.763,-0.841001265,0.5151354,0.069030585
1764504788.741887,-4.07442,0.8392999999999999,0.763,-0.841001265,0.5151354,0.069030585
1764504788.741887,-4.07442,0.8392999999999999,0.763,-0.841001265,0.5151354,0.069030585
1764504788.741887,-4.07442,0.8392999999999999,0.763,-0.841001265,0.5151354,0.069030585
1764504788.741887,-4.07442,0.8392999999999999,0.763,-0.841001265,0.5151354,0.069030585
1764504788.7856293,-4.07442,0.8392999999999999,0.763,-0.841001265,0.5151354,0.069030585
1764504788.7856293,-4.07442,0.8392999999999999,0.763,-0.841001265,0.5151354,0.069030585
1764504788.7856293,-4.07442,0.8392999999999999,0.763,-0.841001265,0.5151354,0.069030585
1764504788.7856293,-4.07442,0.8392999999999999,0.763,-0.841001265,0.5151354,0.069030585
1764504788.7856293,-3.67766,0.6409199999999999,0.21364,-0.840757125,0.51415884,0.070251285
1764504788.7856293,-3.67766,0.6409199999999999,0.21364,-0.840757125,0.51415884,0.070251285
1764504788.7856293,-3.67766,0.6409199999999999,0.21364,-0.840757125,0.51415884,0.070251285
1764504788.7856293,-3.67766,0.6409199999999999,0.21364,-0.840757125,0.51415884,0.070251285
1764504788.7856293,-3.67766,0.6409199999999999,0.21364,-0.840757125,0.51415884,0.070251285
1764504788.7856293,-3.67766,0.6409199999999999,0.21364,-0.840757125,0.51415884,0.070251285
1764504788.7856293,-3.67766,0.6409199999999999,0.21364,-0.840757125,0.51415884,0.070251285
1764504788.7856293,-3.67766,0.6409199999999999,0.21364,-0.840757125,0.51415884,0.070251285
1764504788.7860937,-3.67766,0.6409199999999999,0.21364,-0.840757125,0.51415884,0.070251285
1764504788.7860937,-3.67766,0.6409199999999999,0.21364,-0.840757125,0.51415884,0.070251285
1764504788.7860937,-3.83026,1.2971,-0.48832,-0.838071585,0.51281607,0.071105775
1764504788.7860937,-3.83026,1.2971,-0.48832,-0.838071585,0.51281607,0.071105775
1764504788.7860937,-3.83026,1.2971,-0.48832,-0.838071585,0.51281607,0.071105775
1764504788.7860937,-3.83026,1.2971,-0.48832,-0.838071585,0.51281607,0.071105775
1764504788.7860937,-3.83026,1.2971,-0.48832,-0.838071585,0.51281607,0.071105775
1764504788.7860937,-3.83026,1.2971,-0.48832,-0.838071585,0.51281607,0.071105775
1764504788.7860937,-3.83026,1.2971,-0.48832,-0.838071585,0.51281607,0.071105775
1764504788.7860937,-3.83026,1.2971,-0.48832,-0.838071585,0.51281607,0.071105775
1764504788.8308,-3.83026,1.2971,-0.48832,-0.838071585,0.51281607,0.071105775
1764504788.8308,-3.83026,1.2971,-0.48832,-0.838071585,0.51281607,0.071105775
1764504788.8308,-4.24228,2.85362,0.18312,-0.838681935,0.51135123,0.069885075
1764504788.8308,-4.24228,2.85362,0.18312,-0.838681935,0.51135123,0.069885075
1764504788.8308,-4.24228,2.85362,0.18312,-0.838681935,0.51135123,0.069885075
1764504788.8308,-4.24228,2.85362,0.18312,-0.838681935,0.51135123,0.069885075
1764504788.8308,-4.24228,2.85362,0.18312,-0.838681935,0.51135123,0.069885075
1764504788.8308,-4.24228,2.85362,0.18312,-0.838681935,0.51135123,0.069885075
1764504788.8308,-4.24228,2.85362,0.18312,-0.838681935,0.51135123,0.069885075
1764504788.8308,-4.24228,2.85362,0.18312,-0.838681935,0.51135123,0.069885075
1764504788.8308,-4.24228,2.85362,0.18312,-0.838681935,0.51135123,0.069885075
1764504788.8308,-4.24228,2.85362,0.18312,-0.838681935,0.51135123,0.069885075
1764504788.8308,-4.10494,0.96138,1.35814,-0.842466105,0.51367056,0.067565745
1764504788.8308,-4.10494,0.96138,1.35814,-0.842466105,0.51367056,0.067565745
1764504788.8308,-4.10494,0.96138,1.35814,-0.842466105,0.51367056,0.067565745
1764504788.8308,-4.10494,0.96138,1.35814,-0.842466105,0.51367056,0.067565745
1764504788.8308,-4.10494,0.96138,1.35814,-0.842466105,0.51367056,0.067565745
1764504788.8308,-4.10494,0.96138,1.35814,-0.842466105,0.51367056,0.067565745
1764504788.8323538,-4.10494,0.96138,1.35814,-0.842466105,0.51367056,0.067565745
1764504788.8323538,-4.10494,0.96138,1.35814,-0.842466105,0.51367056,0.067565745
1764504788.8323538,-4.10494,0.96138,1.35814,-0.842466105,0.51367056,0.067565745
1764504788.8323538,-4.10494,0.96138,1.35814,-0.842466105,0.51367056,0.067565745
1764504788.8323538,-3.63188,-1.03768,0.04578,-0.8441140500000001,0.51611196,0.068054025
1764504788.8323538,-3.63188,-1.03768,0.04578,-0.8441140500000001,0.51611196,0.068054025
1764504788.880618,-3.63188,-1.03768,0.04578,-0.8441140500000001,0.51611196,0.068054025
1764504788.880618,-3.63188,-1.03768,0.04578,-0.8441140500000001,0.51611196,0.068054025
1764504788.880618,-3.63188,-1.03768,0.04578,-0.8441140500000001,0.51611196,0.068054025
1764504788.880618,-3.63188,-1.03768,0.04578,-0.8441140500000001,0.51611196,0.068054025
1764504788.880618,-3.63188,-1.03768,0.04578,-0.8441140500000001,0.51611196,0.068054025
1764504788.880618,-3.63188,-1.03768,0.04578,-0.8441140500000001,0.51611196,0.068054025
1764504788.880618,-3.63188,-1.03768,0.04578,-0.8441140500000001,0.51611196,0.068054025
1764504788.880618,-3.63188,-1.03768,0.04578,-0.8441140500000001,0.51611196,0.068054025
1764504788.880618,-4.97476,0.0762999999999999,-0.93086,-0.842221965,0.515562645,0.0695799
1764504788.880618,-4.97476,0.0762999999999999,-0.93086,-0.842221965,0.515562645,0.0695799
1764504788.880618,-4.97476,0.0762999999999999,-0.93086,-0.842221965,0.515562645,0.0695799
1764504788.880618,-4.97476,0.0762999999999999,-0.93086,-0.842221965,0.515562645,0.0695799
1764504788.8816507,-4.97476,0.0762999999999999,-0.93086,-0.842221965,0.515562645,0.0695799
1764504788.8816507,-4.97476,0.0762999999999999,-0.93086,-0.842221965,0.515562645,0.0695799
1764504788.8816507,-4.97476,0.0762999999999999,-0.93086,-0.842221965,0.515562645,0.0695799
1764504788.8816507,-4.97476,0.0762999999999999,-0.93086,-0.842221965,0.515562645,0.0695799
1764504788.8816507,-4.97476,0.0762999999999999,-0.93086,-0.842221965,0.515562645,0.0695799
1764504788.8816507,-4.97476,0.0762999999999999,-0.93086,-0.842221965,0.515562645,0.0695799
1764504788.8816507,-5.21892,1.55652,-0.59514,-0.83996367,0.512632965,0.070495425
1764504788.8816507,-5.21892,1.55652,-0.59514,-0.83996367,0.512632965,0.070495425
1764504788.8816507,-5.21892,1.55652,-0.59514,-0.83996367,0.512632965,0.070495425
1764504788.8816507,-5.21892,1.55652,-0.59514,-0.83996367,0.512632965,0.070495425
1764504788.8816507,-5.21892,1.55652,-0.59514,-0.83996367,0.512632965,0.070495425
1764504788.8816507,-5.21892,1.55652,-0.59514,-0.83996367,0.512632965,0.070495425
1764504788.9277053,-5.21892,1.55652,-0.59514,-0.83996367,0.512632965,0.070495425
1764504788.9277053,-5.21892,1.55652,-0.59514,-0.83996367,0.512632965,0.070495425
1764504788.9277053,-5.21892,1.55652,-0.59514,-0.83996367,0.512632965,0.070495425
1764504788.9277053,-5.21892,1.55652,-0.59514,-0.83996367,0.512632965,0.070495425
1764504788.9277053,-4.60852,2.12114,1.2208,-0.83996367,0.50988639,0.07043439
1764504788.9277053,-4.60852,2.12114,1.2208,-0.83996367,0.50988639,0.07043439
1764504788.9277053,-4.60852,2.12114,1.2208,-0.83996367,0.50988639,0.07043439
1764504788.9277053,-4.60852,2.12114,1.2208,-0.83996367,0.50988639,0.07043439
1764504788.9277053,-4.60852,2.12114,1.2208,-0.83996367,0.50988639,0.07043439
1764504788.9277053,-4.60852,2.12114,1.2208,-0.83996367,0.50988639,0.07043439
1764504788.9277053,-4.60852,2.12114,1.2208,-0.83996367,0.50988639,0.07043439
1764504788.9277053,-4.60852,2.12114,1.2208,-0.83996367,0.50988639,0.07043439
1764504788.9277053,-4.60852,2.12114,1.2208,-0.83996367,0.50988639,0.07043439
1764504788.9277053,-4.60852,2.12114,1.2208,-0.83996367,0.50988639,0.07043439
1764504788.9277053,-4.303319999999999,1.54126,1.48022,-0.84130644,0.50952018,0.069763005
1764504788.9277053,-4.303319999999999,1.54126,1.48022,-0.84130644,0.50952018,0.069763005
1764504788.9277053,-4.303319999999999,1.54126,1.48022,-0.84130644,0.50952018,0.069763005
1764504788.9277053,-4.303319999999999,1.54126,1.48022,-0.84130644,0.50952018,0.069763005
1764504788.9277053,-4.303319999999999,1.54126,1.48022,-0.84130644,0.50952018,0.069763005
1764504788.9277053,-4.303319999999999,1.54126,1.48022,-0.84130644,0.50952018,0.069763005
1764504788.9277053,-4.303319999999999,1.54126,1.48022,-0.84130644,0.50952018,0.069763005
1764504788.9277053,-4.303319999999999,1.54126,1.48022,-0.84130644,0.50952018,0.069763005
1764504788.9277053,-4.303319999999999,1.54126,1.48022,-0.84130644,0.50952018,0.069763005
1764504788.9277053,-4.303319999999999,1.54126,1.48022,-0.84130644,0.50952018,0.069763005
1764504788.9720106,-4.48644,0.9156,0.18312,-0.84032988,0.51098502,0.070495425
1764504788.9720106,-4.48644,0.9156,0.18312,-0.84032988,0.51098502,0.070495425
1764504788.9720106,-4.48644,0.9156,0.18312,-0.84032988,0.51098502,0.070495425
1764504788.9720106,-4.48644,0.9156,0.18312,-0.84032988,0.51098502,0.070495425
1764504788.9720106,-4.48644,0.9156,0.18312,-0.84032988,0.51098502,0.070495425
1764504788.9720106,-4.48644,0.9156,0.18312,-0.84032988,0.51098502,0.070495425
1764504788.9720106,-4.48644,0.9156,0.18312,-0.84032988,0.51098502,0.070495425
1764504788.9730318,-4.48644,0.9156,0.18312,-0.84032988,0.51098502,0.070495425
1764504788.9730318,-4.48644,0.9156,0.18312,-0.84032988,0.51098502,0.070495425
1764504788.9730318,-4.48644,0.9156,0.18312,-0.84032988,0.51098502,0.070495425
1764504788.9730318,-4.715339999999999,1.23606,-0.01526,-0.8409402300000001,0.51171744,0.070373355
1764504788.9730318,-4.715339999999999,1.23606,-0.01526,-0.8409402300000001,0.51171744,0.070373355
1764504788.9730318,-4.715339999999999,1.23606,-0.01526,-0.8409402300000001,0.51171744,0.070373355
1764504788.9730318,-4.715339999999999,1.23606,-0.01526,-0.8409402300000001,0.51171744,0.070373355
1764504788.9730318,-4.715339999999999,1.23606,-0.01526,-0.8409402300000001,0.51171744,0.070373355
1764504788.9730318,-4.715339999999999,1.23606,-0.01526,-0.8409402300000001,0.51171744,0.070373355
1764504788.9730318,-4.715339999999999,1.23606,-0.01526,-0.8409402300000001,0.51171744,0.070373355
1764504788.9730318,-4.715339999999999,1.23606,-0.01526,-0.8409402300000001,0.51171744,0.070373355
1764504788.9730318,-4.715339999999999,1.23606,-0.01526,-0.8409402300000001,0.51171744,0.070373355
1764504788.9730318,-4.715339999999999,1.23606,-0.01526,-0.8409402300000001,0.51171744,0.070373355
1764504788.9730318,-4.39488,1.6022999999999998,0.50358,-0.84155058,0.511534335,0.06982404
1764504788.9730318,-4.39488,1.6022999999999998,0.50358,-0.84155058,0.511534335,0.06982404
1764504788.9730318,-4.39488,1.6022999999999998,0.50358,-0.84155058,0.511534335,0.06982404
1764504788.9730318,-4.39488,1.6022999999999998,0.50358,-0.84155058,0.511534335,0.06982404
1764504789.0231638,-4.39488,1.6022999999999998,0.50358,-0.84155058,0.511534335,0.06982404
1764504789.0231638,-4.39488,1.6022999999999998,0.50358,-0.84155058,0.511534335,0.06982404
1764504789.0231638,-4.39488,1.6022999999999998,0.50358,-0.84155058,0.511534335,0.06982404
1764504789.0231638,-4.39488,1.6022999999999998,0.50358,-0.84155058,0.511534335,0.06982404
1764504789.0231638,-4.39488,1.6022999999999998,0.50358,-0.84155058,0.511534335,0.06982404
1764504789.0241623,-4.39488,1.6022999999999998,0.50358,-0.84155058,0.511534335,0.06982404
1764504789.0241623,-3.78448,0.18312,1.12924,-0.841733685,0.513243315,0.06750471
1764504789.0241623,-3.78448,0.18312,1.12924,-0.841733685,0.513243315,0.06750471
1764504789.0241623,-3.78448,0.18312,1.12924,-0.841733685,0.513243315,0.06750471
1764504789.0241623,-3.78448,0.18312,1.12924,-0.841733685,0.513243315,0.06750471
1764504789.0241623,-3.78448,0.18312,1.12924,-0.841733685,0.513243315,0.06750471
1764504789.0241623,-3.78448,0.18312,1.12924,-0.841733685,0.513243315,0.06750471
1764504789.0241623,-3.78448,0.18312,1.12924,-0.841733685,0.513243315,0.06750471
1764504789.0241623,-3.78448,0.18312,1.12924,-0.841733685,0.513243315,0.06750471
1764504789.0241623,-3.78448,0.18312,1.12924,-0.841733685,0.513243315,0.06750471
1764504789.0241623,-3.78448,0.18312,1.12924,-0.841733685,0.513243315,0.06750471
1764504789.0241623,-2.79258,-0.39676,0.7019599999999999,-0.83971953,0.515074365,0.067443675
1764504789.0241623,-2.79258,-0.39676,0.7019599999999999,-0.83971953,0.515074365,0.067443675
1764504789.0241623,-2.79258,-0.39676,0.7019599999999999,-0.83971953,0.515074365,0.067443675
1764504789.0241623,-2.79258,-0.39676,0.7019599999999999,-0.83971953,0.515074365,0.067443675
1764504789.0241623,-2.79258,-0.39676,0.7019599999999999,-0.83971953,0.515074365,0.067443675
1764504789.0241623,-2.79258,-0.39676,0.7019599999999999,-0.83971953,0.515074365,0.067443675
1764504789.0703058,-2.79258,-0.39676,0.7019599999999999,-0.83971953,0.515074365,0.067443675
1764504789.0703058,-2.79258,-0.39676,0.7019599999999999,-0.83971953,0.515074365,0.067443675
1764504789.0703058,-2.79258,-0.39676,0.7019599999999999,-0.83971953,0.515074365,0.067443675
1764504789.0703058,-2.79258,-0.39676,0.7019599999999999,-0.83971953,0.515074365,0.067443675
1764504789.0703058,-4.18124,1.15976,-0.54936,-0.837705375,0.51525747,0.068054025
1764504789.0703058,-4.18124,1.15976,-0.54936,-0.837705375,0.51525747,0.068054025
1764504789.0703058,-4.18124,1.15976,-0.54936,-0.837705375,0.51525747,0.068054025
1764504789.0703058,-4.18124,1.15976,-0.54936,-0.837705375,0.51525747,0.068054025
1764504789.0703058,-4.18124,1.15976,-0.54936,-0.837705375,0.51525747,0.068054025
1764504789.0703058,-4.18124,1.15976,-0.54936,-0.837705375,0.51525747,0.068054025
1764504789.0703058,-4.18124,1.15976,-0.54936,-0.837705375,0.51525747,0.068054025
1764504789.0703058,-4.18124,1.15976,-0.54936,-0.837705375,0.51525747,0.068054025
1764504789.0703058,-4.18124,1.15976,-0.54936,-0.837705375,0.51525747,0.068054025
1764504789.0703058,-4.18124,1.15976,-0.54936,-0.837705375,0.51525747,0.068054025
1764504789.0703058,-6.14978,1.35814,0.13734,-0.838681935,0.5159898900000001,0.069518865
1764504789.0703058,-6.14978,1.35814,0.13734,-0.838681935,0.5159898900000001,0.069518865
1764504789.0703058,-6.14978,1.35814,0.13734,-0.838681935,0.5159898900000001,0.069518865
1764504789.0703058,-6.14978,1.35814,0.13734,-0.838681935,0.5159898900000001,0.069518865
1764504789.0703058,-6.14978,1.35814,0.13734,-0.838681935,0.5159898900000001,0.069518865
1764504789.0703058,-6.14978,1.35814,0.13734,-0.838681935,0.5159898900000001,0.069518865
1764504789.0703058,-6.14978,1.35814,0.13734,-0.838681935,0.5159898900000001,0.069518865
1764504789.0703058,-6.14978,1.35814,0.13734,-0.838681935,0.5159898900000001,0.069518865
1764504789.0703058,-6.14978,1.35814,0.13734,-0.838681935,0.5159898900000001,0.069518865
1764504789.0703058,-6.14978,1.35814,0.13734,-0.838681935,0.5159898900000001,0.069518865
1764504789.116415,-6.165039999999999,0.44254,0.6867,-0.83971953,0.51647817,0.07019025
1764504789.116415,-6.165039999999999,0.44254,0.6867,-0.83971953,0.51647817,0.07019025
1764504789.116415,-6.165039999999999,0.44254,0.6867,-0.83971953,0.51647817,0.07019025
1764504789.116415,-6.165039999999999,0.44254,0.6867,-0.83971953,0.51647817,0.07019025
1764504789.116415,-6.165039999999999,0.44254,0.6867,-0.83971953,0.51647817,0.07019025
1764504789.116415,-6.165039999999999,0.44254,0.6867,-0.83971953,0.51647817,0.07019025
1764504789.116415,-6.165039999999999,0.44254,0.6867,-0.83971953,0.51647817,0.07019025
1764504789.116415,-6.165039999999999,0.44254,0.6867,-0.83971953,0.51647817,0.07019025
1764504789.116415,-6.165039999999999,0.44254,0.6867,-0.83971953,0.51647817,0.07019025
1764504789.116415,-6.165039999999999,0.44254,0.6867,-0.83971953,0.51647817,0.07019025
1764504789.116415,-5.43256,0.39676,0.10682,-0.839658495,0.51464712,0.07104474
1764504789.116415,-5.43256,0.39676,0.10682,-0.839658495,0.51464712,0.07104474
1764504789.116415,-5.43256,0.39676,0.10682,-0.839658495,0.51464712,0.07104474
1764504789.116415,-5.43256,0.39676,0.10682,-0.839658495,0.51464712,0.07104474
1764504789.116415,-5.43256,0.39676,0.10682,-0.839658495,0.51464712,0.07104474
1764504789.116415,-5.43256,0.39676,0.10682,-0.839658495,0.51464712,0.07104474
1764504789.116415,-5.43256,0.39676,0.10682,-0.839658495,0.51464712,0.07104474
1764504789.116415,-5.43256,0.39676,0.10682,-0.839658495,0.51464712,0.07104474
1764504789.116415,-5.43256,0.39676,0.10682,-0.839658495,0.51464712,0.07104474
1764504789.116415,-5.43256,0.39676,0.10682,-0.839658495,0.51464712,0.07104474
1764504789.116415,-4.01338,1.08346,-0.71722,-0.839292285,0.5114733,0.070739565
1764504789.116415,-4.01338,1.08346,-0.71722,-0.839292285,0.5114733,0.070739565
1764504789.116415,-4.01338,1.08346,-0.71722,-0.839292285,0.5114733,0.070739565
1764504789.116415,-4.01338,1.08346,-0.71722,-0.839292285,0.5114733,0.070739565
1764504789.160508,-4.01338,1.08346,-0.71722,-0.839292285,0.5114733,0.070739565
1764504789.160508,-4.01338,1.08346,-0.71722,-0.839292285,0.5114733,0.070739565
1764504789.160508,-4.01338,1.08346,-0.71722,-0.839292285,0.5114733,0.070739565
1764504789.160508,-4.01338,1.08346,-0.71722,-0.839292285,0.5114733,0.070739565
1764504789.160508,-4.01338,1.08346,-0.71722,-0.839292285,0.5114733,0.070739565
1764504789.160508,-4.01338,1.08346,-0.71722,-0.839292285,0.5114733,0.070739565
1764504789.160508,-4.1202,1.19028,0.06104,-0.839780565,0.50988639,0.0695799
1764504789.160508,-4.1202,1.19028,0.06104,-0.839780565,0.50988639,0.0695799
1764504789.160508,-4.1202,1.19028,0.06104,-0.839780565,0.50988639,0.0695799
1764504789.1615398,-4.1202,1.19028,0.06104,-0.839780565,0.50988639,0.0695799
1764504789.1615398,-4.1202,1.19028,0.06104,-0.839780565,0.50988639,0.0695799
1764504789.1615398,-4.1202,1.19028,0.06104,-0.839780565,0.50988639,0.0695799
1764504789.1615398,-4.1202,1.19028,0.06104,-0.839780565,0.50988639,0.0695799
1764504789.1615398,-4.1202,1.19028,0.06104,-0.839780565,0.50988639,0.0695799
1764504789.1615398,-4.1202,1.19028,0.06104,-0.839780565,0.50988639,0.0695799
1764504789.1615398,-4.1202,1.19028,0.06104,-0.839780565,0.50988639,0.0695799
1764504789.1615398,-4.08968,0.8392999999999999,0.51884,-0.8404519500000001,0.510679845,0.068176095
1764504789.1615398,-4.08968,0.8392999999999999,0.51884,-0.8404519500000001,0.510679845,0.068176095
1764504789.1615398,-4.08968,0.8392999999999999,0.51884,-0.8404519500000001,0.510679845,0.068176095
1764504789.1615398,-4.08968,0.8392999999999999,0.51884,-0.8404519500000001,0.510679845,0.068176095
1764504789.1625187,-4.08968,0.8392999999999999,0.51884,-0.8404519500000001,0.510679845,0.068176095
1764504789.1625187,-4.08968,0.8392999999999999,0.51884,-0.8404519500000001,0.510679845,0.068176095
1764504789.2075577,-4.08968,0.8392999999999999,0.51884,-0.8404519500000001,0.510679845,0.068176095
1764504789.2075577,-4.08968,0.8392999999999999,0.51884,-0.8404519500000001,0.510679845,0.068176095
1764504789.2075577,-4.08968,0.8392999999999999,0.51884,-0.8404519500000001,0.510679845,0.068176095
1764504789.2075577,-4.08968,0.8392999999999999,0.51884,-0.8404519500000001,0.510679845,0.068176095
1764504789.2075577,-3.1283,-0.06104,0.56462,-0.841001265,0.51159537,0.067809885
1764504789.2075577,-3.1283,-0.06104,0.56462,-0.841001265,0.51159537,0.067809885
1764504789.2075577,-3.1283,-0.06104,0.56462,-0.841001265,0.51159537,0.067809885
1764504789.2075577,-3.1283,-0.06104,0.56462,-0.841001265,0.51159537,0.067809885
1764504789.2075577,-3.1283,-0.06104,0.56462,-0.841001265,0.51159537,0.067809885
1764504789.2075577,-3.1283,-0.06104,0.56462,-0.841001265,0.51159537,0.067809885
1764504789.2075577,-3.1283,-0.06104,0.56462,-0.841001265,0.51159537,0.067809885
1764504789.2075577,-3.1283,-0.06104,0.56462,-0.841001265,0.51159537,0.067809885
1764504789.2075577,-3.1283,-0.06104,0.56462,-0.841001265,0.51159537,0.067809885
1764504789.2075577,-3.1283,-0.06104,0.56462,-0.841001265,0.51159537,0.067809885
1764504789.2075577,-3.00622,-0.44254,0.10682,-0.840146775,0.51257193,0.069030585
1764504789.2075577,-3.00622,-0.44254,0.10682,-0.840146775,0.51257193,0.069030585
1764504789.2085712,-3.00622,-0.44254,0.10682,-0.840146775,0.51257193,0.069030585
1764504789.2095728,-3.00622,-0.44254,0.10682,-0.840146775,0.51257193,0.069030585
1764504789.2095728,-3.00622,-0.44254,0.10682,-0.840146775,0.51257193,0.069030585
1764504789.2095728,-3.00622,-0.44254,0.10682,-0.840146775,0.51257193,0.069030585
1764504789.2095728,-3.00622,-0.44254,0.10682,-0.840146775,0.51257193,0.069030585
1764504789.2095728,-3.00622,-0.44254,0.10682,-0.840146775,0.51257193,0.069030585
1764504789.210567,-3.00622,-0.44254,0.10682,-0.840146775,0.51257193,0.069030585
1764504789.210567,-3.00622,-0.44254,0.10682,-0.840146775,0.51257193,0.069030585
1764504789.2550683,-3.052,0.47306,0.3357199999999999,-0.840635055,0.51306021,0.070983705
1764504789.2550683,-3.052,0.47306,0.3357199999999999,-0.840635055,0.51306021,0.070983705
1764504789.2550683,-3.052,0.47306,0.3357199999999999,-0.840635055,0.51306021,0.070983705
1764504789.2550683,-3.052,0.47306,0.3357199999999999,-0.840635055,0.51306021,0.070983705
1764504789.2550683,-3.052,0.47306,0.3357199999999999,-0.840635055,0.51306021,0.070983705
1764504789.2550683,-3.052,0.47306,0.3357199999999999,-0.840635055,0.51306021,0.070983705
1764504789.2556047,-3.052,0.47306,0.3357199999999999,-0.840635055,0.51306021,0.070983705
1764504789.2556047,-3.052,0.47306,0.3357199999999999,-0.840635055,0.51306021,0.070983705
1764504789.2556047,-3.052,0.47306,0.3357199999999999,-0.840635055,0.51306021,0.070983705
1764504789.2556047,-3.052,0.47306,0.3357199999999999,-0.840635055,0.51306021,0.070983705
1764504789.2556047,-4.3491,0.62566,0.50358,-0.84057402,0.51415884,0.07141095
1764504789.2556047,-4.3491,0.62566,0.50358,-0.84057402,0.51415884,0.07141095
1764504789.2556047,-4.3491,0.62566,0.50358,-0.84057402,0.51415884,0.07141095
1764504789.2556047,-4.3491,0.62566,0.50358,-0.84057402,0.51415884,0.07141095
1764504789.2556047,-4.3491,0.62566,0.50358,-0.84057402,0.51415884,0.07141095
1764504789.2556047,-4.3491,0.62566,0.50358,-0.84057402,0.51415884,0.07141095
1764504789.2556047,-4.3491,0.62566,0.50358,-0.84057402,0.51415884,0.07141095
1764504789.2556047,-4.3491,0.62566,0.50358,-0.84057402,0.51415884,0.07141095
1764504789.2556047,-4.3491,0.62566,0.50358,-0.84057402,0.51415884,0.07141095
1764504789.2556047,-4.3491,0.62566,0.50358,-0.84057402,0.51415884,0.07141095
1764504789.2556047,-4.47118,0.65618,0.03052,-0.8399026350000001,0.5163561,0.070617495
1764504789.2566254,-4.47118,0.65618,0.03052,-0.8399026350000001,0.5163561,0.070617495
1764504789.2590914,-4.47118,0.65618,0.03052,-0.8399026350000001,0.5163561,0.070617495
1764504789.2590914,-4.47118,0.65618,0.03052,-0.8399026350000001,0.5163561,0.070617495
1764504789.304222,-4.47118,0.65618,0.03052,-0.8399026350000001,0.5163561,0.070617495
1764504789.304222,-4.47118,0.65618,0.03052,-0.8399026350000001,0.5163561,0.070617495
1764504789.304222,-4.47118,0.65618,0.03052,-0.8399026350000001,0.5163561,0.070617495
1764504789.304222,-4.47118,0.65618,0.03052,-0.8399026350000001,0.5163561,0.070617495
1764504789.304222,-4.47118,0.65618,0.03052,-0.8399026350000001,0.5163561,0.070617495
1764504789.304222,-4.47118,0.65618,0.03052,-0.8399026350000001,0.5163561,0.070617495
1764504789.304222,-5.52412,0.51884,-0.0762999999999999,-0.839780565,0.517637835,0.07092267
1764504789.304222,-5.52412,0.51884,-0.0762999999999999,-0.839780565,0.517637835,0.07092267
1764504789.304222,-5.52412,0.51884,-0.0762999999999999,-0.839780565,0.517637835,0.07092267
1764504789.304222,-5.52412,0.51884,-0.0762999999999999,-0.839780565,0.517637835,0.07092267
1764504789.304222,-5.52412,0.51884,-0.0762999999999999,-0.839780565,0.517637835,0.07092267
1764504789.304222,-5.52412,0.51884,-0.0762999999999999,-0.839780565,0.517637835,0.07092267
1764504789.304222,-5.52412,0.51884,-0.0762999999999999,-0.839780565,0.517637835,0.07092267
1764504789.304222,-5.52412,0.51884,-0.0762999999999999,-0.839780565,0.517637835,0.07092267
1764504789.304222,-5.52412,0.51884,-0.0762999999999999,-0.839780565,0.517637835,0.07092267
1764504789.304222,-5.52412,0.51884,-0.0762999999999999,-0.839780565,0.517637835,0.07092267
1764504789.3057368,-5.78354,1.43444,-0.19838,-0.83837676,0.51611196,0.071349915
1764504789.3057368,-5.78354,1.43444,-0.19838,-0.83837676,0.51611196,0.071349915
1764504789.3057368,-5.78354,1.43444,-0.19838,-0.83837676,0.51611196,0.071349915
1764504789.3057368,-5.78354,1.43444,-0.19838,-0.83837676,0.51611196,0.071349915
1764504789.3057368,-5.78354,1.43444,-0.19838,-0.83837676,0.51611196,0.071349915
1764504789.3057368,-5.78354,1.43444,-0.19838,-0.83837676,0.51611196,0.071349915
1764504789.3057368,-5.78354,1.43444,-0.19838,-0.83837676,0.51611196,0.071349915
1764504789.3057368,-5.78354,1.43444,-0.19838,-0.83837676,0.51611196,0.071349915
1764504789.347851,-5.78354,1.43444,-0.19838,-0.83837676,0.51611196,0.071349915
1764504789.347851,-5.78354,1.43444,-0.19838,-0.83837676,0.51611196,0.071349915
1764504789.347851,-5.753019999999999,1.26658,0.18312,-0.83898711,0.51330435,0.070861635
1764504789.347851,-5.753019999999999,1.26658,0.18312,-0.83898711,0.51330435,0.070861635
1764504789.3493912,-5.753019999999999,1.26658,0.18312,-0.83898711,0.51330435,0.070861635
1764504789.3493912,-5.753019999999999,1.26658,0.18312,-0.83898711,0.51330435,0.070861635
1764504789.3493912,-5.753019999999999,1.26658,0.18312,-0.83898711,0.51330435,0.070861635
1764504789.3493912,-5.753019999999999,1.26658,0.18312,-0.83898711,0.51330435,0.070861635
1764504789.3493912,-5.753019999999999,1.26658,0.18312,-0.83898711,0.51330435,0.070861635
1764504789.3493912,-5.753019999999999,1.26658,0.18312,-0.83898711,0.51330435,0.070861635
1764504789.3493912,-5.753019999999999,1.26658,0.18312,-0.83898711,0.51330435,0.070861635
1764504789.3493912,-5.753019999999999,1.26658,0.18312,-0.83898711,0.51330435,0.070861635
1764504789.3493912,-4.97476,0.9919,0.79352,-0.84020781,0.510313635,0.070251285
1764504789.3493912,-4.97476,0.9919,0.79352,-0.84020781,0.510313635,0.070251285
1764504789.3493912,-4.97476,0.9919,0.79352,-0.84020781,0.510313635,0.070251285
1764504789.3493912,-4.97476,0.9919,0.79352,-0.84020781,0.510313635,0.070251285
1764504789.350406,-4.97476,0.9919,0.79352,-0.84020781,0.510313635,0.070251285
1764504789.350406,-4.97476,0.9919,0.79352,-0.84020781,0.510313635,0.070251285
1764504789.350406,-4.97476,0.9919,0.79352,-0.84020781,0.510313635,0.070251285
1764504789.350406,-4.97476,0.9919,0.79352,-0.84020781,0.510313635,0.070251285
1764504789.350406,-4.97476,0.9919,0.79352,-0.84020781,0.510313635,0.070251285
1764504789.350406,-4.97476,0.9919,0.79352,-0.84020781,0.510313635,0.070251285
1764504789.3959746,-4.0439,0.74774,0.59514,-0.8410623,0.5090319,0.069763005
1764504789.3959746,-4.0439,0.74774,0.59514,-0.8410623,0.5090319,0.069763005
1764504789.3959746,-4.0439,0.74774,0.59514,-0.8410623,0.5090319,0.069763005
1764504789.3959746,-4.0439,0.74774,0.59514,-0.8410623,0.5090319,0.069763005
1764504789.3959746,-4.0439,0.74774,0.59514,-0.8410623,0.5090319,0.069763005
1764504789.3959746,-4.0439,0.74774,0.59514,-0.8410623,0.5090319,0.069763005
1764504789.3959746,-4.0439,0.74774,0.59514,-0.8410623,0.5090319,0.069763005
1764504789.3959746,-4.0439,0.74774,0.59514,-0.8410623,0.5090319,0.069763005
1764504789.3969903,-4.0439,0.74774,0.59514,-0.8410623,0.5090319,0.069763005
1764504789.3969903,-4.0439,0.74774,0.59514,-0.8410623,0.5090319,0.069763005
1764504789.3969903,-3.1283,0.2289,0.10682,-0.841367475,0.510313635,0.068908515
1764504789.3969903,-3.1283,0.2289,0.10682,-0.841367475,0.510313635,0.068908515
1764504789.3969903,-3.1283,0.2289,0.10682,-0.841367475,0.510313635,0.068908515
1764504789.3969903,-3.1283,0.2289,0.10682,-0.841367475,0.510313635,0.068908515
1764504789.3969903,-3.1283,0.2289,0.10682,-0.841367475,0.510313635,0.068908515
1764504789.3969903,-3.1283,0.2289,0.10682,-0.841367475,0.510313635,0.068908515
1764504789.3979905,-3.1283,0.2289,0.10682,-0.841367475,0.510313635,0.068908515
1764504789.3979905,-3.1283,0.2289,0.10682,-0.841367475,0.510313635,0.068908515
1764504789.3979905,-3.1283,0.2289,0.10682,-0.841367475,0.510313635,0.068908515
1764504789.3979905,-3.1283,0.2289,0.10682,-0.841367475,0.510313635,0.068908515
1764504789.3979905,-3.4335,-0.01526,0.36624,-0.84069609,0.51110709,0.068908515
1764504789.3979905,-3.4335,-0.01526,0.36624,-0.84069609,0.51110709,0.068908515
1764504789.3979905,-3.4335,-0.01526,0.36624,-0.84069609,0.51110709,0.068908515
1764504789.3979905,-3.4335,-0.01526,0.36624,-0.84069609,0.51110709,0.068908515
1764504789.444351,-3.4335,-0.01526,0.36624,-0.84069609,0.51110709,0.068908515
1764504789.444351,-3.4335,-0.01526,0.36624,-0.84069609,0.51110709,0.068908515
1764504789.444351,-3.4335,-0.01526,0.36624,-0.84069609,0.51110709,0.068908515
1764504789.444351,-3.4335,-0.01526,0.36624,-0.84069609,0.51110709,0.068908515
1764504789.444351,-3.4335,-0.01526,0.36624,-0.84069609,0.51110709,0.068908515
1764504789.444351,-3.4335,-0.01526,0.36624,-0.84069609,0.51110709,0.068908515
1764504789.444351,-3.60136,0.28994,0.57988,-0.84118437,0.511534335,0.070739565
1764504789.444351,-3.60136,0.28994,0.57988,-0.84118437,0.511534335,0.070739565
1764504789.444351,-3.60136,0.28994,0.57988,-0.84118437,0.511534335,0.070739565
1764504789.444351,-3.60136,0.28994,0.57988,-0.84118437,0.511534335,0.070739565
1764504789.444351,-3.60136,0.28994,0.57988,-0.84118437,0.511534335,0.070739565
1764504789.444351,-3.60136,0.28994,0.57988,-0.84118437,0.511534335,0.070739565
1764504789.444351,-3.60136,0.28994,0.57988,-0.84118437,0.511534335,0.070739565
1764504789.444351,-3.60136,0.28994,0.57988,-0.84118437,0.511534335,0.070739565
1764504789.444351,-3.60136,0.28994,0.57988,-0.84118437,0.511534335,0.070739565
1764504789.444351,-3.60136,0.28994,0.57988,-0.84118437,0.511534335,0.070739565
1764504789.444351,-3.84552,0.8698199999999999,0.6714399999999999,-0.841611615,0.512877105,0.07055646
1764504789.444351,-3.84552,0.8698199999999999,0.6714399999999999,-0.841611615,0.512877105,0.07055646
1764504789.444351,-3.84552,0.8698199999999999,0.6714399999999999,-0.841611615,0.512877105,0.07055646
1764504789.444351,-3.84552,0.8698199999999999,0.6714399999999999,-0.841611615,0.512877105,0.07055646
1764504789.444351,-3.84552,0.8698199999999999,0.6714399999999999,-0.841611615,0.512877105,0.07055646
1764504789.444351,-3.84552,0.8698199999999999,0.6714399999999999,-0.841611615,0.512877105,0.07055646
1764504789.444351,-3.84552,0.8698199999999999,0.6714399999999999,-0.841611615,0.512877105,0.07055646
1764504789.444351,-3.84552,0.8698199999999999,0.6714399999999999,-0.841611615,0.512877105,0.07055646
1764504789.4453475,-3.84552,0.8698199999999999,0.6714399999999999,-0.841611615,0.512877105,0.07055646
1764504789.4453475,-3.84552,0.8698199999999999,0.6714399999999999,-0.841611615,0.512877105,0.07055646
1764504789.4922466,-4.79164,0.73248,0.5341,-0.84155058,0.514708155,0.070251285
1764504789.4922466,-4.79164,0.73248,0.5341,-0.84155058,0.514708155,0.070251285
1764504789.4922466,-4.79164,0.73248,0.5341,-0.84155058,0.514708155,0.070251285
1764504789.4922466,-4.79164,0.73248,0.5341,-0.84155058,0.514708155,0.070251285
1764504789.4922466,-4.79164,0.73248,0.5341,-0.84155058,0.514708155,0.070251285
1764504789.4922466,-4.79164,0.73248,0.5341,-0.84155058,0.514708155,0.070251285
1764504789.4922466,-4.79164,0.73248,0.5341,-0.84155058,0.514708155,0.070251285
1764504789.4922466,-4.79164,0.73248,0.5341,-0.84155058,0.514708155,0.070251285
1764504789.4922466,-4.79164,0.73248,0.5341,-0.84155058,0.514708155,0.070251285
1764504789.4922466,-4.79164,0.73248,0.5341,-0.84155058,0.514708155,0.070251285
1764504789.4922466,-4.62378,0.48832,0.03052,-0.8404519500000001,0.5159898900000001,0.06970197
1764504789.4922466,-4.62378,0.48832,0.03052,-0.8404519500000001,0.5159898900000001,0.06970197
1764504789.4922466,-4.62378,0.48832,0.03052,-0.8404519500000001,0.5159898900000001,0.06970197
1764504789.4922466,-4.62378,0.48832,0.03052,-0.8404519500000001,0.5159898900000001,0.06970197
1764504789.4922466,-4.62378,0.48832,0.03052,-0.8404519500000001,0.5159898900000001,0.06970197
1764504789.4922466,-4.62378,0.48832,0.03052,-0.8404519500000001,0.5159898900000001,0.06970197
1764504789.4922466,-4.62378,0.48832,0.03052,-0.8404519500000001,0.5159898900000001,0.06970197
1764504789.4922466,-4.62378,0.48832,0.03052,-0.8404519500000001,0.5159898900000001,0.06970197
1764504789.4922466,-4.62378,0.48832,0.03052,-0.8404519500000001,0.5159898900000001,0.06970197
1764504789.4922466,-4.62378,0.48832,0.03052,-0.8404519500000001,0.5159898900000001,0.06970197
1764504789.4922466,-4.22702,1.19028,0.48832,-0.84008574,0.51464712,0.070007145
1764504789.4922466,-4.22702,1.19028,0.48832,-0.84008574,0.51464712,0.070007145
1764504789.5370166,-4.22702,1.19028,0.48832,-0.84008574,0.51464712,0.070007145
1764504789.5370166,-4.22702,1.19028,0.48832,-0.84008574,0.51464712,0.070007145
1764504789.5370166,-4.22702,1.19028,0.48832,-0.84008574,0.51464712,0.070007145
1764504789.5370166,-4.22702,1.19028,0.48832,-0.84008574,0.51464712,0.070007145
1764504789.5370166,-4.22702,1.19028,0.48832,-0.84008574,0.51464712,0.070007145
1764504789.5370166,-4.22702,1.19028,0.48832,-0.84008574,0.51464712,0.070007145
1764504789.5370166,-4.22702,1.19028,0.48832,-0.84008574,0.51464712,0.070007145
1764504789.538033,-4.22702,1.19028,0.48832,-0.84008574,0.51464712,0.070007145
1764504789.538033,-3.67766,0.21364,0.28994,-0.840024705,0.51293814,0.069640935
1764504789.538033,-3.67766,0.21364,0.28994,-0.840024705,0.51293814,0.069640935
1764504789.538033,-3.67766,0.21364,0.28994,-0.840024705,0.51293814,0.069640935
1764504789.538033,-3.67766,0.21364,0.28994,-0.840024705,0.51293814,0.069640935
1764504789.538033,-3.67766,0.21364,0.28994,-0.840024705,0.51293814,0.069640935
1764504789.538033,-3.67766,0.21364,0.28994,-0.840024705,0.51293814,0.069640935
1764504789.538033,-3.67766,0.21364,0.28994,-0.840024705,0.51293814,0.069640935
1764504789.538033,-3.67766,0.21364,0.28994,-0.840024705,0.51293814,0.069640935
1764504789.538033,-3.67766,0.21364,0.28994,-0.840024705,0.51293814,0.069640935
