Timestamp,GyroX,GyroY,GyroZ,AccX,AccY,AccZ
1764505723.6746671,-32.5801,36.82238,9.2323,-0.90099867,0.28906176,-0.12304656
1764505723.6746671,-32.5801,36.82238,9.2323,-0.90099867,0.28906176,-0.12304656
1764505723.6746671,-32.5801,36.82238,9.2323,-0.90099867,0.28906176,-0.12304656
1764505723.6746671,-32.5801,36.82238,9.2323,-0.90099867,0.28906176,-0.12304656
1764505723.6746671,-32.5801,36.82238,9.2323,-0.90099867,0.28906176,-0.12304656
1764505723.6746671,-32.5801,36.82238,9.2323,-0.90099867,0.28906176,-0.12304656
1764505723.6746671,-32.5801,36.82238,9.2323,-0.90099867,0.28906176,-0.12304656
1764505723.6746671,-32.5801,36.82238,9.2323,-0.90099867,0.28906176,-0.12304656
1764505723.6746671,-18.17466,27.7732,18.93766,-0.867002175,0.28893969,-0.136291155
1764505723.6746671,-18.17466,27.7732,18.93766,-0.867002175,0.28893969,-0.136291155
1764505723.6746671,-18.17466,27.7732,18.93766,-0.867002175,0.28893969,-0.136291155
1764505723.6746671,-18.17466,27.7732,18.93766,-0.867002175,0.28893969,-0.136291155
1764505723.6746671,-18.17466,27.7732,18.93766,-0.867002175,0.28893969,-0.136291155
1764505723.6746671,-18.17466,27.7732,18.93766,-0.867002175,0.28893969,-0.136291155
1764505723.6746671,-18.17466,27.7732,18.93766,-0.867002175,0.28893969,-0.136291155
1764505723.6746671,-18.17466,27.7732,18.93766,-0.867002175,0.28893969,-0.136291155
1764505723.6746671,-18.17466,27.7732,18.93766,-0.867002175,0.28893969,-0.136291155
1764505723.6746671,-18.17466,27.7732,18.93766,-0.867002175,0.28893969,-0.136291155
1764505723.6746671,-4.62378,25.16374,26.99494,-0.840879195,0.29516526,-0.153014745
1764505723.6746671,-4.62378,25.16374,26.99494,-0.840879195,0.29516526,-0.153014745
1764505723.6746671,-4.62378,25.16374,26.99494,-0.840879195,0.29516526,-0.153014745
1764505723.6746671,-4.62378,25.16374,26.99494,-0.840879195,0.29516526,-0.153014745
1764505723.6746671,-4.62378,25.16374,26.99494,-0.840879195,0.29516526,-0.153014745
1764505723.6746671,-4.62378,25.16374,26.99494,-0.840879195,0.29516526,-0.153014745
1764505723.7191863,-4.62378,25.16374,26.99494,-0.840879195,0.29516526,-0.153014745
1764505723.7191863,-4.62378,25.16374,26.99494,-0.840879195,0.29516526,-0.153014745
1764505723.7197518,-4.62378,25.16374,26.99494,-0.840879195,0.29516526,-0.153014745
1764505723.7197518,-4.62378,25.16374,26.99494,-0.840879195,0.29516526,-0.153014745
1764505723.7197518,2.53316,22.75266,36.30354,-0.83239533,0.31323162,-0.167785215
1764505723.7197518,2.53316,22.75266,36.30354,-0.83239533,0.31323162,-0.167785215
1764505723.7197518,2.53316,22.75266,36.30354,-0.83239533,0.31323162,-0.167785215
1764505723.7197518,2.53316,22.75266,36.30354,-0.83239533,0.31323162,-0.167785215
1764505723.7197518,2.53316,22.75266,36.30354,-0.83239533,0.31323162,-0.167785215
1764505723.7197518,2.53316,22.75266,36.30354,-0.83239533,0.31323162,-0.167785215
1764505723.7197518,2.53316,22.75266,36.30354,-0.83239533,0.31323162,-0.167785215
1764505723.7197518,2.53316,22.75266,36.30354,-0.83239533,0.31323162,-0.167785215
1764505723.7197518,2.53316,22.75266,36.30354,-0.83239533,0.31323162,-0.167785215
1764505723.7197518,2.53316,22.75266,36.30354,-0.83239533,0.31323162,-0.167785215
1764505723.7197518,-0.1678599999999999,15.1837,47.35178,-0.843320595,0.3491202,-0.16809039
1764505723.7197518,-0.1678599999999999,15.1837,47.35178,-0.843320595,0.3491202,-0.16809039
1764505723.7197518,-0.1678599999999999,15.1837,47.35178,-0.843320595,0.3491202,-0.16809039
1764505723.7197518,-0.1678599999999999,15.1837,47.35178,-0.843320595,0.3491202,-0.16809039
1764505723.7197518,-0.1678599999999999,15.1837,47.35178,-0.843320595,0.3491202,-0.16809039
1764505723.7197518,-0.1678599999999999,15.1837,47.35178,-0.843320595,0.3491202,-0.16809039
1764505723.7197518,-0.1678599999999999,15.1837,47.35178,-0.843320595,0.3491202,-0.16809039
1764505723.7197518,-0.1678599999999999,15.1837,47.35178,-0.843320595,0.3491202,-0.16809039
1764505723.7197518,-0.1678599999999999,15.1837,47.35178,-0.843320595,0.3491202,-0.16809039
1764505723.7197518,-0.1678599999999999,15.1837,47.35178,-0.843320595,0.3491202,-0.16809039
1764505723.763595,-6.42446,4.74586,56.462,-0.862729725,0.38378808,-0.15234336
1764505723.763595,-6.42446,4.74586,56.462,-0.862729725,0.38378808,-0.15234336
1764505723.763595,-6.42446,4.74586,56.462,-0.862729725,0.38378808,-0.15234336
1764505723.763595,-6.42446,4.74586,56.462,-0.862729725,0.38378808,-0.15234336
1764505723.7646184,-6.42446,4.74586,56.462,-0.862729725,0.38378808,-0.15234336
1764505723.7646184,-6.42446,4.74586,56.462,-0.862729725,0.38378808,-0.15234336
1764505723.7646184,-6.42446,4.74586,56.462,-0.862729725,0.38378808,-0.15234336
1764505723.7646184,-6.42446,4.74586,56.462,-0.862729725,0.38378808,-0.15234336
1764505723.7646184,-6.42446,4.74586,56.462,-0.862729725,0.38378808,-0.15234336
1764505723.7646184,-6.42446,4.74586,56.462,-0.862729725,0.38378808,-0.15234336
1764505723.7646184,-13.82556,-1.8006799999999998,62.39814,-0.878965035,0.408263115,-0.129699375
1764505723.7646184,-13.82556,-1.8006799999999998,62.39814,-0.878965035,0.408263115,-0.129699375
1764505723.7646184,-13.82556,-1.8006799999999998,62.39814,-0.878965035,0.408263115,-0.129699375
1764505723.7646184,-13.82556,-1.8006799999999998,62.39814,-0.878965035,0.408263115,-0.129699375
1764505723.7646184,-13.82556,-1.8006799999999998,62.39814,-0.878965035,0.408263115,-0.129699375
1764505723.7646184,-13.82556,-1.8006799999999998,62.39814,-0.878965035,0.408263115,-0.129699375
1764505723.7646184,-13.82556,-1.8006799999999998,62.39814,-0.878965035,0.408263115,-0.129699375
1764505723.7646184,-13.82556,-1.8006799999999998,62.39814,-0.878965035,0.408263115,-0.129699375
1764505723.7646184,-13.82556,-1.8006799999999998,62.39814,-0.878965035,0.408263115,-0.129699375
1764505723.7658782,-13.82556,-1.8006799999999998,62.39814,-0.878965035,0.408263115,-0.129699375
1764505723.7663872,-17.533739999999998,-3.63188,66.48782,-0.89648208,0.418272855,-0.116515815
1764505723.7674046,-17.533739999999998,-3.63188,66.48782,-0.89648208,0.418272855,-0.116515815
1764505723.809965,-17.533739999999998,-3.63188,66.48782,-0.89648208,0.418272855,-0.116515815
1764505723.809965,-17.533739999999998,-3.63188,66.48782,-0.89648208,0.418272855,-0.116515815
1764505723.809965,-17.533739999999998,-3.63188,66.48782,-0.89648208,0.418272855,-0.116515815
1764505723.809965,-17.533739999999998,-3.63188,66.48782,-0.89648208,0.418272855,-0.116515815
1764505723.8109825,-17.533739999999998,-3.63188,66.48782,-0.89648208,0.418272855,-0.116515815
1764505723.8109825,-17.533739999999998,-3.63188,66.48782,-0.89648208,0.418272855,-0.116515815
1764505723.8109825,-17.533739999999998,-3.63188,66.48782,-0.89648208,0.418272855,-0.116515815
1764505723.8109825,-17.533739999999998,-3.63188,66.48782,-0.89648208,0.418272855,-0.116515815
1764505723.8109825,-14.8785,-7.233239999999999,69.8908,-0.906919065,0.423399795,-0.117004095
1764505723.8109825,-14.8785,-7.233239999999999,69.8908,-0.906919065,0.423399795,-0.117004095
1764505723.8109825,-14.8785,-7.233239999999999,69.8908,-0.906919065,0.423399795,-0.117004095
1764505723.8109825,-14.8785,-7.233239999999999,69.8908,-0.906919065,0.423399795,-0.117004095
1764505723.8109825,-14.8785,-7.233239999999999,69.8908,-0.906919065,0.423399795,-0.117004095
1764505723.8109825,-14.8785,-7.233239999999999,69.8908,-0.906919065,0.423399795,-0.117004095
1764505723.811983,-14.8785,-7.233239999999999,69.8908,-0.906919065,0.423399795,-0.117004095
1764505723.811983,-14.8785,-7.233239999999999,69.8908,-0.906919065,0.423399795,-0.117004095
1764505723.811983,-14.8785,-7.233239999999999,69.8908,-0.906919065,0.423399795,-0.117004095
1764505723.813571,-14.8785,-7.233239999999999,69.8908,-0.906919065,0.423399795,-0.117004095
1764505723.813571,-1.77016,-12.71158,67.40342,-0.90612561,0.42187392,-0.11743134
1764505723.813571,-1.77016,-12.71158,67.40342,-0.90612561,0.42187392,-0.11743134
1764505723.813571,-1.77016,-12.71158,67.40342,-0.90612561,0.42187392,-0.11743134
1764505723.813571,-1.77016,-12.71158,67.40342,-0.90612561,0.42187392,-0.11743134
1764505723.813571,-1.77016,-12.71158,67.40342,-0.90612561,0.42187392,-0.11743134
1764505723.813571,-1.77016,-12.71158,67.40342,-0.90612561,0.42187392,-0.11743134
1764505723.8570795,-1.77016,-12.71158,67.40342,-0.90612561,0.42187392,-0.11743134
1764505723.8570795,-1.77016,-12.71158,67.40342,-0.90612561,0.42187392,-0.11743134
1764505723.8570795,-1.77016,-12.71158,67.40342,-0.90612561,0.42187392,-0.11743134
1764505723.8570795,-1.77016,-12.71158,67.40342,-0.90612561,0.42187392,-0.11743134
1764505723.8570795,15.88566,-15.26,61.46728,-0.900815565,0.413023845,-0.11865204
1764505723.8570795,15.88566,-15.26,61.46728,-0.900815565,0.413023845,-0.11865204
1764505723.8570795,15.88566,-15.26,61.46728,-0.900815565,0.413023845,-0.11865204
1764505723.8570795,15.88566,-15.26,61.46728,-0.900815565,0.413023845,-0.11865204
1764505723.8570795,15.88566,-15.26,61.46728,-0.900815565,0.413023845,-0.11865204
1764505723.8570795,15.88566,-15.26,61.46728,-0.900815565,0.413023845,-0.11865204
1764505723.8570795,15.88566,-15.26,61.46728,-0.900815565,0.413023845,-0.11865204
1764505723.8570795,15.88566,-15.26,61.46728,-0.900815565,0.413023845,-0.11865204
1764505723.8570795,15.88566,-15.26,61.46728,-0.900815565,0.413023845,-0.11865204
1764505723.8570795,15.88566,-15.26,61.46728,-0.900815565,0.413023845,-0.11865204
1764505723.8586743,31.6645,-16.83178,54.44768,-0.89208756,0.403746525,-0.119811705
1764505723.8586743,31.6645,-16.83178,54.44768,-0.89208756,0.403746525,-0.119811705
1764505723.8586743,31.6645,-16.83178,54.44768,-0.89208756,0.403746525,-0.119811705
1764505723.8586743,31.6645,-16.83178,54.44768,-0.89208756,0.403746525,-0.119811705
1764505723.8586743,31.6645,-16.83178,54.44768,-0.89208756,0.403746525,-0.119811705
1764505723.8586743,31.6645,-16.83178,54.44768,-0.89208756,0.403746525,-0.119811705
1764505723.8586743,31.6645,-16.83178,54.44768,-0.89208756,0.403746525,-0.119811705
1764505723.8586743,31.6645,-16.83178,54.44768,-0.89208756,0.403746525,-0.119811705
1764505723.8586743,31.6645,-16.83178,54.44768,-0.89208756,0.403746525,-0.119811705
1764505723.8586743,31.6645,-16.83178,54.44768,-0.89208756,0.403746525,-0.119811705
1764505723.906674,47.306,-17.060679999999998,51.62458,-0.880674015,0.39904683,-0.12036102
1764505723.906674,47.306,-17.060679999999998,51.62458,-0.880674015,0.39904683,-0.12036102
1764505723.9076896,47.306,-17.060679999999998,51.62458,-0.880674015,0.39904683,-0.12036102
1764505723.9076896,47.306,-17.060679999999998,51.62458,-0.880674015,0.39904683,-0.12036102
1764505723.9076896,47.306,-17.060679999999998,51.62458,-0.880674015,0.39904683,-0.12036102
1764505723.9076896,47.306,-17.060679999999998,51.62458,-0.880674015,0.39904683,-0.12036102
1764505723.9076896,47.306,-17.060679999999998,51.62458,-0.880674015,0.39904683,-0.12036102
1764505723.908683,47.306,-17.060679999999998,51.62458,-0.880674015,0.39904683,-0.12036102
1764505723.908683,47.306,-17.060679999999998,51.62458,-0.880674015,0.39904683,-0.12036102
1764505723.908683,47.306,-17.060679999999998,51.62458,-0.880674015,0.39904683,-0.12036102
1764505723.909354,55.28698,-12.11644,47.5349,-0.86645286,0.40881243,-0.12499968
1764505723.909354,55.28698,-12.11644,47.5349,-0.86645286,0.40881243,-0.12499968
1764505723.909354,55.28698,-12.11644,47.5349,-0.86645286,0.40881243,-0.12499968
1764505723.909354,55.28698,-12.11644,47.5349,-0.86645286,0.40881243,-0.12499968
1764505723.909354,55.28698,-12.11644,47.5349,-0.86645286,0.40881243,-0.12499968
1764505723.909354,55.28698,-12.11644,47.5349,-0.86645286,0.40881243,-0.12499968
1764505723.909354,55.28698,-12.11644,47.5349,-0.86645286,0.40881243,-0.12499968
1764505723.9103713,55.28698,-12.11644,47.5349,-0.86645286,0.40881243,-0.12499968
1764505723.9103713,55.28698,-12.11644,47.5349,-0.86645286,0.40881243,-0.12499968
1764505723.9103713,55.28698,-12.11644,47.5349,-0.86645286,0.40881243,-0.12499968
1764505723.9103713,65.0839,-17.762639999999998,51.36516,-0.86022729,0.431822625,-0.117004095
1764505723.9103713,65.0839,-17.762639999999998,51.36516,-0.86022729,0.431822625,-0.117004095
1764505723.911361,65.0839,-17.762639999999998,51.36516,-0.86022729,0.431822625,-0.117004095
1764505723.911361,65.0839,-17.762639999999998,51.36516,-0.86022729,0.431822625,-0.117004095
1764505723.9517448,65.0839,-17.762639999999998,51.36516,-0.86022729,0.431822625,-0.117004095
1764505723.9517448,65.0839,-17.762639999999998,51.36516,-0.86022729,0.431822625,-0.117004095
1764505723.9517448,65.0839,-17.762639999999998,51.36516,-0.86022729,0.431822625,-0.117004095
1764505723.9517448,65.0839,-17.762639999999998,51.36516,-0.86022729,0.431822625,-0.117004095
1764505723.9517448,65.0839,-17.762639999999998,51.36516,-0.86022729,0.431822625,-0.117004095
1764505723.9517448,65.0839,-17.762639999999998,51.36516,-0.86022729,0.431822625,-0.117004095
1764505723.9517448,79.5046,-35.95256,52.55544,-0.87255636,0.450743475,-0.092712165
1764505723.9517448,79.5046,-35.95256,52.55544,-0.87255636,0.450743475,-0.092712165
1764505723.9543068,79.5046,-35.95256,52.55544,-0.87255636,0.450743475,-0.092712165
1764505723.9543068,79.5046,-35.95256,52.55544,-0.87255636,0.450743475,-0.092712165
1764505723.955315,79.5046,-35.95256,52.55544,-0.87255636,0.450743475,-0.092712165
1764505723.955315,79.5046,-35.95256,52.55544,-0.87255636,0.450743475,-0.092712165
1764505723.955315,79.5046,-35.95256,52.55544,-0.87255636,0.450743475,-0.092712165
1764505723.9563258,79.5046,-35.95256,52.55544,-0.87255636,0.450743475,-0.092712165
1764505723.9563258,79.5046,-35.95256,52.55544,-0.87255636,0.450743475,-0.092712165
1764505723.9563258,79.5046,-35.95256,52.55544,-0.87255636,0.450743475,-0.092712165
1764505723.9573328,83.36538,-43.99458,49.24402,-0.876279495,0.467589135,-0.07458477
1764505723.9573328,83.36538,-43.99458,49.24402,-0.876279495,0.467589135,-0.07458477
1764505723.9583416,83.36538,-43.99458,49.24402,-0.876279495,0.467589135,-0.07458477
1764505723.9583416,83.36538,-43.99458,49.24402,-0.876279495,0.467589135,-0.07458477
1764505723.9583416,83.36538,-43.99458,49.24402,-0.876279495,0.467589135,-0.07458477
1764505723.959332,83.36538,-43.99458,49.24402,-0.876279495,0.467589135,-0.07458477
1764505723.9999945,83.36538,-43.99458,49.24402,-0.876279495,0.467589135,-0.07458477
1764505723.9999945,83.36538,-43.99458,49.24402,-0.876279495,0.467589135,-0.07458477
1764505723.9999945,83.36538,-43.99458,49.24402,-0.876279495,0.467589135,-0.07458477
1764505723.9999945,83.36538,-43.99458,49.24402,-0.876279495,0.467589135,-0.07458477
1764505723.9999945,79.6572,-43.44522,51.10574,-0.86852805,0.497374215,-0.06359847
1764505723.9999945,79.6572,-43.44522,51.10574,-0.86852805,0.497374215,-0.06359847
1764505723.9999945,79.6572,-43.44522,51.10574,-0.86852805,0.497374215,-0.06359847
1764505723.9999945,79.6572,-43.44522,51.10574,-0.86852805,0.497374215,-0.06359847
1764505723.9999945,79.6572,-43.44522,51.10574,-0.86852805,0.497374215,-0.06359847
1764505723.9999945,79.6572,-43.44522,51.10574,-0.86852805,0.497374215,-0.06359847
1764505723.9999945,79.6572,-43.44522,51.10574,-0.86852805,0.497374215,-0.06359847
1764505723.9999945,79.6572,-43.44522,51.10574,-0.86852805,0.497374215,-0.06359847
1764505723.9999945,79.6572,-43.44522,51.10574,-0.86852805,0.497374215,-0.06359847
1764505723.9999945,79.6572,-43.44522,51.10574,-0.86852805,0.497374215,-0.06359847
1764505723.9999945,77.85652,-45.45954,47.0008,-0.86010522,0.52892931,-0.050842155
1764505724.001004,77.85652,-45.45954,47.0008,-0.86010522,0.52892931,-0.050842155
1764505724.001004,77.85652,-45.45954,47.0008,-0.86010522,0.52892931,-0.050842155
1764505724.001004,77.85652,-45.45954,47.0008,-0.86010522,0.52892931,-0.050842155
1764505724.001004,77.85652,-45.45954,47.0008,-0.86010522,0.52892931,-0.050842155
1764505724.001004,77.85652,-45.45954,47.0008,-0.86010522,0.52892931,-0.050842155
1764505724.001004,77.85652,-45.45954,47.0008,-0.86010522,0.52892931,-0.050842155
1764505724.0020072,77.85652,-45.45954,47.0008,-0.86010522,0.52892931,-0.050842155
1764505724.0020072,77.85652,-45.45954,47.0008,-0.86010522,0.52892931,-0.050842155
1764505724.0020072,77.85652,-45.45954,47.0008,-0.86010522,0.52892931,-0.050842155
1764505724.0478992,71.76778,-43.9488,43.85724,-0.85412379,0.56371926,-0.04089345
1764505724.0478992,71.76778,-43.9488,43.85724,-0.85412379,0.56371926,-0.04089345
1764505724.0478992,71.76778,-43.9488,43.85724,-0.85412379,0.56371926,-0.04089345
1764505724.0488908,71.76778,-43.9488,43.85724,-0.85412379,0.56371926,-0.04089345
1764505724.0488908,71.76778,-43.9488,43.85724,-0.85412379,0.56371926,-0.04089345
1764505724.0488908,71.76778,-43.9488,43.85724,-0.85412379,0.56371926,-0.04089345
1764505724.0488908,71.76778,-43.9488,43.85724,-0.85412379,0.56371926,-0.04089345
1764505724.0488908,71.76778,-43.9488,43.85724,-0.85412379,0.56371926,-0.04089345
1764505724.0499134,71.76778,-43.9488,43.85724,-0.85412379,0.56371926,-0.04089345
1764505724.0499134,71.76778,-43.9488,43.85724,-0.85412379,0.56371926,-0.04089345
1764505724.0499134,62.2608,-42.46858,43.39944,-0.8483254650000001,0.595762635,-0.03588858
1764505724.0499134,62.2608,-42.46858,43.39944,-0.8483254650000001,0.595762635,-0.03588858
1764505724.0499134,62.2608,-42.46858,43.39944,-0.8483254650000001,0.595762635,-0.03588858
1764505724.050912,62.2608,-42.46858,43.39944,-0.8483254650000001,0.595762635,-0.03588858
1764505724.050912,62.2608,-42.46858,43.39944,-0.8483254650000001,0.595762635,-0.03588858
1764505724.050912,62.2608,-42.46858,43.39944,-0.8483254650000001,0.595762635,-0.03588858
1764505724.050912,62.2608,-42.46858,43.39944,-0.8483254650000001,0.595762635,-0.03588858
1764505724.0519245,62.2608,-42.46858,43.39944,-0.8483254650000001,0.595762635,-0.03588858
1764505724.0519245,62.2608,-42.46858,43.39944,-0.8483254650000001,0.595762635,-0.03588858
1764505724.0519245,62.2608,-42.46858,43.39944,-0.8483254650000001,0.595762635,-0.03588858
1764505724.0519245,47.33652,-38.54676,43.52152,-0.84533475,0.626768415,-0.033874425
1764505724.0519245,47.33652,-38.54676,43.52152,-0.84533475,0.626768415,-0.033874425
1764505724.0919976,47.33652,-38.54676,43.52152,-0.84533475,0.626768415,-0.033874425
1764505724.0919976,47.33652,-38.54676,43.52152,-0.84533475,0.626768415,-0.033874425
1764505724.0919976,47.33652,-38.54676,43.52152,-0.84533475,0.626768415,-0.033874425
1764505724.0919976,47.33652,-38.54676,43.52152,-0.84533475,0.626768415,-0.033874425
1764505724.0919976,47.33652,-38.54676,43.52152,-0.84533475,0.626768415,-0.033874425
1764505724.0919976,47.33652,-38.54676,43.52152,-0.84533475,0.626768415,-0.033874425
1764505724.0919976,47.33652,-38.54676,43.52152,-0.84533475,0.626768415,-0.033874425
1764505724.0919976,47.33652,-38.54676,43.52152,-0.84533475,0.626768415,-0.033874425
1764505724.0919976,27.94106,-33.70934,39.63022,-0.84435819,0.651792765,-0.035339265
1764505724.0919976,27.94106,-33.70934,39.63022,-0.84435819,0.651792765,-0.035339265
1764505724.0919976,27.94106,-33.70934,39.63022,-0.84435819,0.651792765,-0.035339265
1764505724.0919976,27.94106,-33.70934,39.63022,-0.84435819,0.651792765,-0.035339265
1764505724.0919976,27.94106,-33.70934,39.63022,-0.84435819,0.651792765,-0.035339265
1764505724.0919976,27.94106,-33.70934,39.63022,-0.84435819,0.651792765,-0.035339265
1764505724.0941956,27.94106,-33.70934,39.63022,-0.84435819,0.651792765,-0.035339265
1764505724.0947285,27.94106,-33.70934,39.63022,-0.84435819,0.651792765,-0.035339265
1764505724.0947285,27.94106,-33.70934,39.63022,-0.84435819,0.651792765,-0.035339265
1764505724.0947285,27.94106,-33.70934,39.63022,-0.84435819,0.651792765,-0.035339265
1764505724.0947285,12.49794,-29.49758,32.54958,-0.82983186,0.66540357,-0.034240635
1764505724.0947285,12.49794,-29.49758,32.54958,-0.82983186,0.66540357,-0.034240635
1764505724.0947285,12.49794,-29.49758,32.54958,-0.82983186,0.66540357,-0.034240635
1764505724.0947285,12.49794,-29.49758,32.54958,-0.82983186,0.66540357,-0.034240635
1764505724.0947285,12.49794,-29.49758,32.54958,-0.82983186,0.66540357,-0.034240635
1764505724.0947285,12.49794,-29.49758,32.54958,-0.82983186,0.66540357,-0.034240635
1764505724.1387718,12.49794,-29.49758,32.54958,-0.82983186,0.66540357,-0.034240635
1764505724.1387718,12.49794,-29.49758,32.54958,-0.82983186,0.66540357,-0.034240635
1764505724.1387718,12.49794,-29.49758,32.54958,-0.82983186,0.66540357,-0.034240635
1764505724.1387718,12.49794,-29.49758,32.54958,-0.82983186,0.66540357,-0.034240635
1764505724.1387718,5.096839999999999,-21.33348,25.89622,-0.802060935,0.66308424,-0.03222648
1764505724.1387718,5.096839999999999,-21.33348,25.89622,-0.802060935,0.66308424,-0.03222648
1764505724.1387718,5.096839999999999,-21.33348,25.89622,-0.802060935,0.66308424,-0.03222648
1764505724.1387718,5.096839999999999,-21.33348,25.89622,-0.802060935,0.66308424,-0.03222648
1764505724.1387718,5.096839999999999,-21.33348,25.89622,-0.802060935,0.66308424,-0.03222648
1764505724.1387718,5.096839999999999,-21.33348,25.89622,-0.802060935,0.66308424,-0.03222648
1764505724.1387718,5.096839999999999,-21.33348,25.89622,-0.802060935,0.66308424,-0.03222648
1764505724.1387718,5.096839999999999,-21.33348,25.89622,-0.802060935,0.66308424,-0.03222648
1764505724.1387718,5.096839999999999,-21.33348,25.89622,-0.802060935,0.66308424,-0.03222648
1764505724.1403933,5.096839999999999,-21.33348,25.89622,-0.802060935,0.66308424,-0.03222648
1764505724.1403933,2.48738,-13.0473,22.93578,-0.781309035,0.64636065,-0.033996495
1764505724.1403933,2.48738,-13.0473,22.93578,-0.781309035,0.64636065,-0.033996495
1764505724.1403933,2.48738,-13.0473,22.93578,-0.781309035,0.64636065,-0.033996495
1764505724.1403933,2.48738,-13.0473,22.93578,-0.781309035,0.64636065,-0.033996495
1764505724.1403933,2.48738,-13.0473,22.93578,-0.781309035,0.64636065,-0.033996495
1764505724.1403933,2.48738,-13.0473,22.93578,-0.781309035,0.64636065,-0.033996495
1764505724.1403933,2.48738,-13.0473,22.93578,-0.781309035,0.64636065,-0.033996495
1764505724.1403933,2.48738,-13.0473,22.93578,-0.781309035,0.64636065,-0.033996495
1764505724.1403933,2.48738,-13.0473,22.93578,-0.781309035,0.64636065,-0.033996495
1764505724.1414073,2.48738,-13.0473,22.93578,-0.781309035,0.64636065,-0.033996495
1764505724.1851392,-4.74586,-13.07782,22.46272,-0.778013145,0.631895355,-0.0415038
1764505724.1851392,-4.74586,-13.07782,22.46272,-0.778013145,0.631895355,-0.0415038
1764505724.1851392,-4.74586,-13.07782,22.46272,-0.778013145,0.631895355,-0.0415038
1764505724.1851392,-4.74586,-13.07782,22.46272,-0.778013145,0.631895355,-0.0415038
1764505724.1851392,-4.74586,-13.07782,22.46272,-0.778013145,0.631895355,-0.0415038
1764505724.1861625,-4.74586,-13.07782,22.46272,-0.778013145,0.631895355,-0.0415038
1764505724.1861625,-4.74586,-13.07782,22.46272,-0.778013145,0.631895355,-0.0415038
1764505724.1861625,-4.74586,-13.07782,22.46272,-0.778013145,0.631895355,-0.0415038
1764505724.1861625,-4.74586,-13.07782,22.46272,-0.778013145,0.631895355,-0.0415038
1764505724.1861625,-4.74586,-13.07782,22.46272,-0.778013145,0.631895355,-0.0415038
1764505724.1861625,-15.42786,-20.25002,22.34064,-0.779600055,0.62219079,-0.04589832
1764505724.1861625,-15.42786,-20.25002,22.34064,-0.779600055,0.62219079,-0.04589832
1764505724.1861625,-15.42786,-20.25002,22.34064,-0.779600055,0.62219079,-0.04589832
1764505724.1861625,-15.42786,-20.25002,22.34064,-0.779600055,0.62219079,-0.04589832
1764505724.1861625,-15.42786,-20.25002,22.34064,-0.779600055,0.62219079,-0.04589832
1764505724.1861625,-15.42786,-20.25002,22.34064,-0.779600055,0.62219079,-0.04589832
1764505724.1861625,-15.42786,-20.25002,22.34064,-0.779600055,0.62219079,-0.04589832
1764505724.1861625,-15.42786,-20.25002,22.34064,-0.779600055,0.62219079,-0.04589832
1764505724.1861625,-15.42786,-20.25002,22.34064,-0.779600055,0.62219079,-0.04589832
1764505724.1861625,-15.42786,-20.25002,22.34064,-0.779600055,0.62219079,-0.04589832
1764505724.1871622,-21.25718,-25.51472,19.62436,-0.783262155,0.614317275,-0.0415038
1764505724.1871622,-21.25718,-25.51472,19.62436,-0.783262155,0.614317275,-0.0415038
1764505724.1871622,-21.25718,-25.51472,19.62436,-0.783262155,0.614317275,-0.0415038
1764505724.1871622,-21.25718,-25.51472,19.62436,-0.783262155,0.614317275,-0.0415038
1764505724.235744,-21.25718,-25.51472,19.62436,-0.783262155,0.614317275,-0.0415038
1764505724.235744,-21.25718,-25.51472,19.62436,-0.783262155,0.614317275,-0.0415038
1764505724.235744,-21.25718,-25.51472,19.62436,-0.783262155,0.614317275,-0.0415038
1764505724.235744,-21.25718,-25.51472,19.62436,-0.783262155,0.614317275,-0.0415038
1764505724.235744,-21.25718,-25.51472,19.62436,-0.783262155,0.614317275,-0.0415038
1764505724.235744,-21.25718,-25.51472,19.62436,-0.783262155,0.614317275,-0.0415038
1764505724.235744,-18.35778,-27.3154,9.24756,-0.788267025,0.60241545,-0.032287515
1764505724.235744,-18.35778,-27.3154,9.24756,-0.788267025,0.60241545,-0.032287515
1764505724.235744,-18.35778,-27.3154,9.24756,-0.788267025,0.60241545,-0.032287515
1764505724.235744,-18.35778,-27.3154,9.24756,-0.788267025,0.60241545,-0.032287515
1764505724.235744,-18.35778,-27.3154,9.24756,-0.788267025,0.60241545,-0.032287515
1764505724.235744,-18.35778,-27.3154,9.24756,-0.788267025,0.60241545,-0.032287515
1764505724.235744,-18.35778,-27.3154,9.24756,-0.788267025,0.60241545,-0.032287515
1764505724.235744,-18.35778,-27.3154,9.24756,-0.788267025,0.60241545,-0.032287515
1764505724.235744,-18.35778,-27.3154,9.24756,-0.788267025,0.60241545,-0.032287515
1764505724.235744,-18.35778,-27.3154,9.24756,-0.788267025,0.60241545,-0.032287515
1764505724.236743,-9.64432,-27.13228,-5.60042,-0.787412535,0.58947603,-0.025085385
1764505724.236743,-9.64432,-27.13228,-5.60042,-0.787412535,0.58947603,-0.025085385
1764505724.236743,-9.64432,-27.13228,-5.60042,-0.787412535,0.58947603,-0.025085385
1764505724.2377398,-9.64432,-27.13228,-5.60042,-0.787412535,0.58947603,-0.025085385
1764505724.2377398,-9.64432,-27.13228,-5.60042,-0.787412535,0.58947603,-0.025085385
1764505724.2377398,-9.64432,-27.13228,-5.60042,-0.787412535,0.58947603,-0.025085385
1764505724.2377398,-9.64432,-27.13228,-5.60042,-0.787412535,0.58947603,-0.025085385
1764505724.2387328,-9.64432,-27.13228,-5.60042,-0.787412535,0.58947603,-0.025085385
1764505724.2819831,-9.64432,-27.13228,-5.60042,-0.787412535,0.58947603,-0.025085385
1764505724.282494,-9.64432,-27.13228,-5.60042,-0.787412535,0.58947603,-0.025085385
1764505724.282494,3.70818,-28.09366,-16.862299999999998,-0.7869852900000001,0.57824559,-0.016174275
1764505724.282494,3.70818,-28.09366,-16.862299999999998,-0.7869852900000001,0.57824559,-0.016174275
1764505724.282494,3.70818,-28.09366,-16.862299999999998,-0.7869852900000001,0.57824559,-0.016174275
1764505724.282494,3.70818,-28.09366,-16.862299999999998,-0.7869852900000001,0.57824559,-0.016174275
1764505724.282494,3.70818,-28.09366,-16.862299999999998,-0.7869852900000001,0.57824559,-0.016174275
1764505724.282494,3.70818,-28.09366,-16.862299999999998,-0.7869852900000001,0.57824559,-0.016174275
1764505724.282494,3.70818,-28.09366,-16.862299999999998,-0.7869852900000001,0.57824559,-0.016174275
1764505724.282494,3.70818,-28.09366,-16.862299999999998,-0.7869852900000001,0.57824559,-0.016174275
1764505724.282494,3.70818,-28.09366,-16.862299999999998,-0.7869852900000001,0.57824559,-0.016174275
1764505724.282494,3.70818,-28.09366,-16.862299999999998,-0.7869852900000001,0.57824559,-0.016174275
1764505724.282494,8.6982,-25.98778,-22.92052,-0.79540812,0.57519384,-0.011535615
1764505724.282494,8.6982,-25.98778,-22.92052,-0.79540812,0.57519384,-0.011535615
1764505724.282494,8.6982,-25.98778,-22.92052,-0.79540812,0.57519384,-0.011535615
1764505724.282494,8.6982,-25.98778,-22.92052,-0.79540812,0.57519384,-0.011535615
1764505724.282494,8.6982,-25.98778,-22.92052,-0.79540812,0.57519384,-0.011535615
1764505724.282494,8.6982,-25.98778,-22.92052,-0.79540812,0.57519384,-0.011535615
1764505724.282494,8.6982,-25.98778,-22.92052,-0.79540812,0.57519384,-0.011535615
1764505724.282494,8.6982,-25.98778,-22.92052,-0.79540812,0.57519384,-0.011535615
1764505724.282494,8.6982,-25.98778,-22.92052,-0.79540812,0.57519384,-0.011535615
1764505724.282494,8.6982,-25.98778,-22.92052,-0.79540812,0.57519384,-0.011535615
1764505724.3294258,3.69292,-21.62342,-30.00116,-0.80492958,0.58630221,-0.014465295
1764505724.3294258,3.69292,-21.62342,-30.00116,-0.80492958,0.58630221,-0.014465295
1764505724.3294258,3.69292,-21.62342,-30.00116,-0.80492958,0.58630221,-0.014465295
1764505724.3294258,3.69292,-21.62342,-30.00116,-0.80492958,0.58630221,-0.014465295
1764505724.3294258,3.69292,-21.62342,-30.00116,-0.80492958,0.58630221,-0.014465295
1764505724.3294258,3.69292,-21.62342,-30.00116,-0.80492958,0.58630221,-0.014465295
1764505724.3294258,3.69292,-21.62342,-30.00116,-0.80492958,0.58630221,-0.014465295
1764505724.3294258,3.69292,-21.62342,-30.00116,-0.80492958,0.58630221,-0.014465295
1764505724.3294258,3.69292,-21.62342,-30.00116,-0.80492958,0.58630221,-0.014465295
1764505724.3294258,3.69292,-21.62342,-30.00116,-0.80492958,0.58630221,-0.014465295
1764505724.3294258,-9.59854,-10.6057,-38.24156,-0.799619535,0.60949551,-0.031310955
1764505724.3294258,-9.59854,-10.6057,-38.24156,-0.799619535,0.60949551,-0.031310955
1764505724.33049,-9.59854,-10.6057,-38.24156,-0.799619535,0.60949551,-0.031310955
1764505724.33049,-9.59854,-10.6057,-38.24156,-0.799619535,0.60949551,-0.031310955
1764505724.33049,-9.59854,-10.6057,-38.24156,-0.799619535,0.60949551,-0.031310955
1764505724.33049,-9.59854,-10.6057,-38.24156,-0.799619535,0.60949551,-0.031310955
1764505724.33049,-9.59854,-10.6057,-38.24156,-0.799619535,0.60949551,-0.031310955
1764505724.33049,-9.59854,-10.6057,-38.24156,-0.799619535,0.60949551,-0.031310955
1764505724.33049,-9.59854,-10.6057,-38.24156,-0.799619535,0.60949551,-0.031310955
1764505724.33049,-9.59854,-10.6057,-38.24156,-0.799619535,0.60949551,-0.031310955
1764505724.33049,-19.6854,1.25132,-44.19296,-0.78307905,0.641905095,-0.050964225
1764505724.33049,-19.6854,1.25132,-44.19296,-0.78307905,0.641905095,-0.050964225
1764505724.33049,-19.6854,1.25132,-44.19296,-0.78307905,0.641905095,-0.050964225
1764505724.33049,-19.6854,1.25132,-44.19296,-0.78307905,0.641905095,-0.050964225
1764505724.374761,-19.6854,1.25132,-44.19296,-0.78307905,0.641905095,-0.050964225
1764505724.374761,-19.6854,1.25132,-44.19296,-0.78307905,0.641905095,-0.050964225
1764505724.374761,-19.6854,1.25132,-44.19296,-0.78307905,0.641905095,-0.050964225
1764505724.374761,-19.6854,1.25132,-44.19296,-0.78307905,0.641905095,-0.050964225
1764505724.374761,-19.6854,1.25132,-44.19296,-0.78307905,0.641905095,-0.050964225
1764505724.374761,-19.6854,1.25132,-44.19296,-0.78307905,0.641905095,-0.050964225
1764505724.374761,-15.7178,6.6381,-48.58784,-0.7712382600000001,0.67223949,-0.054992535
1764505724.374761,-15.7178,6.6381,-48.58784,-0.7712382600000001,0.67223949,-0.054992535
1764505724.374761,-15.7178,6.6381,-48.58784,-0.7712382600000001,0.67223949,-0.054992535
1764505724.374761,-15.7178,6.6381,-48.58784,-0.7712382600000001,0.67223949,-0.054992535
1764505724.374761,-15.7178,6.6381,-48.58784,-0.7712382600000001,0.67223949,-0.054992535
1764505724.374761,-15.7178,6.6381,-48.58784,-0.7712382600000001,0.67223949,-0.054992535
1764505724.374761,-15.7178,6.6381,-48.58784,-0.7712382600000001,0.67223949,-0.054992535
1764505724.374761,-15.7178,6.6381,-48.58784,-0.7712382600000001,0.67223949,-0.054992535
1764505724.374761,-15.7178,6.6381,-48.58784,-0.7712382600000001,0.67223949,-0.054992535
1764505724.374761,-15.7178,6.6381,-48.58784,-0.7712382600000001,0.67223949,-0.054992535
1764505724.374761,-11.0635,5.46308,-52.8759,-0.77050584,0.690244815,-0.045715215
1764505724.374761,-11.0635,5.46308,-52.8759,-0.77050584,0.690244815,-0.045715215
1764505724.374761,-11.0635,5.46308,-52.8759,-0.77050584,0.690244815,-0.045715215
1764505724.3766885,-11.0635,5.46308,-52.8759,-0.77050584,0.690244815,-0.045715215
1764505724.3766885,-11.0635,5.46308,-52.8759,-0.77050584,0.690244815,-0.045715215
1764505724.3766885,-11.0635,5.46308,-52.8759,-0.77050584,0.690244815,-0.045715215
1764505724.4208696,-11.0635,5.46308,-52.8759,-0.77050584,0.690244815,-0.045715215
1764505724.4208696,-11.0635,5.46308,-52.8759,-0.77050584,0.690244815,-0.045715215
1764505724.4208696,-11.0635,5.46308,-52.8759,-0.77050584,0.690244815,-0.045715215
1764505724.4208696,-11.0635,5.46308,-52.8759,-0.77050584,0.690244815,-0.045715215
1764505724.4214046,-15.88566,2.38056,-52.00608,-0.770078595,0.693418635,-0.03796377
1764505724.4214046,-15.88566,2.38056,-52.00608,-0.770078595,0.693418635,-0.03796377
1764505724.4214046,-15.88566,2.38056,-52.00608,-0.770078595,0.693418635,-0.03796377
1764505724.4214046,-15.88566,2.38056,-52.00608,-0.770078595,0.693418635,-0.03796377
1764505724.4214046,-15.88566,2.38056,-52.00608,-0.770078595,0.693418635,-0.03796377
1764505724.4214046,-15.88566,2.38056,-52.00608,-0.770078595,0.693418635,-0.03796377
1764505724.4214046,-15.88566,2.38056,-52.00608,-0.770078595,0.693418635,-0.03796377
1764505724.4214046,-15.88566,2.38056,-52.00608,-0.770078595,0.693418635,-0.03796377
1764505724.4214046,-15.88566,2.38056,-52.00608,-0.770078595,0.693418635,-0.03796377
1764505724.4214046,-15.88566,2.38056,-52.00608,-0.770078595,0.693418635,-0.03796377
1764505724.4214046,-28.55146,0.19838,-45.2459,-0.76928514,0.67980783,-0.035095125
1764505724.4214046,-28.55146,0.19838,-45.2459,-0.76928514,0.67980783,-0.035095125
1764505724.4214046,-28.55146,0.19838,-45.2459,-0.76928514,0.67980783,-0.035095125
1764505724.4214046,-28.55146,0.19838,-45.2459,-0.76928514,0.67980783,-0.035095125
1764505724.4214046,-28.55146,0.19838,-45.2459,-0.76928514,0.67980783,-0.035095125
1764505724.4214046,-28.55146,0.19838,-45.2459,-0.76928514,0.67980783,-0.035095125
1764505724.4214046,-28.55146,0.19838,-45.2459,-0.76928514,0.67980783,-0.035095125
1764505724.4214046,-28.55146,0.19838,-45.2459,-0.76928514,0.67980783,-0.035095125
1764505724.4214046,-28.55146,0.19838,-45.2459,-0.76928514,0.67980783,-0.035095125
1764505724.4214046,-28.55146,0.19838,-45.2459,-0.76928514,0.67980783,-0.035095125
1764505724.4687707,-43.17054,6.271859999999999,-34.96066,-0.7702006650000001,0.648008595,-0.04016103
1764505724.4687707,-43.17054,6.271859999999999,-34.96066,-0.7702006650000001,0.648008595,-0.04016103
1764505724.4687707,-43.17054,6.271859999999999,-34.96066,-0.7702006650000001,0.648008595,-0.04016103
1764505724.4687707,-43.17054,6.271859999999999,-34.96066,-0.7702006650000001,0.648008595,-0.04016103
1764505724.4687707,-43.17054,6.271859999999999,-34.96066,-0.7702006650000001,0.648008595,-0.04016103
1764505724.4687707,-43.17054,6.271859999999999,-34.96066,-0.7702006650000001,0.648008595,-0.04016103
1764505724.4687707,-43.17054,6.271859999999999,-34.96066,-0.7702006650000001,0.648008595,-0.04016103
1764505724.4687707,-43.17054,6.271859999999999,-34.96066,-0.7702006650000001,0.648008595,-0.04016103
1764505724.4687707,-43.17054,6.271859999999999,-34.96066,-0.7702006650000001,0.648008595,-0.04016103
1764505724.4687707,-43.17054,6.271859999999999,-34.96066,-0.7702006650000001,0.648008595,-0.04016103
1764505724.4687707,-52.14342,16.1756,-24.82802,-0.784604925,0.6093124050000001,-0.048889035
1764505724.4687707,-52.14342,16.1756,-24.82802,-0.784604925,0.6093124050000001,-0.048889035
1764505724.4687707,-52.14342,16.1756,-24.82802,-0.784604925,0.6093124050000001,-0.048889035
1764505724.4687707,-52.14342,16.1756,-24.82802,-0.784604925,0.6093124050000001,-0.048889035
1764505724.4687707,-52.14342,16.1756,-24.82802,-0.784604925,0.6093124050000001,-0.048889035
1764505724.4687707,-52.14342,16.1756,-24.82802,-0.784604925,0.6093124050000001,-0.048889035
1764505724.4687707,-52.14342,16.1756,-24.82802,-0.784604925,0.6093124050000001,-0.048889035
1764505724.4687707,-52.14342,16.1756,-24.82802,-0.784604925,0.6093124050000001,-0.048889035
1764505724.4687707,-52.14342,16.1756,-24.82802,-0.784604925,0.6093124050000001,-0.048889035
1764505724.4687707,-52.14342,16.1756,-24.82802,-0.784604925,0.6093124050000001,-0.048889035
1764505724.4687707,-54.35612,16.46554,-25.19426,-0.80993445,0.568052745,-0.0549315
1764505724.4687707,-54.35612,16.46554,-25.19426,-0.80993445,0.568052745,-0.0549315
1764505724.4703026,-54.35612,16.46554,-25.19426,-0.80993445,0.568052745,-0.0549315
1764505724.4703026,-54.35612,16.46554,-25.19426,-0.80993445,0.568052745,-0.0549315
1764505724.51892,-54.35612,16.46554,-25.19426,-0.80993445,0.568052745,-0.0549315
1764505724.51892,-54.35612,16.46554,-25.19426,-0.80993445,0.568052745,-0.0549315
1764505724.51892,-54.35612,16.46554,-25.19426,-0.80993445,0.568052745,-0.0549315
1764505724.51892,-54.35612,16.46554,-25.19426,-0.80993445,0.568052745,-0.0549315
1764505724.51892,-54.35612,16.46554,-25.19426,-0.80993445,0.568052745,-0.0549315
1764505724.51892,-54.35612,16.46554,-25.19426,-0.80993445,0.568052745,-0.0549315
1764505724.51892,-54.60028,10.13264,-32.79374,-0.84435819,0.52355823,-0.05786118
1764505724.51892,-54.60028,10.13264,-32.79374,-0.84435819,0.52355823,-0.05786118
1764505724.51892,-54.60028,10.13264,-32.79374,-0.84435819,0.52355823,-0.05786118
1764505724.51892,-54.60028,10.13264,-32.79374,-0.84435819,0.52355823,-0.05786118
1764505724.51892,-54.60028,10.13264,-32.79374,-0.84435819,0.52355823,-0.05786118
1764505724.51892,-54.60028,10.13264,-32.79374,-0.84435819,0.52355823,-0.05786118
1764505724.51892,-54.60028,10.13264,-32.79374,-0.84435819,0.52355823,-0.05786118
1764505724.51892,-54.60028,10.13264,-32.79374,-0.84435819,0.52355823,-0.05786118
1764505724.51892,-54.60028,10.13264,-32.79374,-0.84435819,0.52355823,-0.05786118
1764505724.51892,-54.60028,10.13264,-32.79374,-0.84435819,0.52355823,-0.05786118
1764505724.51892,-48.95408,-1.55652,-44.22348,-0.876401565,0.48107787,-0.05676255
1764505724.51892,-48.95408,-1.55652,-44.22348,-0.876401565,0.48107787,-0.05676255
1764505724.51892,-48.95408,-1.55652,-44.22348,-0.876401565,0.48107787,-0.05676255
1764505724.51892,-48.95408,-1.55652,-44.22348,-0.876401565,0.48107787,-0.05676255
1764505724.51892,-48.95408,-1.55652,-44.22348,-0.876401565,0.48107787,-0.05676255
1764505724.51892,-48.95408,-1.55652,-44.22348,-0.876401565,0.48107787,-0.05676255
1764505724.51892,-48.95408,-1.55652,-44.22348,-0.876401565,0.48107787,-0.05676255
1764505724.51892,-48.95408,-1.55652,-44.22348,-0.876401565,0.48107787,-0.05676255
1764505724.563598,-48.95408,-1.55652,-44.22348,-0.876401565,0.48107787,-0.05676255
1764505724.563598,-48.95408,-1.55652,-44.22348,-0.876401565,0.48107787,-0.05676255
1764505724.563598,-33.9535,-13.07782,-58.50684,-0.89623794,0.443785485,-0.049377315
1764505724.563598,-33.9535,-13.07782,-58.50684,-0.89623794,0.443785485,-0.049377315
1764505724.563598,-33.9535,-13.07782,-58.50684,-0.89623794,0.443785485,-0.049377315
1764505724.563598,-33.9535,-13.07782,-58.50684,-0.89623794,0.443785485,-0.049377315
1764505724.563598,-33.9535,-13.07782,-58.50684,-0.89623794,0.443785485,-0.049377315
1764505724.563598,-33.9535,-13.07782,-58.50684,-0.89623794,0.443785485,-0.049377315
1764505724.563598,-33.9535,-13.07782,-58.50684,-0.89623794,0.443785485,-0.049377315
1764505724.563598,-33.9535,-13.07782,-58.50684,-0.89623794,0.443785485,-0.049377315
1764505724.563598,-33.9535,-13.07782,-58.50684,-0.89623794,0.443785485,-0.049377315
1764505724.563598,-33.9535,-13.07782,-58.50684,-0.89623794,0.443785485,-0.049377315
1764505724.563598,-11.7502,-14.8785,-67.18978,-0.8980689900000001,0.41882217,-0.039367575
1764505724.563598,-11.7502,-14.8785,-67.18978,-0.8980689900000001,0.41882217,-0.039367575
1764505724.563598,-11.7502,-14.8785,-67.18978,-0.8980689900000001,0.41882217,-0.039367575
1764505724.563598,-11.7502,-14.8785,-67.18978,-0.8980689900000001,0.41882217,-0.039367575
1764505724.563598,-11.7502,-14.8785,-67.18978,-0.8980689900000001,0.41882217,-0.039367575
1764505724.563598,-11.7502,-14.8785,-67.18978,-0.8980689900000001,0.41882217,-0.039367575
1764505724.563598,-11.7502,-14.8785,-67.18978,-0.8980689900000001,0.41882217,-0.039367575
1764505724.563598,-11.7502,-14.8785,-67.18978,-0.8980689900000001,0.41882217,-0.039367575
1764505724.563598,-11.7502,-14.8785,-67.18978,-0.8980689900000001,0.41882217,-0.039367575
1764505724.564612,-11.7502,-14.8785,-67.18978,-0.8980689900000001,0.41882217,-0.039367575
1764505724.6090865,10.65148,-10.57518,-67.87648,-0.89196549,0.41552628,-0.03088371
1764505724.6090865,10.65148,-10.57518,-67.87648,-0.89196549,0.41552628,-0.03088371
1764505724.6090865,10.65148,-10.57518,-67.87648,-0.89196549,0.41552628,-0.03088371
1764505724.6090865,10.65148,-10.57518,-67.87648,-0.89196549,0.41552628,-0.03088371
1764505724.6090865,10.65148,-10.57518,-67.87648,-0.89196549,0.41552628,-0.03088371
1764505724.6090865,10.65148,-10.57518,-67.87648,-0.89196549,0.41552628,-0.03088371
1764505724.6100984,10.65148,-10.57518,-67.87648,-0.89196549,0.41552628,-0.03088371
1764505724.6100984,10.65148,-10.57518,-67.87648,-0.89196549,0.41552628,-0.03088371
1764505724.6100984,10.65148,-10.57518,-67.87648,-0.89196549,0.41552628,-0.03088371
1764505724.6100984,10.65148,-10.57518,-67.87648,-0.89196549,0.41552628,-0.03088371
1764505724.6111002,25.20952,-7.034859999999999,-65.618,-0.88281024,0.43310436,-0.023742615
1764505724.6111002,25.20952,-7.034859999999999,-65.618,-0.88281024,0.43310436,-0.023742615
1764505724.6111002,25.20952,-7.034859999999999,-65.618,-0.88281024,0.43310436,-0.023742615
1764505724.6111002,25.20952,-7.034859999999999,-65.618,-0.88281024,0.43310436,-0.023742615
1764505724.6111002,25.20952,-7.034859999999999,-65.618,-0.88281024,0.43310436,-0.023742615
1764505724.6111002,25.20952,-7.034859999999999,-65.618,-0.88281024,0.43310436,-0.023742615
1764505724.6111002,25.20952,-7.034859999999999,-65.618,-0.88281024,0.43310436,-0.023742615
1764505724.612096,25.20952,-7.034859999999999,-65.618,-0.88281024,0.43310436,-0.023742615
1764505724.612096,25.20952,-7.034859999999999,-65.618,-0.88281024,0.43310436,-0.023742615
1764505724.612096,25.20952,-7.034859999999999,-65.618,-0.88281024,0.43310436,-0.023742615
1764505724.612096,23.17994,-4.4254,-67.51024,-0.864682845,0.45678594,-0.02026362
1764505724.612096,23.17994,-4.4254,-67.51024,-0.864682845,0.45678594,-0.02026362
1764505724.612096,23.17994,-4.4254,-67.51024,-0.864682845,0.45678594,-0.02026362
1764505724.612096,23.17994,-4.4254,-67.51024,-0.864682845,0.45678594,-0.02026362
1764505724.6574416,23.17994,-4.4254,-67.51024,-0.864682845,0.45678594,-0.02026362
1764505724.6584668,23.17994,-4.4254,-67.51024,-0.864682845,0.45678594,-0.02026362
1764505724.6584668,23.17994,-4.4254,-67.51024,-0.864682845,0.45678594,-0.02026362
1764505724.6584668,23.17994,-4.4254,-67.51024,-0.864682845,0.45678594,-0.02026362
1764505724.6584668,23.17994,-4.4254,-67.51024,-0.864682845,0.45678594,-0.02026362
1764505724.6584668,23.17994,-4.4254,-67.51024,-0.864682845,0.45678594,-0.02026362
1764505724.6584668,8.97288,-0.6714399999999999,-67.25081999999999,-0.84826443,0.4736316,-0.022033635
1764505724.6584668,8.97288,-0.6714399999999999,-67.25081999999999,-0.84826443,0.4736316,-0.022033635
1764505724.6584668,8.97288,-0.6714399999999999,-67.25081999999999,-0.84826443,0.4736316,-0.022033635
1764505724.6584668,8.97288,-0.6714399999999999,-67.25081999999999,-0.84826443,0.4736316,-0.022033635
1764505724.6584668,8.97288,-0.6714399999999999,-67.25081999999999,-0.84826443,0.4736316,-0.022033635
1764505724.6584668,8.97288,-0.6714399999999999,-67.25081999999999,-0.84826443,0.4736316,-0.022033635
1764505724.6584668,8.97288,-0.6714399999999999,-67.25081999999999,-0.84826443,0.4736316,-0.022033635
1764505724.6584668,8.97288,-0.6714399999999999,-67.25081999999999,-0.84826443,0.4736316,-0.022033635
1764505724.6584668,8.97288,-0.6714399999999999,-67.25081999999999,-0.84826443,0.4736316,-0.022033635
1764505724.6584668,8.97288,-0.6714399999999999,-67.25081999999999,-0.84826443,0.4736316,-0.022033635
1764505724.6584668,-3.90656,-2.57894,-62.21502,-0.8471658,0.48547239,-0.027770925
1764505724.6584668,-3.90656,-2.57894,-62.21502,-0.8471658,0.48547239,-0.027770925
1764505724.6584668,-3.90656,-2.57894,-62.21502,-0.8471658,0.48547239,-0.027770925
1764505724.6584668,-3.90656,-2.57894,-62.21502,-0.8471658,0.48547239,-0.027770925
1764505724.6584668,-3.90656,-2.57894,-62.21502,-0.8471658,0.48547239,-0.027770925
1764505724.6584668,-3.90656,-2.57894,-62.21502,-0.8471658,0.48547239,-0.027770925
1764505724.6584668,-3.90656,-2.57894,-62.21502,-0.8471658,0.48547239,-0.027770925
1764505724.6584668,-3.90656,-2.57894,-62.21502,-0.8471658,0.48547239,-0.027770925
1764505724.702884,-3.90656,-2.57894,-62.21502,-0.8471658,0.48547239,-0.027770925
1764505724.7033956,-3.90656,-2.57894,-62.21502,-0.8471658,0.48547239,-0.027770925
1764505724.7033956,-13.38302,-15.12266,-62.06242,-0.852109635,0.486509985,-0.03283683
1764505724.7033956,-13.38302,-15.12266,-62.06242,-0.852109635,0.486509985,-0.03283683
1764505724.7033956,-13.38302,-15.12266,-62.06242,-0.852109635,0.486509985,-0.03283683
1764505724.7033956,-13.38302,-15.12266,-62.06242,-0.852109635,0.486509985,-0.03283683
1764505724.7033956,-13.38302,-15.12266,-62.06242,-0.852109635,0.486509985,-0.03283683
1764505724.7033956,-13.38302,-15.12266,-62.06242,-0.852109635,0.486509985,-0.03283683
1764505724.7033956,-13.38302,-15.12266,-62.06242,-0.852109635,0.486509985,-0.03283683
1764505724.7033956,-13.38302,-15.12266,-62.06242,-0.852109635,0.486509985,-0.03283683
1764505724.7033956,-13.38302,-15.12266,-62.06242,-0.852109635,0.486509985,-0.03283683
1764505724.7033956,-13.38302,-15.12266,-62.06242,-0.852109635,0.486509985,-0.03283683
1764505724.7033956,-18.67824,-27.3154,-61.1163,-0.86413353,0.470396745,-0.03332511
1764505724.7033956,-18.67824,-27.3154,-61.1163,-0.86413353,0.470396745,-0.03332511
1764505724.7033956,-18.67824,-27.3154,-61.1163,-0.86413353,0.470396745,-0.03332511
1764505724.7033956,-18.67824,-27.3154,-61.1163,-0.86413353,0.470396745,-0.03332511
1764505724.7033956,-18.67824,-27.3154,-61.1163,-0.86413353,0.470396745,-0.03332511
1764505724.7033956,-18.67824,-27.3154,-61.1163,-0.86413353,0.470396745,-0.03332511
1764505724.704409,-18.67824,-27.3154,-61.1163,-0.86413353,0.470396745,-0.03332511
1764505724.704409,-18.67824,-27.3154,-61.1163,-0.86413353,0.470396745,-0.03332511
1764505724.704409,-18.67824,-27.3154,-61.1163,-0.86413353,0.470396745,-0.03332511
1764505724.704409,-18.67824,-27.3154,-61.1163,-0.86413353,0.470396745,-0.03332511
1764505724.7515426,-19.36494,-34.80806,-54.99704,-0.892392735,0.449034495,-0.037414455
1764505724.752052,-19.36494,-34.80806,-54.99704,-0.892392735,0.449034495,-0.037414455
1764505724.752052,-19.36494,-34.80806,-54.99704,-0.892392735,0.449034495,-0.037414455
1764505724.752052,-19.36494,-34.80806,-54.99704,-0.892392735,0.449034495,-0.037414455
1764505724.752052,-19.36494,-34.80806,-54.99704,-0.892392735,0.449034495,-0.037414455
1764505724.752052,-19.36494,-34.80806,-54.99704,-0.892392735,0.449034495,-0.037414455
1764505724.752052,-19.36494,-34.80806,-54.99704,-0.892392735,0.449034495,-0.037414455
1764505724.752052,-19.36494,-34.80806,-54.99704,-0.892392735,0.449034495,-0.037414455
1764505724.752052,-19.36494,-34.80806,-54.99704,-0.892392735,0.449034495,-0.037414455
1764505724.752052,-19.36494,-34.80806,-54.99704,-0.892392735,0.449034495,-0.037414455
1764505724.752052,-16.358719999999998,-40.85102,-53.01324,-0.910825305,0.42956433,-0.034362705
1764505724.752052,-16.358719999999998,-40.85102,-53.01324,-0.910825305,0.42956433,-0.034362705
1764505724.752052,-16.358719999999998,-40.85102,-53.01324,-0.910825305,0.42956433,-0.034362705
1764505724.752052,-16.358719999999998,-40.85102,-53.01324,-0.910825305,0.42956433,-0.034362705
1764505724.752052,-16.358719999999998,-40.85102,-53.01324,-0.910825305,0.42956433,-0.034362705
1764505724.752052,-16.358719999999998,-40.85102,-53.01324,-0.910825305,0.42956433,-0.034362705
1764505724.752052,-16.358719999999998,-40.85102,-53.01324,-0.910825305,0.42956433,-0.034362705
1764505724.752052,-16.358719999999998,-40.85102,-53.01324,-0.910825305,0.42956433,-0.034362705
1764505724.752052,-16.358719999999998,-40.85102,-53.01324,-0.910825305,0.42956433,-0.034362705
1764505724.752052,-16.358719999999998,-40.85102,-53.01324,-0.910825305,0.42956433,-0.034362705
1764505724.752052,-10.57518,-38.21104,-44.4066,-0.918637785,0.41235246,-0.02136225
1764505724.752052,-10.57518,-38.21104,-44.4066,-0.918637785,0.41235246,-0.02136225
1764505724.752052,-10.57518,-38.21104,-44.4066,-0.918637785,0.41235246,-0.02136225
1764505724.752052,-10.57518,-38.21104,-44.4066,-0.918637785,0.41235246,-0.02136225
1764505724.752052,-10.57518,-38.21104,-44.4066,-0.918637785,0.41235246,-0.02136225
1764505724.752052,-10.57518,-38.21104,-44.4066,-0.918637785,0.41235246,-0.02136225
1764505724.7997963,-10.57518,-38.21104,-44.4066,-0.918637785,0.41235246,-0.02136225
1764505724.8012002,-10.57518,-38.21104,-44.4066,-0.918637785,0.41235246,-0.02136225
1764505724.8012002,-10.57518,-38.21104,-44.4066,-0.918637785,0.41235246,-0.02136225
1764505724.8012002,-10.57518,-38.21104,-44.4066,-0.918637785,0.41235246,-0.02136225
1764505724.8012002,-5.340999999999999,-30.85572,-32.39698,-0.91467051,0.3942861,0.00109863
1764505724.8012002,-5.340999999999999,-30.85572,-32.39698,-0.91467051,0.3942861,0.00109863
1764505724.8012002,-5.340999999999999,-30.85572,-32.39698,-0.91467051,0.3942861,0.00109863
1764505724.8012002,-5.340999999999999,-30.85572,-32.39698,-0.91467051,0.3942861,0.00109863
1764505724.8012002,-5.340999999999999,-30.85572,-32.39698,-0.91467051,0.3942861,0.00109863
1764505724.8012002,-5.340999999999999,-30.85572,-32.39698,-0.91467051,0.3942861,0.00109863
1764505724.8012002,-5.340999999999999,-30.85572,-32.39698,-0.91467051,0.3942861,0.00109863
1764505724.8012002,-5.340999999999999,-30.85572,-32.39698,-0.91467051,0.3942861,0.00109863
1764505724.8012002,-5.340999999999999,-30.85572,-32.39698,-0.91467051,0.3942861,0.00109863
1764505724.8012002,-5.340999999999999,-30.85572,-32.39698,-0.91467051,0.3942861,0.00109863
1764505724.8012002,-3.60136,-20.43314,-16.084039999999998,-0.90490491,0.373839375,0.028991625
1764505724.8012002,-3.60136,-20.43314,-16.084039999999998,-0.90490491,0.373839375,0.028991625
1764505724.8012002,-3.60136,-20.43314,-16.084039999999998,-0.90490491,0.373839375,0.028991625
1764505724.8012002,-3.60136,-20.43314,-16.084039999999998,-0.90490491,0.373839375,0.028991625
1764505724.8012002,-3.60136,-20.43314,-16.084039999999998,-0.90490491,0.373839375,0.028991625
1764505724.8012002,-3.60136,-20.43314,-16.084039999999998,-0.90490491,0.373839375,0.028991625
1764505724.8012002,-3.60136,-20.43314,-16.084039999999998,-0.90490491,0.373839375,0.028991625
1764505724.8012002,-3.60136,-20.43314,-16.084039999999998,-0.90490491,0.373839375,0.028991625
1764505724.8446748,-3.60136,-20.43314,-16.084039999999998,-0.90490491,0.373839375,0.028991625
1764505724.8446748,-3.60136,-20.43314,-16.084039999999998,-0.90490491,0.373839375,0.028991625
1764505724.8446748,2.57894,-6.31764,4.97476,-0.90502698,0.3515616,0.047790405
1764505724.8446748,2.57894,-6.31764,4.97476,-0.90502698,0.3515616,0.047790405
1764505724.8456893,2.57894,-6.31764,4.97476,-0.90502698,0.3515616,0.047790405
1764505724.8456893,2.57894,-6.31764,4.97476,-0.90502698,0.3515616,0.047790405
1764505724.8456893,2.57894,-6.31764,4.97476,-0.90502698,0.3515616,0.047790405
1764505724.8456893,2.57894,-6.31764,4.97476,-0.90502698,0.3515616,0.047790405
1764505724.8456893,2.57894,-6.31764,4.97476,-0.90502698,0.3515616,0.047790405
1764505724.8456893,2.57894,-6.31764,4.97476,-0.90502698,0.3515616,0.047790405
1764505724.8456893,2.57894,-6.31764,4.97476,-0.90502698,0.3515616,0.047790405
1764505724.8456893,2.57894,-6.31764,4.97476,-0.90502698,0.3515616,0.047790405
1764505724.8472052,15.85514,1.54126,19.05974,-0.91113048,0.332091435,0.056213235
1764505724.8472052,15.85514,1.54126,19.05974,-0.91113048,0.332091435,0.056213235
1764505724.8482163,15.85514,1.54126,19.05974,-0.91113048,0.332091435,0.056213235
1764505724.8482163,15.85514,1.54126,19.05974,-0.91113048,0.332091435,0.056213235
1764505724.8482163,15.85514,1.54126,19.05974,-0.91113048,0.332091435,0.056213235
1764505724.8492253,15.85514,1.54126,19.05974,-0.91113048,0.332091435,0.056213235
1764505724.8492253,15.85514,1.54126,19.05974,-0.91113048,0.332091435,0.056213235
1764505724.8492253,15.85514,1.54126,19.05974,-0.91113048,0.332091435,0.056213235
1764505724.8502166,15.85514,1.54126,19.05974,-0.91113048,0.332091435,0.056213235
1764505724.8502166,15.85514,1.54126,19.05974,-0.91113048,0.332091435,0.056213235
1764505724.8502166,25.60628,6.1803,27.468,-0.91686777,0.317382,0.056701515
1764505724.8502166,25.60628,6.1803,27.468,-0.91686777,0.317382,0.056701515
1764505724.8905115,25.60628,6.1803,27.468,-0.91686777,0.317382,0.056701515
1764505724.8905115,25.60628,6.1803,27.468,-0.91686777,0.317382,0.056701515
1764505724.8905115,25.60628,6.1803,27.468,-0.91686777,0.317382,0.056701515
1764505724.8905115,25.60628,6.1803,27.468,-0.91686777,0.317382,0.056701515
1764505724.8905115,25.60628,6.1803,27.468,-0.91686777,0.317382,0.056701515
1764505724.8905115,25.60628,6.1803,27.468,-0.91686777,0.317382,0.056701515
1764505724.8905115,25.60628,6.1803,27.468,-0.91686777,0.317382,0.056701515
1764505724.8905115,25.60628,6.1803,27.468,-0.91686777,0.317382,0.056701515
1764505724.8905115,28.56672,8.22514,31.87814,-0.922055745,0.312316095,0.053161485
1764505724.8905115,28.56672,8.22514,31.87814,-0.922055745,0.312316095,0.053161485
1764505724.8910446,28.56672,8.22514,31.87814,-0.922055745,0.312316095,0.053161485
1764505724.8920562,28.56672,8.22514,31.87814,-0.922055745,0.312316095,0.053161485
1764505724.8920562,28.56672,8.22514,31.87814,-0.922055745,0.312316095,0.053161485
1764505724.8920562,28.56672,8.22514,31.87814,-0.922055745,0.312316095,0.053161485
1764505724.8920562,28.56672,8.22514,31.87814,-0.922055745,0.312316095,0.053161485
1764505724.8920562,28.56672,8.22514,31.87814,-0.922055745,0.312316095,0.053161485
1764505724.8920562,28.56672,8.22514,31.87814,-0.922055745,0.312316095,0.053161485
1764505724.8920562,28.56672,8.22514,31.87814,-0.922055745,0.312316095,0.053161485
1764505724.8920562,27.28488,5.753019999999999,32.64114,-0.925473705,0.316100265,0.04943835
1764505724.8920562,27.28488,5.753019999999999,32.64114,-0.925473705,0.316100265,0.04943835
1764505724.8920562,27.28488,5.753019999999999,32.64114,-0.925473705,0.316100265,0.04943835
1764505724.8920562,27.28488,5.753019999999999,32.64114,-0.925473705,0.316100265,0.04943835
1764505724.8920562,27.28488,5.753019999999999,32.64114,-0.925473705,0.316100265,0.04943835
1764505724.8920562,27.28488,5.753019999999999,32.64114,-0.925473705,0.316100265,0.04943835
1764505724.9368072,27.28488,5.753019999999999,32.64114,-0.925473705,0.316100265,0.04943835
1764505724.9368072,27.28488,5.753019999999999,32.64114,-0.925473705,0.316100265,0.04943835
1764505724.93732,27.28488,5.753019999999999,32.64114,-0.925473705,0.316100265,0.04943835
1764505724.93732,27.28488,5.753019999999999,32.64114,-0.925473705,0.316100265,0.04943835
1764505724.93732,25.01114,10.81934,34.624939999999995,-0.92126229,0.326232075,0.044372445
1764505724.93732,25.01114,10.81934,34.624939999999995,-0.92126229,0.326232075,0.044372445
1764505724.93732,25.01114,10.81934,34.624939999999995,-0.92126229,0.326232075,0.044372445
1764505724.93732,25.01114,10.81934,34.624939999999995,-0.92126229,0.326232075,0.044372445
1764505724.93732,25.01114,10.81934,34.624939999999995,-0.92126229,0.326232075,0.044372445
1764505724.93732,25.01114,10.81934,34.624939999999995,-0.92126229,0.326232075,0.044372445
1764505724.93732,25.01114,10.81934,34.624939999999995,-0.92126229,0.326232075,0.044372445
1764505724.93732,25.01114,10.81934,34.624939999999995,-0.92126229,0.326232075,0.044372445
1764505724.93732,25.01114,10.81934,34.624939999999995,-0.92126229,0.326232075,0.044372445
1764505724.93732,25.01114,10.81934,34.624939999999995,-0.92126229,0.326232075,0.044372445
1764505724.93732,21.48608,17.71686,36.15094,-0.911191515,0.344298435,0.03857412
1764505724.93732,21.48608,17.71686,36.15094,-0.911191515,0.344298435,0.03857412
1764505724.93732,21.48608,17.71686,36.15094,-0.911191515,0.344298435,0.03857412
1764505724.93732,21.48608,17.71686,36.15094,-0.911191515,0.344298435,0.03857412
1764505724.93732,21.48608,17.71686,36.15094,-0.911191515,0.344298435,0.03857412
1764505724.93732,21.48608,17.71686,36.15094,-0.911191515,0.344298435,0.03857412
1764505724.93732,21.48608,17.71686,36.15094,-0.911191515,0.344298435,0.03857412
1764505724.93732,21.48608,17.71686,36.15094,-0.911191515,0.344298435,0.03857412
1764505724.987703,21.48608,17.71686,36.15094,-0.911191515,0.344298435,0.03857412
1764505724.987703,21.48608,17.71686,36.15094,-0.911191515,0.344298435,0.03857412
1764505724.987703,15.06162,18.6172,35.861,-0.90173109,0.366759315,0.03466788
1764505724.987703,15.06162,18.6172,35.861,-0.90173109,0.366759315,0.03466788
1764505724.987703,15.06162,18.6172,35.861,-0.90173109,0.366759315,0.03466788
1764505724.987703,15.06162,18.6172,35.861,-0.90173109,0.366759315,0.03466788
1764505724.987703,15.06162,18.6172,35.861,-0.90173109,0.366759315,0.03466788
1764505724.987703,15.06162,18.6172,35.861,-0.90173109,0.366759315,0.03466788
1764505724.987703,15.06162,18.6172,35.861,-0.90173109,0.366759315,0.03466788
1764505724.987703,15.06162,18.6172,35.861,-0.90173109,0.366759315,0.03466788
1764505724.987703,15.06162,18.6172,35.861,-0.90173109,0.366759315,0.03466788
1764505724.987703,15.06162,18.6172,35.861,-0.90173109,0.366759315,0.03466788
1764505724.987703,6.59232,11.46026,34.35026,-0.8907447900000001,0.384947745,0.038268945
1764505724.987703,6.59232,11.46026,34.35026,-0.8907447900000001,0.384947745,0.038268945
1764505724.987703,6.59232,11.46026,34.35026,-0.8907447900000001,0.384947745,0.038268945
1764505724.987703,6.59232,11.46026,34.35026,-0.8907447900000001,0.384947745,0.038268945
1764505724.987703,6.59232,11.46026,34.35026,-0.8907447900000001,0.384947745,0.038268945
1764505724.987703,6.59232,11.46026,34.35026,-0.8907447900000001,0.384947745,0.038268945
1764505724.987703,6.59232,11.46026,34.35026,-0.8907447900000001,0.384947745,0.038268945
1764505724.987703,6.59232,11.46026,34.35026,-0.8907447900000001,0.384947745,0.038268945
1764505724.987703,6.59232,11.46026,34.35026,-0.8907447900000001,0.384947745,0.038268945
1764505724.987703,6.59232,11.46026,34.35026,-0.8907447900000001,0.384947745,0.038268945
1764505724.987703,0.96138,8.97288,36.76134,-0.8870826900000001,0.392149875,0.040954485
1764505724.987703,0.96138,8.97288,36.76134,-0.8870826900000001,0.392149875,0.040954485
1764505725.0397098,0.96138,8.97288,36.76134,-0.8870826900000001,0.392149875,0.040954485
1764505725.0397098,0.96138,8.97288,36.76134,-0.8870826900000001,0.392149875,0.040954485
1764505725.0397098,0.96138,8.97288,36.76134,-0.8870826900000001,0.392149875,0.040954485
1764505725.0397098,0.96138,8.97288,36.76134,-0.8870826900000001,0.392149875,0.040954485
1764505725.0397098,0.96138,8.97288,36.76134,-0.8870826900000001,0.392149875,0.040954485
1764505725.0397098,0.96138,8.97288,36.76134,-0.8870826900000001,0.392149875,0.040954485
1764505725.0397098,0.96138,8.97288,36.76134,-0.8870826900000001,0.392149875,0.040954485
1764505725.0397098,0.96138,8.97288,36.76134,-0.8870826900000001,0.392149875,0.040954485
1764505725.0397098,-1.81594,11.85702,38.2263,-0.8825661,0.402159615,0.03222648
1764505725.0397098,-1.81594,11.85702,38.2263,-0.8825661,0.402159615,0.03222648
1764505725.0397098,-1.81594,11.85702,38.2263,-0.8825661,0.402159615,0.03222648
1764505725.0397098,-1.81594,11.85702,38.2263,-0.8825661,0.402159615,0.03222648
1764505725.0397098,-1.81594,11.85702,38.2263,-0.8825661,0.402159615,0.03222648
1764505725.0397098,-1.81594,11.85702,38.2263,-0.8825661,0.402159615,0.03222648
1764505725.0397098,-1.81594,11.85702,38.2263,-0.8825661,0.402159615,0.03222648
1764505725.0397098,-1.81594,11.85702,38.2263,-0.8825661,0.402159615,0.03222648
1764505725.0397098,-1.81594,11.85702,38.2263,-0.8825661,0.402159615,0.03222648
1764505725.0397098,-1.81594,11.85702,38.2263,-0.8825661,0.402159615,0.03222648
1764505725.0397098,-6.027699999999999,11.61286,35.51002,-0.869565645,0.414976965,0.016418415
1764505725.0397098,-6.027699999999999,11.61286,35.51002,-0.869565645,0.414976965,0.016418415
1764505725.0397098,-6.027699999999999,11.61286,35.51002,-0.869565645,0.414976965,0.016418415
1764505725.0397098,-6.027699999999999,11.61286,35.51002,-0.869565645,0.414976965,0.016418415
1764505725.0397098,-6.027699999999999,11.61286,35.51002,-0.869565645,0.414976965,0.016418415
1764505725.040725,-6.027699999999999,11.61286,35.51002,-0.869565645,0.414976965,0.016418415
1764505725.040725,-6.027699999999999,11.61286,35.51002,-0.869565645,0.414976965,0.016418415
1764505725.040725,-6.027699999999999,11.61286,35.51002,-0.869565645,0.414976965,0.016418415
1764505725.0839536,-6.027699999999999,11.61286,35.51002,-0.869565645,0.414976965,0.016418415
1764505725.084483,-6.027699999999999,11.61286,35.51002,-0.869565645,0.414976965,0.016418415
1764505725.084483,-10.39206,12.42164,37.3107,-0.86572044,0.42736707,-0.005065905
1764505725.084483,-10.39206,12.42164,37.3107,-0.86572044,0.42736707,-0.005065905
1764505725.084483,-10.39206,12.42164,37.3107,-0.86572044,0.42736707,-0.005065905
1764505725.084483,-10.39206,12.42164,37.3107,-0.86572044,0.42736707,-0.005065905
1764505725.084483,-10.39206,12.42164,37.3107,-0.86572044,0.42736707,-0.005065905
1764505725.084483,-10.39206,12.42164,37.3107,-0.86572044,0.42736707,-0.005065905
1764505725.084483,-10.39206,12.42164,37.3107,-0.86572044,0.42736707,-0.005065905
1764505725.084483,-10.39206,12.42164,37.3107,-0.86572044,0.42736707,-0.005065905
1764505725.084483,-10.39206,12.42164,37.3107,-0.86572044,0.42736707,-0.005065905
1764505725.084483,-10.39206,12.42164,37.3107,-0.86572044,0.42736707,-0.005065905
1764505725.084483,-14.08498,9.12548,40.45426,-0.86120385,0.44543343,-0.02673333
1764505725.084483,-14.08498,9.12548,40.45426,-0.86120385,0.44543343,-0.02673333
1764505725.084483,-14.08498,9.12548,40.45426,-0.86120385,0.44543343,-0.02673333
1764505725.084483,-14.08498,9.12548,40.45426,-0.86120385,0.44543343,-0.02673333
1764505725.084483,-14.08498,9.12548,40.45426,-0.86120385,0.44543343,-0.02673333
1764505725.084483,-14.08498,9.12548,40.45426,-0.86120385,0.44543343,-0.02673333
1764505725.084483,-14.08498,9.12548,40.45426,-0.86120385,0.44543343,-0.02673333
1764505725.084483,-14.08498,9.12548,40.45426,-0.86120385,0.44543343,-0.02673333
1764505725.084483,-14.08498,9.12548,40.45426,-0.86120385,0.44543343,-0.02673333
1764505725.084483,-14.08498,9.12548,40.45426,-0.86120385,0.44543343,-0.02673333
1764505725.084483,-14.0392,11.18558,49.50344,-0.85864038,0.46581912,-0.039855855
1764505725.085502,-14.0392,11.18558,49.50344,-0.85864038,0.46581912,-0.039855855
1764505725.129159,-14.0392,11.18558,49.50344,-0.85864038,0.46581912,-0.039855855
1764505725.129159,-14.0392,11.18558,49.50344,-0.85864038,0.46581912,-0.039855855
1764505725.129159,-14.0392,11.18558,49.50344,-0.85864038,0.46581912,-0.039855855
1764505725.129672,-14.0392,11.18558,49.50344,-0.85864038,0.46581912,-0.039855855
1764505725.129672,-14.0392,11.18558,49.50344,-0.85864038,0.46581912,-0.039855855
1764505725.129672,-14.0392,11.18558,49.50344,-0.85864038,0.46581912,-0.039855855
1764505725.129672,-14.0392,11.18558,49.50344,-0.85864038,0.46581912,-0.039855855
1764505725.129672,-14.0392,11.18558,49.50344,-0.85864038,0.46581912,-0.039855855
1764505725.129672,-7.9352,8.9271,51.31938,-0.85912866,0.47741577,-0.0354003
1764505725.129672,-7.9352,8.9271,51.31938,-0.85912866,0.47741577,-0.0354003
1764505725.129672,-7.9352,8.9271,51.31938,-0.85912866,0.47741577,-0.0354003
1764505725.129672,-7.9352,8.9271,51.31938,-0.85912866,0.47741577,-0.0354003
1764505725.129672,-7.9352,8.9271,51.31938,-0.85912866,0.47741577,-0.0354003
1764505725.129672,-7.9352,8.9271,51.31938,-0.85912866,0.47741577,-0.0354003
1764505725.129672,-7.9352,8.9271,51.31938,-0.85912866,0.47741577,-0.0354003
1764505725.129672,-7.9352,8.9271,51.31938,-0.85912866,0.47741577,-0.0354003
1764505725.129672,-7.9352,8.9271,51.31938,-0.85912866,0.47741577,-0.0354003
1764505725.129672,-7.9352,8.9271,51.31938,-0.85912866,0.47741577,-0.0354003
1764505725.129672,-0.03052,14.86324,46.89398,-0.859922115,0.47888061,-0.017272905
1764505725.129672,-0.03052,14.86324,46.89398,-0.859922115,0.47888061,-0.017272905
1764505725.129672,-0.03052,14.86324,46.89398,-0.859922115,0.47888061,-0.017272905
1764505725.129672,-0.03052,14.86324,46.89398,-0.859922115,0.47888061,-0.017272905
1764505725.1785994,-0.03052,14.86324,46.89398,-0.859922115,0.47888061,-0.017272905
1764505725.1785994,-0.03052,14.86324,46.89398,-0.859922115,0.47888061,-0.017272905
1764505725.1785994,-0.03052,14.86324,46.89398,-0.859922115,0.47888061,-0.017272905
1764505725.1785994,-0.03052,14.86324,46.89398,-0.859922115,0.47888061,-0.017272905
1764505725.1785994,-0.03052,14.86324,46.89398,-0.859922115,0.47888061,-0.017272905
1764505725.1785994,-0.03052,14.86324,46.89398,-0.859922115,0.47888061,-0.017272905
1764505725.1785994,6.69914,22.31012,45.35272,-0.86120385,0.47790405,0.001892085
1764505725.1785994,6.69914,22.31012,45.35272,-0.86120385,0.47790405,0.001892085
1764505725.1785994,6.69914,22.31012,45.35272,-0.86120385,0.47790405,0.001892085
1764505725.1785994,6.69914,22.31012,45.35272,-0.86120385,0.47790405,0.001892085
1764505725.1785994,6.69914,22.31012,45.35272,-0.86120385,0.47790405,0.001892085
1764505725.1785994,6.69914,22.31012,45.35272,-0.86120385,0.47790405,0.001892085
1764505725.1785994,6.69914,22.31012,45.35272,-0.86120385,0.47790405,0.001892085
1764505725.1785994,6.69914,22.31012,45.35272,-0.86120385,0.47790405,0.001892085
1764505725.1785994,6.69914,22.31012,45.35272,-0.86120385,0.47790405,0.001892085
1764505725.1785994,6.69914,22.31012,45.35272,-0.86120385,0.47790405,0.001892085
1764505725.1785994,11.04824,24.00398,51.21256,-0.8679177,0.488707245,0.006408675
1764505725.1785994,11.04824,24.00398,51.21256,-0.8679177,0.488707245,0.006408675
1764505725.1785994,11.04824,24.00398,51.21256,-0.8679177,0.488707245,0.006408675
1764505725.1785994,11.04824,24.00398,51.21256,-0.8679177,0.488707245,0.006408675
1764505725.1785994,11.04824,24.00398,51.21256,-0.8679177,0.488707245,0.006408675
1764505725.1795945,11.04824,24.00398,51.21256,-0.8679177,0.488707245,0.006408675
1764505725.1795945,11.04824,24.00398,51.21256,-0.8679177,0.488707245,0.006408675
1764505725.1795945,11.04824,24.00398,51.21256,-0.8679177,0.488707245,0.006408675
1764505725.22207,11.04824,24.00398,51.21256,-0.8679177,0.488707245,0.006408675
1764505725.22207,11.04824,24.00398,51.21256,-0.8679177,0.488707245,0.006408675
1764505725.22207,7.889419999999999,15.16844,56.26362,-0.87988056,0.5133653850000001,-0.003723135
1764505725.22207,7.889419999999999,15.16844,56.26362,-0.87988056,0.5133653850000001,-0.003723135
1764505725.22207,7.889419999999999,15.16844,56.26362,-0.87988056,0.5133653850000001,-0.003723135
1764505725.22207,7.889419999999999,15.16844,56.26362,-0.87988056,0.5133653850000001,-0.003723135
1764505725.22207,7.889419999999999,15.16844,56.26362,-0.87988056,0.5133653850000001,-0.003723135
1764505725.22207,7.889419999999999,15.16844,56.26362,-0.87988056,0.5133653850000001,-0.003723135
1764505725.22207,7.889419999999999,15.16844,56.26362,-0.87988056,0.5133653850000001,-0.003723135
1764505725.22207,7.889419999999999,15.16844,56.26362,-0.87988056,0.5133653850000001,-0.003723135
1764505725.22207,7.889419999999999,15.16844,56.26362,-0.87988056,0.5133653850000001,-0.003723135
1764505725.22207,7.889419999999999,15.16844,56.26362,-0.87988056,0.5133653850000001,-0.003723135
1764505725.2246175,0.09156,0.763,49.39662,-0.883115415,0.54553083,-0.017272905
1764505725.2246175,0.09156,0.763,49.39662,-0.883115415,0.54553083,-0.017272905
1764505725.2246175,0.09156,0.763,49.39662,-0.883115415,0.54553083,-0.017272905
1764505725.2246175,0.09156,0.763,49.39662,-0.883115415,0.54553083,-0.017272905
1764505725.2246175,0.09156,0.763,49.39662,-0.883115415,0.54553083,-0.017272905
1764505725.2246175,0.09156,0.763,49.39662,-0.883115415,0.54553083,-0.017272905
1764505725.2246175,0.09156,0.763,49.39662,-0.883115415,0.54553083,-0.017272905
1764505725.2246175,0.09156,0.763,49.39662,-0.883115415,0.54553083,-0.017272905
1764505725.2246175,0.09156,0.763,49.39662,-0.883115415,0.54553083,-0.017272905
1764505725.2246175,0.09156,0.763,49.39662,-0.883115415,0.54553083,-0.017272905
1764505725.2688303,-4.25754,-1.64808,33.60252,-0.870664275,0.5664048,-0.022033635
1764505725.2688303,-4.25754,-1.64808,33.60252,-0.870664275,0.5664048,-0.022033635
1764505725.2688303,-4.25754,-1.64808,33.60252,-0.870664275,0.5664048,-0.022033635
1764505725.2693398,-4.25754,-1.64808,33.60252,-0.870664275,0.5664048,-0.022033635
1764505725.2693398,-4.25754,-1.64808,33.60252,-0.870664275,0.5664048,-0.022033635
1764505725.2693398,-4.25754,-1.64808,33.60252,-0.870664275,0.5664048,-0.022033635
1764505725.2693398,-4.25754,-1.64808,33.60252,-0.870664275,0.5664048,-0.022033635
1764505725.2693398,-4.25754,-1.64808,33.60252,-0.870664275,0.5664048,-0.022033635
1764505725.2693398,-4.25754,-1.64808,33.60252,-0.870664275,0.5664048,-0.022033635
1764505725.2693398,-4.25754,-1.64808,33.60252,-0.870664275,0.5664048,-0.022033635
1764505725.2693398,-9.88848,5.7225,22.7374,-0.853452405,0.574522455,-0.023254335
1764505725.2693398,-9.88848,5.7225,22.7374,-0.853452405,0.574522455,-0.023254335
1764505725.2693398,-9.88848,5.7225,22.7374,-0.853452405,0.574522455,-0.023254335
1764505725.2698677,-9.88848,5.7225,22.7374,-0.853452405,0.574522455,-0.023254335
1764505725.2698677,-9.88848,5.7225,22.7374,-0.853452405,0.574522455,-0.023254335
1764505725.2698677,-9.88848,5.7225,22.7374,-0.853452405,0.574522455,-0.023254335
1764505725.2698677,-9.88848,5.7225,22.7374,-0.853452405,0.574522455,-0.023254335
1764505725.2698677,-9.88848,5.7225,22.7374,-0.853452405,0.574522455,-0.023254335
1764505725.271906,-9.88848,5.7225,22.7374,-0.853452405,0.574522455,-0.023254335
1764505725.271906,-9.88848,5.7225,22.7374,-0.853452405,0.574522455,-0.023254335
1764505725.271906,-21.50134,13.1236,20.17372,-0.8441140500000001,0.57421728,-0.026672295
1764505725.271906,-21.50134,13.1236,20.17372,-0.8441140500000001,0.57421728,-0.026672295
1764505725.271906,-21.50134,13.1236,20.17372,-0.8441140500000001,0.57421728,-0.026672295
1764505725.271906,-21.50134,13.1236,20.17372,-0.8441140500000001,0.57421728,-0.026672295
1764505725.3186798,-21.50134,13.1236,20.17372,-0.8441140500000001,0.57421728,-0.026672295
1764505725.3186798,-21.50134,13.1236,20.17372,-0.8441140500000001,0.57421728,-0.026672295
1764505725.3186798,-21.50134,13.1236,20.17372,-0.8441140500000001,0.57421728,-0.026672295
1764505725.3186798,-21.50134,13.1236,20.17372,-0.8441140500000001,0.57421728,-0.026672295
1764505725.3186798,-21.50134,13.1236,20.17372,-0.8441140500000001,0.57421728,-0.026672295
1764505725.3186798,-21.50134,13.1236,20.17372,-0.8441140500000001,0.57421728,-0.026672295
1764505725.3186798,-34.273959999999995,15.99248,20.64678,-0.84130644,0.57092139,-0.035217195
1764505725.3186798,-34.273959999999995,15.99248,20.64678,-0.84130644,0.57092139,-0.035217195
1764505725.3186798,-34.273959999999995,15.99248,20.64678,-0.84130644,0.57092139,-0.035217195
1764505725.3186798,-34.273959999999995,15.99248,20.64678,-0.84130644,0.57092139,-0.035217195
1764505725.3186798,-34.273959999999995,15.99248,20.64678,-0.84130644,0.57092139,-0.035217195
1764505725.3186798,-34.273959999999995,15.99248,20.64678,-0.84130644,0.57092139,-0.035217195
1764505725.3186798,-34.273959999999995,15.99248,20.64678,-0.84130644,0.57092139,-0.035217195
1764505725.3192978,-34.273959999999995,15.99248,20.64678,-0.84130644,0.57092139,-0.035217195
1764505725.3192978,-34.273959999999995,15.99248,20.64678,-0.84130644,0.57092139,-0.035217195
1764505725.3192978,-34.273959999999995,15.99248,20.64678,-0.84130644,0.57092139,-0.035217195
1764505725.3192978,-40.92732,18.58668,23.22572,-0.83874297,0.570250005,-0.03149406
1764505725.3192978,-40.92732,18.58668,23.22572,-0.83874297,0.570250005,-0.03149406
1764505725.3192978,-40.92732,18.58668,23.22572,-0.83874297,0.570250005,-0.03149406
1764505725.3192978,-40.92732,18.58668,23.22572,-0.83874297,0.570250005,-0.03149406
1764505725.3192978,-40.92732,18.58668,23.22572,-0.83874297,0.570250005,-0.03149406
1764505725.3192978,-40.92732,18.58668,23.22572,-0.83874297,0.570250005,-0.03149406
1764505725.3192978,-40.92732,18.58668,23.22572,-0.83874297,0.570250005,-0.03149406
1764505725.3192978,-40.92732,18.58668,23.22572,-0.83874297,0.570250005,-0.03149406
1764505725.3631735,-40.92732,18.58668,23.22572,-0.83874297,0.570250005,-0.03149406
1764505725.3631735,-40.92732,18.58668,23.22572,-0.83874297,0.570250005,-0.03149406
1764505725.363738,-41.11044,19.41072,24.55334,-0.83300568,0.568052745,-0.05053698
1764505725.363738,-41.11044,19.41072,24.55334,-0.83300568,0.568052745,-0.05053698
1764505725.363738,-41.11044,19.41072,24.55334,-0.83300568,0.568052745,-0.05053698
1764505725.363738,-41.11044,19.41072,24.55334,-0.83300568,0.568052745,-0.05053698
1764505725.363738,-41.11044,19.41072,24.55334,-0.83300568,0.568052745,-0.05053698
1764505725.363738,-41.11044,19.41072,24.55334,-0.83300568,0.568052745,-0.05053698
1764505725.363738,-41.11044,19.41072,24.55334,-0.83300568,0.568052745,-0.05053698
1764505725.363738,-41.11044,19.41072,24.55334,-0.83300568,0.568052745,-0.05053698
1764505725.363738,-41.11044,19.41072,24.55334,-0.83300568,0.568052745,-0.05053698
1764505725.363738,-41.11044,19.41072,24.55334,-0.83300568,0.568052745,-0.05053698
1764505725.363738,-36.4714,16.54184,25.74362,-0.830381175,0.554136765,-0.04199208
1764505725.363738,-36.4714,16.54184,25.74362,-0.830381175,0.554136765,-0.04199208
1764505725.363738,-36.4714,16.54184,25.74362,-0.830381175,0.554136765,-0.04199208
1764505725.363738,-36.4714,16.54184,25.74362,-0.830381175,0.554136765,-0.04199208
1764505725.363738,-36.4714,16.54184,25.74362,-0.830381175,0.554136765,-0.04199208
1764505725.363738,-36.4714,16.54184,25.74362,-0.830381175,0.554136765,-0.04199208
1764505725.363738,-36.4714,16.54184,25.74362,-0.830381175,0.554136765,-0.04199208
1764505725.363738,-36.4714,16.54184,25.74362,-0.830381175,0.554136765,-0.04199208
1764505725.363738,-36.4714,16.54184,25.74362,-0.830381175,0.554136765,-0.04199208
1764505725.363738,-36.4714,16.54184,25.74362,-0.830381175,0.554136765,-0.04199208
1764505725.4077554,-30.33688,14.6496,30.61156,-0.838071585,0.5334459,-0.037780665
1764505725.4077554,-30.33688,14.6496,30.61156,-0.838071585,0.5334459,-0.037780665
1764505725.4077554,-30.33688,14.6496,30.61156,-0.838071585,0.5334459,-0.037780665
1764505725.408268,-30.33688,14.6496,30.61156,-0.838071585,0.5334459,-0.037780665
1764505725.408268,-30.33688,14.6496,30.61156,-0.838071585,0.5334459,-0.037780665
1764505725.408268,-30.33688,14.6496,30.61156,-0.838071585,0.5334459,-0.037780665
1764505725.408268,-30.33688,14.6496,30.61156,-0.838071585,0.5334459,-0.037780665
1764505725.408268,-30.33688,14.6496,30.61156,-0.838071585,0.5334459,-0.037780665
1764505725.408268,-30.33688,14.6496,30.61156,-0.838071585,0.5334459,-0.037780665
1764505725.408268,-30.33688,14.6496,30.61156,-0.838071585,0.5334459,-0.037780665
1764505725.408268,-27.63586,7.46214,36.02886,-0.844907505,0.523741335,-0.03979482
1764505725.408268,-27.63586,7.46214,36.02886,-0.844907505,0.523741335,-0.03979482
1764505725.408268,-27.63586,7.46214,36.02886,-0.844907505,0.523741335,-0.03979482
1764505725.408268,-27.63586,7.46214,36.02886,-0.844907505,0.523741335,-0.03979482
1764505725.408268,-27.63586,7.46214,36.02886,-0.844907505,0.523741335,-0.03979482
1764505725.408268,-27.63586,7.46214,36.02886,-0.844907505,0.523741335,-0.03979482
1764505725.408268,-27.63586,7.46214,36.02886,-0.844907505,0.523741335,-0.03979482
1764505725.408268,-27.63586,7.46214,36.02886,-0.844907505,0.523741335,-0.03979482
1764505725.408268,-27.63586,7.46214,36.02886,-0.844907505,0.523741335,-0.03979482
1764505725.408268,-27.63586,7.46214,36.02886,-0.844907505,0.523741335,-0.03979482
1764505725.408268,-19.36494,-3.5098,40.25588,-0.8441140500000001,0.51940785,-0.033996495
1764505725.408268,-19.36494,-3.5098,40.25588,-0.8441140500000001,0.51940785,-0.033996495
1764505725.4092767,-19.36494,-3.5098,40.25588,-0.8441140500000001,0.51940785,-0.033996495
1764505725.4092767,-19.36494,-3.5098,40.25588,-0.8441140500000001,0.51940785,-0.033996495
1764505725.4582117,-19.36494,-3.5098,40.25588,-0.8441140500000001,0.51940785,-0.033996495
1764505725.4582117,-19.36494,-3.5098,40.25588,-0.8441140500000001,0.51940785,-0.033996495
1764505725.4582117,-19.36494,-3.5098,40.25588,-0.8441140500000001,0.51940785,-0.033996495
1764505725.4582117,-19.36494,-3.5098,40.25588,-0.8441140500000001,0.51940785,-0.033996495
1764505725.4582117,-19.36494,-3.5098,40.25588,-0.8441140500000001,0.51940785,-0.033996495
1764505725.4582117,-19.36494,-3.5098,40.25588,-0.8441140500000001,0.51940785,-0.033996495
1764505725.4582117,-8.316699999999999,-7.309539999999999,37.20388,-0.8425271400000001,0.512510895,-0.02465814
1764505725.4582117,-8.316699999999999,-7.309539999999999,37.20388,-0.8425271400000001,0.512510895,-0.02465814
1764505725.4582117,-8.316699999999999,-7.309539999999999,37.20388,-0.8425271400000001,0.512510895,-0.02465814
1764505725.4582117,-8.316699999999999,-7.309539999999999,37.20388,-0.8425271400000001,0.512510895,-0.02465814
1764505725.4582117,-8.316699999999999,-7.309539999999999,37.20388,-0.8425271400000001,0.512510895,-0.02465814
1764505725.4582117,-8.316699999999999,-7.309539999999999,37.20388,-0.8425271400000001,0.512510895,-0.02465814
1764505725.4582117,-8.316699999999999,-7.309539999999999,37.20388,-0.8425271400000001,0.512510895,-0.02465814
1764505725.4582117,-8.316699999999999,-7.309539999999999,37.20388,-0.8425271400000001,0.512510895,-0.02465814
1764505725.4582117,-8.316699999999999,-7.309539999999999,37.20388,-0.8425271400000001,0.512510895,-0.02465814
1764505725.4582117,-8.316699999999999,-7.309539999999999,37.20388,-0.8425271400000001,0.512510895,-0.02465814
1764505725.4582117,-0.8698199999999999,-4.7306,26.91864,-0.845761995,0.51074088,-0.021423285
1764505725.4582117,-0.8698199999999999,-4.7306,26.91864,-0.845761995,0.51074088,-0.021423285
1764505725.4582117,-0.8698199999999999,-4.7306,26.91864,-0.845761995,0.51074088,-0.021423285
1764505725.4582117,-0.8698199999999999,-4.7306,26.91864,-0.845761995,0.51074088,-0.021423285
1764505725.4582117,-0.8698199999999999,-4.7306,26.91864,-0.845761995,0.51074088,-0.021423285
1764505725.4582117,-0.8698199999999999,-4.7306,26.91864,-0.845761995,0.51074088,-0.021423285
1764505725.502115,-0.8698199999999999,-4.7306,26.91864,-0.845761995,0.51074088,-0.021423285
1764505725.502115,-0.8698199999999999,-4.7306,26.91864,-0.845761995,0.51074088,-0.021423285
1764505725.502115,-0.8698199999999999,-4.7306,26.91864,-0.845761995,0.51074088,-0.021423285
1764505725.502115,-0.8698199999999999,-4.7306,26.91864,-0.845761995,0.51074088,-0.021423285
1764505725.502115,7.0196,-6.867,18.52564,-0.843320595,0.51843129,-0.01843257
1764505725.502115,7.0196,-6.867,18.52564,-0.843320595,0.51843129,-0.01843257
1764505725.502115,7.0196,-6.867,18.52564,-0.843320595,0.51843129,-0.01843257
1764505725.502115,7.0196,-6.867,18.52564,-0.843320595,0.51843129,-0.01843257
1764505725.502115,7.0196,-6.867,18.52564,-0.843320595,0.51843129,-0.01843257
1764505725.502115,7.0196,-6.867,18.52564,-0.843320595,0.51843129,-0.01843257
1764505725.502115,7.0196,-6.867,18.52564,-0.843320595,0.51843129,-0.01843257
1764505725.502115,7.0196,-6.867,18.52564,-0.843320595,0.51843129,-0.01843257
1764505725.502115,7.0196,-6.867,18.52564,-0.843320595,0.51843129,-0.01843257
1764505725.502115,7.0196,-6.867,18.52564,-0.843320595,0.51843129,-0.01843257
1764505725.502115,16.29768,-11.61286,12.80314,-0.83898711,0.525206175,-0.01269528
1764505725.502115,16.29768,-11.61286,12.80314,-0.83898711,0.525206175,-0.01269528
1764505725.502115,16.29768,-11.61286,12.80314,-0.83898711,0.525206175,-0.01269528
1764505725.502115,16.29768,-11.61286,12.80314,-0.83898711,0.525206175,-0.01269528
1764505725.502115,16.29768,-11.61286,12.80314,-0.83898711,0.525206175,-0.01269528
1764505725.502115,16.29768,-11.61286,12.80314,-0.83898711,0.525206175,-0.01269528
1764505725.502115,16.29768,-11.61286,12.80314,-0.83898711,0.525206175,-0.01269528
1764505725.502115,16.29768,-11.61286,12.80314,-0.83898711,0.525206175,-0.01269528
1764505725.502115,16.29768,-11.61286,12.80314,-0.83898711,0.525206175,-0.01269528
1764505725.503644,16.29768,-11.61286,12.80314,-0.83898711,0.525206175,-0.01269528
1764505725.5510375,22.67636,-12.54372,6.2566,-0.83215119,0.529722765,-0.00903318
1764505725.5510375,22.67636,-12.54372,6.2566,-0.83215119,0.529722765,-0.00903318
1764505725.5510375,22.67636,-12.54372,6.2566,-0.83215119,0.529722765,-0.00903318
1764505725.5510375,22.67636,-12.54372,6.2566,-0.83215119,0.529722765,-0.00903318
1764505725.5510375,22.67636,-12.54372,6.2566,-0.83215119,0.529722765,-0.00903318
1764505725.5510375,22.67636,-12.54372,6.2566,-0.83215119,0.529722765,-0.00903318
1764505725.5510375,22.67636,-12.54372,6.2566,-0.83215119,0.529722765,-0.00903318
1764505725.5510375,22.67636,-12.54372,6.2566,-0.83215119,0.529722765,-0.00903318
1764505725.5510375,22.67636,-12.54372,6.2566,-0.83215119,0.529722765,-0.00903318
1764505725.5510375,22.67636,-12.54372,6.2566,-0.83215119,0.529722765,-0.00903318
1764505725.5510375,27.26962,-13.94764,-2.60946,-0.82568148,0.5317369200000001,-0.00927732
1764505725.5510375,27.26962,-13.94764,-2.60946,-0.82568148,0.5317369200000001,-0.00927732
1764505725.5510375,27.26962,-13.94764,-2.60946,-0.82568148,0.5317369200000001,-0.00927732
1764505725.5510375,27.26962,-13.94764,-2.60946,-0.82568148,0.5317369200000001,-0.00927732
1764505725.5520515,27.26962,-13.94764,-2.60946,-0.82568148,0.5317369200000001,-0.00927732
1764505725.5520515,27.26962,-13.94764,-2.60946,-0.82568148,0.5317369200000001,-0.00927732
1764505725.5520515,27.26962,-13.94764,-2.60946,-0.82568148,0.5317369200000001,-0.00927732
1764505725.5520515,27.26962,-13.94764,-2.60946,-0.82568148,0.5317369200000001,-0.00927732
1764505725.5520515,27.26962,-13.94764,-2.60946,-0.82568148,0.5317369200000001,-0.00927732
1764505725.5520515,27.26962,-13.94764,-2.60946,-0.82568148,0.5317369200000001,-0.00927732
1764505725.5520515,32.39698,-15.62624,-11.96384,-0.823056975,0.536070405,-0.007629375
1764505725.5520515,32.39698,-15.62624,-11.96384,-0.823056975,0.536070405,-0.007629375
1764505725.5520515,32.39698,-15.62624,-11.96384,-0.823056975,0.536070405,-0.007629375
1764505725.5520515,32.39698,-15.62624,-11.96384,-0.823056975,0.536070405,-0.007629375
1764505725.5973234,32.39698,-15.62624,-11.96384,-0.823056975,0.536070405,-0.007629375
1764505725.5973234,32.39698,-15.62624,-11.96384,-0.823056975,0.536070405,-0.007629375
1764505725.5973234,32.39698,-15.62624,-11.96384,-0.823056975,0.536070405,-0.007629375
1764505725.5973234,32.39698,-15.62624,-11.96384,-0.823056975,0.536070405,-0.007629375
1764505725.5973234,32.39698,-15.62624,-11.96384,-0.823056975,0.536070405,-0.007629375
1764505725.5973234,32.39698,-15.62624,-11.96384,-0.823056975,0.536070405,-0.007629375
1764505725.5973234,27.28488,-22.03544,-20.58574,-0.821347995,0.546080145,-0.007385235
1764505725.5973234,27.28488,-22.03544,-20.58574,-0.821347995,0.546080145,-0.007385235
1764505725.5973234,27.28488,-22.03544,-20.58574,-0.821347995,0.546080145,-0.007385235
1764505725.5973234,27.28488,-22.03544,-20.58574,-0.821347995,0.546080145,-0.007385235
1764505725.5973234,27.28488,-22.03544,-20.58574,-0.821347995,0.546080145,-0.007385235
1764505725.5973234,27.28488,-22.03544,-20.58574,-0.821347995,0.546080145,-0.007385235
1764505725.5973234,27.28488,-22.03544,-20.58574,-0.821347995,0.546080145,-0.007385235
1764505725.5973234,27.28488,-22.03544,-20.58574,-0.821347995,0.546080145,-0.007385235
1764505725.5973234,27.28488,-22.03544,-20.58574,-0.821347995,0.546080145,-0.007385235
1764505725.5973234,27.28488,-22.03544,-20.58574,-0.821347995,0.546080145,-0.007385235
1764505725.5973234,22.67636,-27.40696,-24.78224,-0.81872349,0.553282275,-0.001159665
1764505725.5973234,22.67636,-27.40696,-24.78224,-0.81872349,0.553282275,-0.001159665
1764505725.5973234,22.67636,-27.40696,-24.78224,-0.81872349,0.553282275,-0.001159665
1764505725.5973234,22.67636,-27.40696,-24.78224,-0.81872349,0.553282275,-0.001159665
1764505725.5973234,22.67636,-27.40696,-24.78224,-0.81872349,0.553282275,-0.001159665
1764505725.5973234,22.67636,-27.40696,-24.78224,-0.81872349,0.553282275,-0.001159665
1764505725.5973234,22.67636,-27.40696,-24.78224,-0.81872349,0.553282275,-0.001159665
1764505725.5973234,22.67636,-27.40696,-24.78224,-0.81872349,0.553282275,-0.001159665
1764505725.6461642,22.67636,-27.40696,-24.78224,-0.81872349,0.553282275,-0.001159665
1764505725.6461642,22.67636,-27.40696,-24.78224,-0.81872349,0.553282275,-0.001159665
1764505725.6461642,22.90526,-22.61532,-26.99494,-0.81677037,0.560728545,0.00683592
1764505725.6461642,22.90526,-22.61532,-26.99494,-0.81677037,0.560728545,0.00683592
1764505725.64716,22.90526,-22.61532,-26.99494,-0.81677037,0.560728545,0.00683592
1764505725.64716,22.90526,-22.61532,-26.99494,-0.81677037,0.560728545,0.00683592
1764505725.64716,22.90526,-22.61532,-26.99494,-0.81677037,0.560728545,0.00683592
1764505725.64716,22.90526,-22.61532,-26.99494,-0.81677037,0.560728545,0.00683592
1764505725.64716,22.90526,-22.61532,-26.99494,-0.81677037,0.560728545,0.00683592
1764505725.64716,22.90526,-22.61532,-26.99494,-0.81677037,0.560728545,0.00683592
1764505725.64716,22.90526,-22.61532,-26.99494,-0.81677037,0.560728545,0.00683592
1764505725.6481557,22.90526,-22.61532,-26.99494,-0.81677037,0.560728545,0.00683592
1764505725.6481557,18.3883,-26.4761,-21.31822,-0.815122425,0.57031104,0.00256347
1764505725.6481557,18.3883,-26.4761,-21.31822,-0.815122425,0.57031104,0.00256347
1764505725.6481557,18.3883,-26.4761,-21.31822,-0.815122425,0.57031104,0.00256347
1764505725.6481557,18.3883,-26.4761,-21.31822,-0.815122425,0.57031104,0.00256347
1764505725.6481557,18.3883,-26.4761,-21.31822,-0.815122425,0.57031104,0.00256347
1764505725.6481557,18.3883,-26.4761,-21.31822,-0.815122425,0.57031104,0.00256347
1764505725.6481557,18.3883,-26.4761,-21.31822,-0.815122425,0.57031104,0.00256347
1764505725.6481557,18.3883,-26.4761,-21.31822,-0.815122425,0.57031104,0.00256347
1764505725.6481557,18.3883,-26.4761,-21.31822,-0.815122425,0.57031104,0.00256347
1764505725.6481557,18.3883,-26.4761,-21.31822,-0.815122425,0.57031104,0.00256347
1764505725.6481557,14.7259,-26.9339,-14.78694,-0.808896855,0.575254875,-0.00073242
1764505725.6481557,14.7259,-26.9339,-14.78694,-0.808896855,0.575254875,-0.00073242
1764505725.6923034,14.7259,-26.9339,-14.78694,-0.808896855,0.575254875,-0.00073242
1764505725.6923034,14.7259,-26.9339,-14.78694,-0.808896855,0.575254875,-0.00073242
1764505725.6923034,14.7259,-26.9339,-14.78694,-0.808896855,0.575254875,-0.00073242
1764505725.6923034,14.7259,-26.9339,-14.78694,-0.808896855,0.575254875,-0.00073242
1764505725.6923034,14.7259,-26.9339,-14.78694,-0.808896855,0.575254875,-0.00073242
1764505725.6923034,14.7259,-26.9339,-14.78694,-0.808896855,0.575254875,-0.00073242
1764505725.6923034,14.7259,-26.9339,-14.78694,-0.808896855,0.575254875,-0.00073242
1764505725.6923034,14.7259,-26.9339,-14.78694,-0.808896855,0.575254875,-0.00073242
1764505725.6923034,12.75736,-27.0102,-11.79598,-0.805478895,0.58007664,0.003356925
1764505725.6923034,12.75736,-27.0102,-11.79598,-0.805478895,0.58007664,0.003356925
1764505725.6923034,12.75736,-27.0102,-11.79598,-0.805478895,0.58007664,0.003356925
1764505725.6923034,12.75736,-27.0102,-11.79598,-0.805478895,0.58007664,0.003356925
1764505725.6923034,12.75736,-27.0102,-11.79598,-0.805478895,0.58007664,0.003356925
1764505725.6923034,12.75736,-27.0102,-11.79598,-0.805478895,0.58007664,0.003356925
1764505725.6923034,12.75736,-27.0102,-11.79598,-0.805478895,0.58007664,0.003356925
1764505725.6923034,12.75736,-27.0102,-11.79598,-0.805478895,0.58007664,0.003356925
1764505725.6923034,12.75736,-27.0102,-11.79598,-0.805478895,0.58007664,0.003356925
1764505725.6923034,12.75736,-27.0102,-11.79598,-0.805478895,0.58007664,0.003356925
1764505725.6923034,7.56896,-28.12418,-10.5294,-0.80834754,0.588194295,0.00476073
1764505725.6923034,7.56896,-28.12418,-10.5294,-0.80834754,0.588194295,0.00476073
1764505725.6923034,7.56896,-28.12418,-10.5294,-0.80834754,0.588194295,0.00476073
1764505725.6923034,7.56896,-28.12418,-10.5294,-0.80834754,0.588194295,0.00476073
1764505725.7377925,7.56896,-28.12418,-10.5294,-0.80834754,0.588194295,0.00476073
1764505725.7377925,7.56896,-28.12418,-10.5294,-0.80834754,0.588194295,0.00476073
1764505725.7377925,7.56896,-28.12418,-10.5294,-0.80834754,0.588194295,0.00476073
1764505725.7377925,7.56896,-28.12418,-10.5294,-0.80834754,0.588194295,0.00476073
1764505725.7377925,7.56896,-28.12418,-10.5294,-0.80834754,0.588194295,0.00476073
1764505725.7377925,7.56896,-28.12418,-10.5294,-0.80834754,0.588194295,0.00476073
1764505725.7377925,7.9352,-30.26058,-10.19368,-0.80492958,0.59374848,0.001892085
1764505725.738299,7.9352,-30.26058,-10.19368,-0.80492958,0.59374848,0.001892085
1764505725.738299,7.9352,-30.26058,-10.19368,-0.80492958,0.59374848,0.001892085
1764505725.738299,7.9352,-30.26058,-10.19368,-0.80492958,0.59374848,0.001892085
1764505725.738299,7.9352,-30.26058,-10.19368,-0.80492958,0.59374848,0.001892085
1764505725.738299,7.9352,-30.26058,-10.19368,-0.80492958,0.59374848,0.001892085
1764505725.739308,7.9352,-30.26058,-10.19368,-0.80492958,0.59374848,0.001892085
1764505725.739308,7.9352,-30.26058,-10.19368,-0.80492958,0.59374848,0.001892085
1764505725.740307,7.9352,-30.26058,-10.19368,-0.80492958,0.59374848,0.001892085
1764505725.740307,7.9352,-30.26058,-10.19368,-0.80492958,0.59374848,0.001892085
1764505725.740307,1.99906,-23.63774,-9.27808,-0.789243585,0.58984224,-0.00134277
1764505725.7413082,1.99906,-23.63774,-9.27808,-0.789243585,0.58984224,-0.00134277
1764505725.7413082,1.99906,-23.63774,-9.27808,-0.789243585,0.58984224,-0.00134277
1764505725.7413082,1.99906,-23.63774,-9.27808,-0.789243585,0.58984224,-0.00134277
1764505725.7413082,1.99906,-23.63774,-9.27808,-0.789243585,0.58984224,-0.00134277
1764505725.7423172,1.99906,-23.63774,-9.27808,-0.789243585,0.58984224,-0.00134277
1764505725.7423172,1.99906,-23.63774,-9.27808,-0.789243585,0.58984224,-0.00134277
1764505725.7423172,1.99906,-23.63774,-9.27808,-0.789243585,0.58984224,-0.00134277
1764505725.7860374,1.99906,-23.63774,-9.27808,-0.789243585,0.58984224,-0.00134277
1764505725.7860374,1.99906,-23.63774,-9.27808,-0.789243585,0.58984224,-0.00134277
1764505725.7860374,2.16692,-11.5976,-5.05106,-0.778501425,0.573912105,-0.00292968
1764505725.7860374,2.16692,-11.5976,-5.05106,-0.778501425,0.573912105,-0.00292968
1764505725.7860374,2.16692,-11.5976,-5.05106,-0.778501425,0.573912105,-0.00292968
1764505725.7870371,2.16692,-11.5976,-5.05106,-0.778501425,0.573912105,-0.00292968
1764505725.7870371,2.16692,-11.5976,-5.05106,-0.778501425,0.573912105,-0.00292968
1764505725.7870371,2.16692,-11.5976,-5.05106,-0.778501425,0.573912105,-0.00292968
1764505725.7870371,2.16692,-11.5976,-5.05106,-0.778501425,0.573912105,-0.00292968
1764505725.7870371,2.16692,-11.5976,-5.05106,-0.778501425,0.573912105,-0.00292968
1764505725.7870371,2.16692,-11.5976,-5.05106,-0.778501425,0.573912105,-0.00292968
1764505725.7870371,2.16692,-11.5976,-5.05106,-0.778501425,0.573912105,-0.00292968
1764505725.7870371,5.21892,-3.69292,-0.36624,-0.7811869650000001,0.56616066,-0.0061035
1764505725.7870371,5.21892,-3.69292,-0.36624,-0.7811869650000001,0.56616066,-0.0061035
1764505725.7870371,5.21892,-3.69292,-0.36624,-0.7811869650000001,0.56616066,-0.0061035
1764505725.7870371,5.21892,-3.69292,-0.36624,-0.7811869650000001,0.56616066,-0.0061035
1764505725.7870371,5.21892,-3.69292,-0.36624,-0.7811869650000001,0.56616066,-0.0061035
1764505725.7870371,5.21892,-3.69292,-0.36624,-0.7811869650000001,0.56616066,-0.0061035
1764505725.7875466,5.21892,-3.69292,-0.36624,-0.7811869650000001,0.56616066,-0.0061035
1764505725.7875466,5.21892,-3.69292,-0.36624,-0.7811869650000001,0.56616066,-0.0061035
1764505725.7875466,5.21892,-3.69292,-0.36624,-0.7811869650000001,0.56616066,-0.0061035
1764505725.7875466,5.21892,-3.69292,-0.36624,-0.7811869650000001,0.56616066,-0.0061035
1764505725.7875466,3.60136,0.9003399999999999,0.54936,-0.78954876,0.56921241,-0.007141095
1764505725.7875466,3.60136,0.9003399999999999,0.54936,-0.78954876,0.56921241,-0.007141095
1764505725.8303006,3.60136,0.9003399999999999,0.54936,-0.78954876,0.56921241,-0.007141095
1764505725.8308115,3.60136,0.9003399999999999,0.54936,-0.78954876,0.56921241,-0.007141095
1764505725.8308115,3.60136,0.9003399999999999,0.54936,-0.78954876,0.56921241,-0.007141095
1764505725.8308115,3.60136,0.9003399999999999,0.54936,-0.78954876,0.56921241,-0.007141095
1764505725.8308115,3.60136,0.9003399999999999,0.54936,-0.78954876,0.56921241,-0.007141095
1764505725.8308115,3.60136,0.9003399999999999,0.54936,-0.78954876,0.56921241,-0.007141095
1764505725.8308115,3.60136,0.9003399999999999,0.54936,-0.78954876,0.56921241,-0.007141095
1764505725.8308115,3.60136,0.9003399999999999,0.54936,-0.78954876,0.56921241,-0.007141095
1764505725.8308115,4.4254,0.79352,-6.683879999999999,-0.804868545,0.57153174,0.001159665
1764505725.8308115,4.4254,0.79352,-6.683879999999999,-0.804868545,0.57153174,0.001159665
1764505725.8308115,4.4254,0.79352,-6.683879999999999,-0.804868545,0.57153174,0.001159665
1764505725.8308115,4.4254,0.79352,-6.683879999999999,-0.804868545,0.57153174,0.001159665
1764505725.8308115,4.4254,0.79352,-6.683879999999999,-0.804868545,0.57153174,0.001159665
1764505725.8308115,4.4254,0.79352,-6.683879999999999,-0.804868545,0.57153174,0.001159665
1764505725.8318546,4.4254,0.79352,-6.683879999999999,-0.804868545,0.57153174,0.001159665
1764505725.8318546,4.4254,0.79352,-6.683879999999999,-0.804868545,0.57153174,0.001159665
1764505725.8318546,4.4254,0.79352,-6.683879999999999,-0.804868545,0.57153174,0.001159665
1764505725.8318546,4.4254,0.79352,-6.683879999999999,-0.804868545,0.57153174,0.001159665
1764505725.8318546,-1.57178,-1.81594,-11.68916,-0.81774693,0.57824559,0.010559055
1764505725.8318546,-1.57178,-1.81594,-11.68916,-0.81774693,0.57824559,0.010559055
1764505725.8318546,-1.57178,-1.81594,-11.68916,-0.81774693,0.57824559,0.010559055
1764505725.8318546,-1.57178,-1.81594,-11.68916,-0.81774693,0.57824559,0.010559055
1764505725.879686,-1.57178,-1.81594,-11.68916,-0.81774693,0.57824559,0.010559055
1764505725.879686,-1.57178,-1.81594,-11.68916,-0.81774693,0.57824559,0.010559055
1764505725.88069,-1.57178,-1.81594,-11.68916,-0.81774693,0.57824559,0.010559055
1764505725.88069,-1.57178,-1.81594,-11.68916,-0.81774693,0.57824559,0.010559055
1764505725.88069,-1.57178,-1.81594,-11.68916,-0.81774693,0.57824559,0.010559055
1764505725.88069,-1.57178,-1.81594,-11.68916,-0.81774693,0.57824559,0.010559055
1764505725.88069,-16.64866,-1.63282,-11.445,-0.821347995,0.57910008,0.01684566
1764505725.88069,-16.64866,-1.63282,-11.445,-0.821347995,0.57910008,0.01684566
1764505725.88069,-16.64866,-1.63282,-11.445,-0.821347995,0.57910008,0.01684566
1764505725.88069,-16.64866,-1.63282,-11.445,-0.821347995,0.57910008,0.01684566
1764505725.88069,-16.64866,-1.63282,-11.445,-0.821347995,0.57910008,0.01684566
1764505725.88069,-16.64866,-1.63282,-11.445,-0.821347995,0.57910008,0.01684566
1764505725.88069,-16.64866,-1.63282,-11.445,-0.821347995,0.57910008,0.01684566
1764505725.88069,-16.64866,-1.63282,-11.445,-0.821347995,0.57910008,0.01684566
1764505725.88069,-16.64866,-1.63282,-11.445,-0.821347995,0.57910008,0.01684566
1764505725.88069,-16.64866,-1.63282,-11.445,-0.821347995,0.57910008,0.01684566
1764505725.88069,-29.1466,1.61756,-6.59232,-0.824888025,0.56591652,0.01904292
1764505725.88069,-29.1466,1.61756,-6.59232,-0.824888025,0.56591652,0.01904292
1764505725.88069,-29.1466,1.61756,-6.59232,-0.824888025,0.56591652,0.01904292
1764505725.88069,-29.1466,1.61756,-6.59232,-0.824888025,0.56591652,0.01904292
1764505725.88069,-29.1466,1.61756,-6.59232,-0.824888025,0.56591652,0.01904292
1764505725.88069,-29.1466,1.61756,-6.59232,-0.824888025,0.56591652,0.01904292
1764505725.88069,-29.1466,1.61756,-6.59232,-0.824888025,0.56591652,0.01904292
1764505725.88069,-29.1466,1.61756,-6.59232,-0.824888025,0.56591652,0.01904292
1764505725.927214,-29.1466,1.61756,-6.59232,-0.824888025,0.56591652,0.01904292
1764505725.927214,-29.1466,1.61756,-6.59232,-0.824888025,0.56591652,0.01904292
1764505725.927214,-31.60346,4.70008,-4.31858,-0.83398224,0.546568425,0.013488735
1764505725.927214,-31.60346,4.70008,-4.31858,-0.83398224,0.546568425,0.013488735
1764505725.927214,-31.60346,4.70008,-4.31858,-0.83398224,0.546568425,0.013488735
1764505725.927214,-31.60346,4.70008,-4.31858,-0.83398224,0.546568425,0.013488735
1764505725.927214,-31.60346,4.70008,-4.31858,-0.83398224,0.546568425,0.013488735
1764505725.927214,-31.60346,4.70008,-4.31858,-0.83398224,0.546568425,0.013488735
1764505725.927214,-31.60346,4.70008,-4.31858,-0.83398224,0.546568425,0.013488735
1764505725.927214,-31.60346,4.70008,-4.31858,-0.83398224,0.546568425,0.013488735
1764505725.927214,-31.60346,4.70008,-4.31858,-0.83398224,0.546568425,0.013488735
1764505725.927214,-31.60346,4.70008,-4.31858,-0.83398224,0.546568425,0.013488735
1764505725.927214,-28.36834,8.2404,-3.75396,-0.8383157250000001,0.53320176,0.004577625
1764505725.927214,-28.36834,8.2404,-3.75396,-0.8383157250000001,0.53320176,0.004577625
1764505725.927214,-28.36834,8.2404,-3.75396,-0.8383157250000001,0.53320176,0.004577625
1764505725.927214,-28.36834,8.2404,-3.75396,-0.8383157250000001,0.53320176,0.004577625
1764505725.927214,-28.36834,8.2404,-3.75396,-0.8383157250000001,0.53320176,0.004577625
1764505725.9282112,-28.36834,8.2404,-3.75396,-0.8383157250000001,0.53320176,0.004577625
1764505725.9282112,-28.36834,8.2404,-3.75396,-0.8383157250000001,0.53320176,0.004577625
1764505725.9282112,-28.36834,8.2404,-3.75396,-0.8383157250000001,0.53320176,0.004577625
1764505725.9282112,-28.36834,8.2404,-3.75396,-0.8383157250000001,0.53320176,0.004577625
1764505725.9282112,-28.36834,8.2404,-3.75396,-0.8383157250000001,0.53320176,0.004577625
1764505725.9282112,-23.24098,9.4612,-3.61662,-0.8409402300000001,0.520933725,0.002990715
1764505725.9282112,-23.24098,9.4612,-3.61662,-0.8409402300000001,0.520933725,0.002990715
1764505725.9720051,-23.24098,9.4612,-3.61662,-0.8409402300000001,0.520933725,0.002990715
1764505725.9720051,-23.24098,9.4612,-3.61662,-0.8409402300000001,0.520933725,0.002990715
1764505725.9720051,-23.24098,9.4612,-3.61662,-0.8409402300000001,0.520933725,0.002990715
1764505725.9720051,-23.24098,9.4612,-3.61662,-0.8409402300000001,0.520933725,0.002990715
1764505725.9720051,-23.24098,9.4612,-3.61662,-0.8409402300000001,0.520933725,0.002990715
1764505725.9720051,-23.24098,9.4612,-3.61662,-0.8409402300000001,0.520933725,0.002990715
1764505725.9720051,-23.24098,9.4612,-3.61662,-0.8409402300000001,0.520933725,0.002990715
1764505725.9720051,-23.24098,9.4612,-3.61662,-0.8409402300000001,0.520933725,0.002990715
1764505725.9720051,-23.05786,-0.25942,-0.85456,-0.84997341,0.5133653850000001,0.004943835
1764505725.9720051,-23.05786,-0.25942,-0.85456,-0.84997341,0.5133653850000001,0.004943835
1764505725.9720051,-23.05786,-0.25942,-0.85456,-0.84997341,0.5133653850000001,0.004943835
1764505725.9720051,-23.05786,-0.25942,-0.85456,-0.84997341,0.5133653850000001,0.004943835
1764505725.9720051,-23.05786,-0.25942,-0.85456,-0.84997341,0.5133653850000001,0.004943835
1764505725.9720051,-23.05786,-0.25942,-0.85456,-0.84997341,0.5133653850000001,0.004943835
1764505725.9720051,-23.05786,-0.25942,-0.85456,-0.84997341,0.5133653850000001,0.004943835
1764505725.9720051,-23.05786,-0.25942,-0.85456,-0.84997341,0.5133653850000001,0.004943835
1764505725.9720051,-23.05786,-0.25942,-0.85456,-0.84997341,0.5133653850000001,0.004943835
1764505725.9720051,-23.05786,-0.25942,-0.85456,-0.84997341,0.5133653850000001,0.004943835
1764505725.97355,-26.58292,-7.11116,1.84646,-0.845884065,0.51855336,0.00695799
1764505725.97355,-26.58292,-7.11116,1.84646,-0.845884065,0.51855336,0.00695799
1764505725.97355,-26.58292,-7.11116,1.84646,-0.845884065,0.51855336,0.00695799
1764505725.97355,-26.58292,-7.11116,1.84646,-0.845884065,0.51855336,0.00695799
1764505726.0177205,-26.58292,-7.11116,1.84646,-0.845884065,0.51855336,0.00695799
1764505726.0177205,-26.58292,-7.11116,1.84646,-0.845884065,0.51855336,0.00695799
1764505726.0177205,-26.58292,-7.11116,1.84646,-0.845884065,0.51855336,0.00695799
1764505726.018253,-26.58292,-7.11116,1.84646,-0.845884065,0.51855336,0.00695799
1764505726.018253,-26.58292,-7.11116,1.84646,-0.845884065,0.51855336,0.00695799
1764505726.018253,-26.58292,-7.11116,1.84646,-0.845884065,0.51855336,0.00695799
1764505726.018253,-22.2033,-2.16692,-0.13734,-0.836484675,0.51818715,0.01391598
1764505726.018253,-22.2033,-2.16692,-0.13734,-0.836484675,0.51818715,0.01391598
1764505726.018253,-22.2033,-2.16692,-0.13734,-0.836484675,0.51818715,0.01391598
1764505726.018253,-22.2033,-2.16692,-0.13734,-0.836484675,0.51818715,0.01391598
1764505726.018253,-22.2033,-2.16692,-0.13734,-0.836484675,0.51818715,0.01391598
1764505726.018253,-22.2033,-2.16692,-0.13734,-0.836484675,0.51818715,0.01391598
1764505726.018253,-22.2033,-2.16692,-0.13734,-0.836484675,0.51818715,0.01391598
1764505726.018253,-22.2033,-2.16692,-0.13734,-0.836484675,0.51818715,0.01391598
1764505726.018253,-22.2033,-2.16692,-0.13734,-0.836484675,0.51818715,0.01391598
1764505726.018253,-22.2033,-2.16692,-0.13734,-0.836484675,0.51818715,0.01391598
1764505726.018253,-23.7293,3.1283,-2.02958,-0.83080842,0.51782094,0.02087397
1764505726.018253,-23.7293,3.1283,-2.02958,-0.83080842,0.51782094,0.02087397
1764505726.020571,-23.7293,3.1283,-2.02958,-0.83080842,0.51782094,0.02087397
1764505726.020571,-23.7293,3.1283,-2.02958,-0.83080842,0.51782094,0.02087397
1764505726.020571,-23.7293,3.1283,-2.02958,-0.83080842,0.51782094,0.02087397
1764505726.020571,-23.7293,3.1283,-2.02958,-0.83080842,0.51782094,0.02087397
1764505726.020571,-23.7293,3.1283,-2.02958,-0.83080842,0.51782094,0.02087397
1764505726.020571,-23.7293,3.1283,-2.02958,-0.83080842,0.51782094,0.02087397
1764505726.020571,-23.7293,3.1283,-2.02958,-0.83080842,0.51782094,0.02087397
1764505726.020571,-23.7293,3.1283,-2.02958,-0.83080842,0.51782094,0.02087397
1764505726.064448,-24.23288,0.7019599999999999,-2.42634,-0.82702425,0.50927604,0.03198234
1764505726.064448,-24.23288,0.7019599999999999,-2.42634,-0.82702425,0.50927604,0.03198234
1764505726.064448,-24.23288,0.7019599999999999,-2.42634,-0.82702425,0.50927604,0.03198234
1764505726.064448,-24.23288,0.7019599999999999,-2.42634,-0.82702425,0.50927604,0.03198234
1764505726.064448,-24.23288,0.7019599999999999,-2.42634,-0.82702425,0.50927604,0.03198234
1764505726.0654504,-24.23288,0.7019599999999999,-2.42634,-0.82702425,0.50927604,0.03198234
1764505726.0654504,-24.23288,0.7019599999999999,-2.42634,-0.82702425,0.50927604,0.03198234
1764505726.0654504,-24.23288,0.7019599999999999,-2.42634,-0.82702425,0.50927604,0.03198234
1764505726.0659664,-24.23288,0.7019599999999999,-2.42634,-0.82702425,0.50927604,0.03198234
1764505726.0659664,-24.23288,0.7019599999999999,-2.42634,-0.82702425,0.50927604,0.03198234
1764505726.0659664,-20.34158,1.25132,-1.8006799999999998,-0.82543734,0.491758995,0.04125966
1764505726.0659664,-20.34158,1.25132,-1.8006799999999998,-0.82543734,0.491758995,0.04125966
1764505726.0659664,-20.34158,1.25132,-1.8006799999999998,-0.82543734,0.491758995,0.04125966
1764505726.0659664,-20.34158,1.25132,-1.8006799999999998,-0.82543734,0.491758995,0.04125966
1764505726.0669854,-20.34158,1.25132,-1.8006799999999998,-0.82543734,0.491758995,0.04125966
1764505726.0669854,-20.34158,1.25132,-1.8006799999999998,-0.82543734,0.491758995,0.04125966
1764505726.0677023,-20.34158,1.25132,-1.8006799999999998,-0.82543734,0.491758995,0.04125966
1764505726.0677023,-20.34158,1.25132,-1.8006799999999998,-0.82543734,0.491758995,0.04125966
1764505726.0677023,-20.34158,1.25132,-1.8006799999999998,-0.82543734,0.491758995,0.04125966
1764505726.0677023,-20.34158,1.25132,-1.8006799999999998,-0.82543734,0.491758995,0.04125966
1764505726.1126068,-15.382079999999998,2.68576,-0.97664,-0.82568148,0.47790405,0.04431141
1764505726.1126068,-15.382079999999998,2.68576,-0.97664,-0.82568148,0.47790405,0.04431141
1764505726.1126068,-15.382079999999998,2.68576,-0.97664,-0.82568148,0.47790405,0.04431141
1764505726.1126068,-15.382079999999998,2.68576,-0.97664,-0.82568148,0.47790405,0.04431141
1764505726.1126068,-15.382079999999998,2.68576,-0.97664,-0.82568148,0.47790405,0.04431141
1764505726.1126068,-15.382079999999998,2.68576,-0.97664,-0.82568148,0.47790405,0.04431141
1764505726.1126068,-15.382079999999998,2.68576,-0.97664,-0.82568148,0.47790405,0.04431141
1764505726.1126068,-15.382079999999998,2.68576,-0.97664,-0.82568148,0.47790405,0.04431141
1764505726.1136086,-15.382079999999998,2.68576,-0.97664,-0.82568148,0.47790405,0.04431141
1764505726.1136086,-15.382079999999998,2.68576,-0.97664,-0.82568148,0.47790405,0.04431141
1764505726.1136086,-6.50076,2.10588,-0.41202,-0.828305985,0.47534058,0.043395885
1764505726.1136086,-6.50076,2.10588,-0.41202,-0.828305985,0.47534058,0.043395885
1764505726.1136086,-6.50076,2.10588,-0.41202,-0.828305985,0.47534058,0.043395885
1764505726.1136086,-6.50076,2.10588,-0.41202,-0.828305985,0.47534058,0.043395885
1764505726.1136086,-6.50076,2.10588,-0.41202,-0.828305985,0.47534058,0.043395885
1764505726.1136086,-6.50076,2.10588,-0.41202,-0.828305985,0.47534058,0.043395885
1764505726.1136086,-6.50076,2.10588,-0.41202,-0.828305985,0.47534058,0.043395885
1764505726.1136086,-6.50076,2.10588,-0.41202,-0.828305985,0.47534058,0.043395885
1764505726.1136086,-6.50076,2.10588,-0.41202,-0.828305985,0.47534058,0.043395885
1764505726.1136086,-6.50076,2.10588,-0.41202,-0.828305985,0.47534058,0.043395885
1764505726.1136086,-0.85456,-1.57178,-0.763,-0.834897765,0.477232665,0.044250375
1764505726.1136086,-0.85456,-1.57178,-0.763,-0.834897765,0.477232665,0.044250375
1764505726.1136086,-0.85456,-1.57178,-0.763,-0.834897765,0.477232665,0.044250375
1764505726.1149404,-0.85456,-1.57178,-0.763,-0.834897765,0.477232665,0.044250375
1764505726.1619947,-0.85456,-1.57178,-0.763,-0.834897765,0.477232665,0.044250375
1764505726.1619947,-0.85456,-1.57178,-0.763,-0.834897765,0.477232665,0.044250375
1764505726.1619947,-0.85456,-1.57178,-0.763,-0.834897765,0.477232665,0.044250375
1764505726.1619947,-0.85456,-1.57178,-0.763,-0.834897765,0.477232665,0.044250375
1764505726.1619947,-0.85456,-1.57178,-0.763,-0.834897765,0.477232665,0.044250375
1764505726.1619947,-0.85456,-1.57178,-0.763,-0.834897765,0.477232665,0.044250375
1764505726.1619947,10.05634,-2.35004,0.1525999999999999,-0.843930945,0.47704956,0.04455555
1764505726.1619947,10.05634,-2.35004,0.1525999999999999,-0.843930945,0.47704956,0.04455555
1764505726.1619947,10.05634,-2.35004,0.1525999999999999,-0.843930945,0.47704956,0.04455555
1764505726.1619947,10.05634,-2.35004,0.1525999999999999,-0.843930945,0.47704956,0.04455555
1764505726.1619947,10.05634,-2.35004,0.1525999999999999,-0.843930945,0.47704956,0.04455555
1764505726.1619947,10.05634,-2.35004,0.1525999999999999,-0.843930945,0.47704956,0.04455555
1764505726.1619947,10.05634,-2.35004,0.1525999999999999,-0.843930945,0.47704956,0.04455555
1764505726.1635082,10.05634,-2.35004,0.1525999999999999,-0.843930945,0.47704956,0.04455555
1764505726.1635082,10.05634,-2.35004,0.1525999999999999,-0.843930945,0.47704956,0.04455555
1764505726.1635082,10.05634,-2.35004,0.1525999999999999,-0.843930945,0.47704956,0.04455555
1764505726.1635082,15.42786,1.49548,3.55558,-0.8532693,0.49218624,0.0354003
1764505726.1635082,15.42786,1.49548,3.55558,-0.8532693,0.49218624,0.0354003
1764505726.1635082,15.42786,1.49548,3.55558,-0.8532693,0.49218624,0.0354003
1764505726.1635082,15.42786,1.49548,3.55558,-0.8532693,0.49218624,0.0354003
1764505726.1635082,15.42786,1.49548,3.55558,-0.8532693,0.49218624,0.0354003
1764505726.1635082,15.42786,1.49548,3.55558,-0.8532693,0.49218624,0.0354003
1764505726.1635082,15.42786,1.49548,3.55558,-0.8532693,0.49218624,0.0354003
1764505726.1635082,15.42786,1.49548,3.55558,-0.8532693,0.49218624,0.0354003
1764505726.2048378,15.42786,1.49548,3.55558,-0.8532693,0.49218624,0.0354003
1764505726.2048378,15.42786,1.49548,3.55558,-0.8532693,0.49218624,0.0354003
1764505726.2048378,15.12266,1.26658,5.234179999999999,-0.856992435,0.513121245,0.02062983
1764505726.2048378,15.12266,1.26658,5.234179999999999,-0.856992435,0.513121245,0.02062983
1764505726.2048378,15.12266,1.26658,5.234179999999999,-0.856992435,0.513121245,0.02062983
1764505726.2048378,15.12266,1.26658,5.234179999999999,-0.856992435,0.513121245,0.02062983
1764505726.2058425,15.12266,1.26658,5.234179999999999,-0.856992435,0.513121245,0.02062983
1764505726.2058425,15.12266,1.26658,5.234179999999999,-0.856992435,0.513121245,0.02062983
1764505726.2058425,15.12266,1.26658,5.234179999999999,-0.856992435,0.513121245,0.02062983
1764505726.2058425,15.12266,1.26658,5.234179999999999,-0.856992435,0.513121245,0.02062983
1764505726.206836,15.12266,1.26658,5.234179999999999,-0.856992435,0.513121245,0.02062983
1764505726.2083995,15.12266,1.26658,5.234179999999999,-0.856992435,0.513121245,0.02062983
1764505726.2083995,12.04014,3.7387,2.99096,-0.8540627550000001,0.5297838,0.01000974
1764505726.2083995,12.04014,3.7387,2.99096,-0.8540627550000001,0.5297838,0.01000974
1764505726.2083995,12.04014,3.7387,2.99096,-0.8540627550000001,0.5297838,0.01000974
1764505726.2083995,12.04014,3.7387,2.99096,-0.8540627550000001,0.5297838,0.01000974
1764505726.2083995,12.04014,3.7387,2.99096,-0.8540627550000001,0.5297838,0.01000974
1764505726.2083995,12.04014,3.7387,2.99096,-0.8540627550000001,0.5297838,0.01000974
1764505726.2083995,12.04014,3.7387,2.99096,-0.8540627550000001,0.5297838,0.01000974
1764505726.2083995,12.04014,3.7387,2.99096,-0.8540627550000001,0.5297838,0.01000974
1764505726.2083995,12.04014,3.7387,2.99096,-0.8540627550000001,0.5297838,0.01000974
1764505726.2083995,12.04014,3.7387,2.99096,-0.8540627550000001,0.5297838,0.01000974
1764505726.2083995,12.33008,5.55464,0.0762999999999999,-0.848691675,0.54821637,0.005920395
1764505726.2083995,12.33008,5.55464,0.0762999999999999,-0.848691675,0.54821637,0.005920395
1764505726.249471,12.33008,5.55464,0.0762999999999999,-0.848691675,0.54821637,0.005920395
1764505726.249471,12.33008,5.55464,0.0762999999999999,-0.848691675,0.54821637,0.005920395
1764505726.249471,12.33008,5.55464,0.0762999999999999,-0.848691675,0.54821637,0.005920395
1764505726.249471,12.33008,5.55464,0.0762999999999999,-0.848691675,0.54821637,0.005920395
1764505726.249471,12.33008,5.55464,0.0762999999999999,-0.848691675,0.54821637,0.005920395
1764505726.249471,12.33008,5.55464,0.0762999999999999,-0.848691675,0.54821637,0.005920395
1764505726.249471,12.33008,5.55464,0.0762999999999999,-0.848691675,0.54821637,0.005920395
1764505726.249471,12.33008,5.55464,0.0762999999999999,-0.848691675,0.54821637,0.005920395
1764505726.249471,11.01772,3.54032,-1.4039199999999998,-0.84216093,0.565611345,0.00891111
1764505726.249471,11.01772,3.54032,-1.4039199999999998,-0.84216093,0.565611345,0.00891111
1764505726.249471,11.01772,3.54032,-1.4039199999999998,-0.84216093,0.565611345,0.00891111
1764505726.249471,11.01772,3.54032,-1.4039199999999998,-0.84216093,0.565611345,0.00891111
1764505726.251245,11.01772,3.54032,-1.4039199999999998,-0.84216093,0.565611345,0.00891111
1764505726.251245,11.01772,3.54032,-1.4039199999999998,-0.84216093,0.565611345,0.00891111
1764505726.251245,11.01772,3.54032,-1.4039199999999998,-0.84216093,0.565611345,0.00891111
1764505726.251245,11.01772,3.54032,-1.4039199999999998,-0.84216093,0.565611345,0.00891111
1764505726.251245,11.01772,3.54032,-1.4039199999999998,-0.84216093,0.565611345,0.00891111
1764505726.251245,11.01772,3.54032,-1.4039199999999998,-0.84216093,0.565611345,0.00891111
1764505726.251245,2.1364,0.1525999999999999,-3.29616,-0.830076,0.5664048,0.015441855
1764505726.251245,2.1364,0.1525999999999999,-3.29616,-0.830076,0.5664048,0.015441855
1764505726.251245,2.1364,0.1525999999999999,-3.29616,-0.830076,0.5664048,0.015441855
1764505726.251245,2.1364,0.1525999999999999,-3.29616,-0.830076,0.5664048,0.015441855
1764505726.2997425,2.1364,0.1525999999999999,-3.29616,-0.830076,0.5664048,0.015441855
1764505726.2997425,2.1364,0.1525999999999999,-3.29616,-0.830076,0.5664048,0.015441855
1764505726.2997425,2.1364,0.1525999999999999,-3.29616,-0.830076,0.5664048,0.015441855
1764505726.2997425,2.1364,0.1525999999999999,-3.29616,-0.830076,0.5664048,0.015441855
1764505726.2997425,2.1364,0.1525999999999999,-3.29616,-0.830076,0.5664048,0.015441855
1764505726.2997425,2.1364,0.1525999999999999,-3.29616,-0.830076,0.5664048,0.015441855
1764505726.2997425,-3.31142,-1.61756,-6.05822,-0.8210428200000001,0.546568425,0.023742615
1764505726.2997425,-3.31142,-1.61756,-6.05822,-0.8210428200000001,0.546568425,0.023742615
1764505726.2997425,-3.31142,-1.61756,-6.05822,-0.8210428200000001,0.546568425,0.023742615
1764505726.2997425,-3.31142,-1.61756,-6.05822,-0.8210428200000001,0.546568425,0.023742615
1764505726.2997425,-3.31142,-1.61756,-6.05822,-0.8210428200000001,0.546568425,0.023742615
1764505726.2997425,-3.31142,-1.61756,-6.05822,-0.8210428200000001,0.546568425,0.023742615
1764505726.2997425,-3.31142,-1.61756,-6.05822,-0.8210428200000001,0.546568425,0.023742615
1764505726.2997425,-3.31142,-1.61756,-6.05822,-0.8210428200000001,0.546568425,0.023742615
1764505726.2997425,-3.31142,-1.61756,-6.05822,-0.8210428200000001,0.546568425,0.023742615
1764505726.2997425,-3.31142,-1.61756,-6.05822,-0.8210428200000001,0.546568425,0.023742615
1764505726.2997425,1.02242,6.19556,-5.234179999999999,-0.819883155,0.53307969,0.022888125
1764505726.2997425,1.02242,6.19556,-5.234179999999999,-0.819883155,0.53307969,0.022888125
1764505726.2997425,1.02242,6.19556,-5.234179999999999,-0.819883155,0.53307969,0.022888125
1764505726.2997425,1.02242,6.19556,-5.234179999999999,-0.819883155,0.53307969,0.022888125
1764505726.2997425,1.02242,6.19556,-5.234179999999999,-0.819883155,0.53307969,0.022888125
1764505726.2997425,1.02242,6.19556,-5.234179999999999,-0.819883155,0.53307969,0.022888125
1764505726.3013988,1.02242,6.19556,-5.234179999999999,-0.819883155,0.53307969,0.022888125
1764505726.3013988,1.02242,6.19556,-5.234179999999999,-0.819883155,0.53307969,0.022888125
1764505726.345833,1.02242,6.19556,-5.234179999999999,-0.819883155,0.53307969,0.022888125
1764505726.345833,1.02242,6.19556,-5.234179999999999,-0.819883155,0.53307969,0.022888125
1764505726.345833,1.46496,5.21892,-0.12208,-0.82140903,0.5322252,0.01696773
1764505726.345833,1.46496,5.21892,-0.12208,-0.82140903,0.5322252,0.01696773
1764505726.345833,1.46496,5.21892,-0.12208,-0.82140903,0.5322252,0.01696773
1764505726.345833,1.46496,5.21892,-0.12208,-0.82140903,0.5322252,0.01696773
1764505726.345833,1.46496,5.21892,-0.12208,-0.82140903,0.5322252,0.01696773
1764505726.345833,1.46496,5.21892,-0.12208,-0.82140903,0.5322252,0.01696773
1764505726.345833,1.46496,5.21892,-0.12208,-0.82140903,0.5322252,0.01696773
1764505726.345833,1.46496,5.21892,-0.12208,-0.82140903,0.5322252,0.01696773
1764505726.345833,1.46496,5.21892,-0.12208,-0.82140903,0.5322252,0.01696773
1764505726.345833,1.46496,5.21892,-0.12208,-0.82140903,0.5322252,0.01696773
1764505726.345833,2.79258,-0.42728,2.30426,-0.81261999,0.52563342,0.010436985
1764505726.345833,2.79258,-0.42728,2.30426,-0.81261999,0.52563342,0.010436985
1764505726.345833,2.79258,-0.42728,2.30426,-0.81261999,0.52563342,0.010436985
1764505726.345833,2.79258,-0.42728,2.30426,-0.81261999,0.52563342,0.010436985
1764505726.345833,2.79258,-0.42728,2.30426,-0.81261999,0.52563342,0.010436985
1764505726.345833,2.79258,-0.42728,2.30426,-0.81261999,0.52563342,0.010436985
1764505726.345833,2.79258,-0.42728,2.30426,-0.81261999,0.52563342,0.010436985
1764505726.345833,2.79258,-0.42728,2.30426,-0.81261999,0.52563342,0.010436985
1764505726.345833,2.79258,-0.42728,2.30426,-0.81261999,0.52563342,0.010436985
1764505726.345833,2.79258,-0.42728,2.30426,-0.81261999,0.52563342,0.010436985
1764505726.390669,5.78354,-6.3329,3.11304,-0.83752227,0.523497195,0.00292968
1764505726.390669,5.78354,-6.3329,3.11304,-0.83752227,0.523497195,0.00292968
1764505726.390669,5.78354,-6.3329,3.11304,-0.83752227,0.523497195,0.00292968
1764505726.390669,5.78354,-6.3329,3.11304,-0.83752227,0.523497195,0.00292968
1764505726.3912053,5.78354,-6.3329,3.11304,-0.83752227,0.523497195,0.00292968
1764505726.3912053,5.78354,-6.3329,3.11304,-0.83752227,0.523497195,0.00292968
1764505726.3912053,5.78354,-6.3329,3.11304,-0.83752227,0.523497195,0.00292968
1764505726.3912053,5.78354,-6.3329,3.11304,-0.83752227,0.523497195,0.00292968
1764505726.3912053,5.78354,-6.3329,3.11304,-0.83752227,0.523497195,0.00292968
1764505726.3912053,5.78354,-6.3329,3.11304,-0.83752227,0.523497195,0.00292968
1764505726.3912053,10.63622,-8.255659999999999,2.99096,-0.84362577,0.53051622,-0.003845205
1764505726.3912053,10.63622,-8.255659999999999,2.99096,-0.84362577,0.53051622,-0.003845205
1764505726.3912053,10.63622,-8.255659999999999,2.99096,-0.84362577,0.53051622,-0.003845205
1764505726.3912053,10.63622,-8.255659999999999,2.99096,-0.84362577,0.53051622,-0.003845205
1764505726.3912053,10.63622,-8.255659999999999,2.99096,-0.84362577,0.53051622,-0.003845205
1764505726.3912053,10.63622,-8.255659999999999,2.99096,-0.84362577,0.53051622,-0.003845205
1764505726.3922176,10.63622,-8.255659999999999,2.99096,-0.84362577,0.53051622,-0.003845205
1764505726.3922176,10.63622,-8.255659999999999,2.99096,-0.84362577,0.53051622,-0.003845205
1764505726.3922176,10.63622,-8.255659999999999,2.99096,-0.84362577,0.53051622,-0.003845205
1764505726.3922176,10.63622,-8.255659999999999,2.99096,-0.84362577,0.53051622,-0.003845205
1764505726.3922176,10.10212,-6.34816,2.41108,-0.840146775,0.54284529,-0.002868645
1764505726.393726,10.10212,-6.34816,2.41108,-0.840146775,0.54284529,-0.002868645
1764505726.393726,10.10212,-6.34816,2.41108,-0.840146775,0.54284529,-0.002868645
1764505726.393726,10.10212,-6.34816,2.41108,-0.840146775,0.54284529,-0.002868645
1764505726.393726,10.10212,-6.34816,2.41108,-0.840146775,0.54284529,-0.002868645
1764505726.3947425,10.10212,-6.34816,2.41108,-0.840146775,0.54284529,-0.002868645
1764505726.4390686,10.10212,-6.34816,2.41108,-0.840146775,0.54284529,-0.002868645
1764505726.4390686,10.10212,-6.34816,2.41108,-0.840146775,0.54284529,-0.002868645
1764505726.4390686,10.10212,-6.34816,2.41108,-0.840146775,0.54284529,-0.002868645
1764505726.4390686,10.10212,-6.34816,2.41108,-0.840146775,0.54284529,-0.002868645
1764505726.4396155,8.63716,-1.61756,1.87698,-0.8386209,0.55273296,0.002746575
1764505726.4396155,8.63716,-1.61756,1.87698,-0.8386209,0.55273296,0.002746575
1764505726.4396155,8.63716,-1.61756,1.87698,-0.8386209,0.55273296,0.002746575
1764505726.4396155,8.63716,-1.61756,1.87698,-0.8386209,0.55273296,0.002746575
1764505726.4396155,8.63716,-1.61756,1.87698,-0.8386209,0.55273296,0.002746575
1764505726.4396155,8.63716,-1.61756,1.87698,-0.8386209,0.55273296,0.002746575
1764505726.4396155,8.63716,-1.61756,1.87698,-0.8386209,0.55273296,0.002746575
1764505726.4396155,8.63716,-1.61756,1.87698,-0.8386209,0.55273296,0.002746575
1764505726.4396155,8.63716,-1.61756,1.87698,-0.8386209,0.55273296,0.002746575
1764505726.4396155,8.63716,-1.61756,1.87698,-0.8386209,0.55273296,0.002746575
1764505726.4396155,4.059159999999999,1.77016,2.92992,-0.83532501,0.565123065,0.009460425
1764505726.4396155,4.059159999999999,1.77016,2.92992,-0.83532501,0.565123065,0.009460425
1764505726.4396155,4.059159999999999,1.77016,2.92992,-0.83532501,0.565123065,0.009460425
1764505726.4396155,4.059159999999999,1.77016,2.92992,-0.83532501,0.565123065,0.009460425
1764505726.4396155,4.059159999999999,1.77016,2.92992,-0.83532501,0.565123065,0.009460425
1764505726.4396155,4.059159999999999,1.77016,2.92992,-0.83532501,0.565123065,0.009460425
1764505726.4396155,4.059159999999999,1.77016,2.92992,-0.83532501,0.565123065,0.009460425
1764505726.4396155,4.059159999999999,1.77016,2.92992,-0.83532501,0.565123065,0.009460425
1764505726.4846752,4.059159999999999,1.77016,2.92992,-0.83532501,0.565123065,0.009460425
1764505726.4846752,4.059159999999999,1.77016,2.92992,-0.83532501,0.565123065,0.009460425
1764505726.4846752,-2.07536,6.1803,2.71628,-0.83019807,0.566709975,0.01428219
1764505726.4846752,-2.07536,6.1803,2.71628,-0.83019807,0.566709975,0.01428219
1764505726.4846752,-2.07536,6.1803,2.71628,-0.83019807,0.566709975,0.01428219
1764505726.4846752,-2.07536,6.1803,2.71628,-0.83019807,0.566709975,0.01428219
1764505726.4846752,-2.07536,6.1803,2.71628,-0.83019807,0.566709975,0.01428219
