Timestamp,GyroX,GyroY,GyroZ,AccX,AccY,AccZ
1764505255.2324543,-2.56368,0.96138,-0.06104,-0.8461892400000001,0.49975458,0.08019999
1764505255.2324543,-2.56368,0.96138,-0.06104,-0.8461892400000001,0.49975458,0.08019999
1764505255.2324543,-2.56368,0.96138,-0.06104,-0.8461892400000001,0.49975458,0.08019999
1764505255.2324543,-2.56368,0.96138,-0.06104,-0.8461892400000001,0.49975458,0.08019999
1764505255.2324543,-2.56368,0.96138,-0.06104,-0.8461892400000001,0.49975458,0.08019999
1764505255.233997,-2.56368,0.96138,-0.06104,-0.8461892400000001,0.49975458,0.08019999
1764505255.233997,-2.56368,0.96138,-0.06104,-0.8461892400000001,0.49975458,0.08019999
1764505255.233997,-2.56368,0.96138,-0.06104,-0.8461892400000001,0.49975458,0.08019999
1764505255.233997,-2.56368,0.96138,-0.06104,-0.8461892400000001,0.49975458,0.08019999
1764505255.233997,-2.39582,0.56462,-0.3051999999999999,-0.845395785,0.500548035,0.08166483
1764505255.233997,-2.39582,0.56462,-0.3051999999999999,-0.845395785,0.500548035,0.08166483
1764505255.233997,-2.39582,0.56462,-0.3051999999999999,-0.845395785,0.500548035,0.08166483
1764505255.233997,-2.39582,0.56462,-0.3051999999999999,-0.845395785,0.500548035,0.08166483
1764505255.233997,-2.39582,0.56462,-0.3051999999999999,-0.845395785,0.500548035,0.08166483
1764505255.233997,-2.39582,0.56462,-0.3051999999999999,-0.845395785,0.500548035,0.08166483
1764505255.233997,-2.39582,0.56462,-0.3051999999999999,-0.845395785,0.500548035,0.08166483
1764505255.233997,-2.39582,0.56462,-0.3051999999999999,-0.845395785,0.500548035,0.08166483
1764505255.233997,-2.39582,0.56462,-0.3051999999999999,-0.845395785,0.500548035,0.08166483
1764505255.233997,-2.39582,0.56462,-0.3051999999999999,-0.845395785,0.500548035,0.08166483
1764505255.233997,-2.57894,0.6103999999999999,-0.1525999999999999,-0.84631131,0.501646665,0.0830076
1764505255.233997,-2.57894,0.6103999999999999,-0.1525999999999999,-0.84631131,0.501646665,0.0830076
1764505255.237473,-2.57894,0.6103999999999999,-0.1525999999999999,-0.84631131,0.501646665,0.0830076
1764505255.237473,-2.57894,0.6103999999999999,-0.1525999999999999,-0.84631131,0.501646665,0.0830076
1764505255.2824352,-2.57894,0.6103999999999999,-0.1525999999999999,-0.84631131,0.501646665,0.0830076
1764505255.2824352,-2.57894,0.6103999999999999,-0.1525999999999999,-0.84631131,0.501646665,0.0830076
1764505255.2824352,-2.57894,0.6103999999999999,-0.1525999999999999,-0.84631131,0.501646665,0.0830076
1764505255.2824352,-2.57894,0.6103999999999999,-0.1525999999999999,-0.84631131,0.501646665,0.0830076
1764505255.2824352,-2.57894,0.6103999999999999,-0.1525999999999999,-0.84631131,0.501646665,0.0830076
1764505255.2824352,-2.57894,0.6103999999999999,-0.1525999999999999,-0.84631131,0.501646665,0.0830076
1764505255.2824352,-3.84552,0.57988,-0.13734,-0.846494415,0.50475945,0.08337381
1764505255.2824352,-3.84552,0.57988,-0.13734,-0.846494415,0.50475945,0.08337381
1764505255.2824352,-3.84552,0.57988,-0.13734,-0.846494415,0.50475945,0.08337381
1764505255.2824352,-3.84552,0.57988,-0.13734,-0.846494415,0.50475945,0.08337381
1764505255.2824352,-3.84552,0.57988,-0.13734,-0.846494415,0.50475945,0.08337381
1764505255.2824352,-3.84552,0.57988,-0.13734,-0.846494415,0.50475945,0.08337381
1764505255.2824352,-3.84552,0.57988,-0.13734,-0.846494415,0.50475945,0.08337381
1764505255.2824352,-3.84552,0.57988,-0.13734,-0.846494415,0.50475945,0.08337381
1764505255.2824352,-3.84552,0.57988,-0.13734,-0.846494415,0.50475945,0.08337381
1764505255.2824352,-3.84552,0.57988,-0.13734,-0.846494415,0.50475945,0.08337381
1764505255.2824352,-4.74586,1.34288,-0.8698199999999999,-0.84679959,0.505797045,0.08386209
1764505255.2824352,-4.74586,1.34288,-0.8698199999999999,-0.84679959,0.505797045,0.08386209
1764505255.2824352,-4.74586,1.34288,-0.8698199999999999,-0.84679959,0.505797045,0.08386209
1764505255.2824352,-4.74586,1.34288,-0.8698199999999999,-0.84679959,0.505797045,0.08386209
1764505255.2824352,-4.74586,1.34288,-0.8698199999999999,-0.84679959,0.505797045,0.08386209
1764505255.2824352,-4.74586,1.34288,-0.8698199999999999,-0.84679959,0.505797045,0.08386209
1764505255.3266954,-4.74586,1.34288,-0.8698199999999999,-0.84679959,0.505797045,0.08386209
1764505255.3266954,-4.74586,1.34288,-0.8698199999999999,-0.84679959,0.505797045,0.08386209
1764505255.3266954,-4.74586,1.34288,-0.8698199999999999,-0.84679959,0.505797045,0.08386209
1764505255.3266954,-4.74586,1.34288,-0.8698199999999999,-0.84679959,0.505797045,0.08386209
1764505255.3266954,-5.0358,1.46496,-0.73248,-0.847104765,0.5044542750000001,0.084167265
1764505255.3266954,-5.0358,1.46496,-0.73248,-0.847104765,0.5044542750000001,0.084167265
1764505255.3266954,-5.0358,1.46496,-0.73248,-0.847104765,0.5044542750000001,0.084167265
1764505255.3266954,-5.0358,1.46496,-0.73248,-0.847104765,0.5044542750000001,0.084167265
1764505255.3266954,-5.0358,1.46496,-0.73248,-0.847104765,0.5044542750000001,0.084167265
1764505255.3266954,-5.0358,1.46496,-0.73248,-0.847104765,0.5044542750000001,0.084167265
1764505255.3266954,-5.0358,1.46496,-0.73248,-0.847104765,0.5044542750000001,0.084167265
1764505255.3266954,-5.0358,1.46496,-0.73248,-0.847104765,0.5044542750000001,0.084167265
1764505255.3277128,-5.0358,1.46496,-0.73248,-0.847104765,0.5044542750000001,0.084167265
1764505255.3277128,-5.0358,1.46496,-0.73248,-0.847104765,0.5044542750000001,0.084167265
1764505255.3277128,-5.38678,1.89224,-0.3051999999999999,-0.84728787,0.5017077,0.084411405
1764505255.3277128,-5.38678,1.89224,-0.3051999999999999,-0.84728787,0.5017077,0.084411405
1764505255.3277128,-5.38678,1.89224,-0.3051999999999999,-0.84728787,0.5017077,0.084411405
1764505255.3277128,-5.38678,1.89224,-0.3051999999999999,-0.84728787,0.5017077,0.084411405
1764505255.3277128,-5.38678,1.89224,-0.3051999999999999,-0.84728787,0.5017077,0.084411405
1764505255.3277128,-5.38678,1.89224,-0.3051999999999999,-0.84728787,0.5017077,0.084411405
1764505255.3277128,-5.38678,1.89224,-0.3051999999999999,-0.84728787,0.5017077,0.084411405
1764505255.328765,-5.38678,1.89224,-0.3051999999999999,-0.84728787,0.5017077,0.084411405
1764505255.328765,-5.38678,1.89224,-0.3051999999999999,-0.84728787,0.5017077,0.084411405
1764505255.328765,-5.38678,1.89224,-0.3051999999999999,-0.84728787,0.5017077,0.084411405
1764505255.373384,-5.615679999999999,2.30426,0.1525999999999999,-0.847593045,0.49828974,0.08349588
1764505255.373384,-5.615679999999999,2.30426,0.1525999999999999,-0.847593045,0.49828974,0.08349588
1764505255.373384,-5.615679999999999,2.30426,0.1525999999999999,-0.847593045,0.49828974,0.08349588
1764505255.373384,-5.615679999999999,2.30426,0.1525999999999999,-0.847593045,0.49828974,0.08349588
1764505255.373384,-5.615679999999999,2.30426,0.1525999999999999,-0.847593045,0.49828974,0.08349588
1764505255.373384,-5.615679999999999,2.30426,0.1525999999999999,-0.847593045,0.49828974,0.08349588
1764505255.373384,-5.615679999999999,2.30426,0.1525999999999999,-0.847593045,0.49828974,0.08349588
1764505255.373384,-5.615679999999999,2.30426,0.1525999999999999,-0.847593045,0.49828974,0.08349588
1764505255.373384,-5.615679999999999,2.30426,0.1525999999999999,-0.847593045,0.49828974,0.08349588
1764505255.373384,-5.615679999999999,2.30426,0.1525999999999999,-0.847593045,0.49828974,0.08349588
1764505255.373384,-5.17314,1.63282,-0.06104,-0.848691675,0.49548213,0.081725865
1764505255.373384,-5.17314,1.63282,-0.06104,-0.848691675,0.49548213,0.081725865
1764505255.373384,-5.17314,1.63282,-0.06104,-0.848691675,0.49548213,0.081725865
1764505255.373384,-5.17314,1.63282,-0.06104,-0.848691675,0.49548213,0.081725865
1764505255.373384,-5.17314,1.63282,-0.06104,-0.848691675,0.49548213,0.081725865
1764505255.373384,-5.17314,1.63282,-0.06104,-0.848691675,0.49548213,0.081725865
1764505255.3745124,-5.17314,1.63282,-0.06104,-0.848691675,0.49548213,0.081725865
1764505255.3745124,-5.17314,1.63282,-0.06104,-0.848691675,0.49548213,0.081725865
1764505255.3745124,-5.17314,1.63282,-0.06104,-0.848691675,0.49548213,0.081725865
1764505255.3745124,-5.17314,1.63282,-0.06104,-0.848691675,0.49548213,0.081725865
1764505255.3745124,-3.5098,0.74774,0.1678599999999999,-0.84911892,0.493345905,0.08166483
1764505255.3745124,-3.5098,0.74774,0.1678599999999999,-0.84911892,0.493345905,0.08166483
1764505255.420904,-3.5098,0.74774,0.1678599999999999,-0.84911892,0.493345905,0.08166483
1764505255.420904,-3.5098,0.74774,0.1678599999999999,-0.84911892,0.493345905,0.08166483
1764505255.420904,-3.5098,0.74774,0.1678599999999999,-0.84911892,0.493345905,0.08166483
1764505255.420904,-3.5098,0.74774,0.1678599999999999,-0.84911892,0.493345905,0.08166483
1764505255.420904,-3.5098,0.74774,0.1678599999999999,-0.84911892,0.493345905,0.08166483
1764505255.420904,-3.5098,0.74774,0.1678599999999999,-0.84911892,0.493345905,0.08166483
1764505255.420904,-3.5098,0.74774,0.1678599999999999,-0.84911892,0.493345905,0.08166483
1764505255.420904,-3.5098,0.74774,0.1678599999999999,-0.84911892,0.493345905,0.08166483
1764505255.420904,-1.61756,0.8392999999999999,-0.2289,-0.8493630600000001,0.49304073,0.082214145
1764505255.420904,-1.61756,0.8392999999999999,-0.2289,-0.8493630600000001,0.49304073,0.082214145
1764505255.420904,-1.61756,0.8392999999999999,-0.2289,-0.8493630600000001,0.49304073,0.082214145
1764505255.420904,-1.61756,0.8392999999999999,-0.2289,-0.8493630600000001,0.49304073,0.082214145
1764505255.420904,-1.61756,0.8392999999999999,-0.2289,-0.8493630600000001,0.49304073,0.082214145
1764505255.420904,-1.61756,0.8392999999999999,-0.2289,-0.8493630600000001,0.49304073,0.082214145
1764505255.420904,-1.61756,0.8392999999999999,-0.2289,-0.8493630600000001,0.49304073,0.082214145
1764505255.4219189,-1.61756,0.8392999999999999,-0.2289,-0.8493630600000001,0.49304073,0.082214145
1764505255.4219189,-1.61756,0.8392999999999999,-0.2289,-0.8493630600000001,0.49304073,0.082214145
1764505255.4219189,-1.61756,0.8392999999999999,-0.2289,-0.8493630600000001,0.49304073,0.082214145
1764505255.4219189,-1.3734,0.763,0.48832,-0.849668235,0.494444535,0.08190897
1764505255.4219189,-1.3734,0.763,0.48832,-0.849668235,0.494444535,0.08190897
1764505255.4219189,-1.3734,0.763,0.48832,-0.849668235,0.494444535,0.08190897
1764505255.4219189,-1.3734,0.763,0.48832,-0.849668235,0.494444535,0.08190897
1764505255.4219189,-1.3734,0.763,0.48832,-0.849668235,0.494444535,0.08190897
1764505255.4219189,-1.3734,0.763,0.48832,-0.849668235,0.494444535,0.08190897
1764505255.4660518,-1.3734,0.763,0.48832,-0.849668235,0.494444535,0.08190897
1764505255.4660518,-1.3734,0.763,0.48832,-0.849668235,0.494444535,0.08190897
1764505255.4660518,-1.3734,0.763,0.48832,-0.849668235,0.494444535,0.08190897
1764505255.4660518,-1.3734,0.763,0.48832,-0.849668235,0.494444535,0.08190897
1764505255.4660518,-1.11398,-0.09156,0.09156,-0.84863064,0.497374215,0.08361795
1764505255.4660518,-1.11398,-0.09156,0.09156,-0.84863064,0.497374215,0.08361795
1764505255.4660518,-1.11398,-0.09156,0.09156,-0.84863064,0.497374215,0.08361795
1764505255.4660518,-1.11398,-0.09156,0.09156,-0.84863064,0.497374215,0.08361795
1764505255.4660518,-1.11398,-0.09156,0.09156,-0.84863064,0.497374215,0.08361795
1764505255.4660518,-1.11398,-0.09156,0.09156,-0.84863064,0.497374215,0.08361795
1764505255.4660518,-1.11398,-0.09156,0.09156,-0.84863064,0.497374215,0.08361795
1764505255.4660518,-1.11398,-0.09156,0.09156,-0.84863064,0.497374215,0.08361795
1764505255.4660518,-1.11398,-0.09156,0.09156,-0.84863064,0.497374215,0.08361795
1764505255.4660518,-1.11398,-0.09156,0.09156,-0.84863064,0.497374215,0.08361795
1764505255.4660518,-1.87698,1.19028,-0.47306,-0.845517855,0.49890009,0.08447244
1764505255.4660518,-1.87698,1.19028,-0.47306,-0.845517855,0.49890009,0.08447244
1764505255.4660518,-1.87698,1.19028,-0.47306,-0.845517855,0.49890009,0.08447244
1764505255.4660518,-1.87698,1.19028,-0.47306,-0.845517855,0.49890009,0.08447244
1764505255.4660518,-1.87698,1.19028,-0.47306,-0.845517855,0.49890009,0.08447244
1764505255.4660518,-1.87698,1.19028,-0.47306,-0.845517855,0.49890009,0.08447244
1764505255.4660518,-1.87698,1.19028,-0.47306,-0.845517855,0.49890009,0.08447244
1764505255.4660518,-1.87698,1.19028,-0.47306,-0.845517855,0.49890009,0.08447244
1764505255.4660518,-1.87698,1.19028,-0.47306,-0.845517855,0.49890009,0.08447244
1764505255.4660518,-1.87698,1.19028,-0.47306,-0.845517855,0.49890009,0.08447244
1764505255.5154617,-3.15882,2.39582,0.18312,-0.8451516450000001,0.500425965,0.08276346
1764505255.5154617,-3.15882,2.39582,0.18312,-0.8451516450000001,0.500425965,0.08276346
1764505255.5154617,-3.15882,2.39582,0.18312,-0.8451516450000001,0.500425965,0.08276346
1764505255.5154617,-3.15882,2.39582,0.18312,-0.8451516450000001,0.500425965,0.08276346
1764505255.5154617,-3.15882,2.39582,0.18312,-0.8451516450000001,0.500425965,0.08276346
1764505255.5154617,-3.15882,2.39582,0.18312,-0.8451516450000001,0.500425965,0.08276346
1764505255.5154617,-3.15882,2.39582,0.18312,-0.8451516450000001,0.500425965,0.08276346
1764505255.5154617,-3.15882,2.39582,0.18312,-0.8451516450000001,0.500425965,0.08276346
1764505255.516461,-3.15882,2.39582,0.18312,-0.8451516450000001,0.500425965,0.08276346
1764505255.516461,-3.15882,2.39582,0.18312,-0.8451516450000001,0.500425965,0.08276346
1764505255.516461,-7.81312,1.87698,0.97664,-0.8471658,0.503111505,0.081115515
1764505255.516461,-7.81312,1.87698,0.97664,-0.8471658,0.503111505,0.081115515
1764505255.516461,-7.81312,1.87698,0.97664,-0.8471658,0.503111505,0.081115515
1764505255.516461,-7.81312,1.87698,0.97664,-0.8471658,0.503111505,0.081115515
1764505255.516461,-7.81312,1.87698,0.97664,-0.8471658,0.503111505,0.081115515
1764505255.516461,-7.81312,1.87698,0.97664,-0.8471658,0.503111505,0.081115515
1764505255.5179698,-7.81312,1.87698,0.97664,-0.8471658,0.503111505,0.081115515
1764505255.5179698,-7.81312,1.87698,0.97664,-0.8471658,0.503111505,0.081115515
1764505255.5179698,-7.81312,1.87698,0.97664,-0.8471658,0.503111505,0.081115515
1764505255.5179698,-7.81312,1.87698,0.97664,-0.8471658,0.503111505,0.081115515
1764505255.5179698,-4.24228,0.36624,1.00716,-0.8488137450000001,0.50439324,0.0805662
1764505255.5179698,-4.24228,0.36624,1.00716,-0.8488137450000001,0.50439324,0.0805662
1764505255.5179698,-4.24228,0.36624,1.00716,-0.8488137450000001,0.50439324,0.0805662
1764505255.5179698,-4.24228,0.36624,1.00716,-0.8488137450000001,0.50439324,0.0805662
1764505255.558138,-4.24228,0.36624,1.00716,-0.8488137450000001,0.50439324,0.0805662
1764505255.558138,-4.24228,0.36624,1.00716,-0.8488137450000001,0.50439324,0.0805662
1764505255.5601556,-4.24228,0.36624,1.00716,-0.8488137450000001,0.50439324,0.0805662
1764505255.5601556,-4.24228,0.36624,1.00716,-0.8488137450000001,0.50439324,0.0805662
1764505255.5601556,-4.24228,0.36624,1.00716,-0.8488137450000001,0.50439324,0.0805662
1764505255.5601556,-4.24228,0.36624,1.00716,-0.8488137450000001,0.50439324,0.0805662
1764505255.5601556,-4.25754,0.9003399999999999,0.01526,-0.84814236,0.502257015,0.08264139
1764505255.5601556,-4.25754,0.9003399999999999,0.01526,-0.84814236,0.502257015,0.08264139
1764505255.5601556,-4.25754,0.9003399999999999,0.01526,-0.84814236,0.502257015,0.08264139
1764505255.5601556,-4.25754,0.9003399999999999,0.01526,-0.84814236,0.502257015,0.08264139
1764505255.5601556,-4.25754,0.9003399999999999,0.01526,-0.84814236,0.502257015,0.08264139
1764505255.5601556,-4.25754,0.9003399999999999,0.01526,-0.84814236,0.502257015,0.08264139
1764505255.5601556,-4.25754,0.9003399999999999,0.01526,-0.84814236,0.502257015,0.08264139
1764505255.5601556,-4.25754,0.9003399999999999,0.01526,-0.84814236,0.502257015,0.08264139
1764505255.5601556,-4.25754,0.9003399999999999,0.01526,-0.84814236,0.502257015,0.08264139
1764505255.5616653,-4.25754,0.9003399999999999,0.01526,-0.84814236,0.502257015,0.08264139
1764505255.5616653,-3.84552,2.47212,0.13734,-0.8471658,0.498106635,0.083556915
1764505255.5616653,-3.84552,2.47212,0.13734,-0.8471658,0.498106635,0.083556915
1764505255.5616653,-3.84552,2.47212,0.13734,-0.8471658,0.498106635,0.083556915
1764505255.5616653,-3.84552,2.47212,0.13734,-0.8471658,0.498106635,0.083556915
1764505255.5616653,-3.84552,2.47212,0.13734,-0.8471658,0.498106635,0.083556915
1764505255.5616653,-3.84552,2.47212,0.13734,-0.8471658,0.498106635,0.083556915
1764505255.6071513,-3.84552,2.47212,0.13734,-0.8471658,0.498106635,0.083556915
1764505255.6071513,-3.84552,2.47212,0.13734,-0.8471658,0.498106635,0.083556915
1764505255.6071513,-3.84552,2.47212,0.13734,-0.8471658,0.498106635,0.083556915
1764505255.6071513,-3.84552,2.47212,0.13734,-0.8471658,0.498106635,0.083556915
1764505255.6076918,-3.02148,2.62472,1.72438,-0.84667752,0.49670283,0.0830076
1764505255.6076918,-3.02148,2.62472,1.72438,-0.84667752,0.49670283,0.0830076
1764505255.6076918,-3.02148,2.62472,1.72438,-0.84667752,0.49670283,0.0830076
1764505255.6087132,-3.02148,2.62472,1.72438,-0.84667752,0.49670283,0.0830076
1764505255.6087132,-3.02148,2.62472,1.72438,-0.84667752,0.49670283,0.0830076
1764505255.6087132,-3.02148,2.62472,1.72438,-0.84667752,0.49670283,0.0830076
1764505255.6087132,-3.02148,2.62472,1.72438,-0.84667752,0.49670283,0.0830076
1764505255.609714,-3.02148,2.62472,1.72438,-0.84667752,0.49670283,0.0830076
1764505255.6103034,-3.02148,2.62472,1.72438,-0.84667752,0.49670283,0.0830076
1764505255.6103034,-3.02148,2.62472,1.72438,-0.84667752,0.49670283,0.0830076
1764505255.6103034,-2.7468,2.79258,1.55652,-0.847104765,0.49572627,0.082702425
1764505255.6103034,-2.7468,2.79258,1.55652,-0.847104765,0.49572627,0.082702425
1764505255.6103034,-2.7468,2.79258,1.55652,-0.847104765,0.49572627,0.082702425
1764505255.6103034,-2.7468,2.79258,1.55652,-0.847104765,0.49572627,0.082702425
1764505255.6103034,-2.7468,2.79258,1.55652,-0.847104765,0.49572627,0.082702425
1764505255.6103034,-2.7468,2.79258,1.55652,-0.847104765,0.49572627,0.082702425
1764505255.6103034,-2.7468,2.79258,1.55652,-0.847104765,0.49572627,0.082702425
1764505255.6103034,-2.7468,2.79258,1.55652,-0.847104765,0.49572627,0.082702425
1764505255.6555831,-2.7468,2.79258,1.55652,-0.847104765,0.49572627,0.082702425
1764505255.6555831,-2.7468,2.79258,1.55652,-0.847104765,0.49572627,0.082702425
1764505255.6555831,-3.52506,2.2127,0.9919,-0.84826443,0.49597041,0.0817869
1764505255.6555831,-3.52506,2.2127,0.9919,-0.84826443,0.49597041,0.0817869
1764505255.6565838,-3.52506,2.2127,0.9919,-0.84826443,0.49597041,0.0817869
1764505255.6565838,-3.52506,2.2127,0.9919,-0.84826443,0.49597041,0.0817869
1764505255.6565838,-3.52506,2.2127,0.9919,-0.84826443,0.49597041,0.0817869
1764505255.6565838,-3.52506,2.2127,0.9919,-0.84826443,0.49597041,0.0817869
1764505255.6565838,-3.52506,2.2127,0.9919,-0.84826443,0.49597041,0.0817869
1764505255.6565838,-3.52506,2.2127,0.9919,-0.84826443,0.49597041,0.0817869
1764505255.6565838,-3.52506,2.2127,0.9919,-0.84826443,0.49597041,0.0817869
1764505255.6565838,-3.52506,2.2127,0.9919,-0.84826443,0.49597041,0.0817869
1764505255.6565838,-2.50264,1.15976,0.97664,-0.850034445,0.496641795,0.08129862
1764505255.6565838,-2.50264,1.15976,0.97664,-0.850034445,0.496641795,0.08129862
1764505255.6565838,-2.50264,1.15976,0.97664,-0.850034445,0.496641795,0.08129862
1764505255.6565838,-2.50264,1.15976,0.97664,-0.850034445,0.496641795,0.08129862
1764505255.6565838,-2.50264,1.15976,0.97664,-0.850034445,0.496641795,0.08129862
1764505255.6565838,-2.50264,1.15976,0.97664,-0.850034445,0.496641795,0.08129862
1764505255.6565838,-2.50264,1.15976,0.97664,-0.850034445,0.496641795,0.08129862
1764505255.6565838,-2.50264,1.15976,0.97664,-0.850034445,0.496641795,0.08129862
1764505255.6565838,-2.50264,1.15976,0.97664,-0.850034445,0.496641795,0.08129862
1764505255.6565838,-2.50264,1.15976,0.97664,-0.850034445,0.496641795,0.08129862
1764505255.6565838,-1.8312,0.6714399999999999,1.3734,-0.84948513,0.4980456,0.07971171
1764505255.6565838,-1.8312,0.6714399999999999,1.3734,-0.84948513,0.4980456,0.07971171
1764505255.7026732,-1.8312,0.6714399999999999,1.3734,-0.84948513,0.4980456,0.07971171
1764505255.7026732,-1.8312,0.6714399999999999,1.3734,-0.84948513,0.4980456,0.07971171
1764505255.7026732,-1.8312,0.6714399999999999,1.3734,-0.84948513,0.4980456,0.07971171
1764505255.7026732,-1.8312,0.6714399999999999,1.3734,-0.84948513,0.4980456,0.07971171
1764505255.7026732,-1.8312,0.6714399999999999,1.3734,-0.84948513,0.4980456,0.07971171
1764505255.7026732,-1.8312,0.6714399999999999,1.3734,-0.84948513,0.4980456,0.07971171
1764505255.7026732,-1.8312,0.6714399999999999,1.3734,-0.84948513,0.4980456,0.07971171
1764505255.7026732,-1.8312,0.6714399999999999,1.3734,-0.84948513,0.4980456,0.07971171
1764505255.7026732,-1.8312,1.4039199999999998,1.58704,-0.847593045,0.500059755,0.0781248
1764505255.7026732,-1.8312,1.4039199999999998,1.58704,-0.847593045,0.500059755,0.0781248
1764505255.7026732,-1.8312,1.4039199999999998,1.58704,-0.847593045,0.500059755,0.0781248
1764505255.7026732,-1.8312,1.4039199999999998,1.58704,-0.847593045,0.500059755,0.0781248
1764505255.7026732,-1.8312,1.4039199999999998,1.58704,-0.847593045,0.500059755,0.0781248
1764505255.7026732,-1.8312,1.4039199999999998,1.58704,-0.847593045,0.500059755,0.0781248
1764505255.7026732,-1.8312,1.4039199999999998,1.58704,-0.847593045,0.500059755,0.0781248
1764505255.7026732,-1.8312,1.4039199999999998,1.58704,-0.847593045,0.500059755,0.0781248
1764505255.7026732,-1.8312,1.4039199999999998,1.58704,-0.847593045,0.500059755,0.0781248
1764505255.7026732,-1.8312,1.4039199999999998,1.58704,-0.847593045,0.500059755,0.0781248
1764505255.7026732,-1.70912,3.15882,1.48022,-0.845517855,0.502012875,0.077575485
1764505255.7026732,-1.70912,3.15882,1.48022,-0.845517855,0.502012875,0.077575485
1764505255.7026732,-1.70912,3.15882,1.48022,-0.845517855,0.502012875,0.077575485
1764505255.7026732,-1.70912,3.15882,1.48022,-0.845517855,0.502012875,0.077575485
1764505255.7026732,-1.70912,3.15882,1.48022,-0.845517855,0.502012875,0.077575485
1764505255.7041843,-1.70912,3.15882,1.48022,-0.845517855,0.502012875,0.077575485
1764505255.749684,-1.70912,3.15882,1.48022,-0.845517855,0.502012875,0.077575485
1764505255.749684,-1.70912,3.15882,1.48022,-0.845517855,0.502012875,0.077575485
1764505255.749684,-1.70912,3.15882,1.48022,-0.845517855,0.502012875,0.077575485
1764505255.749684,-1.70912,3.15882,1.48022,-0.845517855,0.502012875,0.077575485
1764505255.749684,-3.09778,2.68576,0.73248,-0.84533475,0.5050035900000001,0.07788066
1764505255.749684,-3.09778,2.68576,0.73248,-0.84533475,0.5050035900000001,0.07788066
1764505255.749684,-3.09778,2.68576,0.73248,-0.84533475,0.5050035900000001,0.07788066
1764505255.749684,-3.09778,2.68576,0.73248,-0.84533475,0.5050035900000001,0.07788066
1764505255.749684,-3.09778,2.68576,0.73248,-0.84533475,0.5050035900000001,0.07788066
1764505255.749684,-3.09778,2.68576,0.73248,-0.84533475,0.5050035900000001,0.07788066
1764505255.749684,-3.09778,2.68576,0.73248,-0.84533475,0.5050035900000001,0.07788066
1764505255.7506845,-3.09778,2.68576,0.73248,-0.84533475,0.5050035900000001,0.07788066
1764505255.7506845,-3.09778,2.68576,0.73248,-0.84533475,0.5050035900000001,0.07788066
1764505255.7506845,-3.09778,2.68576,0.73248,-0.84533475,0.5050035900000001,0.07788066
1764505255.7506845,-4.86794,1.58704,0.42728,-0.84631131,0.50720085,0.07873515
1764505255.7506845,-4.86794,1.58704,0.42728,-0.84631131,0.50720085,0.07873515
1764505255.7506845,-4.86794,1.58704,0.42728,-0.84631131,0.50720085,0.07873515
1764505255.7506845,-4.86794,1.58704,0.42728,-0.84631131,0.50720085,0.07873515
1764505255.7506845,-4.86794,1.58704,0.42728,-0.84631131,0.50720085,0.07873515
1764505255.7506845,-4.86794,1.58704,0.42728,-0.84631131,0.50720085,0.07873515
1764505255.7506845,-4.86794,1.58704,0.42728,-0.84631131,0.50720085,0.07873515
1764505255.7506845,-4.86794,1.58704,0.42728,-0.84631131,0.50720085,0.07873515
1764505255.7506845,-4.86794,1.58704,0.42728,-0.84631131,0.50720085,0.07873515
1764505255.7506845,-4.86794,1.58704,0.42728,-0.84631131,0.50720085,0.07873515
1764505255.7944446,-5.5699,2.0601,0.4578,-0.846372345,0.50768913,0.079040325
1764505255.7944446,-5.5699,2.0601,0.4578,-0.846372345,0.50768913,0.079040325
1764505255.7944446,-5.5699,2.0601,0.4578,-0.846372345,0.50768913,0.079040325
1764505255.7944446,-5.5699,2.0601,0.4578,-0.846372345,0.50768913,0.079040325
1764505255.7944446,-5.5699,2.0601,0.4578,-0.846372345,0.50768913,0.079040325
1764505255.7944446,-5.5699,2.0601,0.4578,-0.846372345,0.50768913,0.079040325
1764505255.7944446,-5.5699,2.0601,0.4578,-0.846372345,0.50768913,0.079040325
1764505255.7944446,-5.5699,2.0601,0.4578,-0.846372345,0.50768913,0.079040325
1764505255.79557,-5.5699,2.0601,0.4578,-0.846372345,0.50768913,0.079040325
1764505255.79557,-5.5699,2.0601,0.4578,-0.846372345,0.50768913,0.079040325
1764505255.79557,-5.17314,3.17408,0.21364,-0.845395785,0.50427117,0.07983378
1764505255.79557,-5.17314,3.17408,0.21364,-0.845395785,0.50427117,0.07983378
1764505255.79557,-5.17314,3.17408,0.21364,-0.845395785,0.50427117,0.07983378
1764505255.79557,-5.17314,3.17408,0.21364,-0.845395785,0.50427117,0.07983378
1764505255.79557,-5.17314,3.17408,0.21364,-0.845395785,0.50427117,0.07983378
1764505255.79557,-5.17314,3.17408,0.21364,-0.845395785,0.50427117,0.07983378
1764505255.79557,-5.17314,3.17408,0.21364,-0.845395785,0.50427117,0.07983378
1764505255.79557,-5.17314,3.17408,0.21364,-0.845395785,0.50427117,0.07983378
1764505255.79557,-5.17314,3.17408,0.21364,-0.845395785,0.50427117,0.07983378
1764505255.79557,-5.17314,3.17408,0.21364,-0.845395785,0.50427117,0.07983378
1764505255.79557,-4.47118,3.2809,-0.1525999999999999,-0.846250275,0.50012079,0.078918255
1764505255.79557,-4.47118,3.2809,-0.1525999999999999,-0.846250275,0.50012079,0.078918255
1764505255.79557,-4.47118,3.2809,-0.1525999999999999,-0.846250275,0.50012079,0.078918255
1764505255.79557,-4.47118,3.2809,-0.1525999999999999,-0.846250275,0.50012079,0.078918255
1764505255.8433547,-4.47118,3.2809,-0.1525999999999999,-0.846250275,0.50012079,0.078918255
1764505255.8433547,-4.47118,3.2809,-0.1525999999999999,-0.846250275,0.50012079,0.078918255
1764505255.8433547,-4.47118,3.2809,-0.1525999999999999,-0.846250275,0.50012079,0.078918255
1764505255.8433547,-4.47118,3.2809,-0.1525999999999999,-0.846250275,0.50012079,0.078918255
1764505255.844346,-4.47118,3.2809,-0.1525999999999999,-0.846250275,0.50012079,0.078918255
1764505255.844346,-4.47118,3.2809,-0.1525999999999999,-0.846250275,0.50012079,0.078918255
1764505255.844346,-4.22702,2.2127,0.4578,-0.847715115,0.497618355,0.07714824
1764505255.844346,-4.22702,2.2127,0.4578,-0.847715115,0.497618355,0.07714824
1764505255.844346,-4.22702,2.2127,0.4578,-0.847715115,0.497618355,0.07714824
1764505255.844346,-4.22702,2.2127,0.4578,-0.847715115,0.497618355,0.07714824
1764505255.844346,-4.22702,2.2127,0.4578,-0.847715115,0.497618355,0.07714824
1764505255.844346,-4.22702,2.2127,0.4578,-0.847715115,0.497618355,0.07714824
1764505255.844346,-4.22702,2.2127,0.4578,-0.847715115,0.497618355,0.07714824
1764505255.844346,-4.22702,2.2127,0.4578,-0.847715115,0.497618355,0.07714824
1764505255.844346,-4.22702,2.2127,0.4578,-0.847715115,0.497618355,0.07714824
1764505255.844346,-4.22702,2.2127,0.4578,-0.847715115,0.497618355,0.07714824
1764505255.844346,-3.29616,1.1445,0.57988,-0.848081325,0.49645869,0.076598925
1764505255.844346,-3.29616,1.1445,0.57988,-0.848081325,0.49645869,0.076598925
1764505255.844346,-3.29616,1.1445,0.57988,-0.848081325,0.49645869,0.076598925
1764505255.844346,-3.29616,1.1445,0.57988,-0.848081325,0.49645869,0.076598925
1764505255.844346,-3.29616,1.1445,0.57988,-0.848081325,0.49645869,0.076598925
1764505255.844346,-3.29616,1.1445,0.57988,-0.848081325,0.49645869,0.076598925
1764505255.8895333,-3.29616,1.1445,0.57988,-0.848081325,0.49645869,0.076598925
1764505255.8895333,-3.29616,1.1445,0.57988,-0.848081325,0.49645869,0.076598925
1764505255.8895333,-3.29616,1.1445,0.57988,-0.848081325,0.49645869,0.076598925
1764505255.8895333,-3.29616,1.1445,0.57988,-0.848081325,0.49645869,0.076598925
1764505255.8895333,-2.42634,1.2971,0.2289,-0.8483254650000001,0.49706904,0.075744435
1764505255.8895333,-2.42634,1.2971,0.2289,-0.8483254650000001,0.49706904,0.075744435
1764505255.8905408,-2.42634,1.2971,0.2289,-0.8483254650000001,0.49706904,0.075744435
1764505255.8905408,-2.42634,1.2971,0.2289,-0.8483254650000001,0.49706904,0.075744435
1764505255.8905408,-2.42634,1.2971,0.2289,-0.8483254650000001,0.49706904,0.075744435
1764505255.8905408,-2.42634,1.2971,0.2289,-0.8483254650000001,0.49706904,0.075744435
1764505255.8905408,-2.42634,1.2971,0.2289,-0.8483254650000001,0.49706904,0.075744435
1764505255.8905408,-2.42634,1.2971,0.2289,-0.8483254650000001,0.49706904,0.075744435
1764505255.8905408,-2.42634,1.2971,0.2289,-0.8483254650000001,0.49706904,0.075744435
1764505255.8905408,-2.42634,1.2971,0.2289,-0.8483254650000001,0.49706904,0.075744435
1764505255.8905408,-1.3734,0.9919,0.13734,-0.848569605,0.49767939,0.07604961
1764505255.8905408,-1.3734,0.9919,0.13734,-0.848569605,0.49767939,0.07604961
1764505255.8905408,-1.3734,0.9919,0.13734,-0.848569605,0.49767939,0.07604961
1764505255.8905408,-1.3734,0.9919,0.13734,-0.848569605,0.49767939,0.07604961
1764505255.8905408,-1.3734,0.9919,0.13734,-0.848569605,0.49767939,0.07604961
1764505255.8905408,-1.3734,0.9919,0.13734,-0.848569605,0.49767939,0.07604961
1764505255.8905408,-1.3734,0.9919,0.13734,-0.848569605,0.49767939,0.07604961
1764505255.8905408,-1.3734,0.9919,0.13734,-0.848569605,0.49767939,0.07604961
1764505255.8905408,-1.3734,0.9919,0.13734,-0.848569605,0.49767939,0.07604961
1764505255.8905408,-1.3734,0.9919,0.13734,-0.848569605,0.49767939,0.07604961
1764505255.9348254,-0.7019599999999999,0.77826,0.56462,-0.848081325,0.499693545,0.07678203
1764505255.9348254,-0.7019599999999999,0.77826,0.56462,-0.848081325,0.499693545,0.07678203
1764505255.9348254,-0.7019599999999999,0.77826,0.56462,-0.848081325,0.499693545,0.07678203
1764505255.9348254,-0.7019599999999999,0.77826,0.56462,-0.848081325,0.499693545,0.07678203
1764505255.9348254,-0.7019599999999999,0.77826,0.56462,-0.848081325,0.499693545,0.07678203
1764505255.9348254,-0.7019599999999999,0.77826,0.56462,-0.848081325,0.499693545,0.07678203
1764505255.9348254,-0.7019599999999999,0.77826,0.56462,-0.848081325,0.499693545,0.07678203
1764505255.9348254,-0.7019599999999999,0.77826,0.56462,-0.848081325,0.499693545,0.07678203
1764505255.9348254,-0.7019599999999999,0.77826,0.56462,-0.848081325,0.499693545,0.07678203
1764505255.9348254,-0.7019599999999999,0.77826,0.56462,-0.848081325,0.499693545,0.07678203
1764505255.9348254,-1.99906,0.27468,0.65618,-0.84802029,0.50231805,0.076965135
1764505255.9348254,-1.99906,0.27468,0.65618,-0.84802029,0.50231805,0.076965135
1764505255.9348254,-1.99906,0.27468,0.65618,-0.84802029,0.50231805,0.076965135
1764505255.9348254,-1.99906,0.27468,0.65618,-0.84802029,0.50231805,0.076965135
1764505255.9348254,-1.99906,0.27468,0.65618,-0.84802029,0.50231805,0.076965135
1764505255.9358406,-1.99906,0.27468,0.65618,-0.84802029,0.50231805,0.076965135
1764505255.9358406,-1.99906,0.27468,0.65618,-0.84802029,0.50231805,0.076965135
1764505255.9358406,-1.99906,0.27468,0.65618,-0.84802029,0.50231805,0.076965135
1764505255.9358406,-1.99906,0.27468,0.65618,-0.84802029,0.50231805,0.076965135
1764505255.9358406,-1.99906,0.27468,0.65618,-0.84802029,0.50231805,0.076965135
1764505255.9358406,-2.6705,0.96138,0.50358,-0.84667752,0.50524773,0.077209275
1764505255.9358406,-2.6705,0.96138,0.50358,-0.84667752,0.50524773,0.077209275
1764505255.9809198,-2.6705,0.96138,0.50358,-0.84667752,0.50524773,0.077209275
1764505255.9809198,-2.6705,0.96138,0.50358,-0.84667752,0.50524773,0.077209275
1764505255.9809198,-2.6705,0.96138,0.50358,-0.84667752,0.50524773,0.077209275
1764505255.9809198,-2.6705,0.96138,0.50358,-0.84667752,0.50524773,0.077209275
1764505255.9809198,-2.6705,0.96138,0.50358,-0.84667752,0.50524773,0.077209275
1764505255.9809198,-2.6705,0.96138,0.50358,-0.84667752,0.50524773,0.077209275
1764505255.9809198,-2.6705,0.96138,0.50358,-0.84667752,0.50524773,0.077209275
1764505255.9809198,-2.6705,0.96138,0.50358,-0.84667752,0.50524773,0.077209275
1764505255.9809198,-3.37246,1.8312,0.44254,-0.8457009600000001,0.505919115,0.07788066
1764505255.9809198,-3.37246,1.8312,0.44254,-0.8457009600000001,0.505919115,0.07788066
1764505255.9809198,-3.37246,1.8312,0.44254,-0.8457009600000001,0.505919115,0.07788066
1764505255.9809198,-3.37246,1.8312,0.44254,-0.8457009600000001,0.505919115,0.07788066
1764505255.9809198,-3.37246,1.8312,0.44254,-0.8457009600000001,0.505919115,0.07788066
1764505255.9809198,-3.37246,1.8312,0.44254,-0.8457009600000001,0.505919115,0.07788066
1764505255.9809198,-3.37246,1.8312,0.44254,-0.8457009600000001,0.505919115,0.07788066
1764505255.9809198,-3.37246,1.8312,0.44254,-0.8457009600000001,0.505919115,0.07788066
1764505255.9809198,-3.37246,1.8312,0.44254,-0.8457009600000001,0.505919115,0.07788066
1764505255.9809198,-3.37246,1.8312,0.44254,-0.8457009600000001,0.505919115,0.07788066
1764505255.9809198,-4.2728,2.07536,-0.09156,-0.845395785,0.503965995,0.077209275
1764505255.9809198,-4.2728,2.07536,-0.09156,-0.845395785,0.503965995,0.077209275
1764505255.9809198,-4.2728,2.07536,-0.09156,-0.845395785,0.503965995,0.077209275
1764505255.9809198,-4.2728,2.07536,-0.09156,-0.845395785,0.503965995,0.077209275
1764505255.9809198,-4.2728,2.07536,-0.09156,-0.845395785,0.503965995,0.077209275
1764505255.9809198,-4.2728,2.07536,-0.09156,-0.845395785,0.503965995,0.077209275
1764505256.025459,-4.2728,2.07536,-0.09156,-0.845395785,0.503965995,0.077209275
1764505256.025459,-4.2728,2.07536,-0.09156,-0.845395785,0.503965995,0.077209275
1764505256.025459,-4.2728,2.07536,-0.09156,-0.845395785,0.503965995,0.077209275
1764505256.025459,-4.2728,2.07536,-0.09156,-0.845395785,0.503965995,0.077209275
1764505256.0274642,-4.74586,2.16692,-0.03052,-0.846006135,0.502867365,0.0769041
1764505256.0274642,-4.74586,2.16692,-0.03052,-0.846006135,0.502867365,0.0769041
1764505256.0274642,-4.74586,2.16692,-0.03052,-0.846006135,0.502867365,0.0769041
1764505256.0274642,-4.74586,2.16692,-0.03052,-0.846006135,0.502867365,0.0769041
1764505256.0274642,-4.74586,2.16692,-0.03052,-0.846006135,0.502867365,0.0769041
1764505256.0274642,-4.74586,2.16692,-0.03052,-0.846006135,0.502867365,0.0769041
1764505256.0274642,-4.74586,2.16692,-0.03052,-0.846006135,0.502867365,0.0769041
1764505256.0274642,-4.74586,2.16692,-0.03052,-0.846006135,0.502867365,0.0769041
1764505256.0274642,-4.74586,2.16692,-0.03052,-0.846006135,0.502867365,0.0769041
1764505256.0274642,-4.74586,2.16692,-0.03052,-0.846006135,0.502867365,0.0769041
1764505256.0274642,-4.77638,1.0682,0.13734,-0.846494415,0.50146356,0.075866505
1764505256.0274642,-4.77638,1.0682,0.13734,-0.846494415,0.50146356,0.075866505
1764505256.0274642,-4.77638,1.0682,0.13734,-0.846494415,0.50146356,0.075866505
1764505256.0274642,-4.77638,1.0682,0.13734,-0.846494415,0.50146356,0.075866505
1764505256.0274642,-4.77638,1.0682,0.13734,-0.846494415,0.50146356,0.075866505
1764505256.0274642,-4.77638,1.0682,0.13734,-0.846494415,0.50146356,0.075866505
1764505256.0274642,-4.77638,1.0682,0.13734,-0.846494415,0.50146356,0.075866505
1764505256.0274642,-4.77638,1.0682,0.13734,-0.846494415,0.50146356,0.075866505
1764505256.029227,-4.77638,1.0682,0.13734,-0.846494415,0.50146356,0.075866505
1764505256.029227,-4.77638,1.0682,0.13734,-0.846494415,0.50146356,0.075866505
1764505256.0724127,-4.86794,0.71722,0.36624,-0.846982695,0.500181825,0.075378225
1764505256.0724127,-4.86794,0.71722,0.36624,-0.846982695,0.500181825,0.075378225
1764505256.0724127,-4.86794,0.71722,0.36624,-0.846982695,0.500181825,0.075378225
1764505256.0724127,-4.86794,0.71722,0.36624,-0.846982695,0.500181825,0.075378225
1764505256.0724127,-4.86794,0.71722,0.36624,-0.846982695,0.500181825,0.075378225
1764505256.0724127,-4.86794,0.71722,0.36624,-0.846982695,0.500181825,0.075378225
1764505256.073953,-4.86794,0.71722,0.36624,-0.846982695,0.500181825,0.075378225
1764505256.073953,-4.86794,0.71722,0.36624,-0.846982695,0.500181825,0.075378225
1764505256.073953,-4.86794,0.71722,0.36624,-0.846982695,0.500181825,0.075378225
1764505256.073953,-4.86794,0.71722,0.36624,-0.846982695,0.500181825,0.075378225
1764505256.073953,-4.53222,0.9919,0.57988,-0.8472268350000001,0.49963251,0.075256155
1764505256.073953,-4.53222,0.9919,0.57988,-0.8472268350000001,0.49963251,0.075256155
1764505256.073953,-4.53222,0.9919,0.57988,-0.8472268350000001,0.49963251,0.075256155
1764505256.073953,-4.53222,0.9919,0.57988,-0.8472268350000001,0.49963251,0.075256155
1764505256.073953,-4.53222,0.9919,0.57988,-0.8472268350000001,0.49963251,0.075256155
1764505256.073953,-4.53222,0.9919,0.57988,-0.8472268350000001,0.49963251,0.075256155
1764505256.073953,-4.53222,0.9919,0.57988,-0.8472268350000001,0.49963251,0.075256155
1764505256.073953,-4.53222,0.9919,0.57988,-0.8472268350000001,0.49963251,0.075256155
1764505256.073953,-4.53222,0.9919,0.57988,-0.8472268350000001,0.49963251,0.075256155
1764505256.073953,-4.53222,0.9919,0.57988,-0.8472268350000001,0.49963251,0.075256155
1764505256.0744903,-4.822159999999999,1.00716,0.36624,-0.84765408,0.498716985,0.0769041
1764505256.0744903,-4.822159999999999,1.00716,0.36624,-0.84765408,0.498716985,0.0769041
1764505256.1183908,-4.822159999999999,1.00716,0.36624,-0.84765408,0.498716985,0.0769041
1764505256.1183908,-4.822159999999999,1.00716,0.36624,-0.84765408,0.498716985,0.0769041
1764505256.1183908,-4.822159999999999,1.00716,0.36624,-0.84765408,0.498716985,0.0769041
1764505256.1194096,-4.822159999999999,1.00716,0.36624,-0.84765408,0.498716985,0.0769041
1764505256.1194096,-4.822159999999999,1.00716,0.36624,-0.84765408,0.498716985,0.0769041
1764505256.1194096,-4.822159999999999,1.00716,0.36624,-0.84765408,0.498716985,0.0769041
1764505256.1194096,-4.822159999999999,1.00716,0.36624,-0.84765408,0.498716985,0.0769041
1764505256.1194096,-4.822159999999999,1.00716,0.36624,-0.84765408,0.498716985,0.0769041
1764505256.1194096,-4.41014,0.57988,0.24416,-0.846860625,0.498228705,0.07836894
1764505256.1194096,-4.41014,0.57988,0.24416,-0.846860625,0.498228705,0.07836894
1764505256.1194096,-4.41014,0.57988,0.24416,-0.846860625,0.498228705,0.07836894
1764505256.1194096,-4.41014,0.57988,0.24416,-0.846860625,0.498228705,0.07836894
1764505256.1204836,-4.41014,0.57988,0.24416,-0.846860625,0.498228705,0.07836894
1764505256.1204836,-4.41014,0.57988,0.24416,-0.846860625,0.498228705,0.07836894
1764505256.1204836,-4.41014,0.57988,0.24416,-0.846860625,0.498228705,0.07836894
1764505256.1214807,-4.41014,0.57988,0.24416,-0.846860625,0.498228705,0.07836894
1764505256.1214807,-4.41014,0.57988,0.24416,-0.846860625,0.498228705,0.07836894
1764505256.1214807,-4.41014,0.57988,0.24416,-0.846860625,0.498228705,0.07836894
1764505256.1214807,-5.1121,1.15976,0.24416,-0.84667752,0.49816767,0.079040325
1764505256.1214807,-5.1121,1.15976,0.24416,-0.84667752,0.49816767,0.079040325
1764505256.1214807,-5.1121,1.15976,0.24416,-0.84667752,0.49816767,0.079040325
1764505256.1214807,-5.1121,1.15976,0.24416,-0.84667752,0.49816767,0.079040325
1764505256.1656332,-5.1121,1.15976,0.24416,-0.84667752,0.49816767,0.079040325
1764505256.1656332,-5.1121,1.15976,0.24416,-0.84667752,0.49816767,0.079040325
1764505256.1666503,-5.1121,1.15976,0.24416,-0.84667752,0.49816767,0.079040325
1764505256.1666503,-5.1121,1.15976,0.24416,-0.84667752,0.49816767,0.079040325
1764505256.1666503,-5.1121,1.15976,0.24416,-0.84667752,0.49816767,0.079040325
1764505256.1666503,-5.1121,1.15976,0.24416,-0.84667752,0.49816767,0.079040325
1764505256.1666503,-5.98192,1.6786,-0.09156,-0.8459451,0.499205265,0.07873515
1764505256.1666503,-5.98192,1.6786,-0.09156,-0.8459451,0.499205265,0.07873515
1764505256.168658,-5.98192,1.6786,-0.09156,-0.8459451,0.499205265,0.07873515
1764505256.168658,-5.98192,1.6786,-0.09156,-0.8459451,0.499205265,0.07873515
1764505256.168658,-5.98192,1.6786,-0.09156,-0.8459451,0.499205265,0.07873515
1764505256.168658,-5.98192,1.6786,-0.09156,-0.8459451,0.499205265,0.07873515
1764505256.168658,-5.98192,1.6786,-0.09156,-0.8459451,0.499205265,0.07873515
1764505256.1696627,-5.98192,1.6786,-0.09156,-0.8459451,0.499205265,0.07873515
1764505256.1696627,-5.98192,1.6786,-0.09156,-0.8459451,0.499205265,0.07873515
1764505256.1696627,-5.98192,1.6786,-0.09156,-0.8459451,0.499205265,0.07873515
1764505256.1696627,-5.46308,1.3734,1.1445,-0.84850857,0.500059755,0.078552045
1764505256.1696627,-5.46308,1.3734,1.1445,-0.84850857,0.500059755,0.078552045
1764505256.1706803,-5.46308,1.3734,1.1445,-0.84850857,0.500059755,0.078552045
1764505256.1706803,-5.46308,1.3734,1.1445,-0.84850857,0.500059755,0.078552045
1764505256.1706803,-5.46308,1.3734,1.1445,-0.84850857,0.500059755,0.078552045
1764505256.1706803,-5.46308,1.3734,1.1445,-0.84850857,0.500059755,0.078552045
1764505256.1706803,-5.46308,1.3734,1.1445,-0.84850857,0.500059755,0.078552045
1764505256.1706803,-5.46308,1.3734,1.1445,-0.84850857,0.500059755,0.078552045
1764505256.2158835,-5.46308,1.3734,1.1445,-0.84850857,0.500059755,0.078552045
1764505256.2158835,-5.46308,1.3734,1.1445,-0.84850857,0.500059755,0.078552045
1764505256.2158835,-5.40204,0.50358,0.2289,-0.850644795,0.500181825,0.078063765
1764505256.2158835,-5.40204,0.50358,0.2289,-0.850644795,0.500181825,0.078063765
1764505256.2158835,-5.40204,0.50358,0.2289,-0.850644795,0.500181825,0.078063765
1764505256.2158835,-5.40204,0.50358,0.2289,-0.850644795,0.500181825,0.078063765
1764505256.2158835,-5.40204,0.50358,0.2289,-0.850644795,0.500181825,0.078063765
1764505256.2158835,-5.40204,0.50358,0.2289,-0.850644795,0.500181825,0.078063765
1764505256.2158835,-5.40204,0.50358,0.2289,-0.850644795,0.500181825,0.078063765
1764505256.2158835,-5.40204,0.50358,0.2289,-0.850644795,0.500181825,0.078063765
1764505256.2158835,-5.40204,0.50358,0.2289,-0.850644795,0.500181825,0.078063765
1764505256.2158835,-5.40204,0.50358,0.2289,-0.850644795,0.500181825,0.078063765
1764505256.2158835,-4.63904,1.23606,0.2289,-0.84850857,0.500059755,0.077941695
1764505256.2158835,-4.63904,1.23606,0.2289,-0.84850857,0.500059755,0.077941695
1764505256.2158835,-4.63904,1.23606,0.2289,-0.84850857,0.500059755,0.077941695
1764505256.2158835,-4.63904,1.23606,0.2289,-0.84850857,0.500059755,0.077941695
1764505256.2158835,-4.63904,1.23606,0.2289,-0.84850857,0.500059755,0.077941695
1764505256.2158835,-4.63904,1.23606,0.2289,-0.84850857,0.500059755,0.077941695
1764505256.2158835,-4.63904,1.23606,0.2289,-0.84850857,0.500059755,0.077941695
1764505256.2158835,-4.63904,1.23606,0.2289,-0.84850857,0.500059755,0.077941695
1764505256.2158835,-4.63904,1.23606,0.2289,-0.84850857,0.500059755,0.077941695
1764505256.2158835,-4.63904,1.23606,0.2289,-0.84850857,0.500059755,0.077941695
1764505256.2158835,-4.33384,1.00716,0.1525999999999999,-0.847104765,0.499327335,0.077453415
1764505256.2158835,-4.33384,1.00716,0.1525999999999999,-0.847104765,0.499327335,0.077453415
1764505256.259851,-4.33384,1.00716,0.1525999999999999,-0.847104765,0.499327335,0.077453415
1764505256.259851,-4.33384,1.00716,0.1525999999999999,-0.847104765,0.499327335,0.077453415
1764505256.259851,-4.33384,1.00716,0.1525999999999999,-0.847104765,0.499327335,0.077453415
1764505256.259851,-4.33384,1.00716,0.1525999999999999,-0.847104765,0.499327335,0.077453415
1764505256.259851,-4.33384,1.00716,0.1525999999999999,-0.847104765,0.499327335,0.077453415
1764505256.2608838,-4.33384,1.00716,0.1525999999999999,-0.847104765,0.499327335,0.077453415
1764505256.2608838,-4.33384,1.00716,0.1525999999999999,-0.847104765,0.499327335,0.077453415
1764505256.2608838,-4.33384,1.00716,0.1525999999999999,-0.847104765,0.499327335,0.077453415
1764505256.2608838,-4.715339999999999,1.23606,0.6409199999999999,-0.8457009600000001,0.49975458,0.07861308
1764505256.2608838,-4.715339999999999,1.23606,0.6409199999999999,-0.8457009600000001,0.49975458,0.07861308
1764505256.2608838,-4.715339999999999,1.23606,0.6409199999999999,-0.8457009600000001,0.49975458,0.07861308
1764505256.2608838,-4.715339999999999,1.23606,0.6409199999999999,-0.8457009600000001,0.49975458,0.07861308
1764505256.2608838,-4.715339999999999,1.23606,0.6409199999999999,-0.8457009600000001,0.49975458,0.07861308
1764505256.2608838,-4.715339999999999,1.23606,0.6409199999999999,-0.8457009600000001,0.49975458,0.07861308
1764505256.2608838,-4.715339999999999,1.23606,0.6409199999999999,-0.8457009600000001,0.49975458,0.07861308
1764505256.2608838,-4.715339999999999,1.23606,0.6409199999999999,-0.8457009600000001,0.49975458,0.07861308
1764505256.2608838,-4.715339999999999,1.23606,0.6409199999999999,-0.8457009600000001,0.49975458,0.07861308
1764505256.2608838,-4.715339999999999,1.23606,0.6409199999999999,-0.8457009600000001,0.49975458,0.07861308
1764505256.2608838,-5.46308,1.2208,0.93086,-0.845517855,0.500425965,0.078185835
1764505256.2608838,-5.46308,1.2208,0.93086,-0.845517855,0.500425965,0.078185835
1764505256.2608838,-5.46308,1.2208,0.93086,-0.845517855,0.500425965,0.078185835
1764505256.2608838,-5.46308,1.2208,0.93086,-0.845517855,0.500425965,0.078185835
1764505256.2608838,-5.46308,1.2208,0.93086,-0.845517855,0.500425965,0.078185835
1764505256.2608838,-5.46308,1.2208,0.93086,-0.845517855,0.500425965,0.078185835
1764505256.3045638,-5.46308,1.2208,0.93086,-0.845517855,0.500425965,0.078185835
1764505256.305119,-5.46308,1.2208,0.93086,-0.845517855,0.500425965,0.078185835
1764505256.305119,-5.46308,1.2208,0.93086,-0.845517855,0.500425965,0.078185835
1764505256.305119,-5.46308,1.2208,0.93086,-0.845517855,0.500425965,0.078185835
1764505256.305119,-7.14168,1.84646,0.6867,-0.84692166,0.50231805,0.07849101
1764505256.305119,-7.14168,1.84646,0.6867,-0.84692166,0.50231805,0.07849101
1764505256.305119,-7.14168,1.84646,0.6867,-0.84692166,0.50231805,0.07849101
1764505256.305119,-7.14168,1.84646,0.6867,-0.84692166,0.50231805,0.07849101
1764505256.305119,-7.14168,1.84646,0.6867,-0.84692166,0.50231805,0.07849101
1764505256.305119,-7.14168,1.84646,0.6867,-0.84692166,0.50231805,0.07849101
1764505256.305119,-7.14168,1.84646,0.6867,-0.84692166,0.50231805,0.07849101
1764505256.305119,-7.14168,1.84646,0.6867,-0.84692166,0.50231805,0.07849101
1764505256.305119,-7.14168,1.84646,0.6867,-0.84692166,0.50231805,0.07849101
1764505256.305119,-7.14168,1.84646,0.6867,-0.84692166,0.50231805,0.07849101
1764505256.305119,-6.821219999999999,1.3734,0.48832,-0.847104765,0.502867365,0.079406535
1764505256.305119,-6.821219999999999,1.3734,0.48832,-0.847104765,0.502867365,0.079406535
1764505256.305119,-6.821219999999999,1.3734,0.48832,-0.847104765,0.502867365,0.079406535
1764505256.305119,-6.821219999999999,1.3734,0.48832,-0.847104765,0.502867365,0.079406535
1764505256.305119,-6.821219999999999,1.3734,0.48832,-0.847104765,0.502867365,0.079406535
1764505256.305119,-6.821219999999999,1.3734,0.48832,-0.847104765,0.502867365,0.079406535
1764505256.305119,-6.821219999999999,1.3734,0.48832,-0.847104765,0.502867365,0.079406535
1764505256.305119,-6.821219999999999,1.3734,0.48832,-0.847104765,0.502867365,0.079406535
1764505256.3492389,-6.821219999999999,1.3734,0.48832,-0.847104765,0.502867365,0.079406535
1764505256.3492389,-6.821219999999999,1.3734,0.48832,-0.847104765,0.502867365,0.079406535
1764505256.3492389,-5.69198,0.7019599999999999,1.23606,-0.8471658,0.502501155,0.07873515
1764505256.3492389,-5.69198,0.7019599999999999,1.23606,-0.8471658,0.502501155,0.07873515
1764505256.3502586,-5.69198,0.7019599999999999,1.23606,-0.8471658,0.502501155,0.07873515
1764505256.3502586,-5.69198,0.7019599999999999,1.23606,-0.8471658,0.502501155,0.07873515
1764505256.3502586,-5.69198,0.7019599999999999,1.23606,-0.8471658,0.502501155,0.07873515
1764505256.3502586,-5.69198,0.7019599999999999,1.23606,-0.8471658,0.502501155,0.07873515
1764505256.3502586,-5.69198,0.7019599999999999,1.23606,-0.8471658,0.502501155,0.07873515
1764505256.3502586,-5.69198,0.7019599999999999,1.23606,-0.8471658,0.502501155,0.07873515
1764505256.3502586,-5.69198,0.7019599999999999,1.23606,-0.8471658,0.502501155,0.07873515
1764505256.3502586,-5.69198,0.7019599999999999,1.23606,-0.8471658,0.502501155,0.07873515
1764505256.3502586,-4.97476,0.77826,1.23606,-0.847104765,0.50121942,0.07849101
1764505256.3502586,-4.97476,0.77826,1.23606,-0.847104765,0.50121942,0.07849101
1764505256.3502586,-4.97476,0.77826,1.23606,-0.847104765,0.50121942,0.07849101
1764505256.3502586,-4.97476,0.77826,1.23606,-0.847104765,0.50121942,0.07849101
1764505256.3502586,-4.97476,0.77826,1.23606,-0.847104765,0.50121942,0.07849101
1764505256.3502586,-4.97476,0.77826,1.23606,-0.847104765,0.50121942,0.07849101
1764505256.3502586,-4.97476,0.77826,1.23606,-0.847104765,0.50121942,0.07849101
1764505256.3502586,-4.97476,0.77826,1.23606,-0.847104765,0.50121942,0.07849101
1764505256.3512545,-4.97476,0.77826,1.23606,-0.847104765,0.50121942,0.07849101
1764505256.3512545,-4.97476,0.77826,1.23606,-0.847104765,0.50121942,0.07849101
1764505256.398859,-4.440659999999999,1.11398,0.41202,-0.8457009600000001,0.50036493,0.078063765
1764505256.398859,-4.440659999999999,1.11398,0.41202,-0.8457009600000001,0.50036493,0.078063765
1764505256.398859,-4.440659999999999,1.11398,0.41202,-0.8457009600000001,0.50036493,0.078063765
1764505256.398859,-4.440659999999999,1.11398,0.41202,-0.8457009600000001,0.50036493,0.078063765
1764505256.398859,-4.440659999999999,1.11398,0.41202,-0.8457009600000001,0.50036493,0.078063765
1764505256.398859,-4.440659999999999,1.11398,0.41202,-0.8457009600000001,0.50036493,0.078063765
1764505256.398859,-4.440659999999999,1.11398,0.41202,-0.8457009600000001,0.50036493,0.078063765
1764505256.398859,-4.440659999999999,1.11398,0.41202,-0.8457009600000001,0.50036493,0.078063765
1764505256.398859,-4.440659999999999,1.11398,0.41202,-0.8457009600000001,0.50036493,0.078063765
1764505256.398859,-4.440659999999999,1.11398,0.41202,-0.8457009600000001,0.50036493,0.078063765
1764505256.398859,-4.5017,1.54126,0.12208,-0.845273715,0.49902216,0.07849101
1764505256.398859,-4.5017,1.54126,0.12208,-0.845273715,0.49902216,0.07849101
1764505256.398859,-4.5017,1.54126,0.12208,-0.845273715,0.49902216,0.07849101
1764505256.398859,-4.5017,1.54126,0.12208,-0.845273715,0.49902216,0.07849101
1764505256.398859,-4.5017,1.54126,0.12208,-0.845273715,0.49902216,0.07849101
1764505256.398859,-4.5017,1.54126,0.12208,-0.845273715,0.49902216,0.07849101
1764505256.398859,-4.5017,1.54126,0.12208,-0.845273715,0.49902216,0.07849101
1764505256.398859,-4.5017,1.54126,0.12208,-0.845273715,0.49902216,0.07849101
1764505256.3998797,-4.5017,1.54126,0.12208,-0.845273715,0.49902216,0.07849101
1764505256.3998797,-4.5017,1.54126,0.12208,-0.845273715,0.49902216,0.07849101
1764505256.3998797,-5.38678,1.38866,0.4578,-0.846250275,0.49963251,0.07836894
1764505256.3998797,-5.38678,1.38866,0.4578,-0.846250275,0.49963251,0.07836894
1764505256.3998797,-5.38678,1.38866,0.4578,-0.846250275,0.49963251,0.07836894
1764505256.3998797,-5.38678,1.38866,0.4578,-0.846250275,0.49963251,0.07836894
1764505256.4442973,-5.38678,1.38866,0.4578,-0.846250275,0.49963251,0.07836894
1764505256.4442973,-5.38678,1.38866,0.4578,-0.846250275,0.49963251,0.07836894
1764505256.4442973,-5.38678,1.38866,0.4578,-0.846250275,0.49963251,0.07836894
1764505256.4442973,-5.38678,1.38866,0.4578,-0.846250275,0.49963251,0.07836894
1764505256.4442973,-5.38678,1.38866,0.4578,-0.846250275,0.49963251,0.07836894
1764505256.4442973,-5.38678,1.38866,0.4578,-0.846250275,0.49963251,0.07836894
1764505256.4442973,-5.2647,0.2289,0.27468,-0.84814236,0.500670105,0.078429975
1764505256.4442973,-5.2647,0.2289,0.27468,-0.84814236,0.500670105,0.078429975
1764505256.4442973,-5.2647,0.2289,0.27468,-0.84814236,0.500670105,0.078429975
1764505256.4442973,-5.2647,0.2289,0.27468,-0.84814236,0.500670105,0.078429975
1764505256.4442973,-5.2647,0.2289,0.27468,-0.84814236,0.500670105,0.078429975
1764505256.4442973,-5.2647,0.2289,0.27468,-0.84814236,0.500670105,0.078429975
1764505256.4442973,-5.2647,0.2289,0.27468,-0.84814236,0.500670105,0.078429975
1764505256.4442973,-5.2647,0.2289,0.27468,-0.84814236,0.500670105,0.078429975
1764505256.4442973,-5.2647,0.2289,0.27468,-0.84814236,0.500670105,0.078429975
1764505256.4453108,-5.2647,0.2289,0.27468,-0.84814236,0.500670105,0.078429975
1764505256.4453108,-4.79164,0.50358,-0.4578,-0.8477761500000001,0.50060907,0.07922343
1764505256.4453108,-4.79164,0.50358,-0.4578,-0.8477761500000001,0.50060907,0.07922343
1764505256.4453108,-4.79164,0.50358,-0.4578,-0.8477761500000001,0.50060907,0.07922343
1764505256.4453108,-4.79164,0.50358,-0.4578,-0.8477761500000001,0.50060907,0.07922343
1764505256.4453108,-4.79164,0.50358,-0.4578,-0.8477761500000001,0.50060907,0.07922343
1764505256.4453108,-4.79164,0.50358,-0.4578,-0.8477761500000001,0.50060907,0.07922343
1764505256.4458232,-4.79164,0.50358,-0.4578,-0.8477761500000001,0.50060907,0.07922343
1764505256.4458232,-4.79164,0.50358,-0.4578,-0.8477761500000001,0.50060907,0.07922343
1764505256.4916277,-4.79164,0.50358,-0.4578,-0.8477761500000001,0.50060907,0.07922343
1764505256.4916277,-4.79164,0.50358,-0.4578,-0.8477761500000001,0.50060907,0.07922343
1764505256.4916277,-4.37962,-0.4578,-0.77826,-0.8477761500000001,0.501036315,0.080383095
1764505256.4916277,-4.37962,-0.4578,-0.77826,-0.8477761500000001,0.501036315,0.080383095
1764505256.4916277,-4.37962,-0.4578,-0.77826,-0.8477761500000001,0.501036315,0.080383095
1764505256.4916277,-4.37962,-0.4578,-0.77826,-0.8477761500000001,0.501036315,0.080383095
1764505256.4916277,-4.37962,-0.4578,-0.77826,-0.8477761500000001,0.501036315,0.080383095
1764505256.4916277,-4.37962,-0.4578,-0.77826,-0.8477761500000001,0.501036315,0.080383095
1764505256.4916277,-4.37962,-0.4578,-0.77826,-0.8477761500000001,0.501036315,0.080383095
1764505256.4916277,-4.37962,-0.4578,-0.77826,-0.8477761500000001,0.501036315,0.080383095
1764505256.4916277,-4.37962,-0.4578,-0.77826,-0.8477761500000001,0.501036315,0.080383095
1764505256.4916277,-4.37962,-0.4578,-0.77826,-0.8477761500000001,0.501036315,0.080383095
1764505256.4916277,-3.83026,0.62566,0.47306,-0.84753201,0.50085321,0.080261025
1764505256.4916277,-3.83026,0.62566,0.47306,-0.84753201,0.50085321,0.080261025
1764505256.4916277,-3.83026,0.62566,0.47306,-0.84753201,0.50085321,0.080261025
1764505256.4916277,-3.83026,0.62566,0.47306,-0.84753201,0.50085321,0.080261025
1764505256.4916277,-3.83026,0.62566,0.47306,-0.84753201,0.50085321,0.080261025
1764505256.4926434,-3.83026,0.62566,0.47306,-0.84753201,0.50085321,0.080261025
1764505256.4926434,-3.83026,0.62566,0.47306,-0.84753201,0.50085321,0.080261025
1764505256.4926434,-3.83026,0.62566,0.47306,-0.84753201,0.50085321,0.080261025
1764505256.4926434,-3.83026,0.62566,0.47306,-0.84753201,0.50085321,0.080261025
1764505256.4926434,-3.83026,0.62566,0.47306,-0.84753201,0.50085321,0.080261025
1764505256.4926434,-4.7306,0.62566,0.6867,-0.84704373,0.50195184,0.08007792
1764505256.4926434,-4.7306,0.62566,0.6867,-0.84704373,0.50195184,0.08007792
1764505256.5416217,-4.7306,0.62566,0.6867,-0.84704373,0.50195184,0.08007792
1764505256.5416217,-4.7306,0.62566,0.6867,-0.84704373,0.50195184,0.08007792
1764505256.5416217,-4.7306,0.62566,0.6867,-0.84704373,0.50195184,0.08007792
1764505256.5416217,-4.7306,0.62566,0.6867,-0.84704373,0.50195184,0.08007792
1764505256.5416217,-4.7306,0.62566,0.6867,-0.84704373,0.50195184,0.08007792
1764505256.5416217,-4.7306,0.62566,0.6867,-0.84704373,0.50195184,0.08007792
1764505256.5416217,-4.7306,0.62566,0.6867,-0.84704373,0.50195184,0.08007792
1764505256.5416217,-4.7306,0.62566,0.6867,-0.84704373,0.50195184,0.08007792
1764505256.5416217,-4.48644,1.15976,0.1525999999999999,-0.84667752,0.501768735,0.07897929
1764505256.5416217,-4.48644,1.15976,0.1525999999999999,-0.84667752,0.501768735,0.07897929
1764505256.5416217,-4.48644,1.15976,0.1525999999999999,-0.84667752,0.501768735,0.07897929
1764505256.5426228,-4.48644,1.15976,0.1525999999999999,-0.84667752,0.501768735,0.07897929
1764505256.5426228,-4.48644,1.15976,0.1525999999999999,-0.84667752,0.501768735,0.07897929
1764505256.5426228,-4.48644,1.15976,0.1525999999999999,-0.84667752,0.501768735,0.07897929
1764505256.5426228,-4.48644,1.15976,0.1525999999999999,-0.84667752,0.501768735,0.07897929
1764505256.5426228,-4.48644,1.15976,0.1525999999999999,-0.84667752,0.501768735,0.07897929
1764505256.5426228,-4.48644,1.15976,0.1525999999999999,-0.84667752,0.501768735,0.07897929
1764505256.5426228,-4.48644,1.15976,0.1525999999999999,-0.84667752,0.501768735,0.07897929
1764505256.5426228,-4.21176,0.73248,-0.19838,-0.84704373,0.500548035,0.078429975
1764505256.5426228,-4.21176,0.73248,-0.19838,-0.84704373,0.500548035,0.078429975
1764505256.5426228,-4.21176,0.73248,-0.19838,-0.84704373,0.500548035,0.078429975
1764505256.5426228,-4.21176,0.73248,-0.19838,-0.84704373,0.500548035,0.078429975
1764505256.5426228,-4.21176,0.73248,-0.19838,-0.84704373,0.500548035,0.078429975
1764505256.5426228,-4.21176,0.73248,-0.19838,-0.84704373,0.500548035,0.078429975
1764505256.587159,-4.21176,0.73248,-0.19838,-0.84704373,0.500548035,0.078429975
1764505256.587159,-4.21176,0.73248,-0.19838,-0.84704373,0.500548035,0.078429975
1764505256.587159,-4.21176,0.73248,-0.19838,-0.84704373,0.500548035,0.078429975
1764505256.587159,-4.21176,0.73248,-0.19838,-0.84704373,0.500548035,0.078429975
1764505256.587159,-3.57084,-0.27468,-0.28994,-0.84740994,0.499937685,0.07885722
1764505256.587159,-3.57084,-0.27468,-0.28994,-0.84740994,0.499937685,0.07885722
1764505256.587159,-3.57084,-0.27468,-0.28994,-0.84740994,0.499937685,0.07885722
1764505256.587159,-3.57084,-0.27468,-0.28994,-0.84740994,0.499937685,0.07885722
1764505256.587159,-3.57084,-0.27468,-0.28994,-0.84740994,0.499937685,0.07885722
1764505256.587159,-3.57084,-0.27468,-0.28994,-0.84740994,0.499937685,0.07885722
1764505256.587159,-3.57084,-0.27468,-0.28994,-0.84740994,0.499937685,0.07885722
1764505256.587159,-3.57084,-0.27468,-0.28994,-0.84740994,0.499937685,0.07885722
1764505256.5882478,-3.57084,-0.27468,-0.28994,-0.84740994,0.499937685,0.07885722
1764505256.5882478,-3.57084,-0.27468,-0.28994,-0.84740994,0.499937685,0.07885722
1764505256.5882478,-3.40298,0.0762999999999999,0.25942,-0.847959255,0.499449405,0.07995585
1764505256.5882478,-3.40298,0.0762999999999999,0.25942,-0.847959255,0.499449405,0.07995585
1764505256.5882478,-3.40298,0.0762999999999999,0.25942,-0.847959255,0.499449405,0.07995585
1764505256.5882478,-3.40298,0.0762999999999999,0.25942,-0.847959255,0.499449405,0.07995585
1764505256.5882478,-3.40298,0.0762999999999999,0.25942,-0.847959255,0.499449405,0.07995585
1764505256.5882478,-3.40298,0.0762999999999999,0.25942,-0.847959255,0.499449405,0.07995585
1764505256.5882478,-3.40298,0.0762999999999999,0.25942,-0.847959255,0.499449405,0.07995585
1764505256.5882478,-3.40298,0.0762999999999999,0.25942,-0.847959255,0.499449405,0.07995585
1764505256.6317194,-3.40298,0.0762999999999999,0.25942,-0.847959255,0.499449405,0.07995585
1764505256.6317194,-3.40298,0.0762999999999999,0.25942,-0.847959255,0.499449405,0.07995585
1764505256.6317194,-3.47928,0.57988,0.47306,-0.84765408,0.50024286,0.080138955
1764505256.6322284,-3.47928,0.57988,0.47306,-0.84765408,0.50024286,0.080138955
1764505256.6322284,-3.47928,0.57988,0.47306,-0.84765408,0.50024286,0.080138955
1764505256.6322284,-3.47928,0.57988,0.47306,-0.84765408,0.50024286,0.080138955
1764505256.6322284,-3.47928,0.57988,0.47306,-0.84765408,0.50024286,0.080138955
1764505256.6322284,-3.47928,0.57988,0.47306,-0.84765408,0.50024286,0.080138955
1764505256.6322284,-3.47928,0.57988,0.47306,-0.84765408,0.50024286,0.080138955
1764505256.6322284,-3.47928,0.57988,0.47306,-0.84765408,0.50024286,0.080138955
1764505256.6322284,-3.47928,0.57988,0.47306,-0.84765408,0.50024286,0.080138955
1764505256.6322284,-3.47928,0.57988,0.47306,-0.84765408,0.50024286,0.080138955
1764505256.6322284,-4.45592,0.65618,0.12208,-0.84753201,0.50182977,0.0805662
1764505256.6322284,-4.45592,0.65618,0.12208,-0.84753201,0.50182977,0.0805662
1764505256.6322284,-4.45592,0.65618,0.12208,-0.84753201,0.50182977,0.0805662
1764505256.6322284,-4.45592,0.65618,0.12208,-0.84753201,0.50182977,0.0805662
1764505256.6322284,-4.45592,0.65618,0.12208,-0.84753201,0.50182977,0.0805662
1764505256.6322284,-4.45592,0.65618,0.12208,-0.84753201,0.50182977,0.0805662
1764505256.6322284,-4.45592,0.65618,0.12208,-0.84753201,0.50182977,0.0805662
1764505256.6322284,-4.45592,0.65618,0.12208,-0.84753201,0.50182977,0.0805662
1764505256.6322284,-4.45592,0.65618,0.12208,-0.84753201,0.50182977,0.0805662
1764505256.6322284,-4.45592,0.65618,0.12208,-0.84753201,0.50182977,0.0805662
1764505256.6322284,-5.31048,0.41202,-0.19838,-0.8467385550000001,0.503355645,0.08117655
1764505256.6322284,-5.31048,0.41202,-0.19838,-0.8467385550000001,0.503355645,0.08117655
1764505256.682429,-5.31048,0.41202,-0.19838,-0.8467385550000001,0.503355645,0.08117655
1764505256.682429,-5.31048,0.41202,-0.19838,-0.8467385550000001,0.503355645,0.08117655
1764505256.683418,-5.31048,0.41202,-0.19838,-0.8467385550000001,0.503355645,0.08117655
1764505256.683418,-5.31048,0.41202,-0.19838,-0.8467385550000001,0.503355645,0.08117655
1764505256.683418,-5.31048,0.41202,-0.19838,-0.8467385550000001,0.503355645,0.08117655
1764505256.683418,-5.31048,0.41202,-0.19838,-0.8467385550000001,0.503355645,0.08117655
1764505256.683418,-5.31048,0.41202,-0.19838,-0.8467385550000001,0.503355645,0.08117655
1764505256.683418,-5.31048,0.41202,-0.19838,-0.8467385550000001,0.503355645,0.08117655
1764505256.683418,-6.04296,0.96138,0.10682,-0.846006135,0.503355645,0.08239725
1764505256.683418,-6.04296,0.96138,0.10682,-0.846006135,0.503355645,0.08239725
1764505256.683418,-6.04296,0.96138,0.10682,-0.846006135,0.503355645,0.08239725
1764505256.683418,-6.04296,0.96138,0.10682,-0.846006135,0.503355645,0.08239725
1764505256.683418,-6.04296,0.96138,0.10682,-0.846006135,0.503355645,0.08239725
1764505256.683418,-6.04296,0.96138,0.10682,-0.846006135,0.503355645,0.08239725
1764505256.683418,-6.04296,0.96138,0.10682,-0.846006135,0.503355645,0.08239725
1764505256.683418,-6.04296,0.96138,0.10682,-0.846006135,0.503355645,0.08239725
1764505256.683418,-6.04296,0.96138,0.10682,-0.846006135,0.503355645,0.08239725
1764505256.683418,-6.04296,0.96138,0.10682,-0.846006135,0.503355645,0.08239725
1764505256.683418,-6.027699999999999,1.43444,0.42728,-0.846860625,0.5017077,0.0817869
1764505256.683418,-6.027699999999999,1.43444,0.42728,-0.846860625,0.5017077,0.0817869
1764505256.683418,-6.027699999999999,1.43444,0.42728,-0.846860625,0.5017077,0.0817869
1764505256.683418,-6.027699999999999,1.43444,0.42728,-0.846860625,0.5017077,0.0817869
1764505256.7293582,-6.027699999999999,1.43444,0.42728,-0.846860625,0.5017077,0.0817869
1764505256.7293582,-6.027699999999999,1.43444,0.42728,-0.846860625,0.5017077,0.0817869
1764505256.7293582,-6.027699999999999,1.43444,0.42728,-0.846860625,0.5017077,0.0817869
1764505256.7293582,-6.027699999999999,1.43444,0.42728,-0.846860625,0.5017077,0.0817869
1764505256.7293582,-6.027699999999999,1.43444,0.42728,-0.846860625,0.5017077,0.0817869
1764505256.7293582,-6.027699999999999,1.43444,0.42728,-0.846860625,0.5017077,0.0817869
1764505256.7293582,-5.92088,1.2971,-0.06104,-0.847959255,0.500670105,0.080871375
1764505256.7293582,-5.92088,1.2971,-0.06104,-0.847959255,0.500670105,0.080871375
1764505256.7293582,-5.92088,1.2971,-0.06104,-0.847959255,0.500670105,0.080871375
1764505256.7293582,-5.92088,1.2971,-0.06104,-0.847959255,0.500670105,0.080871375
1764505256.7293582,-5.92088,1.2971,-0.06104,-0.847959255,0.500670105,0.080871375
1764505256.7293582,-5.92088,1.2971,-0.06104,-0.847959255,0.500670105,0.080871375
1764505256.7293582,-5.92088,1.2971,-0.06104,-0.847959255,0.500670105,0.080871375
1764505256.7293582,-5.92088,1.2971,-0.06104,-0.847959255,0.500670105,0.080871375
1764505256.7293582,-5.92088,1.2971,-0.06104,-0.847959255,0.500670105,0.080871375
1764505256.7293582,-5.92088,1.2971,-0.06104,-0.847959255,0.500670105,0.080871375
1764505256.7293582,-5.4936,1.41918,0.1525999999999999,-0.84740994,0.499571475,0.080261025
1764505256.7293582,-5.4936,1.41918,0.1525999999999999,-0.84740994,0.499571475,0.080261025
1764505256.7293582,-5.4936,1.41918,0.1525999999999999,-0.84740994,0.499571475,0.080261025
1764505256.7293582,-5.4936,1.41918,0.1525999999999999,-0.84740994,0.499571475,0.080261025
1764505256.7293582,-5.4936,1.41918,0.1525999999999999,-0.84740994,0.499571475,0.080261025
1764505256.7293582,-5.4936,1.41918,0.1525999999999999,-0.84740994,0.499571475,0.080261025
1764505256.7293582,-5.4936,1.41918,0.1525999999999999,-0.84740994,0.499571475,0.080261025
1764505256.7293582,-5.4936,1.41918,0.1525999999999999,-0.84740994,0.499571475,0.080261025
1764505256.7746542,-5.4936,1.41918,0.1525999999999999,-0.84740994,0.499571475,0.080261025
1764505256.7746542,-5.4936,1.41918,0.1525999999999999,-0.84740994,0.499571475,0.080261025
1764505256.7746542,-4.92898,0.8392999999999999,0.21364,-0.848081325,0.497984565,0.08019999
1764505256.7746542,-4.92898,0.8392999999999999,0.21364,-0.848081325,0.497984565,0.08019999
1764505256.7746542,-4.92898,0.8392999999999999,0.21364,-0.848081325,0.497984565,0.08019999
1764505256.7746542,-4.92898,0.8392999999999999,0.21364,-0.848081325,0.497984565,0.08019999
1764505256.7746542,-4.92898,0.8392999999999999,0.21364,-0.848081325,0.497984565,0.08019999
1764505256.7756686,-4.92898,0.8392999999999999,0.21364,-0.848081325,0.497984565,0.08019999
1764505256.7766688,-4.92898,0.8392999999999999,0.21364,-0.848081325,0.497984565,0.08019999
1764505256.7766688,-4.92898,0.8392999999999999,0.21364,-0.848081325,0.497984565,0.08019999
1764505256.7766688,-4.92898,0.8392999999999999,0.21364,-0.848081325,0.497984565,0.08019999
1764505256.7766688,-4.92898,0.8392999999999999,0.21364,-0.848081325,0.497984565,0.08019999
1764505256.7766688,-3.99812,0.19838,0.4578,-0.847470975,0.4980456,0.081115515
1764505256.7766688,-3.99812,0.19838,0.4578,-0.847470975,0.4980456,0.081115515
1764505256.7766688,-3.99812,0.19838,0.4578,-0.847470975,0.4980456,0.081115515
1764505256.7766688,-3.99812,0.19838,0.4578,-0.847470975,0.4980456,0.081115515
1764505256.7766688,-3.99812,0.19838,0.4578,-0.847470975,0.4980456,0.081115515
1764505256.77818,-3.99812,0.19838,0.4578,-0.847470975,0.4980456,0.081115515
1764505256.77818,-3.99812,0.19838,0.4578,-0.847470975,0.4980456,0.081115515
1764505256.77818,-3.99812,0.19838,0.4578,-0.847470975,0.4980456,0.081115515
1764505256.7791915,-3.99812,0.19838,0.4578,-0.847470975,0.4980456,0.081115515
1764505256.7791915,-3.99812,0.19838,0.4578,-0.847470975,0.4980456,0.081115515
1764505256.779683,-3.87604,1.15976,-0.18312,-0.845884065,0.49792353,0.082092075
1764505256.779683,-3.87604,1.15976,-0.18312,-0.845884065,0.49792353,0.082092075
1764505256.779683,-3.87604,1.15976,-0.18312,-0.845884065,0.49792353,0.082092075
1764505256.779683,-3.87604,1.15976,-0.18312,-0.845884065,0.49792353,0.082092075
1764505256.8242996,-3.87604,1.15976,-0.18312,-0.845884065,0.49792353,0.082092075
1764505256.8242996,-3.87604,1.15976,-0.18312,-0.845884065,0.49792353,0.082092075
1764505256.8242996,-3.87604,1.15976,-0.18312,-0.845884065,0.49792353,0.082092075
1764505256.8253105,-3.87604,1.15976,-0.18312,-0.845884065,0.49792353,0.082092075
1764505256.8253105,-3.87604,1.15976,-0.18312,-0.845884065,0.49792353,0.082092075
1764505256.8253105,-3.87604,1.15976,-0.18312,-0.845884065,0.49792353,0.082092075
1764505256.8253105,-4.76112,2.1364,0.04578,-0.8467385550000001,0.499205265,0.08142069
1764505256.8263154,-4.76112,2.1364,0.04578,-0.8467385550000001,0.499205265,0.08142069
1764505256.8263154,-4.76112,2.1364,0.04578,-0.8467385550000001,0.499205265,0.08142069
1764505256.8263154,-4.76112,2.1364,0.04578,-0.8467385550000001,0.499205265,0.08142069
1764505256.8263154,-4.76112,2.1364,0.04578,-0.8467385550000001,0.499205265,0.08142069
1764505256.826914,-4.76112,2.1364,0.04578,-0.8467385550000001,0.499205265,0.08142069
1764505256.826914,-4.76112,2.1364,0.04578,-0.8467385550000001,0.499205265,0.08142069
1764505256.826914,-4.76112,2.1364,0.04578,-0.8467385550000001,0.499205265,0.08142069
1764505256.826914,-4.76112,2.1364,0.04578,-0.8467385550000001,0.499205265,0.08142069
1764505256.826914,-4.76112,2.1364,0.04578,-0.8467385550000001,0.499205265,0.08142069
1764505256.8277586,-4.83742,1.3734,1.17502,-0.849057885,0.501036315,0.081115515
1764505256.8277586,-4.83742,1.3734,1.17502,-0.849057885,0.501036315,0.081115515
1764505256.8277586,-4.83742,1.3734,1.17502,-0.849057885,0.501036315,0.081115515
1764505256.8277586,-4.83742,1.3734,1.17502,-0.849057885,0.501036315,0.081115515
1764505256.8277586,-4.83742,1.3734,1.17502,-0.849057885,0.501036315,0.081115515
1764505256.8277586,-4.83742,1.3734,1.17502,-0.849057885,0.501036315,0.081115515
1764505256.867746,-4.83742,1.3734,1.17502,-0.849057885,0.501036315,0.081115515
1764505256.8683722,-4.83742,1.3734,1.17502,-0.849057885,0.501036315,0.081115515
1764505256.8683722,-4.83742,1.3734,1.17502,-0.849057885,0.501036315,0.081115515
1764505256.8683722,-4.83742,1.3734,1.17502,-0.849057885,0.501036315,0.081115515
1764505256.8683722,-5.40204,0.09156,0.6409199999999999,-0.851255145,0.502623225,0.08142069
1764505256.8683722,-5.40204,0.09156,0.6409199999999999,-0.851255145,0.502623225,0.08142069
1764505256.8683722,-5.40204,0.09156,0.6409199999999999,-0.851255145,0.502623225,0.08142069
1764505256.8683722,-5.40204,0.09156,0.6409199999999999,-0.851255145,0.502623225,0.08142069
1764505256.8683722,-5.40204,0.09156,0.6409199999999999,-0.851255145,0.502623225,0.08142069
1764505256.8683722,-5.40204,0.09156,0.6409199999999999,-0.851255145,0.502623225,0.08142069
1764505256.8683722,-5.40204,0.09156,0.6409199999999999,-0.851255145,0.502623225,0.08142069
1764505256.8683722,-5.40204,0.09156,0.6409199999999999,-0.851255145,0.502623225,0.08142069
1764505256.8683722,-5.40204,0.09156,0.6409199999999999,-0.851255145,0.502623225,0.08142069
1764505256.8683722,-5.40204,0.09156,0.6409199999999999,-0.851255145,0.502623225,0.08142069
1764505256.8683722,-6.43972,-0.1525999999999999,-0.36624,-0.848935815,0.5029284,0.082092075
1764505256.8683722,-6.43972,-0.1525999999999999,-0.36624,-0.848935815,0.5029284,0.082092075
1764505256.8683722,-6.43972,-0.1525999999999999,-0.36624,-0.848935815,0.5029284,0.082092075
1764505256.8683722,-6.43972,-0.1525999999999999,-0.36624,-0.848935815,0.5029284,0.082092075
1764505256.8683722,-6.43972,-0.1525999999999999,-0.36624,-0.848935815,0.5029284,0.082092075
1764505256.8683722,-6.43972,-0.1525999999999999,-0.36624,-0.848935815,0.5029284,0.082092075
1764505256.8683722,-6.43972,-0.1525999999999999,-0.36624,-0.848935815,0.5029284,0.082092075
1764505256.8683722,-6.43972,-0.1525999999999999,-0.36624,-0.848935815,0.5029284,0.082092075
1764505256.869912,-6.43972,-0.1525999999999999,-0.36624,-0.848935815,0.5029284,0.082092075
1764505256.869912,-6.43972,-0.1525999999999999,-0.36624,-0.848935815,0.5029284,0.082092075
1764505256.9175682,-6.104,1.9075,-0.12208,-0.84704373,0.50060907,0.082702425
1764505256.9175682,-6.104,1.9075,-0.12208,-0.84704373,0.50060907,0.082702425
1764505256.9175682,-6.104,1.9075,-0.12208,-0.84704373,0.50060907,0.082702425
1764505256.9175682,-6.104,1.9075,-0.12208,-0.84704373,0.50060907,0.082702425
1764505256.9175682,-6.104,1.9075,-0.12208,-0.84704373,0.50060907,0.082702425
1764505256.9175682,-6.104,1.9075,-0.12208,-0.84704373,0.50060907,0.082702425
1764505256.9175682,-6.104,1.9075,-0.12208,-0.84704373,0.50060907,0.082702425
1764505256.9175682,-6.104,1.9075,-0.12208,-0.84704373,0.50060907,0.082702425
1764505256.9175682,-6.104,1.9075,-0.12208,-0.84704373,0.50060907,0.082702425
1764505256.9175682,-6.104,1.9075,-0.12208,-0.84704373,0.50060907,0.082702425
1764505256.9175682,-4.79164,2.04484,0.9919,-0.846982695,0.498839055,0.082824495
1764505256.9175682,-4.79164,2.04484,0.9919,-0.846982695,0.498839055,0.082824495
1764505256.9175682,-4.79164,2.04484,0.9919,-0.846982695,0.498839055,0.082824495
1764505256.918577,-4.79164,2.04484,0.9919,-0.846982695,0.498839055,0.082824495
1764505256.918577,-4.79164,2.04484,0.9919,-0.846982695,0.498839055,0.082824495
1764505256.918577,-4.79164,2.04484,0.9919,-0.846982695,0.498839055,0.082824495
1764505256.918577,-4.79164,2.04484,0.9919,-0.846982695,0.498839055,0.082824495
1764505256.918577,-4.79164,2.04484,0.9919,-0.846982695,0.498839055,0.082824495
1764505256.918577,-4.79164,2.04484,0.9919,-0.846982695,0.498839055,0.082824495
1764505256.918577,-4.79164,2.04484,0.9919,-0.846982695,0.498839055,0.082824495
1764505256.918577,-4.822159999999999,1.6786,1.32762,-0.847959255,0.497984565,0.082458285
1764505256.918577,-4.822159999999999,1.6786,1.32762,-0.847959255,0.497984565,0.082458285
1764505256.918577,-4.822159999999999,1.6786,1.32762,-0.847959255,0.497984565,0.082458285
1764505256.918577,-4.822159999999999,1.6786,1.32762,-0.847959255,0.497984565,0.082458285
1764505256.9626656,-4.822159999999999,1.6786,1.32762,-0.847959255,0.497984565,0.082458285
1764505256.9626656,-4.822159999999999,1.6786,1.32762,-0.847959255,0.497984565,0.082458285
1764505256.9626656,-4.822159999999999,1.6786,1.32762,-0.847959255,0.497984565,0.082458285
1764505256.9626656,-4.822159999999999,1.6786,1.32762,-0.847959255,0.497984565,0.082458285
1764505256.9626656,-4.822159999999999,1.6786,1.32762,-0.847959255,0.497984565,0.082458285
1764505256.9626656,-4.822159999999999,1.6786,1.32762,-0.847959255,0.497984565,0.082458285
1764505256.9626656,-5.69198,1.17502,1.00716,-0.8483254650000001,0.49902216,0.08203104
1764505256.9626656,-5.69198,1.17502,1.00716,-0.8483254650000001,0.49902216,0.08203104
1764505256.9626656,-5.69198,1.17502,1.00716,-0.8483254650000001,0.49902216,0.08203104
1764505256.9626656,-5.69198,1.17502,1.00716,-0.8483254650000001,0.49902216,0.08203104
1764505256.9626656,-5.69198,1.17502,1.00716,-0.8483254650000001,0.49902216,0.08203104
1764505256.9626656,-5.69198,1.17502,1.00716,-0.8483254650000001,0.49902216,0.08203104
1764505256.9626656,-5.69198,1.17502,1.00716,-0.8483254650000001,0.49902216,0.08203104
1764505256.9626656,-5.69198,1.17502,1.00716,-0.8483254650000001,0.49902216,0.08203104
1764505256.9626656,-5.69198,1.17502,1.00716,-0.8483254650000001,0.49902216,0.08203104
1764505256.9626656,-5.69198,1.17502,1.00716,-0.8483254650000001,0.49902216,0.08203104
1764505256.9626656,-5.38678,0.8392999999999999,0.62566,-0.848203395,0.50012079,0.082214145
1764505256.9626656,-5.38678,0.8392999999999999,0.62566,-0.848203395,0.50012079,0.082214145
1764505256.9657688,-5.38678,0.8392999999999999,0.62566,-0.848203395,0.50012079,0.082214145
1764505256.9657688,-5.38678,0.8392999999999999,0.62566,-0.848203395,0.50012079,0.082214145
1764505256.9657688,-5.38678,0.8392999999999999,0.62566,-0.848203395,0.50012079,0.082214145
1764505256.9657688,-5.38678,0.8392999999999999,0.62566,-0.848203395,0.50012079,0.082214145
1764505256.9657688,-5.38678,0.8392999999999999,0.62566,-0.848203395,0.50012079,0.082214145
1764505256.9657688,-5.38678,0.8392999999999999,0.62566,-0.848203395,0.50012079,0.082214145
1764505257.0122385,-5.38678,0.8392999999999999,0.62566,-0.848203395,0.50012079,0.082214145
1764505257.0122385,-5.38678,0.8392999999999999,0.62566,-0.848203395,0.50012079,0.082214145
1764505257.0122385,-4.25754,-0.04578,0.88508,-0.848203395,0.49999872,0.08251932
1764505257.0122385,-4.25754,-0.04578,0.88508,-0.848203395,0.49999872,0.08251932
1764505257.0122385,-4.25754,-0.04578,0.88508,-0.848203395,0.49999872,0.08251932
1764505257.0122385,-4.25754,-0.04578,0.88508,-0.848203395,0.49999872,0.08251932
1764505257.0122385,-4.25754,-0.04578,0.88508,-0.848203395,0.49999872,0.08251932
1764505257.013672,-4.25754,-0.04578,0.88508,-0.848203395,0.49999872,0.08251932
1764505257.013672,-4.25754,-0.04578,0.88508,-0.848203395,0.49999872,0.08251932
1764505257.013672,-4.25754,-0.04578,0.88508,-0.848203395,0.49999872,0.08251932
1764505257.013672,-4.25754,-0.04578,0.88508,-0.848203395,0.49999872,0.08251932
1764505257.013672,-4.25754,-0.04578,0.88508,-0.848203395,0.49999872,0.08251932
1764505257.013672,-2.8994,0.88508,0.93086,-0.84789822,0.49975458,0.08190897
1764505257.013672,-2.8994,0.88508,0.93086,-0.84789822,0.49975458,0.08190897
1764505257.013672,-2.8994,0.88508,0.93086,-0.84789822,0.49975458,0.08190897
1764505257.013672,-2.8994,0.88508,0.93086,-0.84789822,0.49975458,0.08190897
1764505257.013672,-2.8994,0.88508,0.93086,-0.84789822,0.49975458,0.08190897
1764505257.013672,-2.8994,0.88508,0.93086,-0.84789822,0.49975458,0.08190897
1764505257.013672,-2.8994,0.88508,0.93086,-0.84789822,0.49975458,0.08190897
1764505257.013672,-2.8994,0.88508,0.93086,-0.84789822,0.49975458,0.08190897
1764505257.013672,-2.8994,0.88508,0.93086,-0.84789822,0.49975458,0.08190897
1764505257.013672,-2.8994,0.88508,0.93086,-0.84789822,0.49975458,0.08190897
1764505257.058131,-3.21986,1.23606,0.27468,-0.847837185,0.501768735,0.08105448
1764505257.058131,-3.21986,1.23606,0.27468,-0.847837185,0.501768735,0.08105448
1764505257.058131,-3.21986,1.23606,0.27468,-0.847837185,0.501768735,0.08105448
1764505257.058131,-3.21986,1.23606,0.27468,-0.847837185,0.501768735,0.08105448
1764505257.058131,-3.21986,1.23606,0.27468,-0.847837185,0.501768735,0.08105448
1764505257.058131,-3.21986,1.23606,0.27468,-0.847837185,0.501768735,0.08105448
1764505257.058131,-3.21986,1.23606,0.27468,-0.847837185,0.501768735,0.08105448
1764505257.058131,-3.21986,1.23606,0.27468,-0.847837185,0.501768735,0.08105448
1764505257.058131,-3.21986,1.23606,0.27468,-0.847837185,0.501768735,0.08105448
1764505257.058131,-3.21986,1.23606,0.27468,-0.847837185,0.501768735,0.08105448
1764505257.058131,-4.79164,1.51074,-0.3357199999999999,-0.84667752,0.503355645,0.08117655
1764505257.058131,-4.79164,1.51074,-0.3357199999999999,-0.84667752,0.503355645,0.08117655
1764505257.058131,-4.79164,1.51074,-0.3357199999999999,-0.84667752,0.503355645,0.08117655
1764505257.058131,-4.79164,1.51074,-0.3357199999999999,-0.84667752,0.503355645,0.08117655
1764505257.058131,-4.79164,1.51074,-0.3357199999999999,-0.84667752,0.503355645,0.08117655
1764505257.058131,-4.79164,1.51074,-0.3357199999999999,-0.84667752,0.503355645,0.08117655
1764505257.058131,-4.79164,1.51074,-0.3357199999999999,-0.84667752,0.503355645,0.08117655
1764505257.058131,-4.79164,1.51074,-0.3357199999999999,-0.84667752,0.503355645,0.08117655
1764505257.058131,-4.79164,1.51074,-0.3357199999999999,-0.84667752,0.503355645,0.08117655
1764505257.058131,-4.79164,1.51074,-0.3357199999999999,-0.84667752,0.503355645,0.08117655
1764505257.059145,-5.78354,1.6786,0.10682,-0.8459451,0.50463738,0.081603795
1764505257.059145,-5.78354,1.6786,0.10682,-0.8459451,0.50463738,0.081603795
1764505257.059145,-5.78354,1.6786,0.10682,-0.8459451,0.50463738,0.081603795
1764505257.059145,-5.78354,1.6786,0.10682,-0.8459451,0.50463738,0.081603795
1764505257.1061063,-5.78354,1.6786,0.10682,-0.8459451,0.50463738,0.081603795
1764505257.1061063,-5.78354,1.6786,0.10682,-0.8459451,0.50463738,0.081603795
1764505257.1061063,-5.78354,1.6786,0.10682,-0.8459451,0.50463738,0.081603795
1764505257.1061063,-5.78354,1.6786,0.10682,-0.8459451,0.50463738,0.081603795
1764505257.1061063,-5.78354,1.6786,0.10682,-0.8459451,0.50463738,0.081603795
1764505257.1061063,-5.78354,1.6786,0.10682,-0.8459451,0.50463738,0.081603795
1764505257.1061063,-6.39394,0.41202,0.13734,-0.847348905,0.50463738,0.08215311
1764505257.1061063,-6.39394,0.41202,0.13734,-0.847348905,0.50463738,0.08215311
1764505257.1071262,-6.39394,0.41202,0.13734,-0.847348905,0.50463738,0.08215311
1764505257.1071262,-6.39394,0.41202,0.13734,-0.847348905,0.50463738,0.08215311
1764505257.1071262,-6.39394,0.41202,0.13734,-0.847348905,0.50463738,0.08215311
1764505257.1071262,-6.39394,0.41202,0.13734,-0.847348905,0.50463738,0.08215311
1764505257.1071262,-6.39394,0.41202,0.13734,-0.847348905,0.50463738,0.08215311
1764505257.1071262,-6.39394,0.41202,0.13734,-0.847348905,0.50463738,0.08215311
1764505257.1071262,-6.39394,0.41202,0.13734,-0.847348905,0.50463738,0.08215311
1764505257.1071262,-6.39394,0.41202,0.13734,-0.847348905,0.50463738,0.08215311
1764505257.1071262,-6.28712,0.763,-0.27468,-0.847715115,0.502989435,0.082458285
1764505257.1071262,-6.28712,0.763,-0.27468,-0.847715115,0.502989435,0.082458285
1764505257.1071262,-6.28712,0.763,-0.27468,-0.847715115,0.502989435,0.082458285
1764505257.1071262,-6.28712,0.763,-0.27468,-0.847715115,0.502989435,0.082458285
1764505257.1071262,-6.28712,0.763,-0.27468,-0.847715115,0.502989435,0.082458285
1764505257.1071262,-6.28712,0.763,-0.27468,-0.847715115,0.502989435,0.082458285
1764505257.1071262,-6.28712,0.763,-0.27468,-0.847715115,0.502989435,0.082458285
1764505257.1071262,-6.28712,0.763,-0.27468,-0.847715115,0.502989435,0.082458285
1764505257.151823,-6.28712,0.763,-0.27468,-0.847715115,0.502989435,0.082458285
1764505257.151823,-6.28712,0.763,-0.27468,-0.847715115,0.502989435,0.082458285
1764505257.151823,-6.08874,1.09872,-0.5341,-0.8471658,0.50073114,0.082580355
1764505257.151823,-6.08874,1.09872,-0.5341,-0.8471658,0.50073114,0.082580355
1764505257.1528106,-6.08874,1.09872,-0.5341,-0.8471658,0.50073114,0.082580355
1764505257.1528106,-6.08874,1.09872,-0.5341,-0.8471658,0.50073114,0.082580355
1764505257.1528106,-6.08874,1.09872,-0.5341,-0.8471658,0.50073114,0.082580355
1764505257.1528106,-6.08874,1.09872,-0.5341,-0.8471658,0.50073114,0.082580355
1764505257.1528106,-6.08874,1.09872,-0.5341,-0.8471658,0.50073114,0.082580355
1764505257.1528106,-6.08874,1.09872,-0.5341,-0.8471658,0.50073114,0.082580355
1764505257.1528106,-6.08874,1.09872,-0.5341,-0.8471658,0.50073114,0.082580355
1764505257.1528106,-6.08874,1.09872,-0.5341,-0.8471658,0.50073114,0.082580355
1764505257.1528106,-5.20366,1.26658,-0.10682,-0.84679959,0.498472845,0.082214145
1764505257.1528106,-5.20366,1.26658,-0.10682,-0.84679959,0.498472845,0.082214145
1764505257.1528106,-5.20366,1.26658,-0.10682,-0.84679959,0.498472845,0.082214145
1764505257.1528106,-5.20366,1.26658,-0.10682,-0.84679959,0.498472845,0.082214145
1764505257.1528106,-5.20366,1.26658,-0.10682,-0.84679959,0.498472845,0.082214145
1764505257.1528106,-5.20366,1.26658,-0.10682,-0.84679959,0.498472845,0.082214145
1764505257.1538072,-5.20366,1.26658,-0.10682,-0.84679959,0.498472845,0.082214145
1764505257.1538072,-5.20366,1.26658,-0.10682,-0.84679959,0.498472845,0.082214145
1764505257.1538072,-5.20366,1.26658,-0.10682,-0.84679959,0.498472845,0.082214145
1764505257.1538072,-5.20366,1.26658,-0.10682,-0.84679959,0.498472845,0.082214145
1764505257.1980858,-4.15072,1.31236,0.47306,-0.846494415,0.497008005,0.08142069
1764505257.1980858,-4.15072,1.31236,0.47306,-0.846494415,0.497008005,0.08142069
1764505257.1980858,-4.15072,1.31236,0.47306,-0.846494415,0.497008005,0.08142069
1764505257.1980858,-4.15072,1.31236,0.47306,-0.846494415,0.497008005,0.08142069
1764505257.1980858,-4.15072,1.31236,0.47306,-0.846494415,0.497008005,0.08142069
1764505257.1980858,-4.15072,1.31236,0.47306,-0.846494415,0.497008005,0.08142069
1764505257.1980858,-4.15072,1.31236,0.47306,-0.846494415,0.497008005,0.08142069
1764505257.1980858,-4.15072,1.31236,0.47306,-0.846494415,0.497008005,0.08142069
1764505257.1980858,-4.15072,1.31236,0.47306,-0.846494415,0.497008005,0.08142069
1764505257.1980858,-4.15072,1.31236,0.47306,-0.846494415,0.497008005,0.08142069
1764505257.1980858,-3.46402,0.6714399999999999,0.54936,-0.84704373,0.49597041,0.08093241
1764505257.1980858,-3.46402,0.6714399999999999,0.54936,-0.84704373,0.49597041,0.08093241
1764505257.1980858,-3.46402,0.6714399999999999,0.54936,-0.84704373,0.49597041,0.08093241
1764505257.1980858,-3.46402,0.6714399999999999,0.54936,-0.84704373,0.49597041,0.08093241
1764505257.1980858,-3.46402,0.6714399999999999,0.54936,-0.84704373,0.49597041,0.08093241
1764505257.1980858,-3.46402,0.6714399999999999,0.54936,-0.84704373,0.49597041,0.08093241
1764505257.1980858,-3.46402,0.6714399999999999,0.54936,-0.84704373,0.49597041,0.08093241
1764505257.1980858,-3.46402,0.6714399999999999,0.54936,-0.84704373,0.49597041,0.08093241
1764505257.1980858,-3.46402,0.6714399999999999,0.54936,-0.84704373,0.49597041,0.08093241
1764505257.1980858,-3.46402,0.6714399999999999,0.54936,-0.84704373,0.49597041,0.08093241
1764505257.1980858,-2.96044,0.85456,0.42728,-0.847348905,0.49706904,0.080993445
1764505257.1980858,-2.96044,0.85456,0.42728,-0.847348905,0.49706904,0.080993445
1764505257.1993449,-2.96044,0.85456,0.42728,-0.847348905,0.49706904,0.080993445
1764505257.1993449,-2.96044,0.85456,0.42728,-0.847348905,0.49706904,0.080993445
1764505257.243219,-2.96044,0.85456,0.42728,-0.847348905,0.49706904,0.080993445
1764505257.243219,-2.96044,0.85456,0.42728,-0.847348905,0.49706904,0.080993445
1764505257.243219,-2.96044,0.85456,0.42728,-0.847348905,0.49706904,0.080993445
1764505257.243219,-2.96044,0.85456,0.42728,-0.847348905,0.49706904,0.080993445
1764505257.243219,-2.96044,0.85456,0.42728,-0.847348905,0.49706904,0.080993445
1764505257.243219,-2.96044,0.85456,0.42728,-0.847348905,0.49706904,0.080993445
1764505257.243219,-3.11304,-0.03052,0.28994,-0.8477761500000001,0.49902216,0.08190897
1764505257.243219,-3.11304,-0.03052,0.28994,-0.8477761500000001,0.49902216,0.08190897
1764505257.243219,-3.11304,-0.03052,0.28994,-0.8477761500000001,0.49902216,0.08190897
1764505257.243219,-3.11304,-0.03052,0.28994,-0.8477761500000001,0.49902216,0.08190897
1764505257.243219,-3.11304,-0.03052,0.28994,-0.8477761500000001,0.49902216,0.08190897
1764505257.243219,-3.11304,-0.03052,0.28994,-0.8477761500000001,0.49902216,0.08190897
1764505257.243219,-3.11304,-0.03052,0.28994,-0.8477761500000001,0.49902216,0.08190897
1764505257.243219,-3.11304,-0.03052,0.28994,-0.8477761500000001,0.49902216,0.08190897
1764505257.243219,-3.11304,-0.03052,0.28994,-0.8477761500000001,0.49902216,0.08190897
1764505257.243219,-3.11304,-0.03052,0.28994,-0.8477761500000001,0.49902216,0.08190897
1764505257.243219,-3.14356,-0.3815,-0.1525999999999999,-0.84643338,0.5007921750000001,0.08312967
1764505257.243219,-3.14356,-0.3815,-0.1525999999999999,-0.84643338,0.5007921750000001,0.08312967
1764505257.243219,-3.14356,-0.3815,-0.1525999999999999,-0.84643338,0.5007921750000001,0.08312967
1764505257.243219,-3.14356,-0.3815,-0.1525999999999999,-0.84643338,0.5007921750000001,0.08312967
1764505257.243219,-3.14356,-0.3815,-0.1525999999999999,-0.84643338,0.5007921750000001,0.08312967
1764505257.2447598,-3.14356,-0.3815,-0.1525999999999999,-0.84643338,0.5007921750000001,0.08312967
1764505257.2447598,-3.14356,-0.3815,-0.1525999999999999,-0.84643338,0.5007921750000001,0.08312967
1764505257.2447598,-3.14356,-0.3815,-0.1525999999999999,-0.84643338,0.5007921750000001,0.08312967
1764505257.292911,-3.14356,-0.3815,-0.1525999999999999,-0.84643338,0.5007921750000001,0.08312967
1764505257.292911,-3.14356,-0.3815,-0.1525999999999999,-0.84643338,0.5007921750000001,0.08312967
1764505257.292911,-3.17408,0.73248,0.10682,-0.84643338,0.501646665,0.084167265
1764505257.292911,-3.17408,0.73248,0.10682,-0.84643338,0.501646665,0.084167265
1764505257.292911,-3.17408,0.73248,0.10682,-0.84643338,0.501646665,0.084167265
1764505257.292911,-3.17408,0.73248,0.10682,-0.84643338,0.501646665,0.084167265
1764505257.292911,-3.17408,0.73248,0.10682,-0.84643338,0.501646665,0.084167265
1764505257.292911,-3.17408,0.73248,0.10682,-0.84643338,0.501646665,0.084167265
1764505257.292911,-3.17408,0.73248,0.10682,-0.84643338,0.501646665,0.084167265
1764505257.292911,-3.17408,0.73248,0.10682,-0.84643338,0.501646665,0.084167265
1764505257.292911,-3.17408,0.73248,0.10682,-0.84643338,0.501646665,0.084167265
1764505257.292911,-3.17408,0.73248,0.10682,-0.84643338,0.501646665,0.084167265
1764505257.292911,-4.60852,1.63282,0.01526,-0.84692166,0.502867365,0.084167265
1764505257.292911,-4.60852,1.63282,0.01526,-0.84692166,0.502867365,0.084167265
1764505257.292911,-4.60852,1.63282,0.01526,-0.84692166,0.502867365,0.084167265
1764505257.292911,-4.60852,1.63282,0.01526,-0.84692166,0.502867365,0.084167265
1764505257.292911,-4.60852,1.63282,0.01526,-0.84692166,0.502867365,0.084167265
1764505257.292911,-4.60852,1.63282,0.01526,-0.84692166,0.502867365,0.084167265
1764505257.292911,-4.60852,1.63282,0.01526,-0.84692166,0.502867365,0.084167265
1764505257.292911,-4.60852,1.63282,0.01526,-0.84692166,0.502867365,0.084167265
1764505257.292911,-4.60852,1.63282,0.01526,-0.84692166,0.502867365,0.084167265
1764505257.292911,-4.60852,1.63282,0.01526,-0.84692166,0.502867365,0.084167265
1764505257.292911,-5.84458,1.6022999999999998,0.12208,-0.84655545,0.503599785,0.08435037
1764505257.292911,-5.84458,1.6022999999999998,0.12208,-0.84655545,0.503599785,0.08435037
1764505257.3412645,-5.84458,1.6022999999999998,0.12208,-0.84655545,0.503599785,0.08435037
1764505257.3412645,-5.84458,1.6022999999999998,0.12208,-0.84655545,0.503599785,0.08435037
1764505257.3412645,-5.84458,1.6022999999999998,0.12208,-0.84655545,0.503599785,0.08435037
1764505257.3412645,-5.84458,1.6022999999999998,0.12208,-0.84655545,0.503599785,0.08435037
1764505257.3412645,-5.84458,1.6022999999999998,0.12208,-0.84655545,0.503599785,0.08435037
1764505257.3412645,-5.84458,1.6022999999999998,0.12208,-0.84655545,0.503599785,0.08435037
1764505257.3412645,-5.84458,1.6022999999999998,0.12208,-0.84655545,0.503599785,0.08435037
1764505257.3412645,-5.84458,1.6022999999999998,0.12208,-0.84655545,0.503599785,0.08435037
1764505257.3412645,-5.92088,1.77016,0.41202,-0.845517855,0.5017077,0.0842283
1764505257.3412645,-5.92088,1.77016,0.41202,-0.845517855,0.5017077,0.0842283
1764505257.3412645,-5.92088,1.77016,0.41202,-0.845517855,0.5017077,0.0842283
1764505257.3412645,-5.92088,1.77016,0.41202,-0.845517855,0.5017077,0.0842283
1764505257.3412645,-5.92088,1.77016,0.41202,-0.845517855,0.5017077,0.0842283
1764505257.3412645,-5.92088,1.77016,0.41202,-0.845517855,0.5017077,0.0842283
1764505257.3412645,-5.92088,1.77016,0.41202,-0.845517855,0.5017077,0.0842283
1764505257.3412645,-5.92088,1.77016,0.41202,-0.845517855,0.5017077,0.0842283
1764505257.3412645,-5.92088,1.77016,0.41202,-0.845517855,0.5017077,0.0842283
1764505257.3412645,-5.92088,1.77016,0.41202,-0.845517855,0.5017077,0.0842283
1764505257.3412645,-4.89846,1.23606,0.62566,-0.846860625,0.498961125,0.084045195
1764505257.3412645,-4.89846,1.23606,0.62566,-0.846860625,0.498961125,0.084045195
1764505257.3412645,-4.89846,1.23606,0.62566,-0.846860625,0.498961125,0.084045195
1764505257.3412645,-4.89846,1.23606,0.62566,-0.846860625,0.498961125,0.084045195
1764505257.3412645,-4.89846,1.23606,0.62566,-0.846860625,0.498961125,0.084045195
1764505257.3412645,-4.89846,1.23606,0.62566,-0.846860625,0.498961125,0.084045195
1764505257.3858924,-4.89846,1.23606,0.62566,-0.846860625,0.498961125,0.084045195
1764505257.3858924,-4.89846,1.23606,0.62566,-0.846860625,0.498961125,0.084045195
1764505257.3858924,-4.89846,1.23606,0.62566,-0.846860625,0.498961125,0.084045195
1764505257.3858924,-4.89846,1.23606,0.62566,-0.846860625,0.498961125,0.084045195
1764505257.38689,-4.16598,1.03768,0.51884,-0.8477761500000001,0.49670283,0.08337381
1764505257.38689,-4.16598,1.03768,0.51884,-0.8477761500000001,0.49670283,0.08337381
1764505257.38689,-4.16598,1.03768,0.51884,-0.8477761500000001,0.49670283,0.08337381
1764505257.38689,-4.16598,1.03768,0.51884,-0.8477761500000001,0.49670283,0.08337381
1764505257.38689,-4.16598,1.03768,0.51884,-0.8477761500000001,0.49670283,0.08337381
1764505257.38689,-4.16598,1.03768,0.51884,-0.8477761500000001,0.49670283,0.08337381
1764505257.38689,-4.16598,1.03768,0.51884,-0.8477761500000001,0.49670283,0.08337381
1764505257.38689,-4.16598,1.03768,0.51884,-0.8477761500000001,0.49670283,0.08337381
1764505257.38689,-4.16598,1.03768,0.51884,-0.8477761500000001,0.49670283,0.08337381
1764505257.38689,-4.16598,1.03768,0.51884,-0.8477761500000001,0.49670283,0.08337381
1764505257.38689,-3.49454,1.35814,0.42728,-0.848935815,0.49609248,0.083068635
1764505257.38689,-3.49454,1.35814,0.42728,-0.848935815,0.49609248,0.083068635
1764505257.38689,-3.49454,1.35814,0.42728,-0.848935815,0.49609248,0.083068635
1764505257.3874016,-3.49454,1.35814,0.42728,-0.848935815,0.49609248,0.083068635
1764505257.3874016,-3.49454,1.35814,0.42728,-0.848935815,0.49609248,0.083068635
1764505257.3874016,-3.49454,1.35814,0.42728,-0.848935815,0.49609248,0.083068635
1764505257.3874016,-3.49454,1.35814,0.42728,-0.848935815,0.49609248,0.083068635
1764505257.3874016,-3.49454,1.35814,0.42728,-0.848935815,0.49609248,0.083068635
1764505257.4333088,-3.49454,1.35814,0.42728,-0.848935815,0.49609248,0.083068635
1764505257.4333088,-3.49454,1.35814,0.42728,-0.848935815,0.49609248,0.083068635
1764505257.4333088,-3.7387,1.46496,0.3204599999999999,-0.84765408,0.49767939,0.082946565
1764505257.4333088,-3.7387,1.46496,0.3204599999999999,-0.84765408,0.49767939,0.082946565
1764505257.4333088,-3.7387,1.46496,0.3204599999999999,-0.84765408,0.49767939,0.082946565
1764505257.4333088,-3.7387,1.46496,0.3204599999999999,-0.84765408,0.49767939,0.082946565
1764505257.43493,-3.7387,1.46496,0.3204599999999999,-0.84765408,0.49767939,0.082946565
1764505257.43493,-3.7387,1.46496,0.3204599999999999,-0.84765408,0.49767939,0.082946565
1764505257.43493,-3.7387,1.46496,0.3204599999999999,-0.84765408,0.49767939,0.082946565
1764505257.43493,-3.7387,1.46496,0.3204599999999999,-0.84765408,0.49767939,0.082946565
1764505257.43493,-3.7387,1.46496,0.3204599999999999,-0.84765408,0.49767939,0.082946565
1764505257.43493,-3.7387,1.46496,0.3204599999999999,-0.84765408,0.49767939,0.082946565
1764505257.43493,-3.34194,1.49548,0.65618,-0.84789822,0.49938837,0.08337381
1764505257.43493,-3.34194,1.49548,0.65618,-0.84789822,0.49938837,0.08337381
1764505257.43493,-3.34194,1.49548,0.65618,-0.84789822,0.49938837,0.08337381
1764505257.43493,-3.34194,1.49548,0.65618,-0.84789822,0.49938837,0.08337381
1764505257.43493,-3.34194,1.49548,0.65618,-0.84789822,0.49938837,0.08337381
1764505257.436464,-3.34194,1.49548,0.65618,-0.84789822,0.49938837,0.08337381
1764505257.4368389,-3.34194,1.49548,0.65618,-0.84789822,0.49938837,0.08337381
1764505257.4368389,-3.34194,1.49548,0.65618,-0.84789822,0.49938837,0.08337381
1764505257.4368389,-3.34194,1.49548,0.65618,-0.84789822,0.49938837,0.08337381
1764505257.4368389,-3.34194,1.49548,0.65618,-0.84789822,0.49938837,0.08337381
1764505257.4374766,-3.5098,0.8392999999999999,0.27468,-0.8477761500000001,0.5013414900000001,0.08398416
1764505257.4374766,-3.5098,0.8392999999999999,0.27468,-0.8477761500000001,0.5013414900000001,0.08398416
1764505257.4775956,-3.5098,0.8392999999999999,0.27468,-0.8477761500000001,0.5013414900000001,0.08398416
1764505257.478134,-3.5098,0.8392999999999999,0.27468,-0.8477761500000001,0.5013414900000001,0.08398416
1764505257.478134,-3.5098,0.8392999999999999,0.27468,-0.8477761500000001,0.5013414900000001,0.08398416
1764505257.478134,-3.5098,0.8392999999999999,0.27468,-0.8477761500000001,0.5013414900000001,0.08398416
1764505257.478134,-3.5098,0.8392999999999999,0.27468,-0.8477761500000001,0.5013414900000001,0.08398416
1764505257.478134,-3.5098,0.8392999999999999,0.27468,-0.8477761500000001,0.5013414900000001,0.08398416
1764505257.478134,-3.5098,0.8392999999999999,0.27468,-0.8477761500000001,0.5013414900000001,0.08398416
1764505257.478134,-3.5098,0.8392999999999999,0.27468,-0.8477761500000001,0.5013414900000001,0.08398416
1764505257.478134,-3.86078,1.2208,0.28994,-0.84557889,0.501646665,0.08471658
1764505257.478134,-3.86078,1.2208,0.28994,-0.84557889,0.501646665,0.08471658
1764505257.478134,-3.86078,1.2208,0.28994,-0.84557889,0.501646665,0.08471658
1764505257.478134,-3.86078,1.2208,0.28994,-0.84557889,0.501646665,0.08471658
1764505257.478134,-3.86078,1.2208,0.28994,-0.84557889,0.501646665,0.08471658
1764505257.478134,-3.86078,1.2208,0.28994,-0.84557889,0.501646665,0.08471658
1764505257.478134,-3.86078,1.2208,0.28994,-0.84557889,0.501646665,0.08471658
1764505257.478134,-3.86078,1.2208,0.28994,-0.84557889,0.501646665,0.08471658
1764505257.478134,-3.86078,1.2208,0.28994,-0.84557889,0.501646665,0.08471658
1764505257.478134,-3.86078,1.2208,0.28994,-0.84557889,0.501646665,0.08471658
1764505257.478134,-4.63904,1.92276,0.3051999999999999,-0.84509061,0.501036315,0.084167265
1764505257.478134,-4.63904,1.92276,0.3051999999999999,-0.84509061,0.501036315,0.084167265
1764505257.478134,-4.63904,1.92276,0.3051999999999999,-0.84509061,0.501036315,0.084167265
1764505257.478134,-4.63904,1.92276,0.3051999999999999,-0.84509061,0.501036315,0.084167265
1764505257.525391,-4.63904,1.92276,0.3051999999999999,-0.84509061,0.501036315,0.084167265
1764505257.5264072,-4.63904,1.92276,0.3051999999999999,-0.84509061,0.501036315,0.084167265
1764505257.5264072,-4.63904,1.92276,0.3051999999999999,-0.84509061,0.501036315,0.084167265
1764505257.5264072,-4.63904,1.92276,0.3051999999999999,-0.84509061,0.501036315,0.084167265
1764505257.5264072,-4.63904,1.92276,0.3051999999999999,-0.84509061,0.501036315,0.084167265
1764505257.5264072,-4.63904,1.92276,0.3051999999999999,-0.84509061,0.501036315,0.084167265
1764505257.5264072,-4.56274,2.5179,0.77826,-0.84679959,0.50060907,0.08203104
1764505257.5264072,-4.56274,2.5179,0.77826,-0.84679959,0.50060907,0.08203104
1764505257.5264072,-4.56274,2.5179,0.77826,-0.84679959,0.50060907,0.08203104
1764505257.5264072,-4.56274,2.5179,0.77826,-0.84679959,0.50060907,0.08203104
1764505257.5264072,-4.56274,2.5179,0.77826,-0.84679959,0.50060907,0.08203104
1764505257.5264072,-4.56274,2.5179,0.77826,-0.84679959,0.50060907,0.08203104
1764505257.5264072,-4.56274,2.5179,0.77826,-0.84679959,0.50060907,0.08203104
1764505257.5264072,-4.56274,2.5179,0.77826,-0.84679959,0.50060907,0.08203104
1764505257.5264072,-4.56274,2.5179,0.77826,-0.84679959,0.50060907,0.08203104
1764505257.5264072,-4.56274,2.5179,0.77826,-0.84679959,0.50060907,0.08203104
1764505257.5264072,-4.36436,0.763,1.02242,-0.849302025,0.500181825,0.0817869
1764505257.5264072,-4.36436,0.763,1.02242,-0.849302025,0.500181825,0.0817869
1764505257.5264072,-4.36436,0.763,1.02242,-0.849302025,0.500181825,0.0817869
1764505257.5264072,-4.36436,0.763,1.02242,-0.849302025,0.500181825,0.0817869
1764505257.5264072,-4.36436,0.763,1.02242,-0.849302025,0.500181825,0.0817869
1764505257.5264072,-4.36436,0.763,1.02242,-0.849302025,0.500181825,0.0817869
1764505257.5264072,-4.36436,0.763,1.02242,-0.849302025,0.500181825,0.0817869
1764505257.5264072,-4.36436,0.763,1.02242,-0.849302025,0.500181825,0.0817869
1764505257.5746176,-4.36436,0.763,1.02242,-0.849302025,0.500181825,0.0817869
1764505257.5746176,-4.36436,0.763,1.02242,-0.849302025,0.500181825,0.0817869
1764505257.5746176,-3.052,-0.0762999999999999,-0.0762999999999999,-0.84948513,0.498716985,0.083678985
1764505257.5746176,-3.052,-0.0762999999999999,-0.0762999999999999,-0.84948513,0.498716985,0.083678985
1764505257.5746176,-3.052,-0.0762999999999999,-0.0762999999999999,-0.84948513,0.498716985,0.083678985
1764505257.5746176,-3.052,-0.0762999999999999,-0.0762999999999999,-0.84948513,0.498716985,0.083678985
1764505257.5746176,-3.052,-0.0762999999999999,-0.0762999999999999,-0.84948513,0.498716985,0.083678985
1764505257.5746176,-3.052,-0.0762999999999999,-0.0762999999999999,-0.84948513,0.498716985,0.083678985
1764505257.5746176,-3.052,-0.0762999999999999,-0.0762999999999999,-0.84948513,0.498716985,0.083678985
1764505257.5746176,-3.052,-0.0762999999999999,-0.0762999999999999,-0.84948513,0.498716985,0.083678985
1764505257.5746176,-3.052,-0.0762999999999999,-0.0762999999999999,-0.84948513,0.498716985,0.083678985
1764505257.5746176,-3.052,-0.0762999999999999,-0.0762999999999999,-0.84948513,0.498716985,0.083678985
1764505257.5746176,-2.33478,1.48022,0.44254,-0.848203395,0.4968249,0.083556915
1764505257.5746176,-2.33478,1.48022,0.44254,-0.848203395,0.4968249,0.083556915
1764505257.5746176,-2.33478,1.48022,0.44254,-0.848203395,0.4968249,0.083556915
1764505257.5746176,-2.33478,1.48022,0.44254,-0.848203395,0.4968249,0.083556915
1764505257.5746176,-2.33478,1.48022,0.44254,-0.848203395,0.4968249,0.083556915
1764505257.5746176,-2.33478,1.48022,0.44254,-0.848203395,0.4968249,0.083556915
1764505257.5746176,-2.33478,1.48022,0.44254,-0.848203395,0.4968249,0.083556915
1764505257.5746176,-2.33478,1.48022,0.44254,-0.848203395,0.4968249,0.083556915
1764505257.5746176,-2.33478,1.48022,0.44254,-0.848203395,0.4968249,0.083556915
1764505257.5756292,-2.33478,1.48022,0.44254,-0.848203395,0.4968249,0.083556915
1764505257.6193776,-2.53316,1.77016,1.61756,-0.848569605,0.498106635,0.082336215
1764505257.6193776,-2.53316,1.77016,1.61756,-0.848569605,0.498106635,0.082336215
1764505257.6193776,-2.53316,1.77016,1.61756,-0.848569605,0.498106635,0.082336215
1764505257.6193776,-2.53316,1.77016,1.61756,-0.848569605,0.498106635,0.082336215
1764505257.6193776,-2.53316,1.77016,1.61756,-0.848569605,0.498106635,0.082336215
1764505257.6193776,-2.53316,1.77016,1.61756,-0.848569605,0.498106635,0.082336215
1764505257.6193776,-2.53316,1.77016,1.61756,-0.848569605,0.498106635,0.082336215
1764505257.6193776,-2.53316,1.77016,1.61756,-0.848569605,0.498106635,0.082336215
1764505257.6193776,-2.53316,1.77016,1.61756,-0.848569605,0.498106635,0.082336215
1764505257.6193776,-2.53316,1.77016,1.61756,-0.848569605,0.498106635,0.082336215
1764505257.6193776,-3.03674,1.41918,2.15166,-0.84704373,0.50012079,0.08068827
1764505257.6193776,-3.03674,1.41918,2.15166,-0.84704373,0.50012079,0.08068827
1764505257.6193776,-3.03674,1.41918,2.15166,-0.84704373,0.50012079,0.08068827
1764505257.6193776,-3.03674,1.41918,2.15166,-0.84704373,0.50012079,0.08068827
1764505257.6193776,-3.03674,1.41918,2.15166,-0.84704373,0.50012079,0.08068827
1764505257.6193776,-3.03674,1.41918,2.15166,-0.84704373,0.50012079,0.08068827
1764505257.6193776,-3.03674,1.41918,2.15166,-0.84704373,0.50012079,0.08068827
1764505257.6207898,-3.03674,1.41918,2.15166,-0.84704373,0.50012079,0.08068827
1764505257.6207898,-3.03674,1.41918,2.15166,-0.84704373,0.50012079,0.08068827
1764505257.6207898,-3.03674,1.41918,2.15166,-0.84704373,0.50012079,0.08068827
1764505257.6207898,-4.31858,2.02958,0.9156,-0.845884065,0.502012875,0.08142069
1764505257.6207898,-4.31858,2.02958,0.9156,-0.845884065,0.502012875,0.08142069
1764505257.6207898,-4.31858,2.02958,0.9156,-0.845884065,0.502012875,0.08142069
1764505257.6207898,-4.31858,2.02958,0.9156,-0.845884065,0.502012875,0.08142069
1764505257.6207898,-4.31858,2.02958,0.9156,-0.845884065,0.502012875,0.08142069
1764505257.6207898,-4.31858,2.02958,0.9156,-0.845884065,0.502012875,0.08142069
1764505257.6648197,-4.31858,2.02958,0.9156,-0.845884065,0.502012875,0.08142069
1764505257.6648197,-4.31858,2.02958,0.9156,-0.845884065,0.502012875,0.08142069
1764505257.6648197,-4.31858,2.02958,0.9156,-0.845884065,0.502012875,0.08142069
1764505257.6648197,-4.31858,2.02958,0.9156,-0.845884065,0.502012875,0.08142069
1764505257.6648197,-4.47118,1.09872,0.9156,-0.84667752,0.50182977,0.082946565
1764505257.6648197,-4.47118,1.09872,0.9156,-0.84667752,0.50182977,0.082946565
1764505257.6648197,-4.47118,1.09872,0.9156,-0.84667752,0.50182977,0.082946565
1764505257.6648197,-4.47118,1.09872,0.9156,-0.84667752,0.50182977,0.082946565
1764505257.6648197,-4.47118,1.09872,0.9156,-0.84667752,0.50182977,0.082946565
1764505257.6648197,-4.47118,1.09872,0.9156,-0.84667752,0.50182977,0.082946565
1764505257.6648197,-4.47118,1.09872,0.9156,-0.84667752,0.50182977,0.082946565
1764505257.6648197,-4.47118,1.09872,0.9156,-0.84667752,0.50182977,0.082946565
1764505257.6648197,-4.47118,1.09872,0.9156,-0.84667752,0.50182977,0.082946565
1764505257.6648197,-4.47118,1.09872,0.9156,-0.84667752,0.50182977,0.082946565
1764505257.6648197,-3.76922,1.31236,1.6022999999999998,-0.84863064,0.50158563,0.083556915
1764505257.6648197,-3.76922,1.31236,1.6022999999999998,-0.84863064,0.50158563,0.083556915
1764505257.6648197,-3.76922,1.31236,1.6022999999999998,-0.84863064,0.50158563,0.083556915
1764505257.6648197,-3.76922,1.31236,1.6022999999999998,-0.84863064,0.50158563,0.083556915
1764505257.6648197,-3.76922,1.31236,1.6022999999999998,-0.84863064,0.50158563,0.083556915
1764505257.665843,-3.76922,1.31236,1.6022999999999998,-0.84863064,0.50158563,0.083556915
1764505257.665843,-3.76922,1.31236,1.6022999999999998,-0.84863064,0.50158563,0.083556915
1764505257.665843,-3.76922,1.31236,1.6022999999999998,-0.84863064,0.50158563,0.083556915
1764505257.7100935,-3.76922,1.31236,1.6022999999999998,-0.84863064,0.50158563,0.083556915
1764505257.7100935,-3.76922,1.31236,1.6022999999999998,-0.84863064,0.50158563,0.083556915
1764505257.7100935,-2.99096,1.08346,1.41918,-0.84911892,0.502989435,0.081970005
1764505257.7100935,-2.99096,1.08346,1.41918,-0.84911892,0.502989435,0.081970005
1764505257.7100935,-2.99096,1.08346,1.41918,-0.84911892,0.502989435,0.081970005
1764505257.7100935,-2.99096,1.08346,1.41918,-0.84911892,0.502989435,0.081970005
1764505257.7100935,-2.99096,1.08346,1.41918,-0.84911892,0.502989435,0.081970005
1764505257.7100935,-2.99096,1.08346,1.41918,-0.84911892,0.502989435,0.081970005
1764505257.7118368,-2.99096,1.08346,1.41918,-0.84911892,0.502989435,0.081970005
1764505257.7118368,-2.99096,1.08346,1.41918,-0.84911892,0.502989435,0.081970005
1764505257.7118368,-2.99096,1.08346,1.41918,-0.84911892,0.502989435,0.081970005
1764505257.7118368,-2.99096,1.08346,1.41918,-0.84911892,0.502989435,0.081970005
1764505257.7118368,-2.53316,1.43444,0.24416,-0.8483865,0.504088065,0.08166483
1764505257.7118368,-2.53316,1.43444,0.24416,-0.8483865,0.504088065,0.08166483
1764505257.7118368,-2.53316,1.43444,0.24416,-0.8483865,0.504088065,0.08166483
1764505257.7118368,-2.53316,1.43444,0.24416,-0.8483865,0.504088065,0.08166483
1764505257.7118368,-2.53316,1.43444,0.24416,-0.8483865,0.504088065,0.08166483
1764505257.7118368,-2.53316,1.43444,0.24416,-0.8483865,0.504088065,0.08166483
1764505257.7118368,-2.53316,1.43444,0.24416,-0.8483865,0.504088065,0.08166483
1764505257.7118368,-2.53316,1.43444,0.24416,-0.8483865,0.504088065,0.08166483
1764505257.7118368,-2.53316,1.43444,0.24416,-0.8483865,0.504088065,0.08166483
1764505257.7118368,-2.53316,1.43444,0.24416,-0.8483865,0.504088065,0.08166483
1764505257.7118368,-2.77732,1.34288,-0.85456,-0.846128205,0.5041491,0.08215311
1764505257.7118368,-2.77732,1.34288,-0.85456,-0.846128205,0.5041491,0.08215311
1764505257.7605684,-2.77732,1.34288,-0.85456,-0.846128205,0.5041491,0.08215311
1764505257.7605684,-2.77732,1.34288,-0.85456,-0.846128205,0.5041491,0.08215311
1764505257.7605684,-2.77732,1.34288,-0.85456,-0.846128205,0.5041491,0.08215311
1764505257.7605684,-2.77732,1.34288,-0.85456,-0.846128205,0.5041491,0.08215311
1764505257.7605684,-2.77732,1.34288,-0.85456,-0.846128205,0.5041491,0.08215311
1764505257.7605684,-2.77732,1.34288,-0.85456,-0.846128205,0.5041491,0.08215311
1764505257.7605684,-2.77732,1.34288,-0.85456,-0.846128205,0.5041491,0.08215311
1764505257.7605684,-2.77732,1.34288,-0.85456,-0.846128205,0.5041491,0.08215311
1764505257.7605684,-3.98286,1.49548,-0.50358,-0.845395785,0.504698415,0.081847935
1764505257.7605684,-3.98286,1.49548,-0.50358,-0.845395785,0.504698415,0.081847935
1764505257.7605684,-3.98286,1.49548,-0.50358,-0.845395785,0.504698415,0.081847935
1764505257.7605684,-3.98286,1.49548,-0.50358,-0.845395785,0.504698415,0.081847935
1764505257.7605684,-3.98286,1.49548,-0.50358,-0.845395785,0.504698415,0.081847935
1764505257.7605684,-3.98286,1.49548,-0.50358,-0.845395785,0.504698415,0.081847935
1764505257.7605684,-3.98286,1.49548,-0.50358,-0.845395785,0.504698415,0.081847935
1764505257.7605684,-3.98286,1.49548,-0.50358,-0.845395785,0.504698415,0.081847935
1764505257.7605684,-3.98286,1.49548,-0.50358,-0.845395785,0.504698415,0.081847935
1764505257.7605684,-3.98286,1.49548,-0.50358,-0.845395785,0.504698415,0.081847935
1764505257.7605684,-4.39488,0.7019599999999999,0.13734,-0.84631131,0.50610222,0.08142069
1764505257.7615728,-4.39488,0.7019599999999999,0.13734,-0.84631131,0.50610222,0.08142069
1764505257.7615728,-4.39488,0.7019599999999999,0.13734,-0.84631131,0.50610222,0.08142069
1764505257.7615728,-4.39488,0.7019599999999999,0.13734,-0.84631131,0.50610222,0.08142069
1764505257.8054447,-4.39488,0.7019599999999999,0.13734,-0.84631131,0.50610222,0.08142069
1764505257.8054447,-4.39488,0.7019599999999999,0.13734,-0.84631131,0.50610222,0.08142069
1764505257.8054447,-4.39488,0.7019599999999999,0.13734,-0.84631131,0.50610222,0.08142069
1764505257.8054447,-4.39488,0.7019599999999999,0.13734,-0.84631131,0.50610222,0.08142069
1764505257.806448,-4.39488,0.7019599999999999,0.13734,-0.84631131,0.50610222,0.08142069
1764505257.806448,-4.39488,0.7019599999999999,0.13734,-0.84631131,0.50610222,0.08142069
1764505257.806448,-5.60042,0.88508,-0.51884,-0.84521268,0.506651535,0.08081034
1764505257.806448,-5.60042,0.88508,-0.51884,-0.84521268,0.506651535,0.08081034
1764505257.806448,-5.60042,0.88508,-0.51884,-0.84521268,0.506651535,0.08081034
1764505257.806448,-5.60042,0.88508,-0.51884,-0.84521268,0.506651535,0.08081034
1764505257.806448,-5.60042,0.88508,-0.51884,-0.84521268,0.506651535,0.08081034
1764505257.806448,-5.60042,0.88508,-0.51884,-0.84521268,0.506651535,0.08081034
1764505257.806448,-5.60042,0.88508,-0.51884,-0.84521268,0.506651535,0.08081034
1764505257.806448,-5.60042,0.88508,-0.51884,-0.84521268,0.506651535,0.08081034
1764505257.806448,-5.60042,0.88508,-0.51884,-0.84521268,0.506651535,0.08081034
1764505257.806448,-5.60042,0.88508,-0.51884,-0.84521268,0.506651535,0.08081034
1764505257.806448,-5.15788,1.4497,-0.8698199999999999,-0.8447244,0.50451531,0.081847935
1764505257.806448,-5.15788,1.4497,-0.8698199999999999,-0.8447244,0.50451531,0.081847935
1764505257.806448,-5.15788,1.4497,-0.8698199999999999,-0.8447244,0.50451531,0.081847935
1764505257.806448,-5.15788,1.4497,-0.8698199999999999,-0.8447244,0.50451531,0.081847935
1764505257.806448,-5.15788,1.4497,-0.8698199999999999,-0.8447244,0.50451531,0.081847935
1764505257.806448,-5.15788,1.4497,-0.8698199999999999,-0.8447244,0.50451531,0.081847935
1764505257.806448,-5.15788,1.4497,-0.8698199999999999,-0.8447244,0.50451531,0.081847935
1764505257.806448,-5.15788,1.4497,-0.8698199999999999,-0.8447244,0.50451531,0.081847935
1764505257.8498409,-5.15788,1.4497,-0.8698199999999999,-0.8447244,0.50451531,0.081847935
1764505257.8503883,-5.15788,1.4497,-0.8698199999999999,-0.8447244,0.50451531,0.081847935
1764505257.8503883,-4.39488,1.4497,-0.3815,-0.845761995,0.500914245,0.08239725
1764505257.8503883,-4.39488,1.4497,-0.3815,-0.845761995,0.500914245,0.08239725
1764505257.8503883,-4.39488,1.4497,-0.3815,-0.845761995,0.500914245,0.08239725
1764505257.8503883,-4.39488,1.4497,-0.3815,-0.845761995,0.500914245,0.08239725
1764505257.8503883,-4.39488,1.4497,-0.3815,-0.845761995,0.500914245,0.08239725
1764505257.8503883,-4.39488,1.4497,-0.3815,-0.845761995,0.500914245,0.08239725
1764505257.8503883,-4.39488,1.4497,-0.3815,-0.845761995,0.500914245,0.08239725
1764505257.8503883,-4.39488,1.4497,-0.3815,-0.845761995,0.500914245,0.08239725
1764505257.8503883,-4.39488,1.4497,-0.3815,-0.845761995,0.500914245,0.08239725
1764505257.8503883,-4.39488,1.4497,-0.3815,-0.845761995,0.500914245,0.08239725
1764505257.8503883,-3.6624,1.03768,0.6103999999999999,-0.84655545,0.497008005,0.08239725
1764505257.8503883,-3.6624,1.03768,0.6103999999999999,-0.84655545,0.497008005,0.08239725
1764505257.8503883,-3.6624,1.03768,0.6103999999999999,-0.84655545,0.497008005,0.08239725
1764505257.8503883,-3.6624,1.03768,0.6103999999999999,-0.84655545,0.497008005,0.08239725
1764505257.8503883,-3.6624,1.03768,0.6103999999999999,-0.84655545,0.497008005,0.08239725
1764505257.8503883,-3.6624,1.03768,0.6103999999999999,-0.84655545,0.497008005,0.08239725
1764505257.8503883,-3.6624,1.03768,0.6103999999999999,-0.84655545,0.497008005,0.08239725
1764505257.8503883,-3.6624,1.03768,0.6103999999999999,-0.84655545,0.497008005,0.08239725
1764505257.8503883,-3.6624,1.03768,0.6103999999999999,-0.84655545,0.497008005,0.08239725
1764505257.8503883,-3.6624,1.03768,0.6103999999999999,-0.84655545,0.497008005,0.08239725
1764505257.8983848,-3.14356,0.6714399999999999,0.28994,-0.84826443,0.494810745,0.080993445
1764505257.8983848,-3.14356,0.6714399999999999,0.28994,-0.84826443,0.494810745,0.080993445
1764505257.8983848,-3.14356,0.6714399999999999,0.28994,-0.84826443,0.494810745,0.080993445
1764505257.8983848,-3.14356,0.6714399999999999,0.28994,-0.84826443,0.494810745,0.080993445
1764505257.8983848,-3.14356,0.6714399999999999,0.28994,-0.84826443,0.494810745,0.080993445
1764505257.8983848,-3.14356,0.6714399999999999,0.28994,-0.84826443,0.494810745,0.080993445
1764505257.8983848,-3.14356,0.6714399999999999,0.28994,-0.84826443,0.494810745,0.080993445
1764505257.8983848,-3.14356,0.6714399999999999,0.28994,-0.84826443,0.494810745,0.080993445
1764505257.8983848,-3.14356,0.6714399999999999,0.28994,-0.84826443,0.494810745,0.080993445
1764505257.8983848,-3.14356,0.6714399999999999,0.28994,-0.84826443,0.494810745,0.080993445
1764505257.8993986,-1.95328,0.7019599999999999,-0.0762999999999999,-0.8483865,0.495543165,0.07983378
1764505257.8993986,-1.95328,0.7019599999999999,-0.0762999999999999,-0.8483865,0.495543165,0.07983378
1764505257.8993986,-1.95328,0.7019599999999999,-0.0762999999999999,-0.8483865,0.495543165,0.07983378
1764505257.8993986,-1.95328,0.7019599999999999,-0.0762999999999999,-0.8483865,0.495543165,0.07983378
1764505257.8993986,-1.95328,0.7019599999999999,-0.0762999999999999,-0.8483865,0.495543165,0.07983378
1764505257.8993986,-1.95328,0.7019599999999999,-0.0762999999999999,-0.8483865,0.495543165,0.07983378
1764505257.8993986,-1.95328,0.7019599999999999,-0.0762999999999999,-0.8483865,0.495543165,0.07983378
1764505257.8993986,-1.95328,0.7019599999999999,-0.0762999999999999,-0.8483865,0.495543165,0.07983378
1764505257.8993986,-1.95328,0.7019599999999999,-0.0762999999999999,-0.8483865,0.495543165,0.07983378
1764505257.8993986,-1.95328,0.7019599999999999,-0.0762999999999999,-0.8483865,0.495543165,0.07983378
1764505257.8993986,-1.2971,0.0762999999999999,-0.04578,-0.84789822,0.497862495,0.079528605
1764505257.8993986,-1.2971,0.0762999999999999,-0.04578,-0.84789822,0.497862495,0.079528605
1764505257.8993986,-1.2971,0.0762999999999999,-0.04578,-0.84789822,0.497862495,0.079528605
1764505257.8993986,-1.2971,0.0762999999999999,-0.04578,-0.84789822,0.497862495,0.079528605
1764505257.9429226,-1.2971,0.0762999999999999,-0.04578,-0.84789822,0.497862495,0.079528605
1764505257.9429226,-1.2971,0.0762999999999999,-0.04578,-0.84789822,0.497862495,0.079528605
1764505257.9429226,-1.2971,0.0762999999999999,-0.04578,-0.84789822,0.497862495,0.079528605
1764505257.9429226,-1.2971,0.0762999999999999,-0.04578,-0.84789822,0.497862495,0.079528605
1764505257.9444568,-1.2971,0.0762999999999999,-0.04578,-0.84789822,0.497862495,0.079528605
1764505257.9444568,-1.2971,0.0762999999999999,-0.04578,-0.84789822,0.497862495,0.079528605
1764505257.9444568,-1.6633399999999998,0.1525999999999999,0.18312,-0.847593045,0.501280455,0.080505165
1764505257.9444568,-1.6633399999999998,0.1525999999999999,0.18312,-0.847593045,0.501280455,0.080505165
1764505257.945465,-1.6633399999999998,0.1525999999999999,0.18312,-0.847593045,0.501280455,0.080505165
1764505257.9459398,-1.6633399999999998,0.1525999999999999,0.18312,-0.847593045,0.501280455,0.080505165
1764505257.9459398,-1.6633399999999998,0.1525999999999999,0.18312,-0.847593045,0.501280455,0.080505165
1764505257.9464672,-1.6633399999999998,0.1525999999999999,0.18312,-0.847593045,0.501280455,0.080505165
1764505257.9464672,-1.6633399999999998,0.1525999999999999,0.18312,-0.847593045,0.501280455,0.080505165
1764505257.9464672,-1.6633399999999998,0.1525999999999999,0.18312,-0.847593045,0.501280455,0.080505165
1764505257.9464672,-1.6633399999999998,0.1525999999999999,0.18312,-0.847593045,0.501280455,0.080505165
1764505257.9464672,-1.6633399999999998,0.1525999999999999,0.18312,-0.847593045,0.501280455,0.080505165
1764505257.9464672,-2.73154,0.93086,-0.10682,-0.84765408,0.50475945,0.08093241
1764505257.947979,-2.73154,0.93086,-0.10682,-0.84765408,0.50475945,0.08093241
1764505257.947979,-2.73154,0.93086,-0.10682,-0.84765408,0.50475945,0.08093241
1764505257.947979,-2.73154,0.93086,-0.10682,-0.84765408,0.50475945,0.08093241
1764505257.947979,-2.73154,0.93086,-0.10682,-0.84765408,0.50475945,0.08093241
1764505257.947979,-2.73154,0.93086,-0.10682,-0.84765408,0.50475945,0.08093241
1764505257.947979,-2.73154,0.93086,-0.10682,-0.84765408,0.50475945,0.08093241
1764505257.947979,-2.73154,0.93086,-0.10682,-0.84765408,0.50475945,0.08093241
1764505257.989215,-2.73154,0.93086,-0.10682,-0.84765408,0.50475945,0.08093241
1764505257.9902122,-2.73154,0.93086,-0.10682,-0.84765408,0.50475945,0.08093241
1764505257.9902122,-4.15072,1.05294,-0.3051999999999999,-0.846372345,0.5065905,0.082458285
1764505257.9902122,-4.15072,1.05294,-0.3051999999999999,-0.846372345,0.5065905,0.082458285
1764505257.9902122,-4.15072,1.05294,-0.3051999999999999,-0.846372345,0.5065905,0.082458285
1764505257.9902122,-4.15072,1.05294,-0.3051999999999999,-0.846372345,0.5065905,0.082458285
1764505257.9912088,-4.15072,1.05294,-0.3051999999999999,-0.846372345,0.5065905,0.082458285
1764505257.9912088,-4.15072,1.05294,-0.3051999999999999,-0.846372345,0.5065905,0.082458285
1764505257.9912088,-4.15072,1.05294,-0.3051999999999999,-0.846372345,0.5065905,0.082458285
1764505257.9912088,-4.15072,1.05294,-0.3051999999999999,-0.846372345,0.5065905,0.082458285
1764505257.9912088,-4.15072,1.05294,-0.3051999999999999,-0.846372345,0.5065905,0.082458285
1764505257.992224,-4.15072,1.05294,-0.3051999999999999,-0.846372345,0.5065905,0.082458285
1764505257.992224,-5.14262,1.86172,-0.3204599999999999,-0.84545682,0.506407395,0.08276346
1764505257.992224,-5.14262,1.86172,-0.3204599999999999,-0.84545682,0.506407395,0.08276346
1764505257.992224,-5.14262,1.86172,-0.3204599999999999,-0.84545682,0.506407395,0.08276346
1764505257.9932084,-5.14262,1.86172,-0.3204599999999999,-0.84545682,0.506407395,0.08276346
1764505257.9932084,-5.14262,1.86172,-0.3204599999999999,-0.84545682,0.506407395,0.08276346
1764505257.9932084,-5.14262,1.86172,-0.3204599999999999,-0.84545682,0.506407395,0.08276346
1764505257.9932084,-5.14262,1.86172,-0.3204599999999999,-0.84545682,0.506407395,0.08276346
1764505257.9932084,-5.14262,1.86172,-0.3204599999999999,-0.84545682,0.506407395,0.08276346
1764505257.9932084,-5.14262,1.86172,-0.3204599999999999,-0.84545682,0.506407395,0.08276346
1764505257.9947166,-5.14262,1.86172,-0.3204599999999999,-0.84545682,0.506407395,0.08276346
1764505258.0386071,-5.53938,2.42634,-0.04578,-0.84545682,0.503721855,0.08203104
1764505258.0386071,-5.53938,2.42634,-0.04578,-0.84545682,0.503721855,0.08203104
1764505258.0386071,-5.53938,2.42634,-0.04578,-0.84545682,0.503721855,0.08203104
1764505258.0399008,-5.53938,2.42634,-0.04578,-0.84545682,0.503721855,0.08203104
1764505258.0399008,-5.53938,2.42634,-0.04578,-0.84545682,0.503721855,0.08203104
1764505258.0399008,-5.53938,2.42634,-0.04578,-0.84545682,0.503721855,0.08203104
1764505258.0399008,-5.53938,2.42634,-0.04578,-0.84545682,0.503721855,0.08203104
1764505258.0399008,-5.53938,2.42634,-0.04578,-0.84545682,0.503721855,0.08203104
1764505258.0399008,-5.53938,2.42634,-0.04578,-0.84545682,0.503721855,0.08203104
1764505258.0399008,-5.53938,2.42634,-0.04578,-0.84545682,0.503721855,0.08203104
1764505258.0399008,-4.89846,1.6022999999999998,0.3357199999999999,-0.845884065,0.50060907,0.081237585
1764505258.0399008,-4.89846,1.6022999999999998,0.3357199999999999,-0.845884065,0.50060907,0.081237585
1764505258.0408986,-4.89846,1.6022999999999998,0.3357199999999999,-0.845884065,0.50060907,0.081237585
1764505258.0408986,-4.89846,1.6022999999999998,0.3357199999999999,-0.845884065,0.50060907,0.081237585
1764505258.0408986,-4.89846,1.6022999999999998,0.3357199999999999,-0.845884065,0.50060907,0.081237585
1764505258.0408986,-4.89846,1.6022999999999998,0.3357199999999999,-0.845884065,0.50060907,0.081237585
1764505258.0408986,-4.89846,1.6022999999999998,0.3357199999999999,-0.845884065,0.50060907,0.081237585
1764505258.0408986,-4.89846,1.6022999999999998,0.3357199999999999,-0.845884065,0.50060907,0.081237585
1764505258.0408986,-4.89846,1.6022999999999998,0.3357199999999999,-0.845884065,0.50060907,0.081237585
1764505258.0408986,-4.89846,1.6022999999999998,0.3357199999999999,-0.845884065,0.50060907,0.081237585
1764505258.0408986,-2.91466,0.97664,0.27468,-0.84679959,0.497374215,0.08081034
1764505258.0408986,-2.91466,0.97664,0.27468,-0.84679959,0.497374215,0.08081034
1764505258.0408986,-2.91466,0.97664,0.27468,-0.84679959,0.497374215,0.08081034
1764505258.0408986,-2.91466,0.97664,0.27468,-0.84679959,0.497374215,0.08081034
1764505258.0881011,-2.91466,0.97664,0.27468,-0.84679959,0.497374215,0.08081034
1764505258.0881011,-2.91466,0.97664,0.27468,-0.84679959,0.497374215,0.08081034
1764505258.0881011,-2.91466,0.97664,0.27468,-0.84679959,0.497374215,0.08081034
1764505258.0881011,-2.91466,0.97664,0.27468,-0.84679959,0.497374215,0.08081034
1764505258.0881011,-2.91466,0.97664,0.27468,-0.84679959,0.497374215,0.08081034
1764505258.0881011,-2.91466,0.97664,0.27468,-0.84679959,0.497374215,0.08081034
