Timestamp,GyroX,GyroY,GyroZ,AccX,AccY,AccZ
1764505567.4515214,-4.1965,0.8392999999999999,0.13734,-0.84325956,0.510923985,0.07348614
1764505567.4515214,-4.1965,0.8392999999999999,0.13734,-0.84325956,0.510923985,0.07348614
1764505567.4515214,-4.1965,0.8392999999999999,0.13734,-0.84325956,0.510923985,0.07348614
1764505567.4515214,-3.55558,0.7019599999999999,0.3357199999999999,-0.841611615,0.510679845,0.073425105
1764505567.4515214,-3.55558,0.7019599999999999,0.3357199999999999,-0.841611615,0.510679845,0.073425105
1764505567.4515214,-3.55558,0.7019599999999999,0.3357199999999999,-0.841611615,0.510679845,0.073425105
1764505567.4515214,-3.55558,0.7019599999999999,0.3357199999999999,-0.841611615,0.510679845,0.073425105
1764505567.4515214,-3.55558,0.7019599999999999,0.3357199999999999,-0.841611615,0.510679845,0.073425105
1764505567.4515214,-3.55558,0.7019599999999999,0.3357199999999999,-0.841611615,0.510679845,0.073425105
1764505567.4515214,-3.55558,0.7019599999999999,0.3357199999999999,-0.841611615,0.510679845,0.073425105
1764505567.4515214,-3.55558,0.7019599999999999,0.3357199999999999,-0.841611615,0.510679845,0.073425105
1764505567.4520411,-3.55558,0.7019599999999999,0.3357199999999999,-0.841611615,0.510679845,0.073425105
1764505567.4520411,-3.55558,0.7019599999999999,0.3357199999999999,-0.841611615,0.510679845,0.073425105
1764505567.4520411,-4.18124,2.25848,0.7019599999999999,-0.840146775,0.51074088,0.073058895
1764505567.4520411,-4.18124,2.25848,0.7019599999999999,-0.840146775,0.51074088,0.073058895
1764505567.4520411,-4.18124,2.25848,0.7019599999999999,-0.840146775,0.51074088,0.073058895
1764505567.4520411,-4.18124,2.25848,0.7019599999999999,-0.840146775,0.51074088,0.073058895
1764505567.4520411,-4.18124,2.25848,0.7019599999999999,-0.840146775,0.51074088,0.073058895
1764505567.4520411,-4.18124,2.25848,0.7019599999999999,-0.840146775,0.51074088,0.073058895
1764505567.4520411,-4.18124,2.25848,0.7019599999999999,-0.840146775,0.51074088,0.073058895
1764505567.4520411,-4.18124,2.25848,0.7019599999999999,-0.840146775,0.51074088,0.073058895
1764505567.4520411,-4.18124,2.25848,0.7019599999999999,-0.840146775,0.51074088,0.073058895
1764505567.4520411,-4.18124,2.25848,0.7019599999999999,-0.840146775,0.51074088,0.073058895
1764505567.4953537,-4.01338,2.42634,0.77826,-0.8414895450000001,0.511046055,0.0720213
1764505567.4953537,-4.01338,2.42634,0.77826,-0.8414895450000001,0.511046055,0.0720213
1764505567.4953537,-4.01338,2.42634,0.77826,-0.8414895450000001,0.511046055,0.0720213
1764505567.4953537,-4.01338,2.42634,0.77826,-0.8414895450000001,0.511046055,0.0720213
1764505567.4953537,-4.01338,2.42634,0.77826,-0.8414895450000001,0.511046055,0.0720213
1764505567.4953537,-4.01338,2.42634,0.77826,-0.8414895450000001,0.511046055,0.0720213
1764505567.4953537,-4.01338,2.42634,0.77826,-0.8414895450000001,0.511046055,0.0720213
1764505567.4953537,-4.01338,2.42634,0.77826,-0.8414895450000001,0.511046055,0.0720213
1764505567.4953537,-4.01338,2.42634,0.77826,-0.8414895450000001,0.511046055,0.0720213
1764505567.4953537,-4.01338,2.42634,0.77826,-0.8414895450000001,0.511046055,0.0720213
1764505567.4953537,-3.55558,-0.6103999999999999,1.02242,-0.844297155,0.512022615,0.072448545
1764505567.4953537,-3.55558,-0.6103999999999999,1.02242,-0.844297155,0.512022615,0.072448545
1764505567.4978197,-3.55558,-0.6103999999999999,1.02242,-0.844297155,0.512022615,0.072448545
1764505567.4978197,-3.55558,-0.6103999999999999,1.02242,-0.844297155,0.512022615,0.072448545
1764505567.4978197,-3.55558,-0.6103999999999999,1.02242,-0.844297155,0.512022615,0.072448545
1764505567.4978197,-3.55558,-0.6103999999999999,1.02242,-0.844297155,0.512022615,0.072448545
1764505567.4978197,-3.55558,-0.6103999999999999,1.02242,-0.844297155,0.512022615,0.072448545
1764505567.4978197,-3.55558,-0.6103999999999999,1.02242,-0.844297155,0.512022615,0.072448545
1764505567.4978197,-3.55558,-0.6103999999999999,1.02242,-0.844297155,0.512022615,0.072448545
1764505567.4978197,-3.55558,-0.6103999999999999,1.02242,-0.844297155,0.512022615,0.072448545
1764505567.4978197,-3.5098,0.18312,0.47306,-0.84362577,0.512877105,0.073669245
1764505567.4978197,-3.5098,0.18312,0.47306,-0.84362577,0.512877105,0.073669245
1764505567.4978197,-3.5098,0.18312,0.47306,-0.84362577,0.512877105,0.073669245
1764505567.4978197,-3.5098,0.18312,0.47306,-0.84362577,0.512877105,0.073669245
1764505567.5456846,-3.5098,0.18312,0.47306,-0.84362577,0.512877105,0.073669245
1764505567.5456846,-3.5098,0.18312,0.47306,-0.84362577,0.512877105,0.073669245
1764505567.5456846,-3.5098,0.18312,0.47306,-0.84362577,0.512877105,0.073669245
1764505567.5456846,-3.5098,0.18312,0.47306,-0.84362577,0.512877105,0.073669245
1764505567.5456846,-3.5098,0.18312,0.47306,-0.84362577,0.512877105,0.073669245
1764505567.5456846,-3.5098,0.18312,0.47306,-0.84362577,0.512877105,0.073669245
1764505567.5456846,-4.15072,1.6786,0.18312,-0.84216093,0.513609525,0.072936825
1764505567.5456846,-4.15072,1.6786,0.18312,-0.84216093,0.513609525,0.072936825
1764505567.5456846,-4.15072,1.6786,0.18312,-0.84216093,0.513609525,0.072936825
1764505567.5456846,-4.15072,1.6786,0.18312,-0.84216093,0.513609525,0.072936825
1764505567.5456846,-4.15072,1.6786,0.18312,-0.84216093,0.513609525,0.072936825
1764505567.5456846,-4.15072,1.6786,0.18312,-0.84216093,0.513609525,0.072936825
1764505567.5456846,-4.15072,1.6786,0.18312,-0.84216093,0.513609525,0.072936825
1764505567.5456846,-4.15072,1.6786,0.18312,-0.84216093,0.513609525,0.072936825
1764505567.5456846,-4.15072,1.6786,0.18312,-0.84216093,0.513609525,0.072936825
1764505567.5456846,-4.15072,1.6786,0.18312,-0.84216093,0.513609525,0.072936825
1764505567.5456846,-4.97476,1.89224,0.9919,-0.841367475,0.513853665,0.07189923
1764505567.5456846,-4.97476,1.89224,0.9919,-0.841367475,0.513853665,0.07189923
1764505567.5456846,-4.97476,1.89224,0.9919,-0.841367475,0.513853665,0.07189923
1764505567.5456846,-4.97476,1.89224,0.9919,-0.841367475,0.513853665,0.07189923
1764505567.5456846,-4.97476,1.89224,0.9919,-0.841367475,0.513853665,0.07189923
1764505567.5456846,-4.97476,1.89224,0.9919,-0.841367475,0.513853665,0.07189923
1764505567.589887,-4.97476,1.89224,0.9919,-0.841367475,0.513853665,0.07189923
1764505567.589887,-4.97476,1.89224,0.9919,-0.841367475,0.513853665,0.07189923
1764505567.589887,-4.97476,1.89224,0.9919,-0.841367475,0.513853665,0.07189923
1764505567.589887,-4.97476,1.89224,0.9919,-0.841367475,0.513853665,0.07189923
1764505567.589887,-5.4936,1.48022,1.02242,-0.84057402,0.512999175,0.07311993
1764505567.589887,-5.4936,1.48022,1.02242,-0.84057402,0.512999175,0.07311993
1764505567.589887,-5.4936,1.48022,1.02242,-0.84057402,0.512999175,0.07311993
1764505567.589887,-5.4936,1.48022,1.02242,-0.84057402,0.512999175,0.07311993
1764505567.589887,-5.4936,1.48022,1.02242,-0.84057402,0.512999175,0.07311993
1764505567.589887,-5.4936,1.48022,1.02242,-0.84057402,0.512999175,0.07311993
1764505567.589887,-5.4936,1.48022,1.02242,-0.84057402,0.512999175,0.07311993
1764505567.589887,-5.4936,1.48022,1.02242,-0.84057402,0.512999175,0.07311993
1764505567.589887,-5.4936,1.48022,1.02242,-0.84057402,0.512999175,0.07311993
1764505567.589887,-5.4936,1.48022,1.02242,-0.84057402,0.512999175,0.07311993
1764505567.589887,-6.3329,2.30426,0.65618,-0.840024705,0.51196158,0.075134085
1764505567.589887,-6.3329,2.30426,0.65618,-0.840024705,0.51196158,0.075134085
1764505567.589887,-6.3329,2.30426,0.65618,-0.840024705,0.51196158,0.075134085
1764505567.589887,-6.3329,2.30426,0.65618,-0.840024705,0.51196158,0.075134085
1764505567.589887,-6.3329,2.30426,0.65618,-0.840024705,0.51196158,0.075134085
1764505567.589887,-6.3329,2.30426,0.65618,-0.840024705,0.51196158,0.075134085
1764505567.589887,-6.3329,2.30426,0.65618,-0.840024705,0.51196158,0.075134085
1764505567.589887,-6.3329,2.30426,0.65618,-0.840024705,0.51196158,0.075134085
1764505567.589887,-6.3329,2.30426,0.65618,-0.840024705,0.51196158,0.075134085
1764505567.589887,-6.3329,2.30426,0.65618,-0.840024705,0.51196158,0.075134085
1764505567.6343882,-6.28712,1.34288,0.51884,-0.84142851,0.511656405,0.075500295
1764505567.6349132,-6.28712,1.34288,0.51884,-0.84142851,0.511656405,0.075500295
1764505567.6349132,-6.28712,1.34288,0.51884,-0.84142851,0.511656405,0.075500295
1764505567.6349132,-6.28712,1.34288,0.51884,-0.84142851,0.511656405,0.075500295
1764505567.6349132,-6.28712,1.34288,0.51884,-0.84142851,0.511656405,0.075500295
1764505567.6349132,-6.28712,1.34288,0.51884,-0.84142851,0.511656405,0.075500295
1764505567.6349132,-6.28712,1.34288,0.51884,-0.84142851,0.511656405,0.075500295
1764505567.6349132,-6.28712,1.34288,0.51884,-0.84142851,0.511656405,0.075500295
1764505567.636433,-6.28712,1.34288,0.51884,-0.84142851,0.511656405,0.075500295
1764505567.636433,-6.28712,1.34288,0.51884,-0.84142851,0.511656405,0.075500295
1764505567.636433,-5.29522,0.73248,1.03768,-0.842344035,0.51086295,0.07531719
1764505567.636433,-5.29522,0.73248,1.03768,-0.842344035,0.51086295,0.07531719
1764505567.636433,-5.29522,0.73248,1.03768,-0.842344035,0.51086295,0.07531719
1764505567.636433,-5.29522,0.73248,1.03768,-0.842344035,0.51086295,0.07531719
1764505567.636433,-5.29522,0.73248,1.03768,-0.842344035,0.51086295,0.07531719
1764505567.636433,-5.29522,0.73248,1.03768,-0.842344035,0.51086295,0.07531719
1764505567.636433,-5.29522,0.73248,1.03768,-0.842344035,0.51086295,0.07531719
1764505567.636433,-5.29522,0.73248,1.03768,-0.842344035,0.51086295,0.07531719
1764505567.636433,-5.29522,0.73248,1.03768,-0.842344035,0.51086295,0.07531719
1764505567.636433,-5.29522,0.73248,1.03768,-0.842344035,0.51086295,0.07531719
1764505567.6369836,-3.99812,0.74774,0.8087799999999999,-0.842710245,0.510679845,0.073242
1764505567.6369836,-3.99812,0.74774,0.8087799999999999,-0.842710245,0.510679845,0.073242
1764505567.680179,-3.99812,0.74774,0.8087799999999999,-0.842710245,0.510679845,0.073242
1764505567.6806917,-3.99812,0.74774,0.8087799999999999,-0.842710245,0.510679845,0.073242
1764505567.6806917,-3.99812,0.74774,0.8087799999999999,-0.842710245,0.510679845,0.073242
1764505567.6806917,-3.99812,0.74774,0.8087799999999999,-0.842710245,0.510679845,0.073242
1764505567.6806917,-3.99812,0.74774,0.8087799999999999,-0.842710245,0.510679845,0.073242
1764505567.6806917,-3.99812,0.74774,0.8087799999999999,-0.842710245,0.510679845,0.073242
1764505567.6806917,-3.99812,0.74774,0.8087799999999999,-0.842710245,0.510679845,0.073242
1764505567.6806917,-3.99812,0.74774,0.8087799999999999,-0.842710245,0.510679845,0.073242
1764505567.6806917,-3.2046,0.6409199999999999,-0.06104,-0.841855755,0.512266755,0.07226544
1764505567.6806917,-3.2046,0.6409199999999999,-0.06104,-0.841855755,0.512266755,0.07226544
1764505567.6806917,-3.2046,0.6409199999999999,-0.06104,-0.841855755,0.512266755,0.07226544
1764505567.6806917,-3.2046,0.6409199999999999,-0.06104,-0.841855755,0.512266755,0.07226544
1764505567.6806917,-3.2046,0.6409199999999999,-0.06104,-0.841855755,0.512266755,0.07226544
1764505567.6806917,-3.2046,0.6409199999999999,-0.06104,-0.841855755,0.512266755,0.07226544
1764505567.6806917,-3.2046,0.6409199999999999,-0.06104,-0.841855755,0.512266755,0.07226544
1764505567.6806917,-3.2046,0.6409199999999999,-0.06104,-0.841855755,0.512266755,0.07226544
1764505567.6806917,-3.2046,0.6409199999999999,-0.06104,-0.841855755,0.512266755,0.07226544
1764505567.6806917,-3.2046,0.6409199999999999,-0.06104,-0.841855755,0.512266755,0.07226544
1764505567.6806917,-3.7387,1.25132,0.36624,-0.83910918,0.512510895,0.07311993
1764505567.6806917,-3.7387,1.25132,0.36624,-0.83910918,0.512510895,0.07311993
1764505567.6806917,-3.7387,1.25132,0.36624,-0.83910918,0.512510895,0.07311993
1764505567.6806917,-3.7387,1.25132,0.36624,-0.83910918,0.512510895,0.07311993
1764505567.6806917,-3.7387,1.25132,0.36624,-0.83910918,0.512510895,0.07311993
1764505567.6806917,-3.7387,1.25132,0.36624,-0.83910918,0.512510895,0.07311993
1764505567.7310886,-3.7387,1.25132,0.36624,-0.83910918,0.512510895,0.07311993
1764505567.7310886,-3.7387,1.25132,0.36624,-0.83910918,0.512510895,0.07311993
1764505567.7310886,-3.7387,1.25132,0.36624,-0.83910918,0.512510895,0.07311993
1764505567.7310886,-3.7387,1.25132,0.36624,-0.83910918,0.512510895,0.07311993
1764505567.7310886,-4.94424,1.526,0.01526,-0.83923125,0.512632965,0.07348614
1764505567.7310886,-4.94424,1.526,0.01526,-0.83923125,0.512632965,0.07348614
1764505567.7310886,-4.94424,1.526,0.01526,-0.83923125,0.512632965,0.07348614
1764505567.7326052,-4.94424,1.526,0.01526,-0.83923125,0.512632965,0.07348614
1764505567.7326052,-4.94424,1.526,0.01526,-0.83923125,0.512632965,0.07348614
1764505567.7326052,-4.94424,1.526,0.01526,-0.83923125,0.512632965,0.07348614
1764505567.7326052,-4.94424,1.526,0.01526,-0.83923125,0.512632965,0.07348614
1764505567.7326052,-4.94424,1.526,0.01526,-0.83923125,0.512632965,0.07348614
1764505567.7326052,-4.94424,1.526,0.01526,-0.83923125,0.512632965,0.07348614
1764505567.7326052,-4.94424,1.526,0.01526,-0.83923125,0.512632965,0.07348614
1764505567.7336197,-5.371519999999999,1.84646,0.39676,-0.84069609,0.51342642,0.07373028
1764505567.7336197,-5.371519999999999,1.84646,0.39676,-0.84069609,0.51342642,0.07373028
1764505567.7336197,-5.371519999999999,1.84646,0.39676,-0.84069609,0.51342642,0.07373028
1764505567.7336197,-5.371519999999999,1.84646,0.39676,-0.84069609,0.51342642,0.07373028
1764505567.7336197,-5.371519999999999,1.84646,0.39676,-0.84069609,0.51342642,0.07373028
1764505567.7336197,-5.371519999999999,1.84646,0.39676,-0.84069609,0.51342642,0.07373028
1764505567.7336197,-5.371519999999999,1.84646,0.39676,-0.84069609,0.51342642,0.07373028
1764505567.7336197,-5.371519999999999,1.84646,0.39676,-0.84069609,0.51342642,0.07373028
1764505567.7336197,-5.371519999999999,1.84646,0.39676,-0.84069609,0.51342642,0.07373028
1764505567.7336197,-5.371519999999999,1.84646,0.39676,-0.84069609,0.51342642,0.07373028
1764505567.7769785,-5.78354,0.6867,-0.3204599999999999,-0.840512985,0.5133653850000001,0.07482891
1764505567.7779963,-5.78354,0.6867,-0.3204599999999999,-0.840512985,0.5133653850000001,0.07482891
1764505567.7779963,-5.78354,0.6867,-0.3204599999999999,-0.840512985,0.5133653850000001,0.07482891
1764505567.779003,-5.78354,0.6867,-0.3204599999999999,-0.840512985,0.5133653850000001,0.07482891
1764505567.7798288,-5.78354,0.6867,-0.3204599999999999,-0.840512985,0.5133653850000001,0.07482891
1764505567.7798288,-5.78354,0.6867,-0.3204599999999999,-0.840512985,0.5133653850000001,0.07482891
1764505567.7798288,-5.78354,0.6867,-0.3204599999999999,-0.840512985,0.5133653850000001,0.07482891
1764505567.7798288,-5.78354,0.6867,-0.3204599999999999,-0.840512985,0.5133653850000001,0.07482891
1764505567.7798288,-5.78354,0.6867,-0.3204599999999999,-0.840512985,0.5133653850000001,0.07482891
1764505567.7798288,-5.78354,0.6867,-0.3204599999999999,-0.840512985,0.5133653850000001,0.07482891
1764505567.7798288,-4.89846,1.55652,-0.73248,-0.84069609,0.51098502,0.07580547
1764505567.7808447,-4.89846,1.55652,-0.73248,-0.84069609,0.51098502,0.07580547
1764505567.7808447,-4.89846,1.55652,-0.73248,-0.84069609,0.51098502,0.07580547
1764505567.7808447,-4.89846,1.55652,-0.73248,-0.84069609,0.51098502,0.07580547
1764505567.7808447,-4.89846,1.55652,-0.73248,-0.84069609,0.51098502,0.07580547
1764505567.7808447,-4.89846,1.55652,-0.73248,-0.84069609,0.51098502,0.07580547
1764505567.7818432,-4.89846,1.55652,-0.73248,-0.84069609,0.51098502,0.07580547
1764505567.7818432,-4.89846,1.55652,-0.73248,-0.84069609,0.51098502,0.07580547
1764505567.7818432,-4.89846,1.55652,-0.73248,-0.84069609,0.51098502,0.07580547
1764505567.7818432,-4.89846,1.55652,-0.73248,-0.84069609,0.51098502,0.07580547
1764505567.7818432,-3.76922,1.61756,0.19838,-0.840146775,0.50952018,0.075256155
1764505567.7818432,-3.76922,1.61756,0.19838,-0.840146775,0.50952018,0.075256155
1764505567.7818432,-3.76922,1.61756,0.19838,-0.840146775,0.50952018,0.075256155
1764505567.7818432,-3.76922,1.61756,0.19838,-0.840146775,0.50952018,0.075256155
1764505567.822163,-3.76922,1.61756,0.19838,-0.840146775,0.50952018,0.075256155
1764505567.822163,-3.76922,1.61756,0.19838,-0.840146775,0.50952018,0.075256155
1764505567.822163,-3.76922,1.61756,0.19838,-0.840146775,0.50952018,0.075256155
1764505567.822163,-3.76922,1.61756,0.19838,-0.840146775,0.50952018,0.075256155
1764505567.822163,-3.76922,1.61756,0.19838,-0.840146775,0.50952018,0.075256155
1764505567.822163,-3.76922,1.61756,0.19838,-0.840146775,0.50952018,0.075256155
1764505567.8241775,-3.72344,1.15976,0.48832,-0.84130644,0.50915397,0.07287579
1764505567.8241775,-3.72344,1.15976,0.48832,-0.84130644,0.50915397,0.07287579
1764505567.8241775,-3.72344,1.15976,0.48832,-0.84130644,0.50915397,0.07287579
1764505567.8241775,-3.72344,1.15976,0.48832,-0.84130644,0.50915397,0.07287579
1764505567.8251789,-3.72344,1.15976,0.48832,-0.84130644,0.50915397,0.07287579
1764505567.8251789,-3.72344,1.15976,0.48832,-0.84130644,0.50915397,0.07287579
1764505567.8251789,-3.72344,1.15976,0.48832,-0.84130644,0.50915397,0.07287579
1764505567.8251789,-3.72344,1.15976,0.48832,-0.84130644,0.50915397,0.07287579
1764505567.8251789,-3.72344,1.15976,0.48832,-0.84130644,0.50915397,0.07287579
1764505567.8251789,-3.72344,1.15976,0.48832,-0.84130644,0.50915397,0.07287579
1764505567.8251789,-3.5098,1.34288,0.10682,-0.8420388600000001,0.50927604,0.071960265
1764505567.8251789,-3.5098,1.34288,0.10682,-0.8420388600000001,0.50927604,0.071960265
1764505567.8251789,-3.5098,1.34288,0.10682,-0.8420388600000001,0.50927604,0.071960265
1764505567.8251789,-3.5098,1.34288,0.10682,-0.8420388600000001,0.50927604,0.071960265
1764505567.8261764,-3.5098,1.34288,0.10682,-0.8420388600000001,0.50927604,0.071960265
1764505567.8261764,-3.5098,1.34288,0.10682,-0.8420388600000001,0.50927604,0.071960265
1764505567.870011,-3.5098,1.34288,0.10682,-0.8420388600000001,0.50927604,0.071960265
1764505567.870011,-3.5098,1.34288,0.10682,-0.8420388600000001,0.50927604,0.071960265
1764505567.870011,-3.5098,1.34288,0.10682,-0.8420388600000001,0.50927604,0.071960265
1764505567.870011,-3.5098,1.34288,0.10682,-0.8420388600000001,0.50927604,0.071960265
1764505567.870011,-3.38772,0.8087799999999999,0.1525999999999999,-0.84240507,0.510313635,0.07177716
1764505567.870011,-3.38772,0.8087799999999999,0.1525999999999999,-0.84240507,0.510313635,0.07177716
1764505567.870011,-3.38772,0.8087799999999999,0.1525999999999999,-0.84240507,0.510313635,0.07177716
1764505567.870011,-3.38772,0.8087799999999999,0.1525999999999999,-0.84240507,0.510313635,0.07177716
1764505567.8710237,-3.38772,0.8087799999999999,0.1525999999999999,-0.84240507,0.510313635,0.07177716
1764505567.8710237,-3.38772,0.8087799999999999,0.1525999999999999,-0.84240507,0.510313635,0.07177716
1764505567.8710237,-3.38772,0.8087799999999999,0.1525999999999999,-0.84240507,0.510313635,0.07177716
1764505567.8710237,-3.38772,0.8087799999999999,0.1525999999999999,-0.84240507,0.510313635,0.07177716
1764505567.8710237,-3.38772,0.8087799999999999,0.1525999999999999,-0.84240507,0.510313635,0.07177716
1764505567.8710237,-3.38772,0.8087799999999999,0.1525999999999999,-0.84240507,0.510313635,0.07177716
1764505567.8710237,-3.87604,0.3509799999999999,0.3357199999999999,-0.8420388600000001,0.511656405,0.07299786
1764505567.8710237,-3.87604,0.3509799999999999,0.3357199999999999,-0.8420388600000001,0.511656405,0.07299786
1764505567.8710237,-3.87604,0.3509799999999999,0.3357199999999999,-0.8420388600000001,0.511656405,0.07299786
1764505567.8710237,-3.87604,0.3509799999999999,0.3357199999999999,-0.8420388600000001,0.511656405,0.07299786
1764505567.8710237,-3.87604,0.3509799999999999,0.3357199999999999,-0.8420388600000001,0.511656405,0.07299786
1764505567.8710237,-3.87604,0.3509799999999999,0.3357199999999999,-0.8420388600000001,0.511656405,0.07299786
1764505567.8710237,-3.87604,0.3509799999999999,0.3357199999999999,-0.8420388600000001,0.511656405,0.07299786
1764505567.8710237,-3.87604,0.3509799999999999,0.3357199999999999,-0.8420388600000001,0.511656405,0.07299786
1764505567.8710237,-3.87604,0.3509799999999999,0.3357199999999999,-0.8420388600000001,0.511656405,0.07299786
1764505567.8710237,-3.87604,0.3509799999999999,0.3357199999999999,-0.8420388600000001,0.511656405,0.07299786
1764505567.920161,-3.3572,0.8698199999999999,0.41202,-0.841611615,0.51183951,0.07470684
1764505567.920161,-3.3572,0.8698199999999999,0.41202,-0.841611615,0.51183951,0.07470684
1764505567.920161,-3.3572,0.8698199999999999,0.41202,-0.841611615,0.51183951,0.07470684
1764505567.920161,-3.3572,0.8698199999999999,0.41202,-0.841611615,0.51183951,0.07470684
1764505567.920161,-3.3572,0.8698199999999999,0.41202,-0.841611615,0.51183951,0.07470684
1764505567.920161,-3.3572,0.8698199999999999,0.41202,-0.841611615,0.51183951,0.07470684
1764505567.920161,-3.3572,0.8698199999999999,0.41202,-0.841611615,0.51183951,0.07470684
1764505567.920161,-3.3572,0.8698199999999999,0.41202,-0.841611615,0.51183951,0.07470684
1764505567.920161,-3.3572,0.8698199999999999,0.41202,-0.841611615,0.51183951,0.07470684
1764505567.920161,-3.3572,0.8698199999999999,0.41202,-0.841611615,0.51183951,0.07470684
1764505567.920161,-3.06726,1.2208,0.6714399999999999,-0.84191679,0.512388825,0.07556133
1764505567.920161,-3.06726,1.2208,0.6714399999999999,-0.84191679,0.512388825,0.07556133
1764505567.920161,-3.06726,1.2208,0.6714399999999999,-0.84191679,0.512388825,0.07556133
1764505567.921144,-3.06726,1.2208,0.6714399999999999,-0.84191679,0.512388825,0.07556133
1764505567.921144,-3.06726,1.2208,0.6714399999999999,-0.84191679,0.512388825,0.07556133
1764505567.921144,-3.06726,1.2208,0.6714399999999999,-0.84191679,0.512388825,0.07556133
1764505567.921144,-3.06726,1.2208,0.6714399999999999,-0.84191679,0.512388825,0.07556133
1764505567.921144,-3.06726,1.2208,0.6714399999999999,-0.84191679,0.512388825,0.07556133
1764505567.921144,-3.06726,1.2208,0.6714399999999999,-0.84191679,0.512388825,0.07556133
1764505567.921144,-3.06726,1.2208,0.6714399999999999,-0.84191679,0.512388825,0.07556133
1764505567.921144,-4.16598,0.94612,0.36624,-0.841855755,0.51428091,0.07507305
1764505567.921144,-4.16598,0.94612,0.36624,-0.841855755,0.51428091,0.07507305
1764505567.923141,-4.16598,0.94612,0.36624,-0.841855755,0.51428091,0.07507305
1764505567.923141,-4.16598,0.94612,0.36624,-0.841855755,0.51428091,0.07507305
1764505567.9679632,-4.16598,0.94612,0.36624,-0.841855755,0.51428091,0.07507305
1764505567.9679632,-4.16598,0.94612,0.36624,-0.841855755,0.51428091,0.07507305
1764505567.9679632,-4.16598,0.94612,0.36624,-0.841855755,0.51428091,0.07507305
1764505567.9679632,-4.16598,0.94612,0.36624,-0.841855755,0.51428091,0.07507305
1764505567.9679632,-4.16598,0.94612,0.36624,-0.841855755,0.51428091,0.07507305
1764505567.9679632,-4.16598,0.94612,0.36624,-0.841855755,0.51428091,0.07507305
1764505567.9689617,-4.83742,1.6022999999999998,0.0,-0.84179472,0.514219875,0.075256155
1764505567.9689617,-4.83742,1.6022999999999998,0.0,-0.84179472,0.514219875,0.075256155
1764505567.9689617,-4.83742,1.6022999999999998,0.0,-0.84179472,0.514219875,0.075256155
1764505567.9689617,-4.83742,1.6022999999999998,0.0,-0.84179472,0.514219875,0.075256155
1764505567.9689617,-4.83742,1.6022999999999998,0.0,-0.84179472,0.514219875,0.075256155
1764505567.9689617,-4.83742,1.6022999999999998,0.0,-0.84179472,0.514219875,0.075256155
1764505567.9689617,-4.83742,1.6022999999999998,0.0,-0.84179472,0.514219875,0.075256155
1764505567.9689617,-4.83742,1.6022999999999998,0.0,-0.84179472,0.514219875,0.075256155
1764505567.9689617,-4.83742,1.6022999999999998,0.0,-0.84179472,0.514219875,0.075256155
1764505567.9689617,-4.83742,1.6022999999999998,0.0,-0.84179472,0.514219875,0.075256155
1764505567.9689617,-5.371519999999999,1.64808,0.12208,-0.840268845,0.512999175,0.075134085
1764505567.9689617,-5.371519999999999,1.64808,0.12208,-0.840268845,0.512999175,0.075134085
1764505567.9689617,-5.371519999999999,1.64808,0.12208,-0.840268845,0.512999175,0.075134085
1764505567.9689617,-5.371519999999999,1.64808,0.12208,-0.840268845,0.512999175,0.075134085
1764505567.9689617,-5.371519999999999,1.64808,0.12208,-0.840268845,0.512999175,0.075134085
1764505567.9689617,-5.371519999999999,1.64808,0.12208,-0.840268845,0.512999175,0.075134085
1764505567.9689617,-5.371519999999999,1.64808,0.12208,-0.840268845,0.512999175,0.075134085
1764505567.9689617,-5.371519999999999,1.64808,0.12208,-0.840268845,0.512999175,0.075134085
1764505568.0133164,-5.371519999999999,1.64808,0.12208,-0.840268845,0.512999175,0.075134085
1764505568.0133164,-5.371519999999999,1.64808,0.12208,-0.840268845,0.512999175,0.075134085
1764505568.0143297,-4.54748,1.63282,0.41202,-0.839780565,0.51061881,0.07458477
1764505568.0143297,-4.54748,1.63282,0.41202,-0.839780565,0.51061881,0.07458477
1764505568.0143297,-4.54748,1.63282,0.41202,-0.839780565,0.51061881,0.07458477
1764505568.0143297,-4.54748,1.63282,0.41202,-0.839780565,0.51061881,0.07458477
1764505568.0143297,-4.54748,1.63282,0.41202,-0.839780565,0.51061881,0.07458477
1764505568.0143297,-4.54748,1.63282,0.41202,-0.839780565,0.51061881,0.07458477
1764505568.0143297,-4.54748,1.63282,0.41202,-0.839780565,0.51061881,0.07458477
1764505568.0153291,-4.54748,1.63282,0.41202,-0.839780565,0.51061881,0.07458477
1764505568.0153291,-4.54748,1.63282,0.41202,-0.839780565,0.51061881,0.07458477
1764505568.0153291,-4.54748,1.63282,0.41202,-0.839780565,0.51061881,0.07458477
1764505568.016328,-3.78448,1.526,0.41202,-0.841611615,0.50915397,0.073303035
1764505568.016328,-3.78448,1.526,0.41202,-0.841611615,0.50915397,0.073303035
1764505568.0168383,-3.78448,1.526,0.41202,-0.841611615,0.50915397,0.073303035
1764505568.0168383,-3.78448,1.526,0.41202,-0.841611615,0.50915397,0.073303035
1764505568.0168383,-3.78448,1.526,0.41202,-0.841611615,0.50915397,0.073303035
1764505568.01785,-3.78448,1.526,0.41202,-0.841611615,0.50915397,0.073303035
1764505568.01785,-3.78448,1.526,0.41202,-0.841611615,0.50915397,0.073303035
1764505568.01785,-3.78448,1.526,0.41202,-0.841611615,0.50915397,0.073303035
1764505568.01785,-3.78448,1.526,0.41202,-0.841611615,0.50915397,0.073303035
1764505568.01785,-3.78448,1.526,0.41202,-0.841611615,0.50915397,0.073303035
1764505568.01785,-2.6705,1.15976,0.3815,-0.8420388600000001,0.510069495,0.07360821
1764505568.01785,-2.6705,1.15976,0.3815,-0.8420388600000001,0.510069495,0.07360821
1764505568.061567,-2.6705,1.15976,0.3815,-0.8420388600000001,0.510069495,0.07360821
1764505568.061567,-2.6705,1.15976,0.3815,-0.8420388600000001,0.510069495,0.07360821
1764505568.061567,-2.6705,1.15976,0.3815,-0.8420388600000001,0.510069495,0.07360821
1764505568.061567,-2.6705,1.15976,0.3815,-0.8420388600000001,0.510069495,0.07360821
1764505568.061567,-2.6705,1.15976,0.3815,-0.8420388600000001,0.510069495,0.07360821
1764505568.061567,-2.6705,1.15976,0.3815,-0.8420388600000001,0.510069495,0.07360821
1764505568.061567,-2.6705,1.15976,0.3815,-0.8420388600000001,0.510069495,0.07360821
1764505568.061567,-2.6705,1.15976,0.3815,-0.8420388600000001,0.510069495,0.07360821
1764505568.061567,-3.09778,0.47306,0.0,-0.842588175,0.511046055,0.074523735
1764505568.061567,-3.09778,0.47306,0.0,-0.842588175,0.511046055,0.074523735
1764505568.061567,-3.09778,0.47306,0.0,-0.842588175,0.511046055,0.074523735
1764505568.061567,-3.09778,0.47306,0.0,-0.842588175,0.511046055,0.074523735
1764505568.061567,-3.09778,0.47306,0.0,-0.842588175,0.511046055,0.074523735
1764505568.061567,-3.09778,0.47306,0.0,-0.842588175,0.511046055,0.074523735
1764505568.061567,-3.09778,0.47306,0.0,-0.842588175,0.511046055,0.074523735
1764505568.061567,-3.09778,0.47306,0.0,-0.842588175,0.511046055,0.074523735
1764505568.061567,-3.09778,0.47306,0.0,-0.842588175,0.511046055,0.074523735
1764505568.061567,-3.09778,0.47306,0.0,-0.842588175,0.511046055,0.074523735
1764505568.061567,-3.11304,0.71722,-0.04578,-0.842344035,0.51122916,0.07434063
1764505568.061567,-3.11304,0.71722,-0.04578,-0.842344035,0.51122916,0.07434063
1764505568.061567,-3.11304,0.71722,-0.04578,-0.842344035,0.51122916,0.07434063
1764505568.061567,-3.11304,0.71722,-0.04578,-0.842344035,0.51122916,0.07434063
1764505568.061567,-3.11304,0.71722,-0.04578,-0.842344035,0.51122916,0.07434063
1764505568.061567,-3.11304,0.71722,-0.04578,-0.842344035,0.51122916,0.07434063
1764505568.111452,-3.11304,0.71722,-0.04578,-0.842344035,0.51122916,0.07434063
1764505568.111452,-3.11304,0.71722,-0.04578,-0.842344035,0.51122916,0.07434063
1764505568.111452,-3.11304,0.71722,-0.04578,-0.842344035,0.51122916,0.07434063
1764505568.1123545,-3.11304,0.71722,-0.04578,-0.842344035,0.51122916,0.07434063
1764505568.1123545,-3.69292,1.26658,0.73248,-0.841245405,0.512632965,0.07409649
1764505568.1123545,-3.69292,1.26658,0.73248,-0.841245405,0.512632965,0.07409649
1764505568.1123545,-3.69292,1.26658,0.73248,-0.841245405,0.512632965,0.07409649
1764505568.1123545,-3.69292,1.26658,0.73248,-0.841245405,0.512632965,0.07409649
1764505568.1123545,-3.69292,1.26658,0.73248,-0.841245405,0.512632965,0.07409649
1764505568.1123545,-3.69292,1.26658,0.73248,-0.841245405,0.512632965,0.07409649
1764505568.1123545,-3.69292,1.26658,0.73248,-0.841245405,0.512632965,0.07409649
1764505568.1123545,-3.69292,1.26658,0.73248,-0.841245405,0.512632965,0.07409649
1764505568.1123545,-3.69292,1.26658,0.73248,-0.841245405,0.512632965,0.07409649
1764505568.1123545,-3.69292,1.26658,0.73248,-0.841245405,0.512632965,0.07409649
1764505568.1123545,-3.57084,1.92276,0.6103999999999999,-0.842099895,0.51379263,0.072814755
1764505568.1123545,-3.57084,1.92276,0.6103999999999999,-0.842099895,0.51379263,0.072814755
1764505568.1123545,-3.57084,1.92276,0.6103999999999999,-0.842099895,0.51379263,0.072814755
1764505568.1123545,-3.57084,1.92276,0.6103999999999999,-0.842099895,0.51379263,0.072814755
1764505568.1123545,-3.57084,1.92276,0.6103999999999999,-0.842099895,0.51379263,0.072814755
1764505568.1123545,-3.57084,1.92276,0.6103999999999999,-0.842099895,0.51379263,0.072814755
1764505568.1123545,-3.57084,1.92276,0.6103999999999999,-0.842099895,0.51379263,0.072814755
1764505568.1123545,-3.57084,1.92276,0.6103999999999999,-0.842099895,0.51379263,0.072814755
1764505568.1123545,-3.57084,1.92276,0.6103999999999999,-0.842099895,0.51379263,0.072814755
1764505568.1123545,-3.57084,1.92276,0.6103999999999999,-0.842099895,0.51379263,0.072814755
1764505568.1585906,-4.51696,1.2055399999999998,0.3509799999999999,-0.842832315,0.513853665,0.073242
1764505568.1585906,-4.51696,1.2055399999999998,0.3509799999999999,-0.842832315,0.513853665,0.073242
1764505568.1585906,-4.51696,1.2055399999999998,0.3509799999999999,-0.842832315,0.513853665,0.073242
1764505568.1585906,-4.51696,1.2055399999999998,0.3509799999999999,-0.842832315,0.513853665,0.073242
1764505568.1585906,-4.51696,1.2055399999999998,0.3509799999999999,-0.842832315,0.513853665,0.073242
1764505568.1585906,-4.51696,1.2055399999999998,0.3509799999999999,-0.842832315,0.513853665,0.073242
1764505568.1585906,-4.51696,1.2055399999999998,0.3509799999999999,-0.842832315,0.513853665,0.073242
1764505568.1585906,-4.51696,1.2055399999999998,0.3509799999999999,-0.842832315,0.513853665,0.073242
1764505568.1585906,-4.51696,1.2055399999999998,0.3509799999999999,-0.842832315,0.513853665,0.073242
1764505568.1585906,-4.51696,1.2055399999999998,0.3509799999999999,-0.842832315,0.513853665,0.073242
1764505568.1585906,-4.2728,0.85456,-0.13734,-0.840390915,0.51318228,0.074889945
1764505568.1585906,-4.2728,0.85456,-0.13734,-0.840390915,0.51318228,0.074889945
1764505568.1585906,-4.2728,0.85456,-0.13734,-0.840390915,0.51318228,0.074889945
1764505568.1585906,-4.2728,0.85456,-0.13734,-0.840390915,0.51318228,0.074889945
1764505568.1585906,-4.2728,0.85456,-0.13734,-0.840390915,0.51318228,0.074889945
1764505568.1585906,-4.2728,0.85456,-0.13734,-0.840390915,0.51318228,0.074889945
1764505568.1585906,-4.2728,0.85456,-0.13734,-0.840390915,0.51318228,0.074889945
1764505568.1593163,-4.2728,0.85456,-0.13734,-0.840390915,0.51318228,0.074889945
1764505568.1593163,-4.2728,0.85456,-0.13734,-0.840390915,0.51318228,0.074889945
1764505568.1593163,-4.2728,0.85456,-0.13734,-0.840390915,0.51318228,0.074889945
1764505568.1593163,-4.39488,1.4039199999999998,-0.01526,-0.83898711,0.510923985,0.07641582
1764505568.1593163,-4.39488,1.4039199999999998,-0.01526,-0.83898711,0.510923985,0.07641582
1764505568.2026994,-4.39488,1.4039199999999998,-0.01526,-0.83898711,0.510923985,0.07641582
1764505568.2026994,-4.39488,1.4039199999999998,-0.01526,-0.83898711,0.510923985,0.07641582
1764505568.2026994,-4.39488,1.4039199999999998,-0.01526,-0.83898711,0.510923985,0.07641582
1764505568.2026994,-4.39488,1.4039199999999998,-0.01526,-0.83898711,0.510923985,0.07641582
1764505568.2026994,-4.39488,1.4039199999999998,-0.01526,-0.83898711,0.510923985,0.07641582
1764505568.2026994,-4.39488,1.4039199999999998,-0.01526,-0.83898711,0.510923985,0.07641582
1764505568.2026994,-4.39488,1.4039199999999998,-0.01526,-0.83898711,0.510923985,0.07641582
1764505568.2026994,-4.39488,1.4039199999999998,-0.01526,-0.83898711,0.510923985,0.07641582
1764505568.2026994,-3.83026,2.60946,0.62566,-0.841123335,0.50927604,0.073547175
1764505568.2026994,-3.83026,2.60946,0.62566,-0.841123335,0.50927604,0.073547175
1764505568.2026994,-3.83026,2.60946,0.62566,-0.841123335,0.50927604,0.073547175
1764505568.2026994,-3.83026,2.60946,0.62566,-0.841123335,0.50927604,0.073547175
1764505568.2026994,-3.83026,2.60946,0.62566,-0.841123335,0.50927604,0.073547175
1764505568.2026994,-3.83026,2.60946,0.62566,-0.841123335,0.50927604,0.073547175
1764505568.2026994,-3.83026,2.60946,0.62566,-0.841123335,0.50927604,0.073547175
1764505568.2026994,-3.83026,2.60946,0.62566,-0.841123335,0.50927604,0.073547175
1764505568.2026994,-3.83026,2.60946,0.62566,-0.841123335,0.50927604,0.073547175
1764505568.2026994,-3.83026,2.60946,0.62566,-0.841123335,0.50927604,0.073547175
1764505568.2026994,-4.01338,0.36624,0.7019599999999999,-0.844175085,0.51122916,0.07226544
1764505568.2026994,-4.01338,0.36624,0.7019599999999999,-0.844175085,0.51122916,0.07226544
1764505568.2026994,-4.01338,0.36624,0.7019599999999999,-0.844175085,0.51122916,0.07226544
1764505568.2037284,-4.01338,0.36624,0.7019599999999999,-0.844175085,0.51122916,0.07226544
1764505568.2037284,-4.01338,0.36624,0.7019599999999999,-0.844175085,0.51122916,0.07226544
1764505568.2037284,-4.01338,0.36624,0.7019599999999999,-0.844175085,0.51122916,0.07226544
1764505568.251488,-4.01338,0.36624,0.7019599999999999,-0.844175085,0.51122916,0.07226544
1764505568.251488,-4.01338,0.36624,0.7019599999999999,-0.844175085,0.51122916,0.07226544
1764505568.251488,-4.01338,0.36624,0.7019599999999999,-0.844175085,0.51122916,0.07226544
1764505568.251488,-4.01338,0.36624,0.7019599999999999,-0.844175085,0.51122916,0.07226544
1764505568.251488,-3.75396,-0.79352,0.2289,-0.84399198,0.51257193,0.07287579
1764505568.251488,-3.75396,-0.79352,0.2289,-0.84399198,0.51257193,0.07287579
1764505568.251488,-3.75396,-0.79352,0.2289,-0.84399198,0.51257193,0.07287579
1764505568.251488,-3.75396,-0.79352,0.2289,-0.84399198,0.51257193,0.07287579
1764505568.251488,-3.75396,-0.79352,0.2289,-0.84399198,0.51257193,0.07287579
1764505568.251488,-3.75396,-0.79352,0.2289,-0.84399198,0.51257193,0.07287579
1764505568.251488,-3.75396,-0.79352,0.2289,-0.84399198,0.51257193,0.07287579
1764505568.251488,-3.75396,-0.79352,0.2289,-0.84399198,0.51257193,0.07287579
1764505568.251488,-3.75396,-0.79352,0.2289,-0.84399198,0.51257193,0.07287579
1764505568.251488,-3.75396,-0.79352,0.2289,-0.84399198,0.51257193,0.07287579
1764505568.251488,-3.815,0.8392999999999999,0.19838,-0.841855755,0.51244986,0.07385235
1764505568.251488,-3.815,0.8392999999999999,0.19838,-0.841855755,0.51244986,0.07385235
1764505568.251488,-3.815,0.8392999999999999,0.19838,-0.841855755,0.51244986,0.07385235
1764505568.251488,-3.815,0.8392999999999999,0.19838,-0.841855755,0.51244986,0.07385235
1764505568.251488,-3.815,0.8392999999999999,0.19838,-0.841855755,0.51244986,0.07385235
1764505568.251488,-3.815,0.8392999999999999,0.19838,-0.841855755,0.51244986,0.07385235
1764505568.251488,-3.815,0.8392999999999999,0.19838,-0.841855755,0.51244986,0.07385235
1764505568.2525003,-3.815,0.8392999999999999,0.19838,-0.841855755,0.51244986,0.07385235
1764505568.2525003,-3.815,0.8392999999999999,0.19838,-0.841855755,0.51244986,0.07385235
1764505568.2525003,-3.815,0.8392999999999999,0.19838,-0.841855755,0.51244986,0.07385235
1764505568.2960262,-3.5098,1.69386,0.47306,-0.84130644,0.511412265,0.072692685
1764505568.2960262,-3.5098,1.69386,0.47306,-0.84130644,0.511412265,0.072692685
1764505568.2960262,-3.5098,1.69386,0.47306,-0.84130644,0.511412265,0.072692685
1764505568.2960262,-3.5098,1.69386,0.47306,-0.84130644,0.511412265,0.072692685
1764505568.2960262,-3.5098,1.69386,0.47306,-0.84130644,0.511412265,0.072692685
1764505568.2960262,-3.5098,1.69386,0.47306,-0.84130644,0.511412265,0.072692685
1764505568.2960262,-3.5098,1.69386,0.47306,-0.84130644,0.511412265,0.072692685
1764505568.2960262,-3.5098,1.69386,0.47306,-0.84130644,0.511412265,0.072692685
1764505568.2960262,-3.5098,1.69386,0.47306,-0.84130644,0.511412265,0.072692685
1764505568.2960262,-3.5098,1.69386,0.47306,-0.84130644,0.511412265,0.072692685
1764505568.2960262,-3.54032,1.95328,1.49548,-0.84216093,0.511168125,0.072692685
1764505568.2960262,-3.54032,1.95328,1.49548,-0.84216093,0.511168125,0.072692685
1764505568.2960262,-3.54032,1.95328,1.49548,-0.84216093,0.511168125,0.072692685
1764505568.2960262,-3.54032,1.95328,1.49548,-0.84216093,0.511168125,0.072692685
1764505568.2960262,-3.54032,1.95328,1.49548,-0.84216093,0.511168125,0.072692685
1764505568.2960262,-3.54032,1.95328,1.49548,-0.84216093,0.511168125,0.072692685
1764505568.2960262,-3.54032,1.95328,1.49548,-0.84216093,0.511168125,0.072692685
1764505568.2960262,-3.54032,1.95328,1.49548,-0.84216093,0.511168125,0.072692685
1764505568.2970374,-3.54032,1.95328,1.49548,-0.84216093,0.511168125,0.072692685
1764505568.2970374,-3.54032,1.95328,1.49548,-0.84216093,0.511168125,0.072692685
1764505568.2970374,-5.29522,1.46496,0.39676,-0.842221965,0.512755035,0.07299786
1764505568.2970374,-5.29522,1.46496,0.39676,-0.842221965,0.512755035,0.07299786
1764505568.2970374,-5.29522,1.46496,0.39676,-0.842221965,0.512755035,0.07299786
1764505568.2970374,-5.29522,1.46496,0.39676,-0.842221965,0.512755035,0.07299786
1764505568.3461614,-5.29522,1.46496,0.39676,-0.842221965,0.512755035,0.07299786
1764505568.3461614,-5.29522,1.46496,0.39676,-0.842221965,0.512755035,0.07299786
1764505568.3461614,-5.29522,1.46496,0.39676,-0.842221965,0.512755035,0.07299786
1764505568.3461614,-5.29522,1.46496,0.39676,-0.842221965,0.512755035,0.07299786
1764505568.3461614,-5.29522,1.46496,0.39676,-0.842221965,0.512755035,0.07299786
1764505568.3461614,-5.29522,1.46496,0.39676,-0.842221965,0.512755035,0.07299786
1764505568.3461614,-5.53938,0.6714399999999999,0.28994,-0.841977825,0.51257193,0.074523735
1764505568.3461614,-5.53938,0.6714399999999999,0.28994,-0.841977825,0.51257193,0.074523735
1764505568.3461614,-5.53938,0.6714399999999999,0.28994,-0.841977825,0.51257193,0.074523735
1764505568.3461614,-5.53938,0.6714399999999999,0.28994,-0.841977825,0.51257193,0.074523735
1764505568.3461614,-5.53938,0.6714399999999999,0.28994,-0.841977825,0.51257193,0.074523735
1764505568.3461614,-5.53938,0.6714399999999999,0.28994,-0.841977825,0.51257193,0.074523735
1764505568.3461614,-5.53938,0.6714399999999999,0.28994,-0.841977825,0.51257193,0.074523735
1764505568.3461614,-5.53938,0.6714399999999999,0.28994,-0.841977825,0.51257193,0.074523735
1764505568.3461614,-5.53938,0.6714399999999999,0.28994,-0.841977825,0.51257193,0.074523735
1764505568.3461614,-5.53938,0.6714399999999999,0.28994,-0.841977825,0.51257193,0.074523735
1764505568.3461614,-4.37962,1.12924,0.39676,-0.8420388600000001,0.51086295,0.075500295
1764505568.3461614,-4.37962,1.12924,0.39676,-0.8420388600000001,0.51086295,0.075500295
1764505568.3461614,-4.37962,1.12924,0.39676,-0.8420388600000001,0.51086295,0.075500295
1764505568.3461614,-4.37962,1.12924,0.39676,-0.8420388600000001,0.51086295,0.075500295
1764505568.3461614,-4.37962,1.12924,0.39676,-0.8420388600000001,0.51086295,0.075500295
1764505568.3461614,-4.37962,1.12924,0.39676,-0.8420388600000001,0.51086295,0.075500295
1764505568.3914137,-4.37962,1.12924,0.39676,-0.8420388600000001,0.51086295,0.075500295
1764505568.3914137,-4.37962,1.12924,0.39676,-0.8420388600000001,0.51086295,0.075500295
1764505568.3914137,-4.37962,1.12924,0.39676,-0.8420388600000001,0.51086295,0.075500295
1764505568.3914137,-4.37962,1.12924,0.39676,-0.8420388600000001,0.51086295,0.075500295
1764505568.3914137,-2.42634,1.41918,0.96138,-0.84264921,0.50976432,0.07397442
1764505568.3914137,-2.42634,1.41918,0.96138,-0.84264921,0.50976432,0.07397442
1764505568.3914137,-2.42634,1.41918,0.96138,-0.84264921,0.50976432,0.07397442
1764505568.3914137,-2.42634,1.41918,0.96138,-0.84264921,0.50976432,0.07397442
1764505568.3914137,-2.42634,1.41918,0.96138,-0.84264921,0.50976432,0.07397442
1764505568.3914137,-2.42634,1.41918,0.96138,-0.84264921,0.50976432,0.07397442
1764505568.392932,-2.42634,1.41918,0.96138,-0.84264921,0.50976432,0.07397442
1764505568.392932,-2.42634,1.41918,0.96138,-0.84264921,0.50976432,0.07397442
1764505568.392932,-2.42634,1.41918,0.96138,-0.84264921,0.50976432,0.07397442
1764505568.392932,-2.42634,1.41918,0.96138,-0.84264921,0.50976432,0.07397442
1764505568.392932,-2.86888,0.6103999999999999,0.3357199999999999,-0.842954385,0.51061881,0.07141095
1764505568.392932,-2.86888,0.6103999999999999,0.3357199999999999,-0.842954385,0.51061881,0.07141095
1764505568.392932,-2.86888,0.6103999999999999,0.3357199999999999,-0.842954385,0.51061881,0.07141095
1764505568.392932,-2.86888,0.6103999999999999,0.3357199999999999,-0.842954385,0.51061881,0.07141095
1764505568.392932,-2.86888,0.6103999999999999,0.3357199999999999,-0.842954385,0.51061881,0.07141095
1764505568.392932,-2.86888,0.6103999999999999,0.3357199999999999,-0.842954385,0.51061881,0.07141095
1764505568.3939464,-2.86888,0.6103999999999999,0.3357199999999999,-0.842954385,0.51061881,0.07141095
1764505568.3939464,-2.86888,0.6103999999999999,0.3357199999999999,-0.842954385,0.51061881,0.07141095
1764505568.3939464,-2.86888,0.6103999999999999,0.3357199999999999,-0.842954385,0.51061881,0.07141095
1764505568.3939464,-2.86888,0.6103999999999999,0.3357199999999999,-0.842954385,0.51061881,0.07141095
1764505568.4406943,-2.9757,0.57988,-0.3204599999999999,-0.8404519500000001,0.51293814,0.071716125
1764505568.4406943,-2.9757,0.57988,-0.3204599999999999,-0.8404519500000001,0.51293814,0.071716125
1764505568.4406943,-2.9757,0.57988,-0.3204599999999999,-0.8404519500000001,0.51293814,0.071716125
1764505568.4406943,-2.9757,0.57988,-0.3204599999999999,-0.8404519500000001,0.51293814,0.071716125
1764505568.4416893,-2.9757,0.57988,-0.3204599999999999,-0.8404519500000001,0.51293814,0.071716125
1764505568.4416893,-2.9757,0.57988,-0.3204599999999999,-0.8404519500000001,0.51293814,0.071716125
1764505568.4416893,-2.9757,0.57988,-0.3204599999999999,-0.8404519500000001,0.51293814,0.071716125
1764505568.4416893,-2.9757,0.57988,-0.3204599999999999,-0.8404519500000001,0.51293814,0.071716125
1764505568.4416893,-2.9757,0.57988,-0.3204599999999999,-0.8404519500000001,0.51293814,0.071716125
1764505568.4426904,-2.9757,0.57988,-0.3204599999999999,-0.8404519500000001,0.51293814,0.071716125
1764505568.4426904,-3.57084,1.64808,-0.18312,-0.83923125,0.513243315,0.07311993
1764505568.4426904,-3.57084,1.64808,-0.18312,-0.83923125,0.513243315,0.07311993
1764505568.4426904,-3.57084,1.64808,-0.18312,-0.83923125,0.513243315,0.07311993
1764505568.4426904,-3.57084,1.64808,-0.18312,-0.83923125,0.513243315,0.07311993
1764505568.4426904,-3.57084,1.64808,-0.18312,-0.83923125,0.513243315,0.07311993
1764505568.4426904,-3.57084,1.64808,-0.18312,-0.83923125,0.513243315,0.07311993
1764505568.443684,-3.57084,1.64808,-0.18312,-0.83923125,0.513243315,0.07311993
1764505568.443684,-3.57084,1.64808,-0.18312,-0.83923125,0.513243315,0.07311993
1764505568.443684,-3.57084,1.64808,-0.18312,-0.83923125,0.513243315,0.07311993
1764505568.443684,-3.57084,1.64808,-0.18312,-0.83923125,0.513243315,0.07311993
1764505568.444685,-4.53222,1.09872,1.03768,-0.84081816,0.51489126,0.074035455
1764505568.444685,-4.53222,1.09872,1.03768,-0.84081816,0.51489126,0.074035455
1764505568.444685,-4.53222,1.09872,1.03768,-0.84081816,0.51489126,0.074035455
1764505568.444685,-4.53222,1.09872,1.03768,-0.84081816,0.51489126,0.074035455
1764505568.4848366,-4.53222,1.09872,1.03768,-0.84081816,0.51489126,0.074035455
1764505568.4848366,-4.53222,1.09872,1.03768,-0.84081816,0.51489126,0.074035455
1764505568.4848366,-4.53222,1.09872,1.03768,-0.84081816,0.51489126,0.074035455
1764505568.4848366,-4.53222,1.09872,1.03768,-0.84081816,0.51489126,0.074035455
1764505568.4848366,-4.53222,1.09872,1.03768,-0.84081816,0.51489126,0.074035455
1764505568.4848366,-4.53222,1.09872,1.03768,-0.84081816,0.51489126,0.074035455
1764505568.4848366,-6.22608,0.50358,0.47306,-0.840635055,0.51660024,0.074279595
1764505568.4848366,-6.22608,0.50358,0.47306,-0.840635055,0.51660024,0.074279595
1764505568.4848366,-6.22608,0.50358,0.47306,-0.840635055,0.51660024,0.074279595
1764505568.4848366,-6.22608,0.50358,0.47306,-0.840635055,0.51660024,0.074279595
1764505568.4848366,-6.22608,0.50358,0.47306,-0.840635055,0.51660024,0.074279595
1764505568.4848366,-6.22608,0.50358,0.47306,-0.840635055,0.51660024,0.074279595
1764505568.4848366,-6.22608,0.50358,0.47306,-0.840635055,0.51660024,0.074279595
1764505568.4848366,-6.22608,0.50358,0.47306,-0.840635055,0.51660024,0.074279595
1764505568.4848366,-6.22608,0.50358,0.47306,-0.840635055,0.51660024,0.074279595
1764505568.4848366,-6.22608,0.50358,0.47306,-0.840635055,0.51660024,0.074279595
1764505568.4848366,-5.78354,1.41918,-0.59514,-0.83923125,0.5151354,0.07543926
1764505568.4848366,-5.78354,1.41918,-0.59514,-0.83923125,0.5151354,0.07543926
1764505568.4848366,-5.78354,1.41918,-0.59514,-0.83923125,0.5151354,0.07543926
1764505568.4848366,-5.78354,1.41918,-0.59514,-0.83923125,0.5151354,0.07543926
1764505568.4863784,-5.78354,1.41918,-0.59514,-0.83923125,0.5151354,0.07543926
1764505568.4863784,-5.78354,1.41918,-0.59514,-0.83923125,0.5151354,0.07543926
1764505568.5305138,-5.78354,1.41918,-0.59514,-0.83923125,0.5151354,0.07543926
1764505568.5305138,-5.78354,1.41918,-0.59514,-0.83923125,0.5151354,0.07543926
1764505568.5310512,-5.78354,1.41918,-0.59514,-0.83923125,0.5151354,0.07543926
1764505568.5310512,-5.78354,1.41918,-0.59514,-0.83923125,0.5151354,0.07543926
1764505568.5310512,-5.02054,2.62472,-0.12208,-0.840146775,0.511656405,0.076232715
1764505568.5310512,-5.02054,2.62472,-0.12208,-0.840146775,0.511656405,0.076232715
1764505568.5310512,-5.02054,2.62472,-0.12208,-0.840146775,0.511656405,0.076232715
1764505568.5310512,-5.02054,2.62472,-0.12208,-0.840146775,0.511656405,0.076232715
1764505568.5310512,-5.02054,2.62472,-0.12208,-0.840146775,0.511656405,0.076232715
1764505568.5310512,-5.02054,2.62472,-0.12208,-0.840146775,0.511656405,0.076232715
1764505568.5310512,-5.02054,2.62472,-0.12208,-0.840146775,0.511656405,0.076232715
1764505568.5310512,-5.02054,2.62472,-0.12208,-0.840146775,0.511656405,0.076232715
1764505568.5310512,-5.02054,2.62472,-0.12208,-0.840146775,0.511656405,0.076232715
1764505568.5310512,-5.02054,2.62472,-0.12208,-0.840146775,0.511656405,0.076232715
1764505568.531586,-4.22702,1.6022999999999998,0.62566,-0.842344035,0.50939811,0.074523735
1764505568.531586,-4.22702,1.6022999999999998,0.62566,-0.842344035,0.50939811,0.074523735
1764505568.531586,-4.22702,1.6022999999999998,0.62566,-0.842344035,0.50939811,0.074523735
1764505568.531586,-4.22702,1.6022999999999998,0.62566,-0.842344035,0.50939811,0.074523735
1764505568.531586,-4.22702,1.6022999999999998,0.62566,-0.842344035,0.50939811,0.074523735
1764505568.531586,-4.22702,1.6022999999999998,0.62566,-0.842344035,0.50939811,0.074523735
1764505568.531586,-4.22702,1.6022999999999998,0.62566,-0.842344035,0.50939811,0.074523735
1764505568.531586,-4.22702,1.6022999999999998,0.62566,-0.842344035,0.50939811,0.074523735
1764505568.531586,-4.22702,1.6022999999999998,0.62566,-0.842344035,0.50939811,0.074523735
1764505568.531586,-4.22702,1.6022999999999998,0.62566,-0.842344035,0.50939811,0.074523735
1764505568.5782597,-3.99812,1.2971,0.88508,-0.84240507,0.50890983,0.073058895
1764505568.579273,-3.99812,1.2971,0.88508,-0.84240507,0.50890983,0.073058895
1764505568.579273,-3.99812,1.2971,0.88508,-0.84240507,0.50890983,0.073058895
1764505568.579273,-3.99812,1.2971,0.88508,-0.84240507,0.50890983,0.073058895
1764505568.579273,-3.99812,1.2971,0.88508,-0.84240507,0.50890983,0.073058895
1764505568.579273,-3.99812,1.2971,0.88508,-0.84240507,0.50890983,0.073058895
1764505568.579273,-3.99812,1.2971,0.88508,-0.84240507,0.50890983,0.073058895
1764505568.579273,-3.99812,1.2971,0.88508,-0.84240507,0.50890983,0.073058895
1764505568.579273,-3.99812,1.2971,0.88508,-0.84240507,0.50890983,0.073058895
1764505568.579273,-3.99812,1.2971,0.88508,-0.84240507,0.50890983,0.073058895
1764505568.579273,-3.2046,0.9003399999999999,0.10682,-0.841977825,0.508604655,0.07287579
1764505568.579273,-3.2046,0.9003399999999999,0.10682,-0.841977825,0.508604655,0.07287579
1764505568.579273,-3.2046,0.9003399999999999,0.10682,-0.841977825,0.508604655,0.07287579
1764505568.579273,-3.2046,0.9003399999999999,0.10682,-0.841977825,0.508604655,0.07287579
1764505568.579273,-3.2046,0.9003399999999999,0.10682,-0.841977825,0.508604655,0.07287579
1764505568.579273,-3.2046,0.9003399999999999,0.10682,-0.841977825,0.508604655,0.07287579
1764505568.579273,-3.2046,0.9003399999999999,0.10682,-0.841977825,0.508604655,0.07287579
1764505568.579273,-3.2046,0.9003399999999999,0.10682,-0.841977825,0.508604655,0.07287579
1764505568.579273,-3.2046,0.9003399999999999,0.10682,-0.841977825,0.508604655,0.07287579
1764505568.579273,-3.2046,0.9003399999999999,0.10682,-0.841977825,0.508604655,0.07287579
1764505568.579273,-3.08252,0.93086,0.1525999999999999,-0.84179472,0.50964225,0.07385235
1764505568.579273,-3.08252,0.93086,0.1525999999999999,-0.84179472,0.50964225,0.07385235
1764505568.579273,-3.08252,0.93086,0.1525999999999999,-0.84179472,0.50964225,0.07385235
1764505568.579273,-3.08252,0.93086,0.1525999999999999,-0.84179472,0.50964225,0.07385235
1764505568.6250644,-3.08252,0.93086,0.1525999999999999,-0.84179472,0.50964225,0.07385235
1764505568.6250644,-3.08252,0.93086,0.1525999999999999,-0.84179472,0.50964225,0.07385235
1764505568.6250644,-3.08252,0.93086,0.1525999999999999,-0.84179472,0.50964225,0.07385235
1764505568.6250644,-3.08252,0.93086,0.1525999999999999,-0.84179472,0.50964225,0.07385235
1764505568.6250644,-3.08252,0.93086,0.1525999999999999,-0.84179472,0.50964225,0.07385235
1764505568.6250644,-3.08252,0.93086,0.1525999999999999,-0.84179472,0.50964225,0.07385235
1764505568.6250644,-2.8231,0.62566,0.48832,-0.84118437,0.51098502,0.07495098
1764505568.6250644,-2.8231,0.62566,0.48832,-0.84118437,0.51098502,0.07495098
1764505568.6250644,-2.8231,0.62566,0.48832,-0.84118437,0.51098502,0.07495098
1764505568.6250644,-2.8231,0.62566,0.48832,-0.84118437,0.51098502,0.07495098
1764505568.6250644,-2.8231,0.62566,0.48832,-0.84118437,0.51098502,0.07495098
1764505568.6250644,-2.8231,0.62566,0.48832,-0.84118437,0.51098502,0.07495098
1764505568.6250644,-2.8231,0.62566,0.48832,-0.84118437,0.51098502,0.07495098
1764505568.6250644,-2.8231,0.62566,0.48832,-0.84118437,0.51098502,0.07495098
1764505568.6250644,-2.8231,0.62566,0.48832,-0.84118437,0.51098502,0.07495098
1764505568.6250644,-2.8231,0.62566,0.48832,-0.84118437,0.51098502,0.07495098
1764505568.6250644,-3.6624,1.09872,0.47306,-0.8404519500000001,0.51244986,0.07519512
1764505568.6250644,-3.6624,1.09872,0.47306,-0.8404519500000001,0.51244986,0.07519512
1764505568.6250644,-3.6624,1.09872,0.47306,-0.8404519500000001,0.51244986,0.07519512
1764505568.6250644,-3.6624,1.09872,0.47306,-0.8404519500000001,0.51244986,0.07519512
1764505568.6250644,-3.6624,1.09872,0.47306,-0.8404519500000001,0.51244986,0.07519512
1764505568.6250644,-3.6624,1.09872,0.47306,-0.8404519500000001,0.51244986,0.07519512
1764505568.6690016,-3.6624,1.09872,0.47306,-0.8404519500000001,0.51244986,0.07519512
1764505568.6690016,-3.6624,1.09872,0.47306,-0.8404519500000001,0.51244986,0.07519512
1764505568.6690016,-3.6624,1.09872,0.47306,-0.8404519500000001,0.51244986,0.07519512
1764505568.6690016,-3.6624,1.09872,0.47306,-0.8404519500000001,0.51244986,0.07519512
1764505568.6700258,-3.44876,1.51074,0.10682,-0.840635055,0.512694,0.07543926
1764505568.6700258,-3.44876,1.51074,0.10682,-0.840635055,0.512694,0.07543926
1764505568.6700258,-3.44876,1.51074,0.10682,-0.840635055,0.512694,0.07543926
1764505568.6700258,-3.44876,1.51074,0.10682,-0.840635055,0.512694,0.07543926
1764505568.6700258,-3.44876,1.51074,0.10682,-0.840635055,0.512694,0.07543926
1764505568.6700258,-3.44876,1.51074,0.10682,-0.840635055,0.512694,0.07543926
1764505568.6700258,-3.44876,1.51074,0.10682,-0.840635055,0.512694,0.07543926
1764505568.6700258,-3.44876,1.51074,0.10682,-0.840635055,0.512694,0.07543926
1764505568.6700258,-3.44876,1.51074,0.10682,-0.840635055,0.512694,0.07543926
1764505568.6700258,-3.44876,1.51074,0.10682,-0.840635055,0.512694,0.07543926
1764505568.6700258,-4.02864,2.01432,0.36624,-0.8414895450000001,0.512694,0.07495098
1764505568.671021,-4.02864,2.01432,0.36624,-0.8414895450000001,0.512694,0.07495098
1764505568.671021,-4.02864,2.01432,0.36624,-0.8414895450000001,0.512694,0.07495098
1764505568.671021,-4.02864,2.01432,0.36624,-0.8414895450000001,0.512694,0.07495098
1764505568.671021,-4.02864,2.01432,0.36624,-0.8414895450000001,0.512694,0.07495098
1764505568.671021,-4.02864,2.01432,0.36624,-0.8414895450000001,0.512694,0.07495098
1764505568.671021,-4.02864,2.01432,0.36624,-0.8414895450000001,0.512694,0.07495098
1764505568.671021,-4.02864,2.01432,0.36624,-0.8414895450000001,0.512694,0.07495098
1764505568.671021,-4.02864,2.01432,0.36624,-0.8414895450000001,0.512694,0.07495098
1764505568.671021,-4.02864,2.01432,0.36624,-0.8414895450000001,0.512694,0.07495098
1764505568.7195437,-4.8069,1.54126,0.44254,-0.840879195,0.512755035,0.07458477
1764505568.7195437,-4.8069,1.54126,0.44254,-0.840879195,0.512755035,0.07458477
1764505568.7195437,-4.8069,1.54126,0.44254,-0.840879195,0.512755035,0.07458477
1764505568.7195437,-4.8069,1.54126,0.44254,-0.840879195,0.512755035,0.07458477
1764505568.7195437,-4.8069,1.54126,0.44254,-0.840879195,0.512755035,0.07458477
1764505568.7195437,-4.8069,1.54126,0.44254,-0.840879195,0.512755035,0.07458477
1764505568.7195437,-4.8069,1.54126,0.44254,-0.840879195,0.512755035,0.07458477
1764505568.7195437,-4.8069,1.54126,0.44254,-0.840879195,0.512755035,0.07458477
1764505568.7195437,-4.8069,1.54126,0.44254,-0.840879195,0.512755035,0.07458477
1764505568.7195437,-4.8069,1.54126,0.44254,-0.840879195,0.512755035,0.07458477
1764505568.7195437,-4.56274,1.32762,0.5341,-0.840879195,0.512632965,0.073913385
1764505568.7195437,-4.56274,1.32762,0.5341,-0.840879195,0.512632965,0.073913385
1764505568.7195437,-4.56274,1.32762,0.5341,-0.840879195,0.512632965,0.073913385
1764505568.7195437,-4.56274,1.32762,0.5341,-0.840879195,0.512632965,0.073913385
1764505568.7195437,-4.56274,1.32762,0.5341,-0.840879195,0.512632965,0.073913385
1764505568.7195437,-4.56274,1.32762,0.5341,-0.840879195,0.512632965,0.073913385
1764505568.7195437,-4.56274,1.32762,0.5341,-0.840879195,0.512632965,0.073913385
1764505568.7195437,-4.56274,1.32762,0.5341,-0.840879195,0.512632965,0.073913385
1764505568.7195437,-4.56274,1.32762,0.5341,-0.840879195,0.512632965,0.073913385
1764505568.7195437,-4.56274,1.32762,0.5341,-0.840879195,0.512632965,0.073913385
1764505568.7195437,-4.18124,1.35814,0.74774,-0.841123335,0.511656405,0.07373028
1764505568.7195437,-4.18124,1.35814,0.74774,-0.841123335,0.511656405,0.07373028
1764505568.7195437,-4.18124,1.35814,0.74774,-0.841123335,0.511656405,0.07373028
1764505568.7195437,-4.18124,1.35814,0.74774,-0.841123335,0.511656405,0.07373028
1764505568.7636912,-4.18124,1.35814,0.74774,-0.841123335,0.511656405,0.07373028
1764505568.7636912,-4.18124,1.35814,0.74774,-0.841123335,0.511656405,0.07373028
1764505568.7636912,-4.18124,1.35814,0.74774,-0.841123335,0.511656405,0.07373028
1764505568.7636912,-4.18124,1.35814,0.74774,-0.841123335,0.511656405,0.07373028
1764505568.7636912,-4.18124,1.35814,0.74774,-0.841123335,0.511656405,0.07373028
1764505568.7636912,-4.18124,1.35814,0.74774,-0.841123335,0.511656405,0.07373028
1764505568.7636912,-4.07442,1.0682,0.6714399999999999,-0.83996367,0.51098502,0.073669245
1764505568.7636912,-4.07442,1.0682,0.6714399999999999,-0.83996367,0.51098502,0.073669245
1764505568.7636912,-4.07442,1.0682,0.6714399999999999,-0.83996367,0.51098502,0.073669245
1764505568.7636912,-4.07442,1.0682,0.6714399999999999,-0.83996367,0.51098502,0.073669245
1764505568.7636912,-4.07442,1.0682,0.6714399999999999,-0.83996367,0.51098502,0.073669245
1764505568.7636912,-4.07442,1.0682,0.6714399999999999,-0.83996367,0.51098502,0.073669245
1764505568.7636912,-4.07442,1.0682,0.6714399999999999,-0.83996367,0.51098502,0.073669245
1764505568.7636912,-4.07442,1.0682,0.6714399999999999,-0.83996367,0.51098502,0.073669245
1764505568.7636912,-4.07442,1.0682,0.6714399999999999,-0.83996367,0.51098502,0.073669245
1764505568.7647033,-4.07442,1.0682,0.6714399999999999,-0.83996367,0.51098502,0.073669245
1764505568.7647033,-3.67766,1.84646,-0.01526,-0.84032988,0.511534335,0.07373028
1764505568.7647033,-3.67766,1.84646,-0.01526,-0.84032988,0.511534335,0.07373028
1764505568.7647033,-3.67766,1.84646,-0.01526,-0.84032988,0.511534335,0.07373028
1764505568.7647033,-3.67766,1.84646,-0.01526,-0.84032988,0.511534335,0.07373028
1764505568.7647033,-3.67766,1.84646,-0.01526,-0.84032988,0.511534335,0.07373028
1764505568.7647033,-3.67766,1.84646,-0.01526,-0.84032988,0.511534335,0.07373028
1764505568.8121552,-3.67766,1.84646,-0.01526,-0.84032988,0.511534335,0.07373028
1764505568.8121552,-3.67766,1.84646,-0.01526,-0.84032988,0.511534335,0.07373028
1764505568.8121552,-3.67766,1.84646,-0.01526,-0.84032988,0.511534335,0.07373028
1764505568.8121552,-3.67766,1.84646,-0.01526,-0.84032988,0.511534335,0.07373028
1764505568.8126874,-3.61662,1.57178,-0.27468,-0.8409402300000001,0.511900545,0.07421856
1764505568.8126874,-3.61662,1.57178,-0.27468,-0.8409402300000001,0.511900545,0.07421856
1764505568.8126874,-3.61662,1.57178,-0.27468,-0.8409402300000001,0.511900545,0.07421856
1764505568.8126874,-3.61662,1.57178,-0.27468,-0.8409402300000001,0.511900545,0.07421856
1764505568.8126874,-3.61662,1.57178,-0.27468,-0.8409402300000001,0.511900545,0.07421856
1764505568.8126874,-3.61662,1.57178,-0.27468,-0.8409402300000001,0.511900545,0.07421856
1764505568.8126874,-3.61662,1.57178,-0.27468,-0.8409402300000001,0.511900545,0.07421856
1764505568.8126874,-3.61662,1.57178,-0.27468,-0.8409402300000001,0.511900545,0.07421856
1764505568.8126874,-3.61662,1.57178,-0.27468,-0.8409402300000001,0.511900545,0.07421856
1764505568.8126874,-3.61662,1.57178,-0.27468,-0.8409402300000001,0.511900545,0.07421856
1764505568.8126874,-2.60946,1.08346,0.03052,-0.8409402300000001,0.512022615,0.074889945
1764505568.8126874,-2.60946,1.08346,0.03052,-0.8409402300000001,0.512022615,0.074889945
1764505568.8126874,-2.60946,1.08346,0.03052,-0.8409402300000001,0.512022615,0.074889945
1764505568.8126874,-2.60946,1.08346,0.03052,-0.8409402300000001,0.512022615,0.074889945
1764505568.8126874,-2.60946,1.08346,0.03052,-0.8409402300000001,0.512022615,0.074889945
1764505568.8126874,-2.60946,1.08346,0.03052,-0.8409402300000001,0.512022615,0.074889945
1764505568.8126874,-2.60946,1.08346,0.03052,-0.8409402300000001,0.512022615,0.074889945
1764505568.8126874,-2.60946,1.08346,0.03052,-0.8409402300000001,0.512022615,0.074889945
1764505568.8126874,-2.60946,1.08346,0.03052,-0.8409402300000001,0.512022615,0.074889945
1764505568.8126874,-2.60946,1.08346,0.03052,-0.8409402300000001,0.512022615,0.074889945
1764505568.8565545,-3.03674,1.4039199999999998,0.3051999999999999,-0.841123335,0.512022615,0.0744627
1764505568.8565545,-3.03674,1.4039199999999998,0.3051999999999999,-0.841123335,0.512022615,0.0744627
1764505568.8565545,-3.03674,1.4039199999999998,0.3051999999999999,-0.841123335,0.512022615,0.0744627
1764505568.8565545,-3.03674,1.4039199999999998,0.3051999999999999,-0.841123335,0.512022615,0.0744627
1764505568.8565545,-3.03674,1.4039199999999998,0.3051999999999999,-0.841123335,0.512022615,0.0744627
1764505568.8565545,-3.03674,1.4039199999999998,0.3051999999999999,-0.841123335,0.512022615,0.0744627
1764505568.8570817,-3.03674,1.4039199999999998,0.3051999999999999,-0.841123335,0.512022615,0.0744627
1764505568.8570817,-3.03674,1.4039199999999998,0.3051999999999999,-0.841123335,0.512022615,0.0744627
1764505568.8570817,-3.03674,1.4039199999999998,0.3051999999999999,-0.841123335,0.512022615,0.0744627
1764505568.8570817,-3.03674,1.4039199999999998,0.3051999999999999,-0.841123335,0.512022615,0.0744627
1764505568.857628,-4.0439,0.85456,0.62566,-0.84118437,0.513609525,0.07311993
1764505568.857628,-4.0439,0.85456,0.62566,-0.84118437,0.513609525,0.07311993
1764505568.857628,-4.0439,0.85456,0.62566,-0.84118437,0.513609525,0.07311993
1764505568.857628,-4.0439,0.85456,0.62566,-0.84118437,0.513609525,0.07311993
1764505568.857628,-4.0439,0.85456,0.62566,-0.84118437,0.513609525,0.07311993
1764505568.857628,-4.0439,0.85456,0.62566,-0.84118437,0.513609525,0.07311993
1764505568.8586397,-4.0439,0.85456,0.62566,-0.84118437,0.513609525,0.07311993
1764505568.8586397,-4.0439,0.85456,0.62566,-0.84118437,0.513609525,0.07311993
1764505568.8586397,-4.0439,0.85456,0.62566,-0.84118437,0.513609525,0.07311993
1764505568.8586397,-4.0439,0.85456,0.62566,-0.84118437,0.513609525,0.07311993
1764505568.8586397,-3.6624,0.8698199999999999,0.12208,-0.8399026350000001,0.513487455,0.07360821
1764505568.8586397,-3.6624,0.8698199999999999,0.12208,-0.8399026350000001,0.513487455,0.07360821
1764505568.9058506,-3.6624,0.8698199999999999,0.12208,-0.8399026350000001,0.513487455,0.07360821
1764505568.9058506,-3.6624,0.8698199999999999,0.12208,-0.8399026350000001,0.513487455,0.07360821
1764505568.9058506,-3.6624,0.8698199999999999,0.12208,-0.8399026350000001,0.513487455,0.07360821
1764505568.9058506,-3.6624,0.8698199999999999,0.12208,-0.8399026350000001,0.513487455,0.07360821
1764505568.9074314,-3.6624,0.8698199999999999,0.12208,-0.8399026350000001,0.513487455,0.07360821
1764505568.9074314,-3.6624,0.8698199999999999,0.12208,-0.8399026350000001,0.513487455,0.07360821
1764505568.9074314,-3.6624,0.8698199999999999,0.12208,-0.8399026350000001,0.513487455,0.07360821
1764505568.90845,-3.6624,0.8698199999999999,0.12208,-0.8399026350000001,0.513487455,0.07360821
1764505568.90845,-4.08968,2.25848,0.0,-0.839048145,0.512632965,0.074157525
1764505568.90845,-4.08968,2.25848,0.0,-0.839048145,0.512632965,0.074157525
1764505568.909443,-4.08968,2.25848,0.0,-0.839048145,0.512632965,0.074157525
1764505568.909443,-4.08968,2.25848,0.0,-0.839048145,0.512632965,0.074157525
1764505568.909443,-4.08968,2.25848,0.0,-0.839048145,0.512632965,0.074157525
1764505568.909443,-4.08968,2.25848,0.0,-0.839048145,0.512632965,0.074157525
1764505568.909443,-4.08968,2.25848,0.0,-0.839048145,0.512632965,0.074157525
1764505568.909443,-4.08968,2.25848,0.0,-0.839048145,0.512632965,0.074157525
1764505568.909443,-4.08968,2.25848,0.0,-0.839048145,0.512632965,0.074157525
1764505568.9104047,-4.08968,2.25848,0.0,-0.839048145,0.512632965,0.074157525
1764505568.9104047,-5.06632,3.03674,0.57988,-0.840635055,0.51208365,0.07238751
1764505568.9104047,-5.06632,3.03674,0.57988,-0.840635055,0.51208365,0.07238751
1764505568.9104047,-5.06632,3.03674,0.57988,-0.840635055,0.51208365,0.07238751
1764505568.9104047,-5.06632,3.03674,0.57988,-0.840635055,0.51208365,0.07238751
1764505568.9104047,-5.06632,3.03674,0.57988,-0.840635055,0.51208365,0.07238751
1764505568.9104047,-5.06632,3.03674,0.57988,-0.840635055,0.51208365,0.07238751
1764505568.950615,-5.06632,3.03674,0.57988,-0.840635055,0.51208365,0.07238751
1764505568.950615,-5.06632,3.03674,0.57988,-0.840635055,0.51208365,0.07238751
1764505568.950615,-5.06632,3.03674,0.57988,-0.840635055,0.51208365,0.07238751
1764505568.950615,-5.06632,3.03674,0.57988,-0.840635055,0.51208365,0.07238751
1764505568.9516132,-4.56274,0.6103999999999999,1.02242,-0.843808875,0.513487455,0.071594055
1764505568.9516132,-4.56274,0.6103999999999999,1.02242,-0.843808875,0.513487455,0.071594055
1764505568.9516132,-4.56274,0.6103999999999999,1.02242,-0.843808875,0.513487455,0.071594055
1764505568.9516132,-4.56274,0.6103999999999999,1.02242,-0.843808875,0.513487455,0.071594055
1764505568.9516132,-4.56274,0.6103999999999999,1.02242,-0.843808875,0.513487455,0.071594055
1764505568.9516132,-4.56274,0.6103999999999999,1.02242,-0.843808875,0.513487455,0.071594055
1764505568.9516132,-4.56274,0.6103999999999999,1.02242,-0.843808875,0.513487455,0.071594055
1764505568.9537532,-4.56274,0.6103999999999999,1.02242,-0.843808875,0.513487455,0.071594055
1764505568.9537532,-4.56274,0.6103999999999999,1.02242,-0.843808875,0.513487455,0.071594055
1764505568.9537532,-4.56274,0.6103999999999999,1.02242,-0.843808875,0.513487455,0.071594055
1764505568.9537532,-4.45592,-0.01526,0.1678599999999999,-0.84448026,0.51452505,0.07373028
1764505568.9537532,-4.45592,-0.01526,0.1678599999999999,-0.84448026,0.51452505,0.07373028
1764505568.9537532,-4.45592,-0.01526,0.1678599999999999,-0.84448026,0.51452505,0.07373028
1764505568.9537532,-4.45592,-0.01526,0.1678599999999999,-0.84448026,0.51452505,0.07373028
1764505568.9537532,-4.45592,-0.01526,0.1678599999999999,-0.84448026,0.51452505,0.07373028
1764505568.9537532,-4.45592,-0.01526,0.1678599999999999,-0.84448026,0.51452505,0.07373028
1764505568.9537532,-4.45592,-0.01526,0.1678599999999999,-0.84448026,0.51452505,0.07373028
1764505568.9537532,-4.45592,-0.01526,0.1678599999999999,-0.84448026,0.51452505,0.07373028
1764505568.9542754,-4.45592,-0.01526,0.1678599999999999,-0.84448026,0.51452505,0.07373028
1764505568.9542754,-4.45592,-0.01526,0.1678599999999999,-0.84448026,0.51452505,0.07373028
1764505568.9974823,-4.63904,0.77826,-0.13734,-0.842710245,0.513609525,0.07434063
1764505568.9974823,-4.63904,0.77826,-0.13734,-0.842710245,0.513609525,0.07434063
1764505568.9974823,-4.63904,0.77826,-0.13734,-0.842710245,0.513609525,0.07434063
1764505568.9985025,-4.63904,0.77826,-0.13734,-0.842710245,0.513609525,0.07434063
1764505568.9985025,-4.63904,0.77826,-0.13734,-0.842710245,0.513609525,0.07434063
1764505568.9985025,-4.63904,0.77826,-0.13734,-0.842710245,0.513609525,0.07434063
1764505568.9985025,-4.63904,0.77826,-0.13734,-0.842710245,0.513609525,0.07434063
1764505568.9985025,-4.63904,0.77826,-0.13734,-0.842710245,0.513609525,0.07434063
1764505568.9985025,-4.63904,0.77826,-0.13734,-0.842710245,0.513609525,0.07434063
1764505568.9985025,-4.63904,0.77826,-0.13734,-0.842710245,0.513609525,0.07434063
1764505568.9985025,-4.0439,2.83836,0.3509799999999999,-0.84155058,0.5114733,0.07336407
1764505568.9985025,-4.0439,2.83836,0.3509799999999999,-0.84155058,0.5114733,0.07336407
1764505568.9985025,-4.0439,2.83836,0.3509799999999999,-0.84155058,0.5114733,0.07336407
1764505568.9985025,-4.0439,2.83836,0.3509799999999999,-0.84155058,0.5114733,0.07336407
1764505568.9985025,-4.0439,2.83836,0.3509799999999999,-0.84155058,0.5114733,0.07336407
1764505568.9985025,-4.0439,2.83836,0.3509799999999999,-0.84155058,0.5114733,0.07336407
1764505568.9985025,-4.0439,2.83836,0.3509799999999999,-0.84155058,0.5114733,0.07336407
1764505568.9985025,-4.0439,2.83836,0.3509799999999999,-0.84155058,0.5114733,0.07336407
1764505569.0000193,-4.0439,2.83836,0.3509799999999999,-0.84155058,0.5114733,0.07336407
1764505569.0000193,-4.0439,2.83836,0.3509799999999999,-0.84155058,0.5114733,0.07336407
1764505569.0000193,-3.64714,1.84646,1.4497,-0.841367475,0.5097032850000001,0.07263165
1764505569.0000193,-3.64714,1.84646,1.4497,-0.841367475,0.5097032850000001,0.07263165
1764505569.0000193,-3.64714,1.84646,1.4497,-0.841367475,0.5097032850000001,0.07263165
1764505569.0000193,-3.64714,1.84646,1.4497,-0.841367475,0.5097032850000001,0.07263165
1764505569.0523465,-3.64714,1.84646,1.4497,-0.841367475,0.5097032850000001,0.07263165
1764505569.0523465,-3.64714,1.84646,1.4497,-0.841367475,0.5097032850000001,0.07263165
1764505569.0523465,-3.64714,1.84646,1.4497,-0.841367475,0.5097032850000001,0.07263165
1764505569.0523465,-3.64714,1.84646,1.4497,-0.841367475,0.5097032850000001,0.07263165
1764505569.0523465,-3.64714,1.84646,1.4497,-0.841367475,0.5097032850000001,0.07263165
1764505569.0523465,-3.64714,1.84646,1.4497,-0.841367475,0.5097032850000001,0.07263165
1764505569.0523465,-4.36436,1.526,1.1445,-0.84081816,0.50878776,0.07336407
1764505569.0523465,-4.36436,1.526,1.1445,-0.84081816,0.50878776,0.07336407
1764505569.0523465,-4.36436,1.526,1.1445,-0.84081816,0.50878776,0.07336407
1764505569.0523465,-4.36436,1.526,1.1445,-0.84081816,0.50878776,0.07336407
1764505569.0533848,-4.36436,1.526,1.1445,-0.84081816,0.50878776,0.07336407
1764505569.0533848,-4.36436,1.526,1.1445,-0.84081816,0.50878776,0.07336407
1764505569.0533848,-4.36436,1.526,1.1445,-0.84081816,0.50878776,0.07336407
1764505569.0533848,-4.36436,1.526,1.1445,-0.84081816,0.50878776,0.07336407
1764505569.0533848,-4.36436,1.526,1.1445,-0.84081816,0.50878776,0.07336407
1764505569.0533848,-4.36436,1.526,1.1445,-0.84081816,0.50878776,0.07336407
1764505569.0533848,-4.66956,1.05294,0.65618,-0.8409402300000001,0.50964225,0.07470684
1764505569.0533848,-4.66956,1.05294,0.65618,-0.8409402300000001,0.50964225,0.07470684
1764505569.0533848,-4.66956,1.05294,0.65618,-0.8409402300000001,0.50964225,0.07470684
1764505569.0533848,-4.66956,1.05294,0.65618,-0.8409402300000001,0.50964225,0.07470684
1764505569.0533848,-4.66956,1.05294,0.65618,-0.8409402300000001,0.50964225,0.07470684
1764505569.0533848,-4.66956,1.05294,0.65618,-0.8409402300000001,0.50964225,0.07470684
1764505569.0543635,-4.66956,1.05294,0.65618,-0.8409402300000001,0.50964225,0.07470684
1764505569.0543635,-4.66956,1.05294,0.65618,-0.8409402300000001,0.50964225,0.07470684
1764505569.0543635,-4.66956,1.05294,0.65618,-0.8409402300000001,0.50964225,0.07470684
1764505569.0543635,-4.66956,1.05294,0.65618,-0.8409402300000001,0.50964225,0.07470684
1764505569.0988586,-4.45592,0.36624,1.34288,-0.84167265,0.51122916,0.074523735
1764505569.0988586,-4.45592,0.36624,1.34288,-0.84167265,0.51122916,0.074523735
1764505569.0988586,-4.45592,0.36624,1.34288,-0.84167265,0.51122916,0.074523735
1764505569.0988586,-4.45592,0.36624,1.34288,-0.84167265,0.51122916,0.074523735
1764505569.0988586,-4.45592,0.36624,1.34288,-0.84167265,0.51122916,0.074523735
1764505569.0988586,-4.45592,0.36624,1.34288,-0.84167265,0.51122916,0.074523735
1764505569.0988586,-4.45592,0.36624,1.34288,-0.84167265,0.51122916,0.074523735
1764505569.0988586,-4.45592,0.36624,1.34288,-0.84167265,0.51122916,0.074523735
1764505569.0988586,-4.45592,0.36624,1.34288,-0.84167265,0.51122916,0.074523735
1764505569.0988586,-4.45592,0.36624,1.34288,-0.84167265,0.51122916,0.074523735
1764505569.0988586,-3.18934,0.97664,0.74774,-0.841855755,0.51183951,0.073180965
1764505569.0998738,-3.18934,0.97664,0.74774,-0.841855755,0.51183951,0.073180965
1764505569.0998738,-3.18934,0.97664,0.74774,-0.841855755,0.51183951,0.073180965
1764505569.0998738,-3.18934,0.97664,0.74774,-0.841855755,0.51183951,0.073180965
1764505569.0998738,-3.18934,0.97664,0.74774,-0.841855755,0.51183951,0.073180965
1764505569.0998738,-3.18934,0.97664,0.74774,-0.841855755,0.51183951,0.073180965
1764505569.0998738,-3.18934,0.97664,0.74774,-0.841855755,0.51183951,0.073180965
1764505569.0998738,-3.18934,0.97664,0.74774,-0.841855755,0.51183951,0.073180965
1764505569.0998738,-3.18934,0.97664,0.74774,-0.841855755,0.51183951,0.073180965
1764505569.0998738,-3.18934,0.97664,0.74774,-0.841855755,0.51183951,0.073180965
1764505569.0998738,-2.70102,1.05294,0.42728,-0.8410623,0.51244986,0.07238751
1764505569.0998738,-2.70102,1.05294,0.42728,-0.8410623,0.51244986,0.07238751
1764505569.0998738,-2.70102,1.05294,0.42728,-0.8410623,0.51244986,0.07238751
1764505569.0998738,-2.70102,1.05294,0.42728,-0.8410623,0.51244986,0.07238751
1764505569.149232,-2.70102,1.05294,0.42728,-0.8410623,0.51244986,0.07238751
1764505569.149232,-2.70102,1.05294,0.42728,-0.8410623,0.51244986,0.07238751
1764505569.149232,-2.70102,1.05294,0.42728,-0.8410623,0.51244986,0.07238751
1764505569.149232,-2.70102,1.05294,0.42728,-0.8410623,0.51244986,0.07238751
1764505569.149232,-2.70102,1.05294,0.42728,-0.8410623,0.51244986,0.07238751
1764505569.149232,-2.70102,1.05294,0.42728,-0.8410623,0.51244986,0.07238751
1764505569.149232,-2.7468,1.25132,0.12208,-0.8399026350000001,0.514586085,0.072692685
1764505569.149232,-2.7468,1.25132,0.12208,-0.8399026350000001,0.514586085,0.072692685
1764505569.149232,-2.7468,1.25132,0.12208,-0.8399026350000001,0.514586085,0.072692685
1764505569.149232,-2.7468,1.25132,0.12208,-0.8399026350000001,0.514586085,0.072692685
1764505569.149232,-2.7468,1.25132,0.12208,-0.8399026350000001,0.514586085,0.072692685
1764505569.149232,-2.7468,1.25132,0.12208,-0.8399026350000001,0.514586085,0.072692685
1764505569.149232,-2.7468,1.25132,0.12208,-0.8399026350000001,0.514586085,0.072692685
1764505569.149232,-2.7468,1.25132,0.12208,-0.8399026350000001,0.514586085,0.072692685
1764505569.149232,-2.7468,1.25132,0.12208,-0.8399026350000001,0.514586085,0.072692685
1764505569.149232,-2.7468,1.25132,0.12208,-0.8399026350000001,0.514586085,0.072692685
1764505569.149232,-4.2728,1.46496,0.19838,-0.838681935,0.51489126,0.073547175
1764505569.149232,-4.2728,1.46496,0.19838,-0.838681935,0.51489126,0.073547175
1764505569.149232,-4.2728,1.46496,0.19838,-0.838681935,0.51489126,0.073547175
1764505569.1502345,-4.2728,1.46496,0.19838,-0.838681935,0.51489126,0.073547175
1764505569.1502345,-4.2728,1.46496,0.19838,-0.838681935,0.51489126,0.073547175
1764505569.1502345,-4.2728,1.46496,0.19838,-0.838681935,0.51489126,0.073547175
1764505569.1502345,-4.2728,1.46496,0.19838,-0.838681935,0.51489126,0.073547175
1764505569.1502345,-4.2728,1.46496,0.19838,-0.838681935,0.51489126,0.073547175
1764505569.1944191,-4.2728,1.46496,0.19838,-0.838681935,0.51489126,0.073547175
1764505569.1944191,-4.2728,1.46496,0.19838,-0.838681935,0.51489126,0.073547175
1764505569.1944191,-4.6543,1.43444,0.6714399999999999,-0.83959746,0.514708155,0.073913385
1764505569.1944191,-4.6543,1.43444,0.6714399999999999,-0.83959746,0.514708155,0.073913385
1764505569.1944191,-4.6543,1.43444,0.6714399999999999,-0.83959746,0.514708155,0.073913385
1764505569.1944191,-4.6543,1.43444,0.6714399999999999,-0.83959746,0.514708155,0.073913385
1764505569.195433,-4.6543,1.43444,0.6714399999999999,-0.83959746,0.514708155,0.073913385
1764505569.195433,-4.6543,1.43444,0.6714399999999999,-0.83959746,0.514708155,0.073913385
1764505569.195433,-4.6543,1.43444,0.6714399999999999,-0.83959746,0.514708155,0.073913385
1764505569.195433,-4.6543,1.43444,0.6714399999999999,-0.83959746,0.514708155,0.073913385
1764505569.195433,-4.6543,1.43444,0.6714399999999999,-0.83959746,0.514708155,0.073913385
1764505569.195433,-4.6543,1.43444,0.6714399999999999,-0.83959746,0.514708155,0.073913385
1764505569.195433,-4.959499999999999,1.3734,0.71722,-0.84032988,0.51464712,0.074279595
1764505569.195433,-4.959499999999999,1.3734,0.71722,-0.84032988,0.51464712,0.074279595
1764505569.195433,-4.959499999999999,1.3734,0.71722,-0.84032988,0.51464712,0.074279595
1764505569.195433,-4.959499999999999,1.3734,0.71722,-0.84032988,0.51464712,0.074279595
1764505569.195433,-4.959499999999999,1.3734,0.71722,-0.84032988,0.51464712,0.074279595
1764505569.195433,-4.959499999999999,1.3734,0.71722,-0.84032988,0.51464712,0.074279595
1764505569.195433,-4.959499999999999,1.3734,0.71722,-0.84032988,0.51464712,0.074279595
1764505569.195433,-4.959499999999999,1.3734,0.71722,-0.84032988,0.51464712,0.074279595
1764505569.195433,-4.959499999999999,1.3734,0.71722,-0.84032988,0.51464712,0.074279595
1764505569.195433,-4.959499999999999,1.3734,0.71722,-0.84032988,0.51464712,0.074279595
1764505569.239397,-4.60852,1.55652,0.03052,-0.84057402,0.513487455,0.074645805
1764505569.2399423,-4.60852,1.55652,0.03052,-0.84057402,0.513487455,0.074645805
1764505569.2399423,-4.60852,1.55652,0.03052,-0.84057402,0.513487455,0.074645805
1764505569.2399423,-4.60852,1.55652,0.03052,-0.84057402,0.513487455,0.074645805
1764505569.2399423,-4.60852,1.55652,0.03052,-0.84057402,0.513487455,0.074645805
1764505569.2399423,-4.60852,1.55652,0.03052,-0.84057402,0.513487455,0.074645805
1764505569.2399423,-4.60852,1.55652,0.03052,-0.84057402,0.513487455,0.074645805
1764505569.2399423,-4.60852,1.55652,0.03052,-0.84057402,0.513487455,0.074645805
1764505569.2399423,-4.60852,1.55652,0.03052,-0.84057402,0.513487455,0.074645805
1764505569.2399423,-4.60852,1.55652,0.03052,-0.84057402,0.513487455,0.074645805
1764505569.2399423,-3.70818,1.77016,-0.13734,-0.840635055,0.51171744,0.07397442
1764505569.2399423,-3.70818,1.77016,-0.13734,-0.840635055,0.51171744,0.07397442
1764505569.2399423,-3.70818,1.77016,-0.13734,-0.840635055,0.51171744,0.07397442
1764505569.2399423,-3.70818,1.77016,-0.13734,-0.840635055,0.51171744,0.07397442
1764505569.2399423,-3.70818,1.77016,-0.13734,-0.840635055,0.51171744,0.07397442
1764505569.2399423,-3.70818,1.77016,-0.13734,-0.840635055,0.51171744,0.07397442
1764505569.2399423,-3.70818,1.77016,-0.13734,-0.840635055,0.51171744,0.07397442
1764505569.2399423,-3.70818,1.77016,-0.13734,-0.840635055,0.51171744,0.07397442
1764505569.2399423,-3.70818,1.77016,-0.13734,-0.840635055,0.51171744,0.07397442
1764505569.2399423,-3.70818,1.77016,-0.13734,-0.840635055,0.51171744,0.07397442
1764505569.2399423,-2.56368,1.19028,0.54936,-0.8414895450000001,0.51110709,0.071960265
1764505569.2399423,-2.56368,1.19028,0.54936,-0.8414895450000001,0.51110709,0.071960265
1764505569.2399423,-2.56368,1.19028,0.54936,-0.8414895450000001,0.51110709,0.071960265
1764505569.2399423,-2.56368,1.19028,0.54936,-0.8414895450000001,0.51110709,0.071960265
1764505569.2885492,-2.56368,1.19028,0.54936,-0.8414895450000001,0.51110709,0.071960265
1764505569.2895577,-2.56368,1.19028,0.54936,-0.8414895450000001,0.51110709,0.071960265
1764505569.2895577,-2.56368,1.19028,0.54936,-0.8414895450000001,0.51110709,0.071960265
1764505569.2895577,-2.56368,1.19028,0.54936,-0.8414895450000001,0.51110709,0.071960265
1764505569.2895577,-2.56368,1.19028,0.54936,-0.8414895450000001,0.51110709,0.071960265
1764505569.2895577,-2.56368,1.19028,0.54936,-0.8414895450000001,0.51110709,0.071960265
1764505569.2895577,-3.31142,1.28184,0.59514,-0.84081816,0.51122916,0.07165509
1764505569.2895577,-3.31142,1.28184,0.59514,-0.84081816,0.51122916,0.07165509
1764505569.2895577,-3.31142,1.28184,0.59514,-0.84081816,0.51122916,0.07165509
1764505569.2895577,-3.31142,1.28184,0.59514,-0.84081816,0.51122916,0.07165509
1764505569.2895577,-3.31142,1.28184,0.59514,-0.84081816,0.51122916,0.07165509
1764505569.2895577,-3.31142,1.28184,0.59514,-0.84081816,0.51122916,0.07165509
1764505569.2895577,-3.31142,1.28184,0.59514,-0.84081816,0.51122916,0.07165509
1764505569.2895577,-3.31142,1.28184,0.59514,-0.84081816,0.51122916,0.07165509
1764505569.2895577,-3.31142,1.28184,0.59514,-0.84081816,0.51122916,0.07165509
1764505569.2895577,-3.31142,1.28184,0.59514,-0.84081816,0.51122916,0.07165509
1764505569.2895577,-3.14356,1.49548,0.0,-0.84057402,0.513121245,0.071838195
1764505569.2895577,-3.14356,1.49548,0.0,-0.84057402,0.513121245,0.071838195
1764505569.2895577,-3.14356,1.49548,0.0,-0.84057402,0.513121245,0.071838195
1764505569.2895577,-3.14356,1.49548,0.0,-0.84057402,0.513121245,0.071838195
1764505569.2895577,-3.14356,1.49548,0.0,-0.84057402,0.513121245,0.071838195
1764505569.2895577,-3.14356,1.49548,0.0,-0.84057402,0.513121245,0.071838195
1764505569.3348558,-3.14356,1.49548,0.0,-0.84057402,0.513121245,0.071838195
1764505569.3348558,-3.14356,1.49548,0.0,-0.84057402,0.513121245,0.071838195
1764505569.3348558,-3.14356,1.49548,0.0,-0.84057402,0.513121245,0.071838195
1764505569.3348558,-3.14356,1.49548,0.0,-0.84057402,0.513121245,0.071838195
1764505569.3348558,-3.54032,1.2055399999999998,0.2289,-0.840879195,0.51501333,0.072692685
1764505569.3348558,-3.54032,1.2055399999999998,0.2289,-0.840879195,0.51501333,0.072692685
1764505569.3348558,-3.54032,1.2055399999999998,0.2289,-0.840879195,0.51501333,0.072692685
1764505569.3348558,-3.54032,1.2055399999999998,0.2289,-0.840879195,0.51501333,0.072692685
1764505569.3348558,-3.54032,1.2055399999999998,0.2289,-0.840879195,0.51501333,0.072692685
1764505569.3348558,-3.54032,1.2055399999999998,0.2289,-0.840879195,0.51501333,0.072692685
1764505569.3348558,-3.54032,1.2055399999999998,0.2289,-0.840879195,0.51501333,0.072692685
1764505569.335857,-3.54032,1.2055399999999998,0.2289,-0.840879195,0.51501333,0.072692685
1764505569.335857,-3.54032,1.2055399999999998,0.2289,-0.840879195,0.51501333,0.072692685
1764505569.335857,-3.54032,1.2055399999999998,0.2289,-0.840879195,0.51501333,0.072692685
1764505569.335857,-3.67766,1.35814,0.82404,-0.841123335,0.516661275,0.07299786
1764505569.335857,-3.67766,1.35814,0.82404,-0.841123335,0.516661275,0.07299786
1764505569.335857,-3.67766,1.35814,0.82404,-0.841123335,0.516661275,0.07299786
1764505569.335857,-3.67766,1.35814,0.82404,-0.841123335,0.516661275,0.07299786
1764505569.335857,-3.67766,1.35814,0.82404,-0.841123335,0.516661275,0.07299786
1764505569.335857,-3.67766,1.35814,0.82404,-0.841123335,0.516661275,0.07299786
1764505569.335857,-3.67766,1.35814,0.82404,-0.841123335,0.516661275,0.07299786
1764505569.335857,-3.67766,1.35814,0.82404,-0.841123335,0.516661275,0.07299786
1764505569.3373635,-3.67766,1.35814,0.82404,-0.841123335,0.516661275,0.07299786
1764505569.3373635,-3.67766,1.35814,0.82404,-0.841123335,0.516661275,0.07299786
1764505569.3824356,-3.9676,0.8698199999999999,0.09156,-0.8409402300000001,0.51660024,0.073242
1764505569.3824356,-3.9676,0.8698199999999999,0.09156,-0.8409402300000001,0.51660024,0.073242
1764505569.3824356,-3.9676,0.8698199999999999,0.09156,-0.8409402300000001,0.51660024,0.073242
1764505569.3824356,-3.9676,0.8698199999999999,0.09156,-0.8409402300000001,0.51660024,0.073242
1764505569.3824356,-3.9676,0.8698199999999999,0.09156,-0.8409402300000001,0.51660024,0.073242
1764505569.3824356,-3.9676,0.8698199999999999,0.09156,-0.8409402300000001,0.51660024,0.073242
1764505569.3824356,-3.9676,0.8698199999999999,0.09156,-0.8409402300000001,0.51660024,0.073242
1764505569.3824356,-3.9676,0.8698199999999999,0.09156,-0.8409402300000001,0.51660024,0.073242
1764505569.3824356,-3.9676,0.8698199999999999,0.09156,-0.8409402300000001,0.51660024,0.073242
1764505569.3824356,-3.9676,0.8698199999999999,0.09156,-0.8409402300000001,0.51660024,0.073242
1764505569.3824356,-4.25754,1.19028,0.13734,-0.840635055,0.51562368,0.074035455
1764505569.3824356,-4.25754,1.19028,0.13734,-0.840635055,0.51562368,0.074035455
1764505569.3834352,-4.25754,1.19028,0.13734,-0.840635055,0.51562368,0.074035455
1764505569.3834352,-4.25754,1.19028,0.13734,-0.840635055,0.51562368,0.074035455
1764505569.3834352,-4.25754,1.19028,0.13734,-0.840635055,0.51562368,0.074035455
1764505569.3834352,-4.25754,1.19028,0.13734,-0.840635055,0.51562368,0.074035455
1764505569.3834352,-4.25754,1.19028,0.13734,-0.840635055,0.51562368,0.074035455
1764505569.3834352,-4.25754,1.19028,0.13734,-0.840635055,0.51562368,0.074035455
1764505569.3834352,-4.25754,1.19028,0.13734,-0.840635055,0.51562368,0.074035455
1764505569.3834352,-4.25754,1.19028,0.13734,-0.840635055,0.51562368,0.074035455
1764505569.3834352,-4.39488,2.15166,-0.06104,-0.84032988,0.513487455,0.07397442
1764505569.3834352,-4.39488,2.15166,-0.06104,-0.84032988,0.513487455,0.07397442
1764505569.3834352,-4.39488,2.15166,-0.06104,-0.84032988,0.513487455,0.07397442
1764505569.3834352,-4.39488,2.15166,-0.06104,-0.84032988,0.513487455,0.07397442
1764505569.4272134,-4.39488,2.15166,-0.06104,-0.84032988,0.513487455,0.07397442
1764505569.4277525,-4.39488,2.15166,-0.06104,-0.84032988,0.513487455,0.07397442
1764505569.4277525,-4.39488,2.15166,-0.06104,-0.84032988,0.513487455,0.07397442
1764505569.4277525,-4.39488,2.15166,-0.06104,-0.84032988,0.513487455,0.07397442
1764505569.4277525,-4.39488,2.15166,-0.06104,-0.84032988,0.513487455,0.07397442
1764505569.4277525,-4.39488,2.15166,-0.06104,-0.84032988,0.513487455,0.07397442
1764505569.4277525,-4.47118,2.56368,0.3815,-0.84008574,0.512022615,0.072936825
1764505569.4277525,-4.47118,2.56368,0.3815,-0.84008574,0.512022615,0.072936825
1764505569.4277525,-4.47118,2.56368,0.3815,-0.84008574,0.512022615,0.072936825
1764505569.4277525,-4.47118,2.56368,0.3815,-0.84008574,0.512022615,0.072936825
1764505569.4277525,-4.47118,2.56368,0.3815,-0.84008574,0.512022615,0.072936825
1764505569.4277525,-4.47118,2.56368,0.3815,-0.84008574,0.512022615,0.072936825
1764505569.4277525,-4.47118,2.56368,0.3815,-0.84008574,0.512022615,0.072936825
1764505569.4277525,-4.47118,2.56368,0.3815,-0.84008574,0.512022615,0.072936825
1764505569.4277525,-4.47118,2.56368,0.3815,-0.84008574,0.512022615,0.072936825
1764505569.428281,-4.47118,2.56368,0.3815,-0.84008574,0.512022615,0.072936825
1764505569.428281,-3.87604,1.86172,0.48832,-0.840268845,0.5114733,0.07153302
1764505569.428281,-3.87604,1.86172,0.48832,-0.840268845,0.5114733,0.07153302
1764505569.428281,-3.87604,1.86172,0.48832,-0.840268845,0.5114733,0.07153302
1764505569.428281,-3.87604,1.86172,0.48832,-0.840268845,0.5114733,0.07153302
1764505569.4286363,-3.87604,1.86172,0.48832,-0.840268845,0.5114733,0.07153302
1764505569.4286363,-3.87604,1.86172,0.48832,-0.840268845,0.5114733,0.07153302
1764505569.472063,-3.87604,1.86172,0.48832,-0.840268845,0.5114733,0.07153302
1764505569.472063,-3.87604,1.86172,0.48832,-0.840268845,0.5114733,0.07153302
1764505569.472063,-3.87604,1.86172,0.48832,-0.840268845,0.5114733,0.07153302
1764505569.472063,-3.87604,1.86172,0.48832,-0.840268845,0.5114733,0.07153302
1764505569.4725766,-2.57894,0.9003399999999999,0.62566,-0.84118437,0.510191565,0.07165509
1764505569.4725766,-2.57894,0.9003399999999999,0.62566,-0.84118437,0.510191565,0.07165509
1764505569.4725766,-2.57894,0.9003399999999999,0.62566,-0.84118437,0.510191565,0.07165509
1764505569.4725766,-2.57894,0.9003399999999999,0.62566,-0.84118437,0.510191565,0.07165509
1764505569.4725766,-2.57894,0.9003399999999999,0.62566,-0.84118437,0.510191565,0.07165509
1764505569.4725766,-2.57894,0.9003399999999999,0.62566,-0.84118437,0.510191565,0.07165509
1764505569.4725766,-2.57894,0.9003399999999999,0.62566,-0.84118437,0.510191565,0.07165509
1764505569.4725766,-2.57894,0.9003399999999999,0.62566,-0.84118437,0.510191565,0.07165509
1764505569.4725766,-2.57894,0.9003399999999999,0.62566,-0.84118437,0.510191565,0.07165509
1764505569.4725766,-2.57894,0.9003399999999999,0.62566,-0.84118437,0.510191565,0.07165509
1764505569.4725766,-1.58704,0.8392999999999999,0.1525999999999999,-0.84179472,0.50976432,0.071594055
1764505569.4725766,-1.58704,0.8392999999999999,0.1525999999999999,-0.84179472,0.50976432,0.071594055
1764505569.4725766,-1.58704,0.8392999999999999,0.1525999999999999,-0.84179472,0.50976432,0.071594055
1764505569.4725766,-1.58704,0.8392999999999999,0.1525999999999999,-0.84179472,0.50976432,0.071594055
1764505569.4725766,-1.58704,0.8392999999999999,0.1525999999999999,-0.84179472,0.50976432,0.071594055
1764505569.4725766,-1.58704,0.8392999999999999,0.1525999999999999,-0.84179472,0.50976432,0.071594055
1764505569.4725766,-1.58704,0.8392999999999999,0.1525999999999999,-0.84179472,0.50976432,0.071594055
1764505569.4725766,-1.58704,0.8392999999999999,0.1525999999999999,-0.84179472,0.50976432,0.071594055
1764505569.4725766,-1.58704,0.8392999999999999,0.1525999999999999,-0.84179472,0.50976432,0.071594055
1764505569.473585,-1.58704,0.8392999999999999,0.1525999999999999,-0.84179472,0.50976432,0.071594055
1764505569.5205567,-1.61756,0.9919,0.51884,-0.841733685,0.51049674,0.071594055
1764505569.5205567,-1.61756,0.9919,0.51884,-0.841733685,0.51049674,0.071594055
1764505569.5205567,-1.61756,0.9919,0.51884,-0.841733685,0.51049674,0.071594055
1764505569.5205567,-1.61756,0.9919,0.51884,-0.841733685,0.51049674,0.071594055
1764505569.5205567,-1.61756,0.9919,0.51884,-0.841733685,0.51049674,0.071594055
1764505569.5205567,-1.61756,0.9919,0.51884,-0.841733685,0.51049674,0.071594055
1764505569.5205567,-1.61756,0.9919,0.51884,-0.841733685,0.51049674,0.071594055
1764505569.5205567,-1.61756,0.9919,0.51884,-0.841733685,0.51049674,0.071594055
1764505569.5205567,-1.61756,0.9919,0.51884,-0.841733685,0.51049674,0.071594055
1764505569.5205567,-1.61756,0.9919,0.51884,-0.841733685,0.51049674,0.071594055
1764505569.5205567,-2.45686,0.73248,0.3204599999999999,-0.8409402300000001,0.51220572,0.07141095
1764505569.5205567,-2.45686,0.73248,0.3204599999999999,-0.8409402300000001,0.51220572,0.07141095
1764505569.5205567,-2.45686,0.73248,0.3204599999999999,-0.8409402300000001,0.51220572,0.07141095
1764505569.5205567,-2.45686,0.73248,0.3204599999999999,-0.8409402300000001,0.51220572,0.07141095
1764505569.5205567,-2.45686,0.73248,0.3204599999999999,-0.8409402300000001,0.51220572,0.07141095
1764505569.5205567,-2.45686,0.73248,0.3204599999999999,-0.8409402300000001,0.51220572,0.07141095
1764505569.5205567,-2.45686,0.73248,0.3204599999999999,-0.8409402300000001,0.51220572,0.07141095
1764505569.5205567,-2.45686,0.73248,0.3204599999999999,-0.8409402300000001,0.51220572,0.07141095
1764505569.5215745,-2.45686,0.73248,0.3204599999999999,-0.8409402300000001,0.51220572,0.07141095
1764505569.5215745,-2.45686,0.73248,0.3204599999999999,-0.8409402300000001,0.51220572,0.07141095
1764505569.5225587,-2.92992,1.9838,0.3815,-0.84057402,0.514708155,0.071716125
1764505569.5225587,-2.92992,1.9838,0.3815,-0.84057402,0.514708155,0.071716125
1764505569.5225587,-2.92992,1.9838,0.3815,-0.84057402,0.514708155,0.071716125
1764505569.5225587,-2.92992,1.9838,0.3815,-0.84057402,0.514708155,0.071716125
1764505569.5660992,-2.92992,1.9838,0.3815,-0.84057402,0.514708155,0.071716125
1764505569.5666182,-2.92992,1.9838,0.3815,-0.84057402,0.514708155,0.071716125
1764505569.5666182,-2.92992,1.9838,0.3815,-0.84057402,0.514708155,0.071716125
1764505569.5666182,-2.92992,1.9838,0.3815,-0.84057402,0.514708155,0.071716125
1764505569.5666182,-2.92992,1.9838,0.3815,-0.84057402,0.514708155,0.071716125
1764505569.5666182,-2.92992,1.9838,0.3815,-0.84057402,0.514708155,0.071716125
1764505569.5666182,-3.37246,1.46496,0.28994,-0.840146775,0.515806785,0.07238751
1764505569.5666182,-3.37246,1.46496,0.28994,-0.840146775,0.515806785,0.07238751
1764505569.5666182,-3.37246,1.46496,0.28994,-0.840146775,0.515806785,0.07238751
1764505569.5666182,-3.37246,1.46496,0.28994,-0.840146775,0.515806785,0.07238751
1764505569.5666182,-3.37246,1.46496,0.28994,-0.840146775,0.515806785,0.07238751
1764505569.5666182,-3.37246,1.46496,0.28994,-0.840146775,0.515806785,0.07238751
1764505569.5666182,-3.37246,1.46496,0.28994,-0.840146775,0.515806785,0.07238751
1764505569.5666182,-3.37246,1.46496,0.28994,-0.840146775,0.515806785,0.07238751
1764505569.5666182,-3.37246,1.46496,0.28994,-0.840146775,0.515806785,0.07238751
1764505569.5671494,-3.37246,1.46496,0.28994,-0.840146775,0.515806785,0.07238751
1764505569.5671494,-3.40298,1.51074,0.1678599999999999,-0.8388650400000001,0.515196435,0.07263165
1764505569.5671494,-3.40298,1.51074,0.1678599999999999,-0.8388650400000001,0.515196435,0.07263165
1764505569.5671494,-3.40298,1.51074,0.1678599999999999,-0.8388650400000001,0.515196435,0.07263165
1764505569.5671494,-3.40298,1.51074,0.1678599999999999,-0.8388650400000001,0.515196435,0.07263165
1764505569.5671494,-3.40298,1.51074,0.1678599999999999,-0.8388650400000001,0.515196435,0.07263165
1764505569.5671494,-3.40298,1.51074,0.1678599999999999,-0.8388650400000001,0.515196435,0.07263165
1764505569.610098,-3.40298,1.51074,0.1678599999999999,-0.8388650400000001,0.515196435,0.07263165
1764505569.610098,-3.40298,1.51074,0.1678599999999999,-0.8388650400000001,0.515196435,0.07263165
1764505569.610098,-3.40298,1.51074,0.1678599999999999,-0.8388650400000001,0.515196435,0.07263165
1764505569.610098,-3.40298,1.51074,0.1678599999999999,-0.8388650400000001,0.515196435,0.07263165
1764505569.610098,-4.13546,1.99906,-0.06104,-0.83776641,0.513243315,0.072570615
1764505569.610098,-4.13546,1.99906,-0.06104,-0.83776641,0.513243315,0.072570615
1764505569.610098,-4.13546,1.99906,-0.06104,-0.83776641,0.513243315,0.072570615
1764505569.610098,-4.13546,1.99906,-0.06104,-0.83776641,0.513243315,0.072570615
1764505569.610098,-4.13546,1.99906,-0.06104,-0.83776641,0.513243315,0.072570615
1764505569.610098,-4.13546,1.99906,-0.06104,-0.83776641,0.513243315,0.072570615
1764505569.610098,-4.13546,1.99906,-0.06104,-0.83776641,0.513243315,0.072570615
1764505569.6111283,-4.13546,1.99906,-0.06104,-0.83776641,0.513243315,0.072570615
1764505569.6111283,-4.13546,1.99906,-0.06104,-0.83776641,0.513243315,0.072570615
1764505569.6111283,-4.13546,1.99906,-0.06104,-0.83776641,0.513243315,0.072570615
1764505569.6111283,-4.07442,2.39582,0.59514,-0.8399026350000001,0.512755035,0.07067853
1764505569.6111283,-4.07442,2.39582,0.59514,-0.8399026350000001,0.512755035,0.07067853
1764505569.6111283,-4.07442,2.39582,0.59514,-0.8399026350000001,0.512755035,0.07067853
1764505569.6111283,-4.07442,2.39582,0.59514,-0.8399026350000001,0.512755035,0.07067853
1764505569.6111283,-4.07442,2.39582,0.59514,-0.8399026350000001,0.512755035,0.07067853
1764505569.6111283,-4.07442,2.39582,0.59514,-0.8399026350000001,0.512755035,0.07067853
1764505569.6111283,-4.07442,2.39582,0.59514,-0.8399026350000001,0.512755035,0.07067853
1764505569.6111283,-4.07442,2.39582,0.59514,-0.8399026350000001,0.512755035,0.07067853
1764505569.6111283,-4.07442,2.39582,0.59514,-0.8399026350000001,0.512755035,0.07067853
1764505569.6111283,-4.07442,2.39582,0.59514,-0.8399026350000001,0.512755035,0.07067853
1764505569.6602063,-3.29616,0.18312,0.74774,-0.843198525,0.51452505,0.069885075
1764505569.6602063,-3.29616,0.18312,0.74774,-0.843198525,0.51452505,0.069885075
1764505569.6602063,-3.29616,0.18312,0.74774,-0.843198525,0.51452505,0.069885075
1764505569.6602063,-3.29616,0.18312,0.74774,-0.843198525,0.51452505,0.069885075
1764505569.6602063,-3.29616,0.18312,0.74774,-0.843198525,0.51452505,0.069885075
1764505569.6602063,-3.29616,0.18312,0.74774,-0.843198525,0.51452505,0.069885075
1764505569.6602063,-3.29616,0.18312,0.74774,-0.843198525,0.51452505,0.069885075
1764505569.661221,-3.29616,0.18312,0.74774,-0.843198525,0.51452505,0.069885075
1764505569.661221,-3.29616,0.18312,0.74774,-0.843198525,0.51452505,0.069885075
1764505569.661221,-3.29616,0.18312,0.74774,-0.843198525,0.51452505,0.069885075
1764505569.661221,-2.94518,-0.19838,-0.03052,-0.84313749,0.51476919,0.07055646
1764505569.661221,-2.94518,-0.19838,-0.03052,-0.84313749,0.51476919,0.07055646
1764505569.661221,-2.94518,-0.19838,-0.03052,-0.84313749,0.51476919,0.07055646
1764505569.661221,-2.94518,-0.19838,-0.03052,-0.84313749,0.51476919,0.07055646
1764505569.661221,-2.94518,-0.19838,-0.03052,-0.84313749,0.51476919,0.07055646
1764505569.661221,-2.94518,-0.19838,-0.03052,-0.84313749,0.51476919,0.07055646
1764505569.661221,-2.94518,-0.19838,-0.03052,-0.84313749,0.51476919,0.07055646
1764505569.661221,-2.94518,-0.19838,-0.03052,-0.84313749,0.51476919,0.07055646
1764505569.661221,-2.94518,-0.19838,-0.03052,-0.84313749,0.51476919,0.07055646
1764505569.661221,-2.94518,-0.19838,-0.03052,-0.84313749,0.51476919,0.07055646
1764505569.661221,-3.08252,1.51074,-0.1525999999999999,-0.841611615,0.51318228,0.07104474
1764505569.661221,-3.08252,1.51074,-0.1525999999999999,-0.841611615,0.51318228,0.07104474
1764505569.7068088,-3.08252,1.51074,-0.1525999999999999,-0.841611615,0.51318228,0.07104474
1764505569.7068088,-3.08252,1.51074,-0.1525999999999999,-0.841611615,0.51318228,0.07104474
1764505569.7068088,-3.08252,1.51074,-0.1525999999999999,-0.841611615,0.51318228,0.07104474
1764505569.7068088,-3.08252,1.51074,-0.1525999999999999,-0.841611615,0.51318228,0.07104474
1764505569.7068088,-3.08252,1.51074,-0.1525999999999999,-0.841611615,0.51318228,0.07104474
1764505569.7068088,-3.08252,1.51074,-0.1525999999999999,-0.841611615,0.51318228,0.07104474
1764505569.7068088,-3.08252,1.51074,-0.1525999999999999,-0.841611615,0.51318228,0.07104474
1764505569.7073514,-3.08252,1.51074,-0.1525999999999999,-0.841611615,0.51318228,0.07104474
1764505569.7093658,-3.75396,2.25848,0.3815,-0.83996367,0.51208365,0.07055646
1764505569.7093658,-3.75396,2.25848,0.3815,-0.83996367,0.51208365,0.07055646
1764505569.7093658,-3.75396,2.25848,0.3815,-0.83996367,0.51208365,0.07055646
1764505569.7093658,-3.75396,2.25848,0.3815,-0.83996367,0.51208365,0.07055646
1764505569.7093658,-3.75396,2.25848,0.3815,-0.83996367,0.51208365,0.07055646
1764505569.7093658,-3.75396,2.25848,0.3815,-0.83996367,0.51208365,0.07055646
1764505569.7093658,-3.75396,2.25848,0.3815,-0.83996367,0.51208365,0.07055646
1764505569.7093658,-3.75396,2.25848,0.3815,-0.83996367,0.51208365,0.07055646
1764505569.7093658,-3.75396,2.25848,0.3815,-0.83996367,0.51208365,0.07055646
1764505569.7093658,-3.75396,2.25848,0.3815,-0.83996367,0.51208365,0.07055646
1764505569.7093658,-4.08968,2.18218,0.65618,-0.838681935,0.51135123,0.070129215
1764505569.7093658,-4.08968,2.18218,0.65618,-0.838681935,0.51135123,0.070129215
1764505569.710878,-4.08968,2.18218,0.65618,-0.838681935,0.51135123,0.070129215
1764505569.710878,-4.08968,2.18218,0.65618,-0.838681935,0.51135123,0.070129215
1764505569.710878,-4.08968,2.18218,0.65618,-0.838681935,0.51135123,0.070129215
1764505569.710878,-4.08968,2.18218,0.65618,-0.838681935,0.51135123,0.070129215
1764505569.710878,-4.08968,2.18218,0.65618,-0.838681935,0.51135123,0.070129215
1764505569.710878,-4.08968,2.18218,0.65618,-0.838681935,0.51135123,0.070129215
1764505569.754384,-4.08968,2.18218,0.65618,-0.838681935,0.51135123,0.070129215
1764505569.754384,-4.08968,2.18218,0.65618,-0.838681935,0.51135123,0.070129215
1764505569.754384,-4.37962,2.30426,0.59514,-0.83935332,0.51110709,0.071349915
1764505569.754384,-4.37962,2.30426,0.59514,-0.83935332,0.51110709,0.071349915
1764505569.754384,-4.37962,2.30426,0.59514,-0.83935332,0.51110709,0.071349915
1764505569.754384,-4.37962,2.30426,0.59514,-0.83935332,0.51110709,0.071349915
1764505569.754384,-4.37962,2.30426,0.59514,-0.83935332,0.51110709,0.071349915
1764505569.7553947,-4.37962,2.30426,0.59514,-0.83935332,0.51110709,0.071349915
1764505569.7553947,-4.37962,2.30426,0.59514,-0.83935332,0.51110709,0.071349915
1764505569.7553947,-4.37962,2.30426,0.59514,-0.83935332,0.51110709,0.071349915
1764505569.7553947,-4.37962,2.30426,0.59514,-0.83935332,0.51110709,0.071349915
1764505569.7553947,-4.37962,2.30426,0.59514,-0.83935332,0.51110709,0.071349915
1764505569.7553947,-4.6543,1.3734,0.57988,-0.841977825,0.511412265,0.071838195
1764505569.7553947,-4.6543,1.3734,0.57988,-0.841977825,0.511412265,0.071838195
1764505569.7553947,-4.6543,1.3734,0.57988,-0.841977825,0.511412265,0.071838195
1764505569.7563975,-4.6543,1.3734,0.57988,-0.841977825,0.511412265,0.071838195
1764505569.7563975,-4.6543,1.3734,0.57988,-0.841977825,0.511412265,0.071838195
1764505569.7563975,-4.6543,1.3734,0.57988,-0.841977825,0.511412265,0.071838195
1764505569.7563975,-4.6543,1.3734,0.57988,-0.841977825,0.511412265,0.071838195
1764505569.7563975,-4.6543,1.3734,0.57988,-0.841977825,0.511412265,0.071838195
1764505569.7563975,-4.6543,1.3734,0.57988,-0.841977825,0.511412265,0.071838195
1764505569.7563975,-4.6543,1.3734,0.57988,-0.841977825,0.511412265,0.071838195
1764505569.800018,-3.60136,0.44254,0.9003399999999999,-0.8430764550000001,0.51110709,0.07055646
1764505569.800556,-3.60136,0.44254,0.9003399999999999,-0.8430764550000001,0.51110709,0.07055646
1764505569.800556,-3.60136,0.44254,0.9003399999999999,-0.8430764550000001,0.51110709,0.07055646
1764505569.800556,-3.60136,0.44254,0.9003399999999999,-0.8430764550000001,0.51110709,0.07055646
1764505569.800556,-3.60136,0.44254,0.9003399999999999,-0.8430764550000001,0.51110709,0.07055646
1764505569.800556,-3.60136,0.44254,0.9003399999999999,-0.8430764550000001,0.51110709,0.07055646
1764505569.800556,-3.60136,0.44254,0.9003399999999999,-0.8430764550000001,0.51110709,0.07055646
1764505569.800556,-3.60136,0.44254,0.9003399999999999,-0.8430764550000001,0.51110709,0.07055646
1764505569.800556,-3.60136,0.44254,0.9003399999999999,-0.8430764550000001,0.51110709,0.07055646
1764505569.800556,-3.60136,0.44254,0.9003399999999999,-0.8430764550000001,0.51110709,0.07055646
1764505569.800556,-3.31142,1.526,0.54936,-0.842099895,0.5114733,0.069274725
1764505569.800556,-3.31142,1.526,0.54936,-0.842099895,0.5114733,0.069274725
1764505569.800556,-3.31142,1.526,0.54936,-0.842099895,0.5114733,0.069274725
1764505569.800556,-3.31142,1.526,0.54936,-0.842099895,0.5114733,0.069274725
1764505569.800556,-3.31142,1.526,0.54936,-0.842099895,0.5114733,0.069274725
1764505569.800556,-3.31142,1.526,0.54936,-0.842099895,0.5114733,0.069274725
1764505569.800556,-3.31142,1.526,0.54936,-0.842099895,0.5114733,0.069274725
1764505569.800556,-3.31142,1.526,0.54936,-0.842099895,0.5114733,0.069274725
1764505569.800556,-3.31142,1.526,0.54936,-0.842099895,0.5114733,0.069274725
1764505569.800556,-3.31142,1.526,0.54936,-0.842099895,0.5114733,0.069274725
1764505569.800556,-2.70102,1.49548,-0.0762999999999999,-0.841001265,0.51306021,0.06896955
1764505569.8015714,-2.70102,1.49548,-0.0762999999999999,-0.841001265,0.51306021,0.06896955
1764505569.8025727,-2.70102,1.49548,-0.0762999999999999,-0.841001265,0.51306021,0.06896955
1764505569.8025727,-2.70102,1.49548,-0.0762999999999999,-0.841001265,0.51306021,0.06896955
1764505569.8482394,-2.70102,1.49548,-0.0762999999999999,-0.841001265,0.51306021,0.06896955
1764505569.8482394,-2.70102,1.49548,-0.0762999999999999,-0.841001265,0.51306021,0.06896955
1764505569.8482394,-2.70102,1.49548,-0.0762999999999999,-0.841001265,0.51306021,0.06896955
1764505569.8482394,-2.70102,1.49548,-0.0762999999999999,-0.841001265,0.51306021,0.06896955
1764505569.8482394,-2.70102,1.49548,-0.0762999999999999,-0.841001265,0.51306021,0.06896955
1764505569.8482394,-2.70102,1.49548,-0.0762999999999999,-0.841001265,0.51306021,0.06896955
1764505569.8482394,-2.92992,1.48022,-0.0762999999999999,-0.839048145,0.51354849,0.06909162
1764505569.8482394,-2.92992,1.48022,-0.0762999999999999,-0.839048145,0.51354849,0.06909162
1764505569.8482394,-2.92992,1.48022,-0.0762999999999999,-0.839048145,0.51354849,0.06909162
1764505569.8482394,-2.92992,1.48022,-0.0762999999999999,-0.839048145,0.51354849,0.06909162
1764505569.8482394,-2.92992,1.48022,-0.0762999999999999,-0.839048145,0.51354849,0.06909162
1764505569.8482394,-2.92992,1.48022,-0.0762999999999999,-0.839048145,0.51354849,0.06909162
1764505569.8482394,-2.92992,1.48022,-0.0762999999999999,-0.839048145,0.51354849,0.06909162
1764505569.8482394,-2.92992,1.48022,-0.0762999999999999,-0.839048145,0.51354849,0.06909162
1764505569.8482394,-2.92992,1.48022,-0.0762999999999999,-0.839048145,0.51354849,0.06909162
1764505569.8482394,-2.92992,1.48022,-0.0762999999999999,-0.839048145,0.51354849,0.06909162
1764505569.8482394,-4.2728,2.0601,0.27468,-0.839658495,0.514586085,0.06945783
1764505569.8482394,-4.2728,2.0601,0.27468,-0.839658495,0.514586085,0.06945783
1764505569.851615,-4.2728,2.0601,0.27468,-0.839658495,0.514586085,0.06945783
1764505569.851615,-4.2728,2.0601,0.27468,-0.839658495,0.514586085,0.06945783
1764505569.851615,-4.2728,2.0601,0.27468,-0.839658495,0.514586085,0.06945783
1764505569.851615,-4.2728,2.0601,0.27468,-0.839658495,0.514586085,0.06945783
1764505569.851615,-4.2728,2.0601,0.27468,-0.839658495,0.514586085,0.06945783
1764505569.851615,-4.2728,2.0601,0.27468,-0.839658495,0.514586085,0.06945783
1764505569.8960676,-4.2728,2.0601,0.27468,-0.839658495,0.514586085,0.06945783
1764505569.8960676,-4.2728,2.0601,0.27468,-0.839658495,0.514586085,0.06945783
1764505569.8965752,-5.12736,0.94612,0.763,-0.8404519500000001,0.5151354,0.06909162
1764505569.8965752,-5.12736,0.94612,0.763,-0.8404519500000001,0.5151354,0.06909162
1764505569.8965752,-5.12736,0.94612,0.763,-0.8404519500000001,0.5151354,0.06909162
1764505569.8965752,-5.12736,0.94612,0.763,-0.8404519500000001,0.5151354,0.06909162
1764505569.8965752,-5.12736,0.94612,0.763,-0.8404519500000001,0.5151354,0.06909162
1764505569.8965752,-5.12736,0.94612,0.763,-0.8404519500000001,0.5151354,0.06909162
1764505569.8965752,-5.12736,0.94612,0.763,-0.8404519500000001,0.5151354,0.06909162
1764505569.8965752,-5.12736,0.94612,0.763,-0.8404519500000001,0.5151354,0.06909162
1764505569.8965752,-5.12736,0.94612,0.763,-0.8404519500000001,0.5151354,0.06909162
1764505569.8965752,-5.12736,0.94612,0.763,-0.8404519500000001,0.5151354,0.06909162
1764505569.8965752,-6.104,1.03768,-0.04578,-0.8404519500000001,0.514464015,0.070129215
1764505569.8971047,-6.104,1.03768,-0.04578,-0.8404519500000001,0.514464015,0.070129215
1764505569.8971047,-6.104,1.03768,-0.04578,-0.8404519500000001,0.514464015,0.070129215
1764505569.8971047,-6.104,1.03768,-0.04578,-0.8404519500000001,0.514464015,0.070129215
1764505569.8971047,-6.104,1.03768,-0.04578,-0.8404519500000001,0.514464015,0.070129215
1764505569.8971047,-6.104,1.03768,-0.04578,-0.8404519500000001,0.514464015,0.070129215
1764505569.8971047,-6.104,1.03768,-0.04578,-0.8404519500000001,0.514464015,0.070129215
1764505569.8971047,-6.104,1.03768,-0.04578,-0.8404519500000001,0.514464015,0.070129215
1764505569.8971047,-6.104,1.03768,-0.04578,-0.8404519500000001,0.514464015,0.070129215
1764505569.8971047,-6.104,1.03768,-0.04578,-0.8404519500000001,0.514464015,0.070129215
1764505569.939973,-4.577999999999999,1.38866,-0.25942,-0.840146775,0.511656405,0.071716125
1764505569.939973,-4.577999999999999,1.38866,-0.25942,-0.840146775,0.511656405,0.071716125
1764505569.939973,-4.577999999999999,1.38866,-0.25942,-0.840146775,0.511656405,0.071716125
1764505569.939973,-4.577999999999999,1.38866,-0.25942,-0.840146775,0.511656405,0.071716125
1764505569.9404829,-4.577999999999999,1.38866,-0.25942,-0.840146775,0.511656405,0.071716125
1764505569.9404829,-4.577999999999999,1.38866,-0.25942,-0.840146775,0.511656405,0.071716125
1764505569.9404829,-4.577999999999999,1.38866,-0.25942,-0.840146775,0.511656405,0.071716125
1764505569.9404829,-4.577999999999999,1.38866,-0.25942,-0.840146775,0.511656405,0.071716125
1764505569.9404829,-4.577999999999999,1.38866,-0.25942,-0.840146775,0.511656405,0.071716125
1764505569.9404829,-4.577999999999999,1.38866,-0.25942,-0.840146775,0.511656405,0.071716125
1764505569.9404829,-4.303319999999999,1.41918,0.3204599999999999,-0.841367475,0.51000846,0.071838195
1764505569.9404829,-4.303319999999999,1.41918,0.3204599999999999,-0.841367475,0.51000846,0.071838195
1764505569.9404829,-4.303319999999999,1.41918,0.3204599999999999,-0.841367475,0.51000846,0.071838195
1764505569.940991,-4.303319999999999,1.41918,0.3204599999999999,-0.841367475,0.51000846,0.071838195
1764505569.940991,-4.303319999999999,1.41918,0.3204599999999999,-0.841367475,0.51000846,0.071838195
1764505569.940991,-4.303319999999999,1.41918,0.3204599999999999,-0.841367475,0.51000846,0.071838195
1764505569.940991,-4.303319999999999,1.41918,0.3204599999999999,-0.841367475,0.51000846,0.071838195
1764505569.940991,-4.303319999999999,1.41918,0.3204599999999999,-0.841367475,0.51000846,0.071838195
1764505569.940991,-4.303319999999999,1.41918,0.3204599999999999,-0.841367475,0.51000846,0.071838195
1764505569.940991,-4.303319999999999,1.41918,0.3204599999999999,-0.841367475,0.51000846,0.071838195
1764505569.940991,-4.25754,1.70912,1.05294,-0.84155058,0.508604655,0.070983705
1764505569.940991,-4.25754,1.70912,1.05294,-0.84155058,0.508604655,0.070983705
1764505569.940991,-4.25754,1.70912,1.05294,-0.84155058,0.508604655,0.070983705
1764505569.940991,-4.25754,1.70912,1.05294,-0.84155058,0.508604655,0.070983705
1764505569.9902794,-4.25754,1.70912,1.05294,-0.84155058,0.508604655,0.070983705
1764505569.9902794,-4.25754,1.70912,1.05294,-0.84155058,0.508604655,0.070983705
1764505569.9902794,-4.25754,1.70912,1.05294,-0.84155058,0.508604655,0.070983705
1764505569.9902794,-4.25754,1.70912,1.05294,-0.84155058,0.508604655,0.070983705
1764505569.9902794,-4.25754,1.70912,1.05294,-0.84155058,0.508604655,0.070983705
1764505569.9902794,-4.25754,1.70912,1.05294,-0.84155058,0.508604655,0.070983705
1764505569.9902794,-3.57084,2.02958,0.27468,-0.841367475,0.508726725,0.069518865
1764505569.9902794,-3.57084,2.02958,0.27468,-0.841367475,0.508726725,0.069518865
1764505569.9902794,-3.57084,2.02958,0.27468,-0.841367475,0.508726725,0.069518865
1764505569.9902794,-3.57084,2.02958,0.27468,-0.841367475,0.508726725,0.069518865
1764505569.9902794,-3.57084,2.02958,0.27468,-0.841367475,0.508726725,0.069518865
1764505569.9902794,-3.57084,2.02958,0.27468,-0.841367475,0.508726725,0.069518865
1764505569.9902794,-3.57084,2.02958,0.27468,-0.841367475,0.508726725,0.069518865
1764505569.9902794,-3.57084,2.02958,0.27468,-0.841367475,0.508726725,0.069518865
1764505569.9902794,-3.57084,2.02958,0.27468,-0.841367475,0.508726725,0.069518865
1764505569.9902794,-3.57084,2.02958,0.27468,-0.841367475,0.508726725,0.069518865
1764505569.9902794,-2.99096,1.23606,0.9003399999999999,-0.842466105,0.51049674,0.06921369
1764505569.9902794,-2.99096,1.23606,0.9003399999999999,-0.842466105,0.51049674,0.06921369
1764505569.9902794,-2.99096,1.23606,0.9003399999999999,-0.842466105,0.51049674,0.06921369
1764505569.991285,-2.99096,1.23606,0.9003399999999999,-0.842466105,0.51049674,0.06921369
1764505569.991285,-2.99096,1.23606,0.9003399999999999,-0.842466105,0.51049674,0.06921369
1764505569.991285,-2.99096,1.23606,0.9003399999999999,-0.842466105,0.51049674,0.06921369
1764505569.991285,-2.99096,1.23606,0.9003399999999999,-0.842466105,0.51049674,0.06921369
1764505569.991285,-2.99096,1.23606,0.9003399999999999,-0.842466105,0.51049674,0.06921369
1764505570.0380323,-2.99096,1.23606,0.9003399999999999,-0.842466105,0.51049674,0.06921369
1764505570.0463514,-2.99096,1.23606,0.9003399999999999,-0.842466105,0.51049674,0.06921369
1764505570.0463514,-2.09062,0.06104,0.27468,-0.842221965,0.51196158,0.070861635
1764505570.0463514,-2.09062,0.06104,0.27468,-0.842221965,0.51196158,0.070861635
1764505570.0463514,-2.09062,0.06104,0.27468,-0.842221965,0.51196158,0.070861635
1764505570.047346,-2.09062,0.06104,0.27468,-0.842221965,0.51196158,0.070861635
1764505570.047346,-2.09062,0.06104,0.27468,-0.842221965,0.51196158,0.070861635
1764505570.047346,-2.09062,0.06104,0.27468,-0.842221965,0.51196158,0.070861635
1764505570.0478568,-2.09062,0.06104,0.27468,-0.842221965,0.51196158,0.070861635
1764505570.049706,-2.09062,0.06104,0.27468,-0.842221965,0.51196158,0.070861635
1764505570.049706,-2.09062,0.06104,0.27468,-0.842221965,0.51196158,0.070861635
1764505570.049706,-2.09062,0.06104,0.27468,-0.842221965,0.51196158,0.070861635
1764505570.049706,-1.86172,0.8087799999999999,-0.06104,-0.84155058,0.5133653850000001,0.07153302
1764505570.049706,-1.86172,0.8087799999999999,-0.06104,-0.84155058,0.5133653850000001,0.07153302
1764505570.049706,-1.86172,0.8087799999999999,-0.06104,-0.84155058,0.5133653850000001,0.07153302
1764505570.049706,-1.86172,0.8087799999999999,-0.06104,-0.84155058,0.5133653850000001,0.07153302
1764505570.049706,-1.86172,0.8087799999999999,-0.06104,-0.84155058,0.5133653850000001,0.07153302
1764505570.049706,-1.86172,0.8087799999999999,-0.06104,-0.84155058,0.5133653850000001,0.07153302
1764505570.049706,-1.86172,0.8087799999999999,-0.06104,-0.84155058,0.5133653850000001,0.07153302
1764505570.049706,-1.86172,0.8087799999999999,-0.06104,-0.84155058,0.5133653850000001,0.07153302
1764505570.049706,-1.86172,0.8087799999999999,-0.06104,-0.84155058,0.5133653850000001,0.07153302
1764505570.049706,-1.86172,0.8087799999999999,-0.06104,-0.84155058,0.5133653850000001,0.07153302
1764505570.0796945,-2.99096,1.7549,0.0762999999999999,-0.84130644,0.51525747,0.070007145
1764505570.0796945,-2.99096,1.7549,0.0762999999999999,-0.84130644,0.51525747,0.070007145
1764505570.0796945,-2.99096,1.7549,0.0762999999999999,-0.84130644,0.51525747,0.070007145
1764505570.0796945,-2.99096,1.7549,0.0762999999999999,-0.84130644,0.51525747,0.070007145
1764505570.0796945,-2.99096,1.7549,0.0762999999999999,-0.84130644,0.51525747,0.070007145
1764505570.0796945,-2.99096,1.7549,0.0762999999999999,-0.84130644,0.51525747,0.070007145
1764505570.0796945,-2.99096,1.7549,0.0762999999999999,-0.84130644,0.51525747,0.070007145
1764505570.0796945,-2.99096,1.7549,0.0762999999999999,-0.84130644,0.51525747,0.070007145
1764505570.0796945,-2.99096,1.7549,0.0762999999999999,-0.84130644,0.51525747,0.070007145
1764505570.0796945,-2.99096,1.7549,0.0762999999999999,-0.84130644,0.51525747,0.070007145
1764505570.0796945,-5.08158,2.18218,0.06104,-0.84020781,0.518370255,0.06933576
1764505570.0796945,-5.08158,2.18218,0.06104,-0.84020781,0.518370255,0.06933576
1764505570.0796945,-5.08158,2.18218,0.06104,-0.84020781,0.518370255,0.06933576
1764505570.0796945,-5.08158,2.18218,0.06104,-0.84020781,0.518370255,0.06933576
1764505570.0796945,-5.08158,2.18218,0.06104,-0.84020781,0.518370255,0.06933576
1764505570.0796945,-5.08158,2.18218,0.06104,-0.84020781,0.518370255,0.06933576
1764505570.0796945,-5.08158,2.18218,0.06104,-0.84020781,0.518370255,0.06933576
1764505570.0796945,-5.08158,2.18218,0.06104,-0.84020781,0.518370255,0.06933576
1764505570.0796945,-5.08158,2.18218,0.06104,-0.84020781,0.518370255,0.06933576
1764505570.0807078,-5.08158,2.18218,0.06104,-0.84020781,0.518370255,0.06933576
1764505570.0807078,-6.43972,2.12114,0.42728,-0.83935332,0.5191637100000001,0.06982404
1764505570.0807078,-6.43972,2.12114,0.42728,-0.83935332,0.5191637100000001,0.06982404
1764505570.0807078,-6.43972,2.12114,0.42728,-0.83935332,0.5191637100000001,0.06982404
1764505570.0807078,-6.43972,2.12114,0.42728,-0.83935332,0.5191637100000001,0.06982404
1764505570.1274264,-6.43972,2.12114,0.42728,-0.83935332,0.5191637100000001,0.06982404
1764505570.1274264,-6.43972,2.12114,0.42728,-0.83935332,0.5191637100000001,0.06982404
1764505570.128653,-6.43972,2.12114,0.42728,-0.83935332,0.5191637100000001,0.06982404
1764505570.128653,-6.43972,2.12114,0.42728,-0.83935332,0.5191637100000001,0.06982404
1764505570.128653,-6.43972,2.12114,0.42728,-0.83935332,0.5191637100000001,0.06982404
1764505570.128653,-6.43972,2.12114,0.42728,-0.83935332,0.5191637100000001,0.06982404
1764505570.128653,-6.928039999999999,1.9075,0.3051999999999999,-0.840268845,0.516295065,0.070007145
1764505570.128653,-6.928039999999999,1.9075,0.3051999999999999,-0.840268845,0.516295065,0.070007145
1764505570.128653,-6.928039999999999,1.9075,0.3051999999999999,-0.840268845,0.516295065,0.070007145
1764505570.128653,-6.928039999999999,1.9075,0.3051999999999999,-0.840268845,0.516295065,0.070007145
1764505570.128653,-6.928039999999999,1.9075,0.3051999999999999,-0.840268845,0.516295065,0.070007145
1764505570.128653,-6.928039999999999,1.9075,0.3051999999999999,-0.840268845,0.516295065,0.070007145
1764505570.128653,-6.928039999999999,1.9075,0.3051999999999999,-0.840268845,0.516295065,0.070007145
1764505570.128653,-6.928039999999999,1.9075,0.3051999999999999,-0.840268845,0.516295065,0.070007145
1764505570.128653,-6.928039999999999,1.9075,0.3051999999999999,-0.840268845,0.516295065,0.070007145
1764505570.128653,-6.928039999999999,1.9075,0.3051999999999999,-0.840268845,0.516295065,0.070007145
1764505570.128653,-6.53128,1.63282,0.62566,-0.840512985,0.51171744,0.07043439
1764505570.128653,-6.53128,1.63282,0.62566,-0.840512985,0.51171744,0.07043439
1764505570.128653,-6.53128,1.63282,0.62566,-0.840512985,0.51171744,0.07043439
1764505570.128653,-6.53128,1.63282,0.62566,-0.840512985,0.51171744,0.07043439
1764505570.1296525,-6.53128,1.63282,0.62566,-0.840512985,0.51171744,0.07043439
1764505570.1296525,-6.53128,1.63282,0.62566,-0.840512985,0.51171744,0.07043439
1764505570.1296525,-6.53128,1.63282,0.62566,-0.840512985,0.51171744,0.07043439
1764505570.1296525,-6.53128,1.63282,0.62566,-0.840512985,0.51171744,0.07043439
1764505570.1765656,-6.53128,1.63282,0.62566,-0.840512985,0.51171744,0.07043439
1764505570.1765656,-6.53128,1.63282,0.62566,-0.840512985,0.51171744,0.07043439
1764505570.1765656,-4.577999999999999,1.2208,0.7019599999999999,-0.84191679,0.50756706,0.070251285
1764505570.1765656,-4.577999999999999,1.2208,0.7019599999999999,-0.84191679,0.50756706,0.070251285
1764505570.1765656,-4.577999999999999,1.2208,0.7019599999999999,-0.84191679,0.50756706,0.070251285
1764505570.1775806,-4.577999999999999,1.2208,0.7019599999999999,-0.84191679,0.50756706,0.070251285
1764505570.1775806,-4.577999999999999,1.2208,0.7019599999999999,-0.84191679,0.50756706,0.070251285
1764505570.1775806,-4.577999999999999,1.2208,0.7019599999999999,-0.84191679,0.50756706,0.070251285
1764505570.1775806,-4.577999999999999,1.2208,0.7019599999999999,-0.84191679,0.50756706,0.070251285
1764505570.1775806,-4.577999999999999,1.2208,0.7019599999999999,-0.84191679,0.50756706,0.070251285
1764505570.1775806,-4.577999999999999,1.2208,0.7019599999999999,-0.84191679,0.50756706,0.070251285
1764505570.1775806,-4.577999999999999,1.2208,0.7019599999999999,-0.84191679,0.50756706,0.070251285
1764505570.1775806,-3.26564,0.8392999999999999,0.65618,-0.84277128,0.5070787800000001,0.069885075
1764505570.1775806,-3.26564,0.8392999999999999,0.65618,-0.84277128,0.5070787800000001,0.069885075
1764505570.1780922,-3.26564,0.8392999999999999,0.65618,-0.84277128,0.5070787800000001,0.069885075
1764505570.1780922,-3.26564,0.8392999999999999,0.65618,-0.84277128,0.5070787800000001,0.069885075
1764505570.1780922,-3.26564,0.8392999999999999,0.65618,-0.84277128,0.5070787800000001,0.069885075
1764505570.1780922,-3.26564,0.8392999999999999,0.65618,-0.84277128,0.5070787800000001,0.069885075
1764505570.1780922,-3.26564,0.8392999999999999,0.65618,-0.84277128,0.5070787800000001,0.069885075
1764505570.1780922,-3.26564,0.8392999999999999,0.65618,-0.84277128,0.5070787800000001,0.069885075
1764505570.1780922,-3.26564,0.8392999999999999,0.65618,-0.84277128,0.5070787800000001,0.069885075
1764505570.1780922,-3.26564,0.8392999999999999,0.65618,-0.84277128,0.5070787800000001,0.069885075
1764505570.2226274,-2.56368,1.19028,0.36624,-0.8425271400000001,0.50927604,0.06945783
1764505570.2226274,-2.56368,1.19028,0.36624,-0.8425271400000001,0.50927604,0.06945783
1764505570.2226274,-2.56368,1.19028,0.36624,-0.8425271400000001,0.50927604,0.06945783
1764505570.2226274,-2.56368,1.19028,0.36624,-0.8425271400000001,0.50927604,0.06945783
1764505570.2226274,-2.56368,1.19028,0.36624,-0.8425271400000001,0.50927604,0.06945783
1764505570.2226274,-2.56368,1.19028,0.36624,-0.8425271400000001,0.50927604,0.06945783
1764505570.2226274,-2.56368,1.19028,0.36624,-0.8425271400000001,0.50927604,0.06945783
1764505570.22364,-2.56368,1.19028,0.36624,-0.8425271400000001,0.50927604,0.06945783
1764505570.22364,-2.56368,1.19028,0.36624,-0.8425271400000001,0.50927604,0.06945783
1764505570.22364,-2.56368,1.19028,0.36624,-0.8425271400000001,0.50927604,0.06945783
1764505570.22364,-2.56368,0.65618,-0.13734,-0.841977825,0.51354849,0.069640935
1764505570.224637,-2.56368,0.65618,-0.13734,-0.841977825,0.51354849,0.069640935
1764505570.224637,-2.56368,0.65618,-0.13734,-0.841977825,0.51354849,0.069640935
1764505570.224637,-2.56368,0.65618,-0.13734,-0.841977825,0.51354849,0.069640935
1764505570.224637,-2.56368,0.65618,-0.13734,-0.841977825,0.51354849,0.069640935
1764505570.224637,-2.56368,0.65618,-0.13734,-0.841977825,0.51354849,0.069640935
1764505570.2256403,-2.56368,0.65618,-0.13734,-0.841977825,0.51354849,0.069640935
1764505570.2256403,-2.56368,0.65618,-0.13734,-0.841977825,0.51354849,0.069640935
1764505570.2256403,-2.56368,0.65618,-0.13734,-0.841977825,0.51354849,0.069640935
1764505570.2256403,-2.56368,0.65618,-0.13734,-0.841977825,0.51354849,0.069640935
1764505570.2256403,-3.61662,1.2971,-0.4578,-0.83910918,0.516172995,0.06994611
1764505570.2256403,-3.61662,1.2971,-0.4578,-0.83910918,0.516172995,0.06994611
1764505570.2271526,-3.61662,1.2971,-0.4578,-0.83910918,0.516172995,0.06994611
1764505570.2271526,-3.61662,1.2971,-0.4578,-0.83910918,0.516172995,0.06994611
1764505570.2709763,-3.61662,1.2971,-0.4578,-0.83910918,0.516172995,0.06994611
1764505570.2709763,-3.61662,1.2971,-0.4578,-0.83910918,0.516172995,0.06994611
1764505570.2709763,-3.61662,1.2971,-0.4578,-0.83910918,0.516172995,0.06994611
1764505570.2709763,-3.61662,1.2971,-0.4578,-0.83910918,0.516172995,0.06994611
1764505570.2709763,-3.61662,1.2971,-0.4578,-0.83910918,0.516172995,0.06994611
1764505570.2709763,-3.61662,1.2971,-0.4578,-0.83910918,0.516172995,0.06994611
1764505570.2709763,-5.4936,2.07536,-0.93086,-0.83776641,0.51696645,0.07067853
1764505570.2709763,-5.4936,2.07536,-0.93086,-0.83776641,0.51696645,0.07067853
