Timestamp,GyroX,GyroY,GyroZ,AccX,AccY,AccZ
1764505879.8337042,-3.17408,4.39488,-2.22796,0.76720995,-0.62267907,0.160094805
1764505879.8337042,-3.17408,4.39488,-2.22796,0.76720995,-0.62267907,0.160094805
1764505879.8337042,-3.17408,4.39488,-2.22796,0.76720995,-0.62267907,0.160094805
1764505879.8337042,-3.17408,4.39488,-2.22796,0.76720995,-0.62267907,0.160094805
1764505879.8337042,-3.17408,4.39488,-2.22796,0.76720995,-0.62267907,0.160094805
1764505879.8337042,-3.17408,4.39488,-2.22796,0.76720995,-0.62267907,0.160094805
1764505879.8337042,-3.17408,4.39488,-2.22796,0.76720995,-0.62267907,0.160094805
1764505879.8337042,-3.17408,4.39488,-2.22796,0.76720995,-0.62267907,0.160094805
1764505879.8337042,-4.0439,5.12736,-1.96854,0.767759265,-0.621397335,0.16052205
1764505879.8337042,-4.0439,5.12736,-1.96854,0.767759265,-0.621397335,0.16052205
1764505879.8337042,-4.0439,5.12736,-1.96854,0.767759265,-0.621397335,0.16052205
1764505879.8337042,-4.0439,5.12736,-1.96854,0.767759265,-0.621397335,0.16052205
1764505879.8337042,-4.0439,5.12736,-1.96854,0.767759265,-0.621397335,0.16052205
1764505879.8347175,-4.0439,5.12736,-1.96854,0.767759265,-0.621397335,0.16052205
1764505879.8347175,-4.0439,5.12736,-1.96854,0.767759265,-0.621397335,0.16052205
1764505879.8347175,-4.0439,5.12736,-1.96854,0.767759265,-0.621397335,0.16052205
1764505879.8347175,-4.0439,5.12736,-1.96854,0.767759265,-0.621397335,0.16052205
1764505879.8347175,-4.0439,5.12736,-1.96854,0.767759265,-0.621397335,0.16052205
1764505879.8347175,-4.47118,5.29522,-2.38056,0.76843065,-0.62121423,0.160827225
1764505879.8347175,-4.47118,5.29522,-2.38056,0.76843065,-0.62121423,0.160827225
1764505879.8347175,-4.47118,5.29522,-2.38056,0.76843065,-0.62121423,0.160827225
1764505879.8347175,-4.47118,5.29522,-2.38056,0.76843065,-0.62121423,0.160827225
1764505879.8347175,-4.47118,5.29522,-2.38056,0.76843065,-0.62121423,0.160827225
1764505879.8347175,-4.47118,5.29522,-2.38056,0.76843065,-0.62121423,0.160827225
1764505879.882141,-4.47118,5.29522,-2.38056,0.76843065,-0.62121423,0.160827225
1764505879.882141,-4.47118,5.29522,-2.38056,0.76843065,-0.62121423,0.160827225
1764505879.882141,-4.47118,5.29522,-2.38056,0.76843065,-0.62121423,0.160827225
1764505879.882141,-4.47118,5.29522,-2.38056,0.76843065,-0.62121423,0.160827225
1764505879.882141,-5.82932,4.7306,-2.42634,0.7702006650000001,-0.61950525,0.159850665
1764505879.882141,-5.82932,4.7306,-2.42634,0.7702006650000001,-0.61950525,0.159850665
1764505879.882141,-5.82932,4.7306,-2.42634,0.7702006650000001,-0.61950525,0.159850665
1764505879.882141,-5.82932,4.7306,-2.42634,0.7702006650000001,-0.61950525,0.159850665
1764505879.8831403,-5.82932,4.7306,-2.42634,0.7702006650000001,-0.61950525,0.159850665
1764505879.8831403,-5.82932,4.7306,-2.42634,0.7702006650000001,-0.61950525,0.159850665
1764505879.8831403,-5.82932,4.7306,-2.42634,0.7702006650000001,-0.61950525,0.159850665
1764505879.8831403,-5.82932,4.7306,-2.42634,0.7702006650000001,-0.61950525,0.159850665
1764505879.8831403,-5.82932,4.7306,-2.42634,0.7702006650000001,-0.61950525,0.159850665
1764505879.8831403,-5.82932,4.7306,-2.42634,0.7702006650000001,-0.61950525,0.159850665
1764505879.8831403,-5.371519999999999,4.715339999999999,-0.7019599999999999,0.77013963,-0.619322145,0.16039998
1764505879.8831403,-5.371519999999999,4.715339999999999,-0.7019599999999999,0.77013963,-0.619322145,0.16039998
1764505879.8831403,-5.371519999999999,4.715339999999999,-0.7019599999999999,0.77013963,-0.619322145,0.16039998
1764505879.8831403,-5.371519999999999,4.715339999999999,-0.7019599999999999,0.77013963,-0.619322145,0.16039998
1764505879.8831403,-5.371519999999999,4.715339999999999,-0.7019599999999999,0.77013963,-0.619322145,0.16039998
1764505879.8831403,-5.371519999999999,4.715339999999999,-0.7019599999999999,0.77013963,-0.619322145,0.16039998
1764505879.8831403,-5.371519999999999,4.715339999999999,-0.7019599999999999,0.77013963,-0.619322145,0.16039998
1764505879.8831403,-5.371519999999999,4.715339999999999,-0.7019599999999999,0.77013963,-0.619322145,0.16039998
1764505879.9246385,-5.371519999999999,4.715339999999999,-0.7019599999999999,0.77013963,-0.619322145,0.16039998
1764505879.9251509,-5.371519999999999,4.715339999999999,-0.7019599999999999,0.77013963,-0.619322145,0.16039998
1764505879.9251509,-5.17314,5.340999999999999,0.57988,0.769956525,-0.618467655,0.160094805
1764505879.9251509,-5.17314,5.340999999999999,0.57988,0.769956525,-0.618467655,0.160094805
1764505879.9251509,-5.17314,5.340999999999999,0.57988,0.769956525,-0.618467655,0.160094805
1764505879.9251509,-5.17314,5.340999999999999,0.57988,0.769956525,-0.618467655,0.160094805
1764505879.9261692,-5.17314,5.340999999999999,0.57988,0.769956525,-0.618467655,0.160094805
1764505879.9261692,-5.17314,5.340999999999999,0.57988,0.769956525,-0.618467655,0.160094805
1764505879.9261692,-5.17314,5.340999999999999,0.57988,0.769956525,-0.618467655,0.160094805
1764505879.9261692,-5.17314,5.340999999999999,0.57988,0.769956525,-0.618467655,0.160094805
1764505879.9261692,-5.17314,5.340999999999999,0.57988,0.769956525,-0.618467655,0.160094805
1764505879.9261692,-5.17314,5.340999999999999,0.57988,0.769956525,-0.618467655,0.160094805
1764505879.9261692,-3.6624,5.35626,1.15976,0.7702617,-0.61877283,0.159362385
1764505879.9261692,-3.6624,5.35626,1.15976,0.7702617,-0.61877283,0.159362385
1764505879.9261692,-3.6624,5.35626,1.15976,0.7702617,-0.61877283,0.159362385
1764505879.9261692,-3.6624,5.35626,1.15976,0.7702617,-0.61877283,0.159362385
1764505879.927166,-3.6624,5.35626,1.15976,0.7702617,-0.61877283,0.159362385
1764505879.927166,-3.6624,5.35626,1.15976,0.7702617,-0.61877283,0.159362385
1764505879.927166,-3.6624,5.35626,1.15976,0.7702617,-0.61877283,0.159362385
1764505879.927166,-3.6624,5.35626,1.15976,0.7702617,-0.61877283,0.159362385
1764505879.927166,-3.6624,5.35626,1.15976,0.7702617,-0.61877283,0.159362385
1764505879.927166,-3.6624,5.35626,1.15976,0.7702617,-0.61877283,0.159362385
1764505879.9724388,-2.8231,5.00528,1.73964,0.77038377,-0.6202987050000001,0.15942342
1764505879.9724388,-2.8231,5.00528,1.73964,0.77038377,-0.6202987050000001,0.15942342
1764505879.9724388,-2.8231,5.00528,1.73964,0.77038377,-0.6202987050000001,0.15942342
1764505879.9724388,-2.8231,5.00528,1.73964,0.77038377,-0.6202987050000001,0.15942342
1764505879.973445,-2.8231,5.00528,1.73964,0.77038377,-0.6202987050000001,0.15942342
1764505879.973445,-2.8231,5.00528,1.73964,0.77038377,-0.6202987050000001,0.15942342
1764505879.9749882,-2.8231,5.00528,1.73964,0.77038377,-0.6202987050000001,0.15942342
1764505879.9749882,-2.8231,5.00528,1.73964,0.77038377,-0.6202987050000001,0.15942342
1764505879.9749882,-2.8231,5.00528,1.73964,0.77038377,-0.6202987050000001,0.15942342
1764505879.9749882,-2.8231,5.00528,1.73964,0.77038377,-0.6202987050000001,0.15942342
1764505879.9749882,-3.18934,3.72344,1.34288,0.770078595,-0.6208480200000001,0.16052205
1764505879.9749882,-3.18934,3.72344,1.34288,0.770078595,-0.6208480200000001,0.16052205
1764505879.9749882,-3.18934,3.72344,1.34288,0.770078595,-0.6208480200000001,0.16052205
1764505879.9749882,-3.18934,3.72344,1.34288,0.770078595,-0.6208480200000001,0.16052205
1764505879.9749882,-3.18934,3.72344,1.34288,0.770078595,-0.6208480200000001,0.16052205
1764505879.9749882,-3.18934,3.72344,1.34288,0.770078595,-0.6208480200000001,0.16052205
1764505879.9749882,-3.18934,3.72344,1.34288,0.770078595,-0.6208480200000001,0.16052205
1764505879.9749882,-3.18934,3.72344,1.34288,0.770078595,-0.6208480200000001,0.16052205
1764505879.9749882,-3.18934,3.72344,1.34288,0.770078595,-0.6208480200000001,0.16052205
1764505879.9749882,-3.18934,3.72344,1.34288,0.770078595,-0.6208480200000001,0.16052205
1764505879.9749882,-4.577999999999999,3.75396,0.57988,0.76940721,-0.621763545,0.16088826
1764505879.9749882,-4.577999999999999,3.75396,0.57988,0.76940721,-0.621763545,0.16088826
1764505879.9749882,-4.577999999999999,3.75396,0.57988,0.76940721,-0.621763545,0.16088826
1764505879.9749882,-4.577999999999999,3.75396,0.57988,0.76940721,-0.621763545,0.16088826
1764505879.9749882,-4.577999999999999,3.75396,0.57988,0.76940721,-0.621763545,0.16088826
1764505879.9749882,-4.577999999999999,3.75396,0.57988,0.76940721,-0.621763545,0.16088826
1764505880.0214906,-4.577999999999999,3.75396,0.57988,0.76940721,-0.621763545,0.16088826
1764505880.0214906,-4.577999999999999,3.75396,0.57988,0.76940721,-0.621763545,0.16088826
1764505880.0214906,-4.577999999999999,3.75396,0.57988,0.76940721,-0.621763545,0.16088826
1764505880.0214906,-4.577999999999999,3.75396,0.57988,0.76940721,-0.621763545,0.16088826
1764505880.0214906,-4.77638,3.08252,-0.1525999999999999,0.76965135,-0.621641475,0.161071365
1764505880.0214906,-4.77638,3.08252,-0.1525999999999999,0.76965135,-0.621641475,0.161071365
1764505880.0214906,-4.77638,3.08252,-0.1525999999999999,0.76965135,-0.621641475,0.161071365
1764505880.0214906,-4.77638,3.08252,-0.1525999999999999,0.76965135,-0.621641475,0.161071365
1764505880.0214906,-4.77638,3.08252,-0.1525999999999999,0.76965135,-0.621641475,0.161071365
1764505880.0214906,-4.77638,3.08252,-0.1525999999999999,0.76965135,-0.621641475,0.161071365
1764505880.0214906,-4.77638,3.08252,-0.1525999999999999,0.76965135,-0.621641475,0.161071365
1764505880.0214906,-4.77638,3.08252,-0.1525999999999999,0.76965135,-0.621641475,0.161071365
1764505880.0214906,-4.77638,3.08252,-0.1525999999999999,0.76965135,-0.621641475,0.161071365
1764505880.0214906,-4.77638,3.08252,-0.1525999999999999,0.76965135,-0.621641475,0.161071365
1764505880.0214906,-6.08874,2.80784,-1.38866,0.769712385,-0.6213363000000001,0.15978963
1764505880.0214906,-6.08874,2.80784,-1.38866,0.769712385,-0.6213363000000001,0.15978963
1764505880.0214906,-6.08874,2.80784,-1.38866,0.769712385,-0.6213363000000001,0.15978963
1764505880.0214906,-6.08874,2.80784,-1.38866,0.769712385,-0.6213363000000001,0.15978963
1764505880.0214906,-6.08874,2.80784,-1.38866,0.769712385,-0.6213363000000001,0.15978963
1764505880.0214906,-6.08874,2.80784,-1.38866,0.769712385,-0.6213363000000001,0.15978963
1764505880.0214906,-6.08874,2.80784,-1.38866,0.769712385,-0.6213363000000001,0.15978963
1764505880.0214906,-6.08874,2.80784,-1.38866,0.769712385,-0.6213363000000001,0.15978963
1764505880.0669427,-6.08874,2.80784,-1.38866,0.769712385,-0.6213363000000001,0.15978963
1764505880.0669427,-6.08874,2.80784,-1.38866,0.769712385,-0.6213363000000001,0.15978963
1764505880.0669427,-5.890359999999999,2.4416,-2.41108,0.77050584,-0.621397335,0.158874105
1764505880.0669427,-5.890359999999999,2.4416,-2.41108,0.77050584,-0.621397335,0.158874105
1764505880.0669427,-5.890359999999999,2.4416,-2.41108,0.77050584,-0.621397335,0.158874105
1764505880.0669427,-5.890359999999999,2.4416,-2.41108,0.77050584,-0.621397335,0.158874105
1764505880.0669427,-5.890359999999999,2.4416,-2.41108,0.77050584,-0.621397335,0.158874105
1764505880.0669427,-5.890359999999999,2.4416,-2.41108,0.77050584,-0.621397335,0.158874105
1764505880.0669427,-5.890359999999999,2.4416,-2.41108,0.77050584,-0.621397335,0.158874105
1764505880.0669427,-5.890359999999999,2.4416,-2.41108,0.77050584,-0.621397335,0.158874105
1764505880.0669427,-5.890359999999999,2.4416,-2.41108,0.77050584,-0.621397335,0.158874105
1764505880.0669427,-5.890359999999999,2.4416,-2.41108,0.77050584,-0.621397335,0.158874105
1764505880.0669427,-5.7988,1.6022999999999998,-2.96044,0.77062791,-0.622007685,0.157653405
1764505880.0669427,-5.7988,1.6022999999999998,-2.96044,0.77062791,-0.622007685,0.157653405
1764505880.0669427,-5.7988,1.6022999999999998,-2.96044,0.77062791,-0.622007685,0.157653405
1764505880.0669427,-5.7988,1.6022999999999998,-2.96044,0.77062791,-0.622007685,0.157653405
1764505880.0669427,-5.7988,1.6022999999999998,-2.96044,0.77062791,-0.622007685,0.157653405
1764505880.0669427,-5.7988,1.6022999999999998,-2.96044,0.77062791,-0.622007685,0.157653405
1764505880.0669427,-5.7988,1.6022999999999998,-2.96044,0.77062791,-0.622007685,0.157653405
1764505880.067942,-5.7988,1.6022999999999998,-2.96044,0.77062791,-0.622007685,0.157653405
1764505880.067942,-5.7988,1.6022999999999998,-2.96044,0.77062791,-0.622007685,0.157653405
1764505880.067942,-5.7988,1.6022999999999998,-2.96044,0.77062791,-0.622007685,0.157653405
1764505880.110818,-5.32574,0.97664,-3.60136,0.7714824,-0.62158044,0.157287195
1764505880.110818,-5.32574,0.97664,-3.60136,0.7714824,-0.62158044,0.157287195
1764505880.110818,-5.32574,0.97664,-3.60136,0.7714824,-0.62158044,0.157287195
1764505880.110818,-5.32574,0.97664,-3.60136,0.7714824,-0.62158044,0.157287195
1764505880.110818,-5.32574,0.97664,-3.60136,0.7714824,-0.62158044,0.157287195
1764505880.110818,-5.32574,0.97664,-3.60136,0.7714824,-0.62158044,0.157287195
1764505880.110818,-5.32574,0.97664,-3.60136,0.7714824,-0.62158044,0.157287195
1764505880.110818,-5.32574,0.97664,-3.60136,0.7714824,-0.62158044,0.157287195
1764505880.1133714,-5.32574,0.97664,-3.60136,0.7714824,-0.62158044,0.157287195
1764505880.1133714,-5.32574,0.97664,-3.60136,0.7714824,-0.62158044,0.157287195
1764505880.1133714,-4.83742,0.1525999999999999,-3.38772,0.7722758550000001,-0.6202987050000001,0.1562496
1764505880.1133714,-4.83742,0.1525999999999999,-3.38772,0.7722758550000001,-0.6202987050000001,0.1562496
1764505880.1133714,-4.83742,0.1525999999999999,-3.38772,0.7722758550000001,-0.6202987050000001,0.1562496
1764505880.1133714,-4.83742,0.1525999999999999,-3.38772,0.7722758550000001,-0.6202987050000001,0.1562496
1764505880.1133714,-4.83742,0.1525999999999999,-3.38772,0.7722758550000001,-0.6202987050000001,0.1562496
1764505880.1133714,-4.83742,0.1525999999999999,-3.38772,0.7722758550000001,-0.6202987050000001,0.1562496
1764505880.1133714,-4.83742,0.1525999999999999,-3.38772,0.7722758550000001,-0.6202987050000001,0.1562496
1764505880.1133714,-4.83742,0.1525999999999999,-3.38772,0.7722758550000001,-0.6202987050000001,0.1562496
1764505880.1133714,-4.83742,0.1525999999999999,-3.38772,0.7722758550000001,-0.6202987050000001,0.1562496
1764505880.1133714,-4.83742,0.1525999999999999,-3.38772,0.7722758550000001,-0.6202987050000001,0.1562496
1764505880.1133714,-5.08158,-0.59514,-2.35004,0.77221482,-0.61962732,0.15490683
1764505880.1133714,-5.08158,-0.59514,-2.35004,0.77221482,-0.61962732,0.15490683
1764505880.1133714,-5.08158,-0.59514,-2.35004,0.77221482,-0.61962732,0.15490683
1764505880.1133714,-5.08158,-0.59514,-2.35004,0.77221482,-0.61962732,0.15490683
1764505880.161747,-5.08158,-0.59514,-2.35004,0.77221482,-0.61962732,0.15490683
1764505880.161747,-5.08158,-0.59514,-2.35004,0.77221482,-0.61962732,0.15490683
1764505880.161747,-5.08158,-0.59514,-2.35004,0.77221482,-0.61962732,0.15490683
1764505880.161747,-5.08158,-0.59514,-2.35004,0.77221482,-0.61962732,0.15490683
1764505880.161747,-5.08158,-0.59514,-2.35004,0.77221482,-0.61962732,0.15490683
1764505880.161747,-5.08158,-0.59514,-2.35004,0.77221482,-0.61962732,0.15490683
1764505880.161747,-4.4254,-1.02242,-1.89224,0.77245896,-0.6187117950000001,0.15331992
1764505880.161747,-4.4254,-1.02242,-1.89224,0.77245896,-0.6187117950000001,0.15331992
1764505880.161747,-4.4254,-1.02242,-1.89224,0.77245896,-0.6187117950000001,0.15331992
1764505880.161747,-4.4254,-1.02242,-1.89224,0.77245896,-0.6187117950000001,0.15331992
1764505880.161747,-4.4254,-1.02242,-1.89224,0.77245896,-0.6187117950000001,0.15331992
1764505880.161747,-4.4254,-1.02242,-1.89224,0.77245896,-0.6187117950000001,0.15331992
1764505880.161747,-4.4254,-1.02242,-1.89224,0.77245896,-0.6187117950000001,0.15331992
1764505880.161747,-4.4254,-1.02242,-1.89224,0.77245896,-0.6187117950000001,0.15331992
1764505880.161747,-4.4254,-1.02242,-1.89224,0.77245896,-0.6187117950000001,0.15331992
1764505880.161747,-4.4254,-1.02242,-1.89224,0.77245896,-0.6187117950000001,0.15331992
1764505880.161747,-3.87604,-0.04578,-1.25132,0.772886205,-0.618955935,0.15197715
1764505880.161747,-3.87604,-0.04578,-1.25132,0.772886205,-0.618955935,0.15197715
1764505880.161747,-3.87604,-0.04578,-1.25132,0.772886205,-0.618955935,0.15197715
1764505880.161747,-3.87604,-0.04578,-1.25132,0.772886205,-0.618955935,0.15197715
1764505880.161747,-3.87604,-0.04578,-1.25132,0.772886205,-0.618955935,0.15197715
1764505880.1632652,-3.87604,-0.04578,-1.25132,0.772886205,-0.618955935,0.15197715
1764505880.1632652,-3.87604,-0.04578,-1.25132,0.772886205,-0.618955935,0.15197715
1764505880.1632652,-3.87604,-0.04578,-1.25132,0.772886205,-0.618955935,0.15197715
1764505880.2083826,-3.87604,-0.04578,-1.25132,0.772886205,-0.618955935,0.15197715
1764505880.2083826,-3.87604,-0.04578,-1.25132,0.772886205,-0.618955935,0.15197715
1764505880.2083826,-4.41014,0.09156,-1.3734,0.774106905,-0.61828455,0.15002403
1764505880.2083826,-4.41014,0.09156,-1.3734,0.774106905,-0.61828455,0.15002403
1764505880.2083826,-4.41014,0.09156,-1.3734,0.774106905,-0.61828455,0.15002403
1764505880.2083826,-4.41014,0.09156,-1.3734,0.774106905,-0.61828455,0.15002403
1764505880.2083826,-4.41014,0.09156,-1.3734,0.774106905,-0.61828455,0.15002403
1764505880.2083826,-4.41014,0.09156,-1.3734,0.774106905,-0.61828455,0.15002403
1764505880.2083826,-4.41014,0.09156,-1.3734,0.774106905,-0.61828455,0.15002403
1764505880.2083826,-4.41014,0.09156,-1.3734,0.774106905,-0.61828455,0.15002403
1764505880.2083826,-4.41014,0.09156,-1.3734,0.774106905,-0.61828455,0.15002403
1764505880.2083826,-4.41014,0.09156,-1.3734,0.774106905,-0.61828455,0.15002403
1764505880.2083826,-4.8069,-0.01526,-1.32762,0.7733744850000001,-0.61901697,0.14941368
1764505880.2083826,-4.8069,-0.01526,-1.32762,0.7733744850000001,-0.61901697,0.14941368
1764505880.2083826,-4.8069,-0.01526,-1.32762,0.7733744850000001,-0.61901697,0.14941368
1764505880.2083826,-4.8069,-0.01526,-1.32762,0.7733744850000001,-0.61901697,0.14941368
1764505880.2083826,-4.8069,-0.01526,-1.32762,0.7733744850000001,-0.61901697,0.14941368
1764505880.2083826,-4.8069,-0.01526,-1.32762,0.7733744850000001,-0.61901697,0.14941368
1764505880.2083826,-4.8069,-0.01526,-1.32762,0.7733744850000001,-0.61901697,0.14941368
1764505880.2083826,-4.8069,-0.01526,-1.32762,0.7733744850000001,-0.61901697,0.14941368
1764505880.2083826,-4.8069,-0.01526,-1.32762,0.7733744850000001,-0.61901697,0.14941368
1764505880.2083826,-4.8069,-0.01526,-1.32762,0.7733744850000001,-0.61901697,0.14941368
1764505880.2083826,-5.43256,1.78542,-1.54126,0.772397925,-0.61962732,0.14819298
1764505880.2083826,-5.43256,1.78542,-1.54126,0.772397925,-0.61962732,0.14819298
1764505880.2525575,-5.43256,1.78542,-1.54126,0.772397925,-0.61962732,0.14819298
1764505880.2525575,-5.43256,1.78542,-1.54126,0.772397925,-0.61962732,0.14819298
1764505880.2525575,-5.43256,1.78542,-1.54126,0.772397925,-0.61962732,0.14819298
1764505880.2525575,-5.43256,1.78542,-1.54126,0.772397925,-0.61962732,0.14819298
1764505880.2525575,-5.43256,1.78542,-1.54126,0.772397925,-0.61962732,0.14819298
1764505880.2525575,-5.43256,1.78542,-1.54126,0.772397925,-0.61962732,0.14819298
1764505880.253574,-5.43256,1.78542,-1.54126,0.772397925,-0.61962732,0.14819298
1764505880.253574,-5.43256,1.78542,-1.54126,0.772397925,-0.61962732,0.14819298
1764505880.253574,-5.7988,7.782599999999999,-2.41108,0.773008275,-0.61901697,0.146178825
1764505880.253574,-5.7988,7.782599999999999,-2.41108,0.773008275,-0.61901697,0.146178825
1764505880.253574,-5.7988,7.782599999999999,-2.41108,0.773008275,-0.61901697,0.146178825
1764505880.253574,-5.7988,7.782599999999999,-2.41108,0.773008275,-0.61901697,0.146178825
1764505880.254085,-5.7988,7.782599999999999,-2.41108,0.773008275,-0.61901697,0.146178825
1764505880.254085,-5.7988,7.782599999999999,-2.41108,0.773008275,-0.61901697,0.146178825
1764505880.254085,-5.7988,7.782599999999999,-2.41108,0.773008275,-0.61901697,0.146178825
1764505880.2550125,-5.7988,7.782599999999999,-2.41108,0.773008275,-0.61901697,0.146178825
1764505880.2550125,-5.7988,7.782599999999999,-2.41108,0.773008275,-0.61901697,0.146178825
1764505880.2550125,-5.7988,7.782599999999999,-2.41108,0.773008275,-0.61901697,0.146178825
1764505880.2550125,-4.25754,5.646199999999999,-1.73964,0.7728251700000001,-0.6188949,0.146422965
1764505880.2550125,-4.25754,5.646199999999999,-1.73964,0.7728251700000001,-0.6188949,0.146422965
1764505880.2550125,-4.25754,5.646199999999999,-1.73964,0.7728251700000001,-0.6188949,0.146422965
1764505880.2550125,-4.25754,5.646199999999999,-1.73964,0.7728251700000001,-0.6188949,0.146422965
1764505880.300451,-4.25754,5.646199999999999,-1.73964,0.7728251700000001,-0.6188949,0.146422965
1764505880.300451,-4.25754,5.646199999999999,-1.73964,0.7728251700000001,-0.6188949,0.146422965
1764505880.300451,-4.25754,5.646199999999999,-1.73964,0.7728251700000001,-0.6188949,0.146422965
1764505880.300451,-4.25754,5.646199999999999,-1.73964,0.7728251700000001,-0.6188949,0.146422965
1764505880.300451,-4.25754,5.646199999999999,-1.73964,0.7728251700000001,-0.6188949,0.146422965
1764505880.300451,-4.25754,5.646199999999999,-1.73964,0.7728251700000001,-0.6188949,0.146422965
1764505880.300451,-3.76922,5.67672,-1.61756,0.77331345,-0.617979375,0.14636193
1764505880.300451,-3.76922,5.67672,-1.61756,0.77331345,-0.617979375,0.14636193
1764505880.3014717,-3.76922,5.67672,-1.61756,0.77331345,-0.617979375,0.14636193
1764505880.3014717,-3.76922,5.67672,-1.61756,0.77331345,-0.617979375,0.14636193
1764505880.3014717,-3.76922,5.67672,-1.61756,0.77331345,-0.617979375,0.14636193
1764505880.3014717,-3.76922,5.67672,-1.61756,0.77331345,-0.617979375,0.14636193
1764505880.3014717,-3.76922,5.67672,-1.61756,0.77331345,-0.617979375,0.14636193
1764505880.3014717,-3.76922,5.67672,-1.61756,0.77331345,-0.617979375,0.14636193
1764505880.3014717,-3.76922,5.67672,-1.61756,0.77331345,-0.617979375,0.14636193
1764505880.3014717,-3.76922,5.67672,-1.61756,0.77331345,-0.617979375,0.14636193
1764505880.3014717,-3.47928,5.21892,-2.01432,0.77404587,-0.617613165,0.147765735
1764505880.3014717,-3.47928,5.21892,-2.01432,0.77404587,-0.617613165,0.147765735
1764505880.3014717,-3.47928,5.21892,-2.01432,0.77404587,-0.617613165,0.147765735
1764505880.3014717,-3.47928,5.21892,-2.01432,0.77404587,-0.617613165,0.147765735
1764505880.3014717,-3.47928,5.21892,-2.01432,0.77404587,-0.617613165,0.147765735
1764505880.3014717,-3.47928,5.21892,-2.01432,0.77404587,-0.617613165,0.147765735
1764505880.3451872,-3.47928,5.21892,-2.01432,0.77404587,-0.617613165,0.147765735
1764505880.3451872,-3.47928,5.21892,-2.01432,0.77404587,-0.617613165,0.147765735
1764505880.3451872,-3.47928,5.21892,-2.01432,0.77404587,-0.617613165,0.147765735
1764505880.3451872,-3.47928,5.21892,-2.01432,0.77404587,-0.617613165,0.147765735
1764505880.3451872,-4.37962,4.8832,-1.6022999999999998,0.77416794,-0.61694178,0.14819298
1764505880.3451872,-4.37962,4.8832,-1.6022999999999998,0.77416794,-0.61694178,0.14819298
1764505880.3451872,-4.37962,4.8832,-1.6022999999999998,0.77416794,-0.61694178,0.14819298
1764505880.3451872,-4.37962,4.8832,-1.6022999999999998,0.77416794,-0.61694178,0.14819298
1764505880.3451872,-4.37962,4.8832,-1.6022999999999998,0.77416794,-0.61694178,0.14819298
1764505880.3451872,-4.37962,4.8832,-1.6022999999999998,0.77416794,-0.61694178,0.14819298
1764505880.3451872,-4.37962,4.8832,-1.6022999999999998,0.77416794,-0.61694178,0.14819298
1764505880.3451872,-4.37962,4.8832,-1.6022999999999998,0.77416794,-0.61694178,0.14819298
1764505880.3451872,-4.37962,4.8832,-1.6022999999999998,0.77416794,-0.61694178,0.14819298
1764505880.3451872,-4.37962,4.8832,-1.6022999999999998,0.77416794,-0.61694178,0.14819298
1764505880.3451872,-4.83742,5.00528,-1.8006799999999998,0.77453415,-0.616392465,0.14831505
1764505880.3451872,-4.83742,5.00528,-1.8006799999999998,0.77453415,-0.616392465,0.14831505
1764505880.3451872,-4.83742,5.00528,-1.8006799999999998,0.77453415,-0.616392465,0.14831505
1764505880.3451872,-4.83742,5.00528,-1.8006799999999998,0.77453415,-0.616392465,0.14831505
1764505880.3451872,-4.83742,5.00528,-1.8006799999999998,0.77453415,-0.616392465,0.14831505
1764505880.3451872,-4.83742,5.00528,-1.8006799999999998,0.77453415,-0.616392465,0.14831505
1764505880.3451872,-4.83742,5.00528,-1.8006799999999998,0.77453415,-0.616392465,0.14831505
1764505880.3451872,-4.83742,5.00528,-1.8006799999999998,0.77453415,-0.616392465,0.14831505
1764505880.3467276,-4.83742,5.00528,-1.8006799999999998,0.77453415,-0.616392465,0.14831505
1764505880.3467276,-4.83742,5.00528,-1.8006799999999998,0.77453415,-0.616392465,0.14831505
1764505880.3906243,-5.40204,4.08968,-2.65524,0.77538864,-0.616758675,0.148254015
1764505880.3916433,-5.40204,4.08968,-2.65524,0.77538864,-0.616758675,0.148254015
1764505880.3916433,-5.40204,4.08968,-2.65524,0.77538864,-0.616758675,0.148254015
1764505880.3916433,-5.40204,4.08968,-2.65524,0.77538864,-0.616758675,0.148254015
1764505880.392159,-5.40204,4.08968,-2.65524,0.77538864,-0.616758675,0.148254015
1764505880.392159,-5.40204,4.08968,-2.65524,0.77538864,-0.616758675,0.148254015
1764505880.392159,-5.40204,4.08968,-2.65524,0.77538864,-0.616758675,0.148254015
1764505880.392159,-5.40204,4.08968,-2.65524,0.77538864,-0.616758675,0.148254015
1764505880.392159,-5.40204,4.08968,-2.65524,0.77538864,-0.616758675,0.148254015
1764505880.392159,-5.40204,4.08968,-2.65524,0.77538864,-0.616758675,0.148254015
1764505880.392159,-5.508859999999999,3.79974,-2.62472,0.775693815,-0.6166366050000001,0.147521595
1764505880.392159,-5.508859999999999,3.79974,-2.62472,0.775693815,-0.6166366050000001,0.147521595
1764505880.392159,-5.508859999999999,3.79974,-2.62472,0.775693815,-0.6166366050000001,0.147521595
1764505880.392159,-5.508859999999999,3.79974,-2.62472,0.775693815,-0.6166366050000001,0.147521595
1764505880.392159,-5.508859999999999,3.79974,-2.62472,0.775693815,-0.6166366050000001,0.147521595
1764505880.392159,-5.508859999999999,3.79974,-2.62472,0.775693815,-0.6166366050000001,0.147521595
1764505880.3937078,-5.508859999999999,3.79974,-2.62472,0.775693815,-0.6166366050000001,0.147521595
1764505880.3947213,-5.508859999999999,3.79974,-2.62472,0.775693815,-0.6166366050000001,0.147521595
1764505880.3947213,-5.508859999999999,3.79974,-2.62472,0.775693815,-0.6166366050000001,0.147521595
1764505880.3957243,-5.508859999999999,3.79974,-2.62472,0.775693815,-0.6166366050000001,0.147521595
1764505880.3957243,-4.822159999999999,4.54748,-3.26564,0.776304165,-0.61620936,0.14709435
1764505880.3957243,-4.822159999999999,4.54748,-3.26564,0.776304165,-0.61620936,0.14709435
1764505880.3967242,-4.822159999999999,4.54748,-3.26564,0.776304165,-0.61620936,0.14709435
1764505880.3967242,-4.822159999999999,4.54748,-3.26564,0.776304165,-0.61620936,0.14709435
1764505880.4377284,-4.822159999999999,4.54748,-3.26564,0.776304165,-0.61620936,0.14709435
1764505880.4377284,-4.822159999999999,4.54748,-3.26564,0.776304165,-0.61620936,0.14709435
1764505880.4377284,-4.822159999999999,4.54748,-3.26564,0.776304165,-0.61620936,0.14709435
1764505880.4377284,-4.822159999999999,4.54748,-3.26564,0.776304165,-0.61620936,0.14709435
1764505880.4377284,-4.822159999999999,4.54748,-3.26564,0.776304165,-0.61620936,0.14709435
1764505880.4377284,-4.822159999999999,4.54748,-3.26564,0.776304165,-0.61620936,0.14709435
1764505880.4377284,-5.340999999999999,3.64714,-4.02864,0.7763652,-0.615171765,0.147521595
1764505880.4377284,-5.340999999999999,3.64714,-4.02864,0.7763652,-0.615171765,0.147521595
1764505880.4377284,-5.340999999999999,3.64714,-4.02864,0.7763652,-0.615171765,0.147521595
1764505880.4377284,-5.340999999999999,3.64714,-4.02864,0.7763652,-0.615171765,0.147521595
1764505880.4377284,-5.340999999999999,3.64714,-4.02864,0.7763652,-0.615171765,0.147521595
1764505880.4377284,-5.340999999999999,3.64714,-4.02864,0.7763652,-0.615171765,0.147521595
1764505880.4377284,-5.340999999999999,3.64714,-4.02864,0.7763652,-0.615171765,0.147521595
1764505880.4377284,-5.340999999999999,3.64714,-4.02864,0.7763652,-0.615171765,0.147521595
1764505880.4377284,-5.340999999999999,3.64714,-4.02864,0.7763652,-0.615171765,0.147521595
1764505880.4377284,-5.340999999999999,3.64714,-4.02864,0.7763652,-0.615171765,0.147521595
1764505880.4377284,-5.646199999999999,2.5179,-3.5098,0.77709762,-0.615171765,0.147033315
1764505880.4377284,-5.646199999999999,2.5179,-3.5098,0.77709762,-0.615171765,0.147033315
1764505880.4377284,-5.646199999999999,2.5179,-3.5098,0.77709762,-0.615171765,0.147033315
1764505880.4377284,-5.646199999999999,2.5179,-3.5098,0.77709762,-0.615171765,0.147033315
1764505880.4377284,-5.646199999999999,2.5179,-3.5098,0.77709762,-0.615171765,0.147033315
1764505880.4377284,-5.646199999999999,2.5179,-3.5098,0.77709762,-0.615171765,0.147033315
1764505880.488696,-5.646199999999999,2.5179,-3.5098,0.77709762,-0.615171765,0.147033315
1764505880.488696,-5.646199999999999,2.5179,-3.5098,0.77709762,-0.615171765,0.147033315
1764505880.488696,-5.646199999999999,2.5179,-3.5098,0.77709762,-0.615171765,0.147033315
1764505880.488696,-5.646199999999999,2.5179,-3.5098,0.77709762,-0.615171765,0.147033315
1764505880.488696,-5.17314,2.3653,-3.1283,0.7775859,-0.614805555,0.146056755
1764505880.488696,-5.17314,2.3653,-3.1283,0.7775859,-0.614805555,0.146056755
1764505880.488696,-5.17314,2.3653,-3.1283,0.7775859,-0.614805555,0.146056755
1764505880.488696,-5.17314,2.3653,-3.1283,0.7775859,-0.614805555,0.146056755
1764505880.488696,-5.17314,2.3653,-3.1283,0.7775859,-0.614805555,0.146056755
1764505880.488696,-5.17314,2.3653,-3.1283,0.7775859,-0.614805555,0.146056755
1764505880.488696,-5.17314,2.3653,-3.1283,0.7775859,-0.614805555,0.146056755
1764505880.488696,-5.17314,2.3653,-3.1283,0.7775859,-0.614805555,0.146056755
1764505880.488696,-5.17314,2.3653,-3.1283,0.7775859,-0.614805555,0.146056755
1764505880.488696,-5.17314,2.3653,-3.1283,0.7775859,-0.614805555,0.146056755
1764505880.488696,-4.22702,2.19744,-3.21986,0.777769005,-0.614561415,0.144836055
1764505880.489682,-4.22702,2.19744,-3.21986,0.777769005,-0.614561415,0.144836055
1764505880.489682,-4.22702,2.19744,-3.21986,0.777769005,-0.614561415,0.144836055
1764505880.489682,-4.22702,2.19744,-3.21986,0.777769005,-0.614561415,0.144836055
1764505880.489682,-4.22702,2.19744,-3.21986,0.777769005,-0.614561415,0.144836055
1764505880.489682,-4.22702,2.19744,-3.21986,0.777769005,-0.614561415,0.144836055
1764505880.489682,-4.22702,2.19744,-3.21986,0.777769005,-0.614561415,0.144836055
1764505880.489682,-4.22702,2.19744,-3.21986,0.777769005,-0.614561415,0.144836055
1764505880.489682,-4.22702,2.19744,-3.21986,0.777769005,-0.614561415,0.144836055
1764505880.489682,-4.22702,2.19744,-3.21986,0.777769005,-0.614561415,0.144836055
1764505880.489682,-3.69292,1.526,-2.80784,0.778745565,-0.61376796,0.143859495
1764505880.489682,-3.69292,1.526,-2.80784,0.778745565,-0.61376796,0.143859495
1764505880.5338938,-3.69292,1.526,-2.80784,0.778745565,-0.61376796,0.143859495
1764505880.5338938,-3.69292,1.526,-2.80784,0.778745565,-0.61376796,0.143859495
1764505880.5338938,-3.69292,1.526,-2.80784,0.778745565,-0.61376796,0.143859495
1764505880.5338938,-3.69292,1.526,-2.80784,0.778745565,-0.61376796,0.143859495
1764505880.5338938,-3.69292,1.526,-2.80784,0.778745565,-0.61376796,0.143859495
1764505880.5338938,-3.69292,1.526,-2.80784,0.778745565,-0.61376796,0.143859495
1764505880.5338938,-3.69292,1.526,-2.80784,0.778745565,-0.61376796,0.143859495
1764505880.5338938,-3.69292,1.526,-2.80784,0.778745565,-0.61376796,0.143859495
1764505880.5348923,-3.32668,0.82404,-1.23606,0.778867635,-0.613340715,0.143859495
1764505880.5348923,-3.32668,0.82404,-1.23606,0.778867635,-0.613340715,0.143859495
1764505880.5348923,-3.32668,0.82404,-1.23606,0.778867635,-0.613340715,0.143859495
1764505880.5348923,-3.32668,0.82404,-1.23606,0.778867635,-0.613340715,0.143859495
1764505880.5348923,-3.32668,0.82404,-1.23606,0.778867635,-0.613340715,0.143859495
1764505880.5348923,-3.32668,0.82404,-1.23606,0.778867635,-0.613340715,0.143859495
1764505880.5348923,-3.32668,0.82404,-1.23606,0.778867635,-0.613340715,0.143859495
1764505880.5348923,-3.32668,0.82404,-1.23606,0.778867635,-0.613340715,0.143859495
1764505880.5348923,-3.32668,0.82404,-1.23606,0.778867635,-0.613340715,0.143859495
1764505880.5348923,-3.32668,0.82404,-1.23606,0.778867635,-0.613340715,0.143859495
1764505880.5348923,-3.69292,0.74774,-1.02242,0.779233845,-0.61340175,0.142760865
1764505880.5348923,-3.69292,0.74774,-1.02242,0.779233845,-0.61340175,0.142760865
1764505880.5348923,-3.69292,0.74774,-1.02242,0.779233845,-0.61340175,0.142760865
1764505880.5348923,-3.69292,0.74774,-1.02242,0.779233845,-0.61340175,0.142760865
1764505880.5819983,-3.69292,0.74774,-1.02242,0.779233845,-0.61340175,0.142760865
1764505880.5819983,-3.69292,0.74774,-1.02242,0.779233845,-0.61340175,0.142760865
1764505880.5819983,-3.69292,0.74774,-1.02242,0.779233845,-0.61340175,0.142760865
1764505880.5819983,-3.69292,0.74774,-1.02242,0.779233845,-0.61340175,0.142760865
1764505880.5819983,-3.69292,0.74774,-1.02242,0.779233845,-0.61340175,0.142760865
1764505880.5819983,-3.69292,0.74774,-1.02242,0.779233845,-0.61340175,0.142760865
1764505880.5819983,-4.303319999999999,0.71722,-1.48022,0.77844039,-0.61376796,0.141296025
1764505880.5819983,-4.303319999999999,0.71722,-1.48022,0.77844039,-0.61376796,0.141296025
1764505880.5819983,-4.303319999999999,0.71722,-1.48022,0.77844039,-0.61376796,0.141296025
1764505880.5819983,-4.303319999999999,0.71722,-1.48022,0.77844039,-0.61376796,0.141296025
1764505880.5819983,-4.303319999999999,0.71722,-1.48022,0.77844039,-0.61376796,0.141296025
1764505880.5819983,-4.303319999999999,0.71722,-1.48022,0.77844039,-0.61376796,0.141296025
1764505880.5819983,-4.303319999999999,0.71722,-1.48022,0.77844039,-0.61376796,0.141296025
1764505880.5819983,-4.303319999999999,0.71722,-1.48022,0.77844039,-0.61376796,0.141296025
1764505880.5819983,-4.303319999999999,0.71722,-1.48022,0.77844039,-0.61376796,0.141296025
1764505880.5819983,-4.303319999999999,0.71722,-1.48022,0.77844039,-0.61376796,0.141296025
1764505880.5819983,-3.87604,1.49548,-1.1445,0.77868453,-0.61340175,0.14013636
1764505880.5819983,-3.87604,1.49548,-1.1445,0.77868453,-0.61340175,0.14013636
1764505880.5819983,-3.87604,1.49548,-1.1445,0.77868453,-0.61340175,0.14013636
1764505880.5819983,-3.87604,1.49548,-1.1445,0.77868453,-0.61340175,0.14013636
1764505880.5819983,-3.87604,1.49548,-1.1445,0.77868453,-0.61340175,0.14013636
1764505880.5819983,-3.87604,1.49548,-1.1445,0.77868453,-0.61340175,0.14013636
1764505880.5819983,-3.87604,1.49548,-1.1445,0.77868453,-0.61340175,0.14013636
1764505880.5819983,-3.87604,1.49548,-1.1445,0.77868453,-0.61340175,0.14013636
1764505880.628433,-3.87604,1.49548,-1.1445,0.77868453,-0.61340175,0.14013636
1764505880.628433,-3.87604,1.49548,-1.1445,0.77868453,-0.61340175,0.14013636
1764505880.628433,-4.10494,1.3734,-1.34288,0.77917281,-0.61462245,0.13977015
1764505880.628433,-4.10494,1.3734,-1.34288,0.77917281,-0.61462245,0.13977015
1764505880.628433,-4.10494,1.3734,-1.34288,0.77917281,-0.61462245,0.13977015
1764505880.628433,-4.10494,1.3734,-1.34288,0.77917281,-0.61462245,0.13977015
1764505880.628433,-4.10494,1.3734,-1.34288,0.77917281,-0.61462245,0.13977015
1764505880.628433,-4.10494,1.3734,-1.34288,0.77917281,-0.61462245,0.13977015
1764505880.628433,-4.10494,1.3734,-1.34288,0.77917281,-0.61462245,0.13977015
1764505880.628433,-4.10494,1.3734,-1.34288,0.77917281,-0.61462245,0.13977015
1764505880.628433,-4.10494,1.3734,-1.34288,0.77917281,-0.61462245,0.13977015
1764505880.628433,-4.10494,1.3734,-1.34288,0.77917281,-0.61462245,0.13977015
1764505880.628433,-3.99812,1.81594,-1.70912,0.780088335,-0.61340175,0.138976695
1764505880.628433,-3.99812,1.81594,-1.70912,0.780088335,-0.61340175,0.138976695
1764505880.628433,-3.99812,1.81594,-1.70912,0.780088335,-0.61340175,0.138976695
1764505880.628433,-3.99812,1.81594,-1.70912,0.780088335,-0.61340175,0.138976695
1764505880.628433,-3.99812,1.81594,-1.70912,0.780088335,-0.61340175,0.138976695
1764505880.628433,-3.99812,1.81594,-1.70912,0.780088335,-0.61340175,0.138976695
1764505880.628433,-3.99812,1.81594,-1.70912,0.780088335,-0.61340175,0.138976695
1764505880.628433,-3.99812,1.81594,-1.70912,0.780088335,-0.61340175,0.138976695
1764505880.628433,-3.99812,1.81594,-1.70912,0.780088335,-0.61340175,0.138976695
1764505880.628433,-3.99812,1.81594,-1.70912,0.780088335,-0.61340175,0.138976695
1764505880.673419,-3.90656,2.12114,-1.55652,0.78051558,-0.61327968,0.13854945
1764505880.673419,-3.90656,2.12114,-1.55652,0.78051558,-0.61327968,0.13854945
1764505880.673419,-3.90656,2.12114,-1.55652,0.78051558,-0.61327968,0.13854945
1764505880.674416,-3.90656,2.12114,-1.55652,0.78051558,-0.61327968,0.13854945
1764505880.674416,-3.90656,2.12114,-1.55652,0.78051558,-0.61327968,0.13854945
1764505880.674416,-3.90656,2.12114,-1.55652,0.78051558,-0.61327968,0.13854945
1764505880.674416,-3.90656,2.12114,-1.55652,0.78051558,-0.61327968,0.13854945
1764505880.674416,-3.90656,2.12114,-1.55652,0.78051558,-0.61327968,0.13854945
1764505880.674416,-3.90656,2.12114,-1.55652,0.78051558,-0.61327968,0.13854945
1764505880.674416,-3.90656,2.12114,-1.55652,0.78051558,-0.61327968,0.13854945
1764505880.675414,-3.67766,3.29616,-1.34288,0.7806986850000001,-0.61303554,0.1367184
1764505880.675414,-3.67766,3.29616,-1.34288,0.7806986850000001,-0.61303554,0.1367184
1764505880.675414,-3.67766,3.29616,-1.34288,0.7806986850000001,-0.61303554,0.1367184
1764505880.675414,-3.67766,3.29616,-1.34288,0.7806986850000001,-0.61303554,0.1367184
1764505880.675414,-3.67766,3.29616,-1.34288,0.7806986850000001,-0.61303554,0.1367184
1764505880.675414,-3.67766,3.29616,-1.34288,0.7806986850000001,-0.61303554,0.1367184
1764505880.675414,-3.67766,3.29616,-1.34288,0.7806986850000001,-0.61303554,0.1367184
1764505880.675414,-3.67766,3.29616,-1.34288,0.7806986850000001,-0.61303554,0.1367184
1764505880.675414,-3.67766,3.29616,-1.34288,0.7806986850000001,-0.61303554,0.1367184
1764505880.675414,-3.67766,3.29616,-1.34288,0.7806986850000001,-0.61303554,0.1367184
1764505880.675414,-2.54842,4.5017,-0.97664,0.78063765,-0.612730365,0.13598598
1764505880.675414,-2.54842,4.5017,-0.97664,0.78063765,-0.612730365,0.13598598
1764505880.675414,-2.54842,4.5017,-0.97664,0.78063765,-0.612730365,0.13598598
1764505880.675414,-2.54842,4.5017,-0.97664,0.78063765,-0.612730365,0.13598598
1764505880.721957,-2.54842,4.5017,-0.97664,0.78063765,-0.612730365,0.13598598
1764505880.721957,-2.54842,4.5017,-0.97664,0.78063765,-0.612730365,0.13598598
1764505880.721957,-2.54842,4.5017,-0.97664,0.78063765,-0.612730365,0.13598598
1764505880.721957,-2.54842,4.5017,-0.97664,0.78063765,-0.612730365,0.13598598
1764505880.7229495,-2.54842,4.5017,-0.97664,0.78063765,-0.612730365,0.13598598
1764505880.7229495,-2.54842,4.5017,-0.97664,0.78063765,-0.612730365,0.13598598
1764505880.7229495,-0.3509799999999999,6.04296,-0.4578,0.78100386,-0.611509665,0.13537563
1764505880.7229495,-0.3509799999999999,6.04296,-0.4578,0.78100386,-0.611509665,0.13537563
1764505880.7229495,-0.3509799999999999,6.04296,-0.4578,0.78100386,-0.611509665,0.13537563
1764505880.7229495,-0.3509799999999999,6.04296,-0.4578,0.78100386,-0.611509665,0.13537563
1764505880.7229495,-0.3509799999999999,6.04296,-0.4578,0.78100386,-0.611509665,0.13537563
1764505880.7229495,-0.3509799999999999,6.04296,-0.4578,0.78100386,-0.611509665,0.13537563
1764505880.7229495,-0.3509799999999999,6.04296,-0.4578,0.78100386,-0.611509665,0.13537563
1764505880.7229495,-0.3509799999999999,6.04296,-0.4578,0.78100386,-0.611509665,0.13537563
1764505880.7229495,-0.3509799999999999,6.04296,-0.4578,0.78100386,-0.611509665,0.13537563
1764505880.7229495,-0.3509799999999999,6.04296,-0.4578,0.78100386,-0.611509665,0.13537563
1764505880.7229495,1.526,7.49266,-0.0762999999999999,0.78112593,-0.611265525,0.13561977
1764505880.7229495,1.526,7.49266,-0.0762999999999999,0.78112593,-0.611265525,0.13561977
1764505880.7229495,1.526,7.49266,-0.0762999999999999,0.78112593,-0.611265525,0.13561977
1764505880.7229495,1.526,7.49266,-0.0762999999999999,0.78112593,-0.611265525,0.13561977
1764505880.7229495,1.526,7.49266,-0.0762999999999999,0.78112593,-0.611265525,0.13561977
1764505880.7229495,1.526,7.49266,-0.0762999999999999,0.78112593,-0.611265525,0.13561977
1764505880.7229495,1.526,7.49266,-0.0762999999999999,0.78112593,-0.611265525,0.13561977
1764505880.7229495,1.526,7.49266,-0.0762999999999999,0.78112593,-0.611265525,0.13561977
1764505880.7662182,1.526,7.49266,-0.0762999999999999,0.78112593,-0.611265525,0.13561977
1764505880.766751,1.526,7.49266,-0.0762999999999999,0.78112593,-0.611265525,0.13561977
1764505880.766751,2.85362,8.22514,0.88508,0.781309035,-0.61096035,0.13610805
1764505880.766751,2.85362,8.22514,0.88508,0.781309035,-0.61096035,0.13610805
1764505880.766751,2.85362,8.22514,0.88508,0.781309035,-0.61096035,0.13610805
1764505880.766751,2.85362,8.22514,0.88508,0.781309035,-0.61096035,0.13610805
1764505880.766751,2.85362,8.22514,0.88508,0.781309035,-0.61096035,0.13610805
1764505880.766751,2.85362,8.22514,0.88508,0.781309035,-0.61096035,0.13610805
1764505880.766751,2.85362,8.22514,0.88508,0.781309035,-0.61096035,0.13610805
1764505880.766751,2.85362,8.22514,0.88508,0.781309035,-0.61096035,0.13610805
1764505880.766751,2.85362,8.22514,0.88508,0.781309035,-0.61096035,0.13610805
1764505880.766751,2.85362,8.22514,0.88508,0.781309035,-0.61096035,0.13610805
1764505880.766751,3.70818,7.996239999999999,0.88508,0.78161421,-0.610899315,0.138000135
1764505880.766751,3.70818,7.996239999999999,0.88508,0.78161421,-0.610899315,0.138000135
1764505880.766751,3.70818,7.996239999999999,0.88508,0.78161421,-0.610899315,0.138000135
1764505880.766751,3.70818,7.996239999999999,0.88508,0.78161421,-0.610899315,0.138000135
1764505880.766751,3.70818,7.996239999999999,0.88508,0.78161421,-0.610899315,0.138000135
1764505880.766751,3.70818,7.996239999999999,0.88508,0.78161421,-0.610899315,0.138000135
1764505880.766751,3.70818,7.996239999999999,0.88508,0.78161421,-0.610899315,0.138000135
1764505880.766751,3.70818,7.996239999999999,0.88508,0.78161421,-0.610899315,0.138000135
1764505880.766751,3.70818,7.996239999999999,0.88508,0.78161421,-0.610899315,0.138000135
1764505880.766751,3.70818,7.996239999999999,0.88508,0.78161421,-0.610899315,0.138000135
1764505880.766751,3.79974,7.81312,1.73964,0.781431105,-0.61022793,0.139098765
1764505880.766751,3.79974,7.81312,1.73964,0.781431105,-0.61022793,0.139098765
1764505880.81538,3.79974,7.81312,1.73964,0.781431105,-0.61022793,0.139098765
1764505880.81538,3.79974,7.81312,1.73964,0.781431105,-0.61022793,0.139098765
1764505880.81538,3.79974,7.81312,1.73964,0.781431105,-0.61022793,0.139098765
1764505880.81538,3.79974,7.81312,1.73964,0.781431105,-0.61022793,0.139098765
1764505880.81538,3.79974,7.81312,1.73964,0.781431105,-0.61022793,0.139098765
1764505880.81538,3.79974,7.81312,1.73964,0.781431105,-0.61022793,0.139098765
1764505880.81538,3.79974,7.81312,1.73964,0.781431105,-0.61022793,0.139098765
1764505880.81538,3.79974,7.81312,1.73964,0.781431105,-0.61022793,0.139098765
1764505880.81538,4.48644,8.83554,2.41108,0.781675245,-0.610166895,0.139464975
1764505880.81538,4.48644,8.83554,2.41108,0.781675245,-0.610166895,0.139464975
1764505880.81538,4.48644,8.83554,2.41108,0.781675245,-0.610166895,0.139464975
1764505880.81538,4.48644,8.83554,2.41108,0.781675245,-0.610166895,0.139464975
1764505880.81538,4.48644,8.83554,2.41108,0.781675245,-0.610166895,0.139464975
1764505880.81538,4.48644,8.83554,2.41108,0.781675245,-0.610166895,0.139464975
1764505880.81538,4.48644,8.83554,2.41108,0.781675245,-0.610166895,0.139464975
1764505880.81538,4.48644,8.83554,2.41108,0.781675245,-0.610166895,0.139464975
1764505880.81538,4.48644,8.83554,2.41108,0.781675245,-0.610166895,0.139464975
1764505880.81538,4.48644,8.83554,2.41108,0.781675245,-0.610166895,0.139464975
1764505880.81538,5.508859999999999,9.43068,1.6022999999999998,0.781675245,-0.610411035,0.140075325
1764505880.81538,5.508859999999999,9.43068,1.6022999999999998,0.781675245,-0.610411035,0.140075325
1764505880.81538,5.508859999999999,9.43068,1.6022999999999998,0.781675245,-0.610411035,0.140075325
1764505880.81538,5.508859999999999,9.43068,1.6022999999999998,0.781675245,-0.610411035,0.140075325
1764505880.86253,5.508859999999999,9.43068,1.6022999999999998,0.781675245,-0.610411035,0.140075325
1764505880.86253,5.508859999999999,9.43068,1.6022999999999998,0.781675245,-0.610411035,0.140075325
1764505880.86253,5.508859999999999,9.43068,1.6022999999999998,0.781675245,-0.610411035,0.140075325
1764505880.86253,5.508859999999999,9.43068,1.6022999999999998,0.781675245,-0.610411035,0.140075325
1764505880.86253,5.508859999999999,9.43068,1.6022999999999998,0.781675245,-0.610411035,0.140075325
1764505880.86253,5.508859999999999,9.43068,1.6022999999999998,0.781675245,-0.610411035,0.140075325
1764505880.86253,5.63094,8.2404,2.63998,0.781553175,-0.611265525,0.14208948
1764505880.86253,5.63094,8.2404,2.63998,0.781553175,-0.611265525,0.14208948
1764505880.86253,5.63094,8.2404,2.63998,0.781553175,-0.611265525,0.14208948
1764505880.86253,5.63094,8.2404,2.63998,0.781553175,-0.611265525,0.14208948
1764505880.86253,5.63094,8.2404,2.63998,0.781553175,-0.611265525,0.14208948
1764505880.86253,5.63094,8.2404,2.63998,0.781553175,-0.611265525,0.14208948
1764505880.86253,5.63094,8.2404,2.63998,0.781553175,-0.611265525,0.14208948
1764505880.8635404,5.63094,8.2404,2.63998,0.781553175,-0.611265525,0.14208948
1764505880.8635404,5.63094,8.2404,2.63998,0.781553175,-0.611265525,0.14208948
1764505880.8635404,5.63094,8.2404,2.63998,0.781553175,-0.611265525,0.14208948
1764505880.8635404,4.70008,6.546539999999999,2.48738,0.780942825,-0.612608295,0.145202265
1764505880.8635404,4.70008,6.546539999999999,2.48738,0.780942825,-0.612608295,0.145202265
1764505880.8635404,4.70008,6.546539999999999,2.48738,0.780942825,-0.612608295,0.145202265
1764505880.8635404,4.70008,6.546539999999999,2.48738,0.780942825,-0.612608295,0.145202265
1764505880.8635404,4.70008,6.546539999999999,2.48738,0.780942825,-0.612608295,0.145202265
1764505880.8635404,4.70008,6.546539999999999,2.48738,0.780942825,-0.612608295,0.145202265
1764505880.8635404,4.70008,6.546539999999999,2.48738,0.780942825,-0.612608295,0.145202265
1764505880.8635404,4.70008,6.546539999999999,2.48738,0.780942825,-0.612608295,0.145202265
1764505880.9084067,4.70008,6.546539999999999,2.48738,0.780942825,-0.612608295,0.145202265
1764505880.9084067,4.70008,6.546539999999999,2.48738,0.780942825,-0.612608295,0.145202265
1764505880.9084067,3.47928,5.69198,1.96854,0.780576615,-0.613462785,0.14672814
1764505880.9084067,3.47928,5.69198,1.96854,0.780576615,-0.613462785,0.14672814
1764505880.9084067,3.47928,5.69198,1.96854,0.780576615,-0.613462785,0.14672814
1764505880.9084067,3.47928,5.69198,1.96854,0.780576615,-0.613462785,0.14672814
1764505880.9084067,3.47928,5.69198,1.96854,0.780576615,-0.613462785,0.14672814
1764505880.9084067,3.47928,5.69198,1.96854,0.780576615,-0.613462785,0.14672814
1764505880.9084067,3.47928,5.69198,1.96854,0.780576615,-0.613462785,0.14672814
1764505880.9084067,3.47928,5.69198,1.96854,0.780576615,-0.613462785,0.14672814
1764505880.9084067,3.47928,5.69198,1.96854,0.780576615,-0.613462785,0.14672814
1764505880.9084067,3.47928,5.69198,1.96854,0.780576615,-0.613462785,0.14672814
1764505880.9084067,2.60946,5.70724,1.93802,0.77978316,-0.613218645,0.147399525
1764505880.9084067,2.60946,5.70724,1.93802,0.77978316,-0.613218645,0.147399525
1764505880.9084067,2.60946,5.70724,1.93802,0.77978316,-0.613218645,0.147399525
1764505880.9084067,2.60946,5.70724,1.93802,0.77978316,-0.613218645,0.147399525
1764505880.9084067,2.60946,5.70724,1.93802,0.77978316,-0.613218645,0.147399525
1764505880.9084067,2.60946,5.70724,1.93802,0.77978316,-0.613218645,0.147399525
1764505880.9099338,2.60946,5.70724,1.93802,0.77978316,-0.613218645,0.147399525
1764505880.9099338,2.60946,5.70724,1.93802,0.77978316,-0.613218645,0.147399525
1764505880.9099338,2.60946,5.70724,1.93802,0.77978316,-0.613218645,0.147399525
1764505880.9099338,2.60946,5.70724,1.93802,0.77978316,-0.613218645,0.147399525
1764505880.9533136,2.42634,5.02054,2.77732,0.77917281,-0.612120015,0.148376085
1764505880.9533136,2.42634,5.02054,2.77732,0.77917281,-0.612120015,0.148376085
1764505880.954338,2.42634,5.02054,2.77732,0.77917281,-0.612120015,0.148376085
1764505880.954338,2.42634,5.02054,2.77732,0.77917281,-0.612120015,0.148376085
1764505880.954338,2.42634,5.02054,2.77732,0.77917281,-0.612120015,0.148376085
1764505880.954338,2.42634,5.02054,2.77732,0.77917281,-0.612120015,0.148376085
1764505880.954338,2.42634,5.02054,2.77732,0.77917281,-0.612120015,0.148376085
1764505880.954338,2.42634,5.02054,2.77732,0.77917281,-0.612120015,0.148376085
1764505880.954338,2.42634,5.02054,2.77732,0.77917281,-0.612120015,0.148376085
1764505880.954338,2.42634,5.02054,2.77732,0.77917281,-0.612120015,0.148376085
1764505880.954338,2.7468,5.53938,3.3572,0.77831832,-0.61144863,0.14843712
1764505880.954338,2.7468,5.53938,3.3572,0.77831832,-0.61144863,0.14843712
1764505880.954338,2.7468,5.53938,3.3572,0.77831832,-0.61144863,0.14843712
1764505880.954338,2.7468,5.53938,3.3572,0.77831832,-0.61144863,0.14843712
1764505880.954338,2.7468,5.53938,3.3572,0.77831832,-0.61144863,0.14843712
1764505880.954338,2.7468,5.53938,3.3572,0.77831832,-0.61144863,0.14843712
1764505880.954338,2.7468,5.53938,3.3572,0.77831832,-0.61144863,0.14843712
1764505880.955846,2.7468,5.53938,3.3572,0.77831832,-0.61144863,0.14843712
1764505880.955846,2.7468,5.53938,3.3572,0.77831832,-0.61144863,0.14843712
1764505880.955846,2.7468,5.53938,3.3572,0.77831832,-0.61144863,0.14843712
1764505880.955846,2.70102,5.40204,3.92182,0.777646935,-0.61230312,0.148986435
1764505880.956867,2.70102,5.40204,3.92182,0.777646935,-0.61230312,0.148986435
1764505880.956867,2.70102,5.40204,3.92182,0.777646935,-0.61230312,0.148986435
1764505880.956867,2.70102,5.40204,3.92182,0.777646935,-0.61230312,0.148986435
1764505881.0013485,2.70102,5.40204,3.92182,0.777646935,-0.61230312,0.148986435
1764505881.0013485,2.70102,5.40204,3.92182,0.777646935,-0.61230312,0.148986435
1764505881.0013485,2.70102,5.40204,3.92182,0.777646935,-0.61230312,0.148986435
1764505881.0013485,2.70102,5.40204,3.92182,0.777646935,-0.61230312,0.148986435
1764505881.0013485,2.70102,5.40204,3.92182,0.777646935,-0.61230312,0.148986435
1764505881.0013485,2.70102,5.40204,3.92182,0.777646935,-0.61230312,0.148986435
1764505881.0013485,2.68576,5.60042,3.46402,0.778013145,-0.613584855,0.149352645
1764505881.0013485,2.68576,5.60042,3.46402,0.778013145,-0.613584855,0.149352645
1764505881.0013485,2.68576,5.60042,3.46402,0.778013145,-0.613584855,0.149352645
1764505881.0013485,2.68576,5.60042,3.46402,0.778013145,-0.613584855,0.149352645
1764505881.0013485,2.68576,5.60042,3.46402,0.778013145,-0.613584855,0.149352645
1764505881.0013485,2.68576,5.60042,3.46402,0.778013145,-0.613584855,0.149352645
1764505881.0013485,2.68576,5.60042,3.46402,0.778013145,-0.613584855,0.149352645
1764505881.0024483,2.68576,5.60042,3.46402,0.778013145,-0.613584855,0.149352645
1764505881.0024483,2.68576,5.60042,3.46402,0.778013145,-0.613584855,0.149352645
1764505881.0024483,2.68576,5.60042,3.46402,0.778013145,-0.613584855,0.149352645
1764505881.0024483,1.48022,5.1884,3.60136,0.77746383,-0.613462785,0.150573345
1764505881.0024483,1.48022,5.1884,3.60136,0.77746383,-0.613462785,0.150573345
1764505881.0024483,1.48022,5.1884,3.60136,0.77746383,-0.613462785,0.150573345
1764505881.0024483,1.48022,5.1884,3.60136,0.77746383,-0.613462785,0.150573345
1764505881.003443,1.48022,5.1884,3.60136,0.77746383,-0.613462785,0.150573345
1764505881.003443,1.48022,5.1884,3.60136,0.77746383,-0.613462785,0.150573345
1764505881.003443,1.48022,5.1884,3.60136,0.77746383,-0.613462785,0.150573345
1764505881.003443,1.48022,5.1884,3.60136,0.77746383,-0.613462785,0.150573345
1764505881.0479245,1.48022,5.1884,3.60136,0.77746383,-0.613462785,0.150573345
1764505881.0479245,1.48022,5.1884,3.60136,0.77746383,-0.613462785,0.150573345
1764505881.0479245,1.57178,4.41014,3.69292,0.7775859,-0.613706925,0.152160255
1764505881.0479245,1.57178,4.41014,3.69292,0.7775859,-0.613706925,0.152160255
1764505881.0492258,1.57178,4.41014,3.69292,0.7775859,-0.613706925,0.152160255
1764505881.0492258,1.57178,4.41014,3.69292,0.7775859,-0.613706925,0.152160255
1764505881.0492258,1.57178,4.41014,3.69292,0.7775859,-0.613706925,0.152160255
1764505881.0492258,1.57178,4.41014,3.69292,0.7775859,-0.613706925,0.152160255
1764505881.0492258,1.57178,4.41014,3.69292,0.7775859,-0.613706925,0.152160255
1764505881.0497532,1.57178,4.41014,3.69292,0.7775859,-0.613706925,0.152160255
1764505881.0497532,1.57178,4.41014,3.69292,0.7775859,-0.613706925,0.152160255
1764505881.0507634,1.57178,4.41014,3.69292,0.7775859,-0.613706925,0.152160255
1764505881.0507634,1.84646,3.79974,4.1965,0.777280725,-0.613218645,0.151427835
1764505881.0512152,1.84646,3.79974,4.1965,0.777280725,-0.613218645,0.151427835
1764505881.0512152,1.84646,3.79974,4.1965,0.777280725,-0.613218645,0.151427835
1764505881.051766,1.84646,3.79974,4.1965,0.777280725,-0.613218645,0.151427835
1764505881.051766,1.84646,3.79974,4.1965,0.777280725,-0.613218645,0.151427835
1764505881.051766,1.84646,3.79974,4.1965,0.777280725,-0.613218645,0.151427835
1764505881.051766,1.84646,3.79974,4.1965,0.777280725,-0.613218645,0.151427835
1764505881.051766,1.84646,3.79974,4.1965,0.777280725,-0.613218645,0.151427835
1764505881.051766,1.84646,3.79974,4.1965,0.777280725,-0.613218645,0.151427835
1764505881.051766,1.84646,3.79974,4.1965,0.777280725,-0.613218645,0.151427835
1764505881.0928464,1.92276,3.47928,3.7387,0.776914515,-0.61315761,0.151916115
1764505881.0928464,1.92276,3.47928,3.7387,0.776914515,-0.61315761,0.151916115
1764505881.0928464,1.92276,3.47928,3.7387,0.776914515,-0.61315761,0.151916115
1764505881.0928464,1.92276,3.47928,3.7387,0.776914515,-0.61315761,0.151916115
1764505881.0928464,1.92276,3.47928,3.7387,0.776914515,-0.61315761,0.151916115
1764505881.0928464,1.92276,3.47928,3.7387,0.776914515,-0.61315761,0.151916115
1764505881.0928464,1.92276,3.47928,3.7387,0.776914515,-0.61315761,0.151916115
1764505881.0928464,1.92276,3.47928,3.7387,0.776914515,-0.61315761,0.151916115
1764505881.0938687,1.92276,3.47928,3.7387,0.776914515,-0.61315761,0.151916115
1764505881.0938687,1.92276,3.47928,3.7387,0.776914515,-0.61315761,0.151916115
1764505881.0938687,0.94612,3.06726,2.79258,0.776792445,-0.61425624,0.151305765
1764505881.0938687,0.94612,3.06726,2.79258,0.776792445,-0.61425624,0.151305765
1764505881.095381,0.94612,3.06726,2.79258,0.776792445,-0.61425624,0.151305765
1764505881.095381,0.94612,3.06726,2.79258,0.776792445,-0.61425624,0.151305765
1764505881.095381,0.94612,3.06726,2.79258,0.776792445,-0.61425624,0.151305765
1764505881.095381,0.94612,3.06726,2.79258,0.776792445,-0.61425624,0.151305765
1764505881.095381,0.94612,3.06726,2.79258,0.776792445,-0.61425624,0.151305765
1764505881.095381,0.94612,3.06726,2.79258,0.776792445,-0.61425624,0.151305765
1764505881.095381,0.94612,3.06726,2.79258,0.776792445,-0.61425624,0.151305765
1764505881.095381,0.94612,3.06726,2.79258,0.776792445,-0.61425624,0.151305765
1764505881.095381,0.56462,3.44876,2.15166,0.776426235,-0.615171765,0.15087852
1764505881.095381,0.56462,3.44876,2.15166,0.776426235,-0.615171765,0.15087852
1764505881.095381,0.56462,3.44876,2.15166,0.776426235,-0.615171765,0.15087852
1764505881.095381,0.56462,3.44876,2.15166,0.776426235,-0.615171765,0.15087852
1764505881.1389902,0.56462,3.44876,2.15166,0.776426235,-0.615171765,0.15087852
1764505881.1389902,0.56462,3.44876,2.15166,0.776426235,-0.615171765,0.15087852
1764505881.1395235,0.56462,3.44876,2.15166,0.776426235,-0.615171765,0.15087852
1764505881.1395235,0.56462,3.44876,2.15166,0.776426235,-0.615171765,0.15087852
1764505881.1395235,0.56462,3.44876,2.15166,0.776426235,-0.615171765,0.15087852
1764505881.1395235,0.56462,3.44876,2.15166,0.776426235,-0.615171765,0.15087852
1764505881.1395235,1.4497,4.92898,1.38866,0.777402795,-0.615293835,0.150573345
1764505881.1395235,1.4497,4.92898,1.38866,0.777402795,-0.615293835,0.150573345
1764505881.1395235,1.4497,4.92898,1.38866,0.777402795,-0.615293835,0.150573345
1764505881.1395235,1.4497,4.92898,1.38866,0.777402795,-0.615293835,0.150573345
1764505881.1395235,1.4497,4.92898,1.38866,0.777402795,-0.615293835,0.150573345
1764505881.1395235,1.4497,4.92898,1.38866,0.777402795,-0.615293835,0.150573345
1764505881.1395235,1.4497,4.92898,1.38866,0.777402795,-0.615293835,0.150573345
1764505881.1395235,1.4497,4.92898,1.38866,0.777402795,-0.615293835,0.150573345
1764505881.1395235,1.4497,4.92898,1.38866,0.777402795,-0.615293835,0.150573345
1764505881.1395235,1.4497,4.92898,1.38866,0.777402795,-0.615293835,0.150573345
1764505881.1395235,2.24322,6.134519999999999,1.25132,0.776792445,-0.614927625,0.14977989
1764505881.1395235,2.24322,6.134519999999999,1.25132,0.776792445,-0.614927625,0.14977989
1764505881.1395235,2.24322,6.134519999999999,1.25132,0.776792445,-0.614927625,0.14977989
1764505881.1395235,2.24322,6.134519999999999,1.25132,0.776792445,-0.614927625,0.14977989
1764505881.1395235,2.24322,6.134519999999999,1.25132,0.776792445,-0.614927625,0.14977989
1764505881.140046,2.24322,6.134519999999999,1.25132,0.776792445,-0.614927625,0.14977989
1764505881.1872714,2.24322,6.134519999999999,1.25132,0.776792445,-0.614927625,0.14977989
1764505881.1872714,2.24322,6.134519999999999,1.25132,0.776792445,-0.614927625,0.14977989
1764505881.1872714,2.24322,6.134519999999999,1.25132,0.776792445,-0.614927625,0.14977989
1764505881.1872714,2.24322,6.134519999999999,1.25132,0.776792445,-0.614927625,0.14977989
1764505881.1872714,3.32668,6.42446,1.32762,0.77660934,-0.615415905,0.150085065
1764505881.1872714,3.32668,6.42446,1.32762,0.77660934,-0.615415905,0.150085065
1764505881.1872714,3.32668,6.42446,1.32762,0.77660934,-0.615415905,0.150085065
1764505881.1872714,3.32668,6.42446,1.32762,0.77660934,-0.615415905,0.150085065
1764505881.1872714,3.32668,6.42446,1.32762,0.77660934,-0.615415905,0.150085065
1764505881.1872714,3.32668,6.42446,1.32762,0.77660934,-0.615415905,0.150085065
1764505881.1872714,3.32668,6.42446,1.32762,0.77660934,-0.615415905,0.150085065
1764505881.1872714,3.32668,6.42446,1.32762,0.77660934,-0.615415905,0.150085065
1764505881.1872714,3.32668,6.42446,1.32762,0.77660934,-0.615415905,0.150085065
1764505881.1872714,3.32668,6.42446,1.32762,0.77660934,-0.615415905,0.150085065
1764505881.1872714,2.79258,6.302379999999999,1.6633399999999998,0.775327605,-0.6155990100000001,0.1525875
1764505881.1872714,2.79258,6.302379999999999,1.6633399999999998,0.775327605,-0.6155990100000001,0.1525875
1764505881.1882873,2.79258,6.302379999999999,1.6633399999999998,0.775327605,-0.6155990100000001,0.1525875
1764505881.1882873,2.79258,6.302379999999999,1.6633399999999998,0.775327605,-0.6155990100000001,0.1525875
1764505881.1882873,2.79258,6.302379999999999,1.6633399999999998,0.775327605,-0.6155990100000001,0.1525875
1764505881.1882873,2.79258,6.302379999999999,1.6633399999999998,0.775327605,-0.6155990100000001,0.1525875
1764505881.1882873,2.79258,6.302379999999999,1.6633399999999998,0.775327605,-0.6155990100000001,0.1525875
1764505881.1882873,2.79258,6.302379999999999,1.6633399999999998,0.775327605,-0.6155990100000001,0.1525875
1764505881.1882873,2.79258,6.302379999999999,1.6633399999999998,0.775327605,-0.6155990100000001,0.1525875
1764505881.1882873,2.79258,6.302379999999999,1.6633399999999998,0.775327605,-0.6155990100000001,0.1525875
1764505881.2314758,2.35004,5.371519999999999,2.79258,0.77575485,-0.614439345,0.15344199
1764505881.2314758,2.35004,5.371519999999999,2.79258,0.77575485,-0.614439345,0.15344199
1764505881.2314758,2.35004,5.371519999999999,2.79258,0.77575485,-0.614439345,0.15344199
1764505881.2314758,2.35004,5.371519999999999,2.79258,0.77575485,-0.614439345,0.15344199
1764505881.2314758,2.35004,5.371519999999999,2.79258,0.77575485,-0.614439345,0.15344199
1764505881.2314758,2.35004,5.371519999999999,2.79258,0.77575485,-0.614439345,0.15344199
1764505881.2314758,2.35004,5.371519999999999,2.79258,0.77575485,-0.614439345,0.15344199
1764505881.2314758,2.35004,5.371519999999999,2.79258,0.77575485,-0.614439345,0.15344199
1764505881.2314758,2.35004,5.371519999999999,2.79258,0.77575485,-0.614439345,0.15344199
1764505881.2314758,2.35004,5.371519999999999,2.79258,0.77575485,-0.614439345,0.15344199
1764505881.2314758,2.6705,4.56274,2.9757,0.775815885,-0.614439345,0.154357515
1764505881.2314758,2.6705,4.56274,2.9757,0.775815885,-0.614439345,0.154357515
1764505881.2314758,2.6705,4.56274,2.9757,0.775815885,-0.614439345,0.154357515
1764505881.2324958,2.6705,4.56274,2.9757,0.775815885,-0.614439345,0.154357515
1764505881.2324958,2.6705,4.56274,2.9757,0.775815885,-0.614439345,0.154357515
1764505881.2324958,2.6705,4.56274,2.9757,0.775815885,-0.614439345,0.154357515
1764505881.2324958,2.6705,4.56274,2.9757,0.775815885,-0.614439345,0.154357515
1764505881.2324958,2.6705,4.56274,2.9757,0.775815885,-0.614439345,0.154357515
1764505881.2324958,2.6705,4.56274,2.9757,0.775815885,-0.614439345,0.154357515
1764505881.2324958,2.6705,4.56274,2.9757,0.775815885,-0.614439345,0.154357515
1764505881.2324958,2.71628,4.8832,3.49454,0.77502243,-0.61450038,0.155089935
1764505881.2324958,2.71628,4.8832,3.49454,0.77502243,-0.61450038,0.155089935
1764505881.2803602,2.71628,4.8832,3.49454,0.77502243,-0.61450038,0.155089935
1764505881.2803602,2.71628,4.8832,3.49454,0.77502243,-0.61450038,0.155089935
1764505881.2803602,2.71628,4.8832,3.49454,0.77502243,-0.61450038,0.155089935
1764505881.2803602,2.71628,4.8832,3.49454,0.77502243,-0.61450038,0.155089935
1764505881.2803602,2.71628,4.8832,3.49454,0.77502243,-0.61450038,0.155089935
1764505881.2803602,2.71628,4.8832,3.49454,0.77502243,-0.61450038,0.155089935
1764505881.2803602,2.71628,4.8832,3.49454,0.77502243,-0.61450038,0.155089935
1764505881.2803602,2.71628,4.8832,3.49454,0.77502243,-0.61450038,0.155089935
1764505881.2803602,1.7549,4.54748,2.80784,0.774839325,-0.61572108,0.155578215
1764505881.2803602,1.7549,4.54748,2.80784,0.774839325,-0.61572108,0.155578215
1764505881.2803602,1.7549,4.54748,2.80784,0.774839325,-0.61572108,0.155578215
1764505881.2803602,1.7549,4.54748,2.80784,0.774839325,-0.61572108,0.155578215
1764505881.2803602,1.7549,4.54748,2.80784,0.774839325,-0.61572108,0.155578215
1764505881.2803602,1.7549,4.54748,2.80784,0.774839325,-0.61572108,0.155578215
1764505881.2803602,1.7549,4.54748,2.80784,0.774839325,-0.61572108,0.155578215
1764505881.2803602,1.7549,4.54748,2.80784,0.774839325,-0.61572108,0.155578215
1764505881.2812529,1.7549,4.54748,2.80784,0.774839325,-0.61572108,0.155578215
1764505881.2812529,1.7549,4.54748,2.80784,0.774839325,-0.61572108,0.155578215
1764505881.2812529,0.5341,5.21892,2.15166,0.77465622,-0.6164535,0.155456145
1764505881.2812529,0.5341,5.21892,2.15166,0.77465622,-0.6164535,0.155456145
1764505881.2812529,0.5341,5.21892,2.15166,0.77465622,-0.6164535,0.155456145
1764505881.2812529,0.5341,5.21892,2.15166,0.77465622,-0.6164535,0.155456145
1764505881.2812529,0.5341,5.21892,2.15166,0.77465622,-0.6164535,0.155456145
1764505881.2812529,0.5341,5.21892,2.15166,0.77465622,-0.6164535,0.155456145
1764505881.32591,0.5341,5.21892,2.15166,0.77465622,-0.6164535,0.155456145
1764505881.32591,0.5341,5.21892,2.15166,0.77465622,-0.6164535,0.155456145
1764505881.32591,0.5341,5.21892,2.15166,0.77465622,-0.6164535,0.155456145
1764505881.32591,0.5341,5.21892,2.15166,0.77465622,-0.6164535,0.155456145
1764505881.326922,-0.25942,5.02054,1.32762,0.77429001,-0.617246955,0.15637167
1764505881.326922,-0.25942,5.02054,1.32762,0.77429001,-0.617246955,0.15637167
1764505881.326922,-0.25942,5.02054,1.32762,0.77429001,-0.617246955,0.15637167
1764505881.326922,-0.25942,5.02054,1.32762,0.77429001,-0.617246955,0.15637167
1764505881.326922,-0.25942,5.02054,1.32762,0.77429001,-0.617246955,0.15637167
1764505881.326922,-0.25942,5.02054,1.32762,0.77429001,-0.617246955,0.15637167
1764505881.326922,-0.25942,5.02054,1.32762,0.77429001,-0.617246955,0.15637167
1764505881.326922,-0.25942,5.02054,1.32762,0.77429001,-0.617246955,0.15637167
1764505881.326922,-0.25942,5.02054,1.32762,0.77429001,-0.617246955,0.15637167
1764505881.326922,-0.25942,5.02054,1.32762,0.77429001,-0.617246955,0.15637167
1764505881.326922,-0.18312,5.615679999999999,1.1445,0.77429001,-0.617491095,0.156432705
1764505881.326922,-0.18312,5.615679999999999,1.1445,0.77429001,-0.617491095,0.156432705
1764505881.326922,-0.18312,5.615679999999999,1.1445,0.77429001,-0.617491095,0.156432705
1764505881.326922,-0.18312,5.615679999999999,1.1445,0.77429001,-0.617491095,0.156432705
1764505881.326922,-0.18312,5.615679999999999,1.1445,0.77429001,-0.617491095,0.156432705
1764505881.326922,-0.18312,5.615679999999999,1.1445,0.77429001,-0.617491095,0.156432705
1764505881.326922,-0.18312,5.615679999999999,1.1445,0.77429001,-0.617491095,0.156432705
1764505881.326922,-0.18312,5.615679999999999,1.1445,0.77429001,-0.617491095,0.156432705
1764505881.3711967,-0.18312,5.615679999999999,1.1445,0.77429001,-0.617491095,0.156432705
1764505881.3711967,-0.18312,5.615679999999999,1.1445,0.77429001,-0.617491095,0.156432705
1764505881.3711967,0.3051999999999999,6.104,0.56462,0.77453415,-0.61706385,0.156432705
1764505881.3711967,0.3051999999999999,6.104,0.56462,0.77453415,-0.61706385,0.156432705
1764505881.3711967,0.3051999999999999,6.104,0.56462,0.77453415,-0.61706385,0.156432705
1764505881.3711967,0.3051999999999999,6.104,0.56462,0.77453415,-0.61706385,0.156432705
1764505881.3711967,0.3051999999999999,6.104,0.56462,0.77453415,-0.61706385,0.156432705
1764505881.3711967,0.3051999999999999,6.104,0.56462,0.77453415,-0.61706385,0.156432705
1764505881.3711967,0.3051999999999999,6.104,0.56462,0.77453415,-0.61706385,0.156432705
1764505881.3711967,0.3051999999999999,6.104,0.56462,0.77453415,-0.61706385,0.156432705
1764505881.3711967,0.3051999999999999,6.104,0.56462,0.77453415,-0.61706385,0.156432705
1764505881.3711967,0.3051999999999999,6.104,0.56462,0.77453415,-0.61706385,0.156432705
1764505881.3711967,0.56462,6.165039999999999,0.41202,0.7738627650000001,-0.617124885,0.1574703
1764505881.3711967,0.56462,6.165039999999999,0.41202,0.7738627650000001,-0.617124885,0.1574703
1764505881.3711967,0.56462,6.165039999999999,0.41202,0.7738627650000001,-0.617124885,0.1574703
1764505881.3711967,0.56462,6.165039999999999,0.41202,0.7738627650000001,-0.617124885,0.1574703
1764505881.3711967,0.56462,6.165039999999999,0.41202,0.7738627650000001,-0.617124885,0.1574703
1764505881.3711967,0.56462,6.165039999999999,0.41202,0.7738627650000001,-0.617124885,0.1574703
1764505881.3711967,0.56462,6.165039999999999,0.41202,0.7738627650000001,-0.617124885,0.1574703
1764505881.3711967,0.56462,6.165039999999999,0.41202,0.7738627650000001,-0.617124885,0.1574703
1764505881.3711967,0.56462,6.165039999999999,0.41202,0.7738627650000001,-0.617124885,0.1574703
1764505881.3711967,0.56462,6.165039999999999,0.41202,0.7738627650000001,-0.617124885,0.1574703
1764505881.3722262,0.4578,6.42446,0.3509799999999999,0.77404587,-0.61657557,0.158507895
1764505881.3722262,0.4578,6.42446,0.3509799999999999,0.77404587,-0.61657557,0.158507895
1764505881.419843,0.4578,6.42446,0.3509799999999999,0.77404587,-0.61657557,0.158507895
1764505881.419843,0.4578,6.42446,0.3509799999999999,0.77404587,-0.61657557,0.158507895
1764505881.419843,0.4578,6.42446,0.3509799999999999,0.77404587,-0.61657557,0.158507895
1764505881.419843,0.4578,6.42446,0.3509799999999999,0.77404587,-0.61657557,0.158507895
1764505881.419843,0.4578,6.42446,0.3509799999999999,0.77404587,-0.61657557,0.158507895
1764505881.419843,0.4578,6.42446,0.3509799999999999,0.77404587,-0.61657557,0.158507895
1764505881.419843,0.4578,6.42446,0.3509799999999999,0.77404587,-0.61657557,0.158507895
1764505881.419843,0.4578,6.42446,0.3509799999999999,0.77404587,-0.61657557,0.158507895
1764505881.419843,-0.09156,4.852679999999999,0.24416,0.7733744850000001,-0.616514535,0.159118245
1764505881.419843,-0.09156,4.852679999999999,0.24416,0.7733744850000001,-0.616514535,0.159118245
1764505881.419843,-0.09156,4.852679999999999,0.24416,0.7733744850000001,-0.616514535,0.159118245
1764505881.419843,-0.09156,4.852679999999999,0.24416,0.7733744850000001,-0.616514535,0.159118245
1764505881.419843,-0.09156,4.852679999999999,0.24416,0.7733744850000001,-0.616514535,0.159118245
1764505881.419843,-0.09156,4.852679999999999,0.24416,0.7733744850000001,-0.616514535,0.159118245
1764505881.419843,-0.09156,4.852679999999999,0.24416,0.7733744850000001,-0.616514535,0.159118245
1764505881.419843,-0.09156,4.852679999999999,0.24416,0.7733744850000001,-0.616514535,0.159118245
1764505881.4209044,-0.09156,4.852679999999999,0.24416,0.7733744850000001,-0.616514535,0.159118245
1764505881.4209044,-0.09156,4.852679999999999,0.24416,0.7733744850000001,-0.616514535,0.159118245
1764505881.4209044,-0.4578,2.91466,0.9919,0.7707499800000001,-0.61498866,0.159972735
1764505881.4209044,-0.4578,2.91466,0.9919,0.7707499800000001,-0.61498866,0.159972735
1764505881.4209044,-0.4578,2.91466,0.9919,0.7707499800000001,-0.61498866,0.159972735
1764505881.4209044,-0.4578,2.91466,0.9919,0.7707499800000001,-0.61498866,0.159972735
1764505881.4209044,-0.4578,2.91466,0.9919,0.7707499800000001,-0.61498866,0.159972735
1764505881.4209044,-0.4578,2.91466,0.9919,0.7707499800000001,-0.61498866,0.159972735
1764505881.4659054,-0.4578,2.91466,0.9919,0.7707499800000001,-0.61498866,0.159972735
1764505881.4659054,-0.4578,2.91466,0.9919,0.7707499800000001,-0.61498866,0.159972735
1764505881.4669013,-0.4578,2.91466,0.9919,0.7707499800000001,-0.61498866,0.159972735
1764505881.4669013,-0.4578,2.91466,0.9919,0.7707499800000001,-0.61498866,0.159972735
1764505881.4669013,-2.94518,1.31236,-0.2289,0.767026845,-0.616514535,0.16052205
1764505881.4669013,-2.94518,1.31236,-0.2289,0.767026845,-0.616514535,0.16052205
1764505881.4669013,-2.94518,1.31236,-0.2289,0.767026845,-0.616514535,0.16052205
1764505881.4679008,-2.94518,1.31236,-0.2289,0.767026845,-0.616514535,0.16052205
1764505881.4679008,-2.94518,1.31236,-0.2289,0.767026845,-0.616514535,0.16052205
1764505881.4679008,-2.94518,1.31236,-0.2289,0.767026845,-0.616514535,0.16052205
1764505881.4679008,-2.94518,1.31236,-0.2289,0.767026845,-0.616514535,0.16052205
1764505881.4689004,-2.94518,1.31236,-0.2289,0.767026845,-0.616514535,0.16052205
1764505881.4689004,-2.94518,1.31236,-0.2289,0.767026845,-0.616514535,0.16052205
1764505881.4689004,-2.94518,1.31236,-0.2289,0.767026845,-0.616514535,0.16052205
1764505881.4689004,2.5179,5.60042,1.63282,0.7800273,-0.61572108,0.155456145
1764505881.469901,2.5179,5.60042,1.63282,0.7800273,-0.61572108,0.155456145
1764505881.469901,2.5179,5.60042,1.63282,0.7800273,-0.61572108,0.155456145
1764505881.469901,2.5179,5.60042,1.63282,0.7800273,-0.61572108,0.155456145
1764505881.469901,2.5179,5.60042,1.63282,0.7800273,-0.61572108,0.155456145
1764505881.469901,2.5179,5.60042,1.63282,0.7800273,-0.61572108,0.155456145
1764505881.4705172,2.5179,5.60042,1.63282,0.7800273,-0.61572108,0.155456145
1764505881.4713783,2.5179,5.60042,1.63282,0.7800273,-0.61572108,0.155456145
1764505881.4713783,2.5179,5.60042,1.63282,0.7800273,-0.61572108,0.155456145
1764505881.4713783,2.5179,5.60042,1.63282,0.7800273,-0.61572108,0.155456145
1764505881.5123825,2.2127,5.27996,2.24322,0.777402795,-0.615782115,0.157043055
1764505881.5123825,2.2127,5.27996,2.24322,0.777402795,-0.615782115,0.157043055
1764505881.5123825,2.2127,5.27996,2.24322,0.777402795,-0.615782115,0.157043055
1764505881.5123825,2.2127,5.27996,2.24322,0.777402795,-0.615782115,0.157043055
1764505881.5123825,2.2127,5.27996,2.24322,0.777402795,-0.615782115,0.157043055
1764505881.5123825,2.2127,5.27996,2.24322,0.777402795,-0.615782115,0.157043055
1764505881.5123825,2.2127,5.27996,2.24322,0.777402795,-0.615782115,0.157043055
1764505881.5123825,2.2127,5.27996,2.24322,0.777402795,-0.615782115,0.157043055
1764505881.5123825,2.2127,5.27996,2.24322,0.777402795,-0.615782115,0.157043055
1764505881.5123825,2.2127,5.27996,2.24322,0.777402795,-0.615782115,0.157043055
1764505881.5123825,2.15166,5.46308,2.0601,0.77502243,-0.6164535,0.158507895
1764505881.5123825,2.15166,5.46308,2.0601,0.77502243,-0.6164535,0.158507895
1764505881.5123825,2.15166,5.46308,2.0601,0.77502243,-0.6164535,0.158507895
1764505881.5123825,2.15166,5.46308,2.0601,0.77502243,-0.6164535,0.158507895
1764505881.5123825,2.15166,5.46308,2.0601,0.77502243,-0.6164535,0.158507895
1764505881.5123825,2.15166,5.46308,2.0601,0.77502243,-0.6164535,0.158507895
1764505881.5123825,2.15166,5.46308,2.0601,0.77502243,-0.6164535,0.158507895
1764505881.5123825,2.15166,5.46308,2.0601,0.77502243,-0.6164535,0.158507895
1764505881.5123825,2.15166,5.46308,2.0601,0.77502243,-0.6164535,0.158507895
1764505881.5123825,2.15166,5.46308,2.0601,0.77502243,-0.6164535,0.158507895
1764505881.5123825,1.46496,5.21892,1.73964,0.774351045,-0.6155990100000001,0.1599117
1764505881.5123825,1.46496,5.21892,1.73964,0.774351045,-0.6155990100000001,0.1599117
1764505881.560352,1.46496,5.21892,1.73964,0.774351045,-0.6155990100000001,0.1599117
1764505881.561365,1.46496,5.21892,1.73964,0.774351045,-0.6155990100000001,0.1599117
1764505881.561365,1.46496,5.21892,1.73964,0.774351045,-0.6155990100000001,0.1599117
1764505881.561365,1.46496,5.21892,1.73964,0.774351045,-0.6155990100000001,0.1599117
1764505881.561365,1.46496,5.21892,1.73964,0.774351045,-0.6155990100000001,0.1599117
1764505881.561365,1.46496,5.21892,1.73964,0.774351045,-0.6155990100000001,0.1599117
1764505881.561365,1.46496,5.21892,1.73964,0.774351045,-0.6155990100000001,0.1599117
1764505881.562362,1.46496,5.21892,1.73964,0.774351045,-0.6155990100000001,0.1599117
1764505881.562362,0.62566,4.959499999999999,1.17502,0.77343552,-0.61620936,0.160583085
1764505881.562362,0.62566,4.959499999999999,1.17502,0.77343552,-0.61620936,0.160583085
1764505881.562362,0.62566,4.959499999999999,1.17502,0.77343552,-0.61620936,0.160583085
1764505881.562362,0.62566,4.959499999999999,1.17502,0.77343552,-0.61620936,0.160583085
1764505881.562362,0.62566,4.959499999999999,1.17502,0.77343552,-0.61620936,0.160583085
1764505881.562362,0.62566,4.959499999999999,1.17502,0.77343552,-0.61620936,0.160583085
1764505881.562362,0.62566,4.959499999999999,1.17502,0.77343552,-0.61620936,0.160583085
1764505881.562362,0.62566,4.959499999999999,1.17502,0.77343552,-0.61620936,0.160583085
1764505881.562362,0.62566,4.959499999999999,1.17502,0.77343552,-0.61620936,0.160583085
1764505881.562362,0.62566,4.959499999999999,1.17502,0.77343552,-0.61620936,0.160583085
1764505881.562362,-1.09872,4.577999999999999,0.763,0.772764135,-0.61730799,0.16076619
1764505881.562362,-1.09872,4.577999999999999,0.763,0.772764135,-0.61730799,0.16076619
1764505881.562362,-1.09872,4.577999999999999,0.763,0.772764135,-0.61730799,0.16076619
1764505881.562362,-1.09872,4.577999999999999,0.763,0.772764135,-0.61730799,0.16076619
1764505881.562362,-1.09872,4.577999999999999,0.763,0.772764135,-0.61730799,0.16076619
1764505881.562362,-1.09872,4.577999999999999,0.763,0.772764135,-0.61730799,0.16076619
1764505881.606212,-1.09872,4.577999999999999,0.763,0.772764135,-0.61730799,0.16076619
1764505881.606212,-1.09872,4.577999999999999,0.763,0.772764135,-0.61730799,0.16076619
1764505881.606212,-1.09872,4.577999999999999,0.763,0.772764135,-0.61730799,0.16076619
1764505881.606212,-1.09872,4.577999999999999,0.763,0.772764135,-0.61730799,0.16076619
1764505881.606212,-2.50264,5.43256,-0.18312,0.7722758550000001,-0.617124885,0.16027791
1764505881.606212,-2.50264,5.43256,-0.18312,0.7722758550000001,-0.617124885,0.16027791
1764505881.606212,-2.50264,5.43256,-0.18312,0.7722758550000001,-0.617124885,0.16027791
1764505881.606212,-2.50264,5.43256,-0.18312,0.7722758550000001,-0.617124885,0.16027791
1764505881.606212,-2.50264,5.43256,-0.18312,0.7722758550000001,-0.617124885,0.16027791
1764505881.606212,-2.50264,5.43256,-0.18312,0.7722758550000001,-0.617124885,0.16027791
1764505881.606212,-2.50264,5.43256,-0.18312,0.7722758550000001,-0.617124885,0.16027791
1764505881.6072257,-2.50264,5.43256,-0.18312,0.7722758550000001,-0.617124885,0.16027791
1764505881.6072257,-2.50264,5.43256,-0.18312,0.7722758550000001,-0.617124885,0.16027791
1764505881.6072257,-2.50264,5.43256,-0.18312,0.7722758550000001,-0.617124885,0.16027791
1764505881.6072257,-1.69386,7.0196,-0.47306,0.77221482,-0.61681971,0.159728595
1764505881.60823,-1.69386,7.0196,-0.47306,0.77221482,-0.61681971,0.159728595
1764505881.60823,-1.69386,7.0196,-0.47306,0.77221482,-0.61681971,0.159728595
1764505881.60823,-1.69386,7.0196,-0.47306,0.77221482,-0.61681971,0.159728595
1764505881.60823,-1.69386,7.0196,-0.47306,0.77221482,-0.61681971,0.159728595
1764505881.60823,-1.69386,7.0196,-0.47306,0.77221482,-0.61681971,0.159728595
1764505881.60823,-1.69386,7.0196,-0.47306,0.77221482,-0.61681971,0.159728595
1764505881.60823,-1.69386,7.0196,-0.47306,0.77221482,-0.61681971,0.159728595
1764505881.60823,-1.69386,7.0196,-0.47306,0.77221482,-0.61681971,0.159728595
1764505881.60823,-1.69386,7.0196,-0.47306,0.77221482,-0.61681971,0.159728595
1764505881.6530712,-0.8392999999999999,8.51508,-0.6409199999999999,0.7727031,-0.616514535,0.158691
1764505881.6530712,-0.8392999999999999,8.51508,-0.6409199999999999,0.7727031,-0.616514535,0.158691
1764505881.6530712,-0.8392999999999999,8.51508,-0.6409199999999999,0.7727031,-0.616514535,0.158691
1764505881.6530712,-0.8392999999999999,8.51508,-0.6409199999999999,0.7727031,-0.616514535,0.158691
1764505881.6530712,-0.8392999999999999,8.51508,-0.6409199999999999,0.7727031,-0.616514535,0.158691
1764505881.6530712,-0.8392999999999999,8.51508,-0.6409199999999999,0.7727031,-0.616514535,0.158691
1764505881.6530712,-0.8392999999999999,8.51508,-0.6409199999999999,0.7727031,-0.616514535,0.158691
1764505881.6530712,-0.8392999999999999,8.51508,-0.6409199999999999,0.7727031,-0.616514535,0.158691
1764505881.6530712,-0.8392999999999999,8.51508,-0.6409199999999999,0.7727031,-0.616514535,0.158691
1764505881.6530712,-0.8392999999999999,8.51508,-0.6409199999999999,0.7727031,-0.616514535,0.158691
1764505881.6530712,0.50358,9.8427,0.01526,0.77209275,-0.615660045,0.158691
1764505881.6530712,0.50358,9.8427,0.01526,0.77209275,-0.615660045,0.158691
1764505881.6541088,0.50358,9.8427,0.01526,0.77209275,-0.615660045,0.158691
1764505881.6541088,0.50358,9.8427,0.01526,0.77209275,-0.615660045,0.158691
1764505881.6541088,0.50358,9.8427,0.01526,0.77209275,-0.615660045,0.158691
1764505881.6541088,0.50358,9.8427,0.01526,0.77209275,-0.615660045,0.158691
1764505881.6541088,0.50358,9.8427,0.01526,0.77209275,-0.615660045,0.158691
1764505881.6541088,0.50358,9.8427,0.01526,0.77209275,-0.615660045,0.158691
1764505881.6541088,0.50358,9.8427,0.01526,0.77209275,-0.615660045,0.158691
1764505881.6541088,0.50358,9.8427,0.01526,0.77209275,-0.615660045,0.158691
1764505881.6541088,0.88508,-8.881319999999999,11.35344,0.73437312,-0.604673745,0.173766645
1764505881.6541088,0.88508,-8.881319999999999,11.35344,0.73437312,-0.604673745,0.173766645
1764505881.6541088,0.88508,-8.881319999999999,11.35344,0.73437312,-0.604673745,0.173766645
1764505881.6541088,0.88508,-8.881319999999999,11.35344,0.73437312,-0.604673745,0.173766645
1764505881.6989412,0.88508,-8.881319999999999,11.35344,0.73437312,-0.604673745,0.173766645
1764505881.6989412,0.88508,-8.881319999999999,11.35344,0.73437312,-0.604673745,0.173766645
1764505881.6989412,0.88508,-8.881319999999999,11.35344,0.73437312,-0.604673745,0.173766645
1764505881.6989412,0.88508,-8.881319999999999,11.35344,0.73437312,-0.604673745,0.173766645
1764505881.6989412,0.88508,-8.881319999999999,11.35344,0.73437312,-0.604673745,0.173766645
1764505881.6989412,0.88508,-8.881319999999999,11.35344,0.73437312,-0.604673745,0.173766645
1764505881.6989412,-6.74492,15.22948,-1.6786,0.78112593,-0.621763545,0.153503025
1764505881.6989412,-6.74492,15.22948,-1.6786,0.78112593,-0.621763545,0.153503025
1764505881.6989412,-6.74492,15.22948,-1.6786,0.78112593,-0.621763545,0.153503025
1764505881.6989412,-6.74492,15.22948,-1.6786,0.78112593,-0.621763545,0.153503025
1764505881.6989412,-6.74492,15.22948,-1.6786,0.78112593,-0.621763545,0.153503025
1764505881.6989412,-6.74492,15.22948,-1.6786,0.78112593,-0.621763545,0.153503025
1764505881.6989412,-6.74492,15.22948,-1.6786,0.78112593,-0.621763545,0.153503025
1764505881.6989412,-6.74492,15.22948,-1.6786,0.78112593,-0.621763545,0.153503025
1764505881.6989412,-6.74492,15.22948,-1.6786,0.78112593,-0.621763545,0.153503025
1764505881.6989412,-6.74492,15.22948,-1.6786,0.78112593,-0.621763545,0.153503025
1764505881.6999524,1.8006799999999998,8.51508,4.21176,0.787412535,-0.61596522,0.159240315
1764505881.6999524,1.8006799999999998,8.51508,4.21176,0.787412535,-0.61596522,0.159240315
1764505881.6999524,1.8006799999999998,8.51508,4.21176,0.787412535,-0.61596522,0.159240315
1764505881.6999524,1.8006799999999998,8.51508,4.21176,0.787412535,-0.61596522,0.159240315
1764505881.6999524,1.8006799999999998,8.51508,4.21176,0.787412535,-0.61596522,0.159240315
1764505881.6999524,1.8006799999999998,8.51508,4.21176,0.787412535,-0.61596522,0.159240315
1764505881.7470431,1.8006799999999998,8.51508,4.21176,0.787412535,-0.61596522,0.159240315
1764505881.7470431,1.8006799999999998,8.51508,4.21176,0.787412535,-0.61596522,0.159240315
1764505881.7470431,1.8006799999999998,8.51508,4.21176,0.787412535,-0.61596522,0.159240315
1764505881.7470431,1.8006799999999998,8.51508,4.21176,0.787412535,-0.61596522,0.159240315
1764505881.7470431,-0.4578,8.98814,3.09778,0.7800273,-0.61743006,0.160949295
1764505881.7470431,-0.4578,8.98814,3.09778,0.7800273,-0.61743006,0.160949295
1764505881.7470431,-0.4578,8.98814,3.09778,0.7800273,-0.61743006,0.160949295
1764505881.7470431,-0.4578,8.98814,3.09778,0.7800273,-0.61743006,0.160949295
1764505881.7470431,-0.4578,8.98814,3.09778,0.7800273,-0.61743006,0.160949295
1764505881.7470431,-0.4578,8.98814,3.09778,0.7800273,-0.61743006,0.160949295
1764505881.7470431,-0.4578,8.98814,3.09778,0.7800273,-0.61743006,0.160949295
1764505881.748061,-0.4578,8.98814,3.09778,0.7800273,-0.61743006,0.160949295
1764505881.748061,-0.4578,8.98814,3.09778,0.7800273,-0.61743006,0.160949295
1764505881.748061,-0.4578,8.98814,3.09778,0.7800273,-0.61743006,0.160949295
1764505881.748061,-0.82404,7.996239999999999,4.28806,0.776060025,-0.61633143,0.16332966
1764505881.7490542,-0.82404,7.996239999999999,4.28806,0.776060025,-0.61633143,0.16332966
1764505881.7490542,-0.82404,7.996239999999999,4.28806,0.776060025,-0.61633143,0.16332966
1764505881.7490542,-0.82404,7.996239999999999,4.28806,0.776060025,-0.61633143,0.16332966
1764505881.7490542,-0.82404,7.996239999999999,4.28806,0.776060025,-0.61633143,0.16332966
1764505881.7490542,-0.82404,7.996239999999999,4.28806,0.776060025,-0.61633143,0.16332966
1764505881.7490542,-0.82404,7.996239999999999,4.28806,0.776060025,-0.61633143,0.16332966
1764505881.7500577,-0.82404,7.996239999999999,4.28806,0.776060025,-0.61633143,0.16332966
1764505881.7500577,-0.82404,7.996239999999999,4.28806,0.776060025,-0.61633143,0.16332966
1764505881.7500577,-0.82404,7.996239999999999,4.28806,0.776060025,-0.61633143,0.16332966
1764505881.795069,-4.22702,3.67766,5.1884,0.76794237,-0.61181484,0.166442445
1764505881.795069,-4.22702,3.67766,5.1884,0.76794237,-0.61181484,0.166442445
1764505881.795069,-4.22702,3.67766,5.1884,0.76794237,-0.61181484,0.166442445
1764505881.795069,-4.22702,3.67766,5.1884,0.76794237,-0.61181484,0.166442445
1764505881.795069,-4.22702,3.67766,5.1884,0.76794237,-0.61181484,0.166442445
1764505881.795069,-4.22702,3.67766,5.1884,0.76794237,-0.61181484,0.166442445
1764505881.795069,-4.22702,3.67766,5.1884,0.76794237,-0.61181484,0.166442445
1764505881.795069,-4.22702,3.67766,5.1884,0.76794237,-0.61181484,0.166442445
1764505881.795069,-4.22702,3.67766,5.1884,0.76794237,-0.61181484,0.166442445
1764505881.795069,-4.22702,3.67766,5.1884,0.76794237,-0.61181484,0.166442445
1764505881.795069,-7.53844,6.4855,6.77544,0.76769823,-0.61096035,0.163268625
1764505881.795069,-7.53844,6.4855,6.77544,0.76769823,-0.61096035,0.163268625
1764505881.795069,-7.53844,6.4855,6.77544,0.76769823,-0.61096035,0.163268625
1764505881.795069,-7.53844,6.4855,6.77544,0.76769823,-0.61096035,0.163268625
1764505881.795069,-7.53844,6.4855,6.77544,0.76769823,-0.61096035,0.163268625
1764505881.795069,-7.53844,6.4855,6.77544,0.76769823,-0.61096035,0.163268625
1764505881.795069,-7.53844,6.4855,6.77544,0.76769823,-0.61096035,0.163268625
1764505881.795069,-7.53844,6.4855,6.77544,0.76769823,-0.61096035,0.163268625
1764505881.795069,-7.53844,6.4855,6.77544,0.76769823,-0.61096035,0.163268625
1764505881.795069,-7.53844,6.4855,6.77544,0.76769823,-0.61096035,0.163268625
1764505881.795069,0.48832,5.12736,5.371519999999999,0.7791117750000001,-0.62487633,0.162169995
1764505881.795069,0.48832,5.12736,5.371519999999999,0.7791117750000001,-0.62487633,0.162169995
1764505881.795069,0.48832,5.12736,5.371519999999999,0.7791117750000001,-0.62487633,0.162169995
1764505881.795069,0.48832,5.12736,5.371519999999999,0.7791117750000001,-0.62487633,0.162169995
1764505881.8401346,0.48832,5.12736,5.371519999999999,0.7791117750000001,-0.62487633,0.162169995
1764505881.8401346,0.48832,5.12736,5.371519999999999,0.7791117750000001,-0.62487633,0.162169995
1764505881.841149,0.48832,5.12736,5.371519999999999,0.7791117750000001,-0.62487633,0.162169995
1764505881.841149,0.48832,5.12736,5.371519999999999,0.7791117750000001,-0.62487633,0.162169995
1764505881.841149,0.48832,5.12736,5.371519999999999,0.7791117750000001,-0.62487633,0.162169995
1764505881.841149,0.48832,5.12736,5.371519999999999,0.7791117750000001,-0.62487633,0.162169995
1764505881.841149,0.96138,4.852679999999999,2.12114,0.7744120800000001,-0.624815295,0.16259724
1764505881.841149,0.96138,4.852679999999999,2.12114,0.7744120800000001,-0.624815295,0.16259724
1764505881.841149,0.96138,4.852679999999999,2.12114,0.7744120800000001,-0.624815295,0.16259724
1764505881.841149,0.96138,4.852679999999999,2.12114,0.7744120800000001,-0.624815295,0.16259724
1764505881.841149,0.96138,4.852679999999999,2.12114,0.7744120800000001,-0.624815295,0.16259724
1764505881.841149,0.96138,4.852679999999999,2.12114,0.7744120800000001,-0.624815295,0.16259724
1764505881.841149,0.96138,4.852679999999999,2.12114,0.7744120800000001,-0.624815295,0.16259724
1764505881.841149,0.96138,4.852679999999999,2.12114,0.7744120800000001,-0.624815295,0.16259724
1764505881.841149,0.96138,4.852679999999999,2.12114,0.7744120800000001,-0.624815295,0.16259724
1764505881.841149,0.96138,4.852679999999999,2.12114,0.7744120800000001,-0.624815295,0.16259724
1764505881.8426654,-0.10682,5.52412,0.06104,0.77172654,-0.6239608050000001,0.163634835
1764505881.8426654,-0.10682,5.52412,0.06104,0.77172654,-0.6239608050000001,0.163634835
1764505881.8426654,-0.10682,5.52412,0.06104,0.77172654,-0.6239608050000001,0.163634835
1764505881.8426654,-0.10682,5.52412,0.06104,0.77172654,-0.6239608050000001,0.163634835
1764505881.8426654,-0.10682,5.52412,0.06104,0.77172654,-0.6239608050000001,0.163634835
1764505881.8426654,-0.10682,5.52412,0.06104,0.77172654,-0.6239608050000001,0.163634835
1764505881.8899074,-0.10682,5.52412,0.06104,0.77172654,-0.6239608050000001,0.163634835
1764505881.8899074,-0.10682,5.52412,0.06104,0.77172654,-0.6239608050000001,0.163634835
1764505881.8899074,-0.10682,5.52412,0.06104,0.77172654,-0.6239608050000001,0.163634835
1764505881.8899074,-0.10682,5.52412,0.06104,0.77172654,-0.6239608050000001,0.163634835
1764505881.8899074,-0.71722,5.69198,-0.3509799999999999,0.77001756,-0.622495965,0.164001045
1764505881.8899074,-0.71722,5.69198,-0.3509799999999999,0.77001756,-0.622495965,0.164001045
1764505881.8899074,-0.71722,5.69198,-0.3509799999999999,0.77001756,-0.622495965,0.164001045
1764505881.8899074,-0.71722,5.69198,-0.3509799999999999,0.77001756,-0.622495965,0.164001045
1764505881.8899074,-0.71722,5.69198,-0.3509799999999999,0.77001756,-0.622495965,0.164001045
1764505881.8899074,-0.71722,5.69198,-0.3509799999999999,0.77001756,-0.622495965,0.164001045
1764505881.8899074,-0.71722,5.69198,-0.3509799999999999,0.77001756,-0.622495965,0.164001045
1764505881.8899074,-0.71722,5.69198,-0.3509799999999999,0.77001756,-0.622495965,0.164001045
1764505881.8899074,-0.71722,5.69198,-0.3509799999999999,0.77001756,-0.622495965,0.164001045
1764505881.8899074,-0.71722,5.69198,-0.3509799999999999,0.77001756,-0.622495965,0.164001045
1764505881.8899074,0.6103999999999999,6.42446,-0.85456,0.768857895,-0.62206872,0.1635738
1764505881.8899074,0.6103999999999999,6.42446,-0.85456,0.768857895,-0.62206872,0.1635738
1764505881.8899074,0.6103999999999999,6.42446,-0.85456,0.768857895,-0.62206872,0.1635738
1764505881.8899074,0.6103999999999999,6.42446,-0.85456,0.768857895,-0.62206872,0.1635738
1764505881.8899074,0.6103999999999999,6.42446,-0.85456,0.768857895,-0.62206872,0.1635738
1764505881.8899074,0.6103999999999999,6.42446,-0.85456,0.768857895,-0.62206872,0.1635738
1764505881.8899074,0.6103999999999999,6.42446,-0.85456,0.768857895,-0.62206872,0.1635738
1764505881.890926,0.6103999999999999,6.42446,-0.85456,0.768857895,-0.62206872,0.1635738
1764505881.890926,0.6103999999999999,6.42446,-0.85456,0.768857895,-0.62206872,0.1635738
1764505881.890926,0.6103999999999999,6.42446,-0.85456,0.768857895,-0.62206872,0.1635738
1764505881.9343064,0.59514,7.67578,-1.2055399999999998,0.76818651,-0.62097009,0.16320759
1764505881.9343064,0.59514,7.67578,-1.2055399999999998,0.76818651,-0.62097009,0.16320759
1764505881.93584,0.59514,7.67578,-1.2055399999999998,0.76818651,-0.62097009,0.16320759
1764505881.93584,0.59514,7.67578,-1.2055399999999998,0.76818651,-0.62097009,0.16320759
1764505881.93584,0.59514,7.67578,-1.2055399999999998,0.76818651,-0.62097009,0.16320759
1764505881.93584,0.59514,7.67578,-1.2055399999999998,0.76818651,-0.62097009,0.16320759
1764505881.93584,0.59514,7.67578,-1.2055399999999998,0.76818651,-0.62097009,0.16320759
1764505881.93584,0.59514,7.67578,-1.2055399999999998,0.76818651,-0.62097009,0.16320759
1764505881.93584,0.59514,7.67578,-1.2055399999999998,0.76818651,-0.62097009,0.16320759
1764505881.93584,0.59514,7.67578,-1.2055399999999998,0.76818651,-0.62097009,0.16320759
1764505881.93584,1.526,8.22514,-1.32762,0.7681254750000001,-0.620664915,0.163634835
1764505881.936856,1.526,8.22514,-1.32762,0.7681254750000001,-0.620664915,0.163634835
1764505881.936856,1.526,8.22514,-1.32762,0.7681254750000001,-0.620664915,0.163634835
1764505881.936856,1.526,8.22514,-1.32762,0.7681254750000001,-0.620664915,0.163634835
1764505881.9378514,1.526,8.22514,-1.32762,0.7681254750000001,-0.620664915,0.163634835
1764505881.9388516,1.526,8.22514,-1.32762,0.7681254750000001,-0.620664915,0.163634835
1764505881.9388516,1.526,8.22514,-1.32762,0.7681254750000001,-0.620664915,0.163634835
1764505881.9388516,1.526,8.22514,-1.32762,0.7681254750000001,-0.620664915,0.163634835
1764505881.9388516,1.526,8.22514,-1.32762,0.7681254750000001,-0.620664915,0.163634835
1764505881.9388516,1.526,8.22514,-1.32762,0.7681254750000001,-0.620664915,0.163634835
1764505881.9388516,0.77826,7.79786,-1.31236,0.768979965,-0.61962732,0.16552692
1764505881.9388516,0.77826,7.79786,-1.31236,0.768979965,-0.61962732,0.16552692
1764505881.9388516,0.77826,7.79786,-1.31236,0.768979965,-0.61962732,0.16552692
1764505881.9388516,0.77826,7.79786,-1.31236,0.768979965,-0.61962732,0.16552692
1764505881.983953,0.77826,7.79786,-1.31236,0.768979965,-0.61962732,0.16552692
1764505881.983953,0.77826,7.79786,-1.31236,0.768979965,-0.61962732,0.16552692
1764505881.983953,0.77826,7.79786,-1.31236,0.768979965,-0.61962732,0.16552692
1764505881.983953,0.77826,7.79786,-1.31236,0.768979965,-0.61962732,0.16552692
1764505881.983953,0.77826,7.79786,-1.31236,0.768979965,-0.61962732,0.16552692
1764505881.983953,0.77826,7.79786,-1.31236,0.768979965,-0.61962732,0.16552692
1764505881.983953,1.09872,7.21798,-0.13734,0.76940721,-0.6187117950000001,0.166442445
1764505881.983953,1.09872,7.21798,-0.13734,0.76940721,-0.6187117950000001,0.166442445
1764505881.983953,1.09872,7.21798,-0.13734,0.76940721,-0.6187117950000001,0.166442445
1764505881.983953,1.09872,7.21798,-0.13734,0.76940721,-0.6187117950000001,0.166442445
1764505881.983953,1.09872,7.21798,-0.13734,0.76940721,-0.6187117950000001,0.166442445
1764505881.983953,1.09872,7.21798,-0.13734,0.76940721,-0.6187117950000001,0.166442445
1764505881.984964,1.09872,7.21798,-0.13734,0.76940721,-0.6187117950000001,0.166442445
1764505881.984964,1.09872,7.21798,-0.13734,0.76940721,-0.6187117950000001,0.166442445
1764505881.984964,1.09872,7.21798,-0.13734,0.76940721,-0.6187117950000001,0.166442445
1764505881.984964,1.09872,7.21798,-0.13734,0.76940721,-0.6187117950000001,0.166442445
1764505881.984964,1.48022,7.63,0.88508,0.770078595,-0.61828455,0.166442445
1764505881.984964,1.48022,7.63,0.88508,0.770078595,-0.61828455,0.166442445
1764505881.984964,1.48022,7.63,0.88508,0.770078595,-0.61828455,0.166442445
1764505881.984964,1.48022,7.63,0.88508,0.770078595,-0.61828455,0.166442445
1764505881.984964,1.48022,7.63,0.88508,0.770078595,-0.61828455,0.166442445
1764505881.984964,1.48022,7.63,0.88508,0.770078595,-0.61828455,0.166442445
1764505881.984964,1.48022,7.63,0.88508,0.770078595,-0.61828455,0.166442445
1764505881.984964,1.48022,7.63,0.88508,0.770078595,-0.61828455,0.166442445
1764505882.0316014,1.48022,7.63,0.88508,0.770078595,-0.61828455,0.166442445
1764505882.0316014,1.48022,7.63,0.88508,0.770078595,-0.61828455,0.166442445
1764505882.0316014,1.6022999999999998,7.43162,1.35814,0.769834455,-0.61791834,0.167296935
1764505882.0316014,1.6022999999999998,7.43162,1.35814,0.769834455,-0.61791834,0.167296935
1764505882.0316014,1.6022999999999998,7.43162,1.35814,0.769834455,-0.61791834,0.167296935
1764505882.0316014,1.6022999999999998,7.43162,1.35814,0.769834455,-0.61791834,0.167296935
1764505882.0316014,1.6022999999999998,7.43162,1.35814,0.769834455,-0.61791834,0.167296935
1764505882.0316014,1.6022999999999998,7.43162,1.35814,0.769834455,-0.61791834,0.167296935
1764505882.0316014,1.6022999999999998,7.43162,1.35814,0.769834455,-0.61791834,0.167296935
1764505882.0316014,1.6022999999999998,7.43162,1.35814,0.769834455,-0.61791834,0.167296935
1764505882.0316014,1.6022999999999998,7.43162,1.35814,0.769834455,-0.61791834,0.167296935
1764505882.0316014,1.6022999999999998,7.43162,1.35814,0.769834455,-0.61791834,0.167296935
1764505882.0316014,-4.852679999999999,2.35004,1.15976,0.75585744,-0.60717618,0.17138628
1764505882.0316014,-4.852679999999999,2.35004,1.15976,0.75585744,-0.60717618,0.17138628
1764505882.0316014,-4.852679999999999,2.35004,1.15976,0.75585744,-0.60717618,0.17138628
1764505882.0316014,-4.852679999999999,2.35004,1.15976,0.75585744,-0.60717618,0.17138628
1764505882.0326142,-4.852679999999999,2.35004,1.15976,0.75585744,-0.60717618,0.17138628
1764505882.0326142,-4.852679999999999,2.35004,1.15976,0.75585744,-0.60717618,0.17138628
1764505882.0326142,-4.852679999999999,2.35004,1.15976,0.75585744,-0.60717618,0.17138628
1764505882.0326142,-4.852679999999999,2.35004,1.15976,0.75585744,-0.60717618,0.17138628
1764505882.0326142,-4.852679999999999,2.35004,1.15976,0.75585744,-0.60717618,0.17138628
1764505882.0326142,-4.852679999999999,2.35004,1.15976,0.75585744,-0.60717618,0.17138628
1764505882.0326142,-2.2127,8.89658,3.2046,0.769102035,-0.61657557,0.165954165
1764505882.0326142,-2.2127,8.89658,3.2046,0.769102035,-0.61657557,0.165954165
1764505882.075916,-2.2127,8.89658,3.2046,0.769102035,-0.61657557,0.165954165
1764505882.075916,-2.2127,8.89658,3.2046,0.769102035,-0.61657557,0.165954165
1764505882.075916,-2.2127,8.89658,3.2046,0.769102035,-0.61657557,0.165954165
1764505882.075916,-2.2127,8.89658,3.2046,0.769102035,-0.61657557,0.165954165
1764505882.075916,-2.2127,8.89658,3.2046,0.769102035,-0.61657557,0.165954165
1764505882.075916,-2.2127,8.89658,3.2046,0.769102035,-0.61657557,0.165954165
1764505882.075916,-2.2127,8.89658,3.2046,0.769102035,-0.61657557,0.165954165
1764505882.075916,-2.2127,8.89658,3.2046,0.769102035,-0.61657557,0.165954165
1764505882.075916,3.052,8.49982,2.41108,0.773252415,-0.62353356,0.16674762
1764505882.075916,3.052,8.49982,2.41108,0.773252415,-0.62353356,0.16674762
1764505882.075916,3.052,8.49982,2.41108,0.773252415,-0.62353356,0.16674762
1764505882.075916,3.052,8.49982,2.41108,0.773252415,-0.62353356,0.16674762
1764505882.075916,3.052,8.49982,2.41108,0.773252415,-0.62353356,0.16674762
1764505882.075916,3.052,8.49982,2.41108,0.773252415,-0.62353356,0.16674762
1764505882.0769355,3.052,8.49982,2.41108,0.773252415,-0.62353356,0.16674762
1764505882.0779347,3.052,8.49982,2.41108,0.773252415,-0.62353356,0.16674762
1764505882.0779347,3.052,8.49982,2.41108,0.773252415,-0.62353356,0.16674762
1764505882.0779347,3.052,8.49982,2.41108,0.773252415,-0.62353356,0.16674762
1764505882.0779347,3.5861,8.63716,-0.03052,0.769468245,-0.622862175,0.16821246
1764505882.0779347,3.5861,8.63716,-0.03052,0.769468245,-0.622862175,0.16821246
1764505882.0779347,3.5861,8.63716,-0.03052,0.769468245,-0.622862175,0.16821246
1764505882.0779347,3.5861,8.63716,-0.03052,0.769468245,-0.622862175,0.16821246
1764505882.1255443,3.5861,8.63716,-0.03052,0.769468245,-0.622862175,0.16821246
1764505882.1255443,3.5861,8.63716,-0.03052,0.769468245,-0.622862175,0.16821246
1764505882.126562,3.5861,8.63716,-0.03052,0.769468245,-0.622862175,0.16821246
1764505882.126562,3.5861,8.63716,-0.03052,0.769468245,-0.622862175,0.16821246
1764505882.126562,3.5861,8.63716,-0.03052,0.769468245,-0.622862175,0.16821246
1764505882.126562,3.5861,8.63716,-0.03052,0.769468245,-0.622862175,0.16821246
1764505882.126562,0.763,8.454039999999999,0.47306,0.768247545,-0.61999353,0.170348685
1764505882.126562,0.763,8.454039999999999,0.47306,0.768247545,-0.61999353,0.170348685
1764505882.126562,0.763,8.454039999999999,0.47306,0.768247545,-0.61999353,0.170348685
1764505882.126562,0.763,8.454039999999999,0.47306,0.768247545,-0.61999353,0.170348685
1764505882.126562,0.763,8.454039999999999,0.47306,0.768247545,-0.61999353,0.170348685
1764505882.126562,0.763,8.454039999999999,0.47306,0.768247545,-0.61999353,0.170348685
1764505882.126562,0.763,8.454039999999999,0.47306,0.768247545,-0.61999353,0.170348685
1764505882.126562,0.763,8.454039999999999,0.47306,0.768247545,-0.61999353,0.170348685
1764505882.126562,0.763,8.454039999999999,0.47306,0.768247545,-0.61999353,0.170348685
1764505882.126562,0.763,8.454039999999999,0.47306,0.768247545,-0.61999353,0.170348685
1764505882.126562,2.47212,8.10306,0.65618,0.770322735,-0.622740105,0.17126421
1764505882.126562,2.47212,8.10306,0.65618,0.770322735,-0.622740105,0.17126421
1764505882.126562,2.47212,8.10306,0.65618,0.770322735,-0.622740105,0.17126421
1764505882.126562,2.47212,8.10306,0.65618,0.770322735,-0.622740105,0.17126421
1764505882.126562,2.47212,8.10306,0.65618,0.770322735,-0.622740105,0.17126421
1764505882.126562,2.47212,8.10306,0.65618,0.770322735,-0.622740105,0.17126421
1764505882.126562,2.47212,8.10306,0.65618,0.770322735,-0.622740105,0.17126421
1764505882.126562,2.47212,8.10306,0.65618,0.770322735,-0.622740105,0.17126421
1764505882.1698792,2.47212,8.10306,0.65618,0.770322735,-0.622740105,0.17126421
1764505882.1708896,2.47212,8.10306,0.65618,0.770322735,-0.622740105,0.17126421
1764505882.1708896,2.71628,7.84364,0.10682,0.769041,-0.621275265,0.172668015
1764505882.1708896,2.71628,7.84364,0.10682,0.769041,-0.621275265,0.172668015
1764505882.1708896,2.71628,7.84364,0.10682,0.769041,-0.621275265,0.172668015
1764505882.1708896,2.71628,7.84364,0.10682,0.769041,-0.621275265,0.172668015
1764505882.1708896,2.71628,7.84364,0.10682,0.769041,-0.621275265,0.172668015
1764505882.1708896,2.71628,7.84364,0.10682,0.769041,-0.621275265,0.172668015
1764505882.1708896,2.71628,7.84364,0.10682,0.769041,-0.621275265,0.172668015
1764505882.1708896,2.71628,7.84364,0.10682,0.769041,-0.621275265,0.172668015
1764505882.1708896,2.71628,7.84364,0.10682,0.769041,-0.621275265,0.172668015
1764505882.1708896,2.71628,7.84364,0.10682,0.769041,-0.621275265,0.172668015
1764505882.1708896,2.79258,7.27902,0.0762999999999999,0.76806444,-0.62072595,0.173644575
1764505882.1708896,2.79258,7.27902,0.0762999999999999,0.76806444,-0.62072595,0.173644575
1764505882.1708896,2.79258,7.27902,0.0762999999999999,0.76806444,-0.62072595,0.173644575
1764505882.1713996,2.79258,7.27902,0.0762999999999999,0.76806444,-0.62072595,0.173644575
1764505882.1713996,2.79258,7.27902,0.0762999999999999,0.76806444,-0.62072595,0.173644575
1764505882.1713996,2.79258,7.27902,0.0762999999999999,0.76806444,-0.62072595,0.173644575
1764505882.1713996,2.79258,7.27902,0.0762999999999999,0.76806444,-0.62072595,0.173644575
1764505882.1713996,2.79258,7.27902,0.0762999999999999,0.76806444,-0.62072595,0.173644575
1764505882.1713996,2.79258,7.27902,0.0762999999999999,0.76806444,-0.62072595,0.173644575
1764505882.1713996,2.79258,7.27902,0.0762999999999999,0.76806444,-0.62072595,0.173644575
1764505882.2206886,2.35004,7.56896,1.41918,0.76843065,-0.619200075,0.17431596
1764505882.2206886,2.35004,7.56896,1.41918,0.76843065,-0.619200075,0.17431596
1764505882.2206886,2.35004,7.56896,1.41918,0.76843065,-0.619200075,0.17431596
1764505882.2206886,2.35004,7.56896,1.41918,0.76843065,-0.619200075,0.17431596
1764505882.2206886,2.35004,7.56896,1.41918,0.76843065,-0.619200075,0.17431596
1764505882.2206886,2.35004,7.56896,1.41918,0.76843065,-0.619200075,0.17431596
1764505882.2206886,2.35004,7.56896,1.41918,0.76843065,-0.619200075,0.17431596
1764505882.2206886,2.35004,7.56896,1.41918,0.76843065,-0.619200075,0.17431596
1764505882.2206886,2.35004,7.56896,1.41918,0.76843065,-0.619200075,0.17431596
1764505882.2206886,2.35004,7.56896,1.41918,0.76843065,-0.619200075,0.17431596
1764505882.2206886,3.25038,6.91278,1.6633399999999998,0.76830858,-0.618833865,0.17492631
1764505882.2206886,3.25038,6.91278,1.6633399999999998,0.76830858,-0.618833865,0.17492631
1764505882.2206886,3.25038,6.91278,1.6633399999999998,0.76830858,-0.618833865,0.17492631
1764505882.2217042,3.25038,6.91278,1.6633399999999998,0.76830858,-0.618833865,0.17492631
1764505882.2217042,3.25038,6.91278,1.6633399999999998,0.76830858,-0.618833865,0.17492631
1764505882.2217042,3.25038,6.91278,1.6633399999999998,0.76830858,-0.618833865,0.17492631
1764505882.2217042,3.25038,6.91278,1.6633399999999998,0.76830858,-0.618833865,0.17492631
1764505882.2217042,3.25038,6.91278,1.6633399999999998,0.76830858,-0.618833865,0.17492631
1764505882.2217042,3.25038,6.91278,1.6633399999999998,0.76830858,-0.618833865,0.17492631
1764505882.2217042,3.25038,6.91278,1.6633399999999998,0.76830858,-0.618833865,0.17492631
1764505882.2217042,2.30426,5.90562,1.6022999999999998,0.767637195,-0.6192611100000001,0.176818395
1764505882.2217042,2.30426,5.90562,1.6022999999999998,0.767637195,-0.6192611100000001,0.176818395
1764505882.2217042,2.30426,5.90562,1.6022999999999998,0.767637195,-0.6192611100000001,0.176818395
1764505882.2217042,2.30426,5.90562,1.6022999999999998,0.767637195,-0.6192611100000001,0.176818395
1764505882.2621694,2.30426,5.90562,1.6022999999999998,0.767637195,-0.6192611100000001,0.176818395
1764505882.2621694,2.30426,5.90562,1.6022999999999998,0.767637195,-0.6192611100000001,0.176818395
1764505882.2621694,2.30426,5.90562,1.6022999999999998,0.767637195,-0.6192611100000001,0.176818395
1764505882.2621694,2.30426,5.90562,1.6022999999999998,0.767637195,-0.6192611100000001,0.176818395
1764505882.2621694,2.30426,5.90562,1.6022999999999998,0.767637195,-0.6192611100000001,0.176818395
1764505882.2621694,2.30426,5.90562,1.6022999999999998,0.767637195,-0.6192611100000001,0.176818395
1764505882.2621694,1.6633399999999998,5.69198,1.08346,0.76708788,-0.619810425,0.17748978
1764505882.2621694,1.6633399999999998,5.69198,1.08346,0.76708788,-0.619810425,0.17748978
1764505882.2621694,1.6633399999999998,5.69198,1.08346,0.76708788,-0.619810425,0.17748978
1764505882.2621694,1.6633399999999998,5.69198,1.08346,0.76708788,-0.619810425,0.17748978
1764505882.310966,1.6633399999999998,5.69198,1.08346,0.76708788,-0.619810425,0.17748978
1764505882.312195,1.6633399999999998,5.69198,1.08346,0.76708788,-0.619810425,0.17748978
1764505882.312195,1.6633399999999998,5.69198,1.08346,0.76708788,-0.619810425,0.17748978
1764505882.312195,1.6633399999999998,5.69198,1.08346,0.76708788,-0.619810425,0.17748978
1764505882.312195,1.6633399999999998,5.69198,1.08346,0.76708788,-0.619810425,0.17748978
1764505882.312195,1.6633399999999998,5.69198,1.08346,0.76708788,-0.619810425,0.17748978
1764505882.3131917,0.9919,5.12736,0.763,0.767148915,-0.61938318,0.17724564
1764505882.3131917,0.9919,5.12736,0.763,0.767148915,-0.61938318,0.17724564
1764505882.3131917,0.9919,5.12736,0.763,0.767148915,-0.61938318,0.17724564
1764505882.3131917,0.9919,5.12736,0.763,0.767148915,-0.61938318,0.17724564
1764505882.3131917,0.9919,5.12736,0.763,0.767148915,-0.61938318,0.17724564
1764505882.3142028,0.9919,5.12736,0.763,0.767148915,-0.61938318,0.17724564
1764505882.3142028,0.9919,5.12736,0.763,0.767148915,-0.61938318,0.17724564
1764505882.3142028,0.9919,5.12736,0.763,0.767148915,-0.61938318,0.17724564
1764505882.3142028,0.9919,5.12736,0.763,0.767148915,-0.61938318,0.17724564
1764505882.3142028,0.9919,5.12736,0.763,0.767148915,-0.61938318,0.17724564
1764505882.3142028,0.97664,5.4936,0.01526,0.767026845,-0.61999353,0.177794955
1764505882.3142028,0.97664,5.4936,0.01526,0.767026845,-0.61999353,0.177794955
1764505882.3142028,0.97664,5.4936,0.01526,0.767026845,-0.61999353,0.177794955
1764505882.3142028,0.97664,5.4936,0.01526,0.767026845,-0.61999353,0.177794955
1764505882.3142028,0.97664,5.4936,0.01526,0.767026845,-0.61999353,0.177794955
1764505882.3142028,0.97664,5.4936,0.01526,0.767026845,-0.61999353,0.177794955
1764505882.3142028,0.97664,5.4936,0.01526,0.767026845,-0.61999353,0.177794955
1764505882.3142028,0.97664,5.4936,0.01526,0.767026845,-0.61999353,0.177794955
1764505882.3142028,0.97664,5.4936,0.01526,0.767026845,-0.61999353,0.177794955
1764505882.3142028,0.97664,5.4936,0.01526,0.767026845,-0.61999353,0.177794955
1764505882.3142028,0.1525999999999999,6.28712,-0.73248,0.765317865,-0.61950525,0.177550815
1764505882.3142028,0.1525999999999999,6.28712,-0.73248,0.765317865,-0.61950525,0.177550815
1764505882.3142028,0.1525999999999999,6.28712,-0.73248,0.765317865,-0.61950525,0.177550815
1764505882.3142028,0.1525999999999999,6.28712,-0.73248,0.765317865,-0.61950525,0.177550815
1764505882.3142028,0.1525999999999999,6.28712,-0.73248,0.765317865,-0.61950525,0.177550815
1764505882.3142028,0.1525999999999999,6.28712,-0.73248,0.765317865,-0.61950525,0.177550815
1764505882.3142028,0.1525999999999999,6.28712,-0.73248,0.765317865,-0.61950525,0.177550815
1764505882.3142028,0.1525999999999999,6.28712,-0.73248,0.765317865,-0.61950525,0.177550815
1764505882.3142028,0.1525999999999999,6.28712,-0.73248,0.765317865,-0.61950525,0.177550815
1764505882.3142028,0.1525999999999999,6.28712,-0.73248,0.765317865,-0.61950525,0.177550815
1764505882.3151958,-0.1525999999999999,6.36342,-2.31952,0.7665385650000001,-0.619444215,0.17785599
1764505882.3151958,-0.1525999999999999,6.36342,-2.31952,0.7665385650000001,-0.619444215,0.17785599
1764505882.3563082,-0.1525999999999999,6.36342,-2.31952,0.7665385650000001,-0.619444215,0.17785599
1764505882.3563082,-0.1525999999999999,6.36342,-2.31952,0.7665385650000001,-0.619444215,0.17785599
1764505882.3563082,-0.1525999999999999,6.36342,-2.31952,0.7665385650000001,-0.619444215,0.17785599
1764505882.3563082,-0.1525999999999999,6.36342,-2.31952,0.7665385650000001,-0.619444215,0.17785599
1764505882.3563082,-0.1525999999999999,6.36342,-2.31952,0.7665385650000001,-0.619444215,0.17785599
1764505882.3563082,-0.1525999999999999,6.36342,-2.31952,0.7665385650000001,-0.619444215,0.17785599
1764505882.3563082,-0.1525999999999999,6.36342,-2.31952,0.7665385650000001,-0.619444215,0.17785599
1764505882.3563082,-0.1525999999999999,6.36342,-2.31952,0.7665385650000001,-0.619444215,0.17785599
1764505882.3563082,-0.94612,5.15788,-1.73964,0.767148915,-0.618833865,0.179259795
1764505882.3563082,-0.94612,5.15788,-1.73964,0.767148915,-0.618833865,0.179259795
1764505882.3563082,-0.94612,5.15788,-1.73964,0.767148915,-0.618833865,0.179259795
1764505882.3563082,-0.94612,5.15788,-1.73964,0.767148915,-0.618833865,0.179259795
1764505882.3563082,-0.94612,5.15788,-1.73964,0.767148915,-0.618833865,0.179259795
1764505882.3563082,-0.94612,5.15788,-1.73964,0.767148915,-0.618833865,0.179259795
1764505882.3563082,-0.94612,5.15788,-1.73964,0.767148915,-0.618833865,0.179259795
1764505882.3563082,-0.94612,5.15788,-1.73964,0.767148915,-0.618833865,0.179259795
1764505882.3563082,-0.94612,5.15788,-1.73964,0.767148915,-0.618833865,0.179259795
1764505882.3563082,-0.94612,5.15788,-1.73964,0.767148915,-0.618833865,0.179259795
1764505882.3563082,-0.54936,5.096839999999999,-1.8312,0.766782705,-0.618345585,0.178771515
1764505882.3563082,-0.54936,5.096839999999999,-1.8312,0.766782705,-0.618345585,0.178771515
1764505882.3563082,-0.54936,5.096839999999999,-1.8312,0.766782705,-0.618345585,0.178771515
1764505882.3563082,-0.54936,5.096839999999999,-1.8312,0.766782705,-0.618345585,0.178771515
1764505882.4051516,-0.54936,5.096839999999999,-1.8312,0.766782705,-0.618345585,0.178771515
1764505882.4051516,-0.54936,5.096839999999999,-1.8312,0.766782705,-0.618345585,0.178771515
1764505882.4051516,-0.54936,5.096839999999999,-1.8312,0.766782705,-0.618345585,0.178771515
1764505882.4051516,-0.54936,5.096839999999999,-1.8312,0.766782705,-0.618345585,0.178771515
1764505882.4051516,-0.54936,5.096839999999999,-1.8312,0.766782705,-0.618345585,0.178771515
1764505882.4051516,-0.54936,5.096839999999999,-1.8312,0.766782705,-0.618345585,0.178771515
1764505882.4051516,0.41202,5.31048,-1.69386,0.768003405,-0.61791834,0.1782222
1764505882.4051516,0.41202,5.31048,-1.69386,0.768003405,-0.61791834,0.1782222
1764505882.4051516,0.41202,5.31048,-1.69386,0.768003405,-0.61791834,0.1782222
1764505882.4051516,0.41202,5.31048,-1.69386,0.768003405,-0.61791834,0.1782222
1764505882.4051516,0.41202,5.31048,-1.69386,0.768003405,-0.61791834,0.1782222
1764505882.4051516,0.41202,5.31048,-1.69386,0.768003405,-0.61791834,0.1782222
1764505882.4051516,0.41202,5.31048,-1.69386,0.768003405,-0.61791834,0.1782222
1764505882.4051516,0.41202,5.31048,-1.69386,0.768003405,-0.61791834,0.1782222
1764505882.4051516,0.41202,5.31048,-1.69386,0.768003405,-0.61791834,0.1782222
1764505882.4051516,0.41202,5.31048,-1.69386,0.768003405,-0.61791834,0.1782222
1764505882.4051516,1.25132,6.21082,-1.70912,0.7678203,-0.61694178,0.178405305
1764505882.4051516,1.25132,6.21082,-1.70912,0.7678203,-0.61694178,0.178405305
1764505882.4051516,1.25132,6.21082,-1.70912,0.7678203,-0.61694178,0.178405305
1764505882.4051516,1.25132,6.21082,-1.70912,0.7678203,-0.61694178,0.178405305
1764505882.4051516,1.25132,6.21082,-1.70912,0.7678203,-0.61694178,0.178405305
1764505882.4051516,1.25132,6.21082,-1.70912,0.7678203,-0.61694178,0.178405305
1764505882.4491649,1.25132,6.21082,-1.70912,0.7678203,-0.61694178,0.178405305
1764505882.4491649,1.25132,6.21082,-1.70912,0.7678203,-0.61694178,0.178405305
1764505882.4491649,1.25132,6.21082,-1.70912,0.7678203,-0.61694178,0.178405305
1764505882.4491649,1.25132,6.21082,-1.70912,0.7678203,-0.61694178,0.178405305
1764505882.4491649,1.6022999999999998,6.24134,-0.9003399999999999,0.76867479,-0.61596522,0.179503935
1764505882.4491649,1.6022999999999998,6.24134,-0.9003399999999999,0.76867479,-0.61596522,0.179503935
1764505882.4491649,1.6022999999999998,6.24134,-0.9003399999999999,0.76867479,-0.61596522,0.179503935
1764505882.4491649,1.6022999999999998,6.24134,-0.9003399999999999,0.76867479,-0.61596522,0.179503935
1764505882.4491649,1.6022999999999998,6.24134,-0.9003399999999999,0.76867479,-0.61596522,0.179503935
1764505882.4491649,1.6022999999999998,6.24134,-0.9003399999999999,0.76867479,-0.61596522,0.179503935
1764505882.4491649,1.6022999999999998,6.24134,-0.9003399999999999,0.76867479,-0.61596522,0.179503935
1764505882.4491649,1.6022999999999998,6.24134,-0.9003399999999999,0.76867479,-0.61596522,0.179503935
1764505882.4491649,1.6022999999999998,6.24134,-0.9003399999999999,0.76867479,-0.61596522,0.179503935
1764505882.4491649,1.6022999999999998,6.24134,-0.9003399999999999,0.76867479,-0.61596522,0.179503935
1764505882.4491649,1.48022,5.615679999999999,0.57988,0.76855272,-0.6155990100000001,0.18151809
1764505882.4491649,1.48022,5.615679999999999,0.57988,0.76855272,-0.6155990100000001,0.18151809
1764505882.4491649,1.48022,5.615679999999999,0.57988,0.76855272,-0.6155990100000001,0.18151809
1764505882.4491649,1.48022,5.615679999999999,0.57988,0.76855272,-0.6155990100000001,0.18151809
1764505882.4513676,1.48022,5.615679999999999,0.57988,0.76855272,-0.6155990100000001,0.18151809
1764505882.4513676,1.48022,5.615679999999999,0.57988,0.76855272,-0.6155990100000001,0.18151809
1764505882.4513676,1.48022,5.615679999999999,0.57988,0.76855272,-0.6155990100000001,0.18151809
1764505882.4513676,1.48022,5.615679999999999,0.57988,0.76855272,-0.6155990100000001,0.18151809
1764505882.4513676,1.48022,5.615679999999999,0.57988,0.76855272,-0.6155990100000001,0.18151809
1764505882.4513676,1.48022,5.615679999999999,0.57988,0.76855272,-0.6155990100000001,0.18151809
1764505882.4513676,1.92276,5.29522,1.70912,0.76867479,-0.615537975,0.18115188
1764505882.4513676,1.92276,5.29522,1.70912,0.76867479,-0.615537975,0.18115188
1764505882.4956422,1.92276,5.29522,1.70912,0.76867479,-0.615537975,0.18115188
1764505882.4956422,1.92276,5.29522,1.70912,0.76867479,-0.615537975,0.18115188
1764505882.4956422,1.92276,5.29522,1.70912,0.76867479,-0.615537975,0.18115188
1764505882.4956422,1.92276,5.29522,1.70912,0.76867479,-0.615537975,0.18115188
1764505882.4956422,1.92276,5.29522,1.70912,0.76867479,-0.615537975,0.18115188
1764505882.4956422,1.92276,5.29522,1.70912,0.76867479,-0.615537975,0.18115188
1764505882.4956422,1.92276,5.29522,1.70912,0.76867479,-0.615537975,0.18115188
1764505882.4956422,1.92276,5.29522,1.70912,0.76867479,-0.615537975,0.18115188
1764505882.4956422,2.0601,5.15788,2.80784,0.768491685,-0.61547694,0.18127395
1764505882.4956422,2.0601,5.15788,2.80784,0.768491685,-0.61547694,0.18127395
1764505882.4956422,2.0601,5.15788,2.80784,0.768491685,-0.61547694,0.18127395
1764505882.4956422,2.0601,5.15788,2.80784,0.768491685,-0.61547694,0.18127395
1764505882.4956422,2.0601,5.15788,2.80784,0.768491685,-0.61547694,0.18127395
1764505882.4956422,2.0601,5.15788,2.80784,0.768491685,-0.61547694,0.18127395
1764505882.4956422,2.0601,5.15788,2.80784,0.768491685,-0.61547694,0.18127395
1764505882.4956422,2.0601,5.15788,2.80784,0.768491685,-0.61547694,0.18127395
1764505882.4956422,2.0601,5.15788,2.80784,0.768491685,-0.61547694,0.18127395
1764505882.4956422,2.0601,5.15788,2.80784,0.768491685,-0.61547694,0.18127395
1764505882.4966536,2.68576,5.35626,3.67766,0.768735825,-0.615782115,0.18139602
1764505882.4966536,2.68576,5.35626,3.67766,0.768735825,-0.615782115,0.18139602
1764505882.4966536,2.68576,5.35626,3.67766,0.768735825,-0.615782115,0.18139602
1764505882.4966536,2.68576,5.35626,3.67766,0.768735825,-0.615782115,0.18139602
1764505882.543769,2.68576,5.35626,3.67766,0.768735825,-0.615782115,0.18139602
1764505882.543769,2.68576,5.35626,3.67766,0.768735825,-0.615782115,0.18139602
1764505882.543769,2.68576,5.35626,3.67766,0.768735825,-0.615782115,0.18139602
1764505882.543769,2.68576,5.35626,3.67766,0.768735825,-0.615782115,0.18139602
1764505882.543769,2.68576,5.35626,3.67766,0.768735825,-0.615782115,0.18139602
1764505882.543769,2.68576,5.35626,3.67766,0.768735825,-0.615782115,0.18139602
1764505882.543769,2.22796,5.15788,3.47928,0.76818651,-0.61669764,0.18237258
1764505882.543769,2.22796,5.15788,3.47928,0.76818651,-0.61669764,0.18237258
1764505882.543769,2.22796,5.15788,3.47928,0.76818651,-0.61669764,0.18237258
1764505882.543769,2.22796,5.15788,3.47928,0.76818651,-0.61669764,0.18237258
1764505882.543769,2.22796,5.15788,3.47928,0.76818651,-0.61669764,0.18237258
1764505882.544798,2.22796,5.15788,3.47928,0.76818651,-0.61669764,0.18237258
1764505882.544798,2.22796,5.15788,3.47928,0.76818651,-0.61669764,0.18237258
1764505882.544798,2.22796,5.15788,3.47928,0.76818651,-0.61669764,0.18237258
1764505882.544798,2.22796,5.15788,3.47928,0.76818651,-0.61669764,0.18237258
1764505882.544798,2.22796,5.15788,3.47928,0.76818651,-0.61669764,0.18237258
1764505882.544798,-3.25038,2.45686,1.2208,0.761899905,-0.610044825,0.18469191
1764505882.544798,-3.25038,2.45686,1.2208,0.761899905,-0.610044825,0.18469191
1764505882.544798,-3.25038,2.45686,1.2208,0.761899905,-0.610044825,0.18469191
1764505882.544798,-3.25038,2.45686,1.2208,0.761899905,-0.610044825,0.18469191
1764505882.544798,-3.25038,2.45686,1.2208,0.761899905,-0.610044825,0.18469191
1764505882.544798,-3.25038,2.45686,1.2208,0.761899905,-0.610044825,0.18469191
1764505882.5909758,-3.25038,2.45686,1.2208,0.761899905,-0.610044825,0.18469191
1764505882.5909758,-3.25038,2.45686,1.2208,0.761899905,-0.610044825,0.18469191
1764505882.5909758,-3.25038,2.45686,1.2208,0.761899905,-0.610044825,0.18469191
1764505882.5909758,-3.25038,2.45686,1.2208,0.761899905,-0.610044825,0.18469191
1764505882.5909758,-3.38772,4.68482,2.80784,0.764585445,-0.61303554,0.18286086
1764505882.5909758,-3.38772,4.68482,2.80784,0.764585445,-0.61303554,0.18286086
1764505882.5909758,-3.38772,4.68482,2.80784,0.764585445,-0.61303554,0.18286086
1764505882.5909758,-3.38772,4.68482,2.80784,0.764585445,-0.61303554,0.18286086
1764505882.5909758,-3.38772,4.68482,2.80784,0.764585445,-0.61303554,0.18286086
1764505882.5909758,-3.38772,4.68482,2.80784,0.764585445,-0.61303554,0.18286086
1764505882.5909758,-3.38772,4.68482,2.80784,0.764585445,-0.61303554,0.18286086
1764505882.5909758,-3.38772,4.68482,2.80784,0.764585445,-0.61303554,0.18286086
1764505882.5921226,-3.38772,4.68482,2.80784,0.764585445,-0.61303554,0.18286086
1764505882.5921226,-3.38772,4.68482,2.80784,0.764585445,-0.61303554,0.18286086
1764505882.5921226,0.97664,6.302379999999999,2.88414,0.770811015,-0.62328942,0.181701195
1764505882.5921226,0.97664,6.302379999999999,2.88414,0.770811015,-0.62328942,0.181701195
1764505882.5921226,0.97664,6.302379999999999,2.88414,0.770811015,-0.62328942,0.181701195
1764505882.5921226,0.97664,6.302379999999999,2.88414,0.770811015,-0.62328942,0.181701195
1764505882.593119,0.97664,6.302379999999999,2.88414,0.770811015,-0.62328942,0.181701195
1764505882.593119,0.97664,6.302379999999999,2.88414,0.770811015,-0.62328942,0.181701195
1764505882.593119,0.97664,6.302379999999999,2.88414,0.770811015,-0.62328942,0.181701195
1764505882.593119,0.97664,6.302379999999999,2.88414,0.770811015,-0.62328942,0.181701195
1764505882.593119,0.97664,6.302379999999999,2.88414,0.770811015,-0.62328942,0.181701195
1764505882.593119,0.97664,6.302379999999999,2.88414,0.770811015,-0.62328942,0.181701195
1764505882.6376128,2.99096,6.104,0.4578,0.768979965,-0.624204945,0.18200637
1764505882.6376128,2.99096,6.104,0.4578,0.768979965,-0.624204945,0.18200637
1764505882.6376128,2.99096,6.104,0.4578,0.768979965,-0.624204945,0.18200637
1764505882.6376128,2.99096,6.104,0.4578,0.768979965,-0.624204945,0.18200637
1764505882.6376128,2.99096,6.104,0.4578,0.768979965,-0.624204945,0.18200637
1764505882.6376128,2.99096,6.104,0.4578,0.768979965,-0.624204945,0.18200637
1764505882.6376128,2.99096,6.104,0.4578,0.768979965,-0.624204945,0.18200637
1764505882.6376128,2.99096,6.104,0.4578,0.768979965,-0.624204945,0.18200637
1764505882.6376128,2.99096,6.104,0.4578,0.768979965,-0.624204945,0.18200637
1764505882.6376128,2.99096,6.104,0.4578,0.768979965,-0.624204945,0.18200637
1764505882.6376128,1.8312,6.271859999999999,0.39676,0.767759265,-0.62170251,0.183288105
1764505882.6376128,1.8312,6.271859999999999,0.39676,0.767759265,-0.62170251,0.183288105
1764505882.6376128,1.8312,6.271859999999999,0.39676,0.767759265,-0.62170251,0.183288105
1764505882.6376128,1.8312,6.271859999999999,0.39676,0.767759265,-0.62170251,0.183288105
1764505882.6376128,1.8312,6.271859999999999,0.39676,0.767759265,-0.62170251,0.183288105
1764505882.6376128,1.8312,6.271859999999999,0.39676,0.767759265,-0.62170251,0.183288105
1764505882.6376128,1.8312,6.271859999999999,0.39676,0.767759265,-0.62170251,0.183288105
1764505882.6376128,1.8312,6.271859999999999,0.39676,0.767759265,-0.62170251,0.183288105
1764505882.6376128,1.8312,6.271859999999999,0.39676,0.767759265,-0.62170251,0.183288105
1764505882.6376128,1.8312,6.271859999999999,0.39676,0.767759265,-0.62170251,0.183288105
1764505882.6391678,0.42728,5.371519999999999,0.3051999999999999,0.76647753,-0.620054565,0.18469191
1764505882.6391678,0.42728,5.371519999999999,0.3051999999999999,0.76647753,-0.620054565,0.18469191
1764505882.6391678,0.42728,5.371519999999999,0.3051999999999999,0.76647753,-0.620054565,0.18469191
1764505882.6391678,0.42728,5.371519999999999,0.3051999999999999,0.76647753,-0.620054565,0.18469191
1764505882.684196,0.42728,5.371519999999999,0.3051999999999999,0.76647753,-0.620054565,0.18469191
1764505882.684196,0.42728,5.371519999999999,0.3051999999999999,0.76647753,-0.620054565,0.18469191
