Timestamp,GyroX,GyroY,GyroZ,AccX,AccY,AccZ
1764504865.0195005,-1.12924,3.31142,0.1525999999999999,0.69909489,-0.6685163550000001,0.256408035
1764504865.0195005,-1.12924,3.31142,0.1525999999999999,0.69909489,-0.6685163550000001,0.256408035
1764504865.0195005,-0.93086,3.2809,0.763,0.699277995,-0.66869946,0.25646907
1764504865.0195005,-0.93086,3.2809,0.763,0.699277995,-0.66869946,0.25646907
1764504865.0195005,-0.93086,3.2809,0.763,0.699277995,-0.66869946,0.25646907
1764504865.0195005,-0.93086,3.2809,0.763,0.699277995,-0.66869946,0.25646907
1764504865.0195005,-0.93086,3.2809,0.763,0.699277995,-0.66869946,0.25646907
1764504865.0195005,-0.93086,3.2809,0.763,0.699277995,-0.66869946,0.25646907
1764504865.0195005,-0.93086,3.2809,0.763,0.699277995,-0.66869946,0.25646907
1764504865.0195005,-0.93086,3.2809,0.763,0.699277995,-0.66869946,0.25646907
1764504865.0195005,-0.93086,3.2809,0.763,0.699277995,-0.66869946,0.25646907
1764504865.0195005,-0.93086,3.2809,0.763,0.699277995,-0.66869946,0.25646907
1764504865.0195005,-1.54126,2.83836,-0.09156,0.698667645,-0.669004635,0.257140455
1764504865.0195005,-1.54126,2.83836,-0.09156,0.698667645,-0.669004635,0.257140455
1764504865.0195005,-1.54126,2.83836,-0.09156,0.698667645,-0.669004635,0.257140455
1764504865.0195005,-1.54126,2.83836,-0.09156,0.698667645,-0.669004635,0.257140455
1764504865.0195005,-1.54126,2.83836,-0.09156,0.698667645,-0.669004635,0.257140455
1764504865.0195005,-1.54126,2.83836,-0.09156,0.698667645,-0.669004635,0.257140455
1764504865.022032,-1.54126,2.83836,-0.09156,0.698667645,-0.669004635,0.257140455
1764504865.022032,-1.54126,2.83836,-0.09156,0.698667645,-0.669004635,0.257140455
1764504865.022032,-1.54126,2.83836,-0.09156,0.698667645,-0.669004635,0.257140455
1764504865.022032,-1.54126,2.83836,-0.09156,0.698667645,-0.669004635,0.257140455
1764504865.022032,-1.84646,2.68576,0.09156,0.69909489,-0.668882565,0.25659114
1764504865.022032,-1.84646,2.68576,0.09156,0.69909489,-0.668882565,0.25659114
1764504865.06642,-1.84646,2.68576,0.09156,0.69909489,-0.668882565,0.25659114
1764504865.06642,-1.84646,2.68576,0.09156,0.69909489,-0.668882565,0.25659114
1764504865.0674348,-1.84646,2.68576,0.09156,0.69909489,-0.668882565,0.25659114
1764504865.0674348,-1.84646,2.68576,0.09156,0.69909489,-0.668882565,0.25659114
1764504865.0674348,-1.84646,2.68576,0.09156,0.69909489,-0.668882565,0.25659114
1764504865.0674348,-1.84646,2.68576,0.09156,0.69909489,-0.668882565,0.25659114
1764504865.0674348,-1.84646,2.68576,0.09156,0.69909489,-0.668882565,0.25659114
1764504865.0674348,-1.84646,2.68576,0.09156,0.69909489,-0.668882565,0.25659114
1764504865.0674348,-2.12114,3.23512,0.12208,0.69897282,-0.6690656700000001,0.25646907
1764504865.0674348,-2.12114,3.23512,0.12208,0.69897282,-0.6690656700000001,0.25646907
1764504865.0674348,-2.12114,3.23512,0.12208,0.69897282,-0.6690656700000001,0.25646907
1764504865.0674348,-2.12114,3.23512,0.12208,0.69897282,-0.6690656700000001,0.25646907
1764504865.0674348,-2.12114,3.23512,0.12208,0.69897282,-0.6690656700000001,0.25646907
1764504865.0674348,-2.12114,3.23512,0.12208,0.69897282,-0.6690656700000001,0.25646907
1764504865.0674348,-2.12114,3.23512,0.12208,0.69897282,-0.6690656700000001,0.25646907
1764504865.0674348,-2.12114,3.23512,0.12208,0.69897282,-0.6690656700000001,0.25646907
1764504865.0674348,-2.12114,3.23512,0.12208,0.69897282,-0.6690656700000001,0.25646907
1764504865.0674348,-2.12114,3.23512,0.12208,0.69897282,-0.6690656700000001,0.25646907
1764504865.0674348,-1.78542,4.07442,-0.42728,0.69885075,-0.66943188,0.25561458
1764504865.0674348,-1.78542,4.07442,-0.42728,0.69885075,-0.66943188,0.25561458
1764504865.0674348,-1.78542,4.07442,-0.42728,0.69885075,-0.66943188,0.25561458
1764504865.0674348,-1.78542,4.07442,-0.42728,0.69885075,-0.66943188,0.25561458
1764504865.0674348,-1.78542,4.07442,-0.42728,0.69885075,-0.66943188,0.25561458
1764504865.0674348,-1.78542,4.07442,-0.42728,0.69885075,-0.66943188,0.25561458
1764504865.1124516,-1.78542,4.07442,-0.42728,0.69885075,-0.66943188,0.25561458
1764504865.1124516,-1.78542,4.07442,-0.42728,0.69885075,-0.66943188,0.25561458
1764504865.1124516,-1.78542,4.07442,-0.42728,0.69885075,-0.66943188,0.25561458
1764504865.1124516,-1.78542,4.07442,-0.42728,0.69885075,-0.66943188,0.25561458
1764504865.1124516,-0.93086,4.45592,-1.95328,0.69872868,-0.669981195,0.255309405
1764504865.1124516,-0.93086,4.45592,-1.95328,0.69872868,-0.669981195,0.255309405
1764504865.1124516,-0.93086,4.45592,-1.95328,0.69872868,-0.669981195,0.255309405
1764504865.1124516,-0.93086,4.45592,-1.95328,0.69872868,-0.669981195,0.255309405
1764504865.1124516,-0.93086,4.45592,-1.95328,0.69872868,-0.669981195,0.255309405
1764504865.1124516,-0.93086,4.45592,-1.95328,0.69872868,-0.669981195,0.255309405
1764504865.1124516,-0.93086,4.45592,-1.95328,0.69872868,-0.669981195,0.255309405
1764504865.1124516,-0.93086,4.45592,-1.95328,0.69872868,-0.669981195,0.255309405
1764504865.1124516,-0.93086,4.45592,-1.95328,0.69872868,-0.669981195,0.255309405
1764504865.1124516,-0.93086,4.45592,-1.95328,0.69872868,-0.669981195,0.255309405
1764504865.1124516,-1.11398,4.13546,-1.69386,0.699522135,-0.66918774,0.25573665
1764504865.1124516,-1.11398,4.13546,-1.69386,0.699522135,-0.66918774,0.25573665
1764504865.1124516,-1.11398,4.13546,-1.69386,0.699522135,-0.66918774,0.25573665
1764504865.1124516,-1.11398,4.13546,-1.69386,0.699522135,-0.66918774,0.25573665
1764504865.1124516,-1.11398,4.13546,-1.69386,0.699522135,-0.66918774,0.25573665
1764504865.1124516,-1.11398,4.13546,-1.69386,0.699522135,-0.66918774,0.25573665
1764504865.1124516,-1.11398,4.13546,-1.69386,0.699522135,-0.66918774,0.25573665
1764504865.1124516,-1.11398,4.13546,-1.69386,0.699522135,-0.66918774,0.25573665
1764504865.1604755,-1.11398,4.13546,-1.69386,0.699522135,-0.66918774,0.25573665
1764504865.1604755,-1.11398,4.13546,-1.69386,0.699522135,-0.66918774,0.25573665
1764504865.1604755,-1.7549,4.1965,-1.23606,0.69970524,-0.668760495,0.25646907
1764504865.1604755,-1.7549,4.1965,-1.23606,0.69970524,-0.668760495,0.25646907
1764504865.1614964,-1.7549,4.1965,-1.23606,0.69970524,-0.668760495,0.25646907
1764504865.1614964,-1.7549,4.1965,-1.23606,0.69970524,-0.668760495,0.25646907
1764504865.1624992,-1.7549,4.1965,-1.23606,0.69970524,-0.668760495,0.25646907
1764504865.1624992,-1.7549,4.1965,-1.23606,0.69970524,-0.668760495,0.25646907
1764504865.1624992,-1.7549,4.1965,-1.23606,0.69970524,-0.668760495,0.25646907
1764504865.1624992,-1.7549,4.1965,-1.23606,0.69970524,-0.668760495,0.25646907
1764504865.1634762,-1.7549,4.1965,-1.23606,0.69970524,-0.668760495,0.25646907
1764504865.1634762,-1.7549,4.1965,-1.23606,0.69970524,-0.668760495,0.25646907
1764504865.1638331,-1.84646,3.57084,-0.6714399999999999,0.700010415,-0.66845532,0.256347
1764504865.1638331,-1.84646,3.57084,-0.6714399999999999,0.700010415,-0.66845532,0.256347
1764504865.1638331,-1.84646,3.57084,-0.6714399999999999,0.700010415,-0.66845532,0.256347
1764504865.164478,-1.84646,3.57084,-0.6714399999999999,0.700010415,-0.66845532,0.256347
1764504865.164478,-1.84646,3.57084,-0.6714399999999999,0.700010415,-0.66845532,0.256347
1764504865.164478,-1.84646,3.57084,-0.6714399999999999,0.700010415,-0.66845532,0.256347
1764504865.164478,-1.84646,3.57084,-0.6714399999999999,0.700010415,-0.66845532,0.256347
1764504865.164478,-1.84646,3.57084,-0.6714399999999999,0.700010415,-0.66845532,0.256347
1764504865.164478,-1.84646,3.57084,-0.6714399999999999,0.700010415,-0.66845532,0.256347
1764504865.164478,-1.84646,3.57084,-0.6714399999999999,0.700010415,-0.66845532,0.256347
1764504865.164478,-1.6786,3.23512,-0.36624,0.700376625,-0.6689436,0.25561458
1764504865.164478,-1.6786,3.23512,-0.36624,0.700376625,-0.6689436,0.25561458
1764504865.2053344,-1.6786,3.23512,-0.36624,0.700376625,-0.6689436,0.25561458
1764504865.2053344,-1.6786,3.23512,-0.36624,0.700376625,-0.6689436,0.25561458
1764504865.2053344,-1.6786,3.23512,-0.36624,0.700376625,-0.6689436,0.25561458
1764504865.2053344,-1.6786,3.23512,-0.36624,0.700376625,-0.6689436,0.25561458
1764504865.2053344,-1.6786,3.23512,-0.36624,0.700376625,-0.6689436,0.25561458
1764504865.2053344,-1.6786,3.23512,-0.36624,0.700376625,-0.6689436,0.25561458
1764504865.2053344,-1.6786,3.23512,-0.36624,0.700376625,-0.6689436,0.25561458
1764504865.2053344,-1.6786,3.23512,-0.36624,0.700376625,-0.6689436,0.25561458
1764504865.2053344,-1.64808,3.25038,-0.19838,0.700742835,-0.6685163550000001,0.25585872
1764504865.2053344,-1.64808,3.25038,-0.19838,0.700742835,-0.6685163550000001,0.25585872
1764504865.2053344,-1.64808,3.25038,-0.19838,0.700742835,-0.6685163550000001,0.25585872
1764504865.2053344,-1.64808,3.25038,-0.19838,0.700742835,-0.6685163550000001,0.25585872
1764504865.2053344,-1.64808,3.25038,-0.19838,0.700742835,-0.6685163550000001,0.25585872
1764504865.2053344,-1.64808,3.25038,-0.19838,0.700742835,-0.6685163550000001,0.25585872
1764504865.2053344,-1.64808,3.25038,-0.19838,0.700742835,-0.6685163550000001,0.25585872
1764504865.2053344,-1.64808,3.25038,-0.19838,0.700742835,-0.6685163550000001,0.25585872
1764504865.2053344,-1.64808,3.25038,-0.19838,0.700742835,-0.6685163550000001,0.25585872
1764504865.2053344,-1.64808,3.25038,-0.19838,0.700742835,-0.6685163550000001,0.25585872
1764504865.2053344,-1.526,3.02148,0.2289,0.700986975,-0.6685163550000001,0.25573665
1764504865.2053344,-1.526,3.02148,0.2289,0.700986975,-0.6685163550000001,0.25573665
1764504865.2053344,-1.526,3.02148,0.2289,0.700986975,-0.6685163550000001,0.25573665
1764504865.2053344,-1.526,3.02148,0.2289,0.700986975,-0.6685163550000001,0.25573665
1764504865.2526753,-1.526,3.02148,0.2289,0.700986975,-0.6685163550000001,0.25573665
1764504865.2526753,-1.526,3.02148,0.2289,0.700986975,-0.6685163550000001,0.25573665
1764504865.2526753,-1.526,3.02148,0.2289,0.700986975,-0.6685163550000001,0.25573665
1764504865.2526753,-1.526,3.02148,0.2289,0.700986975,-0.6685163550000001,0.25573665
1764504865.2526753,-1.526,3.02148,0.2289,0.700986975,-0.6685163550000001,0.25573665
1764504865.2526753,-1.526,3.02148,0.2289,0.700986975,-0.6685163550000001,0.25573665
1764504865.2526753,-1.4039199999999998,2.57894,0.65618,0.70055973,-0.668150145,0.255919755
1764504865.2526753,-1.4039199999999998,2.57894,0.65618,0.70055973,-0.668150145,0.255919755
1764504865.2536714,-1.4039199999999998,2.57894,0.65618,0.70055973,-0.668150145,0.255919755
1764504865.2536714,-1.4039199999999998,2.57894,0.65618,0.70055973,-0.668150145,0.255919755
1764504865.2536714,-1.4039199999999998,2.57894,0.65618,0.70055973,-0.668150145,0.255919755
1764504865.2541914,-1.4039199999999998,2.57894,0.65618,0.70055973,-0.668150145,0.255919755
1764504865.2541914,-1.4039199999999998,2.57894,0.65618,0.70055973,-0.668150145,0.255919755
1764504865.2541914,-1.4039199999999998,2.57894,0.65618,0.70055973,-0.668150145,0.255919755
1764504865.2541914,-1.4039199999999998,2.57894,0.65618,0.70055973,-0.668150145,0.255919755
1764504865.2541914,-1.4039199999999998,2.57894,0.65618,0.70055973,-0.668150145,0.255919755
1764504865.2541914,-1.23606,2.92992,0.2289,0.701231115,-0.6685163550000001,0.25585872
1764504865.2541914,-1.23606,2.92992,0.2289,0.701231115,-0.6685163550000001,0.25585872
1764504865.2541914,-1.23606,2.92992,0.2289,0.701231115,-0.6685163550000001,0.25585872
1764504865.2541914,-1.23606,2.92992,0.2289,0.701231115,-0.6685163550000001,0.25585872
1764504865.2541914,-1.23606,2.92992,0.2289,0.701231115,-0.6685163550000001,0.25585872
1764504865.2541914,-1.23606,2.92992,0.2289,0.701231115,-0.6685163550000001,0.25585872
1764504865.2541914,-1.23606,2.92992,0.2289,0.701231115,-0.6685163550000001,0.25585872
1764504865.2552028,-1.23606,2.92992,0.2289,0.701231115,-0.6685163550000001,0.25585872
1764504865.2963495,-1.23606,2.92992,0.2289,0.701231115,-0.6685163550000001,0.25585872
1764504865.2963495,-1.23606,2.92992,0.2289,0.701231115,-0.6685163550000001,0.25585872
1764504865.2963495,-1.41918,3.052,-0.4578,0.70165836,-0.66821118,0.255553545
1764504865.2963495,-1.41918,3.052,-0.4578,0.70165836,-0.66821118,0.255553545
1764504865.2963495,-1.41918,3.052,-0.4578,0.70165836,-0.66821118,0.255553545
1764504865.2963495,-1.41918,3.052,-0.4578,0.70165836,-0.66821118,0.255553545
1764504865.2963495,-1.41918,3.052,-0.4578,0.70165836,-0.66821118,0.255553545
1764504865.2963495,-1.41918,3.052,-0.4578,0.70165836,-0.66821118,0.255553545
1764504865.2996483,-1.41918,3.052,-0.4578,0.70165836,-0.66821118,0.255553545
1764504865.2996483,-1.41918,3.052,-0.4578,0.70165836,-0.66821118,0.255553545
1764504865.2996483,-1.41918,3.052,-0.4578,0.70165836,-0.66821118,0.255553545
1764504865.2996483,-1.41918,3.052,-0.4578,0.70165836,-0.66821118,0.255553545
1764504865.2996483,-1.86172,2.88414,-0.2289,0.701109045,-0.668028075,0.25500423
1764504865.2996483,-1.86172,2.88414,-0.2289,0.701109045,-0.668028075,0.25500423
1764504865.2996483,-1.86172,2.88414,-0.2289,0.701109045,-0.668028075,0.25500423
1764504865.2996483,-1.86172,2.88414,-0.2289,0.701109045,-0.668028075,0.25500423
1764504865.2996483,-1.86172,2.88414,-0.2289,0.701109045,-0.668028075,0.25500423
1764504865.2996483,-1.86172,2.88414,-0.2289,0.701109045,-0.668028075,0.25500423
1764504865.2996483,-1.86172,2.88414,-0.2289,0.701109045,-0.668028075,0.25500423
1764504865.2996483,-1.86172,2.88414,-0.2289,0.701109045,-0.668028075,0.25500423
1764504865.2996483,-1.86172,2.88414,-0.2289,0.701109045,-0.668028075,0.25500423
1764504865.2996483,-1.86172,2.88414,-0.2289,0.701109045,-0.668028075,0.25500423
1764504865.2996483,-2.289,2.80784,-0.21364,0.7015362900000001,-0.667661865,0.25451595
1764504865.3006518,-2.289,2.80784,-0.21364,0.7015362900000001,-0.667661865,0.25451595
1764504865.3452003,-2.289,2.80784,-0.21364,0.7015362900000001,-0.667661865,0.25451595
1764504865.3452003,-2.289,2.80784,-0.21364,0.7015362900000001,-0.667661865,0.25451595
1764504865.3452003,-2.289,2.80784,-0.21364,0.7015362900000001,-0.667661865,0.25451595
1764504865.3452003,-2.289,2.80784,-0.21364,0.7015362900000001,-0.667661865,0.25451595
1764504865.3452003,-2.289,2.80784,-0.21364,0.7015362900000001,-0.667661865,0.25451595
1764504865.3452003,-2.289,2.80784,-0.21364,0.7015362900000001,-0.667661865,0.25451595
1764504865.346207,-2.289,2.80784,-0.21364,0.7015362900000001,-0.667661865,0.25451595
1764504865.346207,-2.289,2.80784,-0.21364,0.7015362900000001,-0.667661865,0.25451595
1764504865.346207,-2.42634,2.99096,-0.06104,0.701475255,-0.66796704,0.25488216
1764504865.346207,-2.42634,2.99096,-0.06104,0.701475255,-0.66796704,0.25488216
1764504865.346207,-2.42634,2.99096,-0.06104,0.701475255,-0.66796704,0.25488216
1764504865.346207,-2.42634,2.99096,-0.06104,0.701475255,-0.66796704,0.25488216
1764504865.346207,-2.42634,2.99096,-0.06104,0.701475255,-0.66796704,0.25488216
1764504865.346207,-2.42634,2.99096,-0.06104,0.701475255,-0.66796704,0.25488216
1764504865.346207,-2.42634,2.99096,-0.06104,0.701475255,-0.66796704,0.25488216
1764504865.346207,-2.42634,2.99096,-0.06104,0.701475255,-0.66796704,0.25488216
1764504865.346207,-2.42634,2.99096,-0.06104,0.701475255,-0.66796704,0.25488216
1764504865.346207,-2.42634,2.99096,-0.06104,0.701475255,-0.66796704,0.25488216
1764504865.346207,-1.72438,3.21986,-0.36624,0.70202457,-0.66821118,0.25451595
1764504865.346207,-1.72438,3.21986,-0.36624,0.70202457,-0.66821118,0.25451595
1764504865.346207,-1.72438,3.21986,-0.36624,0.70202457,-0.66821118,0.25451595
1764504865.346207,-1.72438,3.21986,-0.36624,0.70202457,-0.66821118,0.25451595
1764504865.390072,-1.72438,3.21986,-0.36624,0.70202457,-0.66821118,0.25451595
1764504865.390072,-1.72438,3.21986,-0.36624,0.70202457,-0.66821118,0.25451595
1764504865.390072,-1.72438,3.21986,-0.36624,0.70202457,-0.66821118,0.25451595
1764504865.390072,-1.72438,3.21986,-0.36624,0.70202457,-0.66821118,0.25451595
1764504865.390072,-1.72438,3.21986,-0.36624,0.70202457,-0.66821118,0.25451595
1764504865.390072,-1.72438,3.21986,-0.36624,0.70202457,-0.66821118,0.25451595
1764504865.390072,-1.31236,3.23512,-0.3357199999999999,0.701963535,-0.6677229,0.253600425
1764504865.390072,-1.31236,3.23512,-0.3357199999999999,0.701963535,-0.6677229,0.253600425
1764504865.390072,-1.31236,3.23512,-0.3357199999999999,0.701963535,-0.6677229,0.253600425
1764504865.390072,-1.31236,3.23512,-0.3357199999999999,0.701963535,-0.6677229,0.253600425
1764504865.390072,-1.31236,3.23512,-0.3357199999999999,0.701963535,-0.6677229,0.253600425
1764504865.390072,-1.31236,3.23512,-0.3357199999999999,0.701963535,-0.6677229,0.253600425
1764504865.390072,-1.31236,3.23512,-0.3357199999999999,0.701963535,-0.6677229,0.253600425
1764504865.390072,-1.31236,3.23512,-0.3357199999999999,0.701963535,-0.6677229,0.253600425
1764504865.390072,-1.31236,3.23512,-0.3357199999999999,0.701963535,-0.6677229,0.253600425
1764504865.3915827,-1.31236,3.23512,-0.3357199999999999,0.701963535,-0.6677229,0.253600425
1764504865.3929183,-0.9919,3.63188,-0.56462,0.701719395,-0.66735669,0.253844565
1764504865.3929183,-0.9919,3.63188,-0.56462,0.701719395,-0.66735669,0.253844565
1764504865.3929183,-0.9919,3.63188,-0.56462,0.701719395,-0.66735669,0.253844565
1764504865.3929183,-0.9919,3.63188,-0.56462,0.701719395,-0.66735669,0.253844565
1764504865.3929183,-0.9919,3.63188,-0.56462,0.701719395,-0.66735669,0.253844565
1764504865.3929183,-0.9919,3.63188,-0.56462,0.701719395,-0.66735669,0.253844565
1764504865.4381878,-0.9919,3.63188,-0.56462,0.701719395,-0.66735669,0.253844565
1764504865.4381878,-0.9919,3.63188,-0.56462,0.701719395,-0.66735669,0.253844565
1764504865.4381878,-0.9919,3.63188,-0.56462,0.701719395,-0.66735669,0.253844565
1764504865.4381878,-0.9919,3.63188,-0.56462,0.701719395,-0.66735669,0.253844565
1764504865.4381878,-1.11398,3.64714,-0.3204599999999999,0.702207675,-0.667783935,0.25305111
1764504865.4381878,-1.11398,3.64714,-0.3204599999999999,0.702207675,-0.667783935,0.25305111
1764504865.4381878,-1.11398,3.64714,-0.3204599999999999,0.702207675,-0.667783935,0.25305111
1764504865.4381878,-1.11398,3.64714,-0.3204599999999999,0.702207675,-0.667783935,0.25305111
1764504865.4381878,-1.11398,3.64714,-0.3204599999999999,0.702207675,-0.667783935,0.25305111
1764504865.4381878,-1.11398,3.64714,-0.3204599999999999,0.702207675,-0.667783935,0.25305111
1764504865.4381878,-1.11398,3.64714,-0.3204599999999999,0.702207675,-0.667783935,0.25305111
1764504865.4381878,-1.11398,3.64714,-0.3204599999999999,0.702207675,-0.667783935,0.25305111
1764504865.4381878,-1.11398,3.64714,-0.3204599999999999,0.702207675,-0.667783935,0.25305111
1764504865.4392292,-1.11398,3.64714,-0.3204599999999999,0.702207675,-0.667783935,0.25305111
1764504865.4392292,-1.2208,3.26564,-0.28994,0.702451815,-0.667783935,0.253600425
1764504865.4392292,-1.2208,3.26564,-0.28994,0.702451815,-0.667783935,0.253600425
1764504865.4392292,-1.2208,3.26564,-0.28994,0.702451815,-0.667783935,0.253600425
1764504865.4392292,-1.2208,3.26564,-0.28994,0.702451815,-0.667783935,0.253600425
1764504865.4392292,-1.2208,3.26564,-0.28994,0.702451815,-0.667783935,0.253600425
1764504865.4392292,-1.2208,3.26564,-0.28994,0.702451815,-0.667783935,0.253600425
1764504865.4392292,-1.2208,3.26564,-0.28994,0.702451815,-0.667783935,0.253600425
1764504865.4392292,-1.2208,3.26564,-0.28994,0.702451815,-0.667783935,0.253600425
1764504865.4392292,-1.2208,3.26564,-0.28994,0.702451815,-0.667783935,0.253600425
1764504865.4392292,-1.2208,3.26564,-0.28994,0.702451815,-0.667783935,0.253600425
1764504865.4826722,-1.4039199999999998,3.5098,-0.3509799999999999,0.702695955,-0.667539795,0.253722495
1764504865.4826722,-1.4039199999999998,3.5098,-0.3509799999999999,0.702695955,-0.667539795,0.253722495
1764504865.4826722,-1.4039199999999998,3.5098,-0.3509799999999999,0.702695955,-0.667539795,0.253722495
1764504865.4826722,-1.4039199999999998,3.5098,-0.3509799999999999,0.702695955,-0.667539795,0.253722495
1764504865.4826722,-1.4039199999999998,3.5098,-0.3509799999999999,0.702695955,-0.667539795,0.253722495
1764504865.4826722,-1.4039199999999998,3.5098,-0.3509799999999999,0.702695955,-0.667539795,0.253722495
1764504865.4826722,-1.4039199999999998,3.5098,-0.3509799999999999,0.702695955,-0.667539795,0.253722495
1764504865.4826722,-1.4039199999999998,3.5098,-0.3509799999999999,0.702695955,-0.667539795,0.253722495
1764504865.4826722,-1.4039199999999998,3.5098,-0.3509799999999999,0.702695955,-0.667539795,0.253722495
1764504865.4826722,-1.4039199999999998,3.5098,-0.3509799999999999,0.702695955,-0.667539795,0.253722495
1764504865.4826722,1.6786,4.37962,1.1445,0.70275699,-0.67089672,0.253722495
1764504865.4826722,1.6786,4.37962,1.1445,0.70275699,-0.67089672,0.253722495
1764504865.4826722,1.6786,4.37962,1.1445,0.70275699,-0.67089672,0.253722495
1764504865.483199,1.6786,4.37962,1.1445,0.70275699,-0.67089672,0.253722495
1764504865.483199,1.6786,4.37962,1.1445,0.70275699,-0.67089672,0.253722495
1764504865.4842372,1.6786,4.37962,1.1445,0.70275699,-0.67089672,0.253722495
1764504865.4842372,1.6786,4.37962,1.1445,0.70275699,-0.67089672,0.253722495
1764504865.4842372,1.6786,4.37962,1.1445,0.70275699,-0.67089672,0.253722495
1764504865.4842372,1.6786,4.37962,1.1445,0.70275699,-0.67089672,0.253722495
1764504865.4842372,1.6786,4.37962,1.1445,0.70275699,-0.67089672,0.253722495
1764504865.4842372,2.12114,4.3491,0.54936,0.70336734,-0.67187328,0.253356285
1764504865.4842372,2.12114,4.3491,0.54936,0.70336734,-0.67187328,0.253356285
1764504865.4842372,2.12114,4.3491,0.54936,0.70336734,-0.67187328,0.253356285
1764504865.4842372,2.12114,4.3491,0.54936,0.70336734,-0.67187328,0.253356285
1764504865.5300603,2.12114,4.3491,0.54936,0.70336734,-0.67187328,0.253356285
1764504865.5310495,2.12114,4.3491,0.54936,0.70336734,-0.67187328,0.253356285
1764504865.5310495,2.12114,4.3491,0.54936,0.70336734,-0.67187328,0.253356285
1764504865.5310495,2.12114,4.3491,0.54936,0.70336734,-0.67187328,0.253356285
1764504865.5310495,2.12114,4.3491,0.54936,0.70336734,-0.67187328,0.253356285
1764504865.5310495,2.12114,4.3491,0.54936,0.70336734,-0.67187328,0.253356285
1764504865.5310495,1.25132,3.61662,-0.4578,0.701841465,-0.66796704,0.252868005
1764504865.5330536,1.25132,3.61662,-0.4578,0.701841465,-0.66796704,0.252868005
1764504865.5330536,1.25132,3.61662,-0.4578,0.701841465,-0.66796704,0.252868005
1764504865.534049,1.25132,3.61662,-0.4578,0.701841465,-0.66796704,0.252868005
1764504865.534049,1.25132,3.61662,-0.4578,0.701841465,-0.66796704,0.252868005
1764504865.534049,1.25132,3.61662,-0.4578,0.701841465,-0.66796704,0.252868005
1764504865.534049,1.25132,3.61662,-0.4578,0.701841465,-0.66796704,0.252868005
1764504865.534049,1.25132,3.61662,-0.4578,0.701841465,-0.66796704,0.252868005
1764504865.534049,1.25132,3.61662,-0.4578,0.701841465,-0.66796704,0.252868005
1764504865.534049,1.25132,3.61662,-0.4578,0.701841465,-0.66796704,0.252868005
1764504865.534049,0.71722,3.79974,-0.39676,0.703184235,-0.66796704,0.253600425
1764504865.534049,0.71722,3.79974,-0.39676,0.703184235,-0.66796704,0.253600425
1764504865.534049,0.71722,3.79974,-0.39676,0.703184235,-0.66796704,0.253600425
1764504865.534049,0.71722,3.79974,-0.39676,0.703184235,-0.66796704,0.253600425
1764504865.534049,0.71722,3.79974,-0.39676,0.703184235,-0.66796704,0.253600425
1764504865.534049,0.71722,3.79974,-0.39676,0.703184235,-0.66796704,0.253600425
1764504865.5344968,0.71722,3.79974,-0.39676,0.703184235,-0.66796704,0.253600425
1764504865.5344968,0.71722,3.79974,-0.39676,0.703184235,-0.66796704,0.253600425
1764504865.5807836,0.71722,3.79974,-0.39676,0.703184235,-0.66796704,0.253600425
1764504865.5807836,0.71722,3.79974,-0.39676,0.703184235,-0.66796704,0.253600425
1764504865.5807836,0.62566,3.47928,0.24416,0.7019025,-0.666807375,0.253600425
1764504865.5807836,0.62566,3.47928,0.24416,0.7019025,-0.666807375,0.253600425
1764504865.5807836,0.62566,3.47928,0.24416,0.7019025,-0.666807375,0.253600425
1764504865.5807836,0.62566,3.47928,0.24416,0.7019025,-0.666807375,0.253600425
1764504865.5807836,0.62566,3.47928,0.24416,0.7019025,-0.666807375,0.253600425
1764504865.5807836,0.62566,3.47928,0.24416,0.7019025,-0.666807375,0.253600425
1764504865.5807836,0.62566,3.47928,0.24416,0.7019025,-0.666807375,0.253600425
1764504865.5807836,0.62566,3.47928,0.24416,0.7019025,-0.666807375,0.253600425
1764504865.5807836,0.62566,3.47928,0.24416,0.7019025,-0.666807375,0.253600425
1764504865.5807836,0.62566,3.47928,0.24416,0.7019025,-0.666807375,0.253600425
1764504865.5807836,-0.9003399999999999,3.49454,0.10682,0.70031559,-0.66418287,0.254454915
1764504865.5807836,-0.9003399999999999,3.49454,0.10682,0.70031559,-0.66418287,0.254454915
1764504865.5807836,-0.9003399999999999,3.49454,0.10682,0.70031559,-0.66418287,0.254454915
1764504865.5807836,-0.9003399999999999,3.49454,0.10682,0.70031559,-0.66418287,0.254454915
1764504865.5807836,-0.9003399999999999,3.49454,0.10682,0.70031559,-0.66418287,0.254454915
1764504865.5807836,-0.9003399999999999,3.49454,0.10682,0.70031559,-0.66418287,0.254454915
1764504865.5807836,-0.9003399999999999,3.49454,0.10682,0.70031559,-0.66418287,0.254454915
1764504865.5807836,-0.9003399999999999,3.49454,0.10682,0.70031559,-0.66418287,0.254454915
1764504865.5807836,-0.9003399999999999,3.49454,0.10682,0.70031559,-0.66418287,0.254454915
1764504865.5807836,-0.9003399999999999,3.49454,0.10682,0.70031559,-0.66418287,0.254454915
1764504865.6260812,-1.87698,3.5861,-0.13734,0.70165836,-0.6627790650000001,0.253600425
1764504865.6260812,-1.87698,3.5861,-0.13734,0.70165836,-0.6627790650000001,0.253600425
1764504865.6260812,-1.87698,3.5861,-0.13734,0.70165836,-0.6627790650000001,0.253600425
1764504865.6260812,-1.87698,3.5861,-0.13734,0.70165836,-0.6627790650000001,0.253600425
1764504865.6260812,-1.87698,3.5861,-0.13734,0.70165836,-0.6627790650000001,0.253600425
1764504865.6260812,-1.87698,3.5861,-0.13734,0.70165836,-0.6627790650000001,0.253600425
1764504865.6260812,-1.87698,3.5861,-0.13734,0.70165836,-0.6627790650000001,0.253600425
1764504865.6260812,-1.87698,3.5861,-0.13734,0.70165836,-0.6627790650000001,0.253600425
1764504865.6260812,-1.87698,3.5861,-0.13734,0.70165836,-0.6627790650000001,0.253600425
1764504865.6260812,-1.87698,3.5861,-0.13734,0.70165836,-0.6627790650000001,0.253600425
1764504865.6260812,-1.00716,3.21986,-0.6714399999999999,0.70263492,-0.66601392,0.2539056
1764504865.6260812,-1.00716,3.21986,-0.6714399999999999,0.70263492,-0.66601392,0.2539056
1764504865.6260812,-1.00716,3.21986,-0.6714399999999999,0.70263492,-0.66601392,0.2539056
1764504865.6260812,-1.00716,3.21986,-0.6714399999999999,0.70263492,-0.66601392,0.2539056
1764504865.6260812,-1.00716,3.21986,-0.6714399999999999,0.70263492,-0.66601392,0.2539056
1764504865.6260812,-1.00716,3.21986,-0.6714399999999999,0.70263492,-0.66601392,0.2539056
1764504865.6260812,-1.00716,3.21986,-0.6714399999999999,0.70263492,-0.66601392,0.2539056
1764504865.6260812,-1.00716,3.21986,-0.6714399999999999,0.70263492,-0.66601392,0.2539056
1764504865.6260812,-1.00716,3.21986,-0.6714399999999999,0.70263492,-0.66601392,0.2539056
1764504865.6260812,-1.00716,3.21986,-0.6714399999999999,0.70263492,-0.66601392,0.2539056
1764504865.6260812,2.33478,4.2728,1.17502,0.704771145,-0.671934315,0.25402767
1764504865.6260812,2.33478,4.2728,1.17502,0.704771145,-0.671934315,0.25402767
1764504865.6260812,2.33478,4.2728,1.17502,0.704771145,-0.671934315,0.25402767
1764504865.6260812,2.33478,4.2728,1.17502,0.704771145,-0.671934315,0.25402767
1764504865.671141,2.33478,4.2728,1.17502,0.704771145,-0.671934315,0.25402767
1764504865.671141,2.33478,4.2728,1.17502,0.704771145,-0.671934315,0.25402767
1764504865.671141,2.33478,4.2728,1.17502,0.704771145,-0.671934315,0.25402767
1764504865.671141,2.33478,4.2728,1.17502,0.704771145,-0.671934315,0.25402767
1764504865.671141,2.33478,4.2728,1.17502,0.704771145,-0.671934315,0.25402767
1764504865.671141,2.33478,4.2728,1.17502,0.704771145,-0.671934315,0.25402767
1764504865.671141,1.72438,3.78448,0.03052,0.70446597,-0.670835685,0.25439388
1764504865.671141,1.72438,3.78448,0.03052,0.70446597,-0.670835685,0.25439388
1764504865.6721523,1.72438,3.78448,0.03052,0.70446597,-0.670835685,0.25439388
1764504865.6721523,1.72438,3.78448,0.03052,0.70446597,-0.670835685,0.25439388
1764504865.6721523,1.72438,3.78448,0.03052,0.70446597,-0.670835685,0.25439388
1764504865.6721523,1.72438,3.78448,0.03052,0.70446597,-0.670835685,0.25439388
1764504865.6721523,1.72438,3.78448,0.03052,0.70446597,-0.670835685,0.25439388
1764504865.6721523,1.72438,3.78448,0.03052,0.70446597,-0.670835685,0.25439388
1764504865.6721523,1.72438,3.78448,0.03052,0.70446597,-0.670835685,0.25439388
1764504865.6731677,1.72438,3.78448,0.03052,0.70446597,-0.670835685,0.25439388
1764504865.6731677,0.0,3.26564,0.1678599999999999,0.7025738850000001,-0.66454908,0.254332845
1764504865.6731677,0.0,3.26564,0.1678599999999999,0.7025738850000001,-0.66454908,0.254332845
1764504865.6736782,0.0,3.26564,0.1678599999999999,0.7025738850000001,-0.66454908,0.254332845
1764504865.6736782,0.0,3.26564,0.1678599999999999,0.7025738850000001,-0.66454908,0.254332845
1764504865.6736782,0.0,3.26564,0.1678599999999999,0.7025738850000001,-0.66454908,0.254332845
1764504865.6736782,0.0,3.26564,0.1678599999999999,0.7025738850000001,-0.66454908,0.254332845
1764504865.7192998,0.0,3.26564,0.1678599999999999,0.7025738850000001,-0.66454908,0.254332845
1764504865.7192998,0.0,3.26564,0.1678599999999999,0.7025738850000001,-0.66454908,0.254332845
1764504865.7192998,0.0,3.26564,0.1678599999999999,0.7025738850000001,-0.66454908,0.254332845
1764504865.7192998,0.0,3.26564,0.1678599999999999,0.7025738850000001,-0.66454908,0.254332845
1764504865.7192998,-1.92276,2.5179,0.56462,0.7019025,-0.661924575,0.254821125
1764504865.7203033,-1.92276,2.5179,0.56462,0.7019025,-0.661924575,0.254821125
1764504865.7203033,-1.92276,2.5179,0.56462,0.7019025,-0.661924575,0.254821125
1764504865.7203033,-1.92276,2.5179,0.56462,0.7019025,-0.661924575,0.254821125
1764504865.7203033,-1.92276,2.5179,0.56462,0.7019025,-0.661924575,0.254821125
1764504865.7203033,-1.92276,2.5179,0.56462,0.7019025,-0.661924575,0.254821125
1764504865.7203033,-1.92276,2.5179,0.56462,0.7019025,-0.661924575,0.254821125
1764504865.7203033,-1.92276,2.5179,0.56462,0.7019025,-0.661924575,0.254821125
1764504865.7203033,-1.92276,2.5179,0.56462,0.7019025,-0.661924575,0.254821125
1764504865.7203033,-1.92276,2.5179,0.56462,0.7019025,-0.661924575,0.254821125
1764504865.7203033,-1.0682,2.79258,0.79352,0.70214664,-0.66357252,0.25439388
1764504865.7203033,-1.0682,2.79258,0.79352,0.70214664,-0.66357252,0.25439388
1764504865.7203033,-1.0682,2.79258,0.79352,0.70214664,-0.66357252,0.25439388
1764504865.7203033,-1.0682,2.79258,0.79352,0.70214664,-0.66357252,0.25439388
1764504865.7203033,-1.0682,2.79258,0.79352,0.70214664,-0.66357252,0.25439388
1764504865.7203033,-1.0682,2.79258,0.79352,0.70214664,-0.66357252,0.25439388
1764504865.7203033,-1.0682,2.79258,0.79352,0.70214664,-0.66357252,0.25439388
1764504865.7203033,-1.0682,2.79258,0.79352,0.70214664,-0.66357252,0.25439388
1764504865.7203033,-1.0682,2.79258,0.79352,0.70214664,-0.66357252,0.25439388
1764504865.7203033,-1.0682,2.79258,0.79352,0.70214664,-0.66357252,0.25439388
1764504865.7609851,-0.1678599999999999,3.40298,0.3509799999999999,0.70239078,-0.66467115,0.254210775
1764504865.7609851,-0.1678599999999999,3.40298,0.3509799999999999,0.70239078,-0.66467115,0.254210775
1764504865.7609851,-0.1678599999999999,3.40298,0.3509799999999999,0.70239078,-0.66467115,0.254210775
1764504865.7609851,-0.1678599999999999,3.40298,0.3509799999999999,0.70239078,-0.66467115,0.254210775
1764504865.7609851,-0.1678599999999999,3.40298,0.3509799999999999,0.70239078,-0.66467115,0.254210775
1764504865.7609851,-0.1678599999999999,3.40298,0.3509799999999999,0.70239078,-0.66467115,0.254210775
1764504865.7609851,-0.1678599999999999,3.40298,0.3509799999999999,0.70239078,-0.66467115,0.254210775
1764504865.7609851,-0.1678599999999999,3.40298,0.3509799999999999,0.70239078,-0.66467115,0.254210775
1764504865.7609851,-0.1678599999999999,3.40298,0.3509799999999999,0.70239078,-0.66467115,0.254210775
1764504865.762002,-0.1678599999999999,3.40298,0.3509799999999999,0.70239078,-0.66467115,0.254210775
1764504865.762002,-0.9003399999999999,2.96044,0.62566,0.70165836,-0.6652815,0.25451595
1764504865.762002,-0.9003399999999999,2.96044,0.62566,0.70165836,-0.6652815,0.25451595
1764504865.762002,-0.9003399999999999,2.96044,0.62566,0.70165836,-0.6652815,0.25451595
1764504865.762002,-0.9003399999999999,2.96044,0.62566,0.70165836,-0.6652815,0.25451595
1764504865.762002,-0.9003399999999999,2.96044,0.62566,0.70165836,-0.6652815,0.25451595
1764504865.762002,-0.9003399999999999,2.96044,0.62566,0.70165836,-0.6652815,0.25451595
1764504865.762002,-0.9003399999999999,2.96044,0.62566,0.70165836,-0.6652815,0.25451595
1764504865.762002,-0.9003399999999999,2.96044,0.62566,0.70165836,-0.6652815,0.25451595
1764504865.762002,-0.9003399999999999,2.96044,0.62566,0.70165836,-0.6652815,0.25451595
1764504865.762002,-0.9003399999999999,2.96044,0.62566,0.70165836,-0.6652815,0.25451595
1764504865.762002,-0.88508,3.38772,0.93086,0.701963535,-0.665830815,0.25549251
1764504865.762002,-0.88508,3.38772,0.93086,0.701963535,-0.665830815,0.25549251
1764504865.762002,-0.88508,3.38772,0.93086,0.701963535,-0.665830815,0.25549251
1764504865.762002,-0.88508,3.38772,0.93086,0.701963535,-0.665830815,0.25549251
1764504865.8110929,-0.88508,3.38772,0.93086,0.701963535,-0.665830815,0.25549251
1764504865.8110929,-0.88508,3.38772,0.93086,0.701963535,-0.665830815,0.25549251
1764504865.8110929,-0.88508,3.38772,0.93086,0.701963535,-0.665830815,0.25549251
1764504865.8110929,-0.88508,3.38772,0.93086,0.701963535,-0.665830815,0.25549251
1764504865.8110929,-0.88508,3.38772,0.93086,0.701963535,-0.665830815,0.25549251
1764504865.8110929,-0.88508,3.38772,0.93086,0.701963535,-0.665830815,0.25549251
1764504865.8110929,-1.2055399999999998,2.99096,0.62566,0.701841465,-0.666685305,0.255675615
1764504865.8110929,-1.2055399999999998,2.99096,0.62566,0.701841465,-0.666685305,0.255675615
1764504865.8110929,-1.2055399999999998,2.99096,0.62566,0.701841465,-0.666685305,0.255675615
1764504865.8110929,-1.2055399999999998,2.99096,0.62566,0.701841465,-0.666685305,0.255675615
1764504865.8110929,-1.2055399999999998,2.99096,0.62566,0.701841465,-0.666685305,0.255675615
1764504865.8110929,-1.2055399999999998,2.99096,0.62566,0.701841465,-0.666685305,0.255675615
1764504865.8110929,-1.2055399999999998,2.99096,0.62566,0.701841465,-0.666685305,0.255675615
1764504865.8110929,-1.2055399999999998,2.99096,0.62566,0.701841465,-0.666685305,0.255675615
1764504865.8110929,-1.2055399999999998,2.99096,0.62566,0.701841465,-0.666685305,0.255675615
1764504865.8110929,-1.2055399999999998,2.99096,0.62566,0.701841465,-0.666685305,0.255675615
1764504865.8110929,-2.10588,2.96044,0.59514,0.70178043,-0.666807375,0.255431475
1764504865.8110929,-2.10588,2.96044,0.59514,0.70178043,-0.666807375,0.255431475
1764504865.8110929,-2.10588,2.96044,0.59514,0.70178043,-0.666807375,0.255431475
1764504865.8110929,-2.10588,2.96044,0.59514,0.70178043,-0.666807375,0.255431475
1764504865.8110929,-2.10588,2.96044,0.59514,0.70178043,-0.666807375,0.255431475
1764504865.8110929,-2.10588,2.96044,0.59514,0.70178043,-0.666807375,0.255431475
1764504865.854207,-2.10588,2.96044,0.59514,0.70178043,-0.666807375,0.255431475
1764504865.854207,-2.10588,2.96044,0.59514,0.70178043,-0.666807375,0.255431475
1764504865.854207,-2.10588,2.96044,0.59514,0.70178043,-0.666807375,0.255431475
1764504865.854207,-2.10588,2.96044,0.59514,0.70178043,-0.666807375,0.255431475
1764504865.854207,-1.99906,3.29616,0.09156,0.701841465,-0.666319095,0.253844565
1764504865.854207,-1.99906,3.29616,0.09156,0.701841465,-0.666319095,0.253844565
1764504865.854207,-1.99906,3.29616,0.09156,0.701841465,-0.666319095,0.253844565
1764504865.854207,-1.99906,3.29616,0.09156,0.701841465,-0.666319095,0.253844565
1764504865.854207,-1.99906,3.29616,0.09156,0.701841465,-0.666319095,0.253844565
1764504865.8552225,-1.99906,3.29616,0.09156,0.701841465,-0.666319095,0.253844565
1764504865.8552225,-1.99906,3.29616,0.09156,0.701841465,-0.666319095,0.253844565
1764504865.8552225,-1.99906,3.29616,0.09156,0.701841465,-0.666319095,0.253844565
1764504865.8552225,-1.99906,3.29616,0.09156,0.701841465,-0.666319095,0.253844565
1764504865.8552225,-1.99906,3.29616,0.09156,0.701841465,-0.666319095,0.253844565
1764504865.8552225,-1.32762,4.28806,0.12208,0.701841465,-0.666685305,0.25353939
1764504865.8552225,-1.32762,4.28806,0.12208,0.701841465,-0.666685305,0.25353939
1764504865.8552225,-1.32762,4.28806,0.12208,0.701841465,-0.666685305,0.25353939
1764504865.8552225,-1.32762,4.28806,0.12208,0.701841465,-0.666685305,0.25353939
1764504865.8552225,-1.32762,4.28806,0.12208,0.701841465,-0.666685305,0.25353939
1764504865.8552225,-1.32762,4.28806,0.12208,0.701841465,-0.666685305,0.25353939
1764504865.8552225,-1.32762,4.28806,0.12208,0.701841465,-0.666685305,0.25353939
1764504865.8552225,-1.32762,4.28806,0.12208,0.701841465,-0.666685305,0.25353939
1764504865.9000094,-1.32762,4.28806,0.12208,0.701841465,-0.666685305,0.25353939
1764504865.9000094,-1.32762,4.28806,0.12208,0.701841465,-0.666685305,0.25353939
1764504865.9000094,-0.3357199999999999,4.21176,0.0762999999999999,0.70202457,-0.6664411650000001,0.25341732
1764504865.9000094,-0.3357199999999999,4.21176,0.0762999999999999,0.70202457,-0.6664411650000001,0.25341732
1764504865.9000094,-0.3357199999999999,4.21176,0.0762999999999999,0.70202457,-0.6664411650000001,0.25341732
1764504865.9000094,-0.3357199999999999,4.21176,0.0762999999999999,0.70202457,-0.6664411650000001,0.25341732
1764504865.9000094,-0.3357199999999999,4.21176,0.0762999999999999,0.70202457,-0.6664411650000001,0.25341732
1764504865.9000094,-0.3357199999999999,4.21176,0.0762999999999999,0.70202457,-0.6664411650000001,0.25341732
1764504865.9000094,-0.3357199999999999,4.21176,0.0762999999999999,0.70202457,-0.6664411650000001,0.25341732
1764504865.9000094,-0.3357199999999999,4.21176,0.0762999999999999,0.70202457,-0.6664411650000001,0.25341732
1764504865.9000094,-0.3357199999999999,4.21176,0.0762999999999999,0.70202457,-0.6664411650000001,0.25341732
1764504865.9000094,-0.3357199999999999,4.21176,0.0762999999999999,0.70202457,-0.6664411650000001,0.25341732
1764504865.9021409,-0.24416,3.2046,-0.50358,0.70336734,-0.666197025,0.25329525
1764504865.9021409,-0.24416,3.2046,-0.50358,0.70336734,-0.666197025,0.25329525
1764504865.9021409,-0.24416,3.2046,-0.50358,0.70336734,-0.666197025,0.25329525
1764504865.9021409,-0.24416,3.2046,-0.50358,0.70336734,-0.666197025,0.25329525
1764504865.9021409,-0.24416,3.2046,-0.50358,0.70336734,-0.666197025,0.25329525
1764504865.9021409,-0.24416,3.2046,-0.50358,0.70336734,-0.666197025,0.25329525
1764504865.9021409,-0.24416,3.2046,-0.50358,0.70336734,-0.666197025,0.25329525
1764504865.9021409,-0.24416,3.2046,-0.50358,0.70336734,-0.666197025,0.25329525
1764504865.9021409,-0.24416,3.2046,-0.50358,0.70336734,-0.666197025,0.25329525
1764504865.9021409,-0.24416,3.2046,-0.50358,0.70336734,-0.666197025,0.25329525
1764504865.9021409,-1.15976,3.54032,-0.27468,0.7031232000000001,-0.665830815,0.253478355
1764504865.9021409,-1.15976,3.54032,-0.27468,0.7031232000000001,-0.665830815,0.253478355
1764504865.950935,-1.15976,3.54032,-0.27468,0.7031232000000001,-0.665830815,0.253478355
1764504865.950935,-1.15976,3.54032,-0.27468,0.7031232000000001,-0.665830815,0.253478355
1764504865.950935,-1.15976,3.54032,-0.27468,0.7031232000000001,-0.665830815,0.253478355
1764504865.950935,-1.15976,3.54032,-0.27468,0.7031232000000001,-0.665830815,0.253478355
1764504865.950935,-1.15976,3.54032,-0.27468,0.7031232000000001,-0.665830815,0.253478355
1764504865.950935,-1.15976,3.54032,-0.27468,0.7031232000000001,-0.665830815,0.253478355
1764504865.950935,-1.15976,3.54032,-0.27468,0.7031232000000001,-0.665830815,0.253478355
1764504865.950935,-1.15976,3.54032,-0.27468,0.7031232000000001,-0.665830815,0.253478355
1764504865.950935,-0.8087799999999999,3.47928,-0.04578,0.703184235,-0.66625806,0.253356285
1764504865.952242,-0.8087799999999999,3.47928,-0.04578,0.703184235,-0.66625806,0.253356285
1764504865.952242,-0.8087799999999999,3.47928,-0.04578,0.703184235,-0.66625806,0.253356285
1764504865.952242,-0.8087799999999999,3.47928,-0.04578,0.703184235,-0.66625806,0.253356285
1764504865.952242,-0.8087799999999999,3.47928,-0.04578,0.703184235,-0.66625806,0.253356285
1764504865.952242,-0.8087799999999999,3.47928,-0.04578,0.703184235,-0.66625806,0.253356285
1764504865.952242,-0.8087799999999999,3.47928,-0.04578,0.703184235,-0.66625806,0.253356285
1764504865.952242,-0.8087799999999999,3.47928,-0.04578,0.703184235,-0.66625806,0.253356285
1764504865.952242,-0.8087799999999999,3.47928,-0.04578,0.703184235,-0.66625806,0.253356285
1764504865.952242,-0.8087799999999999,3.47928,-0.04578,0.703184235,-0.66625806,0.253356285
1764504865.952242,-0.06104,3.49454,0.7019599999999999,0.703306305,-0.665464605,0.25378353
1764504865.952242,-0.06104,3.49454,0.7019599999999999,0.703306305,-0.665464605,0.25378353
1764504865.952242,-0.06104,3.49454,0.7019599999999999,0.703306305,-0.665464605,0.25378353
1764504865.952242,-0.06104,3.49454,0.7019599999999999,0.703306305,-0.665464605,0.25378353
1764504865.952242,-0.06104,3.49454,0.7019599999999999,0.703306305,-0.665464605,0.25378353
1764504865.952242,-0.06104,3.49454,0.7019599999999999,0.703306305,-0.665464605,0.25378353
1764504865.9989927,-0.06104,3.49454,0.7019599999999999,0.703306305,-0.665464605,0.25378353
1764504865.9989927,-0.06104,3.49454,0.7019599999999999,0.703306305,-0.665464605,0.25378353
1764504865.9989927,-0.06104,3.49454,0.7019599999999999,0.703306305,-0.665464605,0.25378353
1764504865.9989927,-0.06104,3.49454,0.7019599999999999,0.703306305,-0.665464605,0.25378353
1764504865.9989927,0.3509799999999999,3.49454,1.3734,0.70300113,-0.665464605,0.254210775
1764504865.9989927,0.3509799999999999,3.49454,1.3734,0.70300113,-0.665464605,0.254210775
1764504865.9989927,0.3509799999999999,3.49454,1.3734,0.70300113,-0.665464605,0.254210775
1764504865.9989927,0.3509799999999999,3.49454,1.3734,0.70300113,-0.665464605,0.254210775
1764504865.9989927,0.3509799999999999,3.49454,1.3734,0.70300113,-0.665464605,0.254210775
1764504865.9989927,0.3509799999999999,3.49454,1.3734,0.70300113,-0.665464605,0.254210775
1764504865.9989927,0.3509799999999999,3.49454,1.3734,0.70300113,-0.665464605,0.254210775
1764504865.9989927,0.3509799999999999,3.49454,1.3734,0.70300113,-0.665464605,0.254210775
1764504865.9989927,0.3509799999999999,3.49454,1.3734,0.70300113,-0.665464605,0.254210775
1764504865.9989927,0.3509799999999999,3.49454,1.3734,0.70300113,-0.665464605,0.254210775
1764504865.9989927,0.0762999999999999,7.76734,1.34288,0.703062165,-0.665708745,0.254576985
1764504865.9989927,0.0762999999999999,7.76734,1.34288,0.703062165,-0.665708745,0.254576985
1764504865.9989927,0.0762999999999999,7.76734,1.34288,0.703062165,-0.665708745,0.254576985
1764504865.9999986,0.0762999999999999,7.76734,1.34288,0.703062165,-0.665708745,0.254576985
1764504865.9999986,0.0762999999999999,7.76734,1.34288,0.703062165,-0.665708745,0.254576985
1764504865.9999986,0.0762999999999999,7.76734,1.34288,0.703062165,-0.665708745,0.254576985
1764504865.9999986,0.0762999999999999,7.76734,1.34288,0.703062165,-0.665708745,0.254576985
1764504865.9999986,0.0762999999999999,7.76734,1.34288,0.703062165,-0.665708745,0.254576985
1764504865.9999986,0.0762999999999999,7.76734,1.34288,0.703062165,-0.665708745,0.254576985
1764504865.9999986,0.0762999999999999,7.76734,1.34288,0.703062165,-0.665708745,0.254576985
1764504866.0450404,0.10682,3.69292,1.32762,0.702940095,-0.66564771,0.25476009
1764504866.0450404,0.10682,3.69292,1.32762,0.702940095,-0.66564771,0.25476009
1764504866.0450404,0.10682,3.69292,1.32762,0.702940095,-0.66564771,0.25476009
1764504866.046039,0.10682,3.69292,1.32762,0.702940095,-0.66564771,0.25476009
1764504866.046039,0.10682,3.69292,1.32762,0.702940095,-0.66564771,0.25476009
1764504866.046039,0.10682,3.69292,1.32762,0.702940095,-0.66564771,0.25476009
1764504866.046039,0.10682,3.69292,1.32762,0.702940095,-0.66564771,0.25476009
1764504866.046039,0.10682,3.69292,1.32762,0.702940095,-0.66564771,0.25476009
1764504866.046039,0.10682,3.69292,1.32762,0.702940095,-0.66564771,0.25476009
1764504866.046039,0.10682,3.69292,1.32762,0.702940095,-0.66564771,0.25476009
1764504866.046039,0.6867,4.36436,1.55652,0.70275699,-0.665830815,0.254210775
1764504866.046039,0.6867,4.36436,1.55652,0.70275699,-0.665830815,0.254210775
1764504866.046039,0.6867,4.36436,1.55652,0.70275699,-0.665830815,0.254210775
1764504866.046039,0.6867,4.36436,1.55652,0.70275699,-0.665830815,0.254210775
1764504866.046039,0.6867,4.36436,1.55652,0.70275699,-0.665830815,0.254210775
1764504866.046039,0.6867,4.36436,1.55652,0.70275699,-0.665830815,0.254210775
1764504866.0470378,0.6867,4.36436,1.55652,0.70275699,-0.665830815,0.254210775
1764504866.0470378,0.6867,4.36436,1.55652,0.70275699,-0.665830815,0.254210775
1764504866.0470378,0.6867,4.36436,1.55652,0.70275699,-0.665830815,0.254210775
1764504866.0470378,0.6867,4.36436,1.55652,0.70275699,-0.665830815,0.254210775
1764504866.0470378,0.74774,4.18124,1.73964,0.70239078,-0.665952885,0.254821125
1764504866.0470378,0.74774,4.18124,1.73964,0.70239078,-0.665952885,0.254821125
1764504866.0470378,0.74774,4.18124,1.73964,0.70239078,-0.665952885,0.254821125
1764504866.0470378,0.74774,4.18124,1.73964,0.70239078,-0.665952885,0.254821125
1764504866.088566,0.74774,4.18124,1.73964,0.70239078,-0.665952885,0.254821125
1764504866.088566,0.74774,4.18124,1.73964,0.70239078,-0.665952885,0.254821125
1764504866.088566,0.74774,4.18124,1.73964,0.70239078,-0.665952885,0.254821125
1764504866.088566,0.74774,4.18124,1.73964,0.70239078,-0.665952885,0.254821125
1764504866.088566,0.74774,4.18124,1.73964,0.70239078,-0.665952885,0.254821125
1764504866.088566,0.74774,4.18124,1.73964,0.70239078,-0.665952885,0.254821125
1764504866.0906014,0.01526,3.70818,1.34288,0.70239078,-0.666563235,0.255553545
1764504866.0906014,0.01526,3.70818,1.34288,0.70239078,-0.666563235,0.255553545
1764504866.0906014,0.01526,3.70818,1.34288,0.70239078,-0.666563235,0.255553545
1764504866.0906014,0.01526,3.70818,1.34288,0.70239078,-0.666563235,0.255553545
1764504866.092128,0.01526,3.70818,1.34288,0.70239078,-0.666563235,0.255553545
1764504866.092128,0.01526,3.70818,1.34288,0.70239078,-0.666563235,0.255553545
1764504866.092128,0.01526,3.70818,1.34288,0.70239078,-0.666563235,0.255553545
1764504866.092128,0.01526,3.70818,1.34288,0.70239078,-0.666563235,0.255553545
1764504866.092128,0.01526,3.70818,1.34288,0.70239078,-0.666563235,0.255553545
1764504866.092128,0.01526,3.70818,1.34288,0.70239078,-0.666563235,0.255553545
1764504866.092128,-0.28994,4.21176,1.4497,0.70251285,-0.66638013,0.255065265
1764504866.092128,-0.28994,4.21176,1.4497,0.70251285,-0.66638013,0.255065265
1764504866.092128,-0.28994,4.21176,1.4497,0.70251285,-0.66638013,0.255065265
1764504866.092128,-0.28994,4.21176,1.4497,0.70251285,-0.66638013,0.255065265
1764504866.092128,-0.28994,4.21176,1.4497,0.70251285,-0.66638013,0.255065265
1764504866.092128,-0.28994,4.21176,1.4497,0.70251285,-0.66638013,0.255065265
1764504866.1384397,-0.28994,4.21176,1.4497,0.70251285,-0.66638013,0.255065265
1764504866.1384397,-0.28994,4.21176,1.4497,0.70251285,-0.66638013,0.255065265
1764504866.1384397,-0.28994,4.21176,1.4497,0.70251285,-0.66638013,0.255065265
1764504866.1384397,-0.28994,4.21176,1.4497,0.70251285,-0.66638013,0.255065265
1764504866.1384397,-0.25942,3.72344,1.26658,0.70178043,-0.665952885,0.25585872
1764504866.1384397,-0.25942,3.72344,1.26658,0.70178043,-0.665952885,0.25585872
1764504866.1384397,-0.25942,3.72344,1.26658,0.70178043,-0.665952885,0.25585872
1764504866.1384397,-0.25942,3.72344,1.26658,0.70178043,-0.665952885,0.25585872
1764504866.1384397,-0.25942,3.72344,1.26658,0.70178043,-0.665952885,0.25585872
1764504866.1384397,-0.25942,3.72344,1.26658,0.70178043,-0.665952885,0.25585872
1764504866.1384397,-0.25942,3.72344,1.26658,0.70178043,-0.665952885,0.25585872
1764504866.1384397,-0.25942,3.72344,1.26658,0.70178043,-0.665952885,0.25585872
1764504866.1384397,-0.25942,3.72344,1.26658,0.70178043,-0.665952885,0.25585872
1764504866.1384397,-0.25942,3.72344,1.26658,0.70178043,-0.665952885,0.25585872
1764504866.1384397,-0.59514,3.54032,0.94612,0.701841465,-0.665952885,0.25585872
1764504866.1394508,-0.59514,3.54032,0.94612,0.701841465,-0.665952885,0.25585872
1764504866.1394508,-0.59514,3.54032,0.94612,0.701841465,-0.665952885,0.25585872
1764504866.1394508,-0.59514,3.54032,0.94612,0.701841465,-0.665952885,0.25585872
1764504866.1394508,-0.59514,3.54032,0.94612,0.701841465,-0.665952885,0.25585872
1764504866.1394508,-0.59514,3.54032,0.94612,0.701841465,-0.665952885,0.25585872
1764504866.1394508,-0.59514,3.54032,0.94612,0.701841465,-0.665952885,0.25585872
1764504866.1394508,-0.59514,3.54032,0.94612,0.701841465,-0.665952885,0.25585872
1764504866.1394508,-0.59514,3.54032,0.94612,0.701841465,-0.665952885,0.25585872
1764504866.1394508,-0.59514,3.54032,0.94612,0.701841465,-0.665952885,0.25585872
1764504866.1832445,-0.5341,3.92182,0.57988,0.70202457,-0.666807375,0.25585872
1764504866.1832445,-0.5341,3.92182,0.57988,0.70202457,-0.666807375,0.25585872
1764504866.1842723,-0.5341,3.92182,0.57988,0.70202457,-0.666807375,0.25585872
1764504866.1842723,-0.5341,3.92182,0.57988,0.70202457,-0.666807375,0.25585872
1764504866.1842723,-0.5341,3.92182,0.57988,0.70202457,-0.666807375,0.25585872
1764504866.1842723,-0.5341,3.92182,0.57988,0.70202457,-0.666807375,0.25585872
1764504866.1842723,-0.5341,3.92182,0.57988,0.70202457,-0.666807375,0.25585872
1764504866.1842723,-0.5341,3.92182,0.57988,0.70202457,-0.666807375,0.25585872
1764504866.1842723,-0.5341,3.92182,0.57988,0.70202457,-0.666807375,0.25585872
1764504866.1842723,-0.5341,3.92182,0.57988,0.70202457,-0.666807375,0.25585872
1764504866.1842723,-0.79352,4.01338,0.82404,0.701963535,-0.66686841,0.255797685
1764504866.1842723,-0.79352,4.01338,0.82404,0.701963535,-0.66686841,0.255797685
1764504866.1842723,-0.79352,4.01338,0.82404,0.701963535,-0.66686841,0.255797685
1764504866.1842723,-0.79352,4.01338,0.82404,0.701963535,-0.66686841,0.255797685
1764504866.1842723,-0.79352,4.01338,0.82404,0.701963535,-0.66686841,0.255797685
1764504866.1842723,-0.79352,4.01338,0.82404,0.701963535,-0.66686841,0.255797685
1764504866.1853094,-0.79352,4.01338,0.82404,0.701963535,-0.66686841,0.255797685
1764504866.1853094,-0.79352,4.01338,0.82404,0.701963535,-0.66686841,0.255797685
1764504866.1853094,-0.79352,4.01338,0.82404,0.701963535,-0.66686841,0.255797685
1764504866.1853094,-0.79352,4.01338,0.82404,0.701963535,-0.66686841,0.255797685
1764504866.1853094,-0.763,3.2046,1.26658,0.70165836,-0.66674634,0.255675615
1764504866.1863024,-0.763,3.2046,1.26658,0.70165836,-0.66674634,0.255675615
1764504866.2301762,-0.763,3.2046,1.26658,0.70165836,-0.66674634,0.255675615
1764504866.2301762,-0.763,3.2046,1.26658,0.70165836,-0.66674634,0.255675615
1764504866.2301762,-0.763,3.2046,1.26658,0.70165836,-0.66674634,0.255675615
1764504866.2301762,-0.763,3.2046,1.26658,0.70165836,-0.66674634,0.255675615
1764504866.2301762,-0.763,3.2046,1.26658,0.70165836,-0.66674634,0.255675615
1764504866.2311895,-0.763,3.2046,1.26658,0.70165836,-0.66674634,0.255675615
1764504866.2311895,-0.763,3.2046,1.26658,0.70165836,-0.66674634,0.255675615
1764504866.2311895,-0.763,3.2046,1.26658,0.70165836,-0.66674634,0.255675615
1764504866.2311895,-0.79352,3.6624,1.35814,0.702207675,-0.665952885,0.25573665
1764504866.2311895,-0.79352,3.6624,1.35814,0.702207675,-0.665952885,0.25573665
1764504866.2311895,-0.79352,3.6624,1.35814,0.702207675,-0.665952885,0.25573665
1764504866.2311895,-0.79352,3.6624,1.35814,0.702207675,-0.665952885,0.25573665
1764504866.2311895,-0.79352,3.6624,1.35814,0.702207675,-0.665952885,0.25573665
1764504866.2311895,-0.79352,3.6624,1.35814,0.702207675,-0.665952885,0.25573665
1764504866.2311895,-0.79352,3.6624,1.35814,0.702207675,-0.665952885,0.25573665
1764504866.2311895,-0.79352,3.6624,1.35814,0.702207675,-0.665952885,0.25573665
1764504866.2311895,-0.79352,3.6624,1.35814,0.702207675,-0.665952885,0.25573665
1764504866.2311895,-0.79352,3.6624,1.35814,0.702207675,-0.665952885,0.25573665
1764504866.2311895,-0.48832,3.5098,1.12924,0.70141422,-0.66576978,0.25610286
1764504866.2311895,-0.48832,3.5098,1.12924,0.70141422,-0.66576978,0.25610286
1764504866.2311895,-0.48832,3.5098,1.12924,0.70141422,-0.66576978,0.25610286
1764504866.2321973,-0.48832,3.5098,1.12924,0.70141422,-0.66576978,0.25610286
1764504866.2321973,-0.48832,3.5098,1.12924,0.70141422,-0.66576978,0.25610286
1764504866.2321973,-0.48832,3.5098,1.12924,0.70141422,-0.66576978,0.25610286
1764504866.2760656,-0.48832,3.5098,1.12924,0.70141422,-0.66576978,0.25610286
1764504866.2765768,-0.48832,3.5098,1.12924,0.70141422,-0.66576978,0.25610286
1764504866.2765768,-0.48832,3.5098,1.12924,0.70141422,-0.66576978,0.25610286
1764504866.2765768,-0.48832,3.5098,1.12924,0.70141422,-0.66576978,0.25610286
1764504866.2765768,-0.19838,3.2809,1.41918,0.70178043,-0.666563235,0.255797685
1764504866.2765768,-0.19838,3.2809,1.41918,0.70178043,-0.666563235,0.255797685
1764504866.2765768,-0.19838,3.2809,1.41918,0.70178043,-0.666563235,0.255797685
1764504866.2765768,-0.19838,3.2809,1.41918,0.70178043,-0.666563235,0.255797685
1764504866.2765768,-0.19838,3.2809,1.41918,0.70178043,-0.666563235,0.255797685
1764504866.2765768,-0.19838,3.2809,1.41918,0.70178043,-0.666563235,0.255797685
1764504866.2765768,-0.19838,3.2809,1.41918,0.70178043,-0.666563235,0.255797685
1764504866.2765768,-0.19838,3.2809,1.41918,0.70178043,-0.666563235,0.255797685
1764504866.2765768,-0.19838,3.2809,1.41918,0.70178043,-0.666563235,0.255797685
1764504866.2765768,-0.19838,3.2809,1.41918,0.70178043,-0.666563235,0.255797685
1764504866.2765768,-0.03052,2.45686,1.72438,0.7019025,-0.66564771,0.25585872
1764504866.2765768,-0.03052,2.45686,1.72438,0.7019025,-0.66564771,0.25585872
1764504866.2765768,-0.03052,2.45686,1.72438,0.7019025,-0.66564771,0.25585872
1764504866.2765768,-0.03052,2.45686,1.72438,0.7019025,-0.66564771,0.25585872
1764504866.2765768,-0.03052,2.45686,1.72438,0.7019025,-0.66564771,0.25585872
1764504866.2765768,-0.03052,2.45686,1.72438,0.7019025,-0.66564771,0.25585872
1764504866.2765768,-0.03052,2.45686,1.72438,0.7019025,-0.66564771,0.25585872
1764504866.2765768,-0.03052,2.45686,1.72438,0.7019025,-0.66564771,0.25585872
1764504866.2765768,-0.03052,2.45686,1.72438,0.7019025,-0.66564771,0.25585872
1764504866.2765768,-0.03052,2.45686,1.72438,0.7019025,-0.66564771,0.25585872
1764504866.324828,-0.28994,3.2809,2.42634,0.7006818,-0.665952885,0.255919755
1764504866.324828,-0.28994,3.2809,2.42634,0.7006818,-0.665952885,0.255919755
1764504866.324828,-0.28994,3.2809,2.42634,0.7006818,-0.665952885,0.255919755
1764504866.324828,-0.28994,3.2809,2.42634,0.7006818,-0.665952885,0.255919755
1764504866.324828,-0.28994,3.2809,2.42634,0.7006818,-0.665952885,0.255919755
1764504866.324828,-0.28994,3.2809,2.42634,0.7006818,-0.665952885,0.255919755
1764504866.324828,-0.28994,3.2809,2.42634,0.7006818,-0.665952885,0.255919755
1764504866.324828,-0.28994,3.2809,2.42634,0.7006818,-0.665952885,0.255919755
1764504866.324828,-0.28994,3.2809,2.42634,0.7006818,-0.665952885,0.255919755
1764504866.324828,-0.28994,3.2809,2.42634,0.7006818,-0.665952885,0.255919755
1764504866.324828,0.12208,4.21176,2.42634,0.70080387,-0.66613599,0.25537044
1764504866.324828,0.12208,4.21176,2.42634,0.70080387,-0.66613599,0.25537044
1764504866.324828,0.12208,4.21176,2.42634,0.70080387,-0.66613599,0.25537044
1764504866.324828,0.12208,4.21176,2.42634,0.70080387,-0.66613599,0.25537044
1764504866.324828,0.12208,4.21176,2.42634,0.70080387,-0.66613599,0.25537044
1764504866.324828,0.12208,4.21176,2.42634,0.70080387,-0.66613599,0.25537044
1764504866.324828,0.12208,4.21176,2.42634,0.70080387,-0.66613599,0.25537044
1764504866.324828,0.12208,4.21176,2.42634,0.70080387,-0.66613599,0.25537044
1764504866.324828,0.12208,4.21176,2.42634,0.70080387,-0.66613599,0.25537044
1764504866.324828,0.12208,4.21176,2.42634,0.70080387,-0.66613599,0.25537044
1764504866.324828,1.02242,4.41014,1.55652,0.701231115,-0.66735669,0.2551263
1764504866.324828,1.02242,4.41014,1.55652,0.701231115,-0.66735669,0.2551263
1764504866.324828,1.02242,4.41014,1.55652,0.701231115,-0.66735669,0.2551263
1764504866.324828,1.02242,4.41014,1.55652,0.701231115,-0.66735669,0.2551263
1764504866.3687482,1.02242,4.41014,1.55652,0.701231115,-0.66735669,0.2551263
1764504866.3687482,1.02242,4.41014,1.55652,0.701231115,-0.66735669,0.2551263
1764504866.3687482,1.02242,4.41014,1.55652,0.701231115,-0.66735669,0.2551263
1764504866.3687482,1.02242,4.41014,1.55652,0.701231115,-0.66735669,0.2551263
1764504866.3692577,1.02242,4.41014,1.55652,0.701231115,-0.66735669,0.2551263
1764504866.3692577,1.02242,4.41014,1.55652,0.701231115,-0.66735669,0.2551263
1764504866.3692577,0.50358,2.9757,0.77826,0.70104801,-0.668028075,0.256163895
1764504866.3692577,0.50358,2.9757,0.77826,0.70104801,-0.668028075,0.256163895
1764504866.3692577,0.50358,2.9757,0.77826,0.70104801,-0.668028075,0.256163895
1764504866.3692577,0.50358,2.9757,0.77826,0.70104801,-0.668028075,0.256163895
1764504866.3692577,0.50358,2.9757,0.77826,0.70104801,-0.668028075,0.256163895
1764504866.3692577,0.50358,2.9757,0.77826,0.70104801,-0.668028075,0.256163895
1764504866.3692577,0.50358,2.9757,0.77826,0.70104801,-0.668028075,0.256163895
1764504866.3692577,0.50358,2.9757,0.77826,0.70104801,-0.668028075,0.256163895
1764504866.3692577,0.50358,2.9757,0.77826,0.70104801,-0.668028075,0.256163895
1764504866.3692577,0.50358,2.9757,0.77826,0.70104801,-0.668028075,0.256163895
1764504866.3692577,-0.8087799999999999,3.1283,0.41202,0.70043766,-0.668028075,0.25732356
1764504866.3692577,-0.8087799999999999,3.1283,0.41202,0.70043766,-0.668028075,0.25732356
1764504866.3692577,-0.8087799999999999,3.1283,0.41202,0.70043766,-0.668028075,0.25732356
1764504866.3692577,-0.8087799999999999,3.1283,0.41202,0.70043766,-0.668028075,0.25732356
1764504866.369763,-0.8087799999999999,3.1283,0.41202,0.70043766,-0.668028075,0.25732356
1764504866.369763,-0.8087799999999999,3.1283,0.41202,0.70043766,-0.668028075,0.25732356
1764504866.4165263,-0.8087799999999999,3.1283,0.41202,0.70043766,-0.668028075,0.25732356
1764504866.417035,-0.8087799999999999,3.1283,0.41202,0.70043766,-0.668028075,0.25732356
1764504866.417035,-0.8087799999999999,3.1283,0.41202,0.70043766,-0.668028075,0.25732356
1764504866.417035,-0.8087799999999999,3.1283,0.41202,0.70043766,-0.668028075,0.25732356
1764504866.417035,-1.55652,3.44876,0.01526,0.70104801,-0.667661865,0.25707942
1764504866.417035,-1.55652,3.44876,0.01526,0.70104801,-0.667661865,0.25707942
1764504866.417035,-1.55652,3.44876,0.01526,0.70104801,-0.667661865,0.25707942
1764504866.417035,-1.55652,3.44876,0.01526,0.70104801,-0.667661865,0.25707942
1764504866.417035,-1.55652,3.44876,0.01526,0.70104801,-0.667661865,0.25707942
1764504866.417035,-1.55652,3.44876,0.01526,0.70104801,-0.667661865,0.25707942
1764504866.417035,-1.55652,3.44876,0.01526,0.70104801,-0.667661865,0.25707942
1764504866.417035,-1.55652,3.44876,0.01526,0.70104801,-0.667661865,0.25707942
1764504866.417035,-1.55652,3.44876,0.01526,0.70104801,-0.667661865,0.25707942
1764504866.417035,-1.55652,3.44876,0.01526,0.70104801,-0.667661865,0.25707942
1764504866.417035,-0.8698199999999999,3.49454,0.36624,0.700254555,-0.666685305,0.25646907
1764504866.417035,-0.8698199999999999,3.49454,0.36624,0.700254555,-0.666685305,0.25646907
1764504866.417035,-0.8698199999999999,3.49454,0.36624,0.700254555,-0.666685305,0.25646907
1764504866.417035,-0.8698199999999999,3.49454,0.36624,0.700254555,-0.666685305,0.25646907
1764504866.417035,-0.8698199999999999,3.49454,0.36624,0.700254555,-0.666685305,0.25646907
1764504866.417035,-0.8698199999999999,3.49454,0.36624,0.700254555,-0.666685305,0.25646907
1764504866.417035,-0.8698199999999999,3.49454,0.36624,0.700254555,-0.666685305,0.25646907
1764504866.417035,-0.8698199999999999,3.49454,0.36624,0.700254555,-0.666685305,0.25646907
1764504866.4643729,-0.8698199999999999,3.49454,0.36624,0.700254555,-0.666685305,0.25646907
1764504866.4643729,-0.8698199999999999,3.49454,0.36624,0.700254555,-0.666685305,0.25646907
1764504866.4643729,0.0762999999999999,3.67766,1.1445,0.7006818,-0.66699048,0.25610286
1764504866.4643729,0.0762999999999999,3.67766,1.1445,0.7006818,-0.66699048,0.25610286
1764504866.4643729,0.0762999999999999,3.67766,1.1445,0.7006818,-0.66699048,0.25610286
1764504866.4643729,0.0762999999999999,3.67766,1.1445,0.7006818,-0.66699048,0.25610286
1764504866.464891,0.0762999999999999,3.67766,1.1445,0.7006818,-0.66699048,0.25610286
1764504866.464891,0.0762999999999999,3.67766,1.1445,0.7006818,-0.66699048,0.25610286
1764504866.464891,0.0762999999999999,3.67766,1.1445,0.7006818,-0.66699048,0.25610286
1764504866.464891,0.0762999999999999,3.67766,1.1445,0.7006818,-0.66699048,0.25610286
1764504866.464891,0.0762999999999999,3.67766,1.1445,0.7006818,-0.66699048,0.25610286
1764504866.464891,0.0762999999999999,3.67766,1.1445,0.7006818,-0.66699048,0.25610286
1764504866.464891,0.27468,3.69292,1.09872,0.701109045,-0.66735669,0.255797685
1764504866.464891,0.27468,3.69292,1.09872,0.701109045,-0.66735669,0.255797685
1764504866.464891,0.27468,3.69292,1.09872,0.701109045,-0.66735669,0.255797685
1764504866.464891,0.27468,3.69292,1.09872,0.701109045,-0.66735669,0.255797685
1764504866.464891,0.27468,3.69292,1.09872,0.701109045,-0.66735669,0.255797685
1764504866.464891,0.27468,3.69292,1.09872,0.701109045,-0.66735669,0.255797685
1764504866.464891,0.27468,3.69292,1.09872,0.701109045,-0.66735669,0.255797685
1764504866.464891,0.27468,3.69292,1.09872,0.701109045,-0.66735669,0.255797685
1764504866.464891,0.27468,3.69292,1.09872,0.701109045,-0.66735669,0.255797685
1764504866.464891,0.27468,3.69292,1.09872,0.701109045,-0.66735669,0.255797685
1764504866.464891,-0.25942,3.32668,1.12924,0.701475255,-0.666807375,0.25622493
1764504866.464891,-0.25942,3.32668,1.12924,0.701475255,-0.666807375,0.25622493
1764504866.5107143,-0.25942,3.32668,1.12924,0.701475255,-0.666807375,0.25622493
1764504866.5107143,-0.25942,3.32668,1.12924,0.701475255,-0.666807375,0.25622493
1764504866.5107143,-0.25942,3.32668,1.12924,0.701475255,-0.666807375,0.25622493
1764504866.5107143,-0.25942,3.32668,1.12924,0.701475255,-0.666807375,0.25622493
1764504866.5107143,-0.25942,3.32668,1.12924,0.701475255,-0.666807375,0.25622493
1764504866.5107143,-0.25942,3.32668,1.12924,0.701475255,-0.666807375,0.25622493
1764504866.5107143,-0.25942,3.32668,1.12924,0.701475255,-0.666807375,0.25622493
1764504866.5107143,-0.25942,3.32668,1.12924,0.701475255,-0.666807375,0.25622493
1764504866.5107143,-0.25942,3.3572,0.73248,0.70117008,-0.6664411650000001,0.25646907
1764504866.5107143,-0.25942,3.3572,0.73248,0.70117008,-0.6664411650000001,0.25646907
1764504866.5107143,-0.25942,3.3572,0.73248,0.70117008,-0.6664411650000001,0.25646907
1764504866.5107143,-0.25942,3.3572,0.73248,0.70117008,-0.6664411650000001,0.25646907
1764504866.5107143,-0.25942,3.3572,0.73248,0.70117008,-0.6664411650000001,0.25646907
1764504866.5107143,-0.25942,3.3572,0.73248,0.70117008,-0.6664411650000001,0.25646907
1764504866.5107143,-0.25942,3.3572,0.73248,0.70117008,-0.6664411650000001,0.25646907
1764504866.5107143,-0.25942,3.3572,0.73248,0.70117008,-0.6664411650000001,0.25646907
1764504866.5107143,-0.25942,3.3572,0.73248,0.70117008,-0.6664411650000001,0.25646907
1764504866.5107143,-0.25942,3.3572,0.73248,0.70117008,-0.6664411650000001,0.25646907
1764504866.5112238,-0.82404,3.31142,1.28184,0.70092594,-0.66699048,0.25622493
1764504866.5122285,-0.82404,3.31142,1.28184,0.70092594,-0.66699048,0.25622493
1764504866.5122285,-0.82404,3.31142,1.28184,0.70092594,-0.66699048,0.25622493
1764504866.5122285,-0.82404,3.31142,1.28184,0.70092594,-0.66699048,0.25622493
1764504866.5122285,-0.82404,3.31142,1.28184,0.70092594,-0.66699048,0.25622493
1764504866.5122285,-0.82404,3.31142,1.28184,0.70092594,-0.66699048,0.25622493
1764504866.556239,-0.82404,3.31142,1.28184,0.70092594,-0.66699048,0.25622493
1764504866.5567677,-0.82404,3.31142,1.28184,0.70092594,-0.66699048,0.25622493
1764504866.5567677,-0.82404,3.31142,1.28184,0.70092594,-0.66699048,0.25622493
1764504866.5567677,-0.82404,3.31142,1.28184,0.70092594,-0.66699048,0.25622493
1764504866.5567677,-1.09872,2.50264,2.27374,0.7019025,-0.66723462,0.256163895
1764504866.5567677,-1.09872,2.50264,2.27374,0.7019025,-0.66723462,0.256163895
1764504866.5567677,-1.09872,2.50264,2.27374,0.7019025,-0.66723462,0.256163895
1764504866.5567677,-1.09872,2.50264,2.27374,0.7019025,-0.66723462,0.256163895
1764504866.5567677,-1.09872,2.50264,2.27374,0.7019025,-0.66723462,0.256163895
1764504866.5567677,-1.09872,2.50264,2.27374,0.7019025,-0.66723462,0.256163895
1764504866.5567677,-1.09872,2.50264,2.27374,0.7019025,-0.66723462,0.256163895
1764504866.5567677,-1.09872,2.50264,2.27374,0.7019025,-0.66723462,0.256163895
1764504866.5567677,-1.09872,2.50264,2.27374,0.7019025,-0.66723462,0.256163895
1764504866.5567677,-1.09872,2.50264,2.27374,0.7019025,-0.66723462,0.256163895
1764504866.5567677,-0.48832,1.69386,5.58516,0.70214664,-0.66540357,0.256408035
1764504866.5567677,-0.48832,1.69386,5.58516,0.70214664,-0.66540357,0.256408035
1764504866.5567677,-0.48832,1.69386,5.58516,0.70214664,-0.66540357,0.256408035
1764504866.5567677,-0.48832,1.69386,5.58516,0.70214664,-0.66540357,0.256408035
1764504866.5567677,-0.48832,1.69386,5.58516,0.70214664,-0.66540357,0.256408035
1764504866.5567677,-0.48832,1.69386,5.58516,0.70214664,-0.66540357,0.256408035
1764504866.5567677,-0.48832,1.69386,5.58516,0.70214664,-0.66540357,0.256408035
1764504866.5567677,-0.48832,1.69386,5.58516,0.70214664,-0.66540357,0.256408035
1764504866.5567677,-0.48832,1.69386,5.58516,0.70214664,-0.66540357,0.256408035
1764504866.5577948,-0.48832,1.69386,5.58516,0.70214664,-0.66540357,0.256408035
1764504866.601472,1.38866,2.50264,6.91278,0.702207675,-0.66601392,0.25488216
1764504866.601472,1.38866,2.50264,6.91278,0.702207675,-0.66601392,0.25488216
1764504866.601472,1.38866,2.50264,6.91278,0.702207675,-0.66601392,0.25488216
1764504866.601472,1.38866,2.50264,6.91278,0.702207675,-0.66601392,0.25488216
1764504866.601472,1.38866,2.50264,6.91278,0.702207675,-0.66601392,0.25488216
1764504866.601472,1.38866,2.50264,6.91278,0.702207675,-0.66601392,0.25488216
1764504866.601472,1.38866,2.50264,6.91278,0.702207675,-0.66601392,0.25488216
1764504866.601472,1.38866,2.50264,6.91278,0.702207675,-0.66601392,0.25488216
1764504866.601472,1.38866,2.50264,6.91278,0.702207675,-0.66601392,0.25488216
1764504866.601472,1.38866,2.50264,6.91278,0.702207675,-0.66601392,0.25488216
1764504866.601472,1.41918,3.14356,4.68482,0.699888345,-0.6695539500000001,0.25476009
1764504866.601472,1.41918,3.14356,4.68482,0.699888345,-0.6695539500000001,0.25476009
1764504866.601472,1.41918,3.14356,4.68482,0.699888345,-0.6695539500000001,0.25476009
1764504866.601472,1.41918,3.14356,4.68482,0.699888345,-0.6695539500000001,0.25476009
1764504866.601472,1.41918,3.14356,4.68482,0.699888345,-0.6695539500000001,0.25476009
1764504866.601472,1.41918,3.14356,4.68482,0.699888345,-0.6695539500000001,0.25476009
1764504866.6024878,1.41918,3.14356,4.68482,0.699888345,-0.6695539500000001,0.25476009
1764504866.6024878,1.41918,3.14356,4.68482,0.699888345,-0.6695539500000001,0.25476009
1764504866.6024878,1.41918,3.14356,4.68482,0.699888345,-0.6695539500000001,0.25476009
1764504866.6024878,1.41918,3.14356,4.68482,0.699888345,-0.6695539500000001,0.25476009
1764504866.6024878,1.03768,3.86078,2.56368,0.69933903,-0.669981195,0.255065265
1764504866.6024878,1.03768,3.86078,2.56368,0.69933903,-0.669981195,0.255065265
1764504866.6024878,1.03768,3.86078,2.56368,0.69933903,-0.669981195,0.255065265
1764504866.6024878,1.03768,3.86078,2.56368,0.69933903,-0.669981195,0.255065265
1764504866.6512687,1.03768,3.86078,2.56368,0.69933903,-0.669981195,0.255065265
1764504866.6512687,1.03768,3.86078,2.56368,0.69933903,-0.669981195,0.255065265
1764504866.6512687,1.03768,3.86078,2.56368,0.69933903,-0.669981195,0.255065265
1764504866.6512687,1.03768,3.86078,2.56368,0.69933903,-0.669981195,0.255065265
1764504866.6512687,1.03768,3.86078,2.56368,0.69933903,-0.669981195,0.255065265
1764504866.6512687,1.03768,3.86078,2.56368,0.69933903,-0.669981195,0.255065265
1764504866.6512687,-0.3509799999999999,3.61662,2.8994,0.699522135,-0.669248775,0.25646907
1764504866.6512687,-0.3509799999999999,3.61662,2.8994,0.699522135,-0.669248775,0.25646907
1764504866.6512687,-0.3509799999999999,3.61662,2.8994,0.699522135,-0.669248775,0.25646907
1764504866.6512687,-0.3509799999999999,3.61662,2.8994,0.699522135,-0.669248775,0.25646907
1764504866.660516,-0.3509799999999999,3.61662,2.8994,0.699522135,-0.669248775,0.25646907
1764504866.6615205,-0.3509799999999999,3.61662,2.8994,0.699522135,-0.669248775,0.25646907
1764504866.6615205,-0.3509799999999999,3.61662,2.8994,0.699522135,-0.669248775,0.25646907
1764504866.6615205,-0.3509799999999999,3.61662,2.8994,0.699522135,-0.669248775,0.25646907
1764504866.6615205,-0.3509799999999999,3.61662,2.8994,0.699522135,-0.669248775,0.25646907
1764504866.6615205,-0.3509799999999999,3.61662,2.8994,0.699522135,-0.669248775,0.25646907
1764504866.6615205,-1.08346,3.83026,2.04484,0.69872868,-0.6701032650000001,0.256163895
1764504866.6615205,-1.08346,3.83026,2.04484,0.69872868,-0.6701032650000001,0.256163895
1764504866.6615205,-1.08346,3.83026,2.04484,0.69872868,-0.6701032650000001,0.256163895
1764504866.6615205,-1.08346,3.83026,2.04484,0.69872868,-0.6701032650000001,0.256163895
1764504866.6615205,-1.08346,3.83026,2.04484,0.69872868,-0.6701032650000001,0.256163895
1764504866.6615205,-1.08346,3.83026,2.04484,0.69872868,-0.6701032650000001,0.256163895
1764504866.6977537,-1.08346,3.83026,2.04484,0.69872868,-0.6701032650000001,0.256163895
1764504866.6977537,-1.08346,3.83026,2.04484,0.69872868,-0.6701032650000001,0.256163895
1764504866.6977537,-1.08346,3.83026,2.04484,0.69872868,-0.6701032650000001,0.256163895
1764504866.6977537,-1.08346,3.83026,2.04484,0.69872868,-0.6701032650000001,0.256163895
1764504866.698769,-0.19838,4.68482,0.8087799999999999,0.69811833,-0.6701643,0.25610286
1764504866.698769,-0.19838,4.68482,0.8087799999999999,0.69811833,-0.6701643,0.25610286
1764504866.698769,-0.19838,4.68482,0.8087799999999999,0.69811833,-0.6701643,0.25610286
1764504866.698769,-0.19838,4.68482,0.8087799999999999,0.69811833,-0.6701643,0.25610286
1764504866.698769,-0.19838,4.68482,0.8087799999999999,0.69811833,-0.6701643,0.25610286
1764504866.698769,-0.19838,4.68482,0.8087799999999999,0.69811833,-0.6701643,0.25610286
1764504866.698769,-0.19838,4.68482,0.8087799999999999,0.69811833,-0.6701643,0.25610286
1764504866.698769,-0.19838,4.68482,0.8087799999999999,0.69811833,-0.6701643,0.25610286
1764504866.698769,-0.19838,4.68482,0.8087799999999999,0.69811833,-0.6701643,0.25610286
1764504866.698769,-0.19838,4.68482,0.8087799999999999,0.69811833,-0.6701643,0.25610286
1764504866.698769,0.36624,4.94424,0.54936,0.6982404,-0.670347405,0.256408035
1764504866.698769,0.36624,4.94424,0.54936,0.6982404,-0.670347405,0.256408035
1764504866.698769,0.36624,4.94424,0.54936,0.6982404,-0.670347405,0.256408035
1764504866.698769,0.36624,4.94424,0.54936,0.6982404,-0.670347405,0.256408035
1764504866.698769,0.36624,4.94424,0.54936,0.6982404,-0.670347405,0.256408035
1764504866.698769,0.36624,4.94424,0.54936,0.6982404,-0.670347405,0.256408035
1764504866.698769,0.36624,4.94424,0.54936,0.6982404,-0.670347405,0.256408035
1764504866.698769,0.36624,4.94424,0.54936,0.6982404,-0.670347405,0.256408035
1764504866.698769,0.36624,4.94424,0.54936,0.6982404,-0.670347405,0.256408035
1764504866.698769,0.36624,4.94424,0.54936,0.6982404,-0.670347405,0.256408035
1764504866.7412062,0.3357199999999999,4.2728,1.03768,0.698057295,-0.669859125,0.25744563
1764504866.7412062,0.3357199999999999,4.2728,1.03768,0.698057295,-0.669859125,0.25744563
1764504866.7412062,0.3357199999999999,4.2728,1.03768,0.698057295,-0.669859125,0.25744563
1764504866.7412062,0.3357199999999999,4.2728,1.03768,0.698057295,-0.669859125,0.25744563
1764504866.7412062,0.3357199999999999,4.2728,1.03768,0.698057295,-0.669859125,0.25744563
1764504866.7412062,0.3357199999999999,4.2728,1.03768,0.698057295,-0.669859125,0.25744563
1764504866.742723,0.3357199999999999,4.2728,1.03768,0.698057295,-0.669859125,0.25744563
1764504866.742723,0.3357199999999999,4.2728,1.03768,0.698057295,-0.669859125,0.25744563
1764504866.742723,0.3357199999999999,4.2728,1.03768,0.698057295,-0.669859125,0.25744563
1764504866.742723,0.3357199999999999,4.2728,1.03768,0.698057295,-0.669859125,0.25744563
1764504866.742723,0.0,3.84552,1.6022999999999998,0.69836247,-0.669614985,0.258239085
1764504866.742723,0.0,3.84552,1.6022999999999998,0.69836247,-0.669614985,0.258239085
1764504866.743735,0.0,3.84552,1.6022999999999998,0.69836247,-0.669614985,0.258239085
1764504866.743735,0.0,3.84552,1.6022999999999998,0.69836247,-0.669614985,0.258239085
1764504866.7447338,0.0,3.84552,1.6022999999999998,0.69836247,-0.669614985,0.258239085
1764504866.7447338,0.0,3.84552,1.6022999999999998,0.69836247,-0.669614985,0.258239085
1764504866.7447338,0.0,3.84552,1.6022999999999998,0.69836247,-0.669614985,0.258239085
1764504866.7447338,0.0,3.84552,1.6022999999999998,0.69836247,-0.669614985,0.258239085
1764504866.7457345,0.0,3.84552,1.6022999999999998,0.69836247,-0.669614985,0.258239085
1764504866.7457345,0.0,3.84552,1.6022999999999998,0.69836247,-0.669614985,0.258239085
1764504866.7457345,-0.3815,3.87604,1.23606,0.698789715,-0.669981195,0.25830012
1764504866.7467475,-0.3815,3.87604,1.23606,0.698789715,-0.669981195,0.25830012
1764504866.7894137,-0.3815,3.87604,1.23606,0.698789715,-0.669981195,0.25830012
1764504866.7894137,-0.3815,3.87604,1.23606,0.698789715,-0.669981195,0.25830012
1764504866.7894137,-0.3815,3.87604,1.23606,0.698789715,-0.669981195,0.25830012
1764504866.7894137,-0.3815,3.87604,1.23606,0.698789715,-0.669981195,0.25830012
1764504866.7894137,-0.3815,3.87604,1.23606,0.698789715,-0.669981195,0.25830012
1764504866.7894137,-0.3815,3.87604,1.23606,0.698789715,-0.669981195,0.25830012
1764504866.7904332,-0.3815,3.87604,1.23606,0.698789715,-0.669981195,0.25830012
1764504866.7904332,-0.3815,3.87604,1.23606,0.698789715,-0.669981195,0.25830012
1764504866.7904332,-1.17502,3.7387,0.9156,0.698057295,-0.671079825,0.258239085
1764504866.7904332,-1.17502,3.7387,0.9156,0.698057295,-0.671079825,0.258239085
1764504866.7904332,-1.17502,3.7387,0.9156,0.698057295,-0.671079825,0.258239085
1764504866.7904332,-1.17502,3.7387,0.9156,0.698057295,-0.671079825,0.258239085
1764504866.7904332,-1.17502,3.7387,0.9156,0.698057295,-0.671079825,0.258239085
1764504866.7904332,-1.17502,3.7387,0.9156,0.698057295,-0.671079825,0.258239085
1764504866.7904332,-1.17502,3.7387,0.9156,0.698057295,-0.671079825,0.258239085
1764504866.7904332,-1.17502,3.7387,0.9156,0.698057295,-0.671079825,0.258239085
1764504866.7904332,-1.17502,3.7387,0.9156,0.698057295,-0.671079825,0.258239085
1764504866.7904332,-1.17502,3.7387,0.9156,0.698057295,-0.671079825,0.258239085
1764504866.7904332,-1.73964,3.38772,1.15976,0.6978741900000001,-0.670591545,0.25805598
1764504866.7919502,-1.73964,3.38772,1.15976,0.6978741900000001,-0.670591545,0.25805598
1764504866.7919502,-1.73964,3.38772,1.15976,0.6978741900000001,-0.670591545,0.25805598
1764504866.7923918,-1.73964,3.38772,1.15976,0.6978741900000001,-0.670591545,0.25805598
1764504866.7923918,-1.73964,3.38772,1.15976,0.6978741900000001,-0.670591545,0.25805598
1764504866.7923918,-1.73964,3.38772,1.15976,0.6978741900000001,-0.670591545,0.25805598
1764504866.836945,-1.73964,3.38772,1.15976,0.6978741900000001,-0.670591545,0.25805598
1764504866.836945,-1.73964,3.38772,1.15976,0.6978741900000001,-0.670591545,0.25805598
1764504866.836945,-1.73964,3.38772,1.15976,0.6978741900000001,-0.670591545,0.25805598
1764504866.836945,-1.73964,3.38772,1.15976,0.6978741900000001,-0.670591545,0.25805598
1764504866.836945,-1.64808,3.32668,1.02242,0.698057295,-0.67040844,0.25781184
1764504866.836945,-1.64808,3.32668,1.02242,0.698057295,-0.67040844,0.25781184
1764504866.836945,-1.64808,3.32668,1.02242,0.698057295,-0.67040844,0.25781184
1764504866.836945,-1.64808,3.32668,1.02242,0.698057295,-0.67040844,0.25781184
1764504866.836945,-1.64808,3.32668,1.02242,0.698057295,-0.67040844,0.25781184
1764504866.836945,-1.64808,3.32668,1.02242,0.698057295,-0.67040844,0.25781184
1764504866.836945,-1.64808,3.32668,1.02242,0.698057295,-0.67040844,0.25781184
1764504866.836945,-1.64808,3.32668,1.02242,0.698057295,-0.67040844,0.25781184
1764504866.836945,-1.64808,3.32668,1.02242,0.698057295,-0.67040844,0.25781184
1764504866.836945,-1.64808,3.32668,1.02242,0.698057295,-0.67040844,0.25781184
1764504866.836945,-1.34288,3.49454,0.74774,0.69799626,-0.6711408600000001,0.25707942
1764504866.836945,-1.34288,3.49454,0.74774,0.69799626,-0.6711408600000001,0.25707942
1764504866.836945,-1.34288,3.49454,0.74774,0.69799626,-0.6711408600000001,0.25707942
1764504866.836945,-1.34288,3.49454,0.74774,0.69799626,-0.6711408600000001,0.25707942
1764504866.836945,-1.34288,3.49454,0.74774,0.69799626,-0.6711408600000001,0.25707942
1764504866.836945,-1.34288,3.49454,0.74774,0.69799626,-0.6711408600000001,0.25707942
1764504866.836945,-1.34288,3.49454,0.74774,0.69799626,-0.6711408600000001,0.25707942
1764504866.836945,-1.34288,3.49454,0.74774,0.69799626,-0.6711408600000001,0.25707942
1764504866.836945,-1.34288,3.49454,0.74774,0.69799626,-0.6711408600000001,0.25707942
1764504866.836945,-1.34288,3.49454,0.74774,0.69799626,-0.6711408600000001,0.25707942
1764504866.8836367,-1.6633399999999998,2.88414,0.51884,0.69677556,-0.669248775,0.256408035
1764504866.8836367,-1.6633399999999998,2.88414,0.51884,0.69677556,-0.669248775,0.256408035
1764504866.8836367,-1.6633399999999998,2.88414,0.51884,0.69677556,-0.669248775,0.256408035
1764504866.8836367,-1.6633399999999998,2.88414,0.51884,0.69677556,-0.669248775,0.256408035
1764504866.8836367,-1.6633399999999998,2.88414,0.51884,0.69677556,-0.669248775,0.256408035
1764504866.8836367,-1.6633399999999998,2.88414,0.51884,0.69677556,-0.669248775,0.256408035
1764504866.8836367,-1.6633399999999998,2.88414,0.51884,0.69677556,-0.669248775,0.256408035
1764504866.8836367,-1.6633399999999998,2.88414,0.51884,0.69677556,-0.669248775,0.256408035
1764504866.8836367,-1.6633399999999998,2.88414,0.51884,0.69677556,-0.669248775,0.256408035
1764504866.884635,-1.6633399999999998,2.88414,0.51884,0.69677556,-0.669248775,0.256408035
1764504866.884635,-0.21364,4.0439,0.8087799999999999,0.69714177,-0.670469475,0.25622493
1764504866.884635,-0.21364,4.0439,0.8087799999999999,0.69714177,-0.670469475,0.25622493
1764504866.884635,-0.21364,4.0439,0.8087799999999999,0.69714177,-0.670469475,0.25622493
1764504866.884635,-0.21364,4.0439,0.8087799999999999,0.69714177,-0.670469475,0.25622493
1764504866.884635,-0.21364,4.0439,0.8087799999999999,0.69714177,-0.670469475,0.25622493
1764504866.884635,-0.21364,4.0439,0.8087799999999999,0.69714177,-0.670469475,0.25622493
1764504866.884635,-0.21364,4.0439,0.8087799999999999,0.69714177,-0.670469475,0.25622493
1764504866.884635,-0.21364,4.0439,0.8087799999999999,0.69714177,-0.670469475,0.25622493
1764504866.884635,-0.21364,4.0439,0.8087799999999999,0.69714177,-0.670469475,0.25622493
1764504866.884635,-0.21364,4.0439,0.8087799999999999,0.69714177,-0.670469475,0.25622493
1764504866.884635,-0.1525999999999999,3.41824,1.08346,0.697691085,-0.672056385,0.255919755
1764504866.884635,-0.1525999999999999,3.41824,1.08346,0.697691085,-0.672056385,0.255919755
1764504866.884635,-0.1525999999999999,3.41824,1.08346,0.697691085,-0.672056385,0.255919755
1764504866.884635,-0.1525999999999999,3.41824,1.08346,0.697691085,-0.672056385,0.255919755
1764504866.9305658,-0.1525999999999999,3.41824,1.08346,0.697691085,-0.672056385,0.255919755
1764504866.9305658,-0.1525999999999999,3.41824,1.08346,0.697691085,-0.672056385,0.255919755
1764504866.9305658,-0.1525999999999999,3.41824,1.08346,0.697691085,-0.672056385,0.255919755
1764504866.9305658,-0.1525999999999999,3.41824,1.08346,0.697691085,-0.672056385,0.255919755
1764504866.9305658,-0.1525999999999999,3.41824,1.08346,0.697691085,-0.672056385,0.255919755
1764504866.9305658,-0.1525999999999999,3.41824,1.08346,0.697691085,-0.672056385,0.255919755
1764504866.9320765,-0.96138,3.41824,0.88508,0.69689763,-0.670957755,0.25598079
1764504866.9320765,-0.96138,3.41824,0.88508,0.69689763,-0.670957755,0.25598079
1764504866.9320765,-0.96138,3.41824,0.88508,0.69689763,-0.670957755,0.25598079
1764504866.9320765,-0.96138,3.41824,0.88508,0.69689763,-0.670957755,0.25598079
1764504866.9320765,-0.96138,3.41824,0.88508,0.69689763,-0.670957755,0.25598079
1764504866.9320765,-0.96138,3.41824,0.88508,0.69689763,-0.670957755,0.25598079
1764504866.9320765,-0.96138,3.41824,0.88508,0.69689763,-0.670957755,0.25598079
1764504866.9320765,-0.96138,3.41824,0.88508,0.69689763,-0.670957755,0.25598079
1764504866.9320765,-0.96138,3.41824,0.88508,0.69689763,-0.670957755,0.25598079
1764504866.9320765,-0.96138,3.41824,0.88508,0.69689763,-0.670957755,0.25598079
1764504866.9320765,-1.26658,3.47928,1.0682,0.697080735,-0.669492915,0.256408035
1764504866.9320765,-1.26658,3.47928,1.0682,0.697080735,-0.669492915,0.256408035
1764504866.9329689,-1.26658,3.47928,1.0682,0.697080735,-0.669492915,0.256408035
1764504866.9329689,-1.26658,3.47928,1.0682,0.697080735,-0.669492915,0.256408035
1764504866.9329689,-1.26658,3.47928,1.0682,0.697080735,-0.669492915,0.256408035
1764504866.9329689,-1.26658,3.47928,1.0682,0.697080735,-0.669492915,0.256408035
1764504866.9768367,-1.26658,3.47928,1.0682,0.697080735,-0.669492915,0.256408035
1764504866.977836,-1.26658,3.47928,1.0682,0.697080735,-0.669492915,0.256408035
1764504866.977836,-1.26658,3.47928,1.0682,0.697080735,-0.669492915,0.256408035
1764504866.977836,-1.26658,3.47928,1.0682,0.697080735,-0.669492915,0.256408035
1764504866.977836,-0.57988,3.64714,0.8392999999999999,0.697935225,-0.6711408600000001,0.25671321
1764504866.977836,-0.57988,3.64714,0.8392999999999999,0.697935225,-0.6711408600000001,0.25671321
1764504866.977836,-0.57988,3.64714,0.8392999999999999,0.697935225,-0.6711408600000001,0.25671321
1764504866.977836,-0.57988,3.64714,0.8392999999999999,0.697935225,-0.6711408600000001,0.25671321
1764504866.977836,-0.57988,3.64714,0.8392999999999999,0.697935225,-0.6711408600000001,0.25671321
1764504866.977836,-0.57988,3.64714,0.8392999999999999,0.697935225,-0.6711408600000001,0.25671321
1764504866.977836,-0.57988,3.64714,0.8392999999999999,0.697935225,-0.6711408600000001,0.25671321
1764504866.977836,-0.57988,3.64714,0.8392999999999999,0.697935225,-0.6711408600000001,0.25671321
1764504866.977836,-0.57988,3.64714,0.8392999999999999,0.697935225,-0.6711408600000001,0.25671321
1764504866.977836,-0.57988,3.64714,0.8392999999999999,0.697935225,-0.6711408600000001,0.25671321
1764504866.977836,0.06104,3.44876,0.8698199999999999,0.6982404,-0.67101879,0.257018385
1764504866.977836,0.06104,3.44876,0.8698199999999999,0.6982404,-0.67101879,0.257018385
1764504866.977836,0.06104,3.44876,0.8698199999999999,0.6982404,-0.67101879,0.257018385
1764504866.977836,0.06104,3.44876,0.8698199999999999,0.6982404,-0.67101879,0.257018385
1764504866.977836,0.06104,3.44876,0.8698199999999999,0.6982404,-0.67101879,0.257018385
1764504866.977836,0.06104,3.44876,0.8698199999999999,0.6982404,-0.67101879,0.257018385
1764504866.977836,0.06104,3.44876,0.8698199999999999,0.6982404,-0.67101879,0.257018385
1764504866.977836,0.06104,3.44876,0.8698199999999999,0.6982404,-0.67101879,0.257018385
1764504867.0219948,0.06104,3.44876,0.8698199999999999,0.6982404,-0.67101879,0.257018385
1764504867.0219948,0.06104,3.44876,0.8698199999999999,0.6982404,-0.67101879,0.257018385
1764504867.0219948,0.25942,3.5861,1.09872,0.69763005,-0.6711408600000001,0.25695735
1764504867.0219948,0.25942,3.5861,1.09872,0.69763005,-0.6711408600000001,0.25695735
1764504867.0219948,0.25942,3.5861,1.09872,0.69763005,-0.6711408600000001,0.25695735
1764504867.0219948,0.25942,3.5861,1.09872,0.69763005,-0.6711408600000001,0.25695735
1764504867.0219948,0.25942,3.5861,1.09872,0.69763005,-0.6711408600000001,0.25695735
1764504867.0219948,0.25942,3.5861,1.09872,0.69763005,-0.6711408600000001,0.25695735
1764504867.0219948,0.25942,3.5861,1.09872,0.69763005,-0.6711408600000001,0.25695735
1764504867.0219948,0.25942,3.5861,1.09872,0.69763005,-0.6711408600000001,0.25695735
1764504867.0219948,0.25942,3.5861,1.09872,0.69763005,-0.6711408600000001,0.25695735
1764504867.0219948,0.25942,3.5861,1.09872,0.69763005,-0.6711408600000001,0.25695735
1764504867.0219948,0.21364,3.55558,0.36624,0.697935225,-0.67126293,0.257628735
1764504867.0219948,0.21364,3.55558,0.36624,0.697935225,-0.67126293,0.257628735
1764504867.0219948,0.21364,3.55558,0.36624,0.697935225,-0.67126293,0.257628735
1764504867.0219948,0.21364,3.55558,0.36624,0.697935225,-0.67126293,0.257628735
1764504867.0231776,0.21364,3.55558,0.36624,0.697935225,-0.67126293,0.257628735
1764504867.0231776,0.21364,3.55558,0.36624,0.697935225,-0.67126293,0.257628735
1764504867.0231776,0.21364,3.55558,0.36624,0.697935225,-0.67126293,0.257628735
1764504867.0231776,0.21364,3.55558,0.36624,0.697935225,-0.67126293,0.257628735
1764504867.0231776,0.21364,3.55558,0.36624,0.697935225,-0.67126293,0.257628735
1764504867.0231776,0.21364,3.55558,0.36624,0.697935225,-0.67126293,0.257628735
1764504867.0231776,-0.71722,3.38772,0.28994,0.698179365,-0.67040844,0.257506665
1764504867.0231776,-0.71722,3.38772,0.28994,0.698179365,-0.67040844,0.257506665
1764504867.0681338,-0.71722,3.38772,0.28994,0.698179365,-0.67040844,0.257506665
1764504867.0681338,-0.71722,3.38772,0.28994,0.698179365,-0.67040844,0.257506665
1764504867.0686717,-0.71722,3.38772,0.28994,0.698179365,-0.67040844,0.257506665
1764504867.0686717,-0.71722,3.38772,0.28994,0.698179365,-0.67040844,0.257506665
1764504867.0686717,-0.71722,3.38772,0.28994,0.698179365,-0.67040844,0.257506665
1764504867.0686717,-0.71722,3.38772,0.28994,0.698179365,-0.67040844,0.257506665
1764504867.0686717,-0.71722,3.38772,0.28994,0.698179365,-0.67040844,0.257506665
1764504867.0686717,-0.71722,3.38772,0.28994,0.698179365,-0.67040844,0.257506665
1764504867.069686,-1.28184,3.38772,1.28184,0.69665349,-0.67028637,0.25817805
1764504867.069686,-1.28184,3.38772,1.28184,0.69665349,-0.67028637,0.25817805
1764504867.069686,-1.28184,3.38772,1.28184,0.69665349,-0.67028637,0.25817805
1764504867.069686,-1.28184,3.38772,1.28184,0.69665349,-0.67028637,0.25817805
1764504867.069686,-1.28184,3.38772,1.28184,0.69665349,-0.67028637,0.25817805
1764504867.069686,-1.28184,3.38772,1.28184,0.69665349,-0.67028637,0.25817805
1764504867.069686,-1.28184,3.38772,1.28184,0.69665349,-0.67028637,0.25817805
1764504867.069686,-1.28184,3.38772,1.28184,0.69665349,-0.67028637,0.25817805
1764504867.069686,-1.28184,3.38772,1.28184,0.69665349,-0.67028637,0.25817805
1764504867.069686,-1.28184,3.38772,1.28184,0.69665349,-0.67028637,0.25817805
1764504867.069686,-0.82404,4.31858,1.43444,0.6962872800000001,-0.66992016,0.256652175
1764504867.069686,-0.82404,4.31858,1.43444,0.6962872800000001,-0.66992016,0.256652175
1764504867.0717015,-0.82404,4.31858,1.43444,0.6962872800000001,-0.66992016,0.256652175
1764504867.0717015,-0.82404,4.31858,1.43444,0.6962872800000001,-0.66992016,0.256652175
1764504867.0717015,-0.82404,4.31858,1.43444,0.6962872800000001,-0.66992016,0.256652175
1764504867.0717015,-0.82404,4.31858,1.43444,0.6962872800000001,-0.66992016,0.256652175
1764504867.1148405,-0.82404,4.31858,1.43444,0.6962872800000001,-0.66992016,0.256652175
1764504867.1148405,-0.82404,4.31858,1.43444,0.6962872800000001,-0.66992016,0.256652175
1764504867.1148405,-0.82404,4.31858,1.43444,0.6962872800000001,-0.66992016,0.256652175
1764504867.1148405,-0.82404,4.31858,1.43444,0.6962872800000001,-0.66992016,0.256652175
1764504867.1148405,-0.51884,4.577999999999999,-0.2289,0.696226245,-0.6711408600000001,0.256347
1764504867.1148405,-0.51884,4.577999999999999,-0.2289,0.696226245,-0.6711408600000001,0.256347
1764504867.1148405,-0.51884,4.577999999999999,-0.2289,0.696226245,-0.6711408600000001,0.256347
1764504867.1148405,-0.51884,4.577999999999999,-0.2289,0.696226245,-0.6711408600000001,0.256347
1764504867.1148405,-0.51884,4.577999999999999,-0.2289,0.696226245,-0.6711408600000001,0.256347
1764504867.1148405,-0.51884,4.577999999999999,-0.2289,0.696226245,-0.6711408600000001,0.256347
1764504867.1148405,-0.51884,4.577999999999999,-0.2289,0.696226245,-0.6711408600000001,0.256347
1764504867.1148405,-0.51884,4.577999999999999,-0.2289,0.696226245,-0.6711408600000001,0.256347
1764504867.1148405,-0.51884,4.577999999999999,-0.2289,0.696226245,-0.6711408600000001,0.256347
1764504867.1148405,-0.51884,4.577999999999999,-0.2289,0.696226245,-0.6711408600000001,0.256347
1764504867.1148405,-0.6867,3.69292,-0.9156,0.69714177,-0.671385,0.25683528
1764504867.1148405,-0.6867,3.69292,-0.9156,0.69714177,-0.671385,0.25683528
1764504867.1148405,-0.6867,3.69292,-0.9156,0.69714177,-0.671385,0.25683528
1764504867.1148405,-0.6867,3.69292,-0.9156,0.69714177,-0.671385,0.25683528
1764504867.1148405,-0.6867,3.69292,-0.9156,0.69714177,-0.671385,0.25683528
1764504867.1148405,-0.6867,3.69292,-0.9156,0.69714177,-0.671385,0.25683528
1764504867.1164358,-0.6867,3.69292,-0.9156,0.69714177,-0.671385,0.25683528
1764504867.1164358,-0.6867,3.69292,-0.9156,0.69714177,-0.671385,0.25683528
1764504867.1164358,-0.6867,3.69292,-0.9156,0.69714177,-0.671385,0.25683528
1764504867.1164358,-0.6867,3.69292,-0.9156,0.69714177,-0.671385,0.25683528
1764504867.1632226,-1.46496,4.53222,-0.0762999999999999,0.697080735,-0.67175121,0.258727365
1764504867.1632226,-1.46496,4.53222,-0.0762999999999999,0.697080735,-0.67175121,0.258727365
1764504867.1642232,-1.46496,4.53222,-0.0762999999999999,0.697080735,-0.67175121,0.258727365
1764504867.1642232,-1.46496,4.53222,-0.0762999999999999,0.697080735,-0.67175121,0.258727365
1764504867.1642232,-1.46496,4.53222,-0.0762999999999999,0.697080735,-0.67175121,0.258727365
1764504867.165231,-1.46496,4.53222,-0.0762999999999999,0.697080735,-0.67175121,0.258727365
1764504867.165231,-1.46496,4.53222,-0.0762999999999999,0.697080735,-0.67175121,0.258727365
1764504867.165231,-1.46496,4.53222,-0.0762999999999999,0.697080735,-0.67175121,0.258727365
1764504867.165231,-1.46496,4.53222,-0.0762999999999999,0.697080735,-0.67175121,0.258727365
1764504867.165231,-1.46496,4.53222,-0.0762999999999999,0.697080735,-0.67175121,0.258727365
1764504867.165231,-1.48022,4.18124,-0.3204599999999999,0.697446945,-0.67089672,0.257994945
1764504867.165231,-1.48022,4.18124,-0.3204599999999999,0.697446945,-0.67089672,0.257994945
1764504867.1662216,-1.48022,4.18124,-0.3204599999999999,0.697446945,-0.67089672,0.257994945
1764504867.1662216,-1.48022,4.18124,-0.3204599999999999,0.697446945,-0.67089672,0.257994945
1764504867.1662216,-1.48022,4.18124,-0.3204599999999999,0.697446945,-0.67089672,0.257994945
1764504867.1662216,-1.48022,4.18124,-0.3204599999999999,0.697446945,-0.67089672,0.257994945
1764504867.1662216,-1.48022,4.18124,-0.3204599999999999,0.697446945,-0.67089672,0.257994945
1764504867.1662216,-1.48022,4.18124,-0.3204599999999999,0.697446945,-0.67089672,0.257994945
1764504867.1662216,-1.48022,4.18124,-0.3204599999999999,0.697446945,-0.67089672,0.257994945
1764504867.1672206,-1.48022,4.18124,-0.3204599999999999,0.697446945,-0.67089672,0.257994945
1764504867.1672206,-1.48022,3.25038,-0.25942,0.69860661,-0.670835685,0.25744563
1764504867.1672206,-1.48022,3.25038,-0.25942,0.69860661,-0.670835685,0.25744563
1764504867.1672206,-1.48022,3.25038,-0.25942,0.69860661,-0.670835685,0.25744563
1764504867.1672206,-1.48022,3.25038,-0.25942,0.69860661,-0.670835685,0.25744563
1764504867.2090328,-1.48022,3.25038,-0.25942,0.69860661,-0.670835685,0.25744563
1764504867.2090328,-1.48022,3.25038,-0.25942,0.69860661,-0.670835685,0.25744563
1764504867.2090328,-1.48022,3.25038,-0.25942,0.69860661,-0.670835685,0.25744563
1764504867.2090328,-1.48022,3.25038,-0.25942,0.69860661,-0.670835685,0.25744563
1764504867.2090328,-1.48022,3.25038,-0.25942,0.69860661,-0.670835685,0.25744563
1764504867.2090328,-1.48022,3.25038,-0.25942,0.69860661,-0.670835685,0.25744563
1764504867.2090328,-1.19028,3.15882,0.39676,0.69775212,-0.670225335,0.257750805
1764504867.2090328,-1.19028,3.15882,0.39676,0.69775212,-0.670225335,0.257750805
1764504867.2090328,-1.19028,3.15882,0.39676,0.69775212,-0.670225335,0.257750805
1764504867.2090328,-1.19028,3.15882,0.39676,0.69775212,-0.670225335,0.257750805
1764504867.2090328,-1.19028,3.15882,0.39676,0.69775212,-0.670225335,0.257750805
1764504867.2090328,-1.19028,3.15882,0.39676,0.69775212,-0.670225335,0.257750805
1764504867.2090328,-1.19028,3.15882,0.39676,0.69775212,-0.670225335,0.257750805
1764504867.2090328,-1.19028,3.15882,0.39676,0.69775212,-0.670225335,0.257750805
1764504867.2090328,-1.19028,3.15882,0.39676,0.69775212,-0.670225335,0.257750805
1764504867.2090328,-1.19028,3.15882,0.39676,0.69775212,-0.670225335,0.257750805
1764504867.2090328,-0.6409199999999999,3.2046,1.00716,0.698179365,-0.669126705,0.257628735
1764504867.2090328,-0.6409199999999999,3.2046,1.00716,0.698179365,-0.669126705,0.257628735
1764504867.2090328,-0.6409199999999999,3.2046,1.00716,0.698179365,-0.669126705,0.257628735
1764504867.2090328,-0.6409199999999999,3.2046,1.00716,0.698179365,-0.669126705,0.257628735
1764504867.2533357,-0.6409199999999999,3.2046,1.00716,0.698179365,-0.669126705,0.257628735
1764504867.2533357,-0.6409199999999999,3.2046,1.00716,0.698179365,-0.669126705,0.257628735
1764504867.2533357,-0.6409199999999999,3.2046,1.00716,0.698179365,-0.669126705,0.257628735
1764504867.2533357,-0.6409199999999999,3.2046,1.00716,0.698179365,-0.669126705,0.257628735
1764504867.2533357,-0.6409199999999999,3.2046,1.00716,0.698179365,-0.669126705,0.257628735
1764504867.2533357,-0.6409199999999999,3.2046,1.00716,0.698179365,-0.669126705,0.257628735
1764504867.2533357,-0.8087799999999999,3.26564,1.17502,0.69836247,-0.67028637,0.25732356
1764504867.2533357,-0.8087799999999999,3.26564,1.17502,0.69836247,-0.67028637,0.25732356
1764504867.255852,-0.8087799999999999,3.26564,1.17502,0.69836247,-0.67028637,0.25732356
1764504867.255852,-0.8087799999999999,3.26564,1.17502,0.69836247,-0.67028637,0.25732356
1764504867.255852,-0.8087799999999999,3.26564,1.17502,0.69836247,-0.67028637,0.25732356
1764504867.255852,-0.8087799999999999,3.26564,1.17502,0.69836247,-0.67028637,0.25732356
1764504867.255852,-0.8087799999999999,3.26564,1.17502,0.69836247,-0.67028637,0.25732356
1764504867.255852,-0.8087799999999999,3.26564,1.17502,0.69836247,-0.67028637,0.25732356
1764504867.255852,-0.8087799999999999,3.26564,1.17502,0.69836247,-0.67028637,0.25732356
1764504867.255852,-0.8087799999999999,3.26564,1.17502,0.69836247,-0.67028637,0.25732356
1764504867.255852,-0.41202,3.4335,1.2208,0.698057295,-0.670469475,0.25683528
1764504867.255852,-0.41202,3.4335,1.2208,0.698057295,-0.670469475,0.25683528
1764504867.255852,-0.41202,3.4335,1.2208,0.698057295,-0.670469475,0.25683528
1764504867.255852,-0.41202,3.4335,1.2208,0.698057295,-0.670469475,0.25683528
1764504867.255852,-0.41202,3.4335,1.2208,0.698057295,-0.670469475,0.25683528
1764504867.255852,-0.41202,3.4335,1.2208,0.698057295,-0.670469475,0.25683528
1764504867.255852,-0.41202,3.4335,1.2208,0.698057295,-0.670469475,0.25683528
1764504867.255852,-0.41202,3.4335,1.2208,0.698057295,-0.670469475,0.25683528
1764504867.3025448,-0.41202,3.4335,1.2208,0.698057295,-0.670469475,0.25683528
1764504867.3025448,-0.41202,3.4335,1.2208,0.698057295,-0.670469475,0.25683528
1764504867.3025448,-0.71722,2.73154,1.51074,0.69763005,-0.670713615,0.2575677
1764504867.303052,-0.71722,2.73154,1.51074,0.69763005,-0.670713615,0.2575677
1764504867.303052,-0.71722,2.73154,1.51074,0.69763005,-0.670713615,0.2575677
1764504867.303052,-0.71722,2.73154,1.51074,0.69763005,-0.670713615,0.2575677
1764504867.303052,-0.71722,2.73154,1.51074,0.69763005,-0.670713615,0.2575677
1764504867.303052,-0.71722,2.73154,1.51074,0.69763005,-0.670713615,0.2575677
1764504867.303052,-0.71722,2.73154,1.51074,0.69763005,-0.670713615,0.2575677
1764504867.303052,-0.71722,2.73154,1.51074,0.69763005,-0.670713615,0.2575677
1764504867.303052,-0.71722,2.73154,1.51074,0.69763005,-0.670713615,0.2575677
1764504867.303052,-0.71722,2.73154,1.51074,0.69763005,-0.670713615,0.2575677
1764504867.303052,-1.2971,2.70102,-0.01526,0.69750798,-0.671385,0.25744563
1764504867.303052,-1.2971,2.70102,-0.01526,0.69750798,-0.671385,0.25744563
1764504867.303052,-1.2971,2.70102,-0.01526,0.69750798,-0.671385,0.25744563
1764504867.303052,-1.2971,2.70102,-0.01526,0.69750798,-0.671385,0.25744563
1764504867.303052,-1.2971,2.70102,-0.01526,0.69750798,-0.671385,0.25744563
1764504867.303052,-1.2971,2.70102,-0.01526,0.69750798,-0.671385,0.25744563
1764504867.303052,-1.2971,2.70102,-0.01526,0.69750798,-0.671385,0.25744563
1764504867.303052,-1.2971,2.70102,-0.01526,0.69750798,-0.671385,0.25744563
1764504867.303052,-1.2971,2.70102,-0.01526,0.69750798,-0.671385,0.25744563
1764504867.303052,-1.2971,2.70102,-0.01526,0.69750798,-0.671385,0.25744563
1764504867.303052,-2.289,2.289,-0.48832,0.696958665,-0.6711408600000001,0.25768977
1764504867.303052,-2.289,2.289,-0.48832,0.696958665,-0.6711408600000001,0.25768977
1764504867.3515804,-2.289,2.289,-0.48832,0.696958665,-0.6711408600000001,0.25768977
1764504867.3515804,-2.289,2.289,-0.48832,0.696958665,-0.6711408600000001,0.25768977
1764504867.3515804,-2.289,2.289,-0.48832,0.696958665,-0.6711408600000001,0.25768977
1764504867.3515804,-2.289,2.289,-0.48832,0.696958665,-0.6711408600000001,0.25768977
1764504867.3515804,-2.289,2.289,-0.48832,0.696958665,-0.6711408600000001,0.25768977
1764504867.3515804,-2.289,2.289,-0.48832,0.696958665,-0.6711408600000001,0.25768977
1764504867.3515804,-2.289,2.289,-0.48832,0.696958665,-0.6711408600000001,0.25768977
1764504867.3515804,-2.289,2.289,-0.48832,0.696958665,-0.6711408600000001,0.25768977
1764504867.3515804,-2.5942,2.83836,-0.74774,0.6968365950000001,-0.671568105,0.25683528
1764504867.3515804,-2.5942,2.83836,-0.74774,0.6968365950000001,-0.671568105,0.25683528
1764504867.3515804,-2.5942,2.83836,-0.74774,0.6968365950000001,-0.671568105,0.25683528
1764504867.3515804,-2.5942,2.83836,-0.74774,0.6968365950000001,-0.671568105,0.25683528
1764504867.3515804,-2.5942,2.83836,-0.74774,0.6968365950000001,-0.671568105,0.25683528
1764504867.3515804,-2.5942,2.83836,-0.74774,0.6968365950000001,-0.671568105,0.25683528
1764504867.3515804,-2.5942,2.83836,-0.74774,0.6968365950000001,-0.671568105,0.25683528
1764504867.3515804,-2.5942,2.83836,-0.74774,0.6968365950000001,-0.671568105,0.25683528
1764504867.3515804,-2.5942,2.83836,-0.74774,0.6968365950000001,-0.671568105,0.25683528
1764504867.3515804,-2.5942,2.83836,-0.74774,0.6968365950000001,-0.671568105,0.25683528
1764504867.3525736,-3.37246,3.8913,-2.04484,0.696958665,-0.67150707,0.25598079
1764504867.3525736,-3.37246,3.8913,-2.04484,0.696958665,-0.67150707,0.25598079
1764504867.3525736,-3.37246,3.8913,-2.04484,0.696958665,-0.67150707,0.25598079
1764504867.3525736,-3.37246,3.8913,-2.04484,0.696958665,-0.67150707,0.25598079
1764504867.3955662,-3.37246,3.8913,-2.04484,0.696958665,-0.67150707,0.25598079
1764504867.3955662,-3.37246,3.8913,-2.04484,0.696958665,-0.67150707,0.25598079
1764504867.3955662,-3.37246,3.8913,-2.04484,0.696958665,-0.67150707,0.25598079
1764504867.3955662,-3.37246,3.8913,-2.04484,0.696958665,-0.67150707,0.25598079
1764504867.3955662,-3.37246,3.8913,-2.04484,0.696958665,-0.67150707,0.25598079
1764504867.3955662,-3.37246,3.8913,-2.04484,0.696958665,-0.67150707,0.25598079
1764504867.3955662,-2.4416,3.95234,-2.65524,0.698789715,-0.671568105,0.256285965
1764504867.3955662,-2.4416,3.95234,-2.65524,0.698789715,-0.671568105,0.256285965
1764504867.397845,-2.4416,3.95234,-2.65524,0.698789715,-0.671568105,0.256285965
1764504867.397845,-2.4416,3.95234,-2.65524,0.698789715,-0.671568105,0.256285965
1764504867.397845,-2.4416,3.95234,-2.65524,0.698789715,-0.671568105,0.256285965
1764504867.397845,-2.4416,3.95234,-2.65524,0.698789715,-0.671568105,0.256285965
1764504867.397845,-2.4416,3.95234,-2.65524,0.698789715,-0.671568105,0.256285965
1764504867.397845,-2.4416,3.95234,-2.65524,0.698789715,-0.671568105,0.256285965
1764504867.397845,-2.4416,3.95234,-2.65524,0.698789715,-0.671568105,0.256285965
1764504867.397845,-2.4416,3.95234,-2.65524,0.698789715,-0.671568105,0.256285965
1764504867.397845,-2.02958,3.92182,-2.96044,0.698179365,-0.671568105,0.256163895
1764504867.397845,-2.02958,3.92182,-2.96044,0.698179365,-0.671568105,0.256163895
1764504867.397845,-2.02958,3.92182,-2.96044,0.698179365,-0.671568105,0.256163895
1764504867.397845,-2.02958,3.92182,-2.96044,0.698179365,-0.671568105,0.256163895
1764504867.397845,-2.02958,3.92182,-2.96044,0.698179365,-0.671568105,0.256163895
1764504867.397845,-2.02958,3.92182,-2.96044,0.698179365,-0.671568105,0.256163895
1764504867.397845,-2.02958,3.92182,-2.96044,0.698179365,-0.671568105,0.256163895
1764504867.397845,-2.02958,3.92182,-2.96044,0.698179365,-0.671568105,0.256163895
1764504867.397845,-2.02958,3.92182,-2.96044,0.698179365,-0.671568105,0.256163895
1764504867.397845,-2.02958,3.92182,-2.96044,0.698179365,-0.671568105,0.256163895
1764504867.444142,-2.16692,4.16598,-2.289,0.69848454,-0.6701032650000001,0.25573665
1764504867.444142,-2.16692,4.16598,-2.289,0.69848454,-0.6701032650000001,0.25573665
1764504867.444142,-2.16692,4.16598,-2.289,0.69848454,-0.6701032650000001,0.25573665
1764504867.444142,-2.16692,4.16598,-2.289,0.69848454,-0.6701032650000001,0.25573665
1764504867.444142,-2.16692,4.16598,-2.289,0.69848454,-0.6701032650000001,0.25573665
1764504867.444142,-2.16692,4.16598,-2.289,0.69848454,-0.6701032650000001,0.25573665
1764504867.444142,-2.16692,4.16598,-2.289,0.69848454,-0.6701032650000001,0.25573665
1764504867.444142,-2.16692,4.16598,-2.289,0.69848454,-0.6701032650000001,0.25573665
1764504867.444142,-2.16692,4.16598,-2.289,0.69848454,-0.6701032650000001,0.25573665
1764504867.444142,-2.16692,4.16598,-2.289,0.69848454,-0.6701032650000001,0.25573665
1764504867.444142,-1.0682,4.63904,-0.82404,0.69872868,-0.66918774,0.2551263
1764504867.444142,-1.0682,4.63904,-0.82404,0.69872868,-0.66918774,0.2551263
1764504867.444142,-1.0682,4.63904,-0.82404,0.69872868,-0.66918774,0.2551263
1764504867.444142,-1.0682,4.63904,-0.82404,0.69872868,-0.66918774,0.2551263
1764504867.444142,-1.0682,4.63904,-0.82404,0.69872868,-0.66918774,0.2551263
1764504867.444142,-1.0682,4.63904,-0.82404,0.69872868,-0.66918774,0.2551263
1764504867.444142,-1.0682,4.63904,-0.82404,0.69872868,-0.66918774,0.2551263
1764504867.444142,-1.0682,4.63904,-0.82404,0.69872868,-0.66918774,0.2551263
1764504867.444142,-1.0682,4.63904,-0.82404,0.69872868,-0.66918774,0.2551263
1764504867.444142,-1.0682,4.63904,-0.82404,0.69872868,-0.66918774,0.2551263
1764504867.444142,0.01526,4.13546,1.08346,0.69933903,-0.667906005,0.254210775
1764504867.444142,0.01526,4.13546,1.08346,0.69933903,-0.667906005,0.254210775
1764504867.444142,0.01526,4.13546,1.08346,0.69933903,-0.667906005,0.254210775
1764504867.4456756,0.01526,4.13546,1.08346,0.69933903,-0.667906005,0.254210775
1764504867.4889443,0.01526,4.13546,1.08346,0.69933903,-0.667906005,0.254210775
1764504867.489462,0.01526,4.13546,1.08346,0.69933903,-0.667906005,0.254210775
1764504867.489462,0.01526,4.13546,1.08346,0.69933903,-0.667906005,0.254210775
1764504867.489462,0.01526,4.13546,1.08346,0.69933903,-0.667906005,0.254210775
1764504867.489462,0.01526,4.13546,1.08346,0.69933903,-0.667906005,0.254210775
1764504867.489462,0.01526,4.13546,1.08346,0.69933903,-0.667906005,0.254210775
1764504867.489462,0.82404,3.78448,1.63282,0.69982731,-0.667539795,0.253966635
1764504867.489462,0.82404,3.78448,1.63282,0.69982731,-0.667539795,0.253966635
1764504867.489462,0.82404,3.78448,1.63282,0.69982731,-0.667539795,0.253966635
1764504867.489462,0.82404,3.78448,1.63282,0.69982731,-0.667539795,0.253966635
1764504867.489462,0.82404,3.78448,1.63282,0.69982731,-0.667539795,0.253966635
1764504867.489462,0.82404,3.78448,1.63282,0.69982731,-0.667539795,0.253966635
1764504867.489462,0.82404,3.78448,1.63282,0.69982731,-0.667539795,0.253966635
1764504867.489462,0.82404,3.78448,1.63282,0.69982731,-0.667539795,0.253966635
1764504867.489462,0.82404,3.78448,1.63282,0.69982731,-0.667539795,0.253966635
1764504867.489462,0.82404,3.78448,1.63282,0.69982731,-0.667539795,0.253966635
1764504867.489462,0.82404,4.059159999999999,2.24322,0.700254555,-0.66833325,0.2551263
1764504867.489462,0.82404,4.059159999999999,2.24322,0.700254555,-0.66833325,0.2551263
1764504867.489462,0.82404,4.059159999999999,2.24322,0.700254555,-0.66833325,0.2551263
1764504867.489462,0.82404,4.059159999999999,2.24322,0.700254555,-0.66833325,0.2551263
1764504867.489462,0.82404,4.059159999999999,2.24322,0.700254555,-0.66833325,0.2551263
1764504867.489462,0.82404,4.059159999999999,2.24322,0.700254555,-0.66833325,0.2551263
1764504867.537228,0.82404,4.059159999999999,2.24322,0.700254555,-0.66833325,0.2551263
1764504867.537228,0.82404,4.059159999999999,2.24322,0.700254555,-0.66833325,0.2551263
1764504867.537228,0.82404,4.059159999999999,2.24322,0.700254555,-0.66833325,0.2551263
1764504867.537228,0.82404,4.059159999999999,2.24322,0.700254555,-0.66833325,0.2551263
1764504867.537228,0.9156,4.16598,2.1364,0.7004986950000001,-0.668272215,0.25500423
1764504867.537228,0.9156,4.16598,2.1364,0.7004986950000001,-0.668272215,0.25500423
1764504867.537228,0.9156,4.16598,2.1364,0.7004986950000001,-0.668272215,0.25500423
1764504867.537228,0.9156,4.16598,2.1364,0.7004986950000001,-0.668272215,0.25500423
1764504867.537228,0.9156,4.16598,2.1364,0.7004986950000001,-0.668272215,0.25500423
1764504867.537228,0.9156,4.16598,2.1364,0.7004986950000001,-0.668272215,0.25500423
1764504867.537228,0.9156,4.16598,2.1364,0.7004986950000001,-0.668272215,0.25500423
1764504867.537228,0.9156,4.16598,2.1364,0.7004986950000001,-0.668272215,0.25500423
1764504867.537228,0.9156,4.16598,2.1364,0.7004986950000001,-0.668272215,0.25500423
1764504867.537228,0.9156,4.16598,2.1364,0.7004986950000001,-0.668272215,0.25500423
1764504867.537228,1.00716,3.69292,1.58704,0.700254555,-0.66979809,0.25573665
1764504867.537228,1.00716,3.69292,1.58704,0.700254555,-0.66979809,0.25573665
1764504867.537228,1.00716,3.69292,1.58704,0.700254555,-0.66979809,0.25573665
1764504867.537228,1.00716,3.69292,1.58704,0.700254555,-0.66979809,0.25573665
1764504867.537228,1.00716,3.69292,1.58704,0.700254555,-0.66979809,0.25573665
1764504867.537228,1.00716,3.69292,1.58704,0.700254555,-0.66979809,0.25573665
1764504867.537228,1.00716,3.69292,1.58704,0.700254555,-0.66979809,0.25573665
1764504867.537228,1.00716,3.69292,1.58704,0.700254555,-0.66979809,0.25573665
1764504867.5825422,1.00716,3.69292,1.58704,0.700254555,-0.66979809,0.25573665
1764504867.5825422,1.00716,3.69292,1.58704,0.700254555,-0.66979809,0.25573665
1764504867.5825422,0.73248,3.46402,1.35814,0.698789715,-0.66992016,0.256041825
1764504867.5825422,0.73248,3.46402,1.35814,0.698789715,-0.66992016,0.256041825
1764504867.5825422,0.73248,3.46402,1.35814,0.698789715,-0.66992016,0.256041825
1764504867.5825422,0.73248,3.46402,1.35814,0.698789715,-0.66992016,0.256041825
1764504867.5825422,0.73248,3.46402,1.35814,0.698789715,-0.66992016,0.256041825
1764504867.5825422,0.73248,3.46402,1.35814,0.698789715,-0.66992016,0.256041825
1764504867.5825422,0.73248,3.46402,1.35814,0.698789715,-0.66992016,0.256041825
1764504867.5825422,0.73248,3.46402,1.35814,0.698789715,-0.66992016,0.256041825
1764504867.5835557,0.73248,3.46402,1.35814,0.698789715,-0.66992016,0.256041825
1764504867.5835557,0.73248,3.46402,1.35814,0.698789715,-0.66992016,0.256041825
1764504867.5835557,0.01526,3.93708,0.9003399999999999,0.698179365,-0.669614985,0.25707942
1764504867.5835557,0.01526,3.93708,0.9003399999999999,0.698179365,-0.669614985,0.25707942
1764504867.5835557,0.01526,3.93708,0.9003399999999999,0.698179365,-0.669614985,0.25707942
1764504867.5835557,0.01526,3.93708,0.9003399999999999,0.698179365,-0.669614985,0.25707942
1764504867.5835557,0.01526,3.93708,0.9003399999999999,0.698179365,-0.669614985,0.25707942
1764504867.5835557,0.01526,3.93708,0.9003399999999999,0.698179365,-0.669614985,0.25707942
1764504867.5835557,0.01526,3.93708,0.9003399999999999,0.698179365,-0.669614985,0.25707942
1764504867.5835557,0.01526,3.93708,0.9003399999999999,0.698179365,-0.669614985,0.25707942
1764504867.5835557,0.01526,3.93708,0.9003399999999999,0.698179365,-0.669614985,0.25707942
1764504867.5835557,0.01526,3.93708,0.9003399999999999,0.698179365,-0.669614985,0.25707942
1764504867.5835557,0.0,4.02864,0.50358,0.69799626,-0.66979809,0.257140455
1764504867.5835557,0.0,4.02864,0.50358,0.69799626,-0.66979809,0.257140455
1764504867.6288564,0.0,4.02864,0.50358,0.69799626,-0.66979809,0.257140455
1764504867.6288564,0.0,4.02864,0.50358,0.69799626,-0.66979809,0.257140455
1764504867.6288564,0.0,4.02864,0.50358,0.69799626,-0.66979809,0.257140455
1764504867.6288564,0.0,4.02864,0.50358,0.69799626,-0.66979809,0.257140455
1764504867.6288564,0.0,4.02864,0.50358,0.69799626,-0.66979809,0.257140455
1764504867.6288564,0.0,4.02864,0.50358,0.69799626,-0.66979809,0.257140455
1764504867.6288564,0.0,4.02864,0.50358,0.69799626,-0.66979809,0.257140455
1764504867.6288564,0.0,4.02864,0.50358,0.69799626,-0.66979809,0.257140455
1764504867.6288564,-0.47306,4.4254,0.28994,0.69738591,-0.67053051,0.25720149
1764504867.6288564,-0.47306,4.4254,0.28994,0.69738591,-0.67053051,0.25720149
1764504867.6288564,-0.47306,4.4254,0.28994,0.69738591,-0.67053051,0.25720149
1764504867.6288564,-0.47306,4.4254,0.28994,0.69738591,-0.67053051,0.25720149
1764504867.6288564,-0.47306,4.4254,0.28994,0.69738591,-0.67053051,0.25720149
1764504867.6288564,-0.47306,4.4254,0.28994,0.69738591,-0.67053051,0.25720149
1764504867.6288564,-0.47306,4.4254,0.28994,0.69738591,-0.67053051,0.25720149
1764504867.6288564,-0.47306,4.4254,0.28994,0.69738591,-0.67053051,0.25720149
1764504867.6288564,-0.47306,4.4254,0.28994,0.69738591,-0.67053051,0.25720149
1764504867.6288564,-0.47306,4.4254,0.28994,0.69738591,-0.67053051,0.25720149
1764504867.6298711,-0.2289,4.2728,0.10682,0.697446945,-0.670225335,0.256896315
1764504867.6298711,-0.2289,4.2728,0.10682,0.697446945,-0.670225335,0.256896315
1764504867.6298711,-0.2289,4.2728,0.10682,0.697446945,-0.670225335,0.256896315
1764504867.6298711,-0.2289,4.2728,0.10682,0.697446945,-0.670225335,0.256896315
1764504867.6298711,-0.2289,4.2728,0.10682,0.697446945,-0.670225335,0.256896315
1764504867.6298711,-0.2289,4.2728,0.10682,0.697446945,-0.670225335,0.256896315
1764504867.674453,-0.2289,4.2728,0.10682,0.697446945,-0.670225335,0.256896315
1764504867.674453,-0.2289,4.2728,0.10682,0.697446945,-0.670225335,0.256896315
1764504867.674453,-0.2289,4.2728,0.10682,0.697446945,-0.670225335,0.256896315
1764504867.674453,-0.2289,4.2728,0.10682,0.697446945,-0.670225335,0.256896315
1764504867.674453,-0.6714399999999999,4.86794,0.2289,0.69750798,-0.66967602,0.257018385
1764504867.674453,-0.6714399999999999,4.86794,0.2289,0.69750798,-0.66967602,0.257018385
1764504867.67549,-0.6714399999999999,4.86794,0.2289,0.69750798,-0.66967602,0.257018385
1764504867.67549,-0.6714399999999999,4.86794,0.2289,0.69750798,-0.66967602,0.257018385
1764504867.67549,-0.6714399999999999,4.86794,0.2289,0.69750798,-0.66967602,0.257018385
1764504867.67549,-0.6714399999999999,4.86794,0.2289,0.69750798,-0.66967602,0.257018385
1764504867.67549,-0.6714399999999999,4.86794,0.2289,0.69750798,-0.66967602,0.257018385
1764504867.67549,-0.6714399999999999,4.86794,0.2289,0.69750798,-0.66967602,0.257018385
1764504867.67549,-0.6714399999999999,4.86794,0.2289,0.69750798,-0.66967602,0.257018385
1764504867.67549,-0.6714399999999999,4.86794,0.2289,0.69750798,-0.66967602,0.257018385
1764504867.67549,-0.27468,4.33384,0.94612,0.69714177,-0.6695539500000001,0.257506665
1764504867.67549,-0.27468,4.33384,0.94612,0.69714177,-0.6695539500000001,0.257506665
1764504867.6785092,-0.27468,4.33384,0.94612,0.69714177,-0.6695539500000001,0.257506665
1764504867.6785092,-0.27468,4.33384,0.94612,0.69714177,-0.6695539500000001,0.257506665
1764504867.6790247,-0.27468,4.33384,0.94612,0.69714177,-0.6695539500000001,0.257506665
1764504867.6790247,-0.27468,4.33384,0.94612,0.69714177,-0.6695539500000001,0.257506665
1764504867.6790247,-0.27468,4.33384,0.94612,0.69714177,-0.6695539500000001,0.257506665
1764504867.6790247,-0.27468,4.33384,0.94612,0.69714177,-0.6695539500000001,0.257506665
1764504867.6790247,-0.27468,4.33384,0.94612,0.69714177,-0.6695539500000001,0.257506665
1764504867.6790247,-0.27468,4.33384,0.94612,0.69714177,-0.6695539500000001,0.257506665
1764504867.723177,-0.97664,3.87604,0.82404,0.6978741900000001,-0.669614985,0.257384595
1764504867.723177,-0.97664,3.87604,0.82404,0.6978741900000001,-0.669614985,0.257384595
1764504867.723177,-0.97664,3.87604,0.82404,0.6978741900000001,-0.669614985,0.257384595
1764504867.723177,-0.97664,3.87604,0.82404,0.6978741900000001,-0.669614985,0.257384595
1764504867.723177,-0.97664,3.87604,0.82404,0.6978741900000001,-0.669614985,0.257384595
1764504867.723177,-0.97664,3.87604,0.82404,0.6978741900000001,-0.669614985,0.257384595
1764504867.723177,-0.97664,3.87604,0.82404,0.6978741900000001,-0.669614985,0.257384595
1764504867.723177,-0.97664,3.87604,0.82404,0.6978741900000001,-0.669614985,0.257384595
1764504867.7247229,-0.97664,3.87604,0.82404,0.6978741900000001,-0.669614985,0.257384595
1764504867.7247229,-0.97664,3.87604,0.82404,0.6978741900000001,-0.669614985,0.257384595
1764504867.7247229,-0.6867,3.78448,1.03768,0.698301435,-0.669004635,0.257506665
1764504867.7247229,-0.6867,3.78448,1.03768,0.698301435,-0.669004635,0.257506665
1764504867.7247229,-0.6867,3.78448,1.03768,0.698301435,-0.669004635,0.257506665
1764504867.7247229,-0.6867,3.78448,1.03768,0.698301435,-0.669004635,0.257506665
1764504867.7247229,-0.6867,3.78448,1.03768,0.698301435,-0.669004635,0.257506665
1764504867.7247229,-0.6867,3.78448,1.03768,0.698301435,-0.669004635,0.257506665
1764504867.7247229,-0.6867,3.78448,1.03768,0.698301435,-0.669004635,0.257506665
1764504867.7247229,-0.6867,3.78448,1.03768,0.698301435,-0.669004635,0.257506665
1764504867.7247229,-0.6867,3.78448,1.03768,0.698301435,-0.669004635,0.257506665
1764504867.725253,-0.6867,3.78448,1.03768,0.698301435,-0.669004635,0.257506665
1764504867.725253,-0.6714399999999999,3.23512,1.46496,0.698545575,-0.668882565,0.2575677
1764504867.725253,-0.6714399999999999,3.23512,1.46496,0.698545575,-0.668882565,0.2575677
1764504867.7685795,-0.6714399999999999,3.23512,1.46496,0.698545575,-0.668882565,0.2575677
1764504867.7696204,-0.6714399999999999,3.23512,1.46496,0.698545575,-0.668882565,0.2575677
1764504867.7696204,-0.6714399999999999,3.23512,1.46496,0.698545575,-0.668882565,0.2575677
1764504867.7696204,-0.6714399999999999,3.23512,1.46496,0.698545575,-0.668882565,0.2575677
1764504867.7696204,-0.6714399999999999,3.23512,1.46496,0.698545575,-0.668882565,0.2575677
1764504867.7696204,-0.6714399999999999,3.23512,1.46496,0.698545575,-0.668882565,0.2575677
1764504867.7696204,-0.6714399999999999,3.23512,1.46496,0.698545575,-0.668882565,0.2575677
1764504867.7696204,-0.6714399999999999,3.23512,1.46496,0.698545575,-0.668882565,0.2575677
1764504867.7696204,-0.28994,3.75396,2.04484,0.6984235050000001,-0.66882153,0.257262525
1764504867.7696204,-0.28994,3.75396,2.04484,0.6984235050000001,-0.66882153,0.257262525
1764504867.7696204,-0.28994,3.75396,2.04484,0.6984235050000001,-0.66882153,0.257262525
1764504867.7696204,-0.28994,3.75396,2.04484,0.6984235050000001,-0.66882153,0.257262525
1764504867.770598,-0.28994,3.75396,2.04484,0.6984235050000001,-0.66882153,0.257262525
1764504867.770598,-0.28994,3.75396,2.04484,0.6984235050000001,-0.66882153,0.257262525
1764504867.770598,-0.28994,3.75396,2.04484,0.6984235050000001,-0.66882153,0.257262525
1764504867.770598,-0.28994,3.75396,2.04484,0.6984235050000001,-0.66882153,0.257262525
1764504867.770598,-0.28994,3.75396,2.04484,0.6984235050000001,-0.66882153,0.257262525
1764504867.770598,-0.28994,3.75396,2.04484,0.6984235050000001,-0.66882153,0.257262525
1764504867.770598,1.1445,4.45592,2.16692,0.69909489,-0.66930981,0.255797685
1764504867.770598,1.1445,4.45592,2.16692,0.69909489,-0.66930981,0.255797685
1764504867.770598,1.1445,4.45592,2.16692,0.69909489,-0.66930981,0.255797685
1764504867.770598,1.1445,4.45592,2.16692,0.69909489,-0.66930981,0.255797685
1764504867.8139594,1.1445,4.45592,2.16692,0.69909489,-0.66930981,0.255797685
1764504867.8139594,1.1445,4.45592,2.16692,0.69909489,-0.66930981,0.255797685
1764504867.8144786,1.1445,4.45592,2.16692,0.69909489,-0.66930981,0.255797685
1764504867.8144786,1.1445,4.45592,2.16692,0.69909489,-0.66930981,0.255797685
1764504867.8144786,1.1445,4.45592,2.16692,0.69909489,-0.66930981,0.255797685
1764504867.8144786,1.1445,4.45592,2.16692,0.69909489,-0.66930981,0.255797685
1764504867.8144786,1.0682,4.8069,1.6786,0.698667645,-0.66943188,0.25646907
1764504867.8144786,1.0682,4.8069,1.6786,0.698667645,-0.66943188,0.25646907
1764504867.8144786,1.0682,4.8069,1.6786,0.698667645,-0.66943188,0.25646907
1764504867.8144786,1.0682,4.8069,1.6786,0.698667645,-0.66943188,0.25646907
1764504867.8144786,1.0682,4.8069,1.6786,0.698667645,-0.66943188,0.25646907
1764504867.8144786,1.0682,4.8069,1.6786,0.698667645,-0.66943188,0.25646907
1764504867.8144786,1.0682,4.8069,1.6786,0.698667645,-0.66943188,0.25646907
1764504867.8144786,1.0682,4.8069,1.6786,0.698667645,-0.66943188,0.25646907
1764504867.8144786,1.0682,4.8069,1.6786,0.698667645,-0.66943188,0.25646907
1764504867.8144786,1.0682,4.8069,1.6786,0.698667645,-0.66943188,0.25646907
1764504867.8144786,0.62566,4.3491,1.57178,0.697813155,-0.669737055,0.25683528
1764504867.8144786,0.62566,4.3491,1.57178,0.697813155,-0.669737055,0.25683528
1764504867.8144786,0.62566,4.3491,1.57178,0.697813155,-0.669737055,0.25683528
1764504867.8144786,0.62566,4.3491,1.57178,0.697813155,-0.669737055,0.25683528
1764504867.8144786,0.62566,4.3491,1.57178,0.697813155,-0.669737055,0.25683528
1764504867.8144786,0.62566,4.3491,1.57178,0.697813155,-0.669737055,0.25683528
1764504867.863177,0.62566,4.3491,1.57178,0.697813155,-0.669737055,0.25683528
1764504867.863177,0.62566,4.3491,1.57178,0.697813155,-0.669737055,0.25683528
1764504867.863177,0.62566,4.3491,1.57178,0.697813155,-0.669737055,0.25683528
1764504867.863177,0.62566,4.3491,1.57178,0.697813155,-0.669737055,0.25683528
1764504867.863177,0.39676,3.92182,3.052,0.69750798,-0.669126705,0.25817805
1764504867.863177,0.39676,3.92182,3.052,0.69750798,-0.669126705,0.25817805
1764504867.863177,0.39676,3.92182,3.052,0.69750798,-0.669126705,0.25817805
1764504867.863177,0.39676,3.92182,3.052,0.69750798,-0.669126705,0.25817805
1764504867.863177,0.39676,3.92182,3.052,0.69750798,-0.669126705,0.25817805
1764504867.863177,0.39676,3.92182,3.052,0.69750798,-0.669126705,0.25817805
1764504867.863177,0.39676,3.92182,3.052,0.69750798,-0.669126705,0.25817805
1764504867.863177,0.39676,3.92182,3.052,0.69750798,-0.669126705,0.25817805
1764504867.863177,0.39676,3.92182,3.052,0.69750798,-0.669126705,0.25817805
1764504867.863177,0.39676,3.92182,3.052,0.69750798,-0.669126705,0.25817805
1764504867.863177,-2.73154,1.81594,1.8312,0.695005545,-0.663999765,0.25952082
1764504867.863177,-2.73154,1.81594,1.8312,0.695005545,-0.663999765,0.25952082
1764504867.863177,-2.73154,1.81594,1.8312,0.695005545,-0.663999765,0.25952082
1764504867.863177,-2.73154,1.81594,1.8312,0.695005545,-0.663999765,0.25952082
1764504867.863177,-2.73154,1.81594,1.8312,0.695005545,-0.663999765,0.25952082
1764504867.863177,-2.73154,1.81594,1.8312,0.695005545,-0.663999765,0.25952082
1764504867.863177,-2.73154,1.81594,1.8312,0.695005545,-0.663999765,0.25952082
1764504867.863177,-2.73154,1.81594,1.8312,0.695005545,-0.663999765,0.25952082
1764504867.863177,-2.73154,1.81594,1.8312,0.695005545,-0.663999765,0.25952082
1764504867.863177,-2.73154,1.81594,1.8312,0.695005545,-0.663999765,0.25952082
1764504867.863177,-1.9838,2.6705,1.69386,0.69775212,-0.66857739,0.25939875
1764504867.863177,-1.9838,2.6705,1.69386,0.69775212,-0.66857739,0.25939875
1764504867.9085646,-1.9838,2.6705,1.69386,0.69775212,-0.66857739,0.25939875
1764504867.9085646,-1.9838,2.6705,1.69386,0.69775212,-0.66857739,0.25939875
1764504867.9085646,-1.9838,2.6705,1.69386,0.69775212,-0.66857739,0.25939875
1764504867.9085646,-1.9838,2.6705,1.69386,0.69775212,-0.66857739,0.25939875
1764504867.9085646,-1.9838,2.6705,1.69386,0.69775212,-0.66857739,0.25939875
1764504867.9085646,-1.9838,2.6705,1.69386,0.69775212,-0.66857739,0.25939875
1764504867.9085646,-1.9838,2.6705,1.69386,0.69775212,-0.66857739,0.25939875
1764504867.9085646,-1.9838,2.6705,1.69386,0.69775212,-0.66857739,0.25939875
