Timestamp,GyroX,GyroY,GyroZ,AccX,AccY,AccZ
1764764057.4027386,-5.508859999999999,1.57178,-3.60136,0.91161876,-0.421812885,-0.011047335
1764764057.4027386,-5.508859999999999,1.57178,-3.60136,0.91161876,-0.421812885,-0.011047335
1764764057.4027386,-5.44782,2.07536,-3.7387,0.911191515,-0.421202535,-0.01232907
1764764057.4027386,-5.44782,2.07536,-3.7387,0.911191515,-0.421202535,-0.01232907
1764764057.4027386,-5.44782,2.07536,-3.7387,0.911191515,-0.421202535,-0.01232907
1764764057.4027386,-5.44782,2.07536,-3.7387,0.911191515,-0.421202535,-0.01232907
1764764057.4027386,-5.44782,2.07536,-3.7387,0.911191515,-0.421202535,-0.01232907
1764764057.4027386,-5.44782,2.07536,-3.7387,0.911191515,-0.421202535,-0.01232907
1764764057.4027386,-5.44782,2.07536,-3.7387,0.911191515,-0.421202535,-0.01232907
1764764057.4027386,-5.44782,2.07536,-3.7387,0.911191515,-0.421202535,-0.01232907
1764764057.4027386,-5.44782,2.07536,-3.7387,0.911191515,-0.421202535,-0.01232907
1764764057.4027386,-5.44782,2.07536,-3.7387,0.911191515,-0.421202535,-0.01232907
1764764057.4027386,-5.32574,1.93802,-3.09778,0.90954357,-0.42040908,-0.012145965
1764764057.4027386,-5.32574,1.93802,-3.09778,0.90954357,-0.42040908,-0.012145965
1764764057.4027386,-5.32574,1.93802,-3.09778,0.90954357,-0.42040908,-0.012145965
1764764057.4027386,-5.32574,1.93802,-3.09778,0.90954357,-0.42040908,-0.012145965
1764764057.4027386,-5.32574,1.93802,-3.09778,0.90954357,-0.42040908,-0.012145965
1764764057.4027386,-5.32574,1.93802,-3.09778,0.90954357,-0.42040908,-0.012145965
1764764057.4027386,-5.32574,1.93802,-3.09778,0.90954357,-0.42040908,-0.012145965
1764764057.4027386,-5.32574,1.93802,-3.09778,0.90954357,-0.42040908,-0.012145965
1764764057.4027386,-5.32574,1.93802,-3.09778,0.90954357,-0.42040908,-0.012145965
1764764057.4027386,-5.32574,1.93802,-3.09778,0.90954357,-0.42040908,-0.012145965
1764764057.4027386,-5.21892,1.9838,-2.35004,0.90832287,-0.419493555,-0.012634245
1764764057.4027386,-5.21892,1.9838,-2.35004,0.90832287,-0.419493555,-0.012634245
1764764057.4499094,-5.21892,1.9838,-2.35004,0.90832287,-0.419493555,-0.012634245
1764764057.4499094,-5.21892,1.9838,-2.35004,0.90832287,-0.419493555,-0.012634245
1764764057.4499094,-5.21892,1.9838,-2.35004,0.90832287,-0.419493555,-0.012634245
1764764057.4499094,-5.21892,1.9838,-2.35004,0.90832287,-0.419493555,-0.012634245
1764764057.4499094,-5.21892,1.9838,-2.35004,0.90832287,-0.419493555,-0.012634245
1764764057.4509225,-5.21892,1.9838,-2.35004,0.90832287,-0.419493555,-0.012634245
1764764057.4509225,-5.21892,1.9838,-2.35004,0.90832287,-0.419493555,-0.012634245
1764764057.4509225,-5.21892,1.9838,-2.35004,0.90832287,-0.419493555,-0.012634245
1764764057.4516156,-5.05106,1.86172,-1.9075,0.91003185,-0.41882217,-0.01293942
1764764057.4516156,-5.05106,1.86172,-1.9075,0.91003185,-0.41882217,-0.01293942
1764764057.4516156,-5.05106,1.86172,-1.9075,0.91003185,-0.41882217,-0.01293942
1764764057.4516156,-5.05106,1.86172,-1.9075,0.91003185,-0.41882217,-0.01293942
1764764057.4516156,-5.05106,1.86172,-1.9075,0.91003185,-0.41882217,-0.01293942
1764764057.4516156,-5.05106,1.86172,-1.9075,0.91003185,-0.41882217,-0.01293942
1764764057.4516156,-5.05106,1.86172,-1.9075,0.91003185,-0.41882217,-0.01293942
1764764057.4516156,-5.05106,1.86172,-1.9075,0.91003185,-0.41882217,-0.01293942
1764764057.4516156,-5.05106,1.86172,-1.9075,0.91003185,-0.41882217,-0.01293942
1764764057.4516156,-5.05106,1.86172,-1.9075,0.91003185,-0.41882217,-0.01293942
1764764057.4516156,-4.8832,1.69386,-1.25132,0.91161876,-0.4187001,-0.013366665
1764764057.4516156,-4.8832,1.69386,-1.25132,0.91161876,-0.4187001,-0.013366665
1764764057.4526255,-4.8832,1.69386,-1.25132,0.91161876,-0.4187001,-0.013366665
1764764057.4526255,-4.8832,1.69386,-1.25132,0.91161876,-0.4187001,-0.013366665
1764764057.498839,-4.8832,1.69386,-1.25132,0.91161876,-0.4187001,-0.013366665
1764764057.498839,-4.8832,1.69386,-1.25132,0.91161876,-0.4187001,-0.013366665
1764764057.498839,-4.8832,1.69386,-1.25132,0.91161876,-0.4187001,-0.013366665
1764764057.498839,-4.8832,1.69386,-1.25132,0.91161876,-0.4187001,-0.013366665
1764764057.498839,-4.8832,1.69386,-1.25132,0.91161876,-0.4187001,-0.013366665
1764764057.498839,-4.8832,1.69386,-1.25132,0.91161876,-0.4187001,-0.013366665
1764764057.498839,-4.4254,1.8006799999999998,-0.6714399999999999,0.91003185,-0.419371485,-0.01318356
1764764057.498839,-4.4254,1.8006799999999998,-0.6714399999999999,0.91003185,-0.419371485,-0.01318356
1764764057.498839,-4.4254,1.8006799999999998,-0.6714399999999999,0.91003185,-0.419371485,-0.01318356
1764764057.498839,-4.4254,1.8006799999999998,-0.6714399999999999,0.91003185,-0.419371485,-0.01318356
1764764057.5003605,-4.4254,1.8006799999999998,-0.6714399999999999,0.91003185,-0.419371485,-0.01318356
1764764057.5003605,-4.4254,1.8006799999999998,-0.6714399999999999,0.91003185,-0.419371485,-0.01318356
1764764057.5003605,-4.4254,1.8006799999999998,-0.6714399999999999,0.91003185,-0.419371485,-0.01318356
1764764057.5003605,-4.4254,1.8006799999999998,-0.6714399999999999,0.91003185,-0.419371485,-0.01318356
1764764057.5003605,-4.4254,1.8006799999999998,-0.6714399999999999,0.91003185,-0.419371485,-0.01318356
1764764057.5003605,-4.4254,1.8006799999999998,-0.6714399999999999,0.91003185,-0.419371485,-0.01318356
1764764057.5003605,-3.9676,1.25132,-0.06104,0.911069445,-0.41906631,-0.01416012
1764764057.5003605,-3.9676,1.25132,-0.06104,0.911069445,-0.41906631,-0.01416012
1764764057.5003605,-3.9676,1.25132,-0.06104,0.911069445,-0.41906631,-0.01416012
1764764057.5003605,-3.9676,1.25132,-0.06104,0.911069445,-0.41906631,-0.01416012
1764764057.5003605,-3.9676,1.25132,-0.06104,0.911069445,-0.41906631,-0.01416012
1764764057.5003605,-3.9676,1.25132,-0.06104,0.911069445,-0.41906631,-0.01416012
1764764057.5003605,-3.9676,1.25132,-0.06104,0.911069445,-0.41906631,-0.01416012
1764764057.5003605,-3.9676,1.25132,-0.06104,0.911069445,-0.41906631,-0.01416012
1764764057.545539,-3.9676,1.25132,-0.06104,0.911069445,-0.41906631,-0.01416012
1764764057.545539,-3.9676,1.25132,-0.06104,0.911069445,-0.41906631,-0.01416012
1764764057.545539,-3.9676,1.4497,-0.19838,0.912046005,-0.418394925,-0.01440426
1764764057.545539,-3.9676,1.4497,-0.19838,0.912046005,-0.418394925,-0.01440426
1764764057.545539,-3.9676,1.4497,-0.19838,0.912046005,-0.418394925,-0.01440426
1764764057.545539,-3.9676,1.4497,-0.19838,0.912046005,-0.418394925,-0.01440426
1764764057.545539,-3.9676,1.4497,-0.19838,0.912046005,-0.418394925,-0.01440426
1764764057.545539,-3.9676,1.4497,-0.19838,0.912046005,-0.418394925,-0.01440426
1764764057.545539,-3.9676,1.4497,-0.19838,0.912046005,-0.418394925,-0.01440426
1764764057.545539,-3.9676,1.4497,-0.19838,0.912046005,-0.418394925,-0.01440426
1764764057.545539,-3.9676,1.4497,-0.19838,0.912046005,-0.418394925,-0.01440426
1764764057.545539,-3.9676,1.4497,-0.19838,0.912046005,-0.418394925,-0.01440426
1764764057.545539,-3.55558,1.32762,-0.48832,0.91344981,-0.41723526,-0.013488735
1764764057.545539,-3.55558,1.32762,-0.48832,0.91344981,-0.41723526,-0.013488735
1764764057.545539,-3.55558,1.32762,-0.48832,0.91344981,-0.41723526,-0.013488735
1764764057.545539,-3.55558,1.32762,-0.48832,0.91344981,-0.41723526,-0.013488735
1764764057.545539,-3.55558,1.32762,-0.48832,0.91344981,-0.41723526,-0.013488735
1764764057.545539,-3.55558,1.32762,-0.48832,0.91344981,-0.41723526,-0.013488735
1764764057.545539,-3.55558,1.32762,-0.48832,0.91344981,-0.41723526,-0.013488735
1764764057.545539,-3.55558,1.32762,-0.48832,0.91344981,-0.41723526,-0.013488735
1764764057.545539,-3.55558,1.32762,-0.48832,0.91344981,-0.41723526,-0.013488735
1764764057.545539,-3.55558,1.32762,-0.48832,0.91344981,-0.41723526,-0.013488735
1764764057.545539,-3.78448,2.60946,-0.93086,0.915586035,-0.41650284,-0.013000455
1764764057.545539,-3.78448,2.60946,-0.93086,0.915586035,-0.41650284,-0.013000455
1764764057.5921414,-3.78448,2.60946,-0.93086,0.915586035,-0.41650284,-0.013000455
1764764057.5921414,-3.78448,2.60946,-0.93086,0.915586035,-0.41650284,-0.013000455
1764764057.5921414,-3.78448,2.60946,-0.93086,0.915586035,-0.41650284,-0.013000455
1764764057.5921414,-3.78448,2.60946,-0.93086,0.915586035,-0.41650284,-0.013000455
1764764057.5921414,-3.78448,2.60946,-0.93086,0.915586035,-0.41650284,-0.013000455
1764764057.5921414,-3.78448,2.60946,-0.93086,0.915586035,-0.41650284,-0.013000455
1764764057.5921414,-3.78448,2.60946,-0.93086,0.915586035,-0.41650284,-0.013000455
1764764057.5921414,-3.78448,2.60946,-0.93086,0.915586035,-0.41650284,-0.013000455
1764764057.5921414,-3.26564,3.5098,-1.6022999999999998,0.91650156,-0.415221105,-0.013122525
1764764057.5921414,-3.26564,3.5098,-1.6022999999999998,0.91650156,-0.415221105,-0.013122525
1764764057.5921414,-3.26564,3.5098,-1.6022999999999998,0.91650156,-0.415221105,-0.013122525
1764764057.5921414,-3.26564,3.5098,-1.6022999999999998,0.91650156,-0.415221105,-0.013122525
1764764057.5921414,-3.26564,3.5098,-1.6022999999999998,0.91650156,-0.415221105,-0.013122525
1764764057.5921414,-3.26564,3.5098,-1.6022999999999998,0.91650156,-0.415221105,-0.013122525
1764764057.5921414,-3.26564,3.5098,-1.6022999999999998,0.91650156,-0.415221105,-0.013122525
1764764057.5921414,-3.26564,3.5098,-1.6022999999999998,0.91650156,-0.415221105,-0.013122525
1764764057.5921414,-3.26564,3.5098,-1.6022999999999998,0.91650156,-0.415221105,-0.013122525
1764764057.5921414,-3.26564,3.5098,-1.6022999999999998,0.91650156,-0.415221105,-0.013122525
1764764057.5921414,-4.07442,3.26564,-2.09062,0.915219825,-0.4138173,-0.01281735
1764764057.5921414,-4.07442,3.26564,-2.09062,0.915219825,-0.4138173,-0.01281735
1764764057.5921414,-4.07442,3.26564,-2.09062,0.915219825,-0.4138173,-0.01281735
1764764057.5921414,-4.07442,3.26564,-2.09062,0.915219825,-0.4138173,-0.01281735
1764764057.6355288,-4.07442,3.26564,-2.09062,0.915219825,-0.4138173,-0.01281735
1764764057.6355288,-4.07442,3.26564,-2.09062,0.915219825,-0.4138173,-0.01281735
1764764057.6355288,-4.07442,3.26564,-2.09062,0.915219825,-0.4138173,-0.01281735
1764764057.6355288,-4.07442,3.26564,-2.09062,0.915219825,-0.4138173,-0.01281735
1764764057.6355288,-4.07442,3.26564,-2.09062,0.915219825,-0.4138173,-0.01281735
1764764057.6355288,-4.07442,3.26564,-2.09062,0.915219825,-0.4138173,-0.01281735
1764764057.6355288,-3.92182,1.9838,-1.93802,0.912412215,-0.41271867,-0.012512175
1764764057.6355288,-3.92182,1.9838,-1.93802,0.912412215,-0.41271867,-0.012512175
1764764057.6355288,-3.92182,1.9838,-1.93802,0.912412215,-0.41271867,-0.012512175
1764764057.6355288,-3.92182,1.9838,-1.93802,0.912412215,-0.41271867,-0.012512175
1764764057.6355288,-3.92182,1.9838,-1.93802,0.912412215,-0.41271867,-0.012512175
1764764057.6355288,-3.92182,1.9838,-1.93802,0.912412215,-0.41271867,-0.012512175
1764764057.6355288,-3.92182,1.9838,-1.93802,0.912412215,-0.41271867,-0.012512175
1764764057.6355288,-3.92182,1.9838,-1.93802,0.912412215,-0.41271867,-0.012512175
1764764057.6355288,-3.92182,1.9838,-1.93802,0.912412215,-0.41271867,-0.012512175
1764764057.6355288,-3.92182,1.9838,-1.93802,0.912412215,-0.41271867,-0.012512175
1764764057.6371417,-4.01338,1.64808,-1.6786,0.91003185,-0.413267985,-0.01196286
1764764057.6371417,-4.01338,1.64808,-1.6786,0.91003185,-0.413267985,-0.01196286
1764764057.6371417,-4.01338,1.64808,-1.6786,0.91003185,-0.413267985,-0.01196286
1764764057.6371417,-4.01338,1.64808,-1.6786,0.91003185,-0.413267985,-0.01196286
1764764057.6371417,-4.01338,1.64808,-1.6786,0.91003185,-0.413267985,-0.01196286
1764764057.6371417,-4.01338,1.64808,-1.6786,0.91003185,-0.413267985,-0.01196286
1764764057.6371417,-4.01338,1.64808,-1.6786,0.91003185,-0.413267985,-0.01196286
1764764057.6371417,-4.01338,1.64808,-1.6786,0.91003185,-0.413267985,-0.01196286
1764764057.6837804,-4.01338,1.64808,-1.6786,0.91003185,-0.413267985,-0.01196286
1764764057.6837804,-4.01338,1.64808,-1.6786,0.91003185,-0.413267985,-0.01196286
1764764057.6837804,-3.18934,1.17502,-0.73248,0.911435655,-0.41467179,-0.01123044
1764764057.6837804,-3.18934,1.17502,-0.73248,0.911435655,-0.41467179,-0.01123044
1764764057.6853025,-3.18934,1.17502,-0.73248,0.911435655,-0.41467179,-0.01123044
1764764057.6853025,-3.18934,1.17502,-0.73248,0.911435655,-0.41467179,-0.01123044
1764764057.6853025,-3.18934,1.17502,-0.73248,0.911435655,-0.41467179,-0.01123044
1764764057.6853025,-3.18934,1.17502,-0.73248,0.911435655,-0.41467179,-0.01123044
1764764057.6853025,-3.18934,1.17502,-0.73248,0.911435655,-0.41467179,-0.01123044
1764764057.6853025,-3.18934,1.17502,-0.73248,0.911435655,-0.41467179,-0.01123044
1764764057.6853025,-3.18934,1.17502,-0.73248,0.911435655,-0.41467179,-0.01123044
1764764057.6853025,-3.18934,1.17502,-0.73248,0.911435655,-0.41467179,-0.01123044
1764764057.6853025,-3.55558,1.00716,-0.59514,0.913877055,-0.413878335,-0.01110837
1764764057.6853025,-3.55558,1.00716,-0.59514,0.913877055,-0.413878335,-0.01110837
1764764057.6853025,-3.55558,1.00716,-0.59514,0.913877055,-0.413878335,-0.01110837
1764764057.6853025,-3.55558,1.00716,-0.59514,0.913877055,-0.413878335,-0.01110837
1764764057.6853025,-3.55558,1.00716,-0.59514,0.913877055,-0.413878335,-0.01110837
1764764057.6853025,-3.55558,1.00716,-0.59514,0.913877055,-0.413878335,-0.01110837
1764764057.6853025,-3.55558,1.00716,-0.59514,0.913877055,-0.413878335,-0.01110837
1764764057.6853025,-3.55558,1.00716,-0.59514,0.913877055,-0.413878335,-0.01110837
1764764057.6853025,-3.55558,1.00716,-0.59514,0.913877055,-0.413878335,-0.01110837
1764764057.6853025,-3.55558,1.00716,-0.59514,0.913877055,-0.413878335,-0.01110837
1764764057.7314606,-4.47118,1.05294,-0.0762999999999999,0.914121195,-0.41186418,-0.01147458
1764764057.7314606,-4.47118,1.05294,-0.0762999999999999,0.914121195,-0.41186418,-0.01147458
1764764057.7314606,-4.47118,1.05294,-0.0762999999999999,0.914121195,-0.41186418,-0.01147458
1764764057.7314606,-4.47118,1.05294,-0.0762999999999999,0.914121195,-0.41186418,-0.01147458
1764764057.7314606,-4.47118,1.05294,-0.0762999999999999,0.914121195,-0.41186418,-0.01147458
1764764057.7314606,-4.47118,1.05294,-0.0762999999999999,0.914121195,-0.41186418,-0.01147458
1764764057.7314606,-4.47118,1.05294,-0.0762999999999999,0.914121195,-0.41186418,-0.01147458
1764764057.7314606,-4.47118,1.05294,-0.0762999999999999,0.914121195,-0.41186418,-0.01147458
1764764057.7314606,-4.47118,1.05294,-0.0762999999999999,0.914121195,-0.41186418,-0.01147458
1764764057.7314606,-4.47118,1.05294,-0.0762999999999999,0.914121195,-0.41186418,-0.01147458
1764764057.7314606,-4.440659999999999,1.35814,0.3509799999999999,0.914853615,-0.413267985,-0.011779755
1764764057.7314606,-4.440659999999999,1.35814,0.3509799999999999,0.914853615,-0.413267985,-0.011779755
1764764057.7314606,-4.440659999999999,1.35814,0.3509799999999999,0.914853615,-0.413267985,-0.011779755
1764764057.7314606,-4.440659999999999,1.35814,0.3509799999999999,0.914853615,-0.413267985,-0.011779755
1764764057.7314606,-4.440659999999999,1.35814,0.3509799999999999,0.914853615,-0.413267985,-0.011779755
1764764057.7314606,-4.440659999999999,1.35814,0.3509799999999999,0.914853615,-0.413267985,-0.011779755
1764764057.7314606,-4.440659999999999,1.35814,0.3509799999999999,0.914853615,-0.413267985,-0.011779755
1764764057.7314606,-4.440659999999999,1.35814,0.3509799999999999,0.914853615,-0.413267985,-0.011779755
1764764057.7314606,-4.440659999999999,1.35814,0.3509799999999999,0.914853615,-0.413267985,-0.011779755
1764764057.7314606,-4.440659999999999,1.35814,0.3509799999999999,0.914853615,-0.413267985,-0.011779755
1764764057.7314606,-4.83742,0.8392999999999999,0.96138,0.91222911,-0.41320695,-0.012634245
1764764057.7314606,-4.83742,0.8392999999999999,0.96138,0.91222911,-0.41320695,-0.012634245
1764764057.7314606,-4.83742,0.8392999999999999,0.96138,0.91222911,-0.41320695,-0.012634245
1764764057.7314606,-4.83742,0.8392999999999999,0.96138,0.91222911,-0.41320695,-0.012634245
1764764057.7745063,-4.83742,0.8392999999999999,0.96138,0.91222911,-0.41320695,-0.012634245
1764764057.7745063,-4.83742,0.8392999999999999,0.96138,0.91222911,-0.41320695,-0.012634245
1764764057.7745063,-4.83742,0.8392999999999999,0.96138,0.91222911,-0.41320695,-0.012634245
1764764057.7745063,-4.83742,0.8392999999999999,0.96138,0.91222911,-0.41320695,-0.012634245
1764764057.7745063,-4.83742,0.8392999999999999,0.96138,0.91222911,-0.41320695,-0.012634245
1764764057.7745063,-4.83742,0.8392999999999999,0.96138,0.91222911,-0.41320695,-0.012634245
1764764057.7745063,-5.38678,0.18312,1.2971,0.91149669,-0.412535565,-0.013732875
1764764057.7745063,-5.38678,0.18312,1.2971,0.91149669,-0.412535565,-0.013732875
1764764057.7745063,-5.38678,0.18312,1.2971,0.91149669,-0.412535565,-0.013732875
1764764057.7745063,-5.38678,0.18312,1.2971,0.91149669,-0.412535565,-0.013732875
1764764057.7755153,-5.38678,0.18312,1.2971,0.91149669,-0.412535565,-0.013732875
1764764057.7755153,-5.38678,0.18312,1.2971,0.91149669,-0.412535565,-0.013732875
1764764057.7755153,-5.38678,0.18312,1.2971,0.91149669,-0.412535565,-0.013732875
1764764057.7755153,-5.38678,0.18312,1.2971,0.91149669,-0.412535565,-0.013732875
1764764057.7755153,-5.38678,0.18312,1.2971,0.91149669,-0.412535565,-0.013732875
1764764057.7755153,-5.38678,0.18312,1.2971,0.91149669,-0.412535565,-0.013732875
1764764057.7755153,-5.340999999999999,0.74774,1.61756,0.912534285,-0.41528214,-0.013854945
1764764057.7755153,-5.340999999999999,0.74774,1.61756,0.912534285,-0.41528214,-0.013854945
1764764057.7755153,-5.340999999999999,0.74774,1.61756,0.912534285,-0.41528214,-0.013854945
1764764057.7755153,-5.340999999999999,0.74774,1.61756,0.912534285,-0.41528214,-0.013854945
1764764057.7755153,-5.340999999999999,0.74774,1.61756,0.912534285,-0.41528214,-0.013854945
1764764057.7755153,-5.340999999999999,0.74774,1.61756,0.912534285,-0.41528214,-0.013854945
1764764057.8226,-5.340999999999999,0.74774,1.61756,0.912534285,-0.41528214,-0.013854945
1764764057.8226,-5.340999999999999,0.74774,1.61756,0.912534285,-0.41528214,-0.013854945
1764764057.8226,-5.340999999999999,0.74774,1.61756,0.912534285,-0.41528214,-0.013854945
1764764057.8226,-5.340999999999999,0.74774,1.61756,0.912534285,-0.41528214,-0.013854945
1764764057.8235948,-4.45592,1.03768,1.00716,0.913510845,-0.416197665,-0.01391598
1764764057.8235948,-4.45592,1.03768,1.00716,0.913510845,-0.416197665,-0.01391598
1764764057.8235948,-4.45592,1.03768,1.00716,0.913510845,-0.416197665,-0.01391598
1764764057.8235948,-4.45592,1.03768,1.00716,0.913510845,-0.416197665,-0.01391598
1764764057.8235948,-4.45592,1.03768,1.00716,0.913510845,-0.416197665,-0.01391598
1764764057.8235948,-4.45592,1.03768,1.00716,0.913510845,-0.416197665,-0.01391598
1764764057.8235948,-4.45592,1.03768,1.00716,0.913510845,-0.416197665,-0.01391598
1764764057.8235948,-4.45592,1.03768,1.00716,0.913510845,-0.416197665,-0.01391598
1764764057.8235948,-4.45592,1.03768,1.00716,0.913510845,-0.416197665,-0.01391598
1764764057.8235948,-4.45592,1.03768,1.00716,0.913510845,-0.416197665,-0.01391598
1764764057.8235948,-3.60136,1.12924,0.54936,0.913388775,-0.41699112,-0.014587365
1764764057.8235948,-3.60136,1.12924,0.54936,0.913388775,-0.41699112,-0.014587365
1764764057.8235948,-3.60136,1.12924,0.54936,0.913388775,-0.41699112,-0.014587365
1764764057.8235948,-3.60136,1.12924,0.54936,0.913388775,-0.41699112,-0.014587365
1764764057.8235948,-3.60136,1.12924,0.54936,0.913388775,-0.41699112,-0.014587365
1764764057.8235948,-3.60136,1.12924,0.54936,0.913388775,-0.41699112,-0.014587365
1764764057.8235948,-3.60136,1.12924,0.54936,0.913388775,-0.41699112,-0.014587365
1764764057.8235948,-3.60136,1.12924,0.54936,0.913388775,-0.41699112,-0.014587365
1764764057.8235948,-3.60136,1.12924,0.54936,0.913388775,-0.41699112,-0.014587365
1764764057.8235948,-3.60136,1.12924,0.54936,0.913388775,-0.41699112,-0.014587365
1764764057.8706326,-3.41824,1.78542,0.2289,0.91357188,-0.41796768,-0.014831505
1764764057.8711476,-3.41824,1.78542,0.2289,0.91357188,-0.41796768,-0.014831505
1764764057.8711476,-3.41824,1.78542,0.2289,0.91357188,-0.41796768,-0.014831505
1764764057.8711476,-3.41824,1.78542,0.2289,0.91357188,-0.41796768,-0.014831505
1764764057.8711476,-3.41824,1.78542,0.2289,0.91357188,-0.41796768,-0.014831505
1764764057.8711476,-3.41824,1.78542,0.2289,0.91357188,-0.41796768,-0.014831505
1764764057.8711476,-3.41824,1.78542,0.2289,0.91357188,-0.41796768,-0.014831505
1764764057.8711476,-3.41824,1.78542,0.2289,0.91357188,-0.41796768,-0.014831505
1764764057.8711476,-3.41824,1.78542,0.2289,0.91357188,-0.41796768,-0.014831505
1764764057.8711476,-3.41824,1.78542,0.2289,0.91357188,-0.41796768,-0.014831505
1764764057.8711476,-3.52506,2.25848,0.41202,0.913999125,-0.41808975,-0.01477047
1764764057.8711476,-3.52506,2.25848,0.41202,0.913999125,-0.41808975,-0.01477047
1764764057.8711476,-3.52506,2.25848,0.41202,0.913999125,-0.41808975,-0.01477047
1764764057.8711476,-3.52506,2.25848,0.41202,0.913999125,-0.41808975,-0.01477047
1764764057.8711476,-3.52506,2.25848,0.41202,0.913999125,-0.41808975,-0.01477047
1764764057.871663,-3.52506,2.25848,0.41202,0.913999125,-0.41808975,-0.01477047
1764764057.871663,-3.52506,2.25848,0.41202,0.913999125,-0.41808975,-0.01477047
1764764057.871663,-3.52506,2.25848,0.41202,0.913999125,-0.41808975,-0.01477047
1764764057.871663,-3.52506,2.25848,0.41202,0.913999125,-0.41808975,-0.01477047
1764764057.871663,-3.52506,2.25848,0.41202,0.913999125,-0.41808975,-0.01477047
1764764057.871663,-3.4335,3.41824,-0.47306,0.91564707,-0.41577042,-0.01416012
1764764057.871663,-3.4335,3.41824,-0.47306,0.91564707,-0.41577042,-0.01416012
1764764057.872191,-3.4335,3.41824,-0.47306,0.91564707,-0.41577042,-0.01416012
1764764057.872191,-3.4335,3.41824,-0.47306,0.91564707,-0.41577042,-0.01416012
1764764057.9192514,-3.4335,3.41824,-0.47306,0.91564707,-0.41577042,-0.01416012
1764764057.9192514,-3.4335,3.41824,-0.47306,0.91564707,-0.41577042,-0.01416012
1764764057.9192514,-3.4335,3.41824,-0.47306,0.91564707,-0.41577042,-0.01416012
1764764057.9192514,-3.4335,3.41824,-0.47306,0.91564707,-0.41577042,-0.01416012
1764764057.9192514,-3.4335,3.41824,-0.47306,0.91564707,-0.41577042,-0.01416012
1764764057.9192514,-3.4335,3.41824,-0.47306,0.91564707,-0.41577042,-0.01416012
1764764057.9192514,-4.66956,3.75396,-0.39676,0.915586035,-0.414122475,-0.014099085
1764764057.9192514,-4.66956,3.75396,-0.39676,0.915586035,-0.414122475,-0.014099085
1764764057.9192514,-4.66956,3.75396,-0.39676,0.915586035,-0.414122475,-0.014099085
1764764057.9192514,-4.66956,3.75396,-0.39676,0.915586035,-0.414122475,-0.014099085
1764764057.9192514,-4.66956,3.75396,-0.39676,0.915586035,-0.414122475,-0.014099085
1764764057.9192514,-4.66956,3.75396,-0.39676,0.915586035,-0.414122475,-0.014099085
1764764057.9192514,-4.66956,3.75396,-0.39676,0.915586035,-0.414122475,-0.014099085
1764764057.9192514,-4.66956,3.75396,-0.39676,0.915586035,-0.414122475,-0.014099085
1764764057.9192514,-4.66956,3.75396,-0.39676,0.915586035,-0.414122475,-0.014099085
1764764057.9192514,-4.66956,3.75396,-0.39676,0.915586035,-0.414122475,-0.014099085
1764764057.9192514,-5.096839999999999,3.44876,-0.73248,0.914243265,-0.41320695,-0.0134277
1764764057.9192514,-5.096839999999999,3.44876,-0.73248,0.914243265,-0.41320695,-0.0134277
1764764057.9192514,-5.096839999999999,3.44876,-0.73248,0.914243265,-0.41320695,-0.0134277
1764764057.9202642,-5.096839999999999,3.44876,-0.73248,0.914243265,-0.41320695,-0.0134277
1764764057.9202642,-5.096839999999999,3.44876,-0.73248,0.914243265,-0.41320695,-0.0134277
1764764057.9202642,-5.096839999999999,3.44876,-0.73248,0.914243265,-0.41320695,-0.0134277
1764764057.9202642,-5.096839999999999,3.44876,-0.73248,0.914243265,-0.41320695,-0.0134277
1764764057.9202642,-5.096839999999999,3.44876,-0.73248,0.914243265,-0.41320695,-0.0134277
1764764057.9637096,-5.096839999999999,3.44876,-0.73248,0.914243265,-0.41320695,-0.0134277
1764764057.9637096,-5.096839999999999,3.44876,-0.73248,0.914243265,-0.41320695,-0.0134277
1764764057.9637096,-4.39488,2.289,-0.8087799999999999,0.910947375,-0.414610755,-0.012756315
1764764057.9637096,-4.39488,2.289,-0.8087799999999999,0.910947375,-0.414610755,-0.012756315
1764764057.9637096,-4.39488,2.289,-0.8087799999999999,0.910947375,-0.414610755,-0.012756315
1764764057.9637096,-4.39488,2.289,-0.8087799999999999,0.910947375,-0.414610755,-0.012756315
1764764057.9637096,-4.39488,2.289,-0.8087799999999999,0.910947375,-0.414610755,-0.012756315
1764764057.9637096,-4.39488,2.289,-0.8087799999999999,0.910947375,-0.414610755,-0.012756315
1764764057.9637096,-4.39488,2.289,-0.8087799999999999,0.910947375,-0.414610755,-0.012756315
1764764057.9637096,-4.39488,2.289,-0.8087799999999999,0.910947375,-0.414610755,-0.012756315
1764764057.9637096,-4.39488,2.289,-0.8087799999999999,0.910947375,-0.414610755,-0.012756315
1764764057.9637096,-4.39488,2.289,-0.8087799999999999,0.910947375,-0.414610755,-0.012756315
1764764057.9637096,-3.99812,1.1445,-0.42728,0.910825305,-0.415343175,-0.012207
1764764057.9637096,-3.99812,1.1445,-0.42728,0.910825305,-0.415343175,-0.012207
1764764057.9637096,-3.99812,1.1445,-0.42728,0.910825305,-0.415343175,-0.012207
1764764057.9637096,-3.99812,1.1445,-0.42728,0.910825305,-0.415343175,-0.012207
1764764057.9637096,-3.99812,1.1445,-0.42728,0.910825305,-0.415343175,-0.012207
1764764057.9637096,-3.99812,1.1445,-0.42728,0.910825305,-0.415343175,-0.012207
1764764057.9637096,-3.99812,1.1445,-0.42728,0.910825305,-0.415343175,-0.012207
1764764057.9637096,-3.99812,1.1445,-0.42728,0.910825305,-0.415343175,-0.012207
1764764057.965247,-3.99812,1.1445,-0.42728,0.910825305,-0.415343175,-0.012207
1764764057.965247,-3.99812,1.1445,-0.42728,0.910825305,-0.415343175,-0.012207
1764764057.965247,-3.08252,0.56462,-0.71722,0.9106422,-0.41552628,-0.012390105
1764764057.965247,-3.08252,0.56462,-0.71722,0.9106422,-0.41552628,-0.012390105
1764764058.0132585,-3.08252,0.56462,-0.71722,0.9106422,-0.41552628,-0.012390105
1764764058.0132585,-3.08252,0.56462,-0.71722,0.9106422,-0.41552628,-0.012390105
1764764058.0132585,-3.08252,0.56462,-0.71722,0.9106422,-0.41552628,-0.012390105
1764764058.0132585,-3.08252,0.56462,-0.71722,0.9106422,-0.41552628,-0.012390105
1764764058.0132585,-3.08252,0.56462,-0.71722,0.9106422,-0.41552628,-0.012390105
1764764058.0132585,-3.08252,0.56462,-0.71722,0.9106422,-0.41552628,-0.012390105
1764764058.0132585,-3.08252,0.56462,-0.71722,0.9106422,-0.41552628,-0.012390105
1764764058.0132585,-3.08252,0.56462,-0.71722,0.9106422,-0.41552628,-0.012390105
1764764058.0132585,-3.5098,0.85456,-0.28994,0.914121195,-0.41564835,-0.01232907
1764764058.0132585,-3.5098,0.85456,-0.28994,0.914121195,-0.41564835,-0.01232907
1764764058.0132585,-3.5098,0.85456,-0.28994,0.914121195,-0.41564835,-0.01232907
1764764058.0132585,-3.5098,0.85456,-0.28994,0.914121195,-0.41564835,-0.01232907
1764764058.0132585,-3.5098,0.85456,-0.28994,0.914121195,-0.41564835,-0.01232907
1764764058.0132585,-3.5098,0.85456,-0.28994,0.914121195,-0.41564835,-0.01232907
1764764058.0132585,-3.5098,0.85456,-0.28994,0.914121195,-0.41564835,-0.01232907
1764764058.0132585,-3.5098,0.85456,-0.28994,0.914121195,-0.41564835,-0.01232907
1764764058.0132585,-3.5098,0.85456,-0.28994,0.914121195,-0.41564835,-0.01232907
1764764058.0132585,-3.5098,0.85456,-0.28994,0.914121195,-0.41564835,-0.01232907
1764764058.0132585,-3.23512,2.27374,-0.28994,0.915463965,-0.414122475,-0.01135251
1764764058.0132585,-3.23512,2.27374,-0.28994,0.915463965,-0.414122475,-0.01135251
1764764058.0132585,-3.23512,2.27374,-0.28994,0.915463965,-0.414122475,-0.01135251
1764764058.0132585,-3.23512,2.27374,-0.28994,0.915463965,-0.414122475,-0.01135251
1764764058.0132585,-3.23512,2.27374,-0.28994,0.915463965,-0.414122475,-0.01135251
1764764058.0132585,-3.23512,2.27374,-0.28994,0.915463965,-0.414122475,-0.01135251
1764764058.0577452,-3.23512,2.27374,-0.28994,0.915463965,-0.414122475,-0.01135251
1764764058.0577452,-3.23512,2.27374,-0.28994,0.915463965,-0.414122475,-0.01135251
1764764058.0577452,-3.23512,2.27374,-0.28994,0.915463965,-0.414122475,-0.01135251
1764764058.0577452,-3.23512,2.27374,-0.28994,0.915463965,-0.414122475,-0.01135251
1764764058.0577452,-2.71628,2.8231,0.4578,0.913388775,-0.413634195,-0.01184079
1764764058.0577452,-2.71628,2.8231,0.4578,0.913388775,-0.413634195,-0.01184079
1764764058.0577452,-2.71628,2.8231,0.4578,0.913388775,-0.413634195,-0.01184079
1764764058.0577452,-2.71628,2.8231,0.4578,0.913388775,-0.413634195,-0.01184079
1764764058.0577452,-2.71628,2.8231,0.4578,0.913388775,-0.413634195,-0.01184079
1764764058.0577452,-2.71628,2.8231,0.4578,0.913388775,-0.413634195,-0.01184079
1764764058.0577452,-2.71628,2.8231,0.4578,0.913388775,-0.413634195,-0.01184079
1764764058.0577452,-2.71628,2.8231,0.4578,0.913388775,-0.413634195,-0.01184079
1764764058.0577452,-2.71628,2.8231,0.4578,0.913388775,-0.413634195,-0.01184079
1764764058.0577452,-2.71628,2.8231,0.4578,0.913388775,-0.413634195,-0.01184079
1764764058.0577452,-2.63998,1.6022999999999998,0.763,0.912534285,-0.41540421,-0.012145965
1764764058.0587573,-2.63998,1.6022999999999998,0.763,0.912534285,-0.41540421,-0.012145965
1764764058.0587573,-2.63998,1.6022999999999998,0.763,0.912534285,-0.41540421,-0.012145965
1764764058.0587573,-2.63998,1.6022999999999998,0.763,0.912534285,-0.41540421,-0.012145965
1764764058.0587573,-2.63998,1.6022999999999998,0.763,0.912534285,-0.41540421,-0.012145965
1764764058.0587573,-2.63998,1.6022999999999998,0.763,0.912534285,-0.41540421,-0.012145965
1764764058.0587573,-2.63998,1.6022999999999998,0.763,0.912534285,-0.41540421,-0.012145965
1764764058.0587573,-2.63998,1.6022999999999998,0.763,0.912534285,-0.41540421,-0.012145965
1764764058.0587573,-2.63998,1.6022999999999998,0.763,0.912534285,-0.41540421,-0.012145965
1764764058.0587573,-2.63998,1.6022999999999998,0.763,0.912534285,-0.41540421,-0.012145965
1764764058.1054108,-3.57084,1.00716,0.25942,0.912290145,-0.41454972,-0.012023895
1764764058.1054108,-3.57084,1.00716,0.25942,0.912290145,-0.41454972,-0.012023895
1764764058.1054108,-3.57084,1.00716,0.25942,0.912290145,-0.41454972,-0.012023895
1764764058.1054108,-3.57084,1.00716,0.25942,0.912290145,-0.41454972,-0.012023895
1764764058.1054108,-3.57084,1.00716,0.25942,0.912290145,-0.41454972,-0.012023895
1764764058.1059318,-3.57084,1.00716,0.25942,0.912290145,-0.41454972,-0.012023895
1764764058.1059318,-3.57084,1.00716,0.25942,0.912290145,-0.41454972,-0.012023895
1764764058.1059318,-3.57084,1.00716,0.25942,0.912290145,-0.41454972,-0.012023895
1764764058.1059318,-3.57084,1.00716,0.25942,0.912290145,-0.41454972,-0.012023895
1764764058.1059318,-3.57084,1.00716,0.25942,0.912290145,-0.41454972,-0.012023895
1764764058.1059318,-3.14356,0.19838,-0.3204599999999999,0.913266705,-0.414366615,-0.011779755
1764764058.1059318,-3.14356,0.19838,-0.3204599999999999,0.913266705,-0.414366615,-0.011779755
1764764058.1059318,-3.14356,0.19838,-0.3204599999999999,0.913266705,-0.414366615,-0.011779755
1764764058.1059318,-3.14356,0.19838,-0.3204599999999999,0.913266705,-0.414366615,-0.011779755
1764764058.1059318,-3.14356,0.19838,-0.3204599999999999,0.913266705,-0.414366615,-0.011779755
1764764058.1059318,-3.14356,0.19838,-0.3204599999999999,0.913266705,-0.414366615,-0.011779755
1764764058.1059318,-3.14356,0.19838,-0.3204599999999999,0.913266705,-0.414366615,-0.011779755
1764764058.1059318,-3.14356,0.19838,-0.3204599999999999,0.913266705,-0.414366615,-0.011779755
1764764058.1059318,-3.14356,0.19838,-0.3204599999999999,0.913266705,-0.414366615,-0.011779755
1764764058.1059318,-3.14356,0.19838,-0.3204599999999999,0.913266705,-0.414366615,-0.011779755
1764764058.106955,-2.5942,1.6633399999999998,-0.94612,0.915952245,-0.41430558,-0.010681125
1764764058.106955,-2.5942,1.6633399999999998,-0.94612,0.915952245,-0.41430558,-0.010681125
1764764058.106955,-2.5942,1.6633399999999998,-0.94612,0.915952245,-0.41430558,-0.010681125
1764764058.106955,-2.5942,1.6633399999999998,-0.94612,0.915952245,-0.41430558,-0.010681125
1764764058.1533108,-2.5942,1.6633399999999998,-0.94612,0.915952245,-0.41430558,-0.010681125
1764764058.1533108,-2.5942,1.6633399999999998,-0.94612,0.915952245,-0.41430558,-0.010681125
1764764058.1533108,-2.5942,1.6633399999999998,-0.94612,0.915952245,-0.41430558,-0.010681125
1764764058.1533108,-2.5942,1.6633399999999998,-0.94612,0.915952245,-0.41430558,-0.010681125
1764764058.1533108,-2.5942,1.6633399999999998,-0.94612,0.915952245,-0.41430558,-0.010681125
1764764058.1533108,-2.5942,1.6633399999999998,-0.94612,0.915952245,-0.41430558,-0.010681125
1764764058.1533108,-2.63998,2.9757,-1.78542,0.91747812,-0.412901775,-0.010436985
1764764058.1533108,-2.63998,2.9757,-1.78542,0.91747812,-0.412901775,-0.010436985
1764764058.1533108,-2.63998,2.9757,-1.78542,0.91747812,-0.412901775,-0.010436985
1764764058.1533108,-2.63998,2.9757,-1.78542,0.91747812,-0.412901775,-0.010436985
1764764058.1533108,-2.63998,2.9757,-1.78542,0.91747812,-0.412901775,-0.010436985
1764764058.1533108,-2.63998,2.9757,-1.78542,0.91747812,-0.412901775,-0.010436985
1764764058.1533108,-2.63998,2.9757,-1.78542,0.91747812,-0.412901775,-0.010436985
1764764058.1533108,-2.63998,2.9757,-1.78542,0.91747812,-0.412901775,-0.010436985
1764764058.1533108,-2.63998,2.9757,-1.78542,0.91747812,-0.412901775,-0.010436985
1764764058.1533108,-2.63998,2.9757,-1.78542,0.91747812,-0.412901775,-0.010436985
1764764058.154318,-2.62472,3.63188,-2.35004,0.91650156,-0.41076555,-0.01025388
1764764058.154318,-2.62472,3.63188,-2.35004,0.91650156,-0.41076555,-0.01025388
1764764058.154318,-2.62472,3.63188,-2.35004,0.91650156,-0.41076555,-0.01025388
1764764058.154318,-2.62472,3.63188,-2.35004,0.91650156,-0.41076555,-0.01025388
1764764058.2003677,-2.62472,3.63188,-2.35004,0.91650156,-0.41076555,-0.01025388
1764764058.2003677,-2.62472,3.63188,-2.35004,0.91650156,-0.41076555,-0.01025388
1764764058.2003677,-2.62472,3.63188,-2.35004,0.91650156,-0.41076555,-0.01025388
1764764058.2003677,-2.62472,3.63188,-2.35004,0.91650156,-0.41076555,-0.01025388
1764764058.2003677,-2.62472,3.63188,-2.35004,0.91650156,-0.41076555,-0.01025388
1764764058.2003677,-2.62472,3.63188,-2.35004,0.91650156,-0.41076555,-0.01025388
1764764058.2003677,-3.18934,3.15882,-2.15166,0.91454844,-0.409850025,-0.009338355
1764764058.2003677,-3.18934,3.15882,-2.15166,0.91454844,-0.409850025,-0.009338355
1764764058.2003677,-3.18934,3.15882,-2.15166,0.91454844,-0.409850025,-0.009338355
1764764058.2003677,-3.18934,3.15882,-2.15166,0.91454844,-0.409850025,-0.009338355
1764764058.2003677,-3.18934,3.15882,-2.15166,0.91454844,-0.409850025,-0.009338355
1764764058.2003677,-3.18934,3.15882,-2.15166,0.91454844,-0.409850025,-0.009338355
1764764058.2003677,-3.18934,3.15882,-2.15166,0.91454844,-0.409850025,-0.009338355
1764764058.2003677,-3.18934,3.15882,-2.15166,0.91454844,-0.409850025,-0.009338355
1764764058.2003677,-3.18934,3.15882,-2.15166,0.91454844,-0.409850025,-0.009338355
1764764058.2003677,-3.18934,3.15882,-2.15166,0.91454844,-0.409850025,-0.009338355
1764764058.201388,-3.15882,2.24322,-1.57178,0.912900495,-0.409483815,-0.008239725
1764764058.201388,-3.15882,2.24322,-1.57178,0.912900495,-0.409483815,-0.008239725
1764764058.201388,-3.15882,2.24322,-1.57178,0.912900495,-0.409483815,-0.008239725
1764764058.201388,-3.15882,2.24322,-1.57178,0.912900495,-0.409483815,-0.008239725
1764764058.201388,-3.15882,2.24322,-1.57178,0.912900495,-0.409483815,-0.008239725
1764764058.201388,-3.15882,2.24322,-1.57178,0.912900495,-0.409483815,-0.008239725
1764764058.201388,-3.15882,2.24322,-1.57178,0.912900495,-0.409483815,-0.008239725
1764764058.201388,-3.15882,2.24322,-1.57178,0.912900495,-0.409483815,-0.008239725
1764764058.247158,-3.15882,2.24322,-1.57178,0.912900495,-0.409483815,-0.008239725
1764764058.247158,-3.15882,2.24322,-1.57178,0.912900495,-0.409483815,-0.008239725
1764764058.247158,-2.96044,1.19028,-0.5341,0.91198497,-0.409850025,-0.007751445
1764764058.247158,-2.96044,1.19028,-0.5341,0.91198497,-0.409850025,-0.007751445
1764764058.247158,-2.96044,1.19028,-0.5341,0.91198497,-0.409850025,-0.007751445
1764764058.247158,-2.96044,1.19028,-0.5341,0.91198497,-0.409850025,-0.007751445
1764764058.247158,-2.96044,1.19028,-0.5341,0.91198497,-0.409850025,-0.007751445
1764764058.247158,-2.96044,1.19028,-0.5341,0.91198497,-0.409850025,-0.007751445
1764764058.247158,-2.96044,1.19028,-0.5341,0.91198497,-0.409850025,-0.007751445
1764764058.247158,-2.96044,1.19028,-0.5341,0.91198497,-0.409850025,-0.007751445
1764764058.247158,-2.96044,1.19028,-0.5341,0.91198497,-0.409850025,-0.007751445
1764764058.247158,-2.96044,1.19028,-0.5341,0.91198497,-0.409850025,-0.007751445
1764764058.247158,-3.03674,0.8392999999999999,0.06104,0.91283946,-0.409850025,-0.00695799
1764764058.247158,-3.03674,0.8392999999999999,0.06104,0.91283946,-0.409850025,-0.00695799
1764764058.247158,-3.03674,0.8392999999999999,0.06104,0.91283946,-0.409850025,-0.00695799
1764764058.247158,-3.03674,0.8392999999999999,0.06104,0.91283946,-0.409850025,-0.00695799
1764764058.247158,-3.03674,0.8392999999999999,0.06104,0.91283946,-0.409850025,-0.00695799
1764764058.247158,-3.03674,0.8392999999999999,0.06104,0.91283946,-0.409850025,-0.00695799
1764764058.247158,-3.03674,0.8392999999999999,0.06104,0.91283946,-0.409850025,-0.00695799
1764764058.247158,-3.03674,0.8392999999999999,0.06104,0.91283946,-0.409850025,-0.00695799
1764764058.247158,-3.03674,0.8392999999999999,0.06104,0.91283946,-0.409850025,-0.00695799
1764764058.247158,-3.03674,0.8392999999999999,0.06104,0.91283946,-0.409850025,-0.00695799
1764764058.247158,-3.9676,0.56462,0.6103999999999999,0.913877055,-0.408263115,-0.007873515
1764764058.247158,-3.9676,0.56462,0.6103999999999999,0.913877055,-0.408263115,-0.007873515
1764764058.293753,-3.9676,0.56462,0.6103999999999999,0.913877055,-0.408263115,-0.007873515
1764764058.293753,-3.9676,0.56462,0.6103999999999999,0.913877055,-0.408263115,-0.007873515
1764764058.293753,-3.9676,0.56462,0.6103999999999999,0.913877055,-0.408263115,-0.007873515
1764764058.293753,-3.9676,0.56462,0.6103999999999999,0.913877055,-0.408263115,-0.007873515
1764764058.293753,-3.9676,0.56462,0.6103999999999999,0.913877055,-0.408263115,-0.007873515
1764764058.293753,-3.9676,0.56462,0.6103999999999999,0.913877055,-0.408263115,-0.007873515
1764764058.293753,-3.9676,0.56462,0.6103999999999999,0.913877055,-0.408263115,-0.007873515
1764764058.293753,-3.9676,0.56462,0.6103999999999999,0.913877055,-0.408263115,-0.007873515
1764764058.293753,-5.05106,1.3734,1.2055399999999998,0.91662363,-0.408263115,-0.00769041
1764764058.293753,-5.05106,1.3734,1.2055399999999998,0.91662363,-0.408263115,-0.00769041
1764764058.293753,-5.05106,1.3734,1.2055399999999998,0.91662363,-0.408263115,-0.00769041
1764764058.293753,-5.05106,1.3734,1.2055399999999998,0.91662363,-0.408263115,-0.00769041
1764764058.293753,-5.05106,1.3734,1.2055399999999998,0.91662363,-0.408263115,-0.00769041
1764764058.2942617,-5.05106,1.3734,1.2055399999999998,0.91662363,-0.408263115,-0.00769041
1764764058.2942617,-5.05106,1.3734,1.2055399999999998,0.91662363,-0.408263115,-0.00769041
1764764058.2942617,-5.05106,1.3734,1.2055399999999998,0.91662363,-0.408263115,-0.00769041
1764764058.2942617,-5.05106,1.3734,1.2055399999999998,0.91662363,-0.408263115,-0.00769041
1764764058.2942617,-5.05106,1.3734,1.2055399999999998,0.91662363,-0.408263115,-0.00769041
1764764058.2942617,-5.70724,1.2208,1.2971,0.91491465,-0.407530695,-0.009216285
1764764058.2942617,-5.70724,1.2208,1.2971,0.91491465,-0.407530695,-0.009216285
1764764058.2942617,-5.70724,1.2208,1.2971,0.91491465,-0.407530695,-0.009216285
1764764058.2942617,-5.70724,1.2208,1.2971,0.91491465,-0.407530695,-0.009216285
1764764058.2942617,-5.70724,1.2208,1.2971,0.91491465,-0.407530695,-0.009216285
1764764058.2942617,-5.70724,1.2208,1.2971,0.91491465,-0.407530695,-0.009216285
1764764058.340511,-5.70724,1.2208,1.2971,0.91491465,-0.407530695,-0.009216285
1764764058.340511,-5.70724,1.2208,1.2971,0.91491465,-0.407530695,-0.009216285
1764764058.340511,-5.70724,1.2208,1.2971,0.91491465,-0.407530695,-0.009216285
1764764058.340511,-5.70724,1.2208,1.2971,0.91491465,-0.407530695,-0.009216285
1764764058.340511,-6.89752,0.62566,1.69386,0.91332774,-0.408507255,-0.01013181
1764764058.340511,-6.89752,0.62566,1.69386,0.91332774,-0.408507255,-0.01013181
1764764058.340511,-6.89752,0.62566,1.69386,0.91332774,-0.408507255,-0.01013181
1764764058.340511,-6.89752,0.62566,1.69386,0.91332774,-0.408507255,-0.01013181
1764764058.340511,-6.89752,0.62566,1.69386,0.91332774,-0.408507255,-0.01013181
1764764058.340511,-6.89752,0.62566,1.69386,0.91332774,-0.408507255,-0.01013181
1764764058.340511,-6.89752,0.62566,1.69386,0.91332774,-0.408507255,-0.01013181
1764764058.340511,-6.89752,0.62566,1.69386,0.91332774,-0.408507255,-0.01013181
1764764058.340511,-6.89752,0.62566,1.69386,0.91332774,-0.408507255,-0.01013181
1764764058.340511,-6.89752,0.62566,1.69386,0.91332774,-0.408507255,-0.01013181
1764764058.340511,-6.790699999999999,1.28184,1.38866,0.914731545,-0.41064348,-0.00927732
1764764058.340511,-6.790699999999999,1.28184,1.38866,0.914731545,-0.41064348,-0.00927732
1764764058.340511,-6.790699999999999,1.28184,1.38866,0.914731545,-0.41064348,-0.00927732
1764764058.340511,-6.790699999999999,1.28184,1.38866,0.914731545,-0.41064348,-0.00927732
1764764058.340511,-6.790699999999999,1.28184,1.38866,0.914731545,-0.41064348,-0.00927732
1764764058.340511,-6.790699999999999,1.28184,1.38866,0.914731545,-0.41064348,-0.00927732
1764764058.340511,-6.790699999999999,1.28184,1.38866,0.914731545,-0.41064348,-0.00927732
1764764058.340511,-6.790699999999999,1.28184,1.38866,0.914731545,-0.41064348,-0.00927732
1764764058.340511,-6.790699999999999,1.28184,1.38866,0.914731545,-0.41064348,-0.00927732
1764764058.340511,-6.790699999999999,1.28184,1.38866,0.914731545,-0.41064348,-0.00927732
1764764058.3876345,-6.05822,1.49548,0.93086,0.914365335,-0.412047285,-0.009216285
1764764058.3876345,-6.05822,1.49548,0.93086,0.914365335,-0.412047285,-0.009216285
1764764058.3876345,-6.05822,1.49548,0.93086,0.914365335,-0.412047285,-0.009216285
1764764058.3876345,-6.05822,1.49548,0.93086,0.914365335,-0.412047285,-0.009216285
1764764058.3876345,-6.05822,1.49548,0.93086,0.914365335,-0.412047285,-0.009216285
1764764058.3876345,-6.05822,1.49548,0.93086,0.914365335,-0.412047285,-0.009216285
1764764058.3876345,-6.05822,1.49548,0.93086,0.914365335,-0.412047285,-0.009216285
1764764058.3876345,-6.05822,1.49548,0.93086,0.914365335,-0.412047285,-0.009216285
1764764058.3876345,-6.05822,1.49548,0.93086,0.914365335,-0.412047285,-0.009216285
1764764058.3876345,-6.05822,1.49548,0.93086,0.914365335,-0.412047285,-0.009216285
1764764058.3876345,-6.22608,1.12924,0.47306,0.91296153,-0.413756265,-0.009704565
1764764058.3876345,-6.22608,1.12924,0.47306,0.91296153,-0.413756265,-0.009704565
1764764058.3876345,-6.22608,1.12924,0.47306,0.91296153,-0.413756265,-0.009704565
1764764058.3876345,-6.22608,1.12924,0.47306,0.91296153,-0.413756265,-0.009704565
1764764058.3876345,-6.22608,1.12924,0.47306,0.91296153,-0.413756265,-0.009704565
1764764058.3876345,-6.22608,1.12924,0.47306,0.91296153,-0.413756265,-0.009704565
1764764058.3876345,-6.22608,1.12924,0.47306,0.91296153,-0.413756265,-0.009704565
1764764058.3876345,-6.22608,1.12924,0.47306,0.91296153,-0.413756265,-0.009704565
1764764058.3876345,-6.22608,1.12924,0.47306,0.91296153,-0.413756265,-0.009704565
1764764058.3876345,-6.22608,1.12924,0.47306,0.91296153,-0.413756265,-0.009704565
1764764058.3876345,-5.8751,1.0682,-0.56462,0.91271739,-0.413634195,-0.01037595
1764764058.3876345,-5.8751,1.0682,-0.56462,0.91271739,-0.413634195,-0.01037595
1764764058.435207,-5.8751,1.0682,-0.56462,0.91271739,-0.413634195,-0.01037595
1764764058.435207,-5.8751,1.0682,-0.56462,0.91271739,-0.413634195,-0.01037595
1764764058.435207,-5.8751,1.0682,-0.56462,0.91271739,-0.413634195,-0.01037595
1764764058.435207,-5.8751,1.0682,-0.56462,0.91271739,-0.413634195,-0.01037595
1764764058.435207,-5.8751,1.0682,-0.56462,0.91271739,-0.413634195,-0.01037595
1764764058.435207,-5.8751,1.0682,-0.56462,0.91271739,-0.413634195,-0.01037595
1764764058.435207,-5.8751,1.0682,-0.56462,0.91271739,-0.413634195,-0.01037595
1764764058.435207,-5.8751,1.0682,-0.56462,0.91271739,-0.413634195,-0.01037595
1764764058.435207,-5.78354,1.58704,-1.1445,0.91393809,-0.414000405,-0.01074216
1764764058.435207,-5.78354,1.58704,-1.1445,0.91393809,-0.414000405,-0.01074216
1764764058.435207,-5.78354,1.58704,-1.1445,0.91393809,-0.414000405,-0.01074216
1764764058.435207,-5.78354,1.58704,-1.1445,0.91393809,-0.414000405,-0.01074216
1764764058.435207,-5.78354,1.58704,-1.1445,0.91393809,-0.414000405,-0.01074216
1764764058.435207,-5.78354,1.58704,-1.1445,0.91393809,-0.414000405,-0.01074216
1764764058.435207,-5.78354,1.58704,-1.1445,0.91393809,-0.414000405,-0.01074216
1764764058.435207,-5.78354,1.58704,-1.1445,0.91393809,-0.414000405,-0.01074216
1764764058.435207,-5.78354,1.58704,-1.1445,0.91393809,-0.414000405,-0.01074216
1764764058.435207,-5.78354,1.58704,-1.1445,0.91393809,-0.414000405,-0.01074216
1764764058.4357305,-6.07348,2.19744,-1.8006799999999998,0.915219825,-0.413267985,-0.010436985
1764764058.4357305,-6.07348,2.19744,-1.8006799999999998,0.915219825,-0.413267985,-0.010436985
1764764058.4357305,-6.07348,2.19744,-1.8006799999999998,0.915219825,-0.413267985,-0.010436985
1764764058.4357305,-6.07348,2.19744,-1.8006799999999998,0.915219825,-0.413267985,-0.010436985
1764764058.4357305,-6.07348,2.19744,-1.8006799999999998,0.915219825,-0.413267985,-0.010436985
1764764058.4357305,-6.07348,2.19744,-1.8006799999999998,0.915219825,-0.413267985,-0.010436985
1764764058.4786727,-6.07348,2.19744,-1.8006799999999998,0.915219825,-0.413267985,-0.010436985
1764764058.4786727,-6.07348,2.19744,-1.8006799999999998,0.915219825,-0.413267985,-0.010436985
1764764058.4786727,-6.07348,2.19744,-1.8006799999999998,0.915219825,-0.413267985,-0.010436985
1764764058.4786727,-6.07348,2.19744,-1.8006799999999998,0.915219825,-0.413267985,-0.010436985
1764764058.4786727,-6.14978,2.9757,-2.12114,0.915586035,-0.412169355,-0.01110837
1764764058.4786727,-6.14978,2.9757,-2.12114,0.915586035,-0.412169355,-0.01110837
1764764058.4786727,-6.14978,2.9757,-2.12114,0.915586035,-0.412169355,-0.01110837
1764764058.4786727,-6.14978,2.9757,-2.12114,0.915586035,-0.412169355,-0.01110837
1764764058.4786727,-6.14978,2.9757,-2.12114,0.915586035,-0.412169355,-0.01110837
1764764058.4786727,-6.14978,2.9757,-2.12114,0.915586035,-0.412169355,-0.01110837
1764764058.4786727,-6.14978,2.9757,-2.12114,0.915586035,-0.412169355,-0.01110837
1764764058.4786727,-6.14978,2.9757,-2.12114,0.915586035,-0.412169355,-0.01110837
1764764058.4786727,-6.14978,2.9757,-2.12114,0.915586035,-0.412169355,-0.01110837
1764764058.4786727,-6.14978,2.9757,-2.12114,0.915586035,-0.412169355,-0.01110837
1764764058.4786727,-6.653359999999999,3.11304,-3.76922,0.91711191,-0.41088762,-0.011291475
1764764058.4786727,-6.653359999999999,3.11304,-3.76922,0.91711191,-0.41088762,-0.011291475
1764764058.4786727,-6.653359999999999,3.11304,-3.76922,0.91711191,-0.41088762,-0.011291475
1764764058.4786727,-6.653359999999999,3.11304,-3.76922,0.91711191,-0.41088762,-0.011291475
1764764058.4803495,-6.653359999999999,3.11304,-3.76922,0.91711191,-0.41088762,-0.011291475
1764764058.4803495,-6.653359999999999,3.11304,-3.76922,0.91711191,-0.41088762,-0.011291475
1764764058.4803495,-6.653359999999999,3.11304,-3.76922,0.91711191,-0.41088762,-0.011291475
1764764058.4803495,-6.653359999999999,3.11304,-3.76922,0.91711191,-0.41088762,-0.011291475
1764764058.525836,-6.653359999999999,3.11304,-3.76922,0.91711191,-0.41088762,-0.011291475
1764764058.525836,-6.653359999999999,3.11304,-3.76922,0.91711191,-0.41088762,-0.011291475
1764764058.525836,-6.546539999999999,3.52506,-4.83742,0.91833261,-0.411192795,-0.01135251
1764764058.525836,-6.546539999999999,3.52506,-4.83742,0.91833261,-0.411192795,-0.01135251
1764764058.525836,-6.546539999999999,3.52506,-4.83742,0.91833261,-0.411192795,-0.01135251
1764764058.525836,-6.546539999999999,3.52506,-4.83742,0.91833261,-0.411192795,-0.01135251
1764764058.525836,-6.546539999999999,3.52506,-4.83742,0.91833261,-0.411192795,-0.01135251
1764764058.5263467,-6.546539999999999,3.52506,-4.83742,0.91833261,-0.411192795,-0.01135251
1764764058.5263467,-6.546539999999999,3.52506,-4.83742,0.91833261,-0.411192795,-0.01135251
1764764058.5263467,-6.546539999999999,3.52506,-4.83742,0.91833261,-0.411192795,-0.01135251
1764764058.5263467,-6.546539999999999,3.52506,-4.83742,0.91833261,-0.411192795,-0.01135251
1764764058.5263467,-6.546539999999999,3.52506,-4.83742,0.91833261,-0.411192795,-0.01135251
1764764058.5263467,-5.4173,3.64714,-5.81406,0.917295015,-0.41039934,-0.010681125
1764764058.5263467,-5.4173,3.64714,-5.81406,0.917295015,-0.41039934,-0.010681125
1764764058.5263467,-5.4173,3.64714,-5.81406,0.917295015,-0.41039934,-0.010681125
1764764058.5263467,-5.4173,3.64714,-5.81406,0.917295015,-0.41039934,-0.010681125
1764764058.5263467,-5.4173,3.64714,-5.81406,0.917295015,-0.41039934,-0.010681125
1764764058.5263467,-5.4173,3.64714,-5.81406,0.917295015,-0.41039934,-0.010681125
1764764058.5263467,-5.4173,3.64714,-5.81406,0.917295015,-0.41039934,-0.010681125
1764764058.5263467,-5.4173,3.64714,-5.81406,0.917295015,-0.41039934,-0.010681125
1764764058.5263467,-5.4173,3.64714,-5.81406,0.917295015,-0.41039934,-0.010681125
1764764058.5263467,-5.4173,3.64714,-5.81406,0.917295015,-0.41039934,-0.010681125
1764764058.5263467,-5.615679999999999,3.78448,-7.08064,0.91528086,-0.408995535,-0.01025388
1764764058.5263467,-5.615679999999999,3.78448,-7.08064,0.91528086,-0.408995535,-0.01025388
1764764058.5736842,-5.615679999999999,3.78448,-7.08064,0.91528086,-0.408995535,-0.01025388
1764764058.5736842,-5.615679999999999,3.78448,-7.08064,0.91528086,-0.408995535,-0.01025388
1764764058.5736842,-5.615679999999999,3.78448,-7.08064,0.91528086,-0.408995535,-0.01025388
1764764058.5736842,-5.615679999999999,3.78448,-7.08064,0.91528086,-0.408995535,-0.01025388
1764764058.5736842,-5.615679999999999,3.78448,-7.08064,0.91528086,-0.408995535,-0.01025388
1764764058.5736842,-5.615679999999999,3.78448,-7.08064,0.91528086,-0.408995535,-0.01025388
1764764058.5736842,-5.615679999999999,3.78448,-7.08064,0.91528086,-0.408995535,-0.01025388
1764764058.5736842,-5.615679999999999,3.78448,-7.08064,0.91528086,-0.408995535,-0.01025388
1764764058.5736842,-6.027699999999999,3.08252,-6.7144,0.91381602,-0.407530695,-0.010681125
1764764058.5736842,-6.027699999999999,3.08252,-6.7144,0.91381602,-0.407530695,-0.010681125
1764764058.5736842,-6.027699999999999,3.08252,-6.7144,0.91381602,-0.407530695,-0.010681125
1764764058.5736842,-6.027699999999999,3.08252,-6.7144,0.91381602,-0.407530695,-0.010681125
1764764058.5736842,-6.027699999999999,3.08252,-6.7144,0.91381602,-0.407530695,-0.010681125
1764764058.5736842,-6.027699999999999,3.08252,-6.7144,0.91381602,-0.407530695,-0.010681125
1764764058.5736842,-6.027699999999999,3.08252,-6.7144,0.91381602,-0.407530695,-0.010681125
1764764058.5736842,-6.027699999999999,3.08252,-6.7144,0.91381602,-0.407530695,-0.010681125
1764764058.5736842,-6.027699999999999,3.08252,-6.7144,0.91381602,-0.407530695,-0.010681125
1764764058.5736842,-6.027699999999999,3.08252,-6.7144,0.91381602,-0.407530695,-0.010681125
1764764058.5736842,-5.96666,3.5098,-6.47024,0.914853615,-0.40808001,-0.01025388
1764764058.5736842,-5.96666,3.5098,-6.47024,0.914853615,-0.40808001,-0.01025388
1764764058.5747418,-5.96666,3.5098,-6.47024,0.914853615,-0.40808001,-0.01025388
1764764058.5747418,-5.96666,3.5098,-6.47024,0.914853615,-0.40808001,-0.01025388
1764764058.5747418,-5.96666,3.5098,-6.47024,0.914853615,-0.40808001,-0.01025388
1764764058.5747418,-5.96666,3.5098,-6.47024,0.914853615,-0.40808001,-0.01025388
1764764058.622373,-5.96666,3.5098,-6.47024,0.914853615,-0.40808001,-0.01025388
1764764058.622373,-5.96666,3.5098,-6.47024,0.914853615,-0.40808001,-0.01025388
1764764058.622373,-5.96666,3.5098,-6.47024,0.914853615,-0.40808001,-0.01025388
1764764058.622373,-5.96666,3.5098,-6.47024,0.914853615,-0.40808001,-0.01025388
1764764058.6228795,-5.67672,3.03674,-4.440659999999999,0.91479258,-0.40930071,-0.009704565
1764764058.6228795,-5.67672,3.03674,-4.440659999999999,0.91479258,-0.40930071,-0.009704565
1764764058.6228795,-5.67672,3.03674,-4.440659999999999,0.91479258,-0.40930071,-0.009704565
1764764058.6228795,-5.67672,3.03674,-4.440659999999999,0.91479258,-0.40930071,-0.009704565
1764764058.6228795,-5.67672,3.03674,-4.440659999999999,0.91479258,-0.40930071,-0.009704565
1764764058.6228795,-5.67672,3.03674,-4.440659999999999,0.91479258,-0.40930071,-0.009704565
1764764058.6228795,-5.67672,3.03674,-4.440659999999999,0.91479258,-0.40930071,-0.009704565
1764764058.6228795,-5.67672,3.03674,-4.440659999999999,0.91479258,-0.40930071,-0.009704565
1764764058.6228795,-5.67672,3.03674,-4.440659999999999,0.91479258,-0.40930071,-0.009704565
1764764058.6228795,-5.67672,3.03674,-4.440659999999999,0.91479258,-0.40930071,-0.009704565
1764764058.6228795,-6.28712,1.3734,-2.30426,0.91442637,-0.40795794,-0.011169405
1764764058.6228795,-6.28712,1.3734,-2.30426,0.91442637,-0.40795794,-0.011169405
1764764058.6228795,-6.28712,1.3734,-2.30426,0.91442637,-0.40795794,-0.011169405
1764764058.6228795,-6.28712,1.3734,-2.30426,0.91442637,-0.40795794,-0.011169405
1764764058.6228795,-6.28712,1.3734,-2.30426,0.91442637,-0.40795794,-0.011169405
1764764058.6228795,-6.28712,1.3734,-2.30426,0.91442637,-0.40795794,-0.011169405
1764764058.6228795,-6.28712,1.3734,-2.30426,0.91442637,-0.40795794,-0.011169405
1764764058.6228795,-6.28712,1.3734,-2.30426,0.91442637,-0.40795794,-0.011169405
1764764058.6228795,-6.28712,1.3734,-2.30426,0.91442637,-0.40795794,-0.011169405
1764764058.6228795,-6.28712,1.3734,-2.30426,0.91442637,-0.40795794,-0.011169405
1764764058.6660397,-8.530339999999999,-1.87698,2.07536,0.910825305,-0.405821715,-0.014465295
1764764058.6660397,-8.530339999999999,-1.87698,2.07536,0.910825305,-0.405821715,-0.014465295
1764764058.6660397,-8.530339999999999,-1.87698,2.07536,0.910825305,-0.405821715,-0.014465295
1764764058.6660397,-8.530339999999999,-1.87698,2.07536,0.910825305,-0.405821715,-0.014465295
1764764058.6660397,-8.530339999999999,-1.87698,2.07536,0.910825305,-0.405821715,-0.014465295
1764764058.6660397,-8.530339999999999,-1.87698,2.07536,0.910825305,-0.405821715,-0.014465295
1764764058.6660397,-8.530339999999999,-1.87698,2.07536,0.910825305,-0.405821715,-0.014465295
1764764058.6660397,-8.530339999999999,-1.87698,2.07536,0.910825305,-0.405821715,-0.014465295
1764764058.6660397,-8.530339999999999,-1.87698,2.07536,0.910825305,-0.405821715,-0.014465295
1764764058.6660397,-8.530339999999999,-1.87698,2.07536,0.910825305,-0.405821715,-0.014465295
1764764058.6660397,-9.88848,-4.39488,6.42446,0.908628045,-0.402403755,-0.01354977
1764764058.6660397,-9.88848,-4.39488,6.42446,0.908628045,-0.402403755,-0.01354977
1764764058.6660397,-9.88848,-4.39488,6.42446,0.908628045,-0.402403755,-0.01354977
1764764058.6660397,-9.88848,-4.39488,6.42446,0.908628045,-0.402403755,-0.01354977
1764764058.6660397,-9.88848,-4.39488,6.42446,0.908628045,-0.402403755,-0.01354977
1764764058.6660397,-9.88848,-4.39488,6.42446,0.908628045,-0.402403755,-0.01354977
1764764058.6660397,-9.88848,-4.39488,6.42446,0.908628045,-0.402403755,-0.01354977
1764764058.6660397,-9.88848,-4.39488,6.42446,0.908628045,-0.402403755,-0.01354977
1764764058.6670628,-9.88848,-4.39488,6.42446,0.908628045,-0.402403755,-0.01354977
1764764058.6670628,-9.88848,-4.39488,6.42446,0.908628045,-0.402403755,-0.01354977
1764764058.6670628,-10.72778,-5.2647,10.59044,0.909970815,-0.401305125,-0.011291475
1764764058.6670628,-10.72778,-5.2647,10.59044,0.909970815,-0.401305125,-0.011291475
1764764058.7130213,-10.72778,-5.2647,10.59044,0.909970815,-0.401305125,-0.011291475
1764764058.7130213,-10.72778,-5.2647,10.59044,0.909970815,-0.401305125,-0.011291475
1764764058.7130213,-10.72778,-5.2647,10.59044,0.909970815,-0.401305125,-0.011291475
1764764058.7130213,-10.72778,-5.2647,10.59044,0.909970815,-0.401305125,-0.011291475
1764764058.7130213,-10.72778,-5.2647,10.59044,0.909970815,-0.401305125,-0.011291475
1764764058.7130213,-10.72778,-5.2647,10.59044,0.909970815,-0.401305125,-0.011291475
1764764058.7130213,-10.72778,-5.2647,10.59044,0.909970815,-0.401305125,-0.011291475
1764764058.7130213,-10.72778,-5.2647,10.59044,0.909970815,-0.401305125,-0.011291475
1764764058.7130213,-10.43784,-4.959499999999999,11.9028,0.91442637,-0.40087788,-0.00988767
1764764058.7130213,-10.43784,-4.959499999999999,11.9028,0.91442637,-0.40087788,-0.00988767
1764764058.7130213,-10.43784,-4.959499999999999,11.9028,0.91442637,-0.40087788,-0.00988767
1764764058.7130213,-10.43784,-4.959499999999999,11.9028,0.91442637,-0.40087788,-0.00988767
1764764058.7130213,-10.43784,-4.959499999999999,11.9028,0.91442637,-0.40087788,-0.00988767
1764764058.7130213,-10.43784,-4.959499999999999,11.9028,0.91442637,-0.40087788,-0.00988767
1764764058.7130213,-10.43784,-4.959499999999999,11.9028,0.91442637,-0.40087788,-0.00988767
1764764058.7130213,-10.43784,-4.959499999999999,11.9028,0.91442637,-0.40087788,-0.00988767
1764764058.7130213,-10.43784,-4.959499999999999,11.9028,0.91442637,-0.40087788,-0.00988767
1764764058.7130213,-10.43784,-4.959499999999999,11.9028,0.91442637,-0.40087788,-0.00988767
1764764058.7130213,-10.31576,-5.8751,11.26188,0.91576914,-0.40148823,-0.01110837
1764764058.7130213,-10.31576,-5.8751,11.26188,0.91576914,-0.40148823,-0.01110837
1764764058.7130213,-10.31576,-5.8751,11.26188,0.91576914,-0.40148823,-0.01110837
1764764058.7130213,-10.31576,-5.8751,11.26188,0.91576914,-0.40148823,-0.01110837
1764764058.7130213,-10.31576,-5.8751,11.26188,0.91576914,-0.40148823,-0.01110837
1764764058.7130213,-10.31576,-5.8751,11.26188,0.91576914,-0.40148823,-0.01110837
1764764058.7595496,-10.31576,-5.8751,11.26188,0.91576914,-0.40148823,-0.01110837
1764764058.7595496,-10.31576,-5.8751,11.26188,0.91576914,-0.40148823,-0.01110837
1764764058.7595496,-10.31576,-5.8751,11.26188,0.91576914,-0.40148823,-0.01110837
1764764058.7595496,-10.31576,-5.8751,11.26188,0.91576914,-0.40148823,-0.01110837
1764764058.7595496,-9.88848,-6.39394,9.88848,0.91637949,-0.403746525,-0.01293942
1764764058.7595496,-9.88848,-6.39394,9.88848,0.91637949,-0.403746525,-0.01293942
1764764058.760056,-9.88848,-6.39394,9.88848,0.91637949,-0.403746525,-0.01293942
1764764058.760056,-9.88848,-6.39394,9.88848,0.91637949,-0.403746525,-0.01293942
1764764058.760056,-9.88848,-6.39394,9.88848,0.91637949,-0.403746525,-0.01293942
1764764058.760056,-9.88848,-6.39394,9.88848,0.91637949,-0.403746525,-0.01293942
1764764058.760056,-9.88848,-6.39394,9.88848,0.91637949,-0.403746525,-0.01293942
1764764058.760056,-9.88848,-6.39394,9.88848,0.91637949,-0.403746525,-0.01293942
1764764058.760056,-9.88848,-6.39394,9.88848,0.91637949,-0.403746525,-0.01293942
1764764058.760056,-9.88848,-6.39394,9.88848,0.91637949,-0.403746525,-0.01293942
1764764058.760056,-9.44594,-5.31048,6.928039999999999,0.91808847,-0.40624896,-0.01354977
1764764058.760056,-9.44594,-5.31048,6.928039999999999,0.91808847,-0.40624896,-0.01354977
1764764058.760056,-9.44594,-5.31048,6.928039999999999,0.91808847,-0.40624896,-0.01354977
1764764058.761252,-9.44594,-5.31048,6.928039999999999,0.91808847,-0.40624896,-0.01354977
1764764058.761252,-9.44594,-5.31048,6.928039999999999,0.91808847,-0.40624896,-0.01354977
1764764058.761252,-9.44594,-5.31048,6.928039999999999,0.91808847,-0.40624896,-0.01354977
1764764058.761252,-9.44594,-5.31048,6.928039999999999,0.91808847,-0.40624896,-0.01354977
1764764058.761252,-9.44594,-5.31048,6.928039999999999,0.91808847,-0.40624896,-0.01354977
1764764058.807065,-9.44594,-5.31048,6.928039999999999,0.91808847,-0.40624896,-0.01354977
1764764058.807065,-9.44594,-5.31048,6.928039999999999,0.91808847,-0.40624896,-0.01354977
1764764058.807065,-8.6982,-5.1121,4.8069,0.91906503,-0.41003313,-0.015319785
1764764058.807065,-8.6982,-5.1121,4.8069,0.91906503,-0.41003313,-0.015319785
1764764058.807065,-8.6982,-5.1121,4.8069,0.91906503,-0.41003313,-0.015319785
1764764058.8075817,-8.6982,-5.1121,4.8069,0.91906503,-0.41003313,-0.015319785
1764764058.8075817,-8.6982,-5.1121,4.8069,0.91906503,-0.41003313,-0.015319785
1764764058.8075817,-8.6982,-5.1121,4.8069,0.91906503,-0.41003313,-0.015319785
1764764058.8075817,-8.6982,-5.1121,4.8069,0.91906503,-0.41003313,-0.015319785
1764764058.8075817,-8.6982,-5.1121,4.8069,0.91906503,-0.41003313,-0.015319785
1764764058.8075817,-8.6982,-5.1121,4.8069,0.91906503,-0.41003313,-0.015319785
1764764058.8075817,-8.6982,-5.1121,4.8069,0.91906503,-0.41003313,-0.015319785
1764764058.8075817,-8.91184,-4.74586,3.5098,0.91894296,-0.410704515,-0.01660152
1764764058.8075817,-8.91184,-4.74586,3.5098,0.91894296,-0.410704515,-0.01660152
1764764058.8075817,-8.91184,-4.74586,3.5098,0.91894296,-0.410704515,-0.01660152
1764764058.8075817,-8.91184,-4.74586,3.5098,0.91894296,-0.410704515,-0.01660152
1764764058.8075817,-8.91184,-4.74586,3.5098,0.91894296,-0.410704515,-0.01660152
1764764058.8075817,-8.91184,-4.74586,3.5098,0.91894296,-0.410704515,-0.01660152
1764764058.8075817,-8.91184,-4.74586,3.5098,0.91894296,-0.410704515,-0.01660152
1764764058.8075817,-8.91184,-4.74586,3.5098,0.91894296,-0.410704515,-0.01660152
1764764058.8075817,-8.91184,-4.74586,3.5098,0.91894296,-0.410704515,-0.01660152
1764764058.8075817,-8.91184,-4.74586,3.5098,0.91894296,-0.410704515,-0.01660152
1764764058.8075817,-9.11022,-5.43256,4.24228,0.915341895,-0.410582445,-0.018981885
1764764058.8075817,-9.11022,-5.43256,4.24228,0.915341895,-0.410582445,-0.018981885
1764764058.8537998,-9.11022,-5.43256,4.24228,0.915341895,-0.410582445,-0.018981885
1764764058.8537998,-9.11022,-5.43256,4.24228,0.915341895,-0.410582445,-0.018981885
1764764058.8537998,-9.11022,-5.43256,4.24228,0.915341895,-0.410582445,-0.018981885
1764764058.8537998,-9.11022,-5.43256,4.24228,0.915341895,-0.410582445,-0.018981885
1764764058.8537998,-9.11022,-5.43256,4.24228,0.915341895,-0.410582445,-0.018981885
1764764058.8537998,-9.11022,-5.43256,4.24228,0.915341895,-0.410582445,-0.018981885
1764764058.8537998,-9.11022,-5.43256,4.24228,0.915341895,-0.410582445,-0.018981885
1764764058.8537998,-9.11022,-5.43256,4.24228,0.915341895,-0.410582445,-0.018981885
1764764058.8537998,-9.7664,-6.43972,7.00434,0.910703235,-0.411803145,-0.02185053
1764764058.8537998,-9.7664,-6.43972,7.00434,0.910703235,-0.411803145,-0.02185053
1764764058.8537998,-9.7664,-6.43972,7.00434,0.910703235,-0.411803145,-0.02185053
1764764058.8537998,-9.7664,-6.43972,7.00434,0.910703235,-0.411803145,-0.02185053
1764764058.8537998,-9.7664,-6.43972,7.00434,0.910703235,-0.411803145,-0.02185053
1764764058.8537998,-9.7664,-6.43972,7.00434,0.910703235,-0.411803145,-0.02185053
1764764058.8537998,-9.7664,-6.43972,7.00434,0.910703235,-0.411803145,-0.02185053
1764764058.8537998,-9.7664,-6.43972,7.00434,0.910703235,-0.411803145,-0.02185053
1764764058.8537998,-9.7664,-6.43972,7.00434,0.910703235,-0.411803145,-0.02185053
1764764058.8537998,-9.7664,-6.43972,7.00434,0.910703235,-0.411803145,-0.02185053
1764764058.8537998,-9.98004,-7.29428,7.996239999999999,0.90893322,-0.41100969,-0.022888125
1764764058.8537998,-9.98004,-7.29428,7.996239999999999,0.90893322,-0.41100969,-0.022888125
1764764058.8537998,-9.98004,-7.29428,7.996239999999999,0.90893322,-0.41100969,-0.022888125
1764764058.8537998,-9.98004,-7.29428,7.996239999999999,0.90893322,-0.41100969,-0.022888125
1764764058.8537998,-9.98004,-7.29428,7.996239999999999,0.90893322,-0.41100969,-0.022888125
1764764058.8537998,-9.98004,-7.29428,7.996239999999999,0.90893322,-0.41100969,-0.022888125
1764764058.903793,-9.98004,-7.29428,7.996239999999999,0.90893322,-0.41100969,-0.022888125
1764764058.903793,-9.98004,-7.29428,7.996239999999999,0.90893322,-0.41100969,-0.022888125
1764764058.903793,-9.98004,-7.29428,7.996239999999999,0.90893322,-0.41100969,-0.022888125
1764764058.903793,-9.98004,-7.29428,7.996239999999999,0.90893322,-0.41100969,-0.022888125
1764764058.903793,-9.58328,-7.52318,8.667679999999999,0.911313585,-0.413878335,-0.023620545
1764764058.903793,-9.58328,-7.52318,8.667679999999999,0.911313585,-0.413878335,-0.023620545
1764764058.903793,-9.58328,-7.52318,8.667679999999999,0.911313585,-0.413878335,-0.023620545
1764764058.903793,-9.58328,-7.52318,8.667679999999999,0.911313585,-0.413878335,-0.023620545
1764764058.903793,-9.58328,-7.52318,8.667679999999999,0.911313585,-0.413878335,-0.023620545
1764764058.903793,-9.58328,-7.52318,8.667679999999999,0.911313585,-0.413878335,-0.023620545
1764764058.903793,-9.58328,-7.52318,8.667679999999999,0.911313585,-0.413878335,-0.023620545
1764764058.903793,-9.58328,-7.52318,8.667679999999999,0.911313585,-0.413878335,-0.023620545
1764764058.903793,-9.58328,-7.52318,8.667679999999999,0.911313585,-0.413878335,-0.023620545
1764764058.903793,-9.58328,-7.52318,8.667679999999999,0.911313585,-0.413878335,-0.023620545
1764764058.903793,-8.97288,-6.72966,9.04918,0.91503672,-0.415831455,-0.02392572
1764764058.903793,-8.97288,-6.72966,9.04918,0.91503672,-0.415831455,-0.02392572
1764764058.903793,-8.97288,-6.72966,9.04918,0.91503672,-0.415831455,-0.02392572
1764764058.903793,-8.97288,-6.72966,9.04918,0.91503672,-0.415831455,-0.02392572
1764764058.903793,-8.97288,-6.72966,9.04918,0.91503672,-0.415831455,-0.02392572
1764764058.903793,-8.97288,-6.72966,9.04918,0.91503672,-0.415831455,-0.02392572
1764764058.903793,-8.97288,-6.72966,9.04918,0.91503672,-0.415831455,-0.02392572
1764764058.903793,-8.97288,-6.72966,9.04918,0.91503672,-0.415831455,-0.02392572
1764764058.903793,-8.97288,-6.72966,9.04918,0.91503672,-0.415831455,-0.02392572
1764764058.903793,-8.97288,-6.72966,9.04918,0.91503672,-0.415831455,-0.02392572
1764764058.9505446,-8.83554,-6.85174,8.97288,0.91369395,-0.415343175,-0.025817805
1764764058.9505446,-8.83554,-6.85174,8.97288,0.91369395,-0.415343175,-0.025817805
1764764058.9505446,-8.83554,-6.85174,8.97288,0.91369395,-0.415343175,-0.025817805
1764764058.9505446,-8.83554,-6.85174,8.97288,0.91369395,-0.415343175,-0.025817805
1764764058.9505446,-8.83554,-6.85174,8.97288,0.91369395,-0.415343175,-0.025817805
1764764058.9505446,-8.83554,-6.85174,8.97288,0.91369395,-0.415343175,-0.025817805
1764764058.9505446,-8.83554,-6.85174,8.97288,0.91369395,-0.415343175,-0.025817805
1764764058.9505446,-8.83554,-6.85174,8.97288,0.91369395,-0.415343175,-0.025817805
1764764058.9505446,-8.83554,-6.85174,8.97288,0.91369395,-0.415343175,-0.025817805
1764764058.9505446,-8.83554,-6.85174,8.97288,0.91369395,-0.415343175,-0.025817805
1764764058.9505446,-9.41542,-6.11926,9.14074,0.91235118,-0.415038,-0.02905266
1764764058.9505446,-9.41542,-6.11926,9.14074,0.91235118,-0.415038,-0.02905266
1764764058.9505446,-9.41542,-6.11926,9.14074,0.91235118,-0.415038,-0.02905266
1764764058.9505446,-9.41542,-6.11926,9.14074,0.91235118,-0.415038,-0.02905266
1764764058.9505446,-9.41542,-6.11926,9.14074,0.91235118,-0.415038,-0.02905266
1764764058.9505446,-9.41542,-6.11926,9.14074,0.91235118,-0.415038,-0.02905266
1764764058.9505446,-9.41542,-6.11926,9.14074,0.91235118,-0.415038,-0.02905266
1764764058.9505446,-9.41542,-6.11926,9.14074,0.91235118,-0.415038,-0.02905266
1764764058.9505446,-9.41542,-6.11926,9.14074,0.91235118,-0.415038,-0.02905266
1764764058.9505446,-9.41542,-6.11926,9.14074,0.91235118,-0.415038,-0.02905266
1764764058.9505446,-9.6138,-5.32574,7.81312,0.91320567,-0.41430558,-0.03137199
1764764058.9515502,-9.6138,-5.32574,7.81312,0.91320567,-0.41430558,-0.03137199
1764764058.9515502,-9.6138,-5.32574,7.81312,0.91320567,-0.41430558,-0.03137199
1764764058.9515502,-9.6138,-5.32574,7.81312,0.91320567,-0.41430558,-0.03137199
1764764058.9964097,-9.6138,-5.32574,7.81312,0.91320567,-0.41430558,-0.03137199
1764764058.9964097,-9.6138,-5.32574,7.81312,0.91320567,-0.41430558,-0.03137199
1764764058.9964097,-9.6138,-5.32574,7.81312,0.91320567,-0.41430558,-0.03137199
1764764058.997415,-9.6138,-5.32574,7.81312,0.91320567,-0.41430558,-0.03137199
1764764058.997415,-9.6138,-5.32574,7.81312,0.91320567,-0.41430558,-0.03137199
1764764058.997415,-9.6138,-5.32574,7.81312,0.91320567,-0.41430558,-0.03137199
1764764058.997415,-10.11738,-4.41014,7.202719999999999,0.91491465,-0.415343175,-0.032897865
1764764058.997415,-10.11738,-4.41014,7.202719999999999,0.91491465,-0.415343175,-0.032897865
1764764058.997415,-10.11738,-4.41014,7.202719999999999,0.91491465,-0.415343175,-0.032897865
1764764058.997415,-10.11738,-4.41014,7.202719999999999,0.91491465,-0.415343175,-0.032897865
1764764058.997415,-10.11738,-4.41014,7.202719999999999,0.91491465,-0.415343175,-0.032897865
1764764058.997415,-10.11738,-4.41014,7.202719999999999,0.91491465,-0.415343175,-0.032897865
1764764058.997415,-10.11738,-4.41014,7.202719999999999,0.91491465,-0.415343175,-0.032897865
1764764058.997415,-10.11738,-4.41014,7.202719999999999,0.91491465,-0.415343175,-0.032897865
1764764058.997415,-10.11738,-4.41014,7.202719999999999,0.91491465,-0.415343175,-0.032897865
1764764058.997415,-10.11738,-4.41014,7.202719999999999,0.91491465,-0.415343175,-0.032897865
1764764058.997415,-9.87322,-2.35004,5.96666,0.91613535,-0.4174794,-0.03405753
1764764058.997415,-9.87322,-2.35004,5.96666,0.91613535,-0.4174794,-0.03405753
1764764058.997415,-9.87322,-2.35004,5.96666,0.91613535,-0.4174794,-0.03405753
1764764058.997415,-9.87322,-2.35004,5.96666,0.91613535,-0.4174794,-0.03405753
1764764058.997415,-9.87322,-2.35004,5.96666,0.91613535,-0.4174794,-0.03405753
1764764058.997415,-9.87322,-2.35004,5.96666,0.91613535,-0.4174794,-0.03405753
1764764059.0435166,-9.87322,-2.35004,5.96666,0.91613535,-0.4174794,-0.03405753
1764764059.0435166,-9.87322,-2.35004,5.96666,0.91613535,-0.4174794,-0.03405753
1764764059.0435166,-9.87322,-2.35004,5.96666,0.91613535,-0.4174794,-0.03405753
1764764059.0435166,-9.87322,-2.35004,5.96666,0.91613535,-0.4174794,-0.03405753
1764764059.0435166,-9.12548,-0.50358,3.21986,0.91698984,-0.41967666,-0.03491202
1764764059.0435166,-9.12548,-0.50358,3.21986,0.91698984,-0.41967666,-0.03491202
1764764059.0435166,-9.12548,-0.50358,3.21986,0.91698984,-0.41967666,-0.03491202
1764764059.0435166,-9.12548,-0.50358,3.21986,0.91698984,-0.41967666,-0.03491202
1764764059.0435166,-9.12548,-0.50358,3.21986,0.91698984,-0.41967666,-0.03491202
1764764059.0435166,-9.12548,-0.50358,3.21986,0.91698984,-0.41967666,-0.03491202
1764764059.0435166,-9.12548,-0.50358,3.21986,0.91698984,-0.41967666,-0.03491202
1764764059.0435166,-9.12548,-0.50358,3.21986,0.91698984,-0.41967666,-0.03491202
1764764059.0435166,-9.12548,-0.50358,3.21986,0.91698984,-0.41967666,-0.03491202
1764764059.0435166,-9.12548,-0.50358,3.21986,0.91698984,-0.41967666,-0.03491202
1764764059.0435166,-7.721559999999999,0.96138,1.08346,0.917539155,-0.42224013,-0.03613272
1764764059.0435166,-7.721559999999999,0.96138,1.08346,0.917539155,-0.42224013,-0.03613272
1764764059.0435166,-7.721559999999999,0.96138,1.08346,0.917539155,-0.42224013,-0.03613272
1764764059.0435166,-7.721559999999999,0.96138,1.08346,0.917539155,-0.42224013,-0.03613272
1764764059.0435166,-7.721559999999999,0.96138,1.08346,0.917539155,-0.42224013,-0.03613272
1764764059.0435166,-7.721559999999999,0.96138,1.08346,0.917539155,-0.42224013,-0.03613272
1764764059.0435166,-7.721559999999999,0.96138,1.08346,0.917539155,-0.42224013,-0.03613272
1764764059.0435166,-7.721559999999999,0.96138,1.08346,0.917539155,-0.42224013,-0.03613272
1764764059.0915904,-7.721559999999999,0.96138,1.08346,0.917539155,-0.42224013,-0.03613272
1764764059.0915904,-7.721559999999999,0.96138,1.08346,0.917539155,-0.42224013,-0.03613272
1764764059.0915904,-6.37868,2.68576,-1.6022999999999998,0.9167457,-0.42321669,-0.03637686
1764764059.0915904,-6.37868,2.68576,-1.6022999999999998,0.9167457,-0.42321669,-0.03637686
1764764059.0915904,-6.37868,2.68576,-1.6022999999999998,0.9167457,-0.42321669,-0.03637686
1764764059.0915904,-6.37868,2.68576,-1.6022999999999998,0.9167457,-0.42321669,-0.03637686
1764764059.0915904,-6.37868,2.68576,-1.6022999999999998,0.9167457,-0.42321669,-0.03637686
1764764059.0915904,-6.37868,2.68576,-1.6022999999999998,0.9167457,-0.42321669,-0.03637686
1764764059.0915904,-6.37868,2.68576,-1.6022999999999998,0.9167457,-0.42321669,-0.03637686
1764764059.0915904,-6.37868,2.68576,-1.6022999999999998,0.9167457,-0.42321669,-0.03637686
1764764059.0915904,-6.37868,2.68576,-1.6022999999999998,0.9167457,-0.42321669,-0.03637686
1764764059.0915904,-6.37868,2.68576,-1.6022999999999998,0.9167457,-0.42321669,-0.03637686
1764764059.0915904,-5.15788,3.5861,-4.77638,0.915586035,-0.422789445,-0.03747549
1764764059.0915904,-5.15788,3.5861,-4.77638,0.915586035,-0.422789445,-0.03747549
1764764059.0915904,-5.15788,3.5861,-4.77638,0.915586035,-0.422789445,-0.03747549
1764764059.0925834,-5.15788,3.5861,-4.77638,0.915586035,-0.422789445,-0.03747549
1764764059.0925834,-5.15788,3.5861,-4.77638,0.915586035,-0.422789445,-0.03747549
1764764059.0925834,-5.15788,3.5861,-4.77638,0.915586035,-0.422789445,-0.03747549
1764764059.0925834,-5.15788,3.5861,-4.77638,0.915586035,-0.422789445,-0.03747549
1764764059.0925834,-5.15788,3.5861,-4.77638,0.915586035,-0.422789445,-0.03747549
1764764059.0925834,-5.15788,3.5861,-4.77638,0.915586035,-0.422789445,-0.03747549
1764764059.0925834,-5.15788,3.5861,-4.77638,0.915586035,-0.422789445,-0.03747549
1764764059.0925834,-4.60852,5.35626,-7.81312,0.91894296,-0.42004287,-0.03710928
1764764059.0925834,-4.60852,5.35626,-7.81312,0.91894296,-0.42004287,-0.03710928
1764764059.1366172,-4.60852,5.35626,-7.81312,0.91894296,-0.42004287,-0.03710928
1764764059.1366172,-4.60852,5.35626,-7.81312,0.91894296,-0.42004287,-0.03710928
1764764059.1366172,-4.60852,5.35626,-7.81312,0.91894296,-0.42004287,-0.03710928
1764764059.1366172,-4.60852,5.35626,-7.81312,0.91894296,-0.42004287,-0.03710928
1764764059.1366172,-4.60852,5.35626,-7.81312,0.91894296,-0.42004287,-0.03710928
1764764059.1366172,-4.60852,5.35626,-7.81312,0.91894296,-0.42004287,-0.03710928
1764764059.1366172,-4.60852,5.35626,-7.81312,0.91894296,-0.42004287,-0.03710928
1764764059.1366172,-4.60852,5.35626,-7.81312,0.91894296,-0.42004287,-0.03710928
1764764059.1366172,-4.68482,7.73682,-10.71252,0.92089608,-0.416319735,-0.036682035
1764764059.1366172,-4.68482,7.73682,-10.71252,0.92089608,-0.416319735,-0.036682035
1764764059.1366172,-4.68482,7.73682,-10.71252,0.92089608,-0.416319735,-0.036682035
1764764059.1366172,-4.68482,7.73682,-10.71252,0.92089608,-0.416319735,-0.036682035
1764764059.1366172,-4.68482,7.73682,-10.71252,0.92089608,-0.416319735,-0.036682035
1764764059.1366172,-4.68482,7.73682,-10.71252,0.92089608,-0.416319735,-0.036682035
1764764059.1366172,-4.68482,7.73682,-10.71252,0.92089608,-0.416319735,-0.036682035
1764764059.1366172,-4.68482,7.73682,-10.71252,0.92089608,-0.416319735,-0.036682035
1764764059.1366172,-4.68482,7.73682,-10.71252,0.92089608,-0.416319735,-0.036682035
1764764059.1366172,-4.68482,7.73682,-10.71252,0.92089608,-0.416319735,-0.036682035
1764764059.1366172,-5.58516,10.33102,-12.04014,0.92077401,-0.414000405,-0.03625479
1764764059.1366172,-5.58516,10.33102,-12.04014,0.92077401,-0.414000405,-0.03625479
1764764059.1366172,-5.58516,10.33102,-12.04014,0.92077401,-0.414000405,-0.03625479
1764764059.1366172,-5.58516,10.33102,-12.04014,0.92077401,-0.414000405,-0.03625479
1764764059.1366172,-5.58516,10.33102,-12.04014,0.92077401,-0.414000405,-0.03625479
1764764059.1366172,-5.58516,10.33102,-12.04014,0.92077401,-0.414000405,-0.03625479
1764764059.1822708,-5.58516,10.33102,-12.04014,0.92077401,-0.414000405,-0.03625479
1764764059.1822708,-5.58516,10.33102,-12.04014,0.92077401,-0.414000405,-0.03625479
1764764059.1822708,-5.58516,10.33102,-12.04014,0.92077401,-0.414000405,-0.03625479
1764764059.1822708,-5.58516,10.33102,-12.04014,0.92077401,-0.414000405,-0.03625479
1764764059.1822708,-5.96666,11.94858,-12.83366,0.918759855,-0.412291425,-0.034973055
1764764059.1822708,-5.96666,11.94858,-12.83366,0.918759855,-0.412291425,-0.034973055
1764764059.1822708,-5.96666,11.94858,-12.83366,0.918759855,-0.412291425,-0.034973055
1764764059.1822708,-5.96666,11.94858,-12.83366,0.918759855,-0.412291425,-0.034973055
1764764059.1822708,-5.96666,11.94858,-12.83366,0.918759855,-0.412291425,-0.034973055
1764764059.1822708,-5.96666,11.94858,-12.83366,0.918759855,-0.412291425,-0.034973055
1764764059.1822708,-5.96666,11.94858,-12.83366,0.918759855,-0.412291425,-0.034973055
1764764059.1822708,-5.96666,11.94858,-12.83366,0.918759855,-0.412291425,-0.034973055
1764764059.1822708,-5.96666,11.94858,-12.83366,0.918759855,-0.412291425,-0.034973055
1764764059.1822708,-5.96666,11.94858,-12.83366,0.918759855,-0.412291425,-0.034973055
1764764059.1832843,-7.12642,11.62812,-13.18464,0.914731545,-0.410338305,-0.03491202
1764764059.1832843,-7.12642,11.62812,-13.18464,0.914731545,-0.410338305,-0.03491202
1764764059.1832843,-7.12642,11.62812,-13.18464,0.914731545,-0.410338305,-0.03491202
1764764059.1832843,-7.12642,11.62812,-13.18464,0.914731545,-0.410338305,-0.03491202
1764764059.1832843,-7.12642,11.62812,-13.18464,0.914731545,-0.410338305,-0.03491202
1764764059.1832843,-7.12642,11.62812,-13.18464,0.914731545,-0.410338305,-0.03491202
1764764059.1842844,-7.12642,11.62812,-13.18464,0.914731545,-0.410338305,-0.03491202
1764764059.1842844,-7.12642,11.62812,-13.18464,0.914731545,-0.410338305,-0.03491202
1764764059.1842844,-7.12642,11.62812,-13.18464,0.914731545,-0.410338305,-0.03491202
1764764059.1842844,-7.12642,11.62812,-13.18464,0.914731545,-0.410338305,-0.03491202
1764764059.2268896,-7.3248,9.41542,-12.2843,0.91174083,-0.4101552,-0.03503409
1764764059.2274172,-7.3248,9.41542,-12.2843,0.91174083,-0.4101552,-0.03503409
1764764059.2274172,-7.3248,9.41542,-12.2843,0.91174083,-0.4101552,-0.03503409
1764764059.2274172,-7.3248,9.41542,-12.2843,0.91174083,-0.4101552,-0.03503409
1764764059.2274172,-7.3248,9.41542,-12.2843,0.91174083,-0.4101552,-0.03503409
1764764059.2274172,-7.3248,9.41542,-12.2843,0.91174083,-0.4101552,-0.03503409
1764764059.2274172,-7.3248,9.41542,-12.2843,0.91174083,-0.4101552,-0.03503409
1764764059.2274172,-7.3248,9.41542,-12.2843,0.91174083,-0.4101552,-0.03503409
1764764059.2274172,-7.3248,9.41542,-12.2843,0.91174083,-0.4101552,-0.03503409
1764764059.2274172,-7.3248,9.41542,-12.2843,0.91174083,-0.4101552,-0.03503409
1764764059.2274172,-5.2647,10.25472,-11.3687,0.913754985,-0.41210832,-0.031310955
1764764059.2274172,-5.2647,10.25472,-11.3687,0.913754985,-0.41210832,-0.031310955
1764764059.2274172,-5.2647,10.25472,-11.3687,0.913754985,-0.41210832,-0.031310955
1764764059.2274172,-5.2647,10.25472,-11.3687,0.913754985,-0.41210832,-0.031310955
1764764059.2274172,-5.2647,10.25472,-11.3687,0.913754985,-0.41210832,-0.031310955
1764764059.2274172,-5.2647,10.25472,-11.3687,0.913754985,-0.41210832,-0.031310955
1764764059.2274172,-5.2647,10.25472,-11.3687,0.913754985,-0.41210832,-0.031310955
1764764059.2274172,-5.2647,10.25472,-11.3687,0.913754985,-0.41210832,-0.031310955
1764764059.2274172,-5.2647,10.25472,-11.3687,0.913754985,-0.41210832,-0.031310955
1764764059.2274172,-5.2647,10.25472,-11.3687,0.913754985,-0.41210832,-0.031310955
1764764059.2274172,-4.01338,8.743979999999999,-10.25472,0.914487405,-0.411681075,-0.02966301
1764764059.2274172,-4.01338,8.743979999999999,-10.25472,0.914487405,-0.411681075,-0.02966301
1764764059.2735708,-4.01338,8.743979999999999,-10.25472,0.914487405,-0.411681075,-0.02966301
1764764059.2735708,-4.01338,8.743979999999999,-10.25472,0.914487405,-0.411681075,-0.02966301
1764764059.2735708,-4.01338,8.743979999999999,-10.25472,0.914487405,-0.411681075,-0.02966301
1764764059.2735708,-4.01338,8.743979999999999,-10.25472,0.914487405,-0.411681075,-0.02966301
1764764059.2735708,-4.01338,8.743979999999999,-10.25472,0.914487405,-0.411681075,-0.02966301
1764764059.2735708,-4.01338,8.743979999999999,-10.25472,0.914487405,-0.411681075,-0.02966301
1764764059.2735708,-4.01338,8.743979999999999,-10.25472,0.914487405,-0.411681075,-0.02966301
1764764059.2735708,-4.01338,8.743979999999999,-10.25472,0.914487405,-0.411681075,-0.02966301
1764764059.2735708,-2.99096,4.08968,-6.85174,0.908383905,-0.413145915,-0.031310955
1764764059.2735708,-2.99096,4.08968,-6.85174,0.908383905,-0.413145915,-0.031310955
1764764059.2735708,-2.99096,4.08968,-6.85174,0.908383905,-0.413145915,-0.031310955
1764764059.2735708,-2.99096,4.08968,-6.85174,0.908383905,-0.413145915,-0.031310955
1764764059.274583,-2.99096,4.08968,-6.85174,0.908383905,-0.413145915,-0.031310955
1764764059.274583,-2.99096,4.08968,-6.85174,0.908383905,-0.413145915,-0.031310955
1764764059.274583,-2.99096,4.08968,-6.85174,0.908383905,-0.413145915,-0.031310955
1764764059.274583,-2.99096,4.08968,-6.85174,0.908383905,-0.413145915,-0.031310955
1764764059.274583,-2.99096,4.08968,-6.85174,0.908383905,-0.413145915,-0.031310955
1764764059.274583,-2.99096,4.08968,-6.85174,0.908383905,-0.413145915,-0.031310955
1764764059.274583,-2.53316,-3.2809,1.00716,0.897641745,-0.414610755,-0.031921305
1764764059.274583,-2.53316,-3.2809,1.00716,0.897641745,-0.414610755,-0.031921305
1764764059.274583,-2.53316,-3.2809,1.00716,0.897641745,-0.414610755,-0.031921305
1764764059.274583,-2.53316,-3.2809,1.00716,0.897641745,-0.414610755,-0.031921305
1764764059.274583,-2.53316,-3.2809,1.00716,0.897641745,-0.414610755,-0.031921305
1764764059.274583,-2.53316,-3.2809,1.00716,0.897641745,-0.414610755,-0.031921305
1764764059.3233492,-2.53316,-3.2809,1.00716,0.897641745,-0.414610755,-0.031921305
1764764059.3233492,-2.53316,-3.2809,1.00716,0.897641745,-0.414610755,-0.031921305
1764764059.3233492,-2.53316,-3.2809,1.00716,0.897641745,-0.414610755,-0.031921305
1764764059.3233492,-2.53316,-3.2809,1.00716,0.897641745,-0.414610755,-0.031921305
1764764059.3233492,-2.02958,-8.51508,6.66862,0.89574966,-0.411070725,-0.02954094
1764764059.3233492,-2.02958,-8.51508,6.66862,0.89574966,-0.411070725,-0.02954094
1764764059.3233492,-2.02958,-8.51508,6.66862,0.89574966,-0.411070725,-0.02954094
1764764059.3233492,-2.02958,-8.51508,6.66862,0.89574966,-0.411070725,-0.02954094
1764764059.3233492,-2.02958,-8.51508,6.66862,0.89574966,-0.411070725,-0.02954094
1764764059.3233492,-2.02958,-8.51508,6.66862,0.89574966,-0.411070725,-0.02954094
1764764059.3233492,-2.02958,-8.51508,6.66862,0.89574966,-0.411070725,-0.02954094
1764764059.3233492,-2.02958,-8.51508,6.66862,0.89574966,-0.411070725,-0.02954094
1764764059.3233492,-2.02958,-8.51508,6.66862,0.89574966,-0.411070725,-0.02954094
1764764059.3233492,-2.02958,-8.51508,6.66862,0.89574966,-0.411070725,-0.02954094
1764764059.3233492,-1.19028,-9.56802,8.530339999999999,0.90307386,-0.40722552,-0.02697747
1764764059.3233492,-1.19028,-9.56802,8.530339999999999,0.90307386,-0.40722552,-0.02697747
1764764059.3233492,-1.19028,-9.56802,8.530339999999999,0.90307386,-0.40722552,-0.02697747
1764764059.3233492,-1.19028,-9.56802,8.530339999999999,0.90307386,-0.40722552,-0.02697747
1764764059.3233492,-1.19028,-9.56802,8.530339999999999,0.90307386,-0.40722552,-0.02697747
1764764059.3233492,-1.19028,-9.56802,8.530339999999999,0.90307386,-0.40722552,-0.02697747
1764764059.3233492,-1.19028,-9.56802,8.530339999999999,0.90307386,-0.40722552,-0.02697747
1764764059.3233492,-1.19028,-9.56802,8.530339999999999,0.90307386,-0.40722552,-0.02697747
1764764059.3233492,-1.19028,-9.56802,8.530339999999999,0.90307386,-0.40722552,-0.02697747
1764764059.3233492,-1.19028,-9.56802,8.530339999999999,0.90307386,-0.40722552,-0.02697747
1764764059.3660083,-1.41918,-8.0115,7.477399999999999,0.914365335,-0.405455505,-0.02673333
1764764059.3660083,-1.41918,-8.0115,7.477399999999999,0.914365335,-0.405455505,-0.02673333
1764764059.3660083,-1.41918,-8.0115,7.477399999999999,0.914365335,-0.405455505,-0.02673333
1764764059.3660083,-1.41918,-8.0115,7.477399999999999,0.914365335,-0.405455505,-0.02673333
1764764059.3660083,-1.41918,-8.0115,7.477399999999999,0.914365335,-0.405455505,-0.02673333
1764764059.3660083,-1.41918,-8.0115,7.477399999999999,0.914365335,-0.405455505,-0.02673333
1764764059.3660083,-1.41918,-8.0115,7.477399999999999,0.914365335,-0.405455505,-0.02673333
1764764059.3660083,-1.41918,-8.0115,7.477399999999999,0.914365335,-0.405455505,-0.02673333
1764764059.3660083,-1.41918,-8.0115,7.477399999999999,0.914365335,-0.405455505,-0.02673333
1764764059.3660083,-1.41918,-8.0115,7.477399999999999,0.914365335,-0.405455505,-0.02673333
1764764059.3660083,-2.10588,-6.66862,6.2566,0.918881925,-0.40295307,-0.02856438
1764764059.3660083,-2.10588,-6.66862,6.2566,0.918881925,-0.40295307,-0.02856438
1764764059.3660083,-2.10588,-6.66862,6.2566,0.918881925,-0.40295307,-0.02856438
1764764059.3660083,-2.10588,-6.66862,6.2566,0.918881925,-0.40295307,-0.02856438
1764764059.3673544,-2.10588,-6.66862,6.2566,0.918881925,-0.40295307,-0.02856438
1764764059.3673544,-2.10588,-6.66862,6.2566,0.918881925,-0.40295307,-0.02856438
1764764059.3673544,-2.10588,-6.66862,6.2566,0.918881925,-0.40295307,-0.02856438
1764764059.3673544,-2.10588,-6.66862,6.2566,0.918881925,-0.40295307,-0.02856438
1764764059.3673544,-2.10588,-6.66862,6.2566,0.918881925,-0.40295307,-0.02856438
1764764059.3673544,-2.10588,-6.66862,6.2566,0.918881925,-0.40295307,-0.02856438
1764764059.3673544,-2.80784,-3.86078,4.54748,0.922177815,-0.406676205,-0.029846115
1764764059.3673544,-2.80784,-3.86078,4.54748,0.922177815,-0.406676205,-0.029846115
1764764059.4135487,-2.80784,-3.86078,4.54748,0.922177815,-0.406676205,-0.029846115
1764764059.4135487,-2.80784,-3.86078,4.54748,0.922177815,-0.406676205,-0.029846115
1764764059.4135487,-2.80784,-3.86078,4.54748,0.922177815,-0.406676205,-0.029846115
1764764059.4135487,-2.80784,-3.86078,4.54748,0.922177815,-0.406676205,-0.029846115
1764764059.4135487,-2.80784,-3.86078,4.54748,0.922177815,-0.406676205,-0.029846115
1764764059.4135487,-2.80784,-3.86078,4.54748,0.922177815,-0.406676205,-0.029846115
1764764059.4135487,-2.80784,-3.86078,4.54748,0.922177815,-0.406676205,-0.029846115
1764764059.4135487,-2.80784,-3.86078,4.54748,0.922177815,-0.406676205,-0.029846115
1764764059.4135487,-3.32668,-1.78542,2.02958,0.925229565,-0.40795794,-0.03198234
1764764059.4135487,-3.32668,-1.78542,2.02958,0.925229565,-0.40795794,-0.03198234
1764764059.4135487,-3.32668,-1.78542,2.02958,0.925229565,-0.40795794,-0.03198234
1764764059.4135487,-3.32668,-1.78542,2.02958,0.925229565,-0.40795794,-0.03198234
1764764059.4135487,-3.32668,-1.78542,2.02958,0.925229565,-0.40795794,-0.03198234
1764764059.4135487,-3.32668,-1.78542,2.02958,0.925229565,-0.40795794,-0.03198234
1764764059.4135487,-3.32668,-1.78542,2.02958,0.925229565,-0.40795794,-0.03198234
1764764059.4135487,-3.32668,-1.78542,2.02958,0.925229565,-0.40795794,-0.03198234
1764764059.4135487,-3.32668,-1.78542,2.02958,0.925229565,-0.40795794,-0.03198234
1764764059.4135487,-3.32668,-1.78542,2.02958,0.925229565,-0.40795794,-0.03198234
1764764059.4135487,-4.822159999999999,0.5341,-0.65618,0.92565681,-0.40844622,-0.0341796
1764764059.4135487,-4.822159999999999,0.5341,-0.65618,0.92565681,-0.40844622,-0.0341796
1764764059.4135487,-4.822159999999999,0.5341,-0.65618,0.92565681,-0.40844622,-0.0341796
1764764059.4135487,-4.822159999999999,0.5341,-0.65618,0.92565681,-0.40844622,-0.0341796
1764764059.4135487,-4.822159999999999,0.5341,-0.65618,0.92565681,-0.40844622,-0.0341796
1764764059.4135487,-4.822159999999999,0.5341,-0.65618,0.92565681,-0.40844622,-0.0341796
1764764059.462969,-4.822159999999999,0.5341,-0.65618,0.92565681,-0.40844622,-0.0341796
1764764059.462969,-4.822159999999999,0.5341,-0.65618,0.92565681,-0.40844622,-0.0341796
1764764059.462969,-4.822159999999999,0.5341,-0.65618,0.92565681,-0.40844622,-0.0341796
1764764059.462969,-4.822159999999999,0.5341,-0.65618,0.92565681,-0.40844622,-0.0341796
1764764059.462969,-5.67672,2.62472,-2.7468,0.92541267,-0.410826585,-0.03491202
1764764059.462969,-5.67672,2.62472,-2.7468,0.92541267,-0.410826585,-0.03491202
1764764059.462969,-5.67672,2.62472,-2.7468,0.92541267,-0.410826585,-0.03491202
1764764059.462969,-5.67672,2.62472,-2.7468,0.92541267,-0.410826585,-0.03491202
1764764059.462969,-5.67672,2.62472,-2.7468,0.92541267,-0.410826585,-0.03491202
1764764059.462969,-5.67672,2.62472,-2.7468,0.92541267,-0.410826585,-0.03491202
1764764059.462969,-5.67672,2.62472,-2.7468,0.92541267,-0.410826585,-0.03491202
1764764059.462969,-5.67672,2.62472,-2.7468,0.92541267,-0.410826585,-0.03491202
1764764059.462969,-5.67672,2.62472,-2.7468,0.92541267,-0.410826585,-0.03491202
1764764059.462969,-5.67672,2.62472,-2.7468,0.92541267,-0.410826585,-0.03491202
1764764059.462969,-5.31048,4.76112,-3.49454,0.92333748,-0.41320695,-0.03515616
1764764059.462969,-5.31048,4.76112,-3.49454,0.92333748,-0.41320695,-0.03515616
1764764059.462969,-5.31048,4.76112,-3.49454,0.92333748,-0.41320695,-0.03515616
1764764059.462969,-5.31048,4.76112,-3.49454,0.92333748,-0.41320695,-0.03515616
1764764059.462969,-5.31048,4.76112,-3.49454,0.92333748,-0.41320695,-0.03515616
1764764059.4634838,-5.31048,4.76112,-3.49454,0.92333748,-0.41320695,-0.03515616
1764764059.4634838,-5.31048,4.76112,-3.49454,0.92333748,-0.41320695,-0.03515616
1764764059.4634838,-5.31048,4.76112,-3.49454,0.92333748,-0.41320695,-0.03515616
1764764059.4634838,-5.31048,4.76112,-3.49454,0.92333748,-0.41320695,-0.03515616
1764764059.4634838,-5.31048,4.76112,-3.49454,0.92333748,-0.41320695,-0.03515616
1764764059.5106091,-4.77638,5.81406,-2.94518,0.919370205,-0.41393937,-0.03491202
1764764059.5106091,-4.77638,5.81406,-2.94518,0.919370205,-0.41393937,-0.03491202
1764764059.5106091,-4.77638,5.81406,-2.94518,0.919370205,-0.41393937,-0.03491202
1764764059.5106091,-4.77638,5.81406,-2.94518,0.919370205,-0.41393937,-0.03491202
1764764059.5111191,-4.77638,5.81406,-2.94518,0.919370205,-0.41393937,-0.03491202
1764764059.5111191,-4.77638,5.81406,-2.94518,0.919370205,-0.41393937,-0.03491202
1764764059.5111191,-4.77638,5.81406,-2.94518,0.919370205,-0.41393937,-0.03491202
1764764059.5111191,-4.77638,5.81406,-2.94518,0.919370205,-0.41393937,-0.03491202
1764764059.5111191,-4.77638,5.81406,-2.94518,0.919370205,-0.41393937,-0.03491202
1764764059.5111191,-4.77638,5.81406,-2.94518,0.919370205,-0.41393937,-0.03491202
1764764059.5111191,-5.00528,6.14978,-3.1283,0.917295015,-0.412779705,-0.03442374
1764764059.5111191,-5.00528,6.14978,-3.1283,0.917295015,-0.412779705,-0.03442374
1764764059.5111191,-5.00528,6.14978,-3.1283,0.917295015,-0.412779705,-0.03442374
1764764059.5111191,-5.00528,6.14978,-3.1283,0.917295015,-0.412779705,-0.03442374
1764764059.5111191,-5.00528,6.14978,-3.1283,0.917295015,-0.412779705,-0.03442374
1764764059.5111191,-5.00528,6.14978,-3.1283,0.917295015,-0.412779705,-0.03442374
1764764059.5111191,-5.00528,6.14978,-3.1283,0.917295015,-0.412779705,-0.03442374
1764764059.5111191,-5.00528,6.14978,-3.1283,0.917295015,-0.412779705,-0.03442374
1764764059.5111191,-5.00528,6.14978,-3.1283,0.917295015,-0.412779705,-0.03442374
1764764059.5111191,-5.00528,6.14978,-3.1283,0.917295015,-0.412779705,-0.03442374
1764764059.5111191,-5.00528,6.790699999999999,-4.8832,0.91686777,-0.40966692,-0.03308097
1764764059.5111191,-5.00528,6.790699999999999,-4.8832,0.91686777,-0.40966692,-0.03308097
1764764059.5550709,-5.00528,6.790699999999999,-4.8832,0.91686777,-0.40966692,-0.03308097
1764764059.5550709,-5.00528,6.790699999999999,-4.8832,0.91686777,-0.40966692,-0.03308097
1764764059.5550709,-5.00528,6.790699999999999,-4.8832,0.91686777,-0.40966692,-0.03308097
1764764059.5550709,-5.00528,6.790699999999999,-4.8832,0.91686777,-0.40966692,-0.03308097
1764764059.5550709,-5.00528,6.790699999999999,-4.8832,0.91686777,-0.40966692,-0.03308097
1764764059.5561173,-5.00528,6.790699999999999,-4.8832,0.91686777,-0.40966692,-0.03308097
1764764059.5561173,-5.00528,6.790699999999999,-4.8832,0.91686777,-0.40966692,-0.03308097
1764764059.5561173,-5.00528,6.790699999999999,-4.8832,0.91686777,-0.40966692,-0.03308097
1764764059.5561173,-5.29522,6.60758,-5.7225,0.916196385,-0.409850025,-0.0329589
1764764059.5561173,-5.29522,6.60758,-5.7225,0.916196385,-0.409850025,-0.0329589
1764764059.5561173,-5.29522,6.60758,-5.7225,0.916196385,-0.409850025,-0.0329589
1764764059.5561173,-5.29522,6.60758,-5.7225,0.916196385,-0.409850025,-0.0329589
1764764059.5561173,-5.29522,6.60758,-5.7225,0.916196385,-0.409850025,-0.0329589
1764764059.5561173,-5.29522,6.60758,-5.7225,0.916196385,-0.409850025,-0.0329589
1764764059.5561173,-5.29522,6.60758,-5.7225,0.916196385,-0.409850025,-0.0329589
1764764059.5561173,-5.29522,6.60758,-5.7225,0.916196385,-0.409850025,-0.0329589
1764764059.5561173,-5.29522,6.60758,-5.7225,0.916196385,-0.409850025,-0.0329589
1764764059.5561173,-5.29522,6.60758,-5.7225,0.916196385,-0.409850025,-0.0329589
1764764059.5561173,-6.165039999999999,6.74492,-4.68482,0.91686777,-0.41113176,-0.03320304
1764764059.5561173,-6.165039999999999,6.74492,-4.68482,0.91686777,-0.41113176,-0.03320304
1764764059.5561173,-6.165039999999999,6.74492,-4.68482,0.91686777,-0.41113176,-0.03320304
1764764059.5561173,-6.165039999999999,6.74492,-4.68482,0.91686777,-0.41113176,-0.03320304
1764764059.5561173,-6.165039999999999,6.74492,-4.68482,0.91686777,-0.41113176,-0.03320304
1764764059.5561173,-6.165039999999999,6.74492,-4.68482,0.91686777,-0.41113176,-0.03320304
1764764059.6032956,-6.165039999999999,6.74492,-4.68482,0.91686777,-0.41113176,-0.03320304
1764764059.6032956,-6.165039999999999,6.74492,-4.68482,0.91686777,-0.41113176,-0.03320304
1764764059.6032956,-6.165039999999999,6.74492,-4.68482,0.91686777,-0.41113176,-0.03320304
1764764059.6032956,-6.165039999999999,6.74492,-4.68482,0.91686777,-0.41113176,-0.03320304
1764764059.6032956,-6.958559999999999,5.753019999999999,-3.52506,0.915219825,-0.41052141,-0.033142005
1764764059.6032956,-6.958559999999999,5.753019999999999,-3.52506,0.915219825,-0.41052141,-0.033142005
1764764059.6032956,-6.958559999999999,5.753019999999999,-3.52506,0.915219825,-0.41052141,-0.033142005
1764764059.6032956,-6.958559999999999,5.753019999999999,-3.52506,0.915219825,-0.41052141,-0.033142005
1764764059.6032956,-6.958559999999999,5.753019999999999,-3.52506,0.915219825,-0.41052141,-0.033142005
1764764059.6032956,-6.958559999999999,5.753019999999999,-3.52506,0.915219825,-0.41052141,-0.033142005
1764764059.6032956,-6.958559999999999,5.753019999999999,-3.52506,0.915219825,-0.41052141,-0.033142005
1764764059.6032956,-6.958559999999999,5.753019999999999,-3.52506,0.915219825,-0.41052141,-0.033142005
1764764059.6032956,-6.958559999999999,5.753019999999999,-3.52506,0.915219825,-0.41052141,-0.033142005
1764764059.6032956,-6.958559999999999,5.753019999999999,-3.52506,0.915219825,-0.41052141,-0.033142005
1764764059.6032956,-7.00434,3.98286,-2.3653,0.91271739,-0.41027727,-0.033264075
1764764059.6032956,-7.00434,3.98286,-2.3653,0.91271739,-0.41027727,-0.033264075
1764764059.6048317,-7.00434,3.98286,-2.3653,0.91271739,-0.41027727,-0.033264075
1764764059.6048317,-7.00434,3.98286,-2.3653,0.91271739,-0.41027727,-0.033264075
1764764059.6048317,-7.00434,3.98286,-2.3653,0.91271739,-0.41027727,-0.033264075
1764764059.6048317,-7.00434,3.98286,-2.3653,0.91271739,-0.41027727,-0.033264075
1764764059.6058922,-7.00434,3.98286,-2.3653,0.91271739,-0.41027727,-0.033264075
1764764059.6058922,-7.00434,3.98286,-2.3653,0.91271739,-0.41027727,-0.033264075
1764764059.6058922,-7.00434,3.98286,-2.3653,0.91271739,-0.41027727,-0.033264075
1764764059.6058922,-7.00434,3.98286,-2.3653,0.91271739,-0.41027727,-0.033264075
1764764059.6492534,-7.233239999999999,3.52506,-2.02958,0.91296153,-0.410338305,-0.032165445
1764764059.6492534,-7.233239999999999,3.52506,-2.02958,0.91296153,-0.410338305,-0.032165445
1764764059.6497824,-7.233239999999999,3.52506,-2.02958,0.91296153,-0.410338305,-0.032165445
1764764059.6497824,-7.233239999999999,3.52506,-2.02958,0.91296153,-0.410338305,-0.032165445
1764764059.6497824,-7.233239999999999,3.52506,-2.02958,0.91296153,-0.410338305,-0.032165445
1764764059.6497824,-7.233239999999999,3.52506,-2.02958,0.91296153,-0.410338305,-0.032165445
1764764059.6497824,-7.233239999999999,3.52506,-2.02958,0.91296153,-0.410338305,-0.032165445
1764764059.6497824,-7.233239999999999,3.52506,-2.02958,0.91296153,-0.410338305,-0.032165445
1764764059.6497824,-7.233239999999999,3.52506,-2.02958,0.91296153,-0.410338305,-0.032165445
1764764059.6497824,-7.233239999999999,3.52506,-2.02958,0.91296153,-0.410338305,-0.032165445
1764764059.6497824,-6.59232,3.60136,-3.17408,0.915830175,-0.40978899,-0.03039543
1764764059.6497824,-6.59232,3.60136,-3.17408,0.915830175,-0.40978899,-0.03039543
1764764059.6497824,-6.59232,3.60136,-3.17408,0.915830175,-0.40978899,-0.03039543
1764764059.6497824,-6.59232,3.60136,-3.17408,0.915830175,-0.40978899,-0.03039543
1764764059.6497824,-6.59232,3.60136,-3.17408,0.915830175,-0.40978899,-0.03039543
1764764059.6502907,-6.59232,3.60136,-3.17408,0.915830175,-0.40978899,-0.03039543
1764764059.6502907,-6.59232,3.60136,-3.17408,0.915830175,-0.40978899,-0.03039543
1764764059.6502907,-6.59232,3.60136,-3.17408,0.915830175,-0.40978899,-0.03039543
1764764059.6502907,-6.59232,3.60136,-3.17408,0.915830175,-0.40978899,-0.03039543
1764764059.6502907,-6.59232,3.60136,-3.17408,0.915830175,-0.40978899,-0.03039543
1764764059.6502907,-5.55464,4.51696,-3.9676,0.91698984,-0.40966692,-0.02905266
1764764059.6502907,-5.55464,4.51696,-3.9676,0.91698984,-0.40966692,-0.02905266
1764764059.6977625,-5.55464,4.51696,-3.9676,0.91698984,-0.40966692,-0.02905266
1764764059.6977625,-5.55464,4.51696,-3.9676,0.91698984,-0.40966692,-0.02905266
1764764059.6977625,-5.55464,4.51696,-3.9676,0.91698984,-0.40966692,-0.02905266
1764764059.6977625,-5.55464,4.51696,-3.9676,0.91698984,-0.40966692,-0.02905266
1764764059.6977625,-5.55464,4.51696,-3.9676,0.91698984,-0.40966692,-0.02905266
1764764059.6977625,-5.55464,4.51696,-3.9676,0.91698984,-0.40966692,-0.02905266
1764764059.6977625,-5.55464,4.51696,-3.9676,0.91698984,-0.40966692,-0.02905266
1764764059.6977625,-5.55464,4.51696,-3.9676,0.91698984,-0.40966692,-0.02905266
1764764059.6987786,-4.83742,3.61662,-4.1965,0.91613535,-0.408751395,-0.02905266
1764764059.6987786,-4.83742,3.61662,-4.1965,0.91613535,-0.408751395,-0.02905266
1764764059.6987786,-4.83742,3.61662,-4.1965,0.91613535,-0.408751395,-0.02905266
1764764059.6987786,-4.83742,3.61662,-4.1965,0.91613535,-0.408751395,-0.02905266
1764764059.6987786,-4.83742,3.61662,-4.1965,0.91613535,-0.408751395,-0.02905266
1764764059.6987786,-4.83742,3.61662,-4.1965,0.91613535,-0.408751395,-0.02905266
1764764059.6987786,-4.83742,3.61662,-4.1965,0.91613535,-0.408751395,-0.02905266
1764764059.6987786,-4.83742,3.61662,-4.1965,0.91613535,-0.408751395,-0.02905266
1764764059.6987786,-4.83742,3.61662,-4.1965,0.91613535,-0.408751395,-0.02905266
1764764059.6987786,-4.83742,3.61662,-4.1965,0.91613535,-0.408751395,-0.02905266
1764764059.6987786,-4.74586,2.96044,-4.51696,0.91625742,-0.4077138,-0.03027336
1764764059.6987786,-4.74586,2.96044,-4.51696,0.91625742,-0.4077138,-0.03027336
1764764059.6987786,-4.74586,2.96044,-4.51696,0.91625742,-0.4077138,-0.03027336
1764764059.6987786,-4.74586,2.96044,-4.51696,0.91625742,-0.4077138,-0.03027336
1764764059.6987786,-4.74586,2.96044,-4.51696,0.91625742,-0.4077138,-0.03027336
1764764059.6987786,-4.74586,2.96044,-4.51696,0.91625742,-0.4077138,-0.03027336
1764764059.7445526,-4.74586,2.96044,-4.51696,0.91625742,-0.4077138,-0.03027336
1764764059.7445526,-4.74586,2.96044,-4.51696,0.91625742,-0.4077138,-0.03027336
1764764059.7445526,-4.74586,2.96044,-4.51696,0.91625742,-0.4077138,-0.03027336
1764764059.7445526,-4.74586,2.96044,-4.51696,0.91625742,-0.4077138,-0.03027336
1764764059.7445526,-5.508859999999999,1.93802,-4.2728,0.916196385,-0.404723085,-0.030944745
1764764059.7445526,-5.508859999999999,1.93802,-4.2728,0.916196385,-0.404723085,-0.030944745
1764764059.7445526,-5.508859999999999,1.93802,-4.2728,0.916196385,-0.404723085,-0.030944745
1764764059.7445526,-5.508859999999999,1.93802,-4.2728,0.916196385,-0.404723085,-0.030944745
1764764059.7445526,-5.508859999999999,1.93802,-4.2728,0.916196385,-0.404723085,-0.030944745
1764764059.7445526,-5.508859999999999,1.93802,-4.2728,0.916196385,-0.404723085,-0.030944745
1764764059.7445526,-5.508859999999999,1.93802,-4.2728,0.916196385,-0.404723085,-0.030944745
1764764059.7445526,-5.508859999999999,1.93802,-4.2728,0.916196385,-0.404723085,-0.030944745
1764764059.7445526,-5.508859999999999,1.93802,-4.2728,0.916196385,-0.404723085,-0.030944745
1764764059.7445526,-5.508859999999999,1.93802,-4.2728,0.916196385,-0.404723085,-0.030944745
1764764059.7445526,-5.20366,2.8231,-3.75396,0.92101815,-0.402769965,-0.02856438
1764764059.7460897,-5.20366,2.8231,-3.75396,0.92101815,-0.402769965,-0.02856438
1764764059.7460897,-5.20366,2.8231,-3.75396,0.92101815,-0.402769965,-0.02856438
1764764059.7460897,-5.20366,2.8231,-3.75396,0.92101815,-0.402769965,-0.02856438
1764764059.7460897,-5.20366,2.8231,-3.75396,0.92101815,-0.402769965,-0.02856438
1764764059.7460897,-5.20366,2.8231,-3.75396,0.92101815,-0.402769965,-0.02856438
1764764059.7460897,-5.20366,2.8231,-3.75396,0.92101815,-0.402769965,-0.02856438
1764764059.7460897,-5.20366,2.8231,-3.75396,0.92101815,-0.402769965,-0.02856438
1764764059.7460897,-5.20366,2.8231,-3.75396,0.92101815,-0.402769965,-0.02856438
1764764059.7460897,-5.20366,2.8231,-3.75396,0.92101815,-0.402769965,-0.02856438
1764764059.7921164,-4.577999999999999,3.55558,-3.67766,0.92358162,-0.40063374,-0.02697747
1764764059.7921164,-4.577999999999999,3.55558,-3.67766,0.92358162,-0.40063374,-0.02697747
1764764059.7921164,-4.577999999999999,3.55558,-3.67766,0.92358162,-0.40063374,-0.02697747
1764764059.7921164,-4.577999999999999,3.55558,-3.67766,0.92358162,-0.40063374,-0.02697747
1764764059.7921164,-4.577999999999999,3.55558,-3.67766,0.92358162,-0.40063374,-0.02697747
1764764059.7921164,-4.577999999999999,3.55558,-3.67766,0.92358162,-0.40063374,-0.02697747
1764764059.7921164,-4.577999999999999,3.55558,-3.67766,0.92358162,-0.40063374,-0.02697747
1764764059.7921164,-4.577999999999999,3.55558,-3.67766,0.92358162,-0.40063374,-0.02697747
1764764059.7921164,-4.577999999999999,3.55558,-3.67766,0.92358162,-0.40063374,-0.02697747
1764764059.7921164,-4.577999999999999,3.55558,-3.67766,0.92358162,-0.40063374,-0.02697747
1764764059.7921164,-4.822159999999999,3.61662,-2.9757,0.92138436,-0.397643025,-0.027282645
1764764059.7921164,-4.822159999999999,3.61662,-2.9757,0.92138436,-0.397643025,-0.027282645
1764764059.7921164,-4.822159999999999,3.61662,-2.9757,0.92138436,-0.397643025,-0.027282645
1764764059.7921164,-4.822159999999999,3.61662,-2.9757,0.92138436,-0.397643025,-0.027282645
1764764059.7921164,-4.822159999999999,3.61662,-2.9757,0.92138436,-0.397643025,-0.027282645
1764764059.7921164,-4.822159999999999,3.61662,-2.9757,0.92138436,-0.397643025,-0.027282645
1764764059.7921164,-4.822159999999999,3.61662,-2.9757,0.92138436,-0.397643025,-0.027282645
1764764059.7921164,-4.822159999999999,3.61662,-2.9757,0.92138436,-0.397643025,-0.027282645
1764764059.7921164,-4.822159999999999,3.61662,-2.9757,0.92138436,-0.397643025,-0.027282645
1764764059.7921164,-4.822159999999999,3.61662,-2.9757,0.92138436,-0.397643025,-0.027282645
1764764059.7921164,-5.1884,2.9757,-2.41108,0.91894296,-0.395323695,-0.02734368
1764764059.7921164,-5.1884,2.9757,-2.41108,0.91894296,-0.395323695,-0.02734368
1764764059.7921164,-5.1884,2.9757,-2.41108,0.91894296,-0.395323695,-0.02734368
1764764059.7921164,-5.1884,2.9757,-2.41108,0.91894296,-0.395323695,-0.02734368
1764764059.8382547,-5.1884,2.9757,-2.41108,0.91894296,-0.395323695,-0.02734368
1764764059.8382547,-5.1884,2.9757,-2.41108,0.91894296,-0.395323695,-0.02734368
1764764059.8382547,-5.1884,2.9757,-2.41108,0.91894296,-0.395323695,-0.02734368
1764764059.8382547,-5.1884,2.9757,-2.41108,0.91894296,-0.395323695,-0.02734368
1764764059.8382547,-5.1884,2.9757,-2.41108,0.91894296,-0.395323695,-0.02734368
1764764059.8382547,-5.1884,2.9757,-2.41108,0.91894296,-0.395323695,-0.02734368
1764764059.8382547,-5.14262,1.99906,-1.63282,0.918149505,-0.393736785,-0.027648855
1764764059.8382547,-5.14262,1.99906,-1.63282,0.918149505,-0.393736785,-0.027648855
1764764059.8382547,-5.14262,1.99906,-1.63282,0.918149505,-0.393736785,-0.027648855
1764764059.8382547,-5.14262,1.99906,-1.63282,0.918149505,-0.393736785,-0.027648855
1764764059.8382547,-5.14262,1.99906,-1.63282,0.918149505,-0.393736785,-0.027648855
1764764059.8382547,-5.14262,1.99906,-1.63282,0.918149505,-0.393736785,-0.027648855
1764764059.8382547,-5.14262,1.99906,-1.63282,0.918149505,-0.393736785,-0.027648855
1764764059.8382547,-5.14262,1.99906,-1.63282,0.918149505,-0.393736785,-0.027648855
1764764059.8382547,-5.14262,1.99906,-1.63282,0.918149505,-0.393736785,-0.027648855
1764764059.8382547,-5.14262,1.99906,-1.63282,0.918149505,-0.393736785,-0.027648855
1764764059.8382547,-4.45592,1.8312,-0.25942,0.919126065,-0.3942861,-0.027160575
1764764059.8382547,-4.45592,1.8312,-0.25942,0.919126065,-0.3942861,-0.027160575
1764764059.8382547,-4.45592,1.8312,-0.25942,0.919126065,-0.3942861,-0.027160575
1764764059.8382547,-4.45592,1.8312,-0.25942,0.919126065,-0.3942861,-0.027160575
1764764059.8382547,-4.45592,1.8312,-0.25942,0.919126065,-0.3942861,-0.027160575
1764764059.8382547,-4.45592,1.8312,-0.25942,0.919126065,-0.3942861,-0.027160575
1764764059.8382547,-4.45592,1.8312,-0.25942,0.919126065,-0.3942861,-0.027160575
1764764059.8382547,-4.45592,1.8312,-0.25942,0.919126065,-0.3942861,-0.027160575
1764764059.8859882,-4.45592,1.8312,-0.25942,0.919126065,-0.3942861,-0.027160575
1764764059.8859882,-4.45592,1.8312,-0.25942,0.919126065,-0.3942861,-0.027160575
1764764059.8859882,-4.22702,1.1445,0.28994,0.92126229,-0.39489645,-0.02673333
1764764059.8859882,-4.22702,1.1445,0.28994,0.92126229,-0.39489645,-0.02673333
1764764059.8859882,-4.22702,1.1445,0.28994,0.92126229,-0.39489645,-0.02673333
1764764059.886497,-4.22702,1.1445,0.28994,0.92126229,-0.39489645,-0.02673333
1764764059.886497,-4.22702,1.1445,0.28994,0.92126229,-0.39489645,-0.02673333
1764764059.886497,-4.22702,1.1445,0.28994,0.92126229,-0.39489645,-0.02673333
1764764059.886497,-4.22702,1.1445,0.28994,0.92126229,-0.39489645,-0.02673333
1764764059.886497,-4.22702,1.1445,0.28994,0.92126229,-0.39489645,-0.02673333
1764764059.886497,-4.22702,1.1445,0.28994,0.92126229,-0.39489645,-0.02673333
1764764059.886497,-4.22702,1.1445,0.28994,0.92126229,-0.39489645,-0.02673333
1764764059.886497,-3.95234,1.02242,1.34288,0.92114022,-0.394835415,-0.026550225
1764764059.886497,-3.95234,1.02242,1.34288,0.92114022,-0.394835415,-0.026550225
1764764059.886497,-3.95234,1.02242,1.34288,0.92114022,-0.394835415,-0.026550225
1764764059.886497,-3.95234,1.02242,1.34288,0.92114022,-0.394835415,-0.026550225
1764764059.886497,-3.95234,1.02242,1.34288,0.92114022,-0.394835415,-0.026550225
1764764059.886497,-3.95234,1.02242,1.34288,0.92114022,-0.394835415,-0.026550225
1764764059.886497,-3.95234,1.02242,1.34288,0.92114022,-0.394835415,-0.026550225
1764764059.886497,-3.95234,1.02242,1.34288,0.92114022,-0.394835415,-0.026550225
1764764059.886497,-3.95234,1.02242,1.34288,0.92114022,-0.394835415,-0.026550225
1764764059.886497,-3.95234,1.02242,1.34288,0.92114022,-0.394835415,-0.026550225
1764764059.886497,-3.09778,1.17502,2.5942,0.92223885,-0.39575094,-0.02648919
1764764059.886497,-3.09778,1.17502,2.5942,0.92223885,-0.39575094,-0.02648919
1764764059.930177,-3.09778,1.17502,2.5942,0.92223885,-0.39575094,-0.02648919
1764764059.930177,-3.09778,1.17502,2.5942,0.92223885,-0.39575094,-0.02648919
1764764059.930177,-3.09778,1.17502,2.5942,0.92223885,-0.39575094,-0.02648919
1764764059.930177,-3.09778,1.17502,2.5942,0.92223885,-0.39575094,-0.02648919
1764764059.930177,-3.09778,1.17502,2.5942,0.92223885,-0.39575094,-0.02648919
1764764059.930177,-3.09778,1.17502,2.5942,0.92223885,-0.39575094,-0.02648919
1764764059.930177,-3.09778,1.17502,2.5942,0.92223885,-0.39575094,-0.02648919
1764764059.930177,-3.09778,1.17502,2.5942,0.92223885,-0.39575094,-0.02648919
1764764059.930177,-3.40298,0.82404,3.29616,0.92211678,-0.396056115,-0.027892995
1764764059.930177,-3.40298,0.82404,3.29616,0.92211678,-0.396056115,-0.027892995
1764764059.930177,-3.40298,0.82404,3.29616,0.92211678,-0.396056115,-0.027892995
1764764059.930704,-3.40298,0.82404,3.29616,0.92211678,-0.396056115,-0.027892995
1764764059.930704,-3.40298,0.82404,3.29616,0.92211678,-0.396056115,-0.027892995
1764764059.930704,-3.40298,0.82404,3.29616,0.92211678,-0.396056115,-0.027892995
1764764059.930704,-3.40298,0.82404,3.29616,0.92211678,-0.396056115,-0.027892995
1764764059.930704,-3.40298,0.82404,3.29616,0.92211678,-0.396056115,-0.027892995
1764764059.930704,-3.40298,0.82404,3.29616,0.92211678,-0.396056115,-0.027892995
1764764059.930704,-3.40298,0.82404,3.29616,0.92211678,-0.396056115,-0.027892995
1764764059.930704,-3.44876,0.39676,3.60136,0.920835045,-0.395689905,-0.02856438
1764764059.930704,-3.44876,0.39676,3.60136,0.920835045,-0.395689905,-0.02856438
1764764059.930704,-3.44876,0.39676,3.60136,0.920835045,-0.395689905,-0.02856438
1764764059.930704,-3.44876,0.39676,3.60136,0.920835045,-0.395689905,-0.02856438
1764764059.9774094,-3.44876,0.39676,3.60136,0.920835045,-0.395689905,-0.02856438
1764764059.9774094,-3.44876,0.39676,3.60136,0.920835045,-0.395689905,-0.02856438
1764764059.9774094,-3.44876,0.39676,3.60136,0.920835045,-0.395689905,-0.02856438
1764764059.9774094,-3.44876,0.39676,3.60136,0.920835045,-0.395689905,-0.02856438
1764764059.9774094,-3.44876,0.39676,3.60136,0.920835045,-0.395689905,-0.02856438
1764764059.9774094,-3.44876,0.39676,3.60136,0.920835045,-0.395689905,-0.02856438
1764764059.9774094,-3.00622,0.56462,4.07442,0.92065194,-0.39721578,-0.028015065
1764764059.9774094,-3.00622,0.56462,4.07442,0.92065194,-0.39721578,-0.028015065
1764764059.9774094,-3.00622,0.56462,4.07442,0.92065194,-0.39721578,-0.028015065
1764764059.9774094,-3.00622,0.56462,4.07442,0.92065194,-0.39721578,-0.028015065
1764764059.9774094,-3.00622,0.56462,4.07442,0.92065194,-0.39721578,-0.028015065
1764764059.9774094,-3.00622,0.56462,4.07442,0.92065194,-0.39721578,-0.028015065
1764764059.9779365,-3.00622,0.56462,4.07442,0.92065194,-0.39721578,-0.028015065
1764764059.9779365,-3.00622,0.56462,4.07442,0.92065194,-0.39721578,-0.028015065
1764764059.9779365,-3.00622,0.56462,4.07442,0.92065194,-0.39721578,-0.028015065
1764764059.9779365,-3.00622,0.56462,4.07442,0.92065194,-0.39721578,-0.028015065
1764764059.9779365,-2.09062,0.54936,3.34194,0.919858485,-0.398619585,-0.027892995
1764764059.9779365,-2.09062,0.54936,3.34194,0.919858485,-0.398619585,-0.027892995
1764764059.9779365,-2.09062,0.54936,3.34194,0.919858485,-0.398619585,-0.027892995
1764764059.9779365,-2.09062,0.54936,3.34194,0.919858485,-0.398619585,-0.027892995
1764764059.9779365,-2.09062,0.54936,3.34194,0.919858485,-0.398619585,-0.027892995
1764764059.9779365,-2.09062,0.54936,3.34194,0.919858485,-0.398619585,-0.027892995
1764764059.9779365,-2.09062,0.54936,3.34194,0.919858485,-0.398619585,-0.027892995
1764764059.9779365,-2.09062,0.54936,3.34194,0.919858485,-0.398619585,-0.027892995
1764764060.0239563,-2.09062,0.54936,3.34194,0.919858485,-0.398619585,-0.027892995
1764764060.0239563,-2.09062,0.54936,3.34194,0.919858485,-0.398619585,-0.027892995
1764764060.0239563,-1.86172,-0.03052,3.47928,0.91808847,-0.400206495,-0.02868645
1764764060.0239563,-1.86172,-0.03052,3.47928,0.91808847,-0.400206495,-0.02868645
1764764060.0239563,-1.86172,-0.03052,3.47928,0.91808847,-0.400206495,-0.02868645
1764764060.0239563,-1.86172,-0.03052,3.47928,0.91808847,-0.400206495,-0.02868645
1764764060.0239563,-1.86172,-0.03052,3.47928,0.91808847,-0.400206495,-0.02868645
1764764060.0239563,-1.86172,-0.03052,3.47928,0.91808847,-0.400206495,-0.02868645
1764764060.0239563,-1.86172,-0.03052,3.47928,0.91808847,-0.400206495,-0.02868645
1764764060.0239563,-1.86172,-0.03052,3.47928,0.91808847,-0.400206495,-0.02868645
1764764060.0239563,-1.86172,-0.03052,3.47928,0.91808847,-0.400206495,-0.02868645
1764764060.0239563,-1.86172,-0.03052,3.47928,0.91808847,-0.400206495,-0.02868645
1764764060.0239563,-1.64808,-0.25942,3.99812,0.917661225,-0.40063374,-0.02966301
1764764060.0239563,-1.64808,-0.25942,3.99812,0.917661225,-0.40063374,-0.02966301
1764764060.0239563,-1.64808,-0.25942,3.99812,0.917661225,-0.40063374,-0.02966301
1764764060.0239563,-1.64808,-0.25942,3.99812,0.917661225,-0.40063374,-0.02966301
1764764060.0239563,-1.64808,-0.25942,3.99812,0.917661225,-0.40063374,-0.02966301
1764764060.0239563,-1.64808,-0.25942,3.99812,0.917661225,-0.40063374,-0.02966301
1764764060.0239563,-1.64808,-0.25942,3.99812,0.917661225,-0.40063374,-0.02966301
1764764060.0239563,-1.64808,-0.25942,3.99812,0.917661225,-0.40063374,-0.02966301
1764764060.0239563,-1.64808,-0.25942,3.99812,0.917661225,-0.40063374,-0.02966301
1764764060.0239563,-1.64808,-0.25942,3.99812,0.917661225,-0.40063374,-0.02966301
1764764060.0239563,-1.2208,0.21364,3.18934,0.918637785,-0.401183055,-0.02941887
1764764060.0239563,-1.2208,0.21364,3.18934,0.918637785,-0.401183055,-0.02941887
1764764060.0718048,-1.2208,0.21364,3.18934,0.918637785,-0.401183055,-0.02941887
1764764060.0718048,-1.2208,0.21364,3.18934,0.918637785,-0.401183055,-0.02941887
1764764060.0718048,-1.2208,0.21364,3.18934,0.918637785,-0.401183055,-0.02941887
1764764060.0728056,-1.2208,0.21364,3.18934,0.918637785,-0.401183055,-0.02941887
1764764060.0728056,-1.2208,0.21364,3.18934,0.918637785,-0.401183055,-0.02941887
1764764060.0728056,-1.2208,0.21364,3.18934,0.918637785,-0.401183055,-0.02941887
1764764060.0733888,-1.2208,0.21364,3.18934,0.918637785,-0.401183055,-0.02941887
1764764060.0733888,-1.2208,0.21364,3.18934,0.918637785,-0.401183055,-0.02941887
1764764060.0733888,-0.763,0.1678599999999999,2.80784,0.919614345,-0.40209858,-0.028869555
1764764060.0733888,-0.763,0.1678599999999999,2.80784,0.919614345,-0.40209858,-0.028869555
1764764060.0733888,-0.763,0.1678599999999999,2.80784,0.919614345,-0.40209858,-0.028869555
1764764060.0733888,-0.763,0.1678599999999999,2.80784,0.919614345,-0.40209858,-0.028869555
1764764060.0733888,-0.763,0.1678599999999999,2.80784,0.919614345,-0.40209858,-0.028869555
1764764060.0733888,-0.763,0.1678599999999999,2.80784,0.919614345,-0.40209858,-0.028869555
1764764060.0733888,-0.763,0.1678599999999999,2.80784,0.919614345,-0.40209858,-0.028869555
1764764060.0733888,-0.763,0.1678599999999999,2.80784,0.919614345,-0.40209858,-0.028869555
1764764060.0733888,-0.763,0.1678599999999999,2.80784,0.919614345,-0.40209858,-0.028869555
1764764060.0733888,-0.763,0.1678599999999999,2.80784,0.919614345,-0.40209858,-0.028869555
1764764060.0733888,-0.6714399999999999,0.50358,1.95328,0.91943124,-0.402769965,-0.02917473
1764764060.0733888,-0.6714399999999999,0.50358,1.95328,0.91943124,-0.402769965,-0.02917473
1764764060.0733888,-0.6714399999999999,0.50358,1.95328,0.91943124,-0.402769965,-0.02917473
1764764060.0733888,-0.6714399999999999,0.50358,1.95328,0.91943124,-0.402769965,-0.02917473
1764764060.1197126,-0.6714399999999999,0.50358,1.95328,0.91943124,-0.402769965,-0.02917473
1764764060.1197126,-0.6714399999999999,0.50358,1.95328,0.91943124,-0.402769965,-0.02917473
1764764060.1197126,-0.6714399999999999,0.50358,1.95328,0.91943124,-0.402769965,-0.02917473
1764764060.1197126,-0.6714399999999999,0.50358,1.95328,0.91943124,-0.402769965,-0.02917473
1764764060.1197126,-0.6714399999999999,0.50358,1.95328,0.91943124,-0.402769965,-0.02917473
1764764060.1197126,-0.6714399999999999,0.50358,1.95328,0.91943124,-0.402769965,-0.02917473
1764764060.1197126,-1.0682,1.2971,1.51074,0.919003995,-0.40222065,-0.02941887
1764764060.1197126,-1.0682,1.2971,1.51074,0.919003995,-0.40222065,-0.02941887
1764764060.1197126,-1.0682,1.2971,1.51074,0.919003995,-0.40222065,-0.02941887
1764764060.1197126,-1.0682,1.2971,1.51074,0.919003995,-0.40222065,-0.02941887
1764764060.1197126,-1.0682,1.2971,1.51074,0.919003995,-0.40222065,-0.02941887
1764764060.1197126,-1.0682,1.2971,1.51074,0.919003995,-0.40222065,-0.02941887
1764764060.1197126,-1.0682,1.2971,1.51074,0.919003995,-0.40222065,-0.02941887
1764764060.120718,-1.0682,1.2971,1.51074,0.919003995,-0.40222065,-0.02941887
1764764060.120718,-1.0682,1.2971,1.51074,0.919003995,-0.40222065,-0.02941887
1764764060.120718,-1.0682,1.2971,1.51074,0.919003995,-0.40222065,-0.02941887
1764764060.120718,-1.38866,1.69386,1.38866,0.91894296,-0.4016103,-0.029601975
1764764060.120718,-1.38866,1.69386,1.38866,0.91894296,-0.4016103,-0.029601975
1764764060.120718,-1.38866,1.69386,1.38866,0.91894296,-0.4016103,-0.029601975
1764764060.120718,-1.38866,1.69386,1.38866,0.91894296,-0.4016103,-0.029601975
1764764060.120718,-1.38866,1.69386,1.38866,0.91894296,-0.4016103,-0.029601975
1764764060.120718,-1.38866,1.69386,1.38866,0.91894296,-0.4016103,-0.029601975
1764764060.120718,-1.38866,1.69386,1.38866,0.91894296,-0.4016103,-0.029601975
1764764060.120718,-1.38866,1.69386,1.38866,0.91894296,-0.4016103,-0.029601975
1764764060.1660316,-1.38866,1.69386,1.38866,0.91894296,-0.4016103,-0.029601975
1764764060.1660316,-1.38866,1.69386,1.38866,0.91894296,-0.4016103,-0.029601975
1764764060.1660316,-1.72438,1.6022999999999998,1.03768,0.919126065,-0.402281685,-0.02954094
1764764060.1660316,-1.72438,1.6022999999999998,1.03768,0.919126065,-0.402281685,-0.02954094
1764764060.1660316,-1.72438,1.6022999999999998,1.03768,0.919126065,-0.402281685,-0.02954094
1764764060.1660316,-1.72438,1.6022999999999998,1.03768,0.919126065,-0.402281685,-0.02954094
1764764060.1660316,-1.72438,1.6022999999999998,1.03768,0.919126065,-0.402281685,-0.02954094
1764764060.1660316,-1.72438,1.6022999999999998,1.03768,0.919126065,-0.402281685,-0.02954094
1764764060.1660316,-1.72438,1.6022999999999998,1.03768,0.919126065,-0.402281685,-0.02954094
1764764060.1660316,-1.72438,1.6022999999999998,1.03768,0.919126065,-0.402281685,-0.02954094
1764764060.1660316,-1.72438,1.6022999999999998,1.03768,0.919126065,-0.402281685,-0.02954094
1764764060.1660316,-1.72438,1.6022999999999998,1.03768,0.919126065,-0.402281685,-0.02954094
1764764060.1660316,-2.19744,1.96854,1.08346,0.9191871,-0.40344135,-0.02868645
1764764060.1660316,-2.19744,1.96854,1.08346,0.9191871,-0.40344135,-0.02868645
1764764060.1660316,-2.19744,1.96854,1.08346,0.9191871,-0.40344135,-0.02868645
1764764060.1660316,-2.19744,1.96854,1.08346,0.9191871,-0.40344135,-0.02868645
1764764060.1660316,-2.19744,1.96854,1.08346,0.9191871,-0.40344135,-0.02868645
1764764060.1660316,-2.19744,1.96854,1.08346,0.9191871,-0.40344135,-0.02868645
1764764060.1660316,-2.19744,1.96854,1.08346,0.9191871,-0.40344135,-0.02868645
1764764060.1660316,-2.19744,1.96854,1.08346,0.9191871,-0.40344135,-0.02868645
1764764060.1660316,-2.19744,1.96854,1.08346,0.9191871,-0.40344135,-0.02868645
1764764060.1660316,-2.19744,1.96854,1.08346,0.9191871,-0.40344135,-0.02868645
1764764060.2133305,-1.28184,1.87698,1.58704,0.917905365,-0.404845155,-0.027892995
1764764060.2133305,-1.28184,1.87698,1.58704,0.917905365,-0.404845155,-0.027892995
1764764060.2133305,-1.28184,1.87698,1.58704,0.917905365,-0.404845155,-0.027892995
1764764060.2133305,-1.28184,1.87698,1.58704,0.917905365,-0.404845155,-0.027892995
1764764060.2133305,-1.28184,1.87698,1.58704,0.917905365,-0.404845155,-0.027892995
1764764060.2133305,-1.28184,1.87698,1.58704,0.917905365,-0.404845155,-0.027892995
1764764060.2133305,-1.28184,1.87698,1.58704,0.917905365,-0.404845155,-0.027892995
1764764060.2133305,-1.28184,1.87698,1.58704,0.917905365,-0.404845155,-0.027892995
1764764060.2133305,-1.28184,1.87698,1.58704,0.917905365,-0.404845155,-0.027892995
1764764060.2133305,-1.28184,1.87698,1.58704,0.917905365,-0.404845155,-0.027892995
1764764060.2133305,-0.57988,1.32762,1.55652,0.916318455,-0.4052724,-0.02661126
1764764060.2143362,-0.57988,1.32762,1.55652,0.916318455,-0.4052724,-0.02661126
1764764060.2143362,-0.57988,1.32762,1.55652,0.916318455,-0.4052724,-0.02661126
1764764060.2143362,-0.57988,1.32762,1.55652,0.916318455,-0.4052724,-0.02661126
1764764060.2143362,-0.57988,1.32762,1.55652,0.916318455,-0.4052724,-0.02661126
1764764060.2143362,-0.57988,1.32762,1.55652,0.916318455,-0.4052724,-0.02661126
1764764060.2143362,-0.57988,1.32762,1.55652,0.916318455,-0.4052724,-0.02661126
1764764060.2143362,-0.57988,1.32762,1.55652,0.916318455,-0.4052724,-0.02661126
1764764060.2143362,-0.57988,1.32762,1.55652,0.916318455,-0.4052724,-0.02661126
1764764060.2143362,-0.57988,1.32762,1.55652,0.916318455,-0.4052724,-0.02661126
1764764060.2143362,-0.93086,0.41202,1.38866,0.91637949,-0.40515033,-0.026794365
1764764060.2143362,-0.93086,0.41202,1.38866,0.91637949,-0.40515033,-0.026794365
1764764060.2143362,-0.93086,0.41202,1.38866,0.91637949,-0.40515033,-0.026794365
1764764060.2143362,-0.93086,0.41202,1.38866,0.91637949,-0.40515033,-0.026794365
1764764060.2572727,-0.93086,0.41202,1.38866,0.91637949,-0.40515033,-0.026794365
1764764060.2572727,-0.93086,0.41202,1.38866,0.91637949,-0.40515033,-0.026794365
1764764060.2572727,-0.93086,0.41202,1.38866,0.91637949,-0.40515033,-0.026794365
1764764060.2572727,-0.93086,0.41202,1.38866,0.91637949,-0.40515033,-0.026794365
1764764060.2572727,-0.93086,0.41202,1.38866,0.91637949,-0.40515033,-0.026794365
