Timestamp,GyroX,GyroY,GyroZ,AccX,AccY,AccZ
1764764603.1864555,-3.14356,0.77826,0.3051999999999999,-0.918393645,0.320860995,-0.199523415
1764764603.1864555,-3.14356,0.77826,0.3051999999999999,-0.918393645,0.320860995,-0.199523415
1764764603.1864555,-3.14356,0.77826,0.3051999999999999,-0.918393645,0.320860995,-0.199523415
1764764603.1864555,-3.14356,0.77826,0.3051999999999999,-0.918393645,0.320860995,-0.199523415
1764764603.1864555,-3.14356,0.77826,0.3051999999999999,-0.918393645,0.320860995,-0.199523415
1764764603.1864555,-2.54842,-0.42728,0.73248,-0.91833261,0.321471345,-0.19848582
1764764603.1864555,-2.54842,-0.42728,0.73248,-0.91833261,0.321471345,-0.19848582
1764764603.1864555,-2.54842,-0.42728,0.73248,-0.91833261,0.321471345,-0.19848582
1764764603.1864555,-2.54842,-0.42728,0.73248,-0.91833261,0.321471345,-0.19848582
1764764603.1864555,-2.54842,-0.42728,0.73248,-0.91833261,0.321471345,-0.19848582
1764764603.1864555,-2.54842,-0.42728,0.73248,-0.91833261,0.321471345,-0.19848582
1764764603.1864555,-2.54842,-0.42728,0.73248,-0.91833261,0.321471345,-0.19848582
1764764603.1864555,-2.54842,-0.42728,0.73248,-0.91833261,0.321471345,-0.19848582
1764764603.1864555,-2.54842,-0.42728,0.73248,-0.91833261,0.321471345,-0.19848582
1764764603.1864555,-2.54842,-0.42728,0.73248,-0.91833261,0.321471345,-0.19848582
1764764603.1864555,-3.40298,0.50358,1.2208,-0.917783295,0.32202066,-0.19982859
1764764603.1864555,-3.40298,0.50358,1.2208,-0.917783295,0.32202066,-0.19982859
1764764603.1864555,-3.40298,0.50358,1.2208,-0.917783295,0.32202066,-0.19982859
1764764603.1864555,-3.40298,0.50358,1.2208,-0.917783295,0.32202066,-0.19982859
1764764603.1864555,-3.40298,0.50358,1.2208,-0.917783295,0.32202066,-0.19982859
1764764603.1864555,-3.40298,0.50358,1.2208,-0.917783295,0.32202066,-0.19982859
1764764603.2328875,-3.40298,0.50358,1.2208,-0.917783295,0.32202066,-0.19982859
1764764603.2328875,-3.40298,0.50358,1.2208,-0.917783295,0.32202066,-0.19982859
1764764603.2328875,-3.40298,0.50358,1.2208,-0.917783295,0.32202066,-0.19982859
1764764603.2328875,-3.40298,0.50358,1.2208,-0.917783295,0.32202066,-0.19982859
1764764603.2328875,-4.8069,0.51884,0.6103999999999999,-0.91845468,0.32189859,-0.201720675
1764764603.2328875,-4.8069,0.51884,0.6103999999999999,-0.91845468,0.32189859,-0.201720675
1764764603.2328875,-4.8069,0.51884,0.6103999999999999,-0.91845468,0.32189859,-0.201720675
1764764603.2328875,-4.8069,0.51884,0.6103999999999999,-0.91845468,0.32189859,-0.201720675
1764764603.2328875,-4.8069,0.51884,0.6103999999999999,-0.91845468,0.32189859,-0.201720675
1764764603.2328875,-4.8069,0.51884,0.6103999999999999,-0.91845468,0.32189859,-0.201720675
1764764603.2328875,-4.8069,0.51884,0.6103999999999999,-0.91845468,0.32189859,-0.201720675
1764764603.2328875,-4.8069,0.51884,0.6103999999999999,-0.91845468,0.32189859,-0.201720675
1764764603.233391,-4.8069,0.51884,0.6103999999999999,-0.91845468,0.32189859,-0.201720675
1764764603.233391,-4.8069,0.51884,0.6103999999999999,-0.91845468,0.32189859,-0.201720675
1764764603.233391,-3.3572,0.59514,0.4578,-0.91979745,0.321715485,-0.201354465
1764764603.233391,-3.3572,0.59514,0.4578,-0.91979745,0.321715485,-0.201354465
1764764603.233391,-3.3572,0.59514,0.4578,-0.91979745,0.321715485,-0.201354465
1764764603.233391,-3.3572,0.59514,0.4578,-0.91979745,0.321715485,-0.201354465
1764764603.233391,-3.3572,0.59514,0.4578,-0.91979745,0.321715485,-0.201354465
1764764603.233391,-3.3572,0.59514,0.4578,-0.91979745,0.321715485,-0.201354465
1764764603.233391,-3.3572,0.59514,0.4578,-0.91979745,0.321715485,-0.201354465
1764764603.233391,-3.3572,0.59514,0.4578,-0.91979745,0.321715485,-0.201354465
1764764603.233391,-3.3572,0.59514,0.4578,-0.91979745,0.321715485,-0.201354465
1764764603.233391,-3.3572,0.59514,0.4578,-0.91979745,0.321715485,-0.201354465
1764764603.233391,-3.49454,1.2055399999999998,0.6103999999999999,-0.91930917,0.32116617,-0.2014155
1764764603.233391,-3.49454,1.2055399999999998,0.6103999999999999,-0.91930917,0.32116617,-0.2014155
1764764603.2802317,-3.49454,1.2055399999999998,0.6103999999999999,-0.91930917,0.32116617,-0.2014155
1764764603.2802317,-3.49454,1.2055399999999998,0.6103999999999999,-0.91930917,0.32116617,-0.2014155
1764764603.2802317,-3.49454,1.2055399999999998,0.6103999999999999,-0.91930917,0.32116617,-0.2014155
1764764603.2802317,-3.49454,1.2055399999999998,0.6103999999999999,-0.91930917,0.32116617,-0.2014155
1764764603.2802317,-3.49454,1.2055399999999998,0.6103999999999999,-0.91930917,0.32116617,-0.2014155
1764764603.2802317,-3.49454,1.2055399999999998,0.6103999999999999,-0.91930917,0.32116617,-0.2014155
1764764603.2802317,-3.49454,1.2055399999999998,0.6103999999999999,-0.91930917,0.32116617,-0.2014155
1764764603.2802317,-3.49454,1.2055399999999998,0.6103999999999999,-0.91930917,0.32116617,-0.2014155
1764764603.2802317,-4.31858,0.82404,0.763,-0.91894296,0.322203765,-0.201964815
1764764603.2802317,-4.31858,0.82404,0.763,-0.91894296,0.322203765,-0.201964815
1764764603.2802317,-4.31858,0.82404,0.763,-0.91894296,0.322203765,-0.201964815
1764764603.2802317,-4.31858,0.82404,0.763,-0.91894296,0.322203765,-0.201964815
1764764603.2802317,-4.31858,0.82404,0.763,-0.91894296,0.322203765,-0.201964815
1764764603.2802317,-4.31858,0.82404,0.763,-0.91894296,0.322203765,-0.201964815
1764764603.2802317,-4.31858,0.82404,0.763,-0.91894296,0.322203765,-0.201964815
1764764603.2802317,-4.31858,0.82404,0.763,-0.91894296,0.322203765,-0.201964815
1764764603.2802317,-4.31858,0.82404,0.763,-0.91894296,0.322203765,-0.201964815
1764764603.2802317,-4.31858,0.82404,0.763,-0.91894296,0.322203765,-0.201964815
1764764603.2802317,-5.40204,1.03768,0.51884,-0.919248135,0.32299722,-0.202453095
1764764603.2802317,-5.40204,1.03768,0.51884,-0.919248135,0.32299722,-0.202453095
1764764603.2802317,-5.40204,1.03768,0.51884,-0.919248135,0.32299722,-0.202453095
1764764603.2802317,-5.40204,1.03768,0.51884,-0.919248135,0.32299722,-0.202453095
1764764603.323145,-5.40204,1.03768,0.51884,-0.919248135,0.32299722,-0.202453095
1764764603.323145,-5.40204,1.03768,0.51884,-0.919248135,0.32299722,-0.202453095
1764764603.323145,-5.40204,1.03768,0.51884,-0.919248135,0.32299722,-0.202453095
1764764603.323145,-5.40204,1.03768,0.51884,-0.919248135,0.32299722,-0.202453095
1764764603.324211,-5.40204,1.03768,0.51884,-0.919248135,0.32299722,-0.202453095
1764764603.324211,-5.40204,1.03768,0.51884,-0.919248135,0.32299722,-0.202453095
1764764603.324211,-4.68482,1.03768,0.71722,-0.91930917,0.322325835,-0.201842745
1764764603.324211,-4.68482,1.03768,0.71722,-0.91930917,0.322325835,-0.201842745
1764764603.324211,-4.68482,1.03768,0.71722,-0.91930917,0.322325835,-0.201842745
1764764603.324211,-4.68482,1.03768,0.71722,-0.91930917,0.322325835,-0.201842745
1764764603.324211,-4.68482,1.03768,0.71722,-0.91930917,0.322325835,-0.201842745
1764764603.324211,-4.68482,1.03768,0.71722,-0.91930917,0.322325835,-0.201842745
1764764603.324211,-4.68482,1.03768,0.71722,-0.91930917,0.322325835,-0.201842745
1764764603.3247266,-4.68482,1.03768,0.71722,-0.91930917,0.322325835,-0.201842745
1764764603.3247266,-4.68482,1.03768,0.71722,-0.91930917,0.322325835,-0.201842745
1764764603.3247266,-4.68482,1.03768,0.71722,-0.91930917,0.322325835,-0.201842745
1764764603.3247266,-4.59326,0.82404,0.04578,-0.919370205,0.320128575,-0.200011695
1764764603.3247266,-4.59326,0.82404,0.04578,-0.919370205,0.320128575,-0.200011695
1764764603.3247266,-4.59326,0.82404,0.04578,-0.919370205,0.320128575,-0.200011695
1764764603.3247266,-4.59326,0.82404,0.04578,-0.919370205,0.320128575,-0.200011695
1764764603.3247266,-4.59326,0.82404,0.04578,-0.919370205,0.320128575,-0.200011695
1764764603.3247266,-4.59326,0.82404,0.04578,-0.919370205,0.320128575,-0.200011695
1764764603.371031,-4.59326,0.82404,0.04578,-0.919370205,0.320128575,-0.200011695
1764764603.371031,-4.59326,0.82404,0.04578,-0.919370205,0.320128575,-0.200011695
1764764603.371031,-4.59326,0.82404,0.04578,-0.919370205,0.320128575,-0.200011695
1764764603.371031,-4.59326,0.82404,0.04578,-0.919370205,0.320128575,-0.200011695
1764764603.371031,-4.852679999999999,0.93086,-0.01526,-0.918637785,0.31909098,-0.19958445
1764764603.371031,-4.852679999999999,0.93086,-0.01526,-0.918637785,0.31909098,-0.19958445
1764764603.371031,-4.852679999999999,0.93086,-0.01526,-0.918637785,0.31909098,-0.19958445
1764764603.371031,-4.852679999999999,0.93086,-0.01526,-0.918637785,0.31909098,-0.19958445
1764764603.371031,-4.852679999999999,0.93086,-0.01526,-0.918637785,0.31909098,-0.19958445
1764764603.371031,-4.852679999999999,0.93086,-0.01526,-0.918637785,0.31909098,-0.19958445
1764764603.371031,-4.852679999999999,0.93086,-0.01526,-0.918637785,0.31909098,-0.19958445
1764764603.371031,-4.852679999999999,0.93086,-0.01526,-0.918637785,0.31909098,-0.19958445
1764764603.371031,-4.852679999999999,0.93086,-0.01526,-0.918637785,0.31909098,-0.19958445
1764764603.371031,-4.852679999999999,0.93086,-0.01526,-0.918637785,0.31909098,-0.19958445
1764764603.371031,-4.94424,1.08346,0.27468,-0.918393645,0.32018961,-0.20007273
1764764603.371031,-4.94424,1.08346,0.27468,-0.918393645,0.32018961,-0.20007273
1764764603.371031,-4.94424,1.08346,0.27468,-0.918393645,0.32018961,-0.20007273
1764764603.371031,-4.94424,1.08346,0.27468,-0.918393645,0.32018961,-0.20007273
1764764603.371031,-4.94424,1.08346,0.27468,-0.918393645,0.32018961,-0.20007273
1764764603.371031,-4.94424,1.08346,0.27468,-0.918393645,0.32018961,-0.20007273
1764764603.371031,-4.94424,1.08346,0.27468,-0.918393645,0.32018961,-0.20007273
1764764603.371031,-4.94424,1.08346,0.27468,-0.918393645,0.32018961,-0.20007273
1764764603.3720412,-4.94424,1.08346,0.27468,-0.918393645,0.32018961,-0.20007273
1764764603.3720412,-4.94424,1.08346,0.27468,-0.918393645,0.32018961,-0.20007273
1764764603.3720412,-4.74586,1.77016,0.36624,-0.919858485,0.321471345,-0.20080515
1764764603.3720412,-4.74586,1.77016,0.36624,-0.919858485,0.321471345,-0.20080515
1764764603.4187832,-4.74586,1.77016,0.36624,-0.919858485,0.321471345,-0.20080515
1764764603.4187832,-4.74586,1.77016,0.36624,-0.919858485,0.321471345,-0.20080515
1764764603.4187832,-4.74586,1.77016,0.36624,-0.919858485,0.321471345,-0.20080515
1764764603.4187832,-4.74586,1.77016,0.36624,-0.919858485,0.321471345,-0.20080515
1764764603.4187832,-4.74586,1.77016,0.36624,-0.919858485,0.321471345,-0.20080515
1764764603.4187832,-4.74586,1.77016,0.36624,-0.919858485,0.321471345,-0.20080515
1764764603.4187832,-4.74586,1.77016,0.36624,-0.919858485,0.321471345,-0.20080515
1764764603.4187832,-4.74586,1.77016,0.36624,-0.919858485,0.321471345,-0.20080515
1764764603.4187832,-4.86794,1.32762,0.65618,-0.920468835,0.32311929,-0.200133765
1764764603.4187832,-4.86794,1.32762,0.65618,-0.920468835,0.32311929,-0.200133765
1764764603.4187832,-4.86794,1.32762,0.65618,-0.920468835,0.32311929,-0.200133765
1764764603.4187832,-4.86794,1.32762,0.65618,-0.920468835,0.32311929,-0.200133765
1764764603.4187832,-4.86794,1.32762,0.65618,-0.920468835,0.32311929,-0.200133765
1764764603.4187832,-4.86794,1.32762,0.65618,-0.920468835,0.32311929,-0.200133765
1764764603.4187832,-4.86794,1.32762,0.65618,-0.920468835,0.32311929,-0.200133765
1764764603.4187832,-4.86794,1.32762,0.65618,-0.920468835,0.32311929,-0.200133765
1764764603.4187832,-4.86794,1.32762,0.65618,-0.920468835,0.32311929,-0.200133765
1764764603.4187832,-4.86794,1.32762,0.65618,-0.920468835,0.32311929,-0.200133765
1764764603.4187832,-6.516019999999999,1.43444,0.88508,-0.919248135,0.32372964,-0.198058575
1764764603.4197867,-6.516019999999999,1.43444,0.88508,-0.919248135,0.32372964,-0.198058575
1764764603.4671428,-6.516019999999999,1.43444,0.88508,-0.919248135,0.32372964,-0.198058575
1764764603.4671428,-6.516019999999999,1.43444,0.88508,-0.919248135,0.32372964,-0.198058575
1764764603.4671428,-6.516019999999999,1.43444,0.88508,-0.919248135,0.32372964,-0.198058575
1764764603.4671428,-6.516019999999999,1.43444,0.88508,-0.919248135,0.32372964,-0.198058575
1764764603.4671428,-6.516019999999999,1.43444,0.88508,-0.919248135,0.32372964,-0.198058575
1764764603.4671428,-6.516019999999999,1.43444,0.88508,-0.919248135,0.32372964,-0.198058575
1764764603.4671428,-6.516019999999999,1.43444,0.88508,-0.919248135,0.32372964,-0.198058575
1764764603.4671428,-6.516019999999999,1.43444,0.88508,-0.919248135,0.32372964,-0.198058575
1764764603.4671428,-5.1884,0.3357199999999999,1.05294,-0.920712975,0.32409585,-0.19714305
1764764603.4671428,-5.1884,0.3357199999999999,1.05294,-0.920712975,0.32409585,-0.19714305
1764764603.4671428,-5.1884,0.3357199999999999,1.05294,-0.920712975,0.32409585,-0.19714305
1764764603.4671428,-5.1884,0.3357199999999999,1.05294,-0.920712975,0.32409585,-0.19714305
1764764603.4671428,-5.1884,0.3357199999999999,1.05294,-0.920712975,0.32409585,-0.19714305
1764764603.4671428,-5.1884,0.3357199999999999,1.05294,-0.920712975,0.32409585,-0.19714305
1764764603.4671428,-5.1884,0.3357199999999999,1.05294,-0.920712975,0.32409585,-0.19714305
1764764603.4671428,-5.1884,0.3357199999999999,1.05294,-0.920712975,0.32409585,-0.19714305
1764764603.4671428,-5.1884,0.3357199999999999,1.05294,-0.920712975,0.32409585,-0.19714305
1764764603.4671428,-5.1884,0.3357199999999999,1.05294,-0.920712975,0.32409585,-0.19714305
1764764603.4671428,-2.57894,0.18312,0.47306,-0.919614345,0.32043375,-0.199157205
1764764603.4671428,-2.57894,0.18312,0.47306,-0.919614345,0.32043375,-0.199157205
1764764603.4671428,-2.57894,0.18312,0.47306,-0.919614345,0.32043375,-0.199157205
1764764603.468159,-2.57894,0.18312,0.47306,-0.919614345,0.32043375,-0.199157205
1764764603.468159,-2.57894,0.18312,0.47306,-0.919614345,0.32043375,-0.199157205
1764764603.468159,-2.57894,0.18312,0.47306,-0.919614345,0.32043375,-0.199157205
1764764603.468159,-2.57894,0.18312,0.47306,-0.919614345,0.32043375,-0.199157205
1764764603.468159,-2.57894,0.18312,0.47306,-0.919614345,0.32043375,-0.199157205
1764764603.5138943,-2.57894,0.18312,0.47306,-0.919614345,0.32043375,-0.199157205
1764764603.5138943,-2.57894,0.18312,0.47306,-0.919614345,0.32043375,-0.199157205
1764764603.5138943,-3.87604,0.7019599999999999,-0.1678599999999999,-0.91772226,0.31909098,-0.20068308
1764764603.5138943,-3.87604,0.7019599999999999,-0.1678599999999999,-0.91772226,0.31909098,-0.20068308
1764764603.5138943,-3.87604,0.7019599999999999,-0.1678599999999999,-0.91772226,0.31909098,-0.20068308
1764764603.5138943,-3.87604,0.7019599999999999,-0.1678599999999999,-0.91772226,0.31909098,-0.20068308
1764764603.5138943,-3.87604,0.7019599999999999,-0.1678599999999999,-0.91772226,0.31909098,-0.20068308
1764764603.5138943,-3.87604,0.7019599999999999,-0.1678599999999999,-0.91772226,0.31909098,-0.20068308
1764764603.5138943,-3.87604,0.7019599999999999,-0.1678599999999999,-0.91772226,0.31909098,-0.20068308
1764764603.5138943,-3.87604,0.7019599999999999,-0.1678599999999999,-0.91772226,0.31909098,-0.20068308
1764764603.5138943,-3.87604,0.7019599999999999,-0.1678599999999999,-0.91772226,0.31909098,-0.20068308
1764764603.5138943,-3.87604,0.7019599999999999,-0.1678599999999999,-0.91772226,0.31909098,-0.20068308
1764764603.5138943,-5.8751,1.12924,1.49548,-0.919003995,0.322814115,-0.199767555
1764764603.5138943,-5.8751,1.12924,1.49548,-0.919003995,0.322814115,-0.199767555
1764764603.5138943,-5.8751,1.12924,1.49548,-0.919003995,0.322814115,-0.199767555
1764764603.5138943,-5.8751,1.12924,1.49548,-0.919003995,0.322814115,-0.199767555
1764764603.5138943,-5.8751,1.12924,1.49548,-0.919003995,0.322814115,-0.199767555
1764764603.5138943,-5.8751,1.12924,1.49548,-0.919003995,0.322814115,-0.199767555
1764764603.515416,-5.8751,1.12924,1.49548,-0.919003995,0.322814115,-0.199767555
1764764603.515416,-5.8751,1.12924,1.49548,-0.919003995,0.322814115,-0.199767555
1764764603.515416,-5.8751,1.12924,1.49548,-0.919003995,0.322814115,-0.199767555
1764764603.515416,-5.8751,1.12924,1.49548,-0.919003995,0.322814115,-0.199767555
1764764603.557753,-5.997179999999999,0.5341,1.49548,-0.9216285,0.325865865,-0.19970652
1764764603.557753,-5.997179999999999,0.5341,1.49548,-0.9216285,0.325865865,-0.19970652
1764764603.557753,-5.997179999999999,0.5341,1.49548,-0.9216285,0.325865865,-0.19970652
1764764603.557753,-5.997179999999999,0.5341,1.49548,-0.9216285,0.325865865,-0.19970652
1764764603.557753,-5.997179999999999,0.5341,1.49548,-0.9216285,0.325865865,-0.19970652
1764764603.557753,-5.997179999999999,0.5341,1.49548,-0.9216285,0.325865865,-0.19970652
1764764603.5589893,-5.997179999999999,0.5341,1.49548,-0.9216285,0.325865865,-0.19970652
1764764603.5589893,-5.997179999999999,0.5341,1.49548,-0.9216285,0.325865865,-0.19970652
1764764603.5589893,-5.997179999999999,0.5341,1.49548,-0.9216285,0.325865865,-0.19970652
1764764603.5589893,-5.997179999999999,0.5341,1.49548,-0.9216285,0.325865865,-0.19970652
1764764603.5595057,-5.46308,0.79352,0.763,-0.92089608,0.32397378,-0.200133765
1764764603.5595057,-5.46308,0.79352,0.763,-0.92089608,0.32397378,-0.200133765
1764764603.5595057,-5.46308,0.79352,0.763,-0.92089608,0.32397378,-0.200133765
1764764603.5595057,-5.46308,0.79352,0.763,-0.92089608,0.32397378,-0.200133765
1764764603.5595057,-5.46308,0.79352,0.763,-0.92089608,0.32397378,-0.200133765
1764764603.5595057,-5.46308,0.79352,0.763,-0.92089608,0.32397378,-0.200133765
1764764603.5595057,-5.46308,0.79352,0.763,-0.92089608,0.32397378,-0.200133765
1764764603.5595057,-5.46308,0.79352,0.763,-0.92089608,0.32397378,-0.200133765
1764764603.5595057,-5.46308,0.79352,0.763,-0.92089608,0.32397378,-0.200133765
1764764603.5595057,-5.46308,0.79352,0.763,-0.92089608,0.32397378,-0.200133765
1764764603.5595057,-5.85984,1.51074,-0.25942,-0.917539155,0.321837555,-0.200499975
1764764603.5595057,-5.85984,1.51074,-0.25942,-0.917539155,0.321837555,-0.200499975
1764764603.5595057,-5.85984,1.51074,-0.25942,-0.917539155,0.321837555,-0.200499975
1764764603.5595057,-5.85984,1.51074,-0.25942,-0.917539155,0.321837555,-0.200499975
1764764603.607164,-5.85984,1.51074,-0.25942,-0.917539155,0.321837555,-0.200499975
1764764603.607164,-5.85984,1.51074,-0.25942,-0.917539155,0.321837555,-0.200499975
1764764603.607164,-5.85984,1.51074,-0.25942,-0.917539155,0.321837555,-0.200499975
1764764603.607164,-5.85984,1.51074,-0.25942,-0.917539155,0.321837555,-0.200499975
1764764603.607164,-5.85984,1.51074,-0.25942,-0.917539155,0.321837555,-0.200499975
1764764603.607164,-5.85984,1.51074,-0.25942,-0.917539155,0.321837555,-0.200499975
1764764603.607164,-4.63904,1.46496,0.3509799999999999,-0.914975685,0.320738925,-0.200377905
1764764603.607164,-4.63904,1.46496,0.3509799999999999,-0.914975685,0.320738925,-0.200377905
1764764603.607164,-4.63904,1.46496,0.3509799999999999,-0.914975685,0.320738925,-0.200377905
1764764603.607164,-4.63904,1.46496,0.3509799999999999,-0.914975685,0.320738925,-0.200377905
1764764603.607164,-4.63904,1.46496,0.3509799999999999,-0.914975685,0.320738925,-0.200377905
1764764603.607164,-4.63904,1.46496,0.3509799999999999,-0.914975685,0.320738925,-0.200377905
1764764603.607164,-4.63904,1.46496,0.3509799999999999,-0.914975685,0.320738925,-0.200377905
1764764603.607164,-4.63904,1.46496,0.3509799999999999,-0.914975685,0.320738925,-0.200377905
1764764603.607164,-4.63904,1.46496,0.3509799999999999,-0.914975685,0.320738925,-0.200377905
1764764603.607164,-4.63904,1.46496,0.3509799999999999,-0.914975685,0.320738925,-0.200377905
1764764603.607164,-4.822159999999999,1.4039199999999998,0.3509799999999999,-0.91613535,0.319884435,-0.198302715
1764764603.607164,-4.822159999999999,1.4039199999999998,0.3509799999999999,-0.91613535,0.319884435,-0.198302715
1764764603.607164,-4.822159999999999,1.4039199999999998,0.3509799999999999,-0.91613535,0.319884435,-0.198302715
1764764603.6081696,-4.822159999999999,1.4039199999999998,0.3509799999999999,-0.91613535,0.319884435,-0.198302715
1764764603.6081696,-4.822159999999999,1.4039199999999998,0.3509799999999999,-0.91613535,0.319884435,-0.198302715
1764764603.6081696,-4.822159999999999,1.4039199999999998,0.3509799999999999,-0.91613535,0.319884435,-0.198302715
1764764603.6081696,-4.822159999999999,1.4039199999999998,0.3509799999999999,-0.91613535,0.319884435,-0.198302715
1764764603.6081696,-4.822159999999999,1.4039199999999998,0.3509799999999999,-0.91613535,0.319884435,-0.198302715
1764764603.6508205,-4.822159999999999,1.4039199999999998,0.3509799999999999,-0.91613535,0.319884435,-0.198302715
1764764603.6508205,-4.822159999999999,1.4039199999999998,0.3509799999999999,-0.91613535,0.319884435,-0.198302715
1764764603.6508205,-3.72344,1.08346,0.42728,-0.919003995,0.319884435,-0.19811961
1764764603.6508205,-3.72344,1.08346,0.42728,-0.919003995,0.319884435,-0.19811961
1764764603.6508205,-3.72344,1.08346,0.42728,-0.919003995,0.319884435,-0.19811961
1764764603.6508205,-3.72344,1.08346,0.42728,-0.919003995,0.319884435,-0.19811961
1764764603.6508205,-3.72344,1.08346,0.42728,-0.919003995,0.319884435,-0.19811961
1764764603.6508205,-3.72344,1.08346,0.42728,-0.919003995,0.319884435,-0.19811961
1764764603.6508205,-3.72344,1.08346,0.42728,-0.919003995,0.319884435,-0.19811961
1764764603.6508205,-3.72344,1.08346,0.42728,-0.919003995,0.319884435,-0.19811961
1764764603.6508205,-3.72344,1.08346,0.42728,-0.919003995,0.319884435,-0.19811961
1764764603.6508205,-3.72344,1.08346,0.42728,-0.919003995,0.319884435,-0.19811961
1764764603.6508205,-3.21986,0.96138,0.73248,-0.9216285,0.32189859,-0.19860789
1764764603.6508205,-3.21986,0.96138,0.73248,-0.9216285,0.32189859,-0.19860789
1764764603.6508205,-3.21986,0.96138,0.73248,-0.9216285,0.32189859,-0.19860789
1764764603.6508205,-3.21986,0.96138,0.73248,-0.9216285,0.32189859,-0.19860789
1764764603.6508205,-3.21986,0.96138,0.73248,-0.9216285,0.32189859,-0.19860789
1764764603.6508205,-3.21986,0.96138,0.73248,-0.9216285,0.32189859,-0.19860789
1764764603.6508205,-3.21986,0.96138,0.73248,-0.9216285,0.32189859,-0.19860789
1764764603.6508205,-3.21986,0.96138,0.73248,-0.9216285,0.32189859,-0.19860789
1764764603.6518295,-3.21986,0.96138,0.73248,-0.9216285,0.32189859,-0.19860789
1764764603.6518295,-3.21986,0.96138,0.73248,-0.9216285,0.32189859,-0.19860789
1764764603.6518295,-3.95234,0.5341,0.6103999999999999,-0.92138436,0.32421792,-0.199035135
1764764603.6518295,-3.95234,0.5341,0.6103999999999999,-0.92138436,0.32421792,-0.199035135
1764764603.6982498,-3.95234,0.5341,0.6103999999999999,-0.92138436,0.32421792,-0.199035135
1764764603.6982498,-3.95234,0.5341,0.6103999999999999,-0.92138436,0.32421792,-0.199035135
1764764603.6982498,-3.95234,0.5341,0.6103999999999999,-0.92138436,0.32421792,-0.199035135
1764764603.6982498,-3.95234,0.5341,0.6103999999999999,-0.92138436,0.32421792,-0.199035135
1764764603.6982498,-3.95234,0.5341,0.6103999999999999,-0.92138436,0.32421792,-0.199035135
1764764603.6982498,-3.95234,0.5341,0.6103999999999999,-0.92138436,0.32421792,-0.199035135
1764764603.6982498,-3.95234,0.5341,0.6103999999999999,-0.92138436,0.32421792,-0.199035135
1764764603.6982498,-3.95234,0.5341,0.6103999999999999,-0.92138436,0.32421792,-0.199035135
1764764603.6982498,-2.92992,0.7019599999999999,0.48832,-0.919980555,0.3234855,-0.199401345
1764764603.6982498,-2.92992,0.7019599999999999,0.48832,-0.919980555,0.3234855,-0.199401345
1764764603.6982498,-2.92992,0.7019599999999999,0.48832,-0.919980555,0.3234855,-0.199401345
1764764603.6982498,-2.92992,0.7019599999999999,0.48832,-0.919980555,0.3234855,-0.199401345
1764764603.6982498,-2.92992,0.7019599999999999,0.48832,-0.919980555,0.3234855,-0.199401345
1764764603.6982498,-2.92992,0.7019599999999999,0.48832,-0.919980555,0.3234855,-0.199401345
1764764603.6982498,-2.92992,0.7019599999999999,0.48832,-0.919980555,0.3234855,-0.199401345
1764764603.6982498,-2.92992,0.7019599999999999,0.48832,-0.919980555,0.3234855,-0.199401345
1764764603.6982498,-2.92992,0.7019599999999999,0.48832,-0.919980555,0.3234855,-0.199401345
1764764603.6982498,-2.92992,0.7019599999999999,0.48832,-0.919980555,0.3234855,-0.199401345
1764764603.6982498,-1.86172,0.50358,-0.06104,-0.917661225,0.321105135,-0.200133765
1764764603.6982498,-1.86172,0.50358,-0.06104,-0.917661225,0.321105135,-0.200133765
1764764603.6982498,-1.86172,0.50358,-0.06104,-0.917661225,0.321105135,-0.200133765
1764764603.6982498,-1.86172,0.50358,-0.06104,-0.917661225,0.321105135,-0.200133765
1764764603.7451282,-1.86172,0.50358,-0.06104,-0.917661225,0.321105135,-0.200133765
1764764603.7451282,-1.86172,0.50358,-0.06104,-0.917661225,0.321105135,-0.200133765
1764764603.7451282,-1.86172,0.50358,-0.06104,-0.917661225,0.321105135,-0.200133765
1764764603.7461405,-1.86172,0.50358,-0.06104,-0.917661225,0.321105135,-0.200133765
1764764603.7461405,-1.86172,0.50358,-0.06104,-0.917661225,0.321105135,-0.200133765
1764764603.7461405,-1.86172,0.50358,-0.06104,-0.917661225,0.321105135,-0.200133765
1764764603.7461405,-4.56274,1.64808,0.41202,-0.91723398,0.32153238,-0.200377905
1764764603.7461405,-4.56274,1.64808,0.41202,-0.91723398,0.32153238,-0.200377905
1764764603.7461405,-4.56274,1.64808,0.41202,-0.91723398,0.32153238,-0.200377905
1764764603.7461405,-4.56274,1.64808,0.41202,-0.91723398,0.32153238,-0.200377905
1764764603.7461405,-4.56274,1.64808,0.41202,-0.91723398,0.32153238,-0.200377905
1764764603.7461405,-4.56274,1.64808,0.41202,-0.91723398,0.32153238,-0.200377905
1764764603.7461405,-4.56274,1.64808,0.41202,-0.91723398,0.32153238,-0.200377905
1764764603.7461405,-4.56274,1.64808,0.41202,-0.91723398,0.32153238,-0.200377905
1764764603.7461405,-4.56274,1.64808,0.41202,-0.91723398,0.32153238,-0.200377905
1764764603.7461405,-4.56274,1.64808,0.41202,-0.91723398,0.32153238,-0.200377905
1764764603.7461405,-4.715339999999999,1.43444,0.51884,-0.91772226,0.323668605,-0.200133765
1764764603.7461405,-4.715339999999999,1.43444,0.51884,-0.91772226,0.323668605,-0.200133765
1764764603.7461405,-4.715339999999999,1.43444,0.51884,-0.91772226,0.323668605,-0.200133765
1764764603.7461405,-4.715339999999999,1.43444,0.51884,-0.91772226,0.323668605,-0.200133765
1764764603.7461405,-4.715339999999999,1.43444,0.51884,-0.91772226,0.323668605,-0.200133765
1764764603.7461405,-4.715339999999999,1.43444,0.51884,-0.91772226,0.323668605,-0.200133765
1764764603.793166,-4.715339999999999,1.43444,0.51884,-0.91772226,0.323668605,-0.200133765
1764764603.793166,-4.715339999999999,1.43444,0.51884,-0.91772226,0.323668605,-0.200133765
1764764603.793166,-4.715339999999999,1.43444,0.51884,-0.91772226,0.323668605,-0.200133765
1764764603.793166,-4.715339999999999,1.43444,0.51884,-0.91772226,0.323668605,-0.200133765
1764764603.793166,-4.99002,1.84646,0.6103999999999999,-0.91821054,0.324034815,-0.19934031
1764764603.793166,-4.99002,1.84646,0.6103999999999999,-0.91821054,0.324034815,-0.19934031
1764764603.793166,-4.99002,1.84646,0.6103999999999999,-0.91821054,0.324034815,-0.19934031
1764764603.793166,-4.99002,1.84646,0.6103999999999999,-0.91821054,0.324034815,-0.19934031
1764764603.793166,-4.99002,1.84646,0.6103999999999999,-0.91821054,0.324034815,-0.19934031
1764764603.793166,-4.99002,1.84646,0.6103999999999999,-0.91821054,0.324034815,-0.19934031
1764764603.793166,-4.99002,1.84646,0.6103999999999999,-0.91821054,0.324034815,-0.19934031
1764764603.793166,-4.99002,1.84646,0.6103999999999999,-0.91821054,0.324034815,-0.19934031
1764764603.793166,-4.99002,1.84646,0.6103999999999999,-0.91821054,0.324034815,-0.19934031
1764764603.793166,-4.99002,1.84646,0.6103999999999999,-0.91821054,0.324034815,-0.19934031
1764764603.793166,-4.10494,1.11398,0.41202,-0.919614345,0.321227205,-0.198668925
1764764603.793166,-4.10494,1.11398,0.41202,-0.919614345,0.321227205,-0.198668925
1764764603.793166,-4.10494,1.11398,0.41202,-0.919614345,0.321227205,-0.198668925
1764764603.793166,-4.10494,1.11398,0.41202,-0.919614345,0.321227205,-0.198668925
1764764603.793166,-4.10494,1.11398,0.41202,-0.919614345,0.321227205,-0.198668925
1764764603.793166,-4.10494,1.11398,0.41202,-0.919614345,0.321227205,-0.198668925
1764764603.793166,-4.10494,1.11398,0.41202,-0.919614345,0.321227205,-0.198668925
1764764603.793166,-4.10494,1.11398,0.41202,-0.919614345,0.321227205,-0.198668925
1764764603.793166,-4.10494,1.11398,0.41202,-0.919614345,0.321227205,-0.198668925
1764764603.793166,-4.10494,1.11398,0.41202,-0.919614345,0.321227205,-0.198668925
1764764603.8410764,-2.73154,0.71722,0.0,-0.919614345,0.319762365,-0.198913065
1764764603.8410764,-2.73154,0.71722,0.0,-0.919614345,0.319762365,-0.198913065
1764764603.8410764,-2.73154,0.71722,0.0,-0.919614345,0.319762365,-0.198913065
1764764603.8410764,-2.73154,0.71722,0.0,-0.919614345,0.319762365,-0.198913065
1764764603.8410764,-2.73154,0.71722,0.0,-0.919614345,0.319762365,-0.198913065
1764764603.8410764,-2.73154,0.71722,0.0,-0.919614345,0.319762365,-0.198913065
1764764603.8410764,-2.73154,0.71722,0.0,-0.919614345,0.319762365,-0.198913065
1764764603.8410764,-2.73154,0.71722,0.0,-0.919614345,0.319762365,-0.198913065
1764764603.8410764,-2.73154,0.71722,0.0,-0.919614345,0.319762365,-0.198913065
1764764603.8410764,-2.73154,0.71722,0.0,-0.919614345,0.319762365,-0.198913065
1764764603.8410764,-3.17408,0.96138,0.1678599999999999,-0.91991952,0.320250645,-0.20031687
1764764603.8410764,-3.17408,0.96138,0.1678599999999999,-0.91991952,0.320250645,-0.20031687
1764764603.8410764,-3.17408,0.96138,0.1678599999999999,-0.91991952,0.320250645,-0.20031687
1764764603.8410764,-3.17408,0.96138,0.1678599999999999,-0.91991952,0.320250645,-0.20031687
1764764603.8410764,-3.17408,0.96138,0.1678599999999999,-0.91991952,0.320250645,-0.20031687
1764764603.8410764,-3.17408,0.96138,0.1678599999999999,-0.91991952,0.320250645,-0.20031687
1764764603.8410764,-3.17408,0.96138,0.1678599999999999,-0.91991952,0.320250645,-0.20031687
1764764603.8410764,-3.17408,0.96138,0.1678599999999999,-0.91991952,0.320250645,-0.20031687
1764764603.8410764,-3.17408,0.96138,0.1678599999999999,-0.91991952,0.320250645,-0.20031687
1764764603.8410764,-3.17408,0.96138,0.1678599999999999,-0.91991952,0.320250645,-0.20031687
1764764603.8410764,-4.07442,1.28184,0.44254,-0.919492275,0.32177652,-0.201964815
1764764603.8410764,-4.07442,1.28184,0.44254,-0.919492275,0.32177652,-0.201964815
1764764603.8410764,-4.07442,1.28184,0.44254,-0.919492275,0.32177652,-0.201964815
1764764603.8410764,-4.07442,1.28184,0.44254,-0.919492275,0.32177652,-0.201964815
1764764603.8410764,-4.07442,1.28184,0.44254,-0.919492275,0.32177652,-0.201964815
1764764603.8410764,-4.07442,1.28184,0.44254,-0.919492275,0.32177652,-0.201964815
1764764603.8842497,-4.07442,1.28184,0.44254,-0.919492275,0.32177652,-0.201964815
1764764603.8842497,-4.07442,1.28184,0.44254,-0.919492275,0.32177652,-0.201964815
1764764603.8842497,-4.07442,1.28184,0.44254,-0.919492275,0.32177652,-0.201964815
1764764603.8842497,-4.07442,1.28184,0.44254,-0.919492275,0.32177652,-0.201964815
1764764603.8842497,-4.13546,1.00716,0.54936,-0.91955331,0.32324136,-0.200866185
1764764603.8842497,-4.13546,1.00716,0.54936,-0.91955331,0.32324136,-0.200866185
1764764603.8842497,-4.13546,1.00716,0.54936,-0.91955331,0.32324136,-0.200866185
1764764603.8842497,-4.13546,1.00716,0.54936,-0.91955331,0.32324136,-0.200866185
1764764603.8842497,-4.13546,1.00716,0.54936,-0.91955331,0.32324136,-0.200866185
1764764603.8842497,-4.13546,1.00716,0.54936,-0.91955331,0.32324136,-0.200866185
1764764603.8842497,-4.13546,1.00716,0.54936,-0.91955331,0.32324136,-0.200866185
1764764603.8842497,-4.13546,1.00716,0.54936,-0.91955331,0.32324136,-0.200866185
1764764603.885808,-4.13546,1.00716,0.54936,-0.91955331,0.32324136,-0.200866185
1764764603.885808,-4.13546,1.00716,0.54936,-0.91955331,0.32324136,-0.200866185
1764764603.885808,-4.15072,0.82404,0.50358,-0.919614345,0.322569975,-0.200011695
1764764603.885808,-4.15072,0.82404,0.50358,-0.919614345,0.322569975,-0.200011695
1764764603.885808,-4.15072,0.82404,0.50358,-0.919614345,0.322569975,-0.200011695
1764764603.885808,-4.15072,0.82404,0.50358,-0.919614345,0.322569975,-0.200011695
1764764603.885808,-4.15072,0.82404,0.50358,-0.919614345,0.322569975,-0.200011695
1764764603.885808,-4.15072,0.82404,0.50358,-0.919614345,0.322569975,-0.200011695
1764764603.885808,-4.15072,0.82404,0.50358,-0.919614345,0.322569975,-0.200011695
1764764603.885808,-4.15072,0.82404,0.50358,-0.919614345,0.322569975,-0.200011695
1764764603.9334073,-4.15072,0.82404,0.50358,-0.919614345,0.322569975,-0.200011695
1764764603.9334073,-4.15072,0.82404,0.50358,-0.919614345,0.322569975,-0.200011695
1764764603.9334073,-3.79974,1.12924,0.57988,-0.919370205,0.321593415,-0.19982859
1764764603.9334073,-3.79974,1.12924,0.57988,-0.919370205,0.321593415,-0.19982859
1764764603.9334073,-3.79974,1.12924,0.57988,-0.919370205,0.321593415,-0.19982859
1764764603.9334073,-3.79974,1.12924,0.57988,-0.919370205,0.321593415,-0.19982859
1764764603.9334073,-3.79974,1.12924,0.57988,-0.919370205,0.321593415,-0.19982859
1764764603.9344077,-3.79974,1.12924,0.57988,-0.919370205,0.321593415,-0.19982859
1764764603.9344077,-3.79974,1.12924,0.57988,-0.919370205,0.321593415,-0.19982859
1764764603.9344077,-3.79974,1.12924,0.57988,-0.919370205,0.321593415,-0.19982859
1764764603.9344077,-3.79974,1.12924,0.57988,-0.919370205,0.321593415,-0.19982859
1764764603.9344077,-3.79974,1.12924,0.57988,-0.919370205,0.321593415,-0.19982859
1764764603.9344077,-4.16598,0.74774,0.85456,-0.91991952,0.32092203,-0.200866185
1764764603.9344077,-4.16598,0.74774,0.85456,-0.91991952,0.32092203,-0.200866185
1764764603.9344077,-4.16598,0.74774,0.85456,-0.91991952,0.32092203,-0.200866185
1764764603.9344077,-4.16598,0.74774,0.85456,-0.91991952,0.32092203,-0.200866185
1764764603.9344077,-4.16598,0.74774,0.85456,-0.91991952,0.32092203,-0.200866185
1764764603.9344077,-4.16598,0.74774,0.85456,-0.91991952,0.32092203,-0.200866185
1764764603.9344077,-4.16598,0.74774,0.85456,-0.91991952,0.32092203,-0.200866185
1764764603.9344077,-4.16598,0.74774,0.85456,-0.91991952,0.32092203,-0.200866185
1764764603.9344077,-4.16598,0.74774,0.85456,-0.91991952,0.32092203,-0.200866185
1764764603.9344077,-4.16598,0.74774,0.85456,-0.91991952,0.32092203,-0.200866185
1764764603.976436,-3.78448,1.38866,0.79352,-0.919980555,0.320860995,-0.200622045
1764764603.976436,-3.78448,1.38866,0.79352,-0.919980555,0.320860995,-0.200622045
1764764603.976436,-3.78448,1.38866,0.79352,-0.919980555,0.320860995,-0.200622045
1764764603.976436,-3.78448,1.38866,0.79352,-0.919980555,0.320860995,-0.200622045
1764764603.976436,-3.78448,1.38866,0.79352,-0.919980555,0.320860995,-0.200622045
1764764603.976436,-3.78448,1.38866,0.79352,-0.919980555,0.320860995,-0.200622045
1764764603.976436,-3.78448,1.38866,0.79352,-0.919980555,0.320860995,-0.200622045
1764764603.9769423,-3.78448,1.38866,0.79352,-0.919980555,0.320860995,-0.200622045
1764764603.9769423,-3.78448,1.38866,0.79352,-0.919980555,0.320860995,-0.200622045
1764764603.9769423,-3.78448,1.38866,0.79352,-0.919980555,0.320860995,-0.200622045
1764764603.9769423,-3.15882,0.6714399999999999,0.6409199999999999,-0.91967538,0.320860995,-0.200255835
1764764603.9769423,-3.15882,0.6714399999999999,0.6409199999999999,-0.91967538,0.320860995,-0.200255835
1764764603.9769423,-3.15882,0.6714399999999999,0.6409199999999999,-0.91967538,0.320860995,-0.200255835
1764764603.9769423,-3.15882,0.6714399999999999,0.6409199999999999,-0.91967538,0.320860995,-0.200255835
1764764603.9769423,-3.15882,0.6714399999999999,0.6409199999999999,-0.91967538,0.320860995,-0.200255835
1764764603.9769423,-3.15882,0.6714399999999999,0.6409199999999999,-0.91967538,0.320860995,-0.200255835
1764764603.9769423,-3.15882,0.6714399999999999,0.6409199999999999,-0.91967538,0.320860995,-0.200255835
1764764603.9769423,-3.15882,0.6714399999999999,0.6409199999999999,-0.91967538,0.320860995,-0.200255835
1764764603.9769423,-3.15882,0.6714399999999999,0.6409199999999999,-0.91967538,0.320860995,-0.200255835
1764764603.9769423,-3.15882,0.6714399999999999,0.6409199999999999,-0.91967538,0.320860995,-0.200255835
1764764603.9769423,-2.5942,1.49548,0.79352,-0.919736415,0.32116617,-0.20068308
1764764603.9769423,-2.5942,1.49548,0.79352,-0.919736415,0.32116617,-0.20068308
1764764604.0238123,-2.5942,1.49548,0.79352,-0.919736415,0.32116617,-0.20068308
1764764604.0238123,-2.5942,1.49548,0.79352,-0.919736415,0.32116617,-0.20068308
1764764604.0238123,-2.5942,1.49548,0.79352,-0.919736415,0.32116617,-0.20068308
1764764604.0238123,-2.5942,1.49548,0.79352,-0.919736415,0.32116617,-0.20068308
1764764604.0238123,-2.5942,1.49548,0.79352,-0.919736415,0.32116617,-0.20068308
1764764604.0238123,-2.5942,1.49548,0.79352,-0.919736415,0.32116617,-0.20068308
1764764604.0238123,-2.5942,1.49548,0.79352,-0.919736415,0.32116617,-0.20068308
1764764604.0238123,-2.5942,1.49548,0.79352,-0.919736415,0.32116617,-0.20068308
1764764604.0238123,-4.63904,1.34288,1.2971,-0.91930917,0.32275308,-0.20080515
1764764604.0238123,-4.63904,1.34288,1.2971,-0.91930917,0.32275308,-0.20080515
1764764604.0238123,-4.63904,1.34288,1.2971,-0.91930917,0.32275308,-0.20080515
1764764604.0238123,-4.63904,1.34288,1.2971,-0.91930917,0.32275308,-0.20080515
1764764604.0238123,-4.63904,1.34288,1.2971,-0.91930917,0.32275308,-0.20080515
1764764604.0238123,-4.63904,1.34288,1.2971,-0.91930917,0.32275308,-0.20080515
1764764604.0243154,-4.63904,1.34288,1.2971,-0.91930917,0.32275308,-0.20080515
1764764604.0243154,-4.63904,1.34288,1.2971,-0.91930917,0.32275308,-0.20080515
1764764604.025364,-4.63904,1.34288,1.2971,-0.91930917,0.32275308,-0.20080515
1764764604.025364,-4.63904,1.34288,1.2971,-0.91930917,0.32275308,-0.20080515
1764764604.025364,-4.54748,1.31236,1.09872,-0.91979745,0.32433999,-0.199889625
1764764604.025364,-4.54748,1.31236,1.09872,-0.91979745,0.32433999,-0.199889625
1764764604.025364,-4.54748,1.31236,1.09872,-0.91979745,0.32433999,-0.199889625
1764764604.025364,-4.54748,1.31236,1.09872,-0.91979745,0.32433999,-0.199889625
1764764604.025364,-4.54748,1.31236,1.09872,-0.91979745,0.32433999,-0.199889625
1764764604.025364,-4.54748,1.31236,1.09872,-0.91979745,0.32433999,-0.199889625
1764764604.025364,-4.54748,1.31236,1.09872,-0.91979745,0.32433999,-0.199889625
1764764604.025364,-4.54748,1.31236,1.09872,-0.91979745,0.32433999,-0.199889625
1764764604.0716977,-4.54748,1.31236,1.09872,-0.91979745,0.32433999,-0.199889625
1764764604.0716977,-4.54748,1.31236,1.09872,-0.91979745,0.32433999,-0.199889625
1764764604.072204,-1.32762,0.19838,0.1525999999999999,-0.91979745,0.322203765,-0.20056101
1764764604.072204,-1.32762,0.19838,0.1525999999999999,-0.91979745,0.322203765,-0.20056101
1764764604.072204,-1.32762,0.19838,0.1525999999999999,-0.91979745,0.322203765,-0.20056101
1764764604.072204,-1.32762,0.19838,0.1525999999999999,-0.91979745,0.322203765,-0.20056101
1764764604.072204,-1.32762,0.19838,0.1525999999999999,-0.91979745,0.322203765,-0.20056101
1764764604.072204,-1.32762,0.19838,0.1525999999999999,-0.91979745,0.322203765,-0.20056101
1764764604.072204,-1.32762,0.19838,0.1525999999999999,-0.91979745,0.322203765,-0.20056101
1764764604.072204,-1.32762,0.19838,0.1525999999999999,-0.91979745,0.322203765,-0.20056101
1764764604.072204,-1.32762,0.19838,0.1525999999999999,-0.91979745,0.322203765,-0.20056101
1764764604.072204,-1.32762,0.19838,0.1525999999999999,-0.91979745,0.322203765,-0.20056101
1764764604.072204,-1.6022999999999998,1.51074,0.01526,-0.91711191,0.31896891,-0.20251413
1764764604.072204,-1.6022999999999998,1.51074,0.01526,-0.91711191,0.31896891,-0.20251413
1764764604.072204,-1.6022999999999998,1.51074,0.01526,-0.91711191,0.31896891,-0.20251413
1764764604.072204,-1.6022999999999998,1.51074,0.01526,-0.91711191,0.31896891,-0.20251413
1764764604.072204,-1.6022999999999998,1.51074,0.01526,-0.91711191,0.31896891,-0.20251413
1764764604.072204,-1.6022999999999998,1.51074,0.01526,-0.91711191,0.31896891,-0.20251413
1764764604.072204,-1.6022999999999998,1.51074,0.01526,-0.91711191,0.31896891,-0.20251413
1764764604.072204,-1.6022999999999998,1.51074,0.01526,-0.91711191,0.31896891,-0.20251413
1764764604.072204,-1.6022999999999998,1.51074,0.01526,-0.91711191,0.31896891,-0.20251413
1764764604.072204,-1.6022999999999998,1.51074,0.01526,-0.91711191,0.31896891,-0.20251413
1764764604.1147697,-3.93708,2.04484,0.93086,-0.91686777,0.32128824,-0.20288034
1764764604.1147697,-3.93708,2.04484,0.93086,-0.91686777,0.32128824,-0.20288034
1764764604.1147697,-3.93708,2.04484,0.93086,-0.91686777,0.32128824,-0.20288034
1764764604.1147697,-3.93708,2.04484,0.93086,-0.91686777,0.32128824,-0.20288034
1764764604.1147697,-3.93708,2.04484,0.93086,-0.91686777,0.32128824,-0.20288034
1764764604.1147697,-3.93708,2.04484,0.93086,-0.91686777,0.32128824,-0.20288034
1764764604.1147697,-3.93708,2.04484,0.93086,-0.91686777,0.32128824,-0.20288034
1764764604.1147697,-3.93708,2.04484,0.93086,-0.91686777,0.32128824,-0.20288034
1764764604.1147697,-3.93708,2.04484,0.93086,-0.91686777,0.32128824,-0.20288034
1764764604.1147697,-3.93708,2.04484,0.93086,-0.91686777,0.32128824,-0.20288034
1764764604.1147697,-4.59326,1.02242,1.61756,-0.9191871,0.32507241,-0.20214792
1764764604.115295,-4.59326,1.02242,1.61756,-0.9191871,0.32507241,-0.20214792
1764764604.115295,-4.59326,1.02242,1.61756,-0.9191871,0.32507241,-0.20214792
1764764604.115295,-4.59326,1.02242,1.61756,-0.9191871,0.32507241,-0.20214792
1764764604.115295,-4.59326,1.02242,1.61756,-0.9191871,0.32507241,-0.20214792
1764764604.115295,-4.59326,1.02242,1.61756,-0.9191871,0.32507241,-0.20214792
1764764604.115295,-4.59326,1.02242,1.61756,-0.9191871,0.32507241,-0.20214792
1764764604.115295,-4.59326,1.02242,1.61756,-0.9191871,0.32507241,-0.20214792
1764764604.115295,-4.59326,1.02242,1.61756,-0.9191871,0.32507241,-0.20214792
1764764604.115295,-4.59326,1.02242,1.61756,-0.9191871,0.32507241,-0.20214792
1764764604.115295,-2.7468,1.03768,0.2289,-0.919858485,0.32372964,-0.201720675
1764764604.115295,-2.7468,1.03768,0.2289,-0.919858485,0.32372964,-0.201720675
1764764604.1157987,-2.7468,1.03768,0.2289,-0.919858485,0.32372964,-0.201720675
1764764604.1157987,-2.7468,1.03768,0.2289,-0.919858485,0.32372964,-0.201720675
1764764604.1628227,-2.7468,1.03768,0.2289,-0.919858485,0.32372964,-0.201720675
1764764604.1628227,-2.7468,1.03768,0.2289,-0.919858485,0.32372964,-0.201720675
1764764604.1628227,-2.7468,1.03768,0.2289,-0.919858485,0.32372964,-0.201720675
1764764604.1628227,-2.7468,1.03768,0.2289,-0.919858485,0.32372964,-0.201720675
1764764604.1628227,-2.7468,1.03768,0.2289,-0.919858485,0.32372964,-0.201720675
1764764604.1628227,-2.7468,1.03768,0.2289,-0.919858485,0.32372964,-0.201720675
1764764604.1628227,-2.16692,0.8087799999999999,0.47306,-0.9191871,0.32177652,-0.20056101
1764764604.1628227,-2.16692,0.8087799999999999,0.47306,-0.9191871,0.32177652,-0.20056101
1764764604.1628227,-2.16692,0.8087799999999999,0.47306,-0.9191871,0.32177652,-0.20056101
1764764604.1628227,-2.16692,0.8087799999999999,0.47306,-0.9191871,0.32177652,-0.20056101
1764764604.1628227,-2.16692,0.8087799999999999,0.47306,-0.9191871,0.32177652,-0.20056101
1764764604.1628227,-2.16692,0.8087799999999999,0.47306,-0.9191871,0.32177652,-0.20056101
1764764604.1628227,-2.16692,0.8087799999999999,0.47306,-0.9191871,0.32177652,-0.20056101
1764764604.1628227,-2.16692,0.8087799999999999,0.47306,-0.9191871,0.32177652,-0.20056101
1764764604.1628227,-2.16692,0.8087799999999999,0.47306,-0.9191871,0.32177652,-0.20056101
1764764604.1628227,-2.16692,0.8087799999999999,0.47306,-0.9191871,0.32177652,-0.20056101
1764764604.1628227,-2.04484,1.51074,0.6867,-0.91760019,0.321105135,-0.200255835
1764764604.1628227,-2.04484,1.51074,0.6867,-0.91760019,0.321105135,-0.200255835
1764764604.1628227,-2.04484,1.51074,0.6867,-0.91760019,0.321105135,-0.200255835
1764764604.1628227,-2.04484,1.51074,0.6867,-0.91760019,0.321105135,-0.200255835
1764764604.1643517,-2.04484,1.51074,0.6867,-0.91760019,0.321105135,-0.200255835
1764764604.1643517,-2.04484,1.51074,0.6867,-0.91760019,0.321105135,-0.200255835
1764764604.1643517,-2.04484,1.51074,0.6867,-0.91760019,0.321105135,-0.200255835
1764764604.1643517,-2.04484,1.51074,0.6867,-0.91760019,0.321105135,-0.200255835
1764764604.2106488,-2.04484,1.51074,0.6867,-0.91760019,0.321105135,-0.200255835
1764764604.2106488,-2.04484,1.51074,0.6867,-0.91760019,0.321105135,-0.200255835
1764764604.2106488,-2.10588,2.63998,1.00716,-0.916196385,0.321105135,-0.200866185
1764764604.2106488,-2.10588,2.63998,1.00716,-0.916196385,0.321105135,-0.200866185
1764764604.2106488,-2.10588,2.63998,1.00716,-0.916196385,0.321105135,-0.200866185
1764764604.2106488,-2.10588,2.63998,1.00716,-0.916196385,0.321105135,-0.200866185
1764764604.2106488,-2.10588,2.63998,1.00716,-0.916196385,0.321105135,-0.200866185
1764764604.2106488,-2.10588,2.63998,1.00716,-0.916196385,0.321105135,-0.200866185
1764764604.2106488,-2.10588,2.63998,1.00716,-0.916196385,0.321105135,-0.200866185
1764764604.2106488,-2.10588,2.63998,1.00716,-0.916196385,0.321105135,-0.200866185
1764764604.2106488,-2.10588,2.63998,1.00716,-0.916196385,0.321105135,-0.200866185
1764764604.2106488,-2.10588,2.63998,1.00716,-0.916196385,0.321105135,-0.200866185
1764764604.2106488,-2.4416,1.96854,0.7019599999999999,-0.918393645,0.32189859,-0.2001948
1764764604.2106488,-2.4416,1.96854,0.7019599999999999,-0.918393645,0.32189859,-0.2001948
1764764604.2106488,-2.4416,1.96854,0.7019599999999999,-0.918393645,0.32189859,-0.2001948
1764764604.2106488,-2.4416,1.96854,0.7019599999999999,-0.918393645,0.32189859,-0.2001948
1764764604.2106488,-2.4416,1.96854,0.7019599999999999,-0.918393645,0.32189859,-0.2001948
1764764604.2106488,-2.4416,1.96854,0.7019599999999999,-0.918393645,0.32189859,-0.2001948
1764764604.2106488,-2.4416,1.96854,0.7019599999999999,-0.918393645,0.32189859,-0.2001948
1764764604.2106488,-2.4416,1.96854,0.7019599999999999,-0.918393645,0.32189859,-0.2001948
1764764604.25467,-2.4416,1.96854,0.7019599999999999,-0.918393645,0.32189859,-0.2001948
1764764604.25467,-2.4416,1.96854,0.7019599999999999,-0.918393645,0.32189859,-0.2001948
1764764604.25467,-1.96854,1.26658,0.04578,-0.91894296,0.321593415,-0.19982859
1764764604.25467,-1.96854,1.26658,0.04578,-0.91894296,0.321593415,-0.19982859
1764764604.25467,-1.96854,1.26658,0.04578,-0.91894296,0.321593415,-0.19982859
1764764604.25467,-1.96854,1.26658,0.04578,-0.91894296,0.321593415,-0.19982859
1764764604.25467,-1.96854,1.26658,0.04578,-0.91894296,0.321593415,-0.19982859
1764764604.25467,-1.96854,1.26658,0.04578,-0.91894296,0.321593415,-0.19982859
1764764604.2551975,-1.96854,1.26658,0.04578,-0.91894296,0.321593415,-0.19982859
1764764604.2551975,-1.96854,1.26658,0.04578,-0.91894296,0.321593415,-0.19982859
1764764604.2551975,-1.96854,1.26658,0.04578,-0.91894296,0.321593415,-0.19982859
1764764604.2551975,-1.96854,1.26658,0.04578,-0.91894296,0.321593415,-0.19982859
1764764604.2551975,-1.63282,1.09872,0.3509799999999999,-0.91906503,0.322081695,-0.20068308
1764764604.2551975,-1.63282,1.09872,0.3509799999999999,-0.91906503,0.322081695,-0.20068308
1764764604.2551975,-1.63282,1.09872,0.3509799999999999,-0.91906503,0.322081695,-0.20068308
1764764604.2551975,-1.63282,1.09872,0.3509799999999999,-0.91906503,0.322081695,-0.20068308
1764764604.2551975,-1.63282,1.09872,0.3509799999999999,-0.91906503,0.322081695,-0.20068308
1764764604.2551975,-1.63282,1.09872,0.3509799999999999,-0.91906503,0.322081695,-0.20068308
1764764604.2551975,-1.63282,1.09872,0.3509799999999999,-0.91906503,0.322081695,-0.20068308
1764764604.2551975,-1.63282,1.09872,0.3509799999999999,-0.91906503,0.322081695,-0.20068308
1764764604.2551975,-1.63282,1.09872,0.3509799999999999,-0.91906503,0.322081695,-0.20068308
1764764604.2551975,-1.63282,1.09872,0.3509799999999999,-0.91906503,0.322081695,-0.20068308
1764764604.2551975,-1.11398,0.96138,0.3357199999999999,-0.919492275,0.32263101,-0.202086885
1764764604.2551975,-1.11398,0.96138,0.3357199999999999,-0.919492275,0.32263101,-0.202086885
1764764604.2551975,-1.11398,0.96138,0.3357199999999999,-0.919492275,0.32263101,-0.202086885
1764764604.2551975,-1.11398,0.96138,0.3357199999999999,-0.919492275,0.32263101,-0.202086885
1764764604.3013003,-1.11398,0.96138,0.3357199999999999,-0.919492275,0.32263101,-0.202086885
1764764604.3013003,-1.11398,0.96138,0.3357199999999999,-0.919492275,0.32263101,-0.202086885
1764764604.3013003,-1.11398,0.96138,0.3357199999999999,-0.919492275,0.32263101,-0.202086885
1764764604.3013003,-1.11398,0.96138,0.3357199999999999,-0.919492275,0.32263101,-0.202086885
1764764604.3013003,-1.11398,0.96138,0.3357199999999999,-0.919492275,0.32263101,-0.202086885
1764764604.3013003,-1.11398,0.96138,0.3357199999999999,-0.919492275,0.32263101,-0.202086885
1764764604.3013003,-1.2055399999999998,1.41918,0.18312,-0.9191871,0.3222648,-0.203795865
1764764604.3013003,-1.2055399999999998,1.41918,0.18312,-0.9191871,0.3222648,-0.203795865
1764764604.3013003,-1.2055399999999998,1.41918,0.18312,-0.9191871,0.3222648,-0.203795865
1764764604.3013003,-1.2055399999999998,1.41918,0.18312,-0.9191871,0.3222648,-0.203795865
1764764604.3013003,-1.2055399999999998,1.41918,0.18312,-0.9191871,0.3222648,-0.203795865
1764764604.3013003,-1.2055399999999998,1.41918,0.18312,-0.9191871,0.3222648,-0.203795865
1764764604.3013003,-1.2055399999999998,1.41918,0.18312,-0.9191871,0.3222648,-0.203795865
1764764604.3013003,-1.2055399999999998,1.41918,0.18312,-0.9191871,0.3222648,-0.203795865
1764764604.3013003,-1.2055399999999998,1.41918,0.18312,-0.9191871,0.3222648,-0.203795865
1764764604.3013003,-1.2055399999999998,1.41918,0.18312,-0.9191871,0.3222648,-0.203795865
1764764604.3023202,-2.60946,2.16692,0.19838,-0.917417085,0.322569975,-0.20336862
1764764604.3023202,-2.60946,2.16692,0.19838,-0.917417085,0.322569975,-0.20336862
1764764604.3023202,-2.60946,2.16692,0.19838,-0.917417085,0.322569975,-0.20336862
1764764604.3023202,-2.60946,2.16692,0.19838,-0.917417085,0.322569975,-0.20336862
1764764604.3486044,-2.60946,2.16692,0.19838,-0.917417085,0.322569975,-0.20336862
1764764604.3486044,-2.60946,2.16692,0.19838,-0.917417085,0.322569975,-0.20336862
1764764604.3486044,-2.60946,2.16692,0.19838,-0.917417085,0.322569975,-0.20336862
1764764604.3486044,-2.60946,2.16692,0.19838,-0.917417085,0.322569975,-0.20336862
1764764604.3486044,-2.60946,2.16692,0.19838,-0.917417085,0.322569975,-0.20336862
1764764604.3486044,-2.60946,2.16692,0.19838,-0.917417085,0.322569975,-0.20336862
1764764604.3486044,-3.02148,2.09062,0.21364,-0.91833261,0.32311929,-0.202575165
1764764604.3486044,-3.02148,2.09062,0.21364,-0.91833261,0.32311929,-0.202575165
1764764604.3486044,-3.02148,2.09062,0.21364,-0.91833261,0.32311929,-0.202575165
1764764604.3486044,-3.02148,2.09062,0.21364,-0.91833261,0.32311929,-0.202575165
1764764604.3486044,-3.02148,2.09062,0.21364,-0.91833261,0.32311929,-0.202575165
1764764604.3486044,-3.02148,2.09062,0.21364,-0.91833261,0.32311929,-0.202575165
1764764604.3486044,-3.02148,2.09062,0.21364,-0.91833261,0.32311929,-0.202575165
1764764604.3486044,-3.02148,2.09062,0.21364,-0.91833261,0.32311929,-0.202575165
1764764604.3486044,-3.02148,2.09062,0.21364,-0.91833261,0.32311929,-0.202575165
1764764604.3486044,-3.02148,2.09062,0.21364,-0.91833261,0.32311929,-0.202575165
1764764604.3486044,-2.79258,1.57178,0.24416,-0.91845468,0.32189859,-0.20190378
1764764604.3486044,-2.79258,1.57178,0.24416,-0.91845468,0.32189859,-0.20190378
1764764604.3486044,-2.79258,1.57178,0.24416,-0.91845468,0.32189859,-0.20190378
1764764604.3486044,-2.79258,1.57178,0.24416,-0.91845468,0.32189859,-0.20190378
1764764604.3486044,-2.79258,1.57178,0.24416,-0.91845468,0.32189859,-0.20190378
1764764604.3486044,-2.79258,1.57178,0.24416,-0.91845468,0.32189859,-0.20190378
1764764604.3486044,-2.79258,1.57178,0.24416,-0.91845468,0.32189859,-0.20190378
1764764604.3486044,-2.79258,1.57178,0.24416,-0.91845468,0.32189859,-0.20190378
1764764604.3951,-2.79258,1.57178,0.24416,-0.91845468,0.32189859,-0.20190378
1764764604.3951,-2.79258,1.57178,0.24416,-0.91845468,0.32189859,-0.20190378
1764764604.3951,-2.27374,1.34288,0.3815,-0.918515715,0.320006505,-0.20288034
1764764604.3951,-2.27374,1.34288,0.3815,-0.918515715,0.320006505,-0.20288034
1764764604.3951,-2.27374,1.34288,0.3815,-0.918515715,0.320006505,-0.20288034
1764764604.3951,-2.27374,1.34288,0.3815,-0.918515715,0.320006505,-0.20288034
1764764604.3951,-2.27374,1.34288,0.3815,-0.918515715,0.320006505,-0.20288034
1764764604.3951,-2.27374,1.34288,0.3815,-0.918515715,0.320006505,-0.20288034
1764764604.3951,-2.27374,1.34288,0.3815,-0.918515715,0.320006505,-0.20288034
1764764604.3951,-2.27374,1.34288,0.3815,-0.918515715,0.320006505,-0.20288034
1764764604.3951,-2.27374,1.34288,0.3815,-0.918515715,0.320006505,-0.20288034
1764764604.3951,-2.27374,1.34288,0.3815,-0.918515715,0.320006505,-0.20288034
1764764604.3951,-2.04484,0.88508,-0.13734,-0.918515715,0.31933512,-0.203063445
1764764604.3951,-2.04484,0.88508,-0.13734,-0.918515715,0.31933512,-0.203063445
1764764604.3951,-2.04484,0.88508,-0.13734,-0.918515715,0.31933512,-0.203063445
1764764604.3951,-2.04484,0.88508,-0.13734,-0.918515715,0.31933512,-0.203063445
1764764604.3951,-2.04484,0.88508,-0.13734,-0.918515715,0.31933512,-0.203063445
1764764604.3951,-2.04484,0.88508,-0.13734,-0.918515715,0.31933512,-0.203063445
1764764604.3951,-2.04484,0.88508,-0.13734,-0.918515715,0.31933512,-0.203063445
1764764604.3951,-2.04484,0.88508,-0.13734,-0.918515715,0.31933512,-0.203063445
1764764604.3951,-2.04484,0.88508,-0.13734,-0.918515715,0.31933512,-0.203063445
1764764604.3951,-2.04484,0.88508,-0.13734,-0.918515715,0.31933512,-0.203063445
1764764604.3951,-2.25848,0.9156,-0.09156,-0.91821054,0.319762365,-0.203917935
1764764604.3951,-2.25848,0.9156,-0.09156,-0.91821054,0.319762365,-0.203917935
1764764604.4416118,-2.25848,0.9156,-0.09156,-0.91821054,0.319762365,-0.203917935
1764764604.4416118,-2.25848,0.9156,-0.09156,-0.91821054,0.319762365,-0.203917935
1764764604.4416118,-2.25848,0.9156,-0.09156,-0.91821054,0.319762365,-0.203917935
1764764604.4426312,-2.25848,0.9156,-0.09156,-0.91821054,0.319762365,-0.203917935
1764764604.4426312,-2.25848,0.9156,-0.09156,-0.91821054,0.319762365,-0.203917935
1764764604.4426312,-2.25848,0.9156,-0.09156,-0.91821054,0.319762365,-0.203917935
1764764604.4426312,-2.25848,0.9156,-0.09156,-0.91821054,0.319762365,-0.203917935
1764764604.4426312,-2.25848,0.9156,-0.09156,-0.91821054,0.319762365,-0.203917935
1764764604.4426312,-3.21986,1.05294,0.57988,-0.91857675,0.321715485,-0.204284145
1764764604.4426312,-3.21986,1.05294,0.57988,-0.91857675,0.321715485,-0.204284145
1764764604.4426312,-3.21986,1.05294,0.57988,-0.91857675,0.321715485,-0.204284145
1764764604.4426312,-3.21986,1.05294,0.57988,-0.91857675,0.321715485,-0.204284145
1764764604.4426312,-3.21986,1.05294,0.57988,-0.91857675,0.321715485,-0.204284145
1764764604.4426312,-3.21986,1.05294,0.57988,-0.91857675,0.321715485,-0.204284145
1764764604.4426312,-3.21986,1.05294,0.57988,-0.91857675,0.321715485,-0.204284145
1764764604.4426312,-3.21986,1.05294,0.57988,-0.91857675,0.321715485,-0.204284145
1764764604.4426312,-3.21986,1.05294,0.57988,-0.91857675,0.321715485,-0.204284145
1764764604.4426312,-3.21986,1.05294,0.57988,-0.91857675,0.321715485,-0.204284145
1764764604.4426312,-3.83026,1.09872,0.6103999999999999,-0.91906503,0.32287515,-0.20446725
1764764604.4426312,-3.83026,1.09872,0.6103999999999999,-0.91906503,0.32287515,-0.20446725
1764764604.4426312,-3.83026,1.09872,0.6103999999999999,-0.91906503,0.32287515,-0.20446725
1764764604.4426312,-3.83026,1.09872,0.6103999999999999,-0.91906503,0.32287515,-0.20446725
1764764604.489605,-3.83026,1.09872,0.6103999999999999,-0.91906503,0.32287515,-0.20446725
1764764604.489605,-3.83026,1.09872,0.6103999999999999,-0.91906503,0.32287515,-0.20446725
1764764604.489605,-3.83026,1.09872,0.6103999999999999,-0.91906503,0.32287515,-0.20446725
1764764604.489605,-3.83026,1.09872,0.6103999999999999,-0.91906503,0.32287515,-0.20446725
1764764604.489605,-3.83026,1.09872,0.6103999999999999,-0.91906503,0.32287515,-0.20446725
1764764604.489605,-3.83026,1.09872,0.6103999999999999,-0.91906503,0.32287515,-0.20446725
1764764604.489605,-3.00622,1.41918,0.51884,-0.9191871,0.321715485,-0.204162075
1764764604.489605,-3.00622,1.41918,0.51884,-0.9191871,0.321715485,-0.204162075
1764764604.489605,-3.00622,1.41918,0.51884,-0.9191871,0.321715485,-0.204162075
1764764604.489605,-3.00622,1.41918,0.51884,-0.9191871,0.321715485,-0.204162075
1764764604.489605,-3.00622,1.41918,0.51884,-0.9191871,0.321715485,-0.204162075
1764764604.489605,-3.00622,1.41918,0.51884,-0.9191871,0.321715485,-0.204162075
1764764604.489605,-3.00622,1.41918,0.51884,-0.9191871,0.321715485,-0.204162075
1764764604.489605,-3.00622,1.41918,0.51884,-0.9191871,0.321715485,-0.204162075
1764764604.489605,-3.00622,1.41918,0.51884,-0.9191871,0.321715485,-0.204162075
1764764604.489605,-3.00622,1.41918,0.51884,-0.9191871,0.321715485,-0.204162075
1764764604.489605,-2.86888,1.32762,0.47306,-0.91869882,0.320616855,-0.20312448
1764764604.489605,-2.86888,1.32762,0.47306,-0.91869882,0.320616855,-0.20312448
1764764604.489605,-2.86888,1.32762,0.47306,-0.91869882,0.320616855,-0.20312448
1764764604.489605,-2.86888,1.32762,0.47306,-0.91869882,0.320616855,-0.20312448
1764764604.489605,-2.86888,1.32762,0.47306,-0.91869882,0.320616855,-0.20312448
1764764604.489605,-2.86888,1.32762,0.47306,-0.91869882,0.320616855,-0.20312448
1764764604.489605,-2.86888,1.32762,0.47306,-0.91869882,0.320616855,-0.20312448
1764764604.489605,-2.86888,1.32762,0.47306,-0.91869882,0.320616855,-0.20312448
1764764604.5373025,-2.86888,1.32762,0.47306,-0.91869882,0.320616855,-0.20312448
1764764604.5373025,-2.86888,1.32762,0.47306,-0.91869882,0.320616855,-0.20312448
1764764604.5373025,-2.8994,1.61756,0.6714399999999999,-0.918149505,0.3210441,-0.203795865
1764764604.5373025,-2.8994,1.61756,0.6714399999999999,-0.918149505,0.3210441,-0.203795865
1764764604.5373025,-2.8994,1.61756,0.6714399999999999,-0.918149505,0.3210441,-0.203795865
1764764604.5373025,-2.8994,1.61756,0.6714399999999999,-0.918149505,0.3210441,-0.203795865
1764764604.5373025,-2.8994,1.61756,0.6714399999999999,-0.918149505,0.3210441,-0.203795865
1764764604.5373025,-2.8994,1.61756,0.6714399999999999,-0.918149505,0.3210441,-0.203795865
1764764604.5373025,-2.8994,1.61756,0.6714399999999999,-0.918149505,0.3210441,-0.203795865
1764764604.5373025,-2.8994,1.61756,0.6714399999999999,-0.918149505,0.3210441,-0.203795865
1764764604.5373025,-2.8994,1.61756,0.6714399999999999,-0.918149505,0.3210441,-0.203795865
1764764604.5373025,-2.8994,1.61756,0.6714399999999999,-0.918149505,0.3210441,-0.203795865
1764764604.5373025,-3.46402,1.28184,0.7019599999999999,-0.91808847,0.321837555,-0.20434518
1764764604.5373025,-3.46402,1.28184,0.7019599999999999,-0.91808847,0.321837555,-0.20434518
1764764604.5373025,-3.46402,1.28184,0.7019599999999999,-0.91808847,0.321837555,-0.20434518
1764764604.5373025,-3.46402,1.28184,0.7019599999999999,-0.91808847,0.321837555,-0.20434518
1764764604.5373025,-3.46402,1.28184,0.7019599999999999,-0.91808847,0.321837555,-0.20434518
1764764604.5373025,-3.46402,1.28184,0.7019599999999999,-0.91808847,0.321837555,-0.20434518
1764764604.5373025,-3.46402,1.28184,0.7019599999999999,-0.91808847,0.321837555,-0.20434518
1764764604.5373025,-3.46402,1.28184,0.7019599999999999,-0.91808847,0.321837555,-0.20434518
1764764604.5373025,-3.46402,1.28184,0.7019599999999999,-0.91808847,0.321837555,-0.20434518
1764764604.5373025,-3.46402,1.28184,0.7019599999999999,-0.91808847,0.321837555,-0.20434518
1764764604.5807867,-3.90656,1.19028,0.24416,-0.91845468,0.32116617,-0.203795865
1764764604.5807867,-3.90656,1.19028,0.24416,-0.91845468,0.32116617,-0.203795865
1764764604.5807867,-3.90656,1.19028,0.24416,-0.91845468,0.32116617,-0.203795865
1764764604.5807867,-3.90656,1.19028,0.24416,-0.91845468,0.32116617,-0.203795865
1764764604.5807867,-3.90656,1.19028,0.24416,-0.91845468,0.32116617,-0.203795865
1764764604.5807867,-3.90656,1.19028,0.24416,-0.91845468,0.32116617,-0.203795865
1764764604.5807867,-3.90656,1.19028,0.24416,-0.91845468,0.32116617,-0.203795865
1764764604.5807867,-3.90656,1.19028,0.24416,-0.91845468,0.32116617,-0.203795865
1764764604.5807867,-3.90656,1.19028,0.24416,-0.91845468,0.32116617,-0.203795865
1764764604.5807867,-3.90656,1.19028,0.24416,-0.91845468,0.32116617,-0.203795865
1764764604.5807867,-4.059159999999999,1.08346,0.0762999999999999,-0.917661225,0.320128575,-0.20300241
1764764604.5807867,-4.059159999999999,1.08346,0.0762999999999999,-0.917661225,0.320128575,-0.20300241
1764764604.5807867,-4.059159999999999,1.08346,0.0762999999999999,-0.917661225,0.320128575,-0.20300241
1764764604.5807867,-4.059159999999999,1.08346,0.0762999999999999,-0.917661225,0.320128575,-0.20300241
1764764604.5807867,-4.059159999999999,1.08346,0.0762999999999999,-0.917661225,0.320128575,-0.20300241
1764764604.5807867,-4.059159999999999,1.08346,0.0762999999999999,-0.917661225,0.320128575,-0.20300241
1764764604.5807867,-4.059159999999999,1.08346,0.0762999999999999,-0.917661225,0.320128575,-0.20300241
1764764604.5807867,-4.059159999999999,1.08346,0.0762999999999999,-0.917661225,0.320128575,-0.20300241
1764764604.5807867,-4.059159999999999,1.08346,0.0762999999999999,-0.917661225,0.320128575,-0.20300241
1764764604.5807867,-4.059159999999999,1.08346,0.0762999999999999,-0.917661225,0.320128575,-0.20300241
1764764604.5807867,-5.15788,1.02242,0.3204599999999999,-0.9179664,0.32006754,-0.202086885
1764764604.5807867,-5.15788,1.02242,0.3204599999999999,-0.9179664,0.32006754,-0.202086885
1764764604.5807867,-5.15788,1.02242,0.3204599999999999,-0.9179664,0.32006754,-0.202086885
1764764604.5807867,-5.15788,1.02242,0.3204599999999999,-0.9179664,0.32006754,-0.202086885
1764764604.627109,-5.15788,1.02242,0.3204599999999999,-0.9179664,0.32006754,-0.202086885
1764764604.627109,-5.15788,1.02242,0.3204599999999999,-0.9179664,0.32006754,-0.202086885
1764764604.627109,-5.15788,1.02242,0.3204599999999999,-0.9179664,0.32006754,-0.202086885
1764764604.627109,-5.15788,1.02242,0.3204599999999999,-0.9179664,0.32006754,-0.202086885
1764764604.627109,-5.15788,1.02242,0.3204599999999999,-0.9179664,0.32006754,-0.202086885
1764764604.627109,-5.15788,1.02242,0.3204599999999999,-0.9179664,0.32006754,-0.202086885
1764764604.627109,-3.67766,0.77826,0.39676,-0.920102625,0.32018961,-0.2026362
1764764604.627109,-3.67766,0.77826,0.39676,-0.920102625,0.32018961,-0.2026362
1764764604.6276238,-3.67766,0.77826,0.39676,-0.920102625,0.32018961,-0.2026362
1764764604.6276238,-3.67766,0.77826,0.39676,-0.920102625,0.32018961,-0.2026362
1764764604.6276238,-3.67766,0.77826,0.39676,-0.920102625,0.32018961,-0.2026362
1764764604.6276238,-3.67766,0.77826,0.39676,-0.920102625,0.32018961,-0.2026362
1764764604.6276238,-3.67766,0.77826,0.39676,-0.920102625,0.32018961,-0.2026362
1764764604.6276238,-3.67766,0.77826,0.39676,-0.920102625,0.32018961,-0.2026362
1764764604.6276238,-3.67766,0.77826,0.39676,-0.920102625,0.32018961,-0.2026362
1764764604.6276238,-3.67766,0.77826,0.39676,-0.920102625,0.32018961,-0.2026362
1764764604.6276238,-3.32668,0.65618,-0.1525999999999999,-0.918393645,0.319396155,-0.20361276
1764764604.6276238,-3.32668,0.65618,-0.1525999999999999,-0.918393645,0.319396155,-0.20361276
1764764604.6276238,-3.32668,0.65618,-0.1525999999999999,-0.918393645,0.319396155,-0.20361276
1764764604.6276238,-3.32668,0.65618,-0.1525999999999999,-0.918393645,0.319396155,-0.20361276
1764764604.6276238,-3.32668,0.65618,-0.1525999999999999,-0.918393645,0.319396155,-0.20361276
1764764604.6276238,-3.32668,0.65618,-0.1525999999999999,-0.918393645,0.319396155,-0.20361276
1764764604.6730688,-3.32668,0.65618,-0.1525999999999999,-0.918393645,0.319396155,-0.20361276
1764764604.6730688,-3.32668,0.65618,-0.1525999999999999,-0.918393645,0.319396155,-0.20361276
1764764604.6730688,-3.32668,0.65618,-0.1525999999999999,-0.918393645,0.319396155,-0.20361276
1764764604.6730688,-3.32668,0.65618,-0.1525999999999999,-0.918393645,0.319396155,-0.20361276
1764764604.6730688,-4.07442,0.73248,-0.44254,-0.91625742,0.31957926,-0.20434518
1764764604.6730688,-4.07442,0.73248,-0.44254,-0.91625742,0.31957926,-0.20434518
1764764604.6730688,-4.07442,0.73248,-0.44254,-0.91625742,0.31957926,-0.20434518
1764764604.6730688,-4.07442,0.73248,-0.44254,-0.91625742,0.31957926,-0.20434518
1764764604.6730688,-4.07442,0.73248,-0.44254,-0.91625742,0.31957926,-0.20434518
1764764604.6730688,-4.07442,0.73248,-0.44254,-0.91625742,0.31957926,-0.20434518
1764764604.6730688,-4.07442,0.73248,-0.44254,-0.91625742,0.31957926,-0.20434518
1764764604.6730688,-4.07442,0.73248,-0.44254,-0.91625742,0.31957926,-0.20434518
1764764604.6730688,-4.07442,0.73248,-0.44254,-0.91625742,0.31957926,-0.20434518
1764764604.6730688,-4.07442,0.73248,-0.44254,-0.91625742,0.31957926,-0.20434518
1764764604.674079,-5.24944,1.58704,0.94612,-0.9167457,0.321959625,-0.203185515
1764764604.674079,-5.24944,1.58704,0.94612,-0.9167457,0.321959625,-0.203185515
1764764604.674079,-5.24944,1.58704,0.94612,-0.9167457,0.321959625,-0.203185515
1764764604.674079,-5.24944,1.58704,0.94612,-0.9167457,0.321959625,-0.203185515
1764764604.674079,-5.24944,1.58704,0.94612,-0.9167457,0.321959625,-0.203185515
1764764604.674079,-5.24944,1.58704,0.94612,-0.9167457,0.321959625,-0.203185515
1764764604.674079,-5.24944,1.58704,0.94612,-0.9167457,0.321959625,-0.203185515
1764764604.674079,-5.24944,1.58704,0.94612,-0.9167457,0.321959625,-0.203185515
1764764604.674079,-5.24944,1.58704,0.94612,-0.9167457,0.321959625,-0.203185515
1764764604.674079,-5.24944,1.58704,0.94612,-0.9167457,0.321959625,-0.203185515
1764764604.674079,-3.86078,0.24416,0.96138,-0.92065194,0.321105135,-0.20483346
1764764604.674079,-3.86078,0.24416,0.96138,-0.92065194,0.321105135,-0.20483346
1764764604.721307,-3.86078,0.24416,0.96138,-0.92065194,0.321105135,-0.20483346
1764764604.721307,-3.86078,0.24416,0.96138,-0.92065194,0.321105135,-0.20483346
1764764604.721307,-3.86078,0.24416,0.96138,-0.92065194,0.321105135,-0.20483346
1764764604.721307,-3.86078,0.24416,0.96138,-0.92065194,0.321105135,-0.20483346
1764764604.721307,-3.86078,0.24416,0.96138,-0.92065194,0.321105135,-0.20483346
1764764604.721307,-3.86078,0.24416,0.96138,-0.92065194,0.321105135,-0.20483346
1764764604.721307,-3.86078,0.24416,0.96138,-0.92065194,0.321105135,-0.20483346
1764764604.721307,-3.86078,0.24416,0.96138,-0.92065194,0.321105135,-0.20483346
1764764604.721307,-2.10588,0.4578,-0.06104,-0.92101815,0.319518225,-0.204650355
1764764604.721307,-2.10588,0.4578,-0.06104,-0.92101815,0.319518225,-0.204650355
1764764604.721307,-2.10588,0.4578,-0.06104,-0.92101815,0.319518225,-0.204650355
1764764604.721307,-2.10588,0.4578,-0.06104,-0.92101815,0.319518225,-0.204650355
1764764604.721307,-2.10588,0.4578,-0.06104,-0.92101815,0.319518225,-0.204650355
1764764604.721307,-2.10588,0.4578,-0.06104,-0.92101815,0.319518225,-0.204650355
1764764604.721307,-2.10588,0.4578,-0.06104,-0.92101815,0.319518225,-0.204650355
1764764604.721307,-2.10588,0.4578,-0.06104,-0.92101815,0.319518225,-0.204650355
1764764604.721307,-2.10588,0.4578,-0.06104,-0.92101815,0.319518225,-0.204650355
1764764604.721307,-2.10588,0.4578,-0.06104,-0.92101815,0.319518225,-0.204650355
1764764604.721307,-3.2809,0.54936,0.44254,-0.91882089,0.31957926,-0.2038569
1764764604.721307,-3.2809,0.54936,0.44254,-0.91882089,0.31957926,-0.2038569
1764764604.721307,-3.2809,0.54936,0.44254,-0.91882089,0.31957926,-0.2038569
1764764604.721307,-3.2809,0.54936,0.44254,-0.91882089,0.31957926,-0.2038569
1764764604.721307,-3.2809,0.54936,0.44254,-0.91882089,0.31957926,-0.2038569
1764764604.721307,-3.2809,0.54936,0.44254,-0.91882089,0.31957926,-0.2038569
1764764604.7653425,-3.2809,0.54936,0.44254,-0.91882089,0.31957926,-0.2038569
1764764604.7658794,-3.2809,0.54936,0.44254,-0.91882089,0.31957926,-0.2038569
1764764604.767209,-3.2809,0.54936,0.44254,-0.91882089,0.31957926,-0.2038569
1764764604.767209,-3.2809,0.54936,0.44254,-0.91882089,0.31957926,-0.2038569
1764764604.767209,-5.1121,1.6786,0.50358,-0.915525,0.322081695,-0.20397897
1764764604.767209,-5.1121,1.6786,0.50358,-0.915525,0.322081695,-0.20397897
1764764604.767209,-5.1121,1.6786,0.50358,-0.915525,0.322081695,-0.20397897
1764764604.767209,-5.1121,1.6786,0.50358,-0.915525,0.322081695,-0.20397897
1764764604.767209,-5.1121,1.6786,0.50358,-0.915525,0.322081695,-0.20397897
1764764604.767209,-5.1121,1.6786,0.50358,-0.915525,0.322081695,-0.20397897
1764764604.767209,-5.1121,1.6786,0.50358,-0.915525,0.322081695,-0.20397897
1764764604.767209,-5.1121,1.6786,0.50358,-0.915525,0.322081695,-0.20397897
1764764604.767209,-5.1121,1.6786,0.50358,-0.915525,0.322081695,-0.20397897
1764764604.767209,-5.1121,1.6786,0.50358,-0.915525,0.322081695,-0.20397897
1764764604.767209,-5.32574,1.95328,0.24416,-0.91503672,0.321837555,-0.203307585
1764764604.767209,-5.32574,1.95328,0.24416,-0.91503672,0.321837555,-0.203307585
1764764604.767209,-5.32574,1.95328,0.24416,-0.91503672,0.321837555,-0.203307585
1764764604.767209,-5.32574,1.95328,0.24416,-0.91503672,0.321837555,-0.203307585
1764764604.767209,-5.32574,1.95328,0.24416,-0.91503672,0.321837555,-0.203307585
1764764604.7679198,-5.32574,1.95328,0.24416,-0.91503672,0.321837555,-0.203307585
1764764604.7679198,-5.32574,1.95328,0.24416,-0.91503672,0.321837555,-0.203307585
1764764604.7679198,-5.32574,1.95328,0.24416,-0.91503672,0.321837555,-0.203307585
1764764604.8140771,-5.32574,1.95328,0.24416,-0.91503672,0.321837555,-0.203307585
1764764604.8140771,-5.32574,1.95328,0.24416,-0.91503672,0.321837555,-0.203307585
1764764604.8140771,-5.14262,1.03768,0.25942,-0.91564707,0.32079996,-0.202453095
1764764604.8140771,-5.14262,1.03768,0.25942,-0.91564707,0.32079996,-0.202453095
1764764604.8140771,-5.14262,1.03768,0.25942,-0.91564707,0.32079996,-0.202453095
1764764604.8140771,-5.14262,1.03768,0.25942,-0.91564707,0.32079996,-0.202453095
1764764604.8140771,-5.14262,1.03768,0.25942,-0.91564707,0.32079996,-0.202453095
1764764604.8140771,-5.14262,1.03768,0.25942,-0.91564707,0.32079996,-0.202453095
1764764604.8140771,-5.14262,1.03768,0.25942,-0.91564707,0.32079996,-0.202453095
1764764604.8140771,-5.14262,1.03768,0.25942,-0.91564707,0.32079996,-0.202453095
1764764604.8140771,-5.14262,1.03768,0.25942,-0.91564707,0.32079996,-0.202453095
1764764604.8140771,-5.14262,1.03768,0.25942,-0.91564707,0.32079996,-0.202453095
1764764604.8140771,-3.90656,0.8698199999999999,0.01526,-0.91845468,0.319762365,-0.203673795
1764764604.8140771,-3.90656,0.8698199999999999,0.01526,-0.91845468,0.319762365,-0.203673795
1764764604.8140771,-3.90656,0.8698199999999999,0.01526,-0.91845468,0.319762365,-0.203673795
1764764604.8140771,-3.90656,0.8698199999999999,0.01526,-0.91845468,0.319762365,-0.203673795
1764764604.8140771,-3.90656,0.8698199999999999,0.01526,-0.91845468,0.319762365,-0.203673795
1764764604.8140771,-3.90656,0.8698199999999999,0.01526,-0.91845468,0.319762365,-0.203673795
1764764604.8140771,-3.90656,0.8698199999999999,0.01526,-0.91845468,0.319762365,-0.203673795
1764764604.8140771,-3.90656,0.8698199999999999,0.01526,-0.91845468,0.319762365,-0.203673795
1764764604.8140771,-3.90656,0.8698199999999999,0.01526,-0.91845468,0.319762365,-0.203673795
1764764604.8140771,-3.90656,0.8698199999999999,0.01526,-0.91845468,0.319762365,-0.203673795
1764764604.8607388,-3.90656,0.50358,0.3051999999999999,-0.92028573,0.32018961,-0.20373483
1764764604.8607388,-3.90656,0.50358,0.3051999999999999,-0.92028573,0.32018961,-0.20373483
1764764604.8607388,-3.90656,0.50358,0.3051999999999999,-0.92028573,0.32018961,-0.20373483
1764764604.8607388,-3.90656,0.50358,0.3051999999999999,-0.92028573,0.32018961,-0.20373483
1764764604.8607388,-3.90656,0.50358,0.3051999999999999,-0.92028573,0.32018961,-0.20373483
1764764604.8607388,-3.90656,0.50358,0.3051999999999999,-0.92028573,0.32018961,-0.20373483
1764764604.8607388,-3.90656,0.50358,0.3051999999999999,-0.92028573,0.32018961,-0.20373483
1764764604.8607388,-3.90656,0.50358,0.3051999999999999,-0.92028573,0.32018961,-0.20373483
1764764604.8607388,-3.90656,0.50358,0.3051999999999999,-0.92028573,0.32018961,-0.20373483
1764764604.8607388,-3.90656,0.50358,0.3051999999999999,-0.92028573,0.32018961,-0.20373483
1764764604.8607388,-2.71628,0.44254,0.28994,-0.92052987,0.321105135,-0.20361276
1764764604.8607388,-2.71628,0.44254,0.28994,-0.92052987,0.321105135,-0.20361276
1764764604.8607388,-2.71628,0.44254,0.28994,-0.92052987,0.321105135,-0.20361276
1764764604.8607388,-2.71628,0.44254,0.28994,-0.92052987,0.321105135,-0.20361276
1764764604.8607388,-2.71628,0.44254,0.28994,-0.92052987,0.321105135,-0.20361276
1764764604.8607388,-2.71628,0.44254,0.28994,-0.92052987,0.321105135,-0.20361276
1764764604.8607388,-2.71628,0.44254,0.28994,-0.92052987,0.321105135,-0.20361276
1764764604.8607388,-2.71628,0.44254,0.28994,-0.92052987,0.321105135,-0.20361276
1764764604.8607388,-2.71628,0.44254,0.28994,-0.92052987,0.321105135,-0.20361276
1764764604.8607388,-2.71628,0.44254,0.28994,-0.92052987,0.321105135,-0.20361276
1764764604.8607388,-3.87604,1.2055399999999998,-0.3357199999999999,-0.91857675,0.320250645,-0.204162075
1764764604.8607388,-3.87604,1.2055399999999998,-0.3357199999999999,-0.91857675,0.320250645,-0.204162075
1764764604.8607388,-3.87604,1.2055399999999998,-0.3357199999999999,-0.91857675,0.320250645,-0.204162075
1764764604.8607388,-3.87604,1.2055399999999998,-0.3357199999999999,-0.91857675,0.320250645,-0.204162075
1764764604.908012,-3.87604,1.2055399999999998,-0.3357199999999999,-0.91857675,0.320250645,-0.204162075
1764764604.908012,-3.87604,1.2055399999999998,-0.3357199999999999,-0.91857675,0.320250645,-0.204162075
1764764604.908012,-3.87604,1.2055399999999998,-0.3357199999999999,-0.91857675,0.320250645,-0.204162075
1764764604.909018,-3.87604,1.2055399999999998,-0.3357199999999999,-0.91857675,0.320250645,-0.204162075
1764764604.909018,-3.87604,1.2055399999999998,-0.3357199999999999,-0.91857675,0.320250645,-0.204162075
1764764604.909018,-3.87604,1.2055399999999998,-0.3357199999999999,-0.91857675,0.320250645,-0.204162075
1764764604.909018,-4.0439,0.79352,0.3815,-0.917050875,0.32006754,-0.20373483
1764764604.909018,-4.0439,0.79352,0.3815,-0.917050875,0.32006754,-0.20373483
1764764604.909018,-4.0439,0.79352,0.3815,-0.917050875,0.32006754,-0.20373483
1764764604.909018,-4.0439,0.79352,0.3815,-0.917050875,0.32006754,-0.20373483
1764764604.909018,-4.0439,0.79352,0.3815,-0.917050875,0.32006754,-0.20373483
1764764604.909018,-4.0439,0.79352,0.3815,-0.917050875,0.32006754,-0.20373483
1764764604.909018,-4.0439,0.79352,0.3815,-0.917050875,0.32006754,-0.20373483
1764764604.909018,-4.0439,0.79352,0.3815,-0.917050875,0.32006754,-0.20373483
1764764604.909018,-4.0439,0.79352,0.3815,-0.917050875,0.32006754,-0.20373483
1764764604.909018,-4.0439,0.79352,0.3815,-0.917050875,0.32006754,-0.20373483
1764764604.909018,-4.01338,0.41202,0.44254,-0.917539155,0.320128575,-0.20288034
1764764604.909018,-4.01338,0.41202,0.44254,-0.917539155,0.320128575,-0.20288034
1764764604.909018,-4.01338,0.41202,0.44254,-0.917539155,0.320128575,-0.20288034
1764764604.909018,-4.01338,0.41202,0.44254,-0.917539155,0.320128575,-0.20288034
1764764604.909018,-4.01338,0.41202,0.44254,-0.917539155,0.320128575,-0.20288034
1764764604.909018,-4.01338,0.41202,0.44254,-0.917539155,0.320128575,-0.20288034
1764764604.909018,-4.01338,0.41202,0.44254,-0.917539155,0.320128575,-0.20288034
1764764604.909018,-4.01338,0.41202,0.44254,-0.917539155,0.320128575,-0.20288034
1764764604.9527323,-4.01338,0.41202,0.44254,-0.917539155,0.320128575,-0.20288034
1764764604.9527323,-4.01338,0.41202,0.44254,-0.917539155,0.320128575,-0.20288034
1764764604.9527323,-3.2809,0.6409199999999999,0.9156,-0.91808847,0.319396155,-0.20275827
1764764604.9537373,-3.2809,0.6409199999999999,0.9156,-0.91808847,0.319396155,-0.20275827
1764764604.9537373,-3.2809,0.6409199999999999,0.9156,-0.91808847,0.319396155,-0.20275827
1764764604.9537373,-3.2809,0.6409199999999999,0.9156,-0.91808847,0.319396155,-0.20275827
1764764604.9537373,-3.2809,0.6409199999999999,0.9156,-0.91808847,0.319396155,-0.20275827
1764764604.9537373,-3.2809,0.6409199999999999,0.9156,-0.91808847,0.319396155,-0.20275827
1764764604.9537373,-3.2809,0.6409199999999999,0.9156,-0.91808847,0.319396155,-0.20275827
1764764604.9537373,-3.2809,0.6409199999999999,0.9156,-0.91808847,0.319396155,-0.20275827
1764764604.9537373,-3.2809,0.6409199999999999,0.9156,-0.91808847,0.319396155,-0.20275827
1764764604.9537373,-3.2809,0.6409199999999999,0.9156,-0.91808847,0.319396155,-0.20275827
1764764604.9537373,-2.9757,0.3204599999999999,0.74774,-0.91894296,0.319762365,-0.202819305
1764764604.9537373,-2.9757,0.3204599999999999,0.74774,-0.91894296,0.319762365,-0.202819305
1764764604.9537373,-2.9757,0.3204599999999999,0.74774,-0.91894296,0.319762365,-0.202819305
1764764604.9537373,-2.9757,0.3204599999999999,0.74774,-0.91894296,0.319762365,-0.202819305
1764764604.9537373,-2.9757,0.3204599999999999,0.74774,-0.91894296,0.319762365,-0.202819305
1764764604.9537373,-2.9757,0.3204599999999999,0.74774,-0.91894296,0.319762365,-0.202819305
1764764604.9537373,-2.9757,0.3204599999999999,0.74774,-0.91894296,0.319762365,-0.202819305
1764764604.9537373,-2.9757,0.3204599999999999,0.74774,-0.91894296,0.319762365,-0.202819305
1764764604.9537373,-2.9757,0.3204599999999999,0.74774,-0.91894296,0.319762365,-0.202819305
1764764604.9537373,-2.9757,0.3204599999999999,0.74774,-0.91894296,0.319762365,-0.202819305
1764764604.9987178,-2.86888,0.47306,0.3204599999999999,-0.91894296,0.320128575,-0.203063445
1764764604.9987178,-2.86888,0.47306,0.3204599999999999,-0.91894296,0.320128575,-0.203063445
1764764604.9987178,-2.86888,0.47306,0.3204599999999999,-0.91894296,0.320128575,-0.203063445
1764764604.9987178,-2.86888,0.47306,0.3204599999999999,-0.91894296,0.320128575,-0.203063445
1764764604.9987178,-2.86888,0.47306,0.3204599999999999,-0.91894296,0.320128575,-0.203063445
1764764604.9987178,-2.86888,0.47306,0.3204599999999999,-0.91894296,0.320128575,-0.203063445
1764764604.9987178,-2.86888,0.47306,0.3204599999999999,-0.91894296,0.320128575,-0.203063445
1764764604.9987178,-2.86888,0.47306,0.3204599999999999,-0.91894296,0.320128575,-0.203063445
1764764604.9987178,-2.86888,0.47306,0.3204599999999999,-0.91894296,0.320128575,-0.203063445
1764764604.9987178,-2.86888,0.47306,0.3204599999999999,-0.91894296,0.320128575,-0.203063445
1764764604.9987178,-3.26564,0.9156,0.51884,-0.918027435,0.32055582,-0.20422311
1764764604.9987178,-3.26564,0.9156,0.51884,-0.918027435,0.32055582,-0.20422311
1764764604.9987178,-3.26564,0.9156,0.51884,-0.918027435,0.32055582,-0.20422311
1764764604.9987178,-3.26564,0.9156,0.51884,-0.918027435,0.32055582,-0.20422311
1764764604.9987178,-3.26564,0.9156,0.51884,-0.918027435,0.32055582,-0.20422311
1764764604.9987178,-3.26564,0.9156,0.51884,-0.918027435,0.32055582,-0.20422311
1764764604.9987178,-3.26564,0.9156,0.51884,-0.918027435,0.32055582,-0.20422311
1764764604.9987178,-3.26564,0.9156,0.51884,-0.918027435,0.32055582,-0.20422311
1764764604.9987178,-3.26564,0.9156,0.51884,-0.918027435,0.32055582,-0.20422311
1764764604.9987178,-3.26564,0.9156,0.51884,-0.918027435,0.32055582,-0.20422311
1764764604.9987178,-4.37962,1.19028,0.57988,-0.91833261,0.32177652,-0.20519967
1764764604.9987178,-4.37962,1.19028,0.57988,-0.91833261,0.32177652,-0.20519967
1764764604.9987178,-4.37962,1.19028,0.57988,-0.91833261,0.32177652,-0.20519967
1764764604.9987178,-4.37962,1.19028,0.57988,-0.91833261,0.32177652,-0.20519967
1764764605.0448675,-4.37962,1.19028,0.57988,-0.91833261,0.32177652,-0.20519967
1764764605.0448675,-4.37962,1.19028,0.57988,-0.91833261,0.32177652,-0.20519967
1764764605.0448675,-4.37962,1.19028,0.57988,-0.91833261,0.32177652,-0.20519967
1764764605.0448675,-4.37962,1.19028,0.57988,-0.91833261,0.32177652,-0.20519967
1764764605.0448675,-4.37962,1.19028,0.57988,-0.91833261,0.32177652,-0.20519967
1764764605.0448675,-4.37962,1.19028,0.57988,-0.91833261,0.32177652,-0.20519967
1764764605.0448675,-5.38678,0.82404,0.3051999999999999,-0.91808847,0.32275308,-0.20568795
1764764605.0448675,-5.38678,0.82404,0.3051999999999999,-0.91808847,0.32275308,-0.20568795
1764764605.0448675,-5.38678,0.82404,0.3051999999999999,-0.91808847,0.32275308,-0.20568795
1764764605.0448675,-5.38678,0.82404,0.3051999999999999,-0.91808847,0.32275308,-0.20568795
1764764605.0448675,-5.38678,0.82404,0.3051999999999999,-0.91808847,0.32275308,-0.20568795
1764764605.0448675,-5.38678,0.82404,0.3051999999999999,-0.91808847,0.32275308,-0.20568795
1764764605.0448675,-5.38678,0.82404,0.3051999999999999,-0.91808847,0.32275308,-0.20568795
1764764605.0448675,-5.38678,0.82404,0.3051999999999999,-0.91808847,0.32275308,-0.20568795
1764764605.0448675,-5.38678,0.82404,0.3051999999999999,-0.91808847,0.32275308,-0.20568795
1764764605.0448675,-5.38678,0.82404,0.3051999999999999,-0.91808847,0.32275308,-0.20568795
1764764605.0448675,-6.11926,1.26658,-0.01526,-0.917783295,0.322692045,-0.20568795
1764764605.0448675,-6.11926,1.26658,-0.01526,-0.917783295,0.322692045,-0.20568795
1764764605.0448675,-6.11926,1.26658,-0.01526,-0.917783295,0.322692045,-0.20568795
1764764605.0462203,-6.11926,1.26658,-0.01526,-0.917783295,0.322692045,-0.20568795
1764764605.0462203,-6.11926,1.26658,-0.01526,-0.917783295,0.322692045,-0.20568795
1764764605.0462203,-6.11926,1.26658,-0.01526,-0.917783295,0.322692045,-0.20568795
1764764605.0462203,-6.11926,1.26658,-0.01526,-0.917783295,0.322692045,-0.20568795
1764764605.0462203,-6.11926,1.26658,-0.01526,-0.917783295,0.322692045,-0.20568795
1764764605.088882,-6.11926,1.26658,-0.01526,-0.917783295,0.322692045,-0.20568795
1764764605.088882,-6.11926,1.26658,-0.01526,-0.917783295,0.322692045,-0.20568795
1764764605.0893936,-5.82932,1.25132,0.47306,-0.91833261,0.3222648,-0.2038569
1764764605.0893936,-5.82932,1.25132,0.47306,-0.91833261,0.3222648,-0.2038569
1764764605.0893936,-5.82932,1.25132,0.47306,-0.91833261,0.3222648,-0.2038569
1764764605.0893936,-5.82932,1.25132,0.47306,-0.91833261,0.3222648,-0.2038569
1764764605.0893936,-5.82932,1.25132,0.47306,-0.91833261,0.3222648,-0.2038569
1764764605.0893936,-5.82932,1.25132,0.47306,-0.91833261,0.3222648,-0.2038569
1764764605.0893936,-5.82932,1.25132,0.47306,-0.91833261,0.3222648,-0.2038569
1764764605.0893936,-5.82932,1.25132,0.47306,-0.91833261,0.3222648,-0.2038569
1764764605.0893936,-5.82932,1.25132,0.47306,-0.91833261,0.3222648,-0.2038569
1764764605.0893936,-5.82932,1.25132,0.47306,-0.91833261,0.3222648,-0.2038569
1764764605.0893936,-6.39394,1.25132,0.6103999999999999,-0.91882089,0.321837555,-0.20422311
1764764605.0893936,-6.39394,1.25132,0.6103999999999999,-0.91882089,0.321837555,-0.20422311
1764764605.0893936,-6.39394,1.25132,0.6103999999999999,-0.91882089,0.321837555,-0.20422311
1764764605.0893936,-6.39394,1.25132,0.6103999999999999,-0.91882089,0.321837555,-0.20422311
1764764605.0893936,-6.39394,1.25132,0.6103999999999999,-0.91882089,0.321837555,-0.20422311
1764764605.0893936,-6.39394,1.25132,0.6103999999999999,-0.91882089,0.321837555,-0.20422311
1764764605.0893936,-6.39394,1.25132,0.6103999999999999,-0.91882089,0.321837555,-0.20422311
1764764605.0893936,-6.39394,1.25132,0.6103999999999999,-0.91882089,0.321837555,-0.20422311
1764764605.0893936,-6.39394,1.25132,0.6103999999999999,-0.91882089,0.321837555,-0.20422311
1764764605.0893936,-6.39394,1.25132,0.6103999999999999,-0.91882089,0.321837555,-0.20422311
1764764605.139101,-5.66146,1.32762,0.41202,-0.91882089,0.320860995,-0.20410104
1764764605.139101,-5.66146,1.32762,0.41202,-0.91882089,0.320860995,-0.20410104
1764764605.1396112,-5.66146,1.32762,0.41202,-0.91882089,0.320860995,-0.20410104
1764764605.1396112,-5.66146,1.32762,0.41202,-0.91882089,0.320860995,-0.20410104
1764764605.1396112,-5.66146,1.32762,0.41202,-0.91882089,0.320860995,-0.20410104
1764764605.1396112,-5.66146,1.32762,0.41202,-0.91882089,0.320860995,-0.20410104
1764764605.1396112,-5.66146,1.32762,0.41202,-0.91882089,0.320860995,-0.20410104
1764764605.1396112,-5.66146,1.32762,0.41202,-0.91882089,0.320860995,-0.20410104
1764764605.1396112,-5.66146,1.32762,0.41202,-0.91882089,0.320860995,-0.20410104
1764764605.1396112,-5.66146,1.32762,0.41202,-0.91882089,0.320860995,-0.20410104
1764764605.1396112,-6.42446,1.46496,0.27468,-0.918393645,0.32055582,-0.203551725
1764764605.1396112,-6.42446,1.46496,0.27468,-0.918393645,0.32055582,-0.203551725
1764764605.1396112,-6.42446,1.46496,0.27468,-0.918393645,0.32055582,-0.203551725
1764764605.1396112,-6.42446,1.46496,0.27468,-0.918393645,0.32055582,-0.203551725
1764764605.1396112,-6.42446,1.46496,0.27468,-0.918393645,0.32055582,-0.203551725
1764764605.1396112,-6.42446,1.46496,0.27468,-0.918393645,0.32055582,-0.203551725
1764764605.1396112,-6.42446,1.46496,0.27468,-0.918393645,0.32055582,-0.203551725
1764764605.1396112,-6.42446,1.46496,0.27468,-0.918393645,0.32055582,-0.203551725
1764764605.1396112,-6.42446,1.46496,0.27468,-0.918393645,0.32055582,-0.203551725
1764764605.1396112,-6.42446,1.46496,0.27468,-0.918393645,0.32055582,-0.203551725
1764764605.1396112,-7.782599999999999,1.51074,0.6409199999999999,-0.91833261,0.32238687,-0.20275827
1764764605.1396112,-7.782599999999999,1.51074,0.6409199999999999,-0.91833261,0.32238687,-0.20275827
1764764605.1826208,-7.782599999999999,1.51074,0.6409199999999999,-0.91833261,0.32238687,-0.20275827
1764764605.1826208,-7.782599999999999,1.51074,0.6409199999999999,-0.91833261,0.32238687,-0.20275827
1764764605.1826208,-7.782599999999999,1.51074,0.6409199999999999,-0.91833261,0.32238687,-0.20275827
1764764605.1826208,-7.782599999999999,1.51074,0.6409199999999999,-0.91833261,0.32238687,-0.20275827
1764764605.1826208,-7.782599999999999,1.51074,0.6409199999999999,-0.91833261,0.32238687,-0.20275827
1764764605.1826208,-7.782599999999999,1.51074,0.6409199999999999,-0.91833261,0.32238687,-0.20275827
1764764605.1826208,-7.782599999999999,1.51074,0.6409199999999999,-0.91833261,0.32238687,-0.20275827
1764764605.1826208,-7.782599999999999,1.51074,0.6409199999999999,-0.91833261,0.32238687,-0.20275827
1764764605.1826208,-6.165039999999999,0.36624,1.0682,-0.919126065,0.322447905,-0.202575165
1764764605.1826208,-6.165039999999999,0.36624,1.0682,-0.919126065,0.322447905,-0.202575165
1764764605.1831255,-6.165039999999999,0.36624,1.0682,-0.919126065,0.322447905,-0.202575165
1764764605.1831255,-6.165039999999999,0.36624,1.0682,-0.919126065,0.322447905,-0.202575165
1764764605.1831255,-6.165039999999999,0.36624,1.0682,-0.919126065,0.322447905,-0.202575165
1764764605.1831255,-6.165039999999999,0.36624,1.0682,-0.919126065,0.322447905,-0.202575165
1764764605.1831255,-6.165039999999999,0.36624,1.0682,-0.919126065,0.322447905,-0.202575165
1764764605.1831255,-6.165039999999999,0.36624,1.0682,-0.919126065,0.322447905,-0.202575165
1764764605.1831255,-6.165039999999999,0.36624,1.0682,-0.919126065,0.322447905,-0.202575165
1764764605.1831255,-6.165039999999999,0.36624,1.0682,-0.919126065,0.322447905,-0.202575165
1764764605.1831255,-4.959499999999999,0.8087799999999999,0.3357199999999999,-0.91882089,0.319762365,-0.20324655
1764764605.1831255,-4.959499999999999,0.8087799999999999,0.3357199999999999,-0.91882089,0.319762365,-0.20324655
1764764605.1831255,-4.959499999999999,0.8087799999999999,0.3357199999999999,-0.91882089,0.319762365,-0.20324655
1764764605.1831255,-4.959499999999999,0.8087799999999999,0.3357199999999999,-0.91882089,0.319762365,-0.20324655
1764764605.1831255,-4.959499999999999,0.8087799999999999,0.3357199999999999,-0.91882089,0.319762365,-0.20324655
1764764605.1831255,-4.959499999999999,0.8087799999999999,0.3357199999999999,-0.91882089,0.319762365,-0.20324655
1764764605.2299137,-4.959499999999999,0.8087799999999999,0.3357199999999999,-0.91882089,0.319762365,-0.20324655
1764764605.2299137,-4.959499999999999,0.8087799999999999,0.3357199999999999,-0.91882089,0.319762365,-0.20324655
1764764605.2299137,-4.959499999999999,0.8087799999999999,0.3357199999999999,-0.91882089,0.319762365,-0.20324655
1764764605.2299137,-4.959499999999999,0.8087799999999999,0.3357199999999999,-0.91882089,0.319762365,-0.20324655
1764764605.2299137,-5.371519999999999,0.62566,0.13734,-0.9179664,0.318785805,-0.202941375
1764764605.2299137,-5.371519999999999,0.62566,0.13734,-0.9179664,0.318785805,-0.202941375
1764764605.2304385,-5.371519999999999,0.62566,0.13734,-0.9179664,0.318785805,-0.202941375
1764764605.2304385,-5.371519999999999,0.62566,0.13734,-0.9179664,0.318785805,-0.202941375
1764764605.2304385,-5.371519999999999,0.62566,0.13734,-0.9179664,0.318785805,-0.202941375
1764764605.2304385,-5.371519999999999,0.62566,0.13734,-0.9179664,0.318785805,-0.202941375
1764764605.2304385,-5.371519999999999,0.62566,0.13734,-0.9179664,0.318785805,-0.202941375
1764764605.2304385,-5.371519999999999,0.62566,0.13734,-0.9179664,0.318785805,-0.202941375
1764764605.2304385,-5.371519999999999,0.62566,0.13734,-0.9179664,0.318785805,-0.202941375
1764764605.2304385,-5.371519999999999,0.62566,0.13734,-0.9179664,0.318785805,-0.202941375
1764764605.2304385,-6.958559999999999,0.59514,1.2971,-0.91930917,0.32177652,-0.20312448
1764764605.2304385,-6.958559999999999,0.59514,1.2971,-0.91930917,0.32177652,-0.20312448
1764764605.2304385,-6.958559999999999,0.59514,1.2971,-0.91930917,0.32177652,-0.20312448
1764764605.2304385,-6.958559999999999,0.59514,1.2971,-0.91930917,0.32177652,-0.20312448
1764764605.2304385,-6.958559999999999,0.59514,1.2971,-0.91930917,0.32177652,-0.20312448
1764764605.2304385,-6.958559999999999,0.59514,1.2971,-0.91930917,0.32177652,-0.20312448
1764764605.2304385,-6.958559999999999,0.59514,1.2971,-0.91930917,0.32177652,-0.20312448
1764764605.2304385,-6.958559999999999,0.59514,1.2971,-0.91930917,0.32177652,-0.20312448
1764764605.279864,-6.958559999999999,0.59514,1.2971,-0.91930917,0.32177652,-0.20312448
1764764605.279864,-6.958559999999999,0.59514,1.2971,-0.91930917,0.32177652,-0.20312448
1764764605.279864,-6.2566,-0.3509799999999999,0.88508,-0.92138436,0.322569975,-0.20336862
1764764605.279864,-6.2566,-0.3509799999999999,0.88508,-0.92138436,0.322569975,-0.20336862
1764764605.279864,-6.2566,-0.3509799999999999,0.88508,-0.92138436,0.322569975,-0.20336862
1764764605.279864,-6.2566,-0.3509799999999999,0.88508,-0.92138436,0.322569975,-0.20336862
1764764605.279864,-6.2566,-0.3509799999999999,0.88508,-0.92138436,0.322569975,-0.20336862
1764764605.279864,-6.2566,-0.3509799999999999,0.88508,-0.92138436,0.322569975,-0.20336862
1764764605.279864,-6.2566,-0.3509799999999999,0.88508,-0.92138436,0.322569975,-0.20336862
1764764605.279864,-6.2566,-0.3509799999999999,0.88508,-0.92138436,0.322569975,-0.20336862
1764764605.279864,-6.2566,-0.3509799999999999,0.88508,-0.92138436,0.322569975,-0.20336862
1764764605.279864,-6.2566,-0.3509799999999999,0.88508,-0.92138436,0.322569975,-0.20336862
1764764605.279864,-5.43256,0.12208,0.47306,-0.92101815,0.32079996,-0.20312448
1764764605.279864,-5.43256,0.12208,0.47306,-0.92101815,0.32079996,-0.20312448
1764764605.279864,-5.43256,0.12208,0.47306,-0.92101815,0.32079996,-0.20312448
1764764605.279864,-5.43256,0.12208,0.47306,-0.92101815,0.32079996,-0.20312448
1764764605.279864,-5.43256,0.12208,0.47306,-0.92101815,0.32079996,-0.20312448
1764764605.279864,-5.43256,0.12208,0.47306,-0.92101815,0.32079996,-0.20312448
1764764605.279864,-5.43256,0.12208,0.47306,-0.92101815,0.32079996,-0.20312448
1764764605.279864,-5.43256,0.12208,0.47306,-0.92101815,0.32079996,-0.20312448
1764764605.279864,-5.43256,0.12208,0.47306,-0.92101815,0.32079996,-0.20312448
1764764605.279864,-5.43256,0.12208,0.47306,-0.92101815,0.32079996,-0.20312448
1764764605.2808728,-4.852679999999999,0.19838,0.3815,-0.918759855,0.320006505,-0.20165964
1764764605.2808728,-4.852679999999999,0.19838,0.3815,-0.918759855,0.320006505,-0.20165964
1764764605.2808728,-4.852679999999999,0.19838,0.3815,-0.918759855,0.320006505,-0.20165964
1764764605.2808728,-4.852679999999999,0.19838,0.3815,-0.918759855,0.320006505,-0.20165964
1764764605.327435,-4.852679999999999,0.19838,0.3815,-0.918759855,0.320006505,-0.20165964
1764764605.327435,-4.852679999999999,0.19838,0.3815,-0.918759855,0.320006505,-0.20165964
1764764605.327435,-4.852679999999999,0.19838,0.3815,-0.918759855,0.320006505,-0.20165964
1764764605.327435,-4.852679999999999,0.19838,0.3815,-0.918759855,0.320006505,-0.20165964
1764764605.327435,-4.852679999999999,0.19838,0.3815,-0.918759855,0.320006505,-0.20165964
1764764605.327435,-4.852679999999999,0.19838,0.3815,-0.918759855,0.320006505,-0.20165964
1764764605.327435,-5.40204,0.8392999999999999,0.6103999999999999,-0.916562595,0.32006754,-0.201232395
1764764605.327435,-5.40204,0.8392999999999999,0.6103999999999999,-0.916562595,0.32006754,-0.201232395
1764764605.327435,-5.40204,0.8392999999999999,0.6103999999999999,-0.916562595,0.32006754,-0.201232395
1764764605.327435,-5.40204,0.8392999999999999,0.6103999999999999,-0.916562595,0.32006754,-0.201232395
1764764605.327435,-5.40204,0.8392999999999999,0.6103999999999999,-0.916562595,0.32006754,-0.201232395
1764764605.327435,-5.40204,0.8392999999999999,0.6103999999999999,-0.916562595,0.32006754,-0.201232395
1764764605.327435,-5.40204,0.8392999999999999,0.6103999999999999,-0.916562595,0.32006754,-0.201232395
1764764605.327435,-5.40204,0.8392999999999999,0.6103999999999999,-0.916562595,0.32006754,-0.201232395
1764764605.327435,-5.40204,0.8392999999999999,0.6103999999999999,-0.916562595,0.32006754,-0.201232395
1764764605.327435,-5.40204,0.8392999999999999,0.6103999999999999,-0.916562595,0.32006754,-0.201232395
1764764605.327435,-5.4173,1.11398,0.3357199999999999,-0.916928805,0.320494785,-0.20178171
1764764605.327435,-5.4173,1.11398,0.3357199999999999,-0.916928805,0.320494785,-0.20178171
1764764605.327435,-5.4173,1.11398,0.3357199999999999,-0.916928805,0.320494785,-0.20178171
1764764605.327435,-5.4173,1.11398,0.3357199999999999,-0.916928805,0.320494785,-0.20178171
1764764605.327435,-5.4173,1.11398,0.3357199999999999,-0.916928805,0.320494785,-0.20178171
1764764605.327435,-5.4173,1.11398,0.3357199999999999,-0.916928805,0.320494785,-0.20178171
1764764605.327435,-5.4173,1.11398,0.3357199999999999,-0.916928805,0.320494785,-0.20178171
1764764605.327435,-5.4173,1.11398,0.3357199999999999,-0.916928805,0.320494785,-0.20178171
1764764605.3748302,-5.4173,1.11398,0.3357199999999999,-0.916928805,0.320494785,-0.20178171
1764764605.3748302,-5.4173,1.11398,0.3357199999999999,-0.916928805,0.320494785,-0.20178171
1764764605.3748302,-5.38678,0.44254,-0.0762999999999999,-0.91845468,0.32043375,-0.202453095
1764764605.3748302,-5.38678,0.44254,-0.0762999999999999,-0.91845468,0.32043375,-0.202453095
1764764605.3748302,-5.38678,0.44254,-0.0762999999999999,-0.91845468,0.32043375,-0.202453095
1764764605.3748302,-5.38678,0.44254,-0.0762999999999999,-0.91845468,0.32043375,-0.202453095
1764764605.3748302,-5.38678,0.44254,-0.0762999999999999,-0.91845468,0.32043375,-0.202453095
1764764605.3748302,-5.38678,0.44254,-0.0762999999999999,-0.91845468,0.32043375,-0.202453095
1764764605.3748302,-5.38678,0.44254,-0.0762999999999999,-0.91845468,0.32043375,-0.202453095
1764764605.3748302,-5.38678,0.44254,-0.0762999999999999,-0.91845468,0.32043375,-0.202453095
1764764605.3748302,-5.38678,0.44254,-0.0762999999999999,-0.91845468,0.32043375,-0.202453095
1764764605.3748302,-5.38678,0.44254,-0.0762999999999999,-0.91845468,0.32043375,-0.202453095
1764764605.3748302,-4.92898,0.57988,0.3357199999999999,-0.919248135,0.32165445,-0.203185515
1764764605.3748302,-4.92898,0.57988,0.3357199999999999,-0.919248135,0.32165445,-0.203185515
1764764605.3748302,-4.92898,0.57988,0.3357199999999999,-0.919248135,0.32165445,-0.203185515
1764764605.3751993,-4.92898,0.57988,0.3357199999999999,-0.919248135,0.32165445,-0.203185515
1764764605.3751993,-4.92898,0.57988,0.3357199999999999,-0.919248135,0.32165445,-0.203185515
1764764605.3751993,-4.92898,0.57988,0.3357199999999999,-0.919248135,0.32165445,-0.203185515
1764764605.3751993,-4.92898,0.57988,0.3357199999999999,-0.919248135,0.32165445,-0.203185515
1764764605.3751993,-4.92898,0.57988,0.3357199999999999,-0.919248135,0.32165445,-0.203185515
1764764605.3751993,-4.92898,0.57988,0.3357199999999999,-0.919248135,0.32165445,-0.203185515
1764764605.3751993,-4.92898,0.57988,0.3357199999999999,-0.919248135,0.32165445,-0.203185515
1764764605.4221847,-5.508859999999999,0.8087799999999999,0.3204599999999999,-0.9191871,0.322081695,-0.20324655
1764764605.4221847,-5.508859999999999,0.8087799999999999,0.3204599999999999,-0.9191871,0.322081695,-0.20324655
1764764605.4221847,-5.508859999999999,0.8087799999999999,0.3204599999999999,-0.9191871,0.322081695,-0.20324655
1764764605.4221847,-5.508859999999999,0.8087799999999999,0.3204599999999999,-0.9191871,0.322081695,-0.20324655
1764764605.4221847,-5.508859999999999,0.8087799999999999,0.3204599999999999,-0.9191871,0.322081695,-0.20324655
1764764605.4221847,-5.508859999999999,0.8087799999999999,0.3204599999999999,-0.9191871,0.322081695,-0.20324655
1764764605.4221847,-5.508859999999999,0.8087799999999999,0.3204599999999999,-0.9191871,0.322081695,-0.20324655
1764764605.4221847,-5.508859999999999,0.8087799999999999,0.3204599999999999,-0.9191871,0.322081695,-0.20324655
1764764605.4221847,-5.508859999999999,0.8087799999999999,0.3204599999999999,-0.9191871,0.322081695,-0.20324655
1764764605.4221847,-5.508859999999999,0.8087799999999999,0.3204599999999999,-0.9191871,0.322081695,-0.20324655
1764764605.4221847,-3.60136,0.5341,0.42728,-0.919370205,0.32177652,-0.20336862
1764764605.4221847,-3.60136,0.5341,0.42728,-0.919370205,0.32177652,-0.20336862
1764764605.4221847,-3.60136,0.5341,0.42728,-0.919370205,0.32177652,-0.20336862
1764764605.4221847,-3.60136,0.5341,0.42728,-0.919370205,0.32177652,-0.20336862
1764764605.4221847,-3.60136,0.5341,0.42728,-0.919370205,0.32177652,-0.20336862
1764764605.4221847,-3.60136,0.5341,0.42728,-0.919370205,0.32177652,-0.20336862
1764764605.4221847,-3.60136,0.5341,0.42728,-0.919370205,0.32177652,-0.20336862
1764764605.4221847,-3.60136,0.5341,0.42728,-0.919370205,0.32177652,-0.20336862
1764764605.4221847,-3.60136,0.5341,0.42728,-0.919370205,0.32177652,-0.20336862
1764764605.4221847,-3.60136,0.5341,0.42728,-0.919370205,0.32177652,-0.20336862
1764764605.42318,-3.70818,1.12924,-0.1525999999999999,-0.91845468,0.32055582,-0.2026362
1764764605.42318,-3.70818,1.12924,-0.1525999999999999,-0.91845468,0.32055582,-0.2026362
1764764605.42318,-3.70818,1.12924,-0.1525999999999999,-0.91845468,0.32055582,-0.2026362
1764764605.42318,-3.70818,1.12924,-0.1525999999999999,-0.91845468,0.32055582,-0.2026362
1764764605.4656425,-3.70818,1.12924,-0.1525999999999999,-0.91845468,0.32055582,-0.2026362
1764764605.4656425,-3.70818,1.12924,-0.1525999999999999,-0.91845468,0.32055582,-0.2026362
1764764605.4656425,-3.70818,1.12924,-0.1525999999999999,-0.91845468,0.32055582,-0.2026362
1764764605.4656425,-3.70818,1.12924,-0.1525999999999999,-0.91845468,0.32055582,-0.2026362
1764764605.4656425,-3.70818,1.12924,-0.1525999999999999,-0.91845468,0.32055582,-0.2026362
1764764605.4656425,-3.70818,1.12924,-0.1525999999999999,-0.91845468,0.32055582,-0.2026362
1764764605.4656425,-5.32574,1.34288,0.48832,-0.91857675,0.32141031,-0.201720675
1764764605.4656425,-5.32574,1.34288,0.48832,-0.91857675,0.32141031,-0.201720675
1764764605.4656425,-5.32574,1.34288,0.48832,-0.91857675,0.32141031,-0.201720675
1764764605.4656425,-5.32574,1.34288,0.48832,-0.91857675,0.32141031,-0.201720675
1764764605.4656425,-5.32574,1.34288,0.48832,-0.91857675,0.32141031,-0.201720675
1764764605.4656425,-5.32574,1.34288,0.48832,-0.91857675,0.32141031,-0.201720675
1764764605.46692,-5.32574,1.34288,0.48832,-0.91857675,0.32141031,-0.201720675
1764764605.46692,-5.32574,1.34288,0.48832,-0.91857675,0.32141031,-0.201720675
1764764605.46692,-5.32574,1.34288,0.48832,-0.91857675,0.32141031,-0.201720675
1764764605.46692,-5.32574,1.34288,0.48832,-0.91857675,0.32141031,-0.201720675
1764764605.46692,-6.14978,1.51074,0.9003399999999999,-0.918637785,0.3222648,-0.20202585
1764764605.46692,-6.14978,1.51074,0.9003399999999999,-0.918637785,0.3222648,-0.20202585
1764764605.46692,-6.14978,1.51074,0.9003399999999999,-0.918637785,0.3222648,-0.20202585
1764764605.46692,-6.14978,1.51074,0.9003399999999999,-0.918637785,0.3222648,-0.20202585
1764764605.46692,-6.14978,1.51074,0.9003399999999999,-0.918637785,0.3222648,-0.20202585
1764764605.46692,-6.14978,1.51074,0.9003399999999999,-0.918637785,0.3222648,-0.20202585
1764764605.467425,-6.14978,1.51074,0.9003399999999999,-0.918637785,0.3222648,-0.20202585
1764764605.467425,-6.14978,1.51074,0.9003399999999999,-0.918637785,0.3222648,-0.20202585
1764764605.5135944,-6.14978,1.51074,0.9003399999999999,-0.918637785,0.3222648,-0.20202585
1764764605.5135944,-6.14978,1.51074,0.9003399999999999,-0.918637785,0.3222648,-0.20202585
1764764605.5135944,-5.8751,1.41918,0.73248,-0.91991952,0.32177652,-0.201720675
1764764605.5135944,-5.8751,1.41918,0.73248,-0.91991952,0.32177652,-0.201720675
1764764605.5135944,-5.8751,1.41918,0.73248,-0.91991952,0.32177652,-0.201720675
1764764605.5135944,-5.8751,1.41918,0.73248,-0.91991952,0.32177652,-0.201720675
1764764605.5135944,-5.8751,1.41918,0.73248,-0.91991952,0.32177652,-0.201720675
1764764605.5135944,-5.8751,1.41918,0.73248,-0.91991952,0.32177652,-0.201720675
1764764605.5135944,-5.8751,1.41918,0.73248,-0.91991952,0.32177652,-0.201720675
1764764605.5135944,-5.8751,1.41918,0.73248,-0.91991952,0.32177652,-0.201720675
1764764605.5135944,-5.8751,1.41918,0.73248,-0.91991952,0.32177652,-0.201720675
1764764605.5135944,-5.8751,1.41918,0.73248,-0.91991952,0.32177652,-0.201720675
1764764605.5135944,-4.25754,1.05294,0.44254,-0.91869882,0.3198234,-0.19995066
1764764605.5135944,-4.25754,1.05294,0.44254,-0.91869882,0.3198234,-0.19995066
1764764605.5135944,-4.25754,1.05294,0.44254,-0.91869882,0.3198234,-0.19995066
1764764605.5135944,-4.25754,1.05294,0.44254,-0.91869882,0.3198234,-0.19995066
1764764605.5135944,-4.25754,1.05294,0.44254,-0.91869882,0.3198234,-0.19995066
1764764605.5135944,-4.25754,1.05294,0.44254,-0.91869882,0.3198234,-0.19995066
1764764605.521075,-4.25754,1.05294,0.44254,-0.91869882,0.3198234,-0.19995066
1764764605.522077,-4.25754,1.05294,0.44254,-0.91869882,0.3198234,-0.19995066
1764764605.522077,-4.25754,1.05294,0.44254,-0.91869882,0.3198234,-0.19995066
1764764605.522077,-4.25754,1.05294,0.44254,-0.91869882,0.3198234,-0.19995066
1764764605.522077,-3.15882,1.38866,0.0762999999999999,-0.917905365,0.31994547,-0.200499975
1764764605.522077,-3.15882,1.38866,0.0762999999999999,-0.917905365,0.31994547,-0.200499975
1764764605.5613272,-3.15882,1.38866,0.0762999999999999,-0.917905365,0.31994547,-0.200499975
1764764605.5613272,-3.15882,1.38866,0.0762999999999999,-0.917905365,0.31994547,-0.200499975
1764764605.5613272,-3.15882,1.38866,0.0762999999999999,-0.917905365,0.31994547,-0.200499975
1764764605.5613272,-3.15882,1.38866,0.0762999999999999,-0.917905365,0.31994547,-0.200499975
1764764605.5613272,-3.15882,1.38866,0.0762999999999999,-0.917905365,0.31994547,-0.200499975
1764764605.5613272,-3.15882,1.38866,0.0762999999999999,-0.917905365,0.31994547,-0.200499975
1764764605.5613272,-3.15882,1.38866,0.0762999999999999,-0.917905365,0.31994547,-0.200499975
1764764605.5613272,-3.15882,1.38866,0.0762999999999999,-0.917905365,0.31994547,-0.200499975
1764764605.5613272,-3.63188,2.12114,0.44254,-0.91723398,0.320860995,-0.202208955
1764764605.5613272,-3.63188,2.12114,0.44254,-0.91723398,0.320860995,-0.202208955
1764764605.5613272,-3.63188,2.12114,0.44254,-0.91723398,0.320860995,-0.202208955
1764764605.5613272,-3.63188,2.12114,0.44254,-0.91723398,0.320860995,-0.202208955
1764764605.5613272,-3.63188,2.12114,0.44254,-0.91723398,0.320860995,-0.202208955
1764764605.5613272,-3.63188,2.12114,0.44254,-0.91723398,0.320860995,-0.202208955
1764764605.5613272,-3.63188,2.12114,0.44254,-0.91723398,0.320860995,-0.202208955
1764764605.5613272,-3.63188,2.12114,0.44254,-0.91723398,0.320860995,-0.202208955
1764764605.5613272,-3.63188,2.12114,0.44254,-0.91723398,0.320860995,-0.202208955
1764764605.5613272,-3.63188,2.12114,0.44254,-0.91723398,0.320860995,-0.202208955
1764764605.5613272,-4.715339999999999,2.0601,0.24416,-0.91735605,0.32250894,-0.20336862
1764764605.5613272,-4.715339999999999,2.0601,0.24416,-0.91735605,0.32250894,-0.20336862
1764764605.5613272,-4.715339999999999,2.0601,0.24416,-0.91735605,0.32250894,-0.20336862
1764764605.5613272,-4.715339999999999,2.0601,0.24416,-0.91735605,0.32250894,-0.20336862
1764764605.6069252,-4.715339999999999,2.0601,0.24416,-0.91735605,0.32250894,-0.20336862
1764764605.6069252,-4.715339999999999,2.0601,0.24416,-0.91735605,0.32250894,-0.20336862
1764764605.6069252,-4.715339999999999,2.0601,0.24416,-0.91735605,0.32250894,-0.20336862
1764764605.6069252,-4.715339999999999,2.0601,0.24416,-0.91735605,0.32250894,-0.20336862
1764764605.6069252,-4.715339999999999,2.0601,0.24416,-0.91735605,0.32250894,-0.20336862
1764764605.6069252,-4.715339999999999,2.0601,0.24416,-0.91735605,0.32250894,-0.20336862
1764764605.6069252,-4.89846,1.89224,-0.0762999999999999,-0.91735605,0.322447905,-0.20239206
1764764605.6069252,-4.89846,1.89224,-0.0762999999999999,-0.91735605,0.322447905,-0.20239206
1764764605.6079347,-4.89846,1.89224,-0.0762999999999999,-0.91735605,0.322447905,-0.20239206
1764764605.6079347,-4.89846,1.89224,-0.0762999999999999,-0.91735605,0.322447905,-0.20239206
1764764605.6079347,-4.89846,1.89224,-0.0762999999999999,-0.91735605,0.322447905,-0.20239206
1764764605.6079347,-4.89846,1.89224,-0.0762999999999999,-0.91735605,0.322447905,-0.20239206
1764764605.6079347,-4.89846,1.89224,-0.0762999999999999,-0.91735605,0.322447905,-0.20239206
1764764605.6079347,-4.89846,1.89224,-0.0762999999999999,-0.91735605,0.322447905,-0.20239206
1764764605.6079347,-4.89846,1.89224,-0.0762999999999999,-0.91735605,0.322447905,-0.20239206
1764764605.6079347,-4.89846,1.89224,-0.0762999999999999,-0.91735605,0.322447905,-0.20239206
1764764605.6079347,-4.51696,1.6022999999999998,-0.10682,-0.9179664,0.321715485,-0.20202585
1764764605.6079347,-4.51696,1.6022999999999998,-0.10682,-0.9179664,0.321715485,-0.20202585
1764764605.6079347,-4.51696,1.6022999999999998,-0.10682,-0.9179664,0.321715485,-0.20202585
1764764605.6079347,-4.51696,1.6022999999999998,-0.10682,-0.9179664,0.321715485,-0.20202585
1764764605.6089306,-4.51696,1.6022999999999998,-0.10682,-0.9179664,0.321715485,-0.20202585
1764764605.6089306,-4.51696,1.6022999999999998,-0.10682,-0.9179664,0.321715485,-0.20202585
1764764605.6089306,-4.51696,1.6022999999999998,-0.10682,-0.9179664,0.321715485,-0.20202585
1764764605.6089306,-4.51696,1.6022999999999998,-0.10682,-0.9179664,0.321715485,-0.20202585
1764764605.655749,-4.51696,1.6022999999999998,-0.10682,-0.9179664,0.321715485,-0.20202585
1764764605.655749,-4.51696,1.6022999999999998,-0.10682,-0.9179664,0.321715485,-0.20202585
1764764605.655749,-4.7306,1.41918,-0.10682,-0.918637785,0.32153238,-0.201842745
1764764605.655749,-4.7306,1.41918,-0.10682,-0.918637785,0.32153238,-0.201842745
1764764605.655749,-4.7306,1.41918,-0.10682,-0.918637785,0.32153238,-0.201842745
1764764605.655749,-4.7306,1.41918,-0.10682,-0.918637785,0.32153238,-0.201842745
1764764605.655749,-4.7306,1.41918,-0.10682,-0.918637785,0.32153238,-0.201842745
1764764605.655749,-4.7306,1.41918,-0.10682,-0.918637785,0.32153238,-0.201842745
1764764605.655749,-4.7306,1.41918,-0.10682,-0.918637785,0.32153238,-0.201842745
1764764605.655749,-4.7306,1.41918,-0.10682,-0.918637785,0.32153238,-0.201842745
1764764605.655749,-4.7306,1.41918,-0.10682,-0.918637785,0.32153238,-0.201842745
1764764605.655749,-4.7306,1.41918,-0.10682,-0.918637785,0.32153238,-0.201842745
1764764605.655749,-5.05106,1.54126,0.13734,-0.91955331,0.321715485,-0.20190378
1764764605.655749,-5.05106,1.54126,0.13734,-0.91955331,0.321715485,-0.20190378
1764764605.655749,-5.05106,1.54126,0.13734,-0.91955331,0.321715485,-0.20190378
1764764605.655749,-5.05106,1.54126,0.13734,-0.91955331,0.321715485,-0.20190378
1764764605.655749,-5.05106,1.54126,0.13734,-0.91955331,0.321715485,-0.20190378
1764764605.655749,-5.05106,1.54126,0.13734,-0.91955331,0.321715485,-0.20190378
1764764605.655749,-5.05106,1.54126,0.13734,-0.91955331,0.321715485,-0.20190378
1764764605.655749,-5.05106,1.54126,0.13734,-0.91955331,0.321715485,-0.20190378
1764764605.655749,-5.05106,1.54126,0.13734,-0.91955331,0.321715485,-0.20190378
1764764605.655749,-5.05106,1.54126,0.13734,-0.91955331,0.321715485,-0.20190378
1764764605.7021258,-5.08158,1.89224,-0.21364,-0.91955331,0.321227205,-0.201110325
1764764605.702643,-5.08158,1.89224,-0.21364,-0.91955331,0.321227205,-0.201110325
1764764605.702643,-5.08158,1.89224,-0.21364,-0.91955331,0.321227205,-0.201110325
1764764605.702643,-5.08158,1.89224,-0.21364,-0.91955331,0.321227205,-0.201110325
1764764605.702643,-5.08158,1.89224,-0.21364,-0.91955331,0.321227205,-0.201110325
1764764605.702643,-5.08158,1.89224,-0.21364,-0.91955331,0.321227205,-0.201110325
1764764605.702643,-5.08158,1.89224,-0.21364,-0.91955331,0.321227205,-0.201110325
1764764605.702643,-5.08158,1.89224,-0.21364,-0.91955331,0.321227205,-0.201110325
1764764605.702643,-5.08158,1.89224,-0.21364,-0.91955331,0.321227205,-0.201110325
1764764605.702643,-5.08158,1.89224,-0.21364,-0.91955331,0.321227205,-0.201110325
1764764605.702643,-4.89846,1.526,0.0,-0.91906503,0.320983065,-0.199889625
1764764605.702643,-4.89846,1.526,0.0,-0.91906503,0.320983065,-0.199889625
1764764605.702643,-4.89846,1.526,0.0,-0.91906503,0.320983065,-0.199889625
1764764605.702643,-4.89846,1.526,0.0,-0.91906503,0.320983065,-0.199889625
1764764605.702643,-4.89846,1.526,0.0,-0.91906503,0.320983065,-0.199889625
1764764605.702643,-4.89846,1.526,0.0,-0.91906503,0.320983065,-0.199889625
1764764605.702643,-4.89846,1.526,0.0,-0.91906503,0.320983065,-0.199889625
1764764605.702643,-4.89846,1.526,0.0,-0.91906503,0.320983065,-0.199889625
1764764605.702643,-4.89846,1.526,0.0,-0.91906503,0.320983065,-0.199889625
1764764605.702643,-4.89846,1.526,0.0,-0.91906503,0.320983065,-0.199889625
1764764605.702643,-6.37868,1.6022999999999998,0.5341,-0.91845468,0.321715485,-0.199523415
1764764605.702643,-6.37868,1.6022999999999998,0.5341,-0.91845468,0.321715485,-0.199523415
1764764605.702643,-6.37868,1.6022999999999998,0.5341,-0.91845468,0.321715485,-0.199523415
1764764605.702643,-6.37868,1.6022999999999998,0.5341,-0.91845468,0.321715485,-0.199523415
1764764605.702643,-6.37868,1.6022999999999998,0.5341,-0.91845468,0.321715485,-0.199523415
1764764605.702643,-6.37868,1.6022999999999998,0.5341,-0.91845468,0.321715485,-0.199523415
1764764605.749668,-6.37868,1.6022999999999998,0.5341,-0.91845468,0.321715485,-0.199523415
1764764605.749668,-6.37868,1.6022999999999998,0.5341,-0.91845468,0.321715485,-0.199523415
1764764605.749668,-6.37868,1.6022999999999998,0.5341,-0.91845468,0.321715485,-0.199523415
1764764605.7501757,-6.37868,1.6022999999999998,0.5341,-0.91845468,0.321715485,-0.199523415
1764764605.7501757,-5.58516,1.08346,1.25132,-0.920468835,0.32275308,-0.20056101
1764764605.7501757,-5.58516,1.08346,1.25132,-0.920468835,0.32275308,-0.20056101
1764764605.7501757,-5.58516,1.08346,1.25132,-0.920468835,0.32275308,-0.20056101
1764764605.7501757,-5.58516,1.08346,1.25132,-0.920468835,0.32275308,-0.20056101
1764764605.7501757,-5.58516,1.08346,1.25132,-0.920468835,0.32275308,-0.20056101
1764764605.7501757,-5.58516,1.08346,1.25132,-0.920468835,0.32275308,-0.20056101
1764764605.7501757,-5.58516,1.08346,1.25132,-0.920468835,0.32275308,-0.20056101
1764764605.7501757,-5.58516,1.08346,1.25132,-0.920468835,0.32275308,-0.20056101
1764764605.7501757,-5.58516,1.08346,1.25132,-0.920468835,0.32275308,-0.20056101
1764764605.7501757,-5.58516,1.08346,1.25132,-0.920468835,0.32275308,-0.20056101
1764764605.7501757,-3.23512,0.62566,1.1445,-0.9204078,0.321471345,-0.20288034
1764764605.7501757,-3.23512,0.62566,1.1445,-0.9204078,0.321471345,-0.20288034
1764764605.7501757,-3.23512,0.62566,1.1445,-0.9204078,0.321471345,-0.20288034
1764764605.7501757,-3.23512,0.62566,1.1445,-0.9204078,0.321471345,-0.20288034
1764764605.7501757,-3.23512,0.62566,1.1445,-0.9204078,0.321471345,-0.20288034
1764764605.7501757,-3.23512,0.62566,1.1445,-0.9204078,0.321471345,-0.20288034
1764764605.7501757,-3.23512,0.62566,1.1445,-0.9204078,0.321471345,-0.20288034
1764764605.7501757,-3.23512,0.62566,1.1445,-0.9204078,0.321471345,-0.20288034
1764764605.796832,-3.23512,0.62566,1.1445,-0.9204078,0.321471345,-0.20288034
1764764605.796832,-3.23512,0.62566,1.1445,-0.9204078,0.321471345,-0.20288034
1764764605.796832,-3.47928,2.2127,1.08346,-0.9179664,0.320006505,-0.203917935
1764764605.796832,-3.47928,2.2127,1.08346,-0.9179664,0.320006505,-0.203917935
1764764605.796832,-3.47928,2.2127,1.08346,-0.9179664,0.320006505,-0.203917935
1764764605.796832,-3.47928,2.2127,1.08346,-0.9179664,0.320006505,-0.203917935
1764764605.796832,-3.47928,2.2127,1.08346,-0.9179664,0.320006505,-0.203917935
1764764605.796832,-3.47928,2.2127,1.08346,-0.9179664,0.320006505,-0.203917935
1764764605.796832,-3.47928,2.2127,1.08346,-0.9179664,0.320006505,-0.203917935
1764764605.796832,-3.47928,2.2127,1.08346,-0.9179664,0.320006505,-0.203917935
1764764605.796832,-3.47928,2.2127,1.08346,-0.9179664,0.320006505,-0.203917935
1764764605.796832,-3.47928,2.2127,1.08346,-0.9179664,0.320006505,-0.203917935
1764764605.796832,-4.60852,2.88414,2.24322,-0.91979745,0.32287515,-0.203551725
1764764605.796832,-4.60852,2.88414,2.24322,-0.91979745,0.32287515,-0.203551725
1764764605.796832,-4.60852,2.88414,2.24322,-0.91979745,0.32287515,-0.203551725
1764764605.796832,-4.60852,2.88414,2.24322,-0.91979745,0.32287515,-0.203551725
1764764605.796832,-4.60852,2.88414,2.24322,-0.91979745,0.32287515,-0.203551725
1764764605.7978394,-4.60852,2.88414,2.24322,-0.91979745,0.32287515,-0.203551725
1764764605.7978394,-4.60852,2.88414,2.24322,-0.91979745,0.32287515,-0.203551725
1764764605.7978394,-4.60852,2.88414,2.24322,-0.91979745,0.32287515,-0.203551725
1764764605.7978394,-4.60852,2.88414,2.24322,-0.91979745,0.32287515,-0.203551725
1764764605.7978394,-4.60852,2.88414,2.24322,-0.91979745,0.32287515,-0.203551725
1764764605.8403423,-6.104,1.81594,2.88414,-0.921445395,0.325621725,-0.204040005
1764764605.8403423,-6.104,1.81594,2.88414,-0.921445395,0.325621725,-0.204040005
1764764605.8403423,-6.104,1.81594,2.88414,-0.921445395,0.325621725,-0.204040005
1764764605.8403423,-6.104,1.81594,2.88414,-0.921445395,0.325621725,-0.204040005
1764764605.8403423,-6.104,1.81594,2.88414,-0.921445395,0.325621725,-0.204040005
1764764605.8403423,-6.104,1.81594,2.88414,-0.921445395,0.325621725,-0.204040005
1764764605.8403423,-6.104,1.81594,2.88414,-0.921445395,0.325621725,-0.204040005
1764764605.8403423,-6.104,1.81594,2.88414,-0.921445395,0.325621725,-0.204040005
1764764605.8403423,-6.104,1.81594,2.88414,-0.921445395,0.325621725,-0.204040005
1764764605.8403423,-6.104,1.81594,2.88414,-0.921445395,0.325621725,-0.204040005
1764764605.8403423,-6.42446,1.51074,1.86172,-0.921323325,0.32507241,-0.204284145
1764764605.8403423,-6.42446,1.51074,1.86172,-0.921323325,0.32507241,-0.204284145
1764764605.8403423,-6.42446,1.51074,1.86172,-0.921323325,0.32507241,-0.204284145
1764764605.8403423,-6.42446,1.51074,1.86172,-0.921323325,0.32507241,-0.204284145
1764764605.8403423,-6.42446,1.51074,1.86172,-0.921323325,0.32507241,-0.204284145
1764764605.8403423,-6.42446,1.51074,1.86172,-0.921323325,0.32507241,-0.204284145
1764764605.8403423,-6.42446,1.51074,1.86172,-0.921323325,0.32507241,-0.204284145
1764764605.8403423,-6.42446,1.51074,1.86172,-0.921323325,0.32507241,-0.204284145
1764764605.8403423,-6.42446,1.51074,1.86172,-0.921323325,0.32507241,-0.204284145
1764764605.8403423,-6.42446,1.51074,1.86172,-0.921323325,0.32507241,-0.204284145
1764764605.8403423,-6.31764,1.1445,1.25132,-0.919248135,0.3234855,-0.20288034
1764764605.8403423,-6.31764,1.1445,1.25132,-0.919248135,0.3234855,-0.20288034
1764764605.8403423,-6.31764,1.1445,1.25132,-0.919248135,0.3234855,-0.20288034
1764764605.8413503,-6.31764,1.1445,1.25132,-0.919248135,0.3234855,-0.20288034
1764764605.8413503,-6.31764,1.1445,1.25132,-0.919248135,0.3234855,-0.20288034
1764764605.8413503,-6.31764,1.1445,1.25132,-0.919248135,0.3234855,-0.20288034
1764764605.8875322,-6.31764,1.1445,1.25132,-0.919248135,0.3234855,-0.20288034
1764764605.8875322,-6.31764,1.1445,1.25132,-0.919248135,0.3234855,-0.20288034
1764764605.8875322,-6.31764,1.1445,1.25132,-0.919248135,0.3234855,-0.20288034
1764764605.8875322,-6.31764,1.1445,1.25132,-0.919248135,0.3234855,-0.20288034
1764764605.8875322,-5.84458,1.6786,1.25132,-0.916684665,0.32177652,-0.202208955
1764764605.8875322,-5.84458,1.6786,1.25132,-0.916684665,0.32177652,-0.202208955
1764764605.8875322,-5.84458,1.6786,1.25132,-0.916684665,0.32177652,-0.202208955
1764764605.8875322,-5.84458,1.6786,1.25132,-0.916684665,0.32177652,-0.202208955
1764764605.8875322,-5.84458,1.6786,1.25132,-0.916684665,0.32177652,-0.202208955
1764764605.8875322,-5.84458,1.6786,1.25132,-0.916684665,0.32177652,-0.202208955
1764764605.8875322,-5.84458,1.6786,1.25132,-0.916684665,0.32177652,-0.202208955
1764764605.8875322,-5.84458,1.6786,1.25132,-0.916684665,0.32177652,-0.202208955
1764764605.8875322,-5.84458,1.6786,1.25132,-0.916684665,0.32177652,-0.202208955
1764764605.8875322,-5.84458,1.6786,1.25132,-0.916684665,0.32177652,-0.202208955
1764764605.8880594,-6.11926,2.289,1.87698,-0.91564707,0.322569975,-0.20275827
1764764605.8880594,-6.11926,2.289,1.87698,-0.91564707,0.322569975,-0.20275827
1764764605.8880594,-6.11926,2.289,1.87698,-0.91564707,0.322569975,-0.20275827
1764764605.8880594,-6.11926,2.289,1.87698,-0.91564707,0.322569975,-0.20275827
1764764605.8880594,-6.11926,2.289,1.87698,-0.91564707,0.322569975,-0.20275827
1764764605.8880594,-6.11926,2.289,1.87698,-0.91564707,0.322569975,-0.20275827
1764764605.8880594,-6.11926,2.289,1.87698,-0.91564707,0.322569975,-0.20275827
1764764605.8880594,-6.11926,2.289,1.87698,-0.91564707,0.322569975,-0.20275827
1764764605.9341686,-6.11926,2.289,1.87698,-0.91564707,0.322569975,-0.20275827
1764764605.9341686,-6.11926,2.289,1.87698,-0.91564707,0.322569975,-0.20275827
1764764605.9341686,-6.5618,1.4039199999999998,1.43444,-0.916928805,0.32372964,-0.202331025
1764764605.9341686,-6.5618,1.4039199999999998,1.43444,-0.916928805,0.32372964,-0.202331025
1764764605.9341686,-6.5618,1.4039199999999998,1.43444,-0.916928805,0.32372964,-0.202331025
1764764605.9341686,-6.5618,1.4039199999999998,1.43444,-0.916928805,0.32372964,-0.202331025
1764764605.9341686,-6.5618,1.4039199999999998,1.43444,-0.916928805,0.32372964,-0.202331025
1764764605.9341686,-6.5618,1.4039199999999998,1.43444,-0.916928805,0.32372964,-0.202331025
1764764605.9341686,-6.5618,1.4039199999999998,1.43444,-0.916928805,0.32372964,-0.202331025
1764764605.9341686,-6.5618,1.4039199999999998,1.43444,-0.916928805,0.32372964,-0.202331025
1764764605.9341686,-6.5618,1.4039199999999998,1.43444,-0.916928805,0.32372964,-0.202331025
1764764605.9346907,-6.5618,1.4039199999999998,1.43444,-0.916928805,0.32372964,-0.202331025
1764764605.9346907,-5.4936,0.8392999999999999,1.23606,-0.918515715,0.32360757,-0.20165964
1764764605.9346907,-5.4936,0.8392999999999999,1.23606,-0.918515715,0.32360757,-0.20165964
1764764605.9346907,-5.4936,0.8392999999999999,1.23606,-0.918515715,0.32360757,-0.20165964
1764764605.9346907,-5.4936,0.8392999999999999,1.23606,-0.918515715,0.32360757,-0.20165964
1764764605.9346907,-5.4936,0.8392999999999999,1.23606,-0.918515715,0.32360757,-0.20165964
1764764605.9346907,-5.4936,0.8392999999999999,1.23606,-0.918515715,0.32360757,-0.20165964
1764764605.9346907,-5.4936,0.8392999999999999,1.23606,-0.918515715,0.32360757,-0.20165964
1764764605.9346907,-5.4936,0.8392999999999999,1.23606,-0.918515715,0.32360757,-0.20165964
1764764605.9346907,-5.4936,0.8392999999999999,1.23606,-0.918515715,0.32360757,-0.20165964
1764764605.9346907,-5.4936,0.8392999999999999,1.23606,-0.918515715,0.32360757,-0.20165964
1764764605.9346907,-4.56274,0.6409199999999999,1.54126,-0.918515715,0.32299722,-0.201354465
1764764605.9346907,-4.56274,0.6409199999999999,1.54126,-0.918515715,0.32299722,-0.201354465
1764764605.980765,-4.56274,0.6409199999999999,1.54126,-0.918515715,0.32299722,-0.201354465
1764764605.9822965,-4.56274,0.6409199999999999,1.54126,-0.918515715,0.32299722,-0.201354465
1764764605.9822965,-4.56274,0.6409199999999999,1.54126,-0.918515715,0.32299722,-0.201354465
1764764605.9822965,-4.56274,0.6409199999999999,1.54126,-0.918515715,0.32299722,-0.201354465
1764764605.9822965,-4.56274,0.6409199999999999,1.54126,-0.918515715,0.32299722,-0.201354465
1764764605.9822965,-4.56274,0.6409199999999999,1.54126,-0.918515715,0.32299722,-0.201354465
1764764605.9822965,-4.56274,0.6409199999999999,1.54126,-0.918515715,0.32299722,-0.201354465
1764764605.9822965,-4.56274,0.6409199999999999,1.54126,-0.918515715,0.32299722,-0.201354465
1764764605.9822965,-3.44876,0.44254,1.2055399999999998,-0.918759855,0.322325835,-0.202331025
1764764605.9832964,-3.44876,0.44254,1.2055399999999998,-0.918759855,0.322325835,-0.202331025
1764764605.9832964,-3.44876,0.44254,1.2055399999999998,-0.918759855,0.322325835,-0.202331025
1764764605.9832964,-3.44876,0.44254,1.2055399999999998,-0.918759855,0.322325835,-0.202331025
1764764605.9832964,-3.44876,0.44254,1.2055399999999998,-0.918759855,0.322325835,-0.202331025
