Timestamp,GyroX,GyroY,GyroZ,AccX,AccY,AccZ
1764762965.5842853,-5.9514,0.763,-0.27468,-0.91955331,0.35742096,-0.095031495
1764762965.5848074,-5.9514,0.763,-0.27468,-0.91955331,0.35742096,-0.095031495
1764762965.5848074,-5.9514,0.763,-0.27468,-0.91955331,0.35742096,-0.095031495
1764762965.5848074,-5.84458,0.41202,0.18312,-0.921567465,0.35925201,-0.09484839
1764762965.5848074,-5.84458,0.41202,0.18312,-0.921567465,0.35925201,-0.09484839
1764762965.5848074,-5.84458,0.41202,0.18312,-0.921567465,0.35925201,-0.09484839
1764762965.5848074,-5.84458,0.41202,0.18312,-0.921567465,0.35925201,-0.09484839
1764762965.5848074,-5.84458,0.41202,0.18312,-0.921567465,0.35925201,-0.09484839
1764762965.5848074,-5.84458,0.41202,0.18312,-0.921567465,0.35925201,-0.09484839
1764762965.5848074,-5.84458,0.41202,0.18312,-0.921567465,0.35925201,-0.09484839
1764762965.5848074,-5.84458,0.41202,0.18312,-0.921567465,0.35925201,-0.09484839
1764762965.5848074,-5.84458,0.41202,0.18312,-0.921567465,0.35925201,-0.09484839
1764762965.5848074,-5.84458,0.41202,0.18312,-0.921567465,0.35925201,-0.09484839
1764762965.5848074,-5.31048,0.41202,-0.06104,-0.920346765,0.358458555,-0.096618405
1764762965.5848074,-5.31048,0.41202,-0.06104,-0.920346765,0.358458555,-0.096618405
1764762965.5848074,-5.31048,0.41202,-0.06104,-0.920346765,0.358458555,-0.096618405
1764762965.5848074,-5.31048,0.41202,-0.06104,-0.920346765,0.358458555,-0.096618405
1764762965.5848074,-5.31048,0.41202,-0.06104,-0.920346765,0.358458555,-0.096618405
1764762965.5848074,-5.31048,0.41202,-0.06104,-0.920346765,0.358458555,-0.096618405
1764762965.5848074,-5.31048,0.41202,-0.06104,-0.920346765,0.358458555,-0.096618405
1764762965.5848074,-5.31048,0.41202,-0.06104,-0.920346765,0.358458555,-0.096618405
1764762965.5848074,-5.31048,0.41202,-0.06104,-0.920346765,0.358458555,-0.096618405
1764762965.5848074,-5.31048,0.41202,-0.06104,-0.920346765,0.358458555,-0.096618405
1764762965.6310005,-5.35626,1.03768,-0.2289,-0.91760019,0.35705475,-0.09741186
1764762965.6310005,-5.35626,1.03768,-0.2289,-0.91760019,0.35705475,-0.09741186
1764762965.6310005,-5.35626,1.03768,-0.2289,-0.91760019,0.35705475,-0.09741186
1764762965.6310005,-5.35626,1.03768,-0.2289,-0.91760019,0.35705475,-0.09741186
1764762965.6310005,-5.35626,1.03768,-0.2289,-0.91760019,0.35705475,-0.09741186
1764762965.6310005,-5.35626,1.03768,-0.2289,-0.91760019,0.35705475,-0.09741186
1764762965.6310005,-5.35626,1.03768,-0.2289,-0.91760019,0.35705475,-0.09741186
1764762965.6310005,-5.35626,1.03768,-0.2289,-0.91760019,0.35705475,-0.09741186
1764762965.6319072,-5.35626,1.03768,-0.2289,-0.91760019,0.35705475,-0.09741186
1764762965.6319072,-5.35626,1.03768,-0.2289,-0.91760019,0.35705475,-0.09741186
1764762965.6319072,-6.3329,0.21364,0.09156,-0.91833261,0.356505435,-0.09716772
1764762965.6319072,-6.3329,0.21364,0.09156,-0.91833261,0.356505435,-0.09716772
1764762965.6319072,-6.3329,0.21364,0.09156,-0.91833261,0.356505435,-0.09716772
1764762965.6319072,-6.3329,0.21364,0.09156,-0.91833261,0.356505435,-0.09716772
1764762965.6319072,-6.3329,0.21364,0.09156,-0.91833261,0.356505435,-0.09716772
1764762965.6319072,-6.3329,0.21364,0.09156,-0.91833261,0.356505435,-0.09716772
1764762965.6319072,-6.3329,0.21364,0.09156,-0.91833261,0.356505435,-0.09716772
1764762965.6319072,-6.3329,0.21364,0.09156,-0.91833261,0.356505435,-0.09716772
1764762965.6319072,-6.3329,0.21364,0.09156,-0.91833261,0.356505435,-0.09716772
1764762965.6319072,-6.3329,0.21364,0.09156,-0.91833261,0.356505435,-0.09716772
1764762965.6319072,-6.409199999999999,-1.12924,0.19838,-0.921201255,0.356993715,-0.0952146
1764762965.6319072,-6.409199999999999,-1.12924,0.19838,-0.921201255,0.356993715,-0.0952146
1764762965.6319072,-6.409199999999999,-1.12924,0.19838,-0.921201255,0.356993715,-0.0952146
1764762965.6319072,-6.409199999999999,-1.12924,0.19838,-0.921201255,0.356993715,-0.0952146
1764762965.678677,-6.409199999999999,-1.12924,0.19838,-0.921201255,0.356993715,-0.0952146
1764762965.678677,-6.409199999999999,-1.12924,0.19838,-0.921201255,0.356993715,-0.0952146
1764762965.678677,-6.409199999999999,-1.12924,0.19838,-0.921201255,0.356993715,-0.0952146
1764762965.678677,-6.409199999999999,-1.12924,0.19838,-0.921201255,0.356993715,-0.0952146
1764762965.678677,-6.409199999999999,-1.12924,0.19838,-0.921201255,0.356993715,-0.0952146
1764762965.678677,-6.409199999999999,-1.12924,0.19838,-0.921201255,0.356993715,-0.0952146
1764762965.678677,-5.234179999999999,-1.95328,-1.78542,-0.92175057,0.354064035,-0.09338355
1764762965.678677,-5.234179999999999,-1.95328,-1.78542,-0.92175057,0.354064035,-0.09338355
1764762965.678677,-5.234179999999999,-1.95328,-1.78542,-0.92175057,0.354064035,-0.09338355
1764762965.678677,-5.234179999999999,-1.95328,-1.78542,-0.92175057,0.354064035,-0.09338355
1764762965.678677,-5.234179999999999,-1.95328,-1.78542,-0.92175057,0.354064035,-0.09338355
1764762965.678677,-5.234179999999999,-1.95328,-1.78542,-0.92175057,0.354064035,-0.09338355
1764762965.678677,-5.234179999999999,-1.95328,-1.78542,-0.92175057,0.354064035,-0.09338355
1764762965.678677,-5.234179999999999,-1.95328,-1.78542,-0.92175057,0.354064035,-0.09338355
1764762965.678677,-5.234179999999999,-1.95328,-1.78542,-0.92175057,0.354064035,-0.09338355
1764762965.678677,-5.234179999999999,-1.95328,-1.78542,-0.92175057,0.354064035,-0.09338355
1764762965.678677,-2.71628,-2.16692,-2.53316,-0.921323325,0.349547445,-0.092223885
1764762965.678677,-2.71628,-2.16692,-2.53316,-0.921323325,0.349547445,-0.092223885
1764762965.678677,-2.71628,-2.16692,-2.53316,-0.921323325,0.349547445,-0.092223885
1764762965.678677,-2.71628,-2.16692,-2.53316,-0.921323325,0.349547445,-0.092223885
1764762965.7246516,-2.71628,-2.16692,-2.53316,-0.921323325,0.349547445,-0.092223885
1764762965.7246516,-2.71628,-2.16692,-2.53316,-0.921323325,0.349547445,-0.092223885
1764762965.7246516,-2.71628,-2.16692,-2.53316,-0.921323325,0.349547445,-0.092223885
1764762965.7246516,-2.71628,-2.16692,-2.53316,-0.921323325,0.349547445,-0.092223885
1764762965.7246516,-2.71628,-2.16692,-2.53316,-0.921323325,0.349547445,-0.092223885
1764762965.7246516,-2.71628,-2.16692,-2.53316,-0.921323325,0.349547445,-0.092223885
1764762965.7246516,-3.31142,-1.92276,-2.63998,-0.92052987,0.34960848,-0.09216285
1764762965.7246516,-3.31142,-1.92276,-2.63998,-0.92052987,0.34960848,-0.09216285
1764762965.7246516,-3.31142,-1.92276,-2.63998,-0.92052987,0.34960848,-0.09216285
1764762965.7246516,-3.31142,-1.92276,-2.63998,-0.92052987,0.34960848,-0.09216285
1764762965.7246516,-3.31142,-1.92276,-2.63998,-0.92052987,0.34960848,-0.09216285
1764762965.7246516,-3.31142,-1.92276,-2.63998,-0.92052987,0.34960848,-0.09216285
1764762965.7246516,-3.31142,-1.92276,-2.63998,-0.92052987,0.34960848,-0.09216285
1764762965.7246516,-3.31142,-1.92276,-2.63998,-0.92052987,0.34960848,-0.09216285
1764762965.7246516,-3.31142,-1.92276,-2.63998,-0.92052987,0.34960848,-0.09216285
1764762965.7246516,-3.31142,-1.92276,-2.63998,-0.92052987,0.34960848,-0.09216285
1764762965.7246516,-4.8832,-0.97664,-0.54936,-0.919003995,0.35607819,-0.09265113
1764762965.7246516,-4.8832,-0.97664,-0.54936,-0.919003995,0.35607819,-0.09265113
1764762965.7246516,-4.8832,-0.97664,-0.54936,-0.919003995,0.35607819,-0.09265113
1764762965.7246516,-4.8832,-0.97664,-0.54936,-0.919003995,0.35607819,-0.09265113
1764762965.7246516,-4.8832,-0.97664,-0.54936,-0.919003995,0.35607819,-0.09265113
1764762965.7246516,-4.8832,-0.97664,-0.54936,-0.919003995,0.35607819,-0.09265113
1764762965.7246516,-4.8832,-0.97664,-0.54936,-0.919003995,0.35607819,-0.09265113
1764762965.7246516,-4.8832,-0.97664,-0.54936,-0.919003995,0.35607819,-0.09265113
1764762965.7714293,-4.8832,-0.97664,-0.54936,-0.919003995,0.35607819,-0.09265113
1764762965.7719374,-4.8832,-0.97664,-0.54936,-0.919003995,0.35607819,-0.09265113
1764762965.7719374,-7.095899999999999,0.97664,0.7019599999999999,-0.91967538,0.360411675,-0.09423804
1764762965.7719374,-7.095899999999999,0.97664,0.7019599999999999,-0.91967538,0.360411675,-0.09423804
1764762965.7719374,-7.095899999999999,0.97664,0.7019599999999999,-0.91967538,0.360411675,-0.09423804
1764762965.7719374,-7.095899999999999,0.97664,0.7019599999999999,-0.91967538,0.360411675,-0.09423804
1764762965.7719374,-7.095899999999999,0.97664,0.7019599999999999,-0.91967538,0.360411675,-0.09423804
1764762965.7719374,-7.095899999999999,0.97664,0.7019599999999999,-0.91967538,0.360411675,-0.09423804
1764762965.7719374,-7.095899999999999,0.97664,0.7019599999999999,-0.91967538,0.360411675,-0.09423804
1764762965.7719374,-7.095899999999999,0.97664,0.7019599999999999,-0.91967538,0.360411675,-0.09423804
1764762965.7719374,-7.095899999999999,0.97664,0.7019599999999999,-0.91967538,0.360411675,-0.09423804
1764762965.7719374,-7.095899999999999,0.97664,0.7019599999999999,-0.91967538,0.360411675,-0.09423804
1764762965.7719374,-8.42352,1.73964,0.71722,-0.919980555,0.361022025,-0.095641845
1764762965.7719374,-8.42352,1.73964,0.71722,-0.919980555,0.361022025,-0.095641845
1764762965.7719374,-8.42352,1.73964,0.71722,-0.919980555,0.361022025,-0.095641845
1764762965.7719374,-8.42352,1.73964,0.71722,-0.919980555,0.361022025,-0.095641845
1764762965.7719374,-8.42352,1.73964,0.71722,-0.919980555,0.361022025,-0.095641845
1764762965.7719374,-8.42352,1.73964,0.71722,-0.919980555,0.361022025,-0.095641845
1764762965.7719374,-8.42352,1.73964,0.71722,-0.919980555,0.361022025,-0.095641845
1764762965.7719374,-8.42352,1.73964,0.71722,-0.919980555,0.361022025,-0.095641845
1764762965.7719374,-8.42352,1.73964,0.71722,-0.919980555,0.361022025,-0.095641845
1764762965.7719374,-8.42352,1.73964,0.71722,-0.919980555,0.361022025,-0.095641845
1764762965.7719374,-7.965719999999999,1.61756,1.12924,-0.9204078,0.35668854,-0.093932865
1764762965.7719374,-7.965719999999999,1.61756,1.12924,-0.9204078,0.35668854,-0.093932865
1764762965.7719374,-7.965719999999999,1.61756,1.12924,-0.9204078,0.35668854,-0.093932865
1764762965.7719374,-7.965719999999999,1.61756,1.12924,-0.9204078,0.35668854,-0.093932865
1764762965.8150766,-7.965719999999999,1.61756,1.12924,-0.9204078,0.35668854,-0.093932865
1764762965.8150766,-7.965719999999999,1.61756,1.12924,-0.9204078,0.35668854,-0.093932865
1764762965.8150766,-7.965719999999999,1.61756,1.12924,-0.9204078,0.35668854,-0.093932865
1764762965.8150766,-7.965719999999999,1.61756,1.12924,-0.9204078,0.35668854,-0.093932865
1764762965.8150766,-7.965719999999999,1.61756,1.12924,-0.9204078,0.35668854,-0.093932865
1764762965.8150766,-7.965719999999999,1.61756,1.12924,-0.9204078,0.35668854,-0.093932865
1764762965.8160913,-4.99002,0.71722,0.93086,-0.921689535,0.35339265,-0.09204078
1764762965.8160913,-4.99002,0.71722,0.93086,-0.921689535,0.35339265,-0.09204078
1764762965.8160913,-4.99002,0.71722,0.93086,-0.921689535,0.35339265,-0.09204078
1764762965.8160913,-4.99002,0.71722,0.93086,-0.921689535,0.35339265,-0.09204078
1764762965.8160913,-4.99002,0.71722,0.93086,-0.921689535,0.35339265,-0.09204078
1764762965.8160913,-4.99002,0.71722,0.93086,-0.921689535,0.35339265,-0.09204078
1764762965.8160913,-4.99002,0.71722,0.93086,-0.921689535,0.35339265,-0.09204078
1764762965.8160913,-4.99002,0.71722,0.93086,-0.921689535,0.35339265,-0.09204078
1764762965.8160913,-4.99002,0.71722,0.93086,-0.921689535,0.35339265,-0.09204078
1764762965.8160913,-4.99002,0.71722,0.93086,-0.921689535,0.35339265,-0.09204078
1764762965.8160913,-2.91466,0.77826,0.21364,-0.92052987,0.35143953,-0.090881115
1764762965.8160913,-2.91466,0.77826,0.21364,-0.92052987,0.35143953,-0.090881115
1764762965.8160913,-2.91466,0.77826,0.21364,-0.92052987,0.35143953,-0.090881115
1764762965.8160913,-2.91466,0.77826,0.21364,-0.92052987,0.35143953,-0.090881115
1764762965.8160913,-2.91466,0.77826,0.21364,-0.92052987,0.35143953,-0.090881115
1764762965.8160913,-2.91466,0.77826,0.21364,-0.92052987,0.35143953,-0.090881115
1764762965.8630848,-2.91466,0.77826,0.21364,-0.92052987,0.35143953,-0.090881115
1764762965.8630848,-2.91466,0.77826,0.21364,-0.92052987,0.35143953,-0.090881115
1764762965.8630848,-2.91466,0.77826,0.21364,-0.92052987,0.35143953,-0.090881115
1764762965.8630848,-2.91466,0.77826,0.21364,-0.92052987,0.35143953,-0.090881115
1764762965.8630848,-3.5098,0.59514,0.65618,-0.919980555,0.35266023,-0.091247325
1764762965.8630848,-3.5098,0.59514,0.65618,-0.919980555,0.35266023,-0.091247325
1764762965.8630848,-3.5098,0.59514,0.65618,-0.919980555,0.35266023,-0.091247325
1764762965.8630848,-3.5098,0.59514,0.65618,-0.919980555,0.35266023,-0.091247325
1764762965.8630848,-3.5098,0.59514,0.65618,-0.919980555,0.35266023,-0.091247325
1764762965.8630848,-3.5098,0.59514,0.65618,-0.919980555,0.35266023,-0.091247325
1764762965.8630848,-3.5098,0.59514,0.65618,-0.919980555,0.35266023,-0.091247325
1764762965.8630848,-3.5098,0.59514,0.65618,-0.919980555,0.35266023,-0.091247325
1764762965.8630848,-3.5098,0.59514,0.65618,-0.919980555,0.35266023,-0.091247325
1764762965.8630848,-3.5098,0.59514,0.65618,-0.919980555,0.35266023,-0.091247325
1764762965.8630848,-4.60852,-0.03052,0.85456,-0.92016366,0.35546784,-0.091857675
1764762965.8630848,-4.60852,-0.03052,0.85456,-0.92016366,0.35546784,-0.091857675
1764762965.8630848,-4.60852,-0.03052,0.85456,-0.92016366,0.35546784,-0.091857675
1764762965.8630848,-4.60852,-0.03052,0.85456,-0.92016366,0.35546784,-0.091857675
1764762965.8630848,-4.60852,-0.03052,0.85456,-0.92016366,0.35546784,-0.091857675
1764762965.8630848,-4.60852,-0.03052,0.85456,-0.92016366,0.35546784,-0.091857675
1764762965.8630848,-4.60852,-0.03052,0.85456,-0.92016366,0.35546784,-0.091857675
1764762965.8630848,-4.60852,-0.03052,0.85456,-0.92016366,0.35546784,-0.091857675
1764762965.8630848,-4.60852,-0.03052,0.85456,-0.92016366,0.35546784,-0.091857675
1764762965.8630848,-4.60852,-0.03052,0.85456,-0.92016366,0.35546784,-0.091857675
1764762965.9100437,-5.52412,0.9919,0.71722,-0.91967538,0.354552315,-0.09240699
1764762965.9100437,-5.52412,0.9919,0.71722,-0.91967538,0.354552315,-0.09240699
1764762965.9100437,-5.52412,0.9919,0.71722,-0.91967538,0.354552315,-0.09240699
1764762965.9100437,-5.52412,0.9919,0.71722,-0.91967538,0.354552315,-0.09240699
1764762965.91121,-5.52412,0.9919,0.71722,-0.91967538,0.354552315,-0.09240699
1764762965.91121,-5.52412,0.9919,0.71722,-0.91967538,0.354552315,-0.09240699
1764762965.91121,-5.52412,0.9919,0.71722,-0.91967538,0.354552315,-0.09240699
1764762965.91121,-5.52412,0.9919,0.71722,-0.91967538,0.354552315,-0.09240699
1764762965.91121,-5.52412,0.9919,0.71722,-0.91967538,0.354552315,-0.09240699
1764762965.91121,-5.52412,0.9919,0.71722,-0.91967538,0.354552315,-0.09240699
1764762965.91121,-5.234179999999999,1.19028,0.6103999999999999,-0.920224695,0.35302644,-0.091369395
1764762965.91121,-5.234179999999999,1.19028,0.6103999999999999,-0.920224695,0.35302644,-0.091369395
1764762965.91121,-5.234179999999999,1.19028,0.6103999999999999,-0.920224695,0.35302644,-0.091369395
1764762965.91121,-5.234179999999999,1.19028,0.6103999999999999,-0.920224695,0.35302644,-0.091369395
1764762965.91121,-5.234179999999999,1.19028,0.6103999999999999,-0.920224695,0.35302644,-0.091369395
1764762965.91121,-5.234179999999999,1.19028,0.6103999999999999,-0.920224695,0.35302644,-0.091369395
1764762965.91121,-5.234179999999999,1.19028,0.6103999999999999,-0.920224695,0.35302644,-0.091369395
1764762965.91121,-5.234179999999999,1.19028,0.6103999999999999,-0.920224695,0.35302644,-0.091369395
1764762965.91121,-5.234179999999999,1.19028,0.6103999999999999,-0.920224695,0.35302644,-0.091369395
1764762965.91121,-5.234179999999999,1.19028,0.6103999999999999,-0.920224695,0.35302644,-0.091369395
1764762965.91121,-4.28806,1.46496,1.0682,-0.920712975,0.35241609,-0.09143043
1764762965.91121,-4.28806,1.46496,1.0682,-0.920712975,0.35241609,-0.09143043
1764762965.9546094,-4.28806,1.46496,1.0682,-0.920712975,0.35241609,-0.09143043
1764762965.9546094,-4.28806,1.46496,1.0682,-0.920712975,0.35241609,-0.09143043
1764762965.9546094,-4.28806,1.46496,1.0682,-0.920712975,0.35241609,-0.09143043
1764762965.9546094,-4.28806,1.46496,1.0682,-0.920712975,0.35241609,-0.09143043
1764762965.9546094,-4.28806,1.46496,1.0682,-0.920712975,0.35241609,-0.09143043
1764762965.9546094,-4.28806,1.46496,1.0682,-0.920712975,0.35241609,-0.09143043
1764762965.9546094,-4.28806,1.46496,1.0682,-0.920712975,0.35241609,-0.09143043
1764762965.9546094,-4.28806,1.46496,1.0682,-0.920712975,0.35241609,-0.09143043
1764762965.9546094,-4.303319999999999,1.19028,1.87698,-0.91967538,0.352477125,-0.092712165
1764762965.9546094,-4.303319999999999,1.19028,1.87698,-0.91967538,0.352477125,-0.092712165
1764762965.9546094,-4.303319999999999,1.19028,1.87698,-0.91967538,0.352477125,-0.092712165
1764762965.9546094,-4.303319999999999,1.19028,1.87698,-0.91967538,0.352477125,-0.092712165
1764762965.9546094,-4.303319999999999,1.19028,1.87698,-0.91967538,0.352477125,-0.092712165
1764762965.9546094,-4.303319999999999,1.19028,1.87698,-0.91967538,0.352477125,-0.092712165
1764762965.9546094,-4.303319999999999,1.19028,1.87698,-0.91967538,0.352477125,-0.092712165
1764762965.9546094,-4.303319999999999,1.19028,1.87698,-0.91967538,0.352477125,-0.092712165
1764762965.9546094,-4.303319999999999,1.19028,1.87698,-0.91967538,0.352477125,-0.092712165
1764762965.9546094,-4.303319999999999,1.19028,1.87698,-0.91967538,0.352477125,-0.092712165
1764762965.9546094,-3.3572,1.4497,1.96854,-0.919492275,0.352355055,-0.093200445
1764762965.9546094,-3.3572,1.4497,1.96854,-0.919492275,0.352355055,-0.093200445
1764762965.9546094,-3.3572,1.4497,1.96854,-0.919492275,0.352355055,-0.093200445
1764762965.9546094,-3.3572,1.4497,1.96854,-0.919492275,0.352355055,-0.093200445
1764762965.9546094,-3.3572,1.4497,1.96854,-0.919492275,0.352355055,-0.093200445
1764762965.9546094,-3.3572,1.4497,1.96854,-0.919492275,0.352355055,-0.093200445
1764762966.0012956,-3.3572,1.4497,1.96854,-0.919492275,0.352355055,-0.093200445
1764762966.0012956,-3.3572,1.4497,1.96854,-0.919492275,0.352355055,-0.093200445
1764762966.0012956,-3.3572,1.4497,1.96854,-0.919492275,0.352355055,-0.093200445
1764762966.0012956,-3.3572,1.4497,1.96854,-0.919492275,0.352355055,-0.093200445
1764762966.0012956,-3.14356,1.61756,1.17502,-0.919980555,0.35241609,-0.09301734
1764762966.0012956,-3.14356,1.61756,1.17502,-0.919980555,0.35241609,-0.09301734
1764762966.0012956,-3.14356,1.61756,1.17502,-0.919980555,0.35241609,-0.09301734
1764762966.0012956,-3.14356,1.61756,1.17502,-0.919980555,0.35241609,-0.09301734
1764762966.0012956,-3.14356,1.61756,1.17502,-0.919980555,0.35241609,-0.09301734
1764762966.0012956,-3.14356,1.61756,1.17502,-0.919980555,0.35241609,-0.09301734
1764762966.0012956,-3.14356,1.61756,1.17502,-0.919980555,0.35241609,-0.09301734
1764762966.0012956,-3.14356,1.61756,1.17502,-0.919980555,0.35241609,-0.09301734
1764762966.0012956,-3.14356,1.61756,1.17502,-0.919980555,0.35241609,-0.09301734
1764762966.0012956,-3.14356,1.61756,1.17502,-0.919980555,0.35241609,-0.09301734
1764762966.0012956,-2.68576,0.93086,1.1445,-0.920957115,0.35363679,-0.092468025
1764762966.0012956,-2.68576,0.93086,1.1445,-0.920957115,0.35363679,-0.092468025
1764762966.0012956,-2.68576,0.93086,1.1445,-0.920957115,0.35363679,-0.092468025
1764762966.0012956,-2.68576,0.93086,1.1445,-0.920957115,0.35363679,-0.092468025
1764762966.0012956,-2.68576,0.93086,1.1445,-0.920957115,0.35363679,-0.092468025
1764762966.0012956,-2.68576,0.93086,1.1445,-0.920957115,0.35363679,-0.092468025
1764762966.0012956,-2.68576,0.93086,1.1445,-0.920957115,0.35363679,-0.092468025
1764762966.0012956,-2.68576,0.93086,1.1445,-0.920957115,0.35363679,-0.092468025
1764762966.0479524,-2.68576,0.93086,1.1445,-0.920957115,0.35363679,-0.092468025
1764762966.0479524,-2.68576,0.93086,1.1445,-0.920957115,0.35363679,-0.092468025
1764762966.0479524,-3.06726,0.94612,1.0682,-0.920712975,0.3552237,-0.09228492
1764762966.0479524,-3.06726,0.94612,1.0682,-0.920712975,0.3552237,-0.09228492
1764762966.0479524,-3.06726,0.94612,1.0682,-0.920712975,0.3552237,-0.09228492
1764762966.04896,-3.06726,0.94612,1.0682,-0.920712975,0.3552237,-0.09228492
1764762966.04896,-3.06726,0.94612,1.0682,-0.920712975,0.3552237,-0.09228492
1764762966.04896,-3.06726,0.94612,1.0682,-0.920712975,0.3552237,-0.09228492
1764762966.04896,-3.06726,0.94612,1.0682,-0.920712975,0.3552237,-0.09228492
1764762966.04896,-3.06726,0.94612,1.0682,-0.920712975,0.3552237,-0.09228492
1764762966.04896,-3.06726,0.94612,1.0682,-0.920712975,0.3552237,-0.09228492
1764762966.04896,-3.06726,0.94612,1.0682,-0.920712975,0.3552237,-0.09228492
1764762966.04896,-3.052,1.05294,1.26658,-0.92052987,0.357359925,-0.0927732
1764762966.04896,-3.052,1.05294,1.26658,-0.92052987,0.357359925,-0.0927732
1764762966.04896,-3.052,1.05294,1.26658,-0.92052987,0.357359925,-0.0927732
1764762966.04896,-3.052,1.05294,1.26658,-0.92052987,0.357359925,-0.0927732
1764762966.04896,-3.052,1.05294,1.26658,-0.92052987,0.357359925,-0.0927732
1764762966.04896,-3.052,1.05294,1.26658,-0.92052987,0.357359925,-0.0927732
1764762966.04896,-3.052,1.05294,1.26658,-0.92052987,0.357359925,-0.0927732
1764762966.04896,-3.052,1.05294,1.26658,-0.92052987,0.357359925,-0.0927732
1764762966.04896,-3.052,1.05294,1.26658,-0.92052987,0.357359925,-0.0927732
1764762966.04896,-3.052,1.05294,1.26658,-0.92052987,0.357359925,-0.0927732
1764762966.04896,-3.84552,1.6786,1.46496,-0.920102625,0.359068905,-0.092834235
1764762966.04896,-3.84552,1.6786,1.46496,-0.920102625,0.359068905,-0.092834235
1764762966.0949235,-3.84552,1.6786,1.46496,-0.920102625,0.359068905,-0.092834235
1764762966.0949235,-3.84552,1.6786,1.46496,-0.920102625,0.359068905,-0.092834235
1764762966.0949235,-3.84552,1.6786,1.46496,-0.920102625,0.359068905,-0.092834235
1764762966.0949235,-3.84552,1.6786,1.46496,-0.920102625,0.359068905,-0.092834235
1764762966.0949235,-3.84552,1.6786,1.46496,-0.920102625,0.359068905,-0.092834235
1764762966.0949235,-3.84552,1.6786,1.46496,-0.920102625,0.359068905,-0.092834235
1764762966.0949235,-3.84552,1.6786,1.46496,-0.920102625,0.359068905,-0.092834235
1764762966.0949235,-3.84552,1.6786,1.46496,-0.920102625,0.359068905,-0.092834235
1764762966.0949235,-5.7988,1.84646,1.6633399999999998,-0.92077401,0.35986236,-0.09216285
1764762966.0949235,-5.7988,1.84646,1.6633399999999998,-0.92077401,0.35986236,-0.09216285
1764762966.0949235,-5.7988,1.84646,1.6633399999999998,-0.92077401,0.35986236,-0.09216285
1764762966.0949235,-5.7988,1.84646,1.6633399999999998,-0.92077401,0.35986236,-0.09216285
1764762966.0949235,-5.7988,1.84646,1.6633399999999998,-0.92077401,0.35986236,-0.09216285
1764762966.096142,-5.7988,1.84646,1.6633399999999998,-0.92077401,0.35986236,-0.09216285
1764762966.096142,-5.7988,1.84646,1.6633399999999998,-0.92077401,0.35986236,-0.09216285
1764762966.096142,-5.7988,1.84646,1.6633399999999998,-0.92077401,0.35986236,-0.09216285
1764762966.096142,-5.7988,1.84646,1.6633399999999998,-0.92077401,0.35986236,-0.09216285
1764762966.096142,-5.7988,1.84646,1.6633399999999998,-0.92077401,0.35986236,-0.09216285
1764762966.096142,-4.822159999999999,1.70912,0.77826,-0.9204078,0.359068905,-0.0915525
1764762966.096142,-4.822159999999999,1.70912,0.77826,-0.9204078,0.359068905,-0.0915525
1764762966.096142,-4.822159999999999,1.70912,0.77826,-0.9204078,0.359068905,-0.0915525
1764762966.096142,-4.822159999999999,1.70912,0.77826,-0.9204078,0.359068905,-0.0915525
1764762966.096142,-4.822159999999999,1.70912,0.77826,-0.9204078,0.359068905,-0.0915525
1764762966.096142,-4.822159999999999,1.70912,0.77826,-0.9204078,0.359068905,-0.0915525
1764762966.1427276,-4.822159999999999,1.70912,0.77826,-0.9204078,0.359068905,-0.0915525
1764762966.1427276,-4.822159999999999,1.70912,0.77826,-0.9204078,0.359068905,-0.0915525
1764762966.1427276,-4.822159999999999,1.70912,0.77826,-0.9204078,0.359068905,-0.0915525
1764762966.1427276,-4.822159999999999,1.70912,0.77826,-0.9204078,0.359068905,-0.0915525
1764762966.1427276,-2.79258,1.63282,0.96138,-0.919248135,0.356017155,-0.09228492
1764762966.1427276,-2.79258,1.63282,0.96138,-0.919248135,0.356017155,-0.09228492
1764762966.1427276,-2.79258,1.63282,0.96138,-0.919248135,0.356017155,-0.09228492
1764762966.1427276,-2.79258,1.63282,0.96138,-0.919248135,0.356017155,-0.09228492
1764762966.1427276,-2.79258,1.63282,0.96138,-0.919248135,0.356017155,-0.09228492
1764762966.1427276,-2.79258,1.63282,0.96138,-0.919248135,0.356017155,-0.09228492
1764762966.1427276,-2.79258,1.63282,0.96138,-0.919248135,0.356017155,-0.09228492
1764762966.1427276,-2.79258,1.63282,0.96138,-0.919248135,0.356017155,-0.09228492
1764762966.1427276,-2.79258,1.63282,0.96138,-0.919248135,0.356017155,-0.09228492
1764762966.1427276,-2.79258,1.63282,0.96138,-0.919248135,0.356017155,-0.09228492
1764762966.1427276,-1.03768,1.6633399999999998,1.23606,-0.91723398,0.353697825,-0.094177005
1764762966.1427276,-1.03768,1.6633399999999998,1.23606,-0.91723398,0.353697825,-0.094177005
1764762966.1427276,-1.03768,1.6633399999999998,1.23606,-0.91723398,0.353697825,-0.094177005
1764762966.1427276,-1.03768,1.6633399999999998,1.23606,-0.91723398,0.353697825,-0.094177005
1764762966.1427276,-1.03768,1.6633399999999998,1.23606,-0.91723398,0.353697825,-0.094177005
1764762966.1427276,-1.03768,1.6633399999999998,1.23606,-0.91723398,0.353697825,-0.094177005
1764762966.1901207,-1.03768,1.6633399999999998,1.23606,-0.91723398,0.353697825,-0.094177005
1764762966.1901207,-1.03768,1.6633399999999998,1.23606,-0.91723398,0.353697825,-0.094177005
1764762966.1901207,-1.03768,1.6633399999999998,1.23606,-0.91723398,0.353697825,-0.094177005
1764762966.1901207,-1.03768,1.6633399999999998,1.23606,-0.91723398,0.353697825,-0.094177005
1764762966.1901207,-3.09778,1.11398,1.96854,-0.917783295,0.35485749,-0.095397705
1764762966.1901207,-3.09778,1.11398,1.96854,-0.917783295,0.35485749,-0.095397705
1764762966.1901207,-3.09778,1.11398,1.96854,-0.917783295,0.35485749,-0.095397705
1764762966.1901207,-3.09778,1.11398,1.96854,-0.917783295,0.35485749,-0.095397705
1764762966.1901207,-3.09778,1.11398,1.96854,-0.917783295,0.35485749,-0.095397705
1764762966.1901207,-3.09778,1.11398,1.96854,-0.917783295,0.35485749,-0.095397705
1764762966.1901207,-3.09778,1.11398,1.96854,-0.917783295,0.35485749,-0.095397705
1764762966.1901207,-3.09778,1.11398,1.96854,-0.917783295,0.35485749,-0.095397705
1764762966.1901207,-3.09778,1.11398,1.96854,-0.917783295,0.35485749,-0.095397705
1764762966.1901207,-3.09778,1.11398,1.96854,-0.917783295,0.35485749,-0.095397705
1764762966.1901207,-3.6624,1.25132,1.31236,-0.919980555,0.3576651,-0.093932865
1764762966.1901207,-3.6624,1.25132,1.31236,-0.919980555,0.3576651,-0.093932865
1764762966.1901207,-3.6624,1.25132,1.31236,-0.919980555,0.3576651,-0.093932865
1764762966.1901207,-3.6624,1.25132,1.31236,-0.919980555,0.3576651,-0.093932865
1764762966.1901207,-3.6624,1.25132,1.31236,-0.919980555,0.3576651,-0.093932865
1764762966.1901207,-3.6624,1.25132,1.31236,-0.919980555,0.3576651,-0.093932865
1764762966.1901207,-3.6624,1.25132,1.31236,-0.919980555,0.3576651,-0.093932865
1764762966.1901207,-3.6624,1.25132,1.31236,-0.919980555,0.3576651,-0.093932865
1764762966.1901207,-3.6624,1.25132,1.31236,-0.919980555,0.3576651,-0.093932865
1764762966.1901207,-3.6624,1.25132,1.31236,-0.919980555,0.3576651,-0.093932865
1764762966.2332203,-2.77732,0.8698199999999999,1.6633399999999998,-0.922788165,0.358702695,-0.09216285
1764762966.2332203,-2.77732,0.8698199999999999,1.6633399999999998,-0.922788165,0.358702695,-0.09216285
1764762966.2332203,-2.77732,0.8698199999999999,1.6633399999999998,-0.922788165,0.358702695,-0.09216285
1764762966.2337368,-2.77732,0.8698199999999999,1.6633399999999998,-0.922788165,0.358702695,-0.09216285
1764762966.2337368,-2.77732,0.8698199999999999,1.6633399999999998,-0.922788165,0.358702695,-0.09216285
1764762966.2337368,-2.77732,0.8698199999999999,1.6633399999999998,-0.922788165,0.358702695,-0.09216285
1764762966.2337368,-2.77732,0.8698199999999999,1.6633399999999998,-0.922788165,0.358702695,-0.09216285
1764762966.2337368,-2.77732,0.8698199999999999,1.6633399999999998,-0.922788165,0.358702695,-0.09216285
1764762966.2337368,-2.77732,0.8698199999999999,1.6633399999999998,-0.922788165,0.358702695,-0.09216285
1764762966.2337368,-2.77732,0.8698199999999999,1.6633399999999998,-0.922788165,0.358702695,-0.09216285
1764762966.2337368,-2.60946,0.9003399999999999,0.97664,-0.922055745,0.356627505,-0.093200445
1764762966.2337368,-2.60946,0.9003399999999999,0.97664,-0.922055745,0.356627505,-0.093200445
1764762966.2337368,-2.60946,0.9003399999999999,0.97664,-0.922055745,0.356627505,-0.093200445
1764762966.2337368,-2.60946,0.9003399999999999,0.97664,-0.922055745,0.356627505,-0.093200445
1764762966.2337368,-2.60946,0.9003399999999999,0.97664,-0.922055745,0.356627505,-0.093200445
1764762966.2337368,-2.60946,0.9003399999999999,0.97664,-0.922055745,0.356627505,-0.093200445
1764762966.2337368,-2.60946,0.9003399999999999,0.97664,-0.922055745,0.356627505,-0.093200445
1764762966.2337368,-2.60946,0.9003399999999999,0.97664,-0.922055745,0.356627505,-0.093200445
1764762966.2337368,-2.60946,0.9003399999999999,0.97664,-0.922055745,0.356627505,-0.093200445
1764762966.2349732,-2.60946,0.9003399999999999,0.97664,-0.922055745,0.356627505,-0.093200445
1764762966.2349732,-2.3653,1.526,1.54126,-0.91991952,0.354674385,-0.09509253
1764762966.2349732,-2.3653,1.526,1.54126,-0.91991952,0.354674385,-0.09509253
1764762966.2349732,-2.3653,1.526,1.54126,-0.91991952,0.354674385,-0.09509253
1764762966.2349732,-2.3653,1.526,1.54126,-0.91991952,0.354674385,-0.09509253
1764762966.282899,-2.3653,1.526,1.54126,-0.91991952,0.354674385,-0.09509253
1764762966.282899,-2.3653,1.526,1.54126,-0.91991952,0.354674385,-0.09509253
1764762966.282899,-2.3653,1.526,1.54126,-0.91991952,0.354674385,-0.09509253
1764762966.282899,-2.3653,1.526,1.54126,-0.91991952,0.354674385,-0.09509253
1764762966.282899,-2.3653,1.526,1.54126,-0.91991952,0.354674385,-0.09509253
1764762966.282899,-2.3653,1.526,1.54126,-0.91991952,0.354674385,-0.09509253
1764762966.282899,-2.96044,1.84646,1.96854,-0.918759855,0.355406805,-0.096496335
1764762966.282899,-2.96044,1.84646,1.96854,-0.918759855,0.355406805,-0.096496335
1764762966.282899,-2.96044,1.84646,1.96854,-0.918759855,0.355406805,-0.096496335
1764762966.282899,-2.96044,1.84646,1.96854,-0.918759855,0.355406805,-0.096496335
1764762966.282899,-2.96044,1.84646,1.96854,-0.918759855,0.355406805,-0.096496335
1764762966.282899,-2.96044,1.84646,1.96854,-0.918759855,0.355406805,-0.096496335
1764762966.282899,-2.96044,1.84646,1.96854,-0.918759855,0.355406805,-0.096496335
1764762966.282899,-2.96044,1.84646,1.96854,-0.918759855,0.355406805,-0.096496335
1764762966.282899,-2.96044,1.84646,1.96854,-0.918759855,0.355406805,-0.096496335
1764762966.282899,-2.96044,1.84646,1.96854,-0.918759855,0.355406805,-0.096496335
1764762966.282899,-3.86078,1.54126,2.42634,-0.91979745,0.35693268,-0.09631323
1764762966.282899,-3.86078,1.54126,2.42634,-0.91979745,0.35693268,-0.09631323
1764762966.282899,-3.86078,1.54126,2.42634,-0.91979745,0.35693268,-0.09631323
1764762966.282899,-3.86078,1.54126,2.42634,-0.91979745,0.35693268,-0.09631323
1764762966.282899,-3.86078,1.54126,2.42634,-0.91979745,0.35693268,-0.09631323
1764762966.282899,-3.86078,1.54126,2.42634,-0.91979745,0.35693268,-0.09631323
1764762966.3295324,-3.86078,1.54126,2.42634,-0.91979745,0.35693268,-0.09631323
1764762966.3295324,-3.86078,1.54126,2.42634,-0.91979745,0.35693268,-0.09631323
1764762966.3295324,-3.86078,1.54126,2.42634,-0.91979745,0.35693268,-0.09631323
1764762966.3295324,-3.86078,1.54126,2.42634,-0.91979745,0.35693268,-0.09631323
1764762966.3295324,-4.28806,1.87698,1.6786,-0.919370205,0.35815338,-0.09448218
1764762966.3295324,-4.28806,1.87698,1.6786,-0.919370205,0.35815338,-0.09448218
1764762966.3295324,-4.28806,1.87698,1.6786,-0.919370205,0.35815338,-0.09448218
1764762966.3295324,-4.28806,1.87698,1.6786,-0.919370205,0.35815338,-0.09448218
1764762966.3295324,-4.28806,1.87698,1.6786,-0.919370205,0.35815338,-0.09448218
1764762966.3295324,-4.28806,1.87698,1.6786,-0.919370205,0.35815338,-0.09448218
1764762966.3295324,-4.28806,1.87698,1.6786,-0.919370205,0.35815338,-0.09448218
1764762966.3295324,-4.28806,1.87698,1.6786,-0.919370205,0.35815338,-0.09448218
1764762966.3295324,-4.28806,1.87698,1.6786,-0.919370205,0.35815338,-0.09448218
1764762966.3295324,-4.28806,1.87698,1.6786,-0.919370205,0.35815338,-0.09448218
1764762966.3295324,-4.303319999999999,1.81594,1.87698,-0.918393645,0.35864166,-0.093932865
1764762966.3295324,-4.303319999999999,1.81594,1.87698,-0.918393645,0.35864166,-0.093932865
1764762966.3295324,-4.303319999999999,1.81594,1.87698,-0.918393645,0.35864166,-0.093932865
1764762966.3295324,-4.303319999999999,1.81594,1.87698,-0.918393645,0.35864166,-0.093932865
1764762966.3295324,-4.303319999999999,1.81594,1.87698,-0.918393645,0.35864166,-0.093932865
1764762966.3295324,-4.303319999999999,1.81594,1.87698,-0.918393645,0.35864166,-0.093932865
1764762966.3295324,-4.303319999999999,1.81594,1.87698,-0.918393645,0.35864166,-0.093932865
1764762966.3295324,-4.303319999999999,1.81594,1.87698,-0.918393645,0.35864166,-0.093932865
1764762966.3295324,-4.303319999999999,1.81594,1.87698,-0.918393645,0.35864166,-0.093932865
1764762966.3295324,-4.303319999999999,1.81594,1.87698,-0.918393645,0.35864166,-0.093932865
1764762966.3295324,-2.47212,1.00716,1.2971,-0.919614345,0.356871645,-0.094421145
1764762966.3295324,-2.47212,1.00716,1.2971,-0.919614345,0.356871645,-0.094421145
1764762966.3727424,-2.47212,1.00716,1.2971,-0.919614345,0.356871645,-0.094421145
1764762966.3727424,-2.47212,1.00716,1.2971,-0.919614345,0.356871645,-0.094421145
1764762966.3727424,-2.47212,1.00716,1.2971,-0.919614345,0.356871645,-0.094421145
1764762966.3727424,-2.47212,1.00716,1.2971,-0.919614345,0.356871645,-0.094421145
1764762966.3727424,-2.47212,1.00716,1.2971,-0.919614345,0.356871645,-0.094421145
1764762966.3727424,-2.47212,1.00716,1.2971,-0.919614345,0.356871645,-0.094421145
1764762966.3727424,-2.47212,1.00716,1.2971,-0.919614345,0.356871645,-0.094421145
1764762966.3727424,-2.47212,1.00716,1.2971,-0.919614345,0.356871645,-0.094421145
1764762966.3727424,-2.1364,1.0682,0.94612,-0.91943124,0.35595612,-0.09484839
1764762966.3727424,-2.1364,1.0682,0.94612,-0.91943124,0.35595612,-0.09484839
1764762966.3727424,-2.1364,1.0682,0.94612,-0.91943124,0.35595612,-0.09484839
1764762966.3727424,-2.1364,1.0682,0.94612,-0.91943124,0.35595612,-0.09484839
1764762966.3727424,-2.1364,1.0682,0.94612,-0.91943124,0.35595612,-0.09484839
1764762966.3727424,-2.1364,1.0682,0.94612,-0.91943124,0.35595612,-0.09484839
1764762966.3727424,-2.1364,1.0682,0.94612,-0.91943124,0.35595612,-0.09484839
1764762966.3727424,-2.1364,1.0682,0.94612,-0.91943124,0.35595612,-0.09484839
1764762966.3727424,-2.1364,1.0682,0.94612,-0.91943124,0.35595612,-0.09484839
1764762966.3727424,-2.1364,1.0682,0.94612,-0.91943124,0.35595612,-0.09484839
1764762966.3737693,-2.9757,1.28184,1.0682,-0.919248135,0.35839752,-0.096862545
1764762966.3737693,-2.9757,1.28184,1.0682,-0.919248135,0.35839752,-0.096862545
1764762966.420443,-2.9757,1.28184,1.0682,-0.919248135,0.35839752,-0.096862545
1764762966.420443,-2.9757,1.28184,1.0682,-0.919248135,0.35839752,-0.096862545
1764762966.4209497,-2.9757,1.28184,1.0682,-0.919248135,0.35839752,-0.096862545
1764762966.4209497,-2.9757,1.28184,1.0682,-0.919248135,0.35839752,-0.096862545
1764762966.4209497,-2.9757,1.28184,1.0682,-0.919248135,0.35839752,-0.096862545
1764762966.4209497,-2.9757,1.28184,1.0682,-0.919248135,0.35839752,-0.096862545
1764762966.4209497,-2.9757,1.28184,1.0682,-0.919248135,0.35839752,-0.096862545
1764762966.4209497,-2.9757,1.28184,1.0682,-0.919248135,0.35839752,-0.096862545
1764762966.4209497,-4.1202,1.17502,1.31236,-0.918393645,0.36181548,-0.097350825
1764762966.4209497,-4.1202,1.17502,1.31236,-0.918393645,0.36181548,-0.097350825
1764762966.4209497,-4.1202,1.17502,1.31236,-0.918393645,0.36181548,-0.097350825
1764762966.4209497,-4.1202,1.17502,1.31236,-0.918393645,0.36181548,-0.097350825
1764762966.4209497,-4.1202,1.17502,1.31236,-0.918393645,0.36181548,-0.097350825
1764762966.4209497,-4.1202,1.17502,1.31236,-0.918393645,0.36181548,-0.097350825
1764762966.4214563,-4.1202,1.17502,1.31236,-0.918393645,0.36181548,-0.097350825
1764762966.4214563,-4.1202,1.17502,1.31236,-0.918393645,0.36181548,-0.097350825
1764762966.4214563,-4.1202,1.17502,1.31236,-0.918393645,0.36181548,-0.097350825
1764762966.4214563,-4.1202,1.17502,1.31236,-0.918393645,0.36181548,-0.097350825
1764762966.4214563,-5.06632,1.70912,0.9156,-0.91845468,0.36352446,-0.0964353
1764762966.4214563,-5.06632,1.70912,0.9156,-0.91845468,0.36352446,-0.0964353
1764762966.4214563,-5.06632,1.70912,0.9156,-0.91845468,0.36352446,-0.0964353
1764762966.4214563,-5.06632,1.70912,0.9156,-0.91845468,0.36352446,-0.0964353
1764762966.4214563,-5.06632,1.70912,0.9156,-0.91845468,0.36352446,-0.0964353
1764762966.4214563,-5.06632,1.70912,0.9156,-0.91845468,0.36352446,-0.0964353
1764762966.4214563,-5.06632,1.70912,0.9156,-0.91845468,0.36352446,-0.0964353
1764762966.4214563,-5.06632,1.70912,0.9156,-0.91845468,0.36352446,-0.0964353
1764762966.4214563,-5.06632,1.70912,0.9156,-0.91845468,0.36352446,-0.0964353
1764762966.4214563,-5.06632,1.70912,0.9156,-0.91845468,0.36352446,-0.0964353
1764762966.4684343,-3.60136,1.17502,0.6103999999999999,-0.918515715,0.360167535,-0.09533667
1764762966.4684343,-3.60136,1.17502,0.6103999999999999,-0.918515715,0.360167535,-0.09533667
1764762966.4684343,-3.60136,1.17502,0.6103999999999999,-0.918515715,0.360167535,-0.09533667
1764762966.4684343,-3.60136,1.17502,0.6103999999999999,-0.918515715,0.360167535,-0.09533667
1764762966.4689655,-3.60136,1.17502,0.6103999999999999,-0.918515715,0.360167535,-0.09533667
1764762966.4689655,-3.60136,1.17502,0.6103999999999999,-0.918515715,0.360167535,-0.09533667
1764762966.4689655,-3.60136,1.17502,0.6103999999999999,-0.918515715,0.360167535,-0.09533667
1764762966.4689655,-3.60136,1.17502,0.6103999999999999,-0.918515715,0.360167535,-0.09533667
1764762966.4689655,-3.60136,1.17502,0.6103999999999999,-0.918515715,0.360167535,-0.09533667
1764762966.4689655,-3.60136,1.17502,0.6103999999999999,-0.918515715,0.360167535,-0.09533667
1764762966.4689655,-3.18934,1.02242,0.3815,-0.916928805,0.35742096,-0.09545874
1764762966.4689655,-3.18934,1.02242,0.3815,-0.916928805,0.35742096,-0.09545874
1764762966.4689655,-3.18934,1.02242,0.3815,-0.916928805,0.35742096,-0.09545874
1764762966.4689655,-3.18934,1.02242,0.3815,-0.916928805,0.35742096,-0.09545874
1764762966.4689655,-3.18934,1.02242,0.3815,-0.916928805,0.35742096,-0.09545874
1764762966.4689655,-3.18934,1.02242,0.3815,-0.916928805,0.35742096,-0.09545874
1764762966.4689655,-3.18934,1.02242,0.3815,-0.916928805,0.35742096,-0.09545874
1764762966.4689655,-3.18934,1.02242,0.3815,-0.916928805,0.35742096,-0.09545874
1764762966.4689655,-3.18934,1.02242,0.3815,-0.916928805,0.35742096,-0.09545874
1764762966.4689655,-3.18934,1.02242,0.3815,-0.916928805,0.35742096,-0.09545874
1764762966.4689655,-2.62472,1.11398,0.94612,-0.91698984,0.35632233,-0.09716772
1764762966.4689655,-2.62472,1.11398,0.94612,-0.91698984,0.35632233,-0.09716772
1764762966.5153477,-2.62472,1.11398,0.94612,-0.91698984,0.35632233,-0.09716772
1764762966.5153477,-2.62472,1.11398,0.94612,-0.91698984,0.35632233,-0.09716772
1764762966.5153477,-2.62472,1.11398,0.94612,-0.91698984,0.35632233,-0.09716772
1764762966.5153477,-2.62472,1.11398,0.94612,-0.91698984,0.35632233,-0.09716772
1764762966.5153477,-2.62472,1.11398,0.94612,-0.91698984,0.35632233,-0.09716772
1764762966.5153477,-2.62472,1.11398,0.94612,-0.91698984,0.35632233,-0.09716772
1764762966.5153477,-2.62472,1.11398,0.94612,-0.91698984,0.35632233,-0.09716772
1764762966.5153477,-2.62472,1.11398,0.94612,-0.91698984,0.35632233,-0.09716772
1764762966.5153477,-2.68576,0.74774,1.11398,-0.9179664,0.356871645,-0.097961175
1764762966.5153477,-2.68576,0.74774,1.11398,-0.9179664,0.356871645,-0.097961175
1764762966.5153477,-2.68576,0.74774,1.11398,-0.9179664,0.356871645,-0.097961175
1764762966.5153477,-2.68576,0.74774,1.11398,-0.9179664,0.356871645,-0.097961175
1764762966.5153477,-2.68576,0.74774,1.11398,-0.9179664,0.356871645,-0.097961175
1764762966.5158532,-2.68576,0.74774,1.11398,-0.9179664,0.356871645,-0.097961175
1764762966.5158532,-2.68576,0.74774,1.11398,-0.9179664,0.356871645,-0.097961175
1764762966.5158532,-2.68576,0.74774,1.11398,-0.9179664,0.356871645,-0.097961175
1764762966.5158532,-2.68576,0.74774,1.11398,-0.9179664,0.356871645,-0.097961175
1764762966.5158532,-2.68576,0.74774,1.11398,-0.9179664,0.356871645,-0.097961175
1764762966.5158532,-3.8913,0.8087799999999999,0.3204599999999999,-0.919614345,0.3576651,-0.09692358
1764762966.5158532,-3.8913,0.8087799999999999,0.3204599999999999,-0.919614345,0.3576651,-0.09692358
1764762966.5158532,-3.8913,0.8087799999999999,0.3204599999999999,-0.919614345,0.3576651,-0.09692358
1764762966.5158532,-3.8913,0.8087799999999999,0.3204599999999999,-0.919614345,0.3576651,-0.09692358
1764762966.5158532,-3.8913,0.8087799999999999,0.3204599999999999,-0.919614345,0.3576651,-0.09692358
1764762966.5158532,-3.8913,0.8087799999999999,0.3204599999999999,-0.919614345,0.3576651,-0.09692358
1764762966.5623634,-3.8913,0.8087799999999999,0.3204599999999999,-0.919614345,0.3576651,-0.09692358
1764762966.5623634,-3.8913,0.8087799999999999,0.3204599999999999,-0.919614345,0.3576651,-0.09692358
1764762966.5623634,-3.8913,0.8087799999999999,0.3204599999999999,-0.919614345,0.3576651,-0.09692358
1764762966.5623634,-3.8913,0.8087799999999999,0.3204599999999999,-0.919614345,0.3576651,-0.09692358
1764762966.5623634,-3.55558,0.73248,0.12208,-0.920712975,0.356505435,-0.09558081
1764762966.5623634,-3.55558,0.73248,0.12208,-0.920712975,0.356505435,-0.09558081
1764762966.5623634,-3.55558,0.73248,0.12208,-0.920712975,0.356505435,-0.09558081
1764762966.5623634,-3.55558,0.73248,0.12208,-0.920712975,0.356505435,-0.09558081
1764762966.5623634,-3.55558,0.73248,0.12208,-0.920712975,0.356505435,-0.09558081
1764762966.5623634,-3.55558,0.73248,0.12208,-0.920712975,0.356505435,-0.09558081
1764762966.5623634,-3.55558,0.73248,0.12208,-0.920712975,0.356505435,-0.09558081
1764762966.5623634,-3.55558,0.73248,0.12208,-0.920712975,0.356505435,-0.09558081
1764762966.5623634,-3.55558,0.73248,0.12208,-0.920712975,0.356505435,-0.09558081
1764762966.5623634,-3.55558,0.73248,0.12208,-0.920712975,0.356505435,-0.09558081
1764762966.5623634,-2.12114,0.1525999999999999,-0.24416,-0.920468835,0.356871645,-0.094543215
1764762966.5623634,-2.12114,0.1525999999999999,-0.24416,-0.920468835,0.356871645,-0.094543215
1764762966.5623634,-2.12114,0.1525999999999999,-0.24416,-0.920468835,0.356871645,-0.094543215
1764762966.5628676,-2.12114,0.1525999999999999,-0.24416,-0.920468835,0.356871645,-0.094543215
1764762966.5628676,-2.12114,0.1525999999999999,-0.24416,-0.920468835,0.356871645,-0.094543215
1764762966.5628676,-2.12114,0.1525999999999999,-0.24416,-0.920468835,0.356871645,-0.094543215
1764762966.5628676,-2.12114,0.1525999999999999,-0.24416,-0.920468835,0.356871645,-0.094543215
1764762966.5628676,-2.12114,0.1525999999999999,-0.24416,-0.920468835,0.356871645,-0.094543215
1764762966.6092353,-2.12114,0.1525999999999999,-0.24416,-0.920468835,0.356871645,-0.094543215
1764762966.6092353,-2.12114,0.1525999999999999,-0.24416,-0.920468835,0.356871645,-0.094543215
1764762966.6092353,-2.25848,0.0,-0.3051999999999999,-0.918759855,0.35815338,-0.09484839
1764762966.6092353,-2.25848,0.0,-0.3051999999999999,-0.918759855,0.35815338,-0.09484839
1764762966.6092353,-2.25848,0.0,-0.3051999999999999,-0.918759855,0.35815338,-0.09484839
1764762966.6092353,-2.25848,0.0,-0.3051999999999999,-0.918759855,0.35815338,-0.09484839
1764762966.6092353,-2.25848,0.0,-0.3051999999999999,-0.918759855,0.35815338,-0.09484839
1764762966.6092353,-2.25848,0.0,-0.3051999999999999,-0.918759855,0.35815338,-0.09484839
1764762966.6092353,-2.25848,0.0,-0.3051999999999999,-0.918759855,0.35815338,-0.09484839
1764762966.6092353,-2.25848,0.0,-0.3051999999999999,-0.918759855,0.35815338,-0.09484839
1764762966.6092353,-2.25848,0.0,-0.3051999999999999,-0.918759855,0.35815338,-0.09484839
1764762966.6092353,-2.25848,0.0,-0.3051999999999999,-0.918759855,0.35815338,-0.09484839
1764762966.6092353,-4.63904,1.23606,0.25942,-0.916928805,0.3613272,-0.09704565
1764762966.610638,-4.63904,1.23606,0.25942,-0.916928805,0.3613272,-0.09704565
1764762966.610638,-4.63904,1.23606,0.25942,-0.916928805,0.3613272,-0.09704565
1764762966.610638,-4.63904,1.23606,0.25942,-0.916928805,0.3613272,-0.09704565
1764762966.610638,-4.63904,1.23606,0.25942,-0.916928805,0.3613272,-0.09704565
1764762966.610638,-4.63904,1.23606,0.25942,-0.916928805,0.3613272,-0.09704565
1764762966.610638,-4.63904,1.23606,0.25942,-0.916928805,0.3613272,-0.09704565
1764762966.610638,-4.63904,1.23606,0.25942,-0.916928805,0.3613272,-0.09704565
1764762966.610638,-4.63904,1.23606,0.25942,-0.916928805,0.3613272,-0.09704565
1764762966.610638,-4.63904,1.23606,0.25942,-0.916928805,0.3613272,-0.09704565
1764762966.610638,-5.92088,1.34288,0.59514,-0.91808847,0.363341355,-0.096862545
1764762966.610638,-5.92088,1.34288,0.59514,-0.91808847,0.363341355,-0.096862545
1764762966.6571271,-5.92088,1.34288,0.59514,-0.91808847,0.363341355,-0.096862545
1764762966.6571271,-5.92088,1.34288,0.59514,-0.91808847,0.363341355,-0.096862545
1764762966.6571271,-5.92088,1.34288,0.59514,-0.91808847,0.363341355,-0.096862545
1764762966.6571271,-5.92088,1.34288,0.59514,-0.91808847,0.363341355,-0.096862545
1764762966.6571271,-5.92088,1.34288,0.59514,-0.91808847,0.363341355,-0.096862545
1764762966.6571271,-5.92088,1.34288,0.59514,-0.91808847,0.363341355,-0.096862545
1764762966.6571271,-5.92088,1.34288,0.59514,-0.91808847,0.363341355,-0.096862545
1764762966.6571271,-5.92088,1.34288,0.59514,-0.91808847,0.363341355,-0.096862545
1764762966.6571271,-4.94424,0.71722,0.01526,-0.918637785,0.361510305,-0.09716772
1764762966.6571271,-4.94424,0.71722,0.01526,-0.918637785,0.361510305,-0.09716772
1764762966.6571271,-4.94424,0.71722,0.01526,-0.918637785,0.361510305,-0.09716772
1764762966.6571271,-4.94424,0.71722,0.01526,-0.918637785,0.361510305,-0.09716772
1764762966.6571271,-4.94424,0.71722,0.01526,-0.918637785,0.361510305,-0.09716772
1764762966.6571271,-4.94424,0.71722,0.01526,-0.918637785,0.361510305,-0.09716772
1764762966.6571271,-4.94424,0.71722,0.01526,-0.918637785,0.361510305,-0.09716772
1764762966.6571271,-4.94424,0.71722,0.01526,-0.918637785,0.361510305,-0.09716772
1764762966.6571271,-4.94424,0.71722,0.01526,-0.918637785,0.361510305,-0.09716772
1764762966.6571271,-4.94424,0.71722,0.01526,-0.918637785,0.361510305,-0.09716772
1764762966.6571271,-4.22702,0.94612,-0.3509799999999999,-0.91760019,0.35827545,-0.09814428
1764762966.6571271,-4.22702,0.94612,-0.3509799999999999,-0.91760019,0.35827545,-0.09814428
1764762966.6571271,-4.22702,0.94612,-0.3509799999999999,-0.91760019,0.35827545,-0.09814428
1764762966.6571271,-4.22702,0.94612,-0.3509799999999999,-0.91760019,0.35827545,-0.09814428
1764762966.6571271,-4.22702,0.94612,-0.3509799999999999,-0.91760019,0.35827545,-0.09814428
1764762966.6571271,-4.22702,0.94612,-0.3509799999999999,-0.91760019,0.35827545,-0.09814428
1764762966.7032712,-4.22702,0.94612,-0.3509799999999999,-0.91760019,0.35827545,-0.09814428
1764762966.7032712,-4.22702,0.94612,-0.3509799999999999,-0.91760019,0.35827545,-0.09814428
1764762966.7032712,-4.22702,0.94612,-0.3509799999999999,-0.91760019,0.35827545,-0.09814428
1764762966.7032712,-4.22702,0.94612,-0.3509799999999999,-0.91760019,0.35827545,-0.09814428
1764762966.7032712,-5.00528,0.09156,0.1678599999999999,-0.918881925,0.357115785,-0.098449455
1764762966.7032712,-5.00528,0.09156,0.1678599999999999,-0.918881925,0.357115785,-0.098449455
1764762966.7032712,-5.00528,0.09156,0.1678599999999999,-0.918881925,0.357115785,-0.098449455
1764762966.7032712,-5.00528,0.09156,0.1678599999999999,-0.918881925,0.357115785,-0.098449455
1764762966.7032712,-5.00528,0.09156,0.1678599999999999,-0.918881925,0.357115785,-0.098449455
1764762966.7032712,-5.00528,0.09156,0.1678599999999999,-0.918881925,0.357115785,-0.098449455
1764762966.7032712,-5.00528,0.09156,0.1678599999999999,-0.918881925,0.357115785,-0.098449455
1764762966.7032712,-5.00528,0.09156,0.1678599999999999,-0.918881925,0.357115785,-0.098449455
1764762966.7032712,-5.00528,0.09156,0.1678599999999999,-0.918881925,0.357115785,-0.098449455
1764762966.7032712,-5.00528,0.09156,0.1678599999999999,-0.918881925,0.357115785,-0.098449455
1764762966.7032712,-5.81406,0.8698199999999999,0.01526,-0.9204078,0.360045465,-0.098571525
1764762966.7032712,-5.81406,0.8698199999999999,0.01526,-0.9204078,0.360045465,-0.098571525
1764762966.7032712,-5.81406,0.8698199999999999,0.01526,-0.9204078,0.360045465,-0.098571525
1764762966.7032712,-5.81406,0.8698199999999999,0.01526,-0.9204078,0.360045465,-0.098571525
1764762966.7032712,-5.81406,0.8698199999999999,0.01526,-0.9204078,0.360045465,-0.098571525
1764762966.7032712,-5.81406,0.8698199999999999,0.01526,-0.9204078,0.360045465,-0.098571525
1764762966.7032712,-5.81406,0.8698199999999999,0.01526,-0.9204078,0.360045465,-0.098571525
1764762966.7032712,-5.81406,0.8698199999999999,0.01526,-0.9204078,0.360045465,-0.098571525
1764762966.7032712,-5.81406,0.8698199999999999,0.01526,-0.9204078,0.360045465,-0.098571525
1764762966.7032712,-5.81406,0.8698199999999999,0.01526,-0.9204078,0.360045465,-0.098571525
1764762966.7510262,-5.46308,0.62566,0.18312,-0.92236092,0.361998585,-0.0964353
1764762966.7510262,-5.46308,0.62566,0.18312,-0.92236092,0.361998585,-0.0964353
1764762966.7510262,-5.46308,0.62566,0.18312,-0.92236092,0.361998585,-0.0964353
1764762966.7510262,-5.46308,0.62566,0.18312,-0.92236092,0.361998585,-0.0964353
1764762966.7510262,-5.46308,0.62566,0.18312,-0.92236092,0.361998585,-0.0964353
1764762966.7510262,-5.46308,0.62566,0.18312,-0.92236092,0.361998585,-0.0964353
1764762966.7510262,-5.46308,0.62566,0.18312,-0.92236092,0.361998585,-0.0964353
1764762966.7510262,-5.46308,0.62566,0.18312,-0.92236092,0.361998585,-0.0964353
1764762966.7510262,-5.46308,0.62566,0.18312,-0.92236092,0.361998585,-0.0964353
1764762966.7510262,-5.46308,0.62566,0.18312,-0.92236092,0.361998585,-0.0964353
1764762966.7510262,-5.2647,0.25942,-0.2289,-0.920346765,0.360167535,-0.09484839
1764762966.7510262,-5.2647,0.25942,-0.2289,-0.920346765,0.360167535,-0.09484839
1764762966.7510262,-5.2647,0.25942,-0.2289,-0.920346765,0.360167535,-0.09484839
1764762966.7510262,-5.2647,0.25942,-0.2289,-0.920346765,0.360167535,-0.09484839
1764762966.7510262,-5.2647,0.25942,-0.2289,-0.920346765,0.360167535,-0.09484839
1764762966.7510262,-5.2647,0.25942,-0.2289,-0.920346765,0.360167535,-0.09484839
1764762966.7510262,-5.2647,0.25942,-0.2289,-0.920346765,0.360167535,-0.09484839
1764762966.7510262,-5.2647,0.25942,-0.2289,-0.920346765,0.360167535,-0.09484839
1764762966.7510262,-5.2647,0.25942,-0.2289,-0.920346765,0.360167535,-0.09484839
1764762966.7510262,-5.2647,0.25942,-0.2289,-0.920346765,0.360167535,-0.09484839
1764762966.795295,-4.6543,0.56462,-0.24416,-0.917905365,0.356749575,-0.09533667
1764762966.795295,-4.6543,0.56462,-0.24416,-0.917905365,0.356749575,-0.09533667
1764762966.795295,-4.6543,0.56462,-0.24416,-0.917905365,0.356749575,-0.09533667
1764762966.795295,-4.6543,0.56462,-0.24416,-0.917905365,0.356749575,-0.09533667
1764762966.7963908,-4.6543,0.56462,-0.24416,-0.917905365,0.356749575,-0.09533667
1764762966.7963908,-4.6543,0.56462,-0.24416,-0.917905365,0.356749575,-0.09533667
1764762966.7963908,-4.6543,0.56462,-0.24416,-0.917905365,0.356749575,-0.09533667
1764762966.7963908,-4.6543,0.56462,-0.24416,-0.917905365,0.356749575,-0.09533667
1764762966.7963908,-4.6543,0.56462,-0.24416,-0.917905365,0.356749575,-0.09533667
1764762966.7963908,-4.6543,0.56462,-0.24416,-0.917905365,0.356749575,-0.09533667
1764762966.7963908,-3.84552,0.42728,0.0762999999999999,-0.916196385,0.354674385,-0.09680151
1764762966.7963908,-3.84552,0.42728,0.0762999999999999,-0.916196385,0.354674385,-0.09680151
1764762966.7973888,-3.84552,0.42728,0.0762999999999999,-0.916196385,0.354674385,-0.09680151
1764762966.7973888,-3.84552,0.42728,0.0762999999999999,-0.916196385,0.354674385,-0.09680151
1764762966.7973888,-3.84552,0.42728,0.0762999999999999,-0.916196385,0.354674385,-0.09680151
1764762966.7973888,-3.84552,0.42728,0.0762999999999999,-0.916196385,0.354674385,-0.09680151
1764762966.7973888,-3.84552,0.42728,0.0762999999999999,-0.916196385,0.354674385,-0.09680151
1764762966.7973888,-3.84552,0.42728,0.0762999999999999,-0.916196385,0.354674385,-0.09680151
1764762966.7973888,-3.84552,0.42728,0.0762999999999999,-0.916196385,0.354674385,-0.09680151
1764762966.7973888,-3.84552,0.42728,0.0762999999999999,-0.916196385,0.354674385,-0.09680151
1764762966.7973888,-4.07442,0.24416,0.41202,-0.916806735,0.355284735,-0.09716772
1764762966.7973888,-4.07442,0.24416,0.41202,-0.916806735,0.355284735,-0.09716772
1764762966.7973888,-4.07442,0.24416,0.41202,-0.916806735,0.355284735,-0.09716772
1764762966.7973888,-4.07442,0.24416,0.41202,-0.916806735,0.355284735,-0.09716772
1764762966.7973888,-4.07442,0.24416,0.41202,-0.916806735,0.355284735,-0.09716772
1764762966.7973888,-4.07442,0.24416,0.41202,-0.916806735,0.355284735,-0.09716772
1764762966.84333,-4.07442,0.24416,0.41202,-0.916806735,0.355284735,-0.09716772
1764762966.84333,-4.07442,0.24416,0.41202,-0.916806735,0.355284735,-0.09716772
1764762966.84333,-4.07442,0.24416,0.41202,-0.916806735,0.355284735,-0.09716772
1764762966.84333,-4.07442,0.24416,0.41202,-0.916806735,0.355284735,-0.09716772
1764762966.84333,-4.6543,0.54936,-0.3204599999999999,-0.9191871,0.357726135,-0.09692358
1764762966.84333,-4.6543,0.54936,-0.3204599999999999,-0.9191871,0.357726135,-0.09692358
1764762966.84333,-4.6543,0.54936,-0.3204599999999999,-0.9191871,0.357726135,-0.09692358
1764762966.84333,-4.6543,0.54936,-0.3204599999999999,-0.9191871,0.357726135,-0.09692358
1764762966.84333,-4.6543,0.54936,-0.3204599999999999,-0.9191871,0.357726135,-0.09692358
1764762966.84333,-4.6543,0.54936,-0.3204599999999999,-0.9191871,0.357726135,-0.09692358
1764762966.84333,-4.6543,0.54936,-0.3204599999999999,-0.9191871,0.357726135,-0.09692358
1764762966.84333,-4.6543,0.54936,-0.3204599999999999,-0.9191871,0.357726135,-0.09692358
1764762966.84333,-4.6543,0.54936,-0.3204599999999999,-0.9191871,0.357726135,-0.09692358
1764762966.84333,-4.6543,0.54936,-0.3204599999999999,-0.9191871,0.357726135,-0.09692358
1764762966.84333,-5.7225,1.2971,-0.3357199999999999,-0.918881925,0.359679255,-0.09545874
1764762966.84333,-5.7225,1.2971,-0.3357199999999999,-0.918881925,0.359679255,-0.09545874
1764762966.84333,-5.7225,1.2971,-0.3357199999999999,-0.918881925,0.359679255,-0.09545874
1764762966.8438509,-5.7225,1.2971,-0.3357199999999999,-0.918881925,0.359679255,-0.09545874
1764762966.8438509,-5.7225,1.2971,-0.3357199999999999,-0.918881925,0.359679255,-0.09545874
1764762966.8438509,-5.7225,1.2971,-0.3357199999999999,-0.918881925,0.359679255,-0.09545874
1764762966.8438509,-5.7225,1.2971,-0.3357199999999999,-0.918881925,0.359679255,-0.09545874
1764762966.8438509,-5.7225,1.2971,-0.3357199999999999,-0.918881925,0.359679255,-0.09545874
1764762966.8925345,-5.7225,1.2971,-0.3357199999999999,-0.918881925,0.359679255,-0.09545874
1764762966.8925345,-5.7225,1.2971,-0.3357199999999999,-0.918881925,0.359679255,-0.09545874
1764762966.8925345,-4.74586,0.8087799999999999,0.3509799999999999,-0.920590905,0.3601065,-0.09570288
1764762966.8925345,-4.74586,0.8087799999999999,0.3509799999999999,-0.920590905,0.3601065,-0.09570288
1764762966.8925345,-4.74586,0.8087799999999999,0.3509799999999999,-0.920590905,0.3601065,-0.09570288
1764762966.8925345,-4.74586,0.8087799999999999,0.3509799999999999,-0.920590905,0.3601065,-0.09570288
1764762966.8925345,-4.74586,0.8087799999999999,0.3509799999999999,-0.920590905,0.3601065,-0.09570288
1764762966.8925345,-4.74586,0.8087799999999999,0.3509799999999999,-0.920590905,0.3601065,-0.09570288
1764762966.8925345,-4.74586,0.8087799999999999,0.3509799999999999,-0.920590905,0.3601065,-0.09570288
1764762966.8930588,-4.74586,0.8087799999999999,0.3509799999999999,-0.920590905,0.3601065,-0.09570288
1764762966.8930588,-4.74586,0.8087799999999999,0.3509799999999999,-0.920590905,0.3601065,-0.09570288
1764762966.8930588,-4.74586,0.8087799999999999,0.3509799999999999,-0.920590905,0.3601065,-0.09570288
1764762966.8930588,-4.08968,0.763,0.1525999999999999,-0.920468835,0.357970275,-0.09680151
1764762966.8930588,-4.08968,0.763,0.1525999999999999,-0.920468835,0.357970275,-0.09680151
1764762966.8930588,-4.08968,0.763,0.1525999999999999,-0.920468835,0.357970275,-0.09680151
1764762966.8930588,-4.08968,0.763,0.1525999999999999,-0.920468835,0.357970275,-0.09680151
1764762966.8930588,-4.08968,0.763,0.1525999999999999,-0.920468835,0.357970275,-0.09680151
1764762966.8930588,-4.08968,0.763,0.1525999999999999,-0.920468835,0.357970275,-0.09680151
1764762966.8930588,-4.08968,0.763,0.1525999999999999,-0.920468835,0.357970275,-0.09680151
1764762966.8930588,-4.08968,0.763,0.1525999999999999,-0.920468835,0.357970275,-0.09680151
1764762966.8930588,-4.08968,0.763,0.1525999999999999,-0.920468835,0.357970275,-0.09680151
1764762966.8930588,-4.08968,0.763,0.1525999999999999,-0.920468835,0.357970275,-0.09680151
1764762966.9392948,-4.39488,0.9919,1.2971,-0.92101815,0.356871645,-0.09741186
1764762966.9392948,-4.39488,0.9919,1.2971,-0.92101815,0.356871645,-0.09741186
1764762966.9392948,-4.39488,0.9919,1.2971,-0.92101815,0.356871645,-0.09741186
1764762966.9392948,-4.39488,0.9919,1.2971,-0.92101815,0.356871645,-0.09741186
1764762966.9392948,-4.39488,0.9919,1.2971,-0.92101815,0.356871645,-0.09741186
1764762966.9392948,-4.39488,0.9919,1.2971,-0.92101815,0.356871645,-0.09741186
1764762966.9392948,-4.39488,0.9919,1.2971,-0.92101815,0.356871645,-0.09741186
1764762966.9392948,-4.39488,0.9919,1.2971,-0.92101815,0.356871645,-0.09741186
1764762966.9392948,-4.39488,0.9919,1.2971,-0.92101815,0.356871645,-0.09741186
1764762966.9392948,-4.39488,0.9919,1.2971,-0.92101815,0.356871645,-0.09741186
1764762966.9392948,-4.60852,0.82404,1.4497,-0.92089608,0.35790924,-0.09790014
1764762966.9392948,-4.60852,0.82404,1.4497,-0.92089608,0.35790924,-0.09790014
1764762966.9392948,-4.60852,0.82404,1.4497,-0.92089608,0.35790924,-0.09790014
1764762966.9392948,-4.60852,0.82404,1.4497,-0.92089608,0.35790924,-0.09790014
1764762966.9392948,-4.60852,0.82404,1.4497,-0.92089608,0.35790924,-0.09790014
1764762966.9392948,-4.60852,0.82404,1.4497,-0.92089608,0.35790924,-0.09790014
1764762966.9392948,-4.60852,0.82404,1.4497,-0.92089608,0.35790924,-0.09790014
1764762966.9392948,-4.60852,0.82404,1.4497,-0.92089608,0.35790924,-0.09790014
1764762966.9392948,-4.60852,0.82404,1.4497,-0.92089608,0.35790924,-0.09790014
1764762966.9392948,-4.60852,0.82404,1.4497,-0.92089608,0.35790924,-0.09790014
1764762966.9392948,-5.00528,0.77826,0.97664,-0.919248135,0.358214415,-0.096374265
1764762966.9392948,-5.00528,0.77826,0.97664,-0.919248135,0.358214415,-0.096374265
1764762966.9392948,-5.00528,0.77826,0.97664,-0.919248135,0.358214415,-0.096374265
1764762966.9392948,-5.00528,0.77826,0.97664,-0.919248135,0.358214415,-0.096374265
1764762966.982942,-5.00528,0.77826,0.97664,-0.919248135,0.358214415,-0.096374265
1764762966.982942,-5.00528,0.77826,0.97664,-0.919248135,0.358214415,-0.096374265
1764762966.982942,-5.00528,0.77826,0.97664,-0.919248135,0.358214415,-0.096374265
1764762966.982942,-5.00528,0.77826,0.97664,-0.919248135,0.358214415,-0.096374265
1764762966.982942,-5.00528,0.77826,0.97664,-0.919248135,0.358214415,-0.096374265
1764762966.982942,-5.00528,0.77826,0.97664,-0.919248135,0.358214415,-0.096374265
1764762966.982942,-4.51696,0.51884,0.21364,-0.918149505,0.35803131,-0.094787355
1764762966.982942,-4.51696,0.51884,0.21364,-0.918149505,0.35803131,-0.094787355
1764762966.982942,-4.51696,0.51884,0.21364,-0.918149505,0.35803131,-0.094787355
1764762966.982942,-4.51696,0.51884,0.21364,-0.918149505,0.35803131,-0.094787355
1764762966.982942,-4.51696,0.51884,0.21364,-0.918149505,0.35803131,-0.094787355
1764762966.982942,-4.51696,0.51884,0.21364,-0.918149505,0.35803131,-0.094787355
1764762966.982942,-4.51696,0.51884,0.21364,-0.918149505,0.35803131,-0.094787355
1764762966.982942,-4.51696,0.51884,0.21364,-0.918149505,0.35803131,-0.094787355
1764762966.982942,-4.51696,0.51884,0.21364,-0.918149505,0.35803131,-0.094787355
1764762966.982942,-4.51696,0.51884,0.21364,-0.918149505,0.35803131,-0.094787355
1764762966.982942,-3.98286,-0.6103999999999999,-0.04578,-0.91698984,0.358458555,-0.09509253
1764762966.982942,-3.98286,-0.6103999999999999,-0.04578,-0.91698984,0.358458555,-0.09509253
1764762966.982942,-3.98286,-0.6103999999999999,-0.04578,-0.91698984,0.358458555,-0.09509253
1764762966.982942,-3.98286,-0.6103999999999999,-0.04578,-0.91698984,0.358458555,-0.09509253
1764762966.982942,-3.98286,-0.6103999999999999,-0.04578,-0.91698984,0.358458555,-0.09509253
1764762966.982942,-3.98286,-0.6103999999999999,-0.04578,-0.91698984,0.358458555,-0.09509253
1764762966.982942,-3.98286,-0.6103999999999999,-0.04578,-0.91698984,0.358458555,-0.09509253
1764762966.982942,-3.98286,-0.6103999999999999,-0.04578,-0.91698984,0.358458555,-0.09509253
1764762966.982942,-3.98286,-0.6103999999999999,-0.04578,-0.91698984,0.358458555,-0.09509253
1764762966.982942,-3.98286,-0.6103999999999999,-0.04578,-0.91698984,0.358458555,-0.09509253
1764762967.0304868,-4.47118,-0.10682,-0.50358,-0.916074315,0.360289605,-0.09838842
1764762967.0304868,-4.47118,-0.10682,-0.50358,-0.916074315,0.360289605,-0.09838842
1764762967.0317094,-4.47118,-0.10682,-0.50358,-0.916074315,0.360289605,-0.09838842
1764762967.0317094,-4.47118,-0.10682,-0.50358,-0.916074315,0.360289605,-0.09838842
1764762967.0317094,-4.47118,-0.10682,-0.50358,-0.916074315,0.360289605,-0.09838842
1764762967.0317094,-4.47118,-0.10682,-0.50358,-0.916074315,0.360289605,-0.09838842
1764762967.0317094,-4.47118,-0.10682,-0.50358,-0.916074315,0.360289605,-0.09838842
1764762967.0317094,-4.47118,-0.10682,-0.50358,-0.916074315,0.360289605,-0.09838842
1764762967.0317094,-4.47118,-0.10682,-0.50358,-0.916074315,0.360289605,-0.09838842
1764762967.0317094,-4.47118,-0.10682,-0.50358,-0.916074315,0.360289605,-0.09838842
1764762967.0317094,-5.55464,0.28994,-0.09156,-0.91698984,0.361022025,-0.09960912
1764762967.0317094,-5.55464,0.28994,-0.09156,-0.91698984,0.361022025,-0.09960912
1764762967.0317094,-5.55464,0.28994,-0.09156,-0.91698984,0.361022025,-0.09960912
1764762967.0317094,-5.55464,0.28994,-0.09156,-0.91698984,0.361022025,-0.09960912
1764762967.0317094,-5.55464,0.28994,-0.09156,-0.91698984,0.361022025,-0.09960912
1764762967.0317094,-5.55464,0.28994,-0.09156,-0.91698984,0.361022025,-0.09960912
1764762967.0317094,-5.55464,0.28994,-0.09156,-0.91698984,0.361022025,-0.09960912
1764762967.0317094,-5.55464,0.28994,-0.09156,-0.91698984,0.361022025,-0.09960912
1764762967.0317094,-5.55464,0.28994,-0.09156,-0.91698984,0.361022025,-0.09960912
1764762967.0317094,-5.55464,0.28994,-0.09156,-0.91698984,0.361022025,-0.09960912
1764762967.0317094,-5.82932,0.93086,0.2289,-0.91943124,0.36083892,-0.09863256
1764762967.0317094,-5.82932,0.93086,0.2289,-0.91943124,0.36083892,-0.09863256
1764762967.0317094,-5.82932,0.93086,0.2289,-0.91943124,0.36083892,-0.09863256
1764762967.0317094,-5.82932,0.93086,0.2289,-0.91943124,0.36083892,-0.09863256
1764762967.077979,-5.82932,0.93086,0.2289,-0.91943124,0.36083892,-0.09863256
1764762967.077979,-5.82932,0.93086,0.2289,-0.91943124,0.36083892,-0.09863256
1764762967.077979,-5.82932,0.93086,0.2289,-0.91943124,0.36083892,-0.09863256
1764762967.077979,-5.82932,0.93086,0.2289,-0.91943124,0.36083892,-0.09863256
1764762967.077979,-5.82932,0.93086,0.2289,-0.91943124,0.36083892,-0.09863256
1764762967.077979,-5.82932,0.93086,0.2289,-0.91943124,0.36083892,-0.09863256
1764762967.077979,-5.76828,1.0682,0.54936,-0.92126229,0.35949615,-0.096496335
1764762967.077979,-5.76828,1.0682,0.54936,-0.92126229,0.35949615,-0.096496335
1764762967.077979,-5.76828,1.0682,0.54936,-0.92126229,0.35949615,-0.096496335
1764762967.077979,-5.76828,1.0682,0.54936,-0.92126229,0.35949615,-0.096496335
1764762967.077979,-5.76828,1.0682,0.54936,-0.92126229,0.35949615,-0.096496335
1764762967.077979,-5.76828,1.0682,0.54936,-0.92126229,0.35949615,-0.096496335
1764762967.077979,-5.76828,1.0682,0.54936,-0.92126229,0.35949615,-0.096496335
1764762967.077979,-5.76828,1.0682,0.54936,-0.92126229,0.35949615,-0.096496335
1764762967.077979,-5.76828,1.0682,0.54936,-0.92126229,0.35949615,-0.096496335
1764762967.077979,-5.76828,1.0682,0.54936,-0.92126229,0.35949615,-0.096496335
1764762967.077979,-4.99002,0.44254,0.19838,-0.922177815,0.35693268,-0.094299075
1764762967.077979,-4.99002,0.44254,0.19838,-0.922177815,0.35693268,-0.094299075
1764762967.077979,-4.99002,0.44254,0.19838,-0.922177815,0.35693268,-0.094299075
1764762967.0798206,-4.99002,0.44254,0.19838,-0.922177815,0.35693268,-0.094299075
1764762967.0798206,-4.99002,0.44254,0.19838,-0.922177815,0.35693268,-0.094299075
1764762967.0798206,-4.99002,0.44254,0.19838,-0.922177815,0.35693268,-0.094299075
1764762967.0798206,-4.99002,0.44254,0.19838,-0.922177815,0.35693268,-0.094299075
1764762967.0798206,-4.99002,0.44254,0.19838,-0.922177815,0.35693268,-0.094299075
1764762967.123217,-4.99002,0.44254,0.19838,-0.922177815,0.35693268,-0.094299075
1764762967.123217,-4.99002,0.44254,0.19838,-0.922177815,0.35693268,-0.094299075
1764762967.123217,-4.2728,0.1525999999999999,0.3204599999999999,-0.920957115,0.355040595,-0.094054935
1764762967.123217,-4.2728,0.1525999999999999,0.3204599999999999,-0.920957115,0.355040595,-0.094054935
1764762967.123217,-4.2728,0.1525999999999999,0.3204599999999999,-0.920957115,0.355040595,-0.094054935
1764762967.123217,-4.2728,0.1525999999999999,0.3204599999999999,-0.920957115,0.355040595,-0.094054935
1764762967.123217,-4.2728,0.1525999999999999,0.3204599999999999,-0.920957115,0.355040595,-0.094054935
1764762967.123217,-4.2728,0.1525999999999999,0.3204599999999999,-0.920957115,0.355040595,-0.094054935
1764762967.123217,-4.2728,0.1525999999999999,0.3204599999999999,-0.920957115,0.355040595,-0.094054935
1764762967.123217,-4.2728,0.1525999999999999,0.3204599999999999,-0.920957115,0.355040595,-0.094054935
1764762967.123217,-4.2728,0.1525999999999999,0.3204599999999999,-0.920957115,0.355040595,-0.094054935
1764762967.123217,-4.2728,0.1525999999999999,0.3204599999999999,-0.920957115,0.355040595,-0.094054935
1764762967.123217,-6.6381,0.44254,0.6867,-0.919248135,0.35681061,-0.093566655
1764762967.123217,-6.6381,0.44254,0.6867,-0.919248135,0.35681061,-0.093566655
1764762967.123217,-6.6381,0.44254,0.6867,-0.919248135,0.35681061,-0.093566655
1764762967.123217,-6.6381,0.44254,0.6867,-0.919248135,0.35681061,-0.093566655
1764762967.123217,-6.6381,0.44254,0.6867,-0.919248135,0.35681061,-0.093566655
1764762967.123217,-6.6381,0.44254,0.6867,-0.919248135,0.35681061,-0.093566655
1764762967.123217,-6.6381,0.44254,0.6867,-0.919248135,0.35681061,-0.093566655
1764762967.123217,-6.6381,0.44254,0.6867,-0.919248135,0.35681061,-0.093566655
1764762967.123217,-6.6381,0.44254,0.6867,-0.919248135,0.35681061,-0.093566655
1764762967.123217,-6.6381,0.44254,0.6867,-0.919248135,0.35681061,-0.093566655
1764762967.1702943,-6.39394,0.1525999999999999,-0.13734,-0.919003995,0.35803131,-0.092834235
1764762967.1702943,-6.39394,0.1525999999999999,-0.13734,-0.919003995,0.35803131,-0.092834235
1764762967.1702943,-6.39394,0.1525999999999999,-0.13734,-0.919003995,0.35803131,-0.092834235
1764762967.1702943,-6.39394,0.1525999999999999,-0.13734,-0.919003995,0.35803131,-0.092834235
1764762967.1702943,-6.39394,0.1525999999999999,-0.13734,-0.919003995,0.35803131,-0.092834235
1764762967.1702943,-6.39394,0.1525999999999999,-0.13734,-0.919003995,0.35803131,-0.092834235
1764762967.1702943,-6.39394,0.1525999999999999,-0.13734,-0.919003995,0.35803131,-0.092834235
1764762967.1702943,-6.39394,0.1525999999999999,-0.13734,-0.919003995,0.35803131,-0.092834235
1764762967.1702943,-6.39394,0.1525999999999999,-0.13734,-0.919003995,0.35803131,-0.092834235
1764762967.1702943,-6.39394,0.1525999999999999,-0.13734,-0.919003995,0.35803131,-0.092834235
1764762967.1702943,-4.86794,0.36624,0.10682,-0.91784433,0.356505435,-0.093932865
1764762967.1702943,-4.86794,0.36624,0.10682,-0.91784433,0.356505435,-0.093932865
1764762967.170802,-4.86794,0.36624,0.10682,-0.91784433,0.356505435,-0.093932865
1764762967.170802,-4.86794,0.36624,0.10682,-0.91784433,0.356505435,-0.093932865
1764762967.170802,-4.86794,0.36624,0.10682,-0.91784433,0.356505435,-0.093932865
1764762967.170802,-4.86794,0.36624,0.10682,-0.91784433,0.356505435,-0.093932865
1764762967.170802,-4.86794,0.36624,0.10682,-0.91784433,0.356505435,-0.093932865
1764762967.170802,-4.86794,0.36624,0.10682,-0.91784433,0.356505435,-0.093932865
1764762967.170802,-4.86794,0.36624,0.10682,-0.91784433,0.356505435,-0.093932865
1764762967.170802,-4.86794,0.36624,0.10682,-0.91784433,0.356505435,-0.093932865
1764762967.170802,-4.6543,1.2055399999999998,0.2289,-0.916562595,0.354674385,-0.09558081
1764762967.170802,-4.6543,1.2055399999999998,0.2289,-0.916562595,0.354674385,-0.09558081
1764762967.216682,-4.6543,1.2055399999999998,0.2289,-0.916562595,0.354674385,-0.09558081
1764762967.216682,-4.6543,1.2055399999999998,0.2289,-0.916562595,0.354674385,-0.09558081
1764762967.216682,-4.6543,1.2055399999999998,0.2289,-0.916562595,0.354674385,-0.09558081
1764762967.216682,-4.6543,1.2055399999999998,0.2289,-0.916562595,0.354674385,-0.09558081
1764762967.216682,-4.6543,1.2055399999999998,0.2289,-0.916562595,0.354674385,-0.09558081
1764762967.216682,-4.6543,1.2055399999999998,0.2289,-0.916562595,0.354674385,-0.09558081
1764762967.216682,-4.6543,1.2055399999999998,0.2289,-0.916562595,0.354674385,-0.09558081
1764762967.216682,-4.6543,1.2055399999999998,0.2289,-0.916562595,0.354674385,-0.09558081
1764762967.216682,-4.92898,0.6409199999999999,0.65618,-0.917295015,0.35620026,-0.0952146
1764762967.216682,-4.92898,0.6409199999999999,0.65618,-0.917295015,0.35620026,-0.0952146
1764762967.216682,-4.92898,0.6409199999999999,0.65618,-0.917295015,0.35620026,-0.0952146
1764762967.216682,-4.92898,0.6409199999999999,0.65618,-0.917295015,0.35620026,-0.0952146
1764762967.216682,-4.92898,0.6409199999999999,0.65618,-0.917295015,0.35620026,-0.0952146
1764762967.216682,-4.92898,0.6409199999999999,0.65618,-0.917295015,0.35620026,-0.0952146
1764762967.216682,-4.92898,0.6409199999999999,0.65618,-0.917295015,0.35620026,-0.0952146
1764762967.216682,-4.92898,0.6409199999999999,0.65618,-0.917295015,0.35620026,-0.0952146
1764762967.216682,-4.92898,0.6409199999999999,0.65618,-0.917295015,0.35620026,-0.0952146
1764762967.216682,-4.92898,0.6409199999999999,0.65618,-0.917295015,0.35620026,-0.0952146
1764762967.216682,-4.5017,0.65618,0.3051999999999999,-0.918881925,0.35876373,-0.0939939
1764762967.216682,-4.5017,0.65618,0.3051999999999999,-0.918881925,0.35876373,-0.0939939
1764762967.216682,-4.5017,0.65618,0.3051999999999999,-0.918881925,0.35876373,-0.0939939
1764762967.216682,-4.5017,0.65618,0.3051999999999999,-0.918881925,0.35876373,-0.0939939
1764762967.216682,-4.5017,0.65618,0.3051999999999999,-0.918881925,0.35876373,-0.0939939
1764762967.216682,-4.5017,0.65618,0.3051999999999999,-0.918881925,0.35876373,-0.0939939
1764762967.2635384,-4.5017,0.65618,0.3051999999999999,-0.918881925,0.35876373,-0.0939939
1764762967.2635384,-4.5017,0.65618,0.3051999999999999,-0.918881925,0.35876373,-0.0939939
1764762967.2635384,-4.5017,0.65618,0.3051999999999999,-0.918881925,0.35876373,-0.0939939
1764762967.2635384,-4.5017,0.65618,0.3051999999999999,-0.918881925,0.35876373,-0.0939939
1764762967.2635384,-4.15072,0.18312,-0.12208,-0.920468835,0.35986236,-0.09167457
1764762967.2635384,-4.15072,0.18312,-0.12208,-0.920468835,0.35986236,-0.09167457
1764762967.2635384,-4.15072,0.18312,-0.12208,-0.920468835,0.35986236,-0.09167457
1764762967.2635384,-4.15072,0.18312,-0.12208,-0.920468835,0.35986236,-0.09167457
1764762967.2635384,-4.15072,0.18312,-0.12208,-0.920468835,0.35986236,-0.09167457
1764762967.2635384,-4.15072,0.18312,-0.12208,-0.920468835,0.35986236,-0.09167457
1764762967.2635384,-4.15072,0.18312,-0.12208,-0.920468835,0.35986236,-0.09167457
1764762967.2635384,-4.15072,0.18312,-0.12208,-0.920468835,0.35986236,-0.09167457
1764762967.2635384,-4.15072,0.18312,-0.12208,-0.920468835,0.35986236,-0.09167457
1764762967.2635384,-4.15072,0.18312,-0.12208,-0.920468835,0.35986236,-0.09167457
1764762967.2635384,-3.8913,0.4578,-0.2289,-0.91991952,0.35925201,-0.092956305
1764762967.2635384,-3.8913,0.4578,-0.2289,-0.91991952,0.35925201,-0.092956305
1764762967.2635384,-3.8913,0.4578,-0.2289,-0.91991952,0.35925201,-0.092956305
1764762967.264044,-3.8913,0.4578,-0.2289,-0.91991952,0.35925201,-0.092956305
1764762967.264044,-3.8913,0.4578,-0.2289,-0.91991952,0.35925201,-0.092956305
1764762967.264044,-3.8913,0.4578,-0.2289,-0.91991952,0.35925201,-0.092956305
1764762967.264044,-3.8913,0.4578,-0.2289,-0.91991952,0.35925201,-0.092956305
1764762967.264044,-3.8913,0.4578,-0.2289,-0.91991952,0.35925201,-0.092956305
1764762967.264044,-3.8913,0.4578,-0.2289,-0.91991952,0.35925201,-0.092956305
1764762967.264044,-3.8913,0.4578,-0.2289,-0.91991952,0.35925201,-0.092956305
1764762967.264044,-4.86794,1.4039199999999998,0.73248,-0.91808847,0.35937408,-0.09533667
1764762967.264044,-4.86794,1.4039199999999998,0.73248,-0.91808847,0.35937408,-0.09533667
1764762967.309965,-4.86794,1.4039199999999998,0.73248,-0.91808847,0.35937408,-0.09533667
1764762967.309965,-4.86794,1.4039199999999998,0.73248,-0.91808847,0.35937408,-0.09533667
1764762967.309965,-4.86794,1.4039199999999998,0.73248,-0.91808847,0.35937408,-0.09533667
1764762967.309965,-4.86794,1.4039199999999998,0.73248,-0.91808847,0.35937408,-0.09533667
1764762967.309965,-4.86794,1.4039199999999998,0.73248,-0.91808847,0.35937408,-0.09533667
1764762967.309965,-4.86794,1.4039199999999998,0.73248,-0.91808847,0.35937408,-0.09533667
1764762967.309965,-4.86794,1.4039199999999998,0.73248,-0.91808847,0.35937408,-0.09533667
1764762967.309965,-4.86794,1.4039199999999998,0.73248,-0.91808847,0.35937408,-0.09533667
1764762967.309965,-5.7225,2.10588,1.8312,-0.918393645,0.35937408,-0.096130125
1764762967.309965,-5.7225,2.10588,1.8312,-0.918393645,0.35937408,-0.096130125
1764762967.309965,-5.7225,2.10588,1.8312,-0.918393645,0.35937408,-0.096130125
1764762967.309965,-5.7225,2.10588,1.8312,-0.918393645,0.35937408,-0.096130125
1764762967.309965,-5.7225,2.10588,1.8312,-0.918393645,0.35937408,-0.096130125
1764762967.309965,-5.7225,2.10588,1.8312,-0.918393645,0.35937408,-0.096130125
1764762967.309965,-5.7225,2.10588,1.8312,-0.918393645,0.35937408,-0.096130125
1764762967.309965,-5.7225,2.10588,1.8312,-0.918393645,0.35937408,-0.096130125
1764762967.309965,-5.7225,2.10588,1.8312,-0.918393645,0.35937408,-0.096130125
1764762967.309965,-5.7225,2.10588,1.8312,-0.918393645,0.35937408,-0.096130125
1764762967.309965,-5.234179999999999,1.9838,1.2055399999999998,-0.919614345,0.35742096,-0.09460425
1764762967.309965,-5.234179999999999,1.9838,1.2055399999999998,-0.919614345,0.35742096,-0.09460425
1764762967.3572557,-5.234179999999999,1.9838,1.2055399999999998,-0.919614345,0.35742096,-0.09460425
1764762967.3585792,-5.234179999999999,1.9838,1.2055399999999998,-0.919614345,0.35742096,-0.09460425
1764762967.3585792,-5.234179999999999,1.9838,1.2055399999999998,-0.919614345,0.35742096,-0.09460425
1764762967.3585792,-5.234179999999999,1.9838,1.2055399999999998,-0.919614345,0.35742096,-0.09460425
1764762967.3585792,-5.234179999999999,1.9838,1.2055399999999998,-0.919614345,0.35742096,-0.09460425
1764762967.3585792,-5.234179999999999,1.9838,1.2055399999999998,-0.919614345,0.35742096,-0.09460425
1764762967.3585792,-5.234179999999999,1.9838,1.2055399999999998,-0.919614345,0.35742096,-0.09460425
1764762967.3585792,-5.234179999999999,1.9838,1.2055399999999998,-0.919614345,0.35742096,-0.09460425
1764762967.3585792,-3.90656,1.11398,0.50358,-0.920102625,0.35595612,-0.09313941
1764762967.3585792,-3.90656,1.11398,0.50358,-0.920102625,0.35595612,-0.09313941
1764762967.3585792,-3.90656,1.11398,0.50358,-0.920102625,0.35595612,-0.09313941
1764762967.3585792,-3.90656,1.11398,0.50358,-0.920102625,0.35595612,-0.09313941
1764762967.3585792,-3.90656,1.11398,0.50358,-0.920102625,0.35595612,-0.09313941
1764762967.3585792,-3.90656,1.11398,0.50358,-0.920102625,0.35595612,-0.09313941
1764762967.3585792,-3.90656,1.11398,0.50358,-0.920102625,0.35595612,-0.09313941
1764762967.3585792,-3.90656,1.11398,0.50358,-0.920102625,0.35595612,-0.09313941
1764762967.3585792,-3.90656,1.11398,0.50358,-0.920102625,0.35595612,-0.09313941
1764762967.3585792,-3.90656,1.11398,0.50358,-0.920102625,0.35595612,-0.09313941
1764762967.3585792,-2.45686,0.41202,0.03052,-0.920835045,0.35729889,-0.092590095
1764762967.3585792,-2.45686,0.41202,0.03052,-0.920835045,0.35729889,-0.092590095
1764762967.3585792,-2.45686,0.41202,0.03052,-0.920835045,0.35729889,-0.092590095
1764762967.3585792,-2.45686,0.41202,0.03052,-0.920835045,0.35729889,-0.092590095
1764762967.3585792,-2.45686,0.41202,0.03052,-0.920835045,0.35729889,-0.092590095
1764762967.3585792,-2.45686,0.41202,0.03052,-0.920835045,0.35729889,-0.092590095
1764762967.3585792,-2.45686,0.41202,0.03052,-0.920835045,0.35729889,-0.092590095
1764762967.3585792,-2.45686,0.41202,0.03052,-0.920835045,0.35729889,-0.092590095
1764762967.4050417,-2.45686,0.41202,0.03052,-0.920835045,0.35729889,-0.092590095
1764762967.4050417,-2.45686,0.41202,0.03052,-0.920835045,0.35729889,-0.092590095
1764762967.4050417,-1.35814,0.6714399999999999,0.04578,-0.91991952,0.358214415,-0.09497046
1764762967.4050417,-1.35814,0.6714399999999999,0.04578,-0.91991952,0.358214415,-0.09497046
1764762967.4050417,-1.35814,0.6714399999999999,0.04578,-0.91991952,0.358214415,-0.09497046
1764762967.4050417,-1.35814,0.6714399999999999,0.04578,-0.91991952,0.358214415,-0.09497046
1764762967.4050417,-1.35814,0.6714399999999999,0.04578,-0.91991952,0.358214415,-0.09497046
1764762967.4050417,-1.35814,0.6714399999999999,0.04578,-0.91991952,0.358214415,-0.09497046
1764762967.4050417,-1.35814,0.6714399999999999,0.04578,-0.91991952,0.358214415,-0.09497046
1764762967.4050417,-1.35814,0.6714399999999999,0.04578,-0.91991952,0.358214415,-0.09497046
1764762967.4050417,-1.35814,0.6714399999999999,0.04578,-0.91991952,0.358214415,-0.09497046
1764762967.4050417,-1.35814,0.6714399999999999,0.04578,-0.91991952,0.358214415,-0.09497046
1764762967.4050417,-1.84646,1.34288,0.47306,-0.917661225,0.358580625,-0.096984615
1764762967.4050417,-1.84646,1.34288,0.47306,-0.917661225,0.358580625,-0.096984615
1764762967.4050417,-1.84646,1.34288,0.47306,-0.917661225,0.358580625,-0.096984615
1764762967.4050417,-1.84646,1.34288,0.47306,-0.917661225,0.358580625,-0.096984615
1764762967.4050417,-1.84646,1.34288,0.47306,-0.917661225,0.358580625,-0.096984615
1764762967.4050417,-1.84646,1.34288,0.47306,-0.917661225,0.358580625,-0.096984615
1764762967.4050417,-1.84646,1.34288,0.47306,-0.917661225,0.358580625,-0.096984615
1764762967.4050417,-1.84646,1.34288,0.47306,-0.917661225,0.358580625,-0.096984615
1764762967.4050417,-1.84646,1.34288,0.47306,-0.917661225,0.358580625,-0.096984615
1764762967.4050417,-1.84646,1.34288,0.47306,-0.917661225,0.358580625,-0.096984615
1764762967.452553,-2.12114,0.62566,0.6409199999999999,-0.918271575,0.35912994,-0.09741186
1764762967.452553,-2.12114,0.62566,0.6409199999999999,-0.918271575,0.35912994,-0.09741186
1764762967.452553,-2.12114,0.62566,0.6409199999999999,-0.918271575,0.35912994,-0.09741186
1764762967.452553,-2.12114,0.62566,0.6409199999999999,-0.918271575,0.35912994,-0.09741186
1764762967.452553,-2.12114,0.62566,0.6409199999999999,-0.918271575,0.35912994,-0.09741186
1764762967.452553,-2.12114,0.62566,0.6409199999999999,-0.918271575,0.35912994,-0.09741186
1764762967.452553,-2.12114,0.62566,0.6409199999999999,-0.918271575,0.35912994,-0.09741186
1764762967.452553,-2.12114,0.62566,0.6409199999999999,-0.918271575,0.35912994,-0.09741186
1764762967.452553,-2.12114,0.62566,0.6409199999999999,-0.918271575,0.35912994,-0.09741186
1764762967.452553,-2.12114,0.62566,0.6409199999999999,-0.918271575,0.35912994,-0.09741186
1764762967.452553,-3.54032,1.23606,0.8087799999999999,-0.91869882,0.361754445,-0.09741186
1764762967.452553,-3.54032,1.23606,0.8087799999999999,-0.91869882,0.361754445,-0.09741186
1764762967.4535594,-3.54032,1.23606,0.8087799999999999,-0.91869882,0.361754445,-0.09741186
1764762967.4535594,-3.54032,1.23606,0.8087799999999999,-0.91869882,0.361754445,-0.09741186
1764762967.4535594,-3.54032,1.23606,0.8087799999999999,-0.91869882,0.361754445,-0.09741186
1764762967.4535594,-3.54032,1.23606,0.8087799999999999,-0.91869882,0.361754445,-0.09741186
1764762967.4535594,-3.54032,1.23606,0.8087799999999999,-0.91869882,0.361754445,-0.09741186
1764762967.4535594,-3.54032,1.23606,0.8087799999999999,-0.91869882,0.361754445,-0.09741186
1764762967.4535594,-3.54032,1.23606,0.8087799999999999,-0.91869882,0.361754445,-0.09741186
1764762967.4535594,-3.54032,1.23606,0.8087799999999999,-0.91869882,0.361754445,-0.09741186
1764762967.4535594,-3.52506,1.69386,0.06104,-0.919003995,0.36193755,-0.09619116
1764762967.4535594,-3.52506,1.69386,0.06104,-0.919003995,0.36193755,-0.09619116
1764762967.49669,-3.52506,1.69386,0.06104,-0.919003995,0.36193755,-0.09619116
1764762967.49669,-3.52506,1.69386,0.06104,-0.919003995,0.36193755,-0.09619116
1764762967.49669,-3.52506,1.69386,0.06104,-0.919003995,0.36193755,-0.09619116
1764762967.49669,-3.52506,1.69386,0.06104,-0.919003995,0.36193755,-0.09619116
1764762967.49669,-3.52506,1.69386,0.06104,-0.919003995,0.36193755,-0.09619116
1764762967.49669,-3.52506,1.69386,0.06104,-0.919003995,0.36193755,-0.09619116
1764762967.49669,-3.52506,1.69386,0.06104,-0.919003995,0.36193755,-0.09619116
1764762967.49669,-3.52506,1.69386,0.06104,-0.919003995,0.36193755,-0.09619116
1764762967.49669,-3.15882,1.26658,0.59514,-0.918881925,0.360777885,-0.095397705
1764762967.49669,-3.15882,1.26658,0.59514,-0.918881925,0.360777885,-0.095397705
1764762967.49669,-3.15882,1.26658,0.59514,-0.918881925,0.360777885,-0.095397705
1764762967.49669,-3.15882,1.26658,0.59514,-0.918881925,0.360777885,-0.095397705
1764762967.49669,-3.15882,1.26658,0.59514,-0.918881925,0.360777885,-0.095397705
1764762967.49669,-3.15882,1.26658,0.59514,-0.918881925,0.360777885,-0.095397705
1764762967.49669,-3.15882,1.26658,0.59514,-0.918881925,0.360777885,-0.095397705
1764762967.49669,-3.15882,1.26658,0.59514,-0.918881925,0.360777885,-0.095397705
1764762967.49669,-3.15882,1.26658,0.59514,-0.918881925,0.360777885,-0.095397705
1764762967.49669,-3.15882,1.26658,0.59514,-0.918881925,0.360777885,-0.095397705
1764762967.49669,-3.23512,1.41918,0.56462,-0.91833261,0.35912994,-0.095275635
1764762967.4983969,-3.23512,1.41918,0.56462,-0.91833261,0.35912994,-0.095275635
1764762967.4983969,-3.23512,1.41918,0.56462,-0.91833261,0.35912994,-0.095275635
1764762967.4983969,-3.23512,1.41918,0.56462,-0.91833261,0.35912994,-0.095275635
1764762967.4983969,-3.23512,1.41918,0.56462,-0.91833261,0.35912994,-0.095275635
1764762967.4983969,-3.23512,1.41918,0.56462,-0.91833261,0.35912994,-0.095275635
1764762967.5448089,-3.23512,1.41918,0.56462,-0.91833261,0.35912994,-0.095275635
1764762967.5448089,-3.23512,1.41918,0.56462,-0.91833261,0.35912994,-0.095275635
1764762967.5448089,-3.23512,1.41918,0.56462,-0.91833261,0.35912994,-0.095275635
1764762967.5448089,-3.23512,1.41918,0.56462,-0.91833261,0.35912994,-0.095275635
1764762967.5448089,-2.86888,0.9003399999999999,0.9003399999999999,-0.918271575,0.35876373,-0.09728979
1764762967.5448089,-2.86888,0.9003399999999999,0.9003399999999999,-0.918271575,0.35876373,-0.09728979
1764762967.5448089,-2.86888,0.9003399999999999,0.9003399999999999,-0.918271575,0.35876373,-0.09728979
1764762967.5448089,-2.86888,0.9003399999999999,0.9003399999999999,-0.918271575,0.35876373,-0.09728979
1764762967.5461729,-2.86888,0.9003399999999999,0.9003399999999999,-0.918271575,0.35876373,-0.09728979
1764762967.5461729,-2.86888,0.9003399999999999,0.9003399999999999,-0.918271575,0.35876373,-0.09728979
1764762967.5461729,-2.86888,0.9003399999999999,0.9003399999999999,-0.918271575,0.35876373,-0.09728979
1764762967.5461729,-2.86888,0.9003399999999999,0.9003399999999999,-0.918271575,0.35876373,-0.09728979
1764762967.5461729,-2.86888,0.9003399999999999,0.9003399999999999,-0.918271575,0.35876373,-0.09728979
1764762967.5461729,-2.86888,0.9003399999999999,0.9003399999999999,-0.918271575,0.35876373,-0.09728979
1764762967.5461729,-2.54842,1.4497,1.35814,-0.91845468,0.358458555,-0.09838842
1764762967.5461729,-2.54842,1.4497,1.35814,-0.91845468,0.358458555,-0.09838842
1764762967.5461729,-2.54842,1.4497,1.35814,-0.91845468,0.358458555,-0.09838842
1764762967.5461729,-2.54842,1.4497,1.35814,-0.91845468,0.358458555,-0.09838842
1764762967.5461729,-2.54842,1.4497,1.35814,-0.91845468,0.358458555,-0.09838842
1764762967.5461729,-2.54842,1.4497,1.35814,-0.91845468,0.358458555,-0.09838842
1764762967.5461729,-2.54842,1.4497,1.35814,-0.91845468,0.358458555,-0.09838842
1764762967.5461729,-2.54842,1.4497,1.35814,-0.91845468,0.358458555,-0.09838842
1764762967.546682,-2.54842,1.4497,1.35814,-0.91845468,0.358458555,-0.09838842
1764762967.546682,-2.54842,1.4497,1.35814,-0.91845468,0.358458555,-0.09838842
1764762967.5942614,-3.09778,1.4039199999999998,0.8698199999999999,-0.91943124,0.35876373,-0.09728979
1764762967.5942614,-3.09778,1.4039199999999998,0.8698199999999999,-0.91943124,0.35876373,-0.09728979
1764762967.5942614,-3.09778,1.4039199999999998,0.8698199999999999,-0.91943124,0.35876373,-0.09728979
1764762967.5942614,-3.09778,1.4039199999999998,0.8698199999999999,-0.91943124,0.35876373,-0.09728979
1764762967.5942614,-3.09778,1.4039199999999998,0.8698199999999999,-0.91943124,0.35876373,-0.09728979
1764762967.5942614,-3.09778,1.4039199999999998,0.8698199999999999,-0.91943124,0.35876373,-0.09728979
1764762967.5942614,-3.09778,1.4039199999999998,0.8698199999999999,-0.91943124,0.35876373,-0.09728979
1764762967.5942614,-3.09778,1.4039199999999998,0.8698199999999999,-0.91943124,0.35876373,-0.09728979
1764762967.5942614,-3.09778,1.4039199999999998,0.8698199999999999,-0.91943124,0.35876373,-0.09728979
1764762967.5942614,-3.09778,1.4039199999999998,0.8698199999999999,-0.91943124,0.35876373,-0.09728979
1764762967.5942614,-2.8994,1.2208,0.57988,-0.921079185,0.35803131,-0.09655737
1764762967.5942614,-2.8994,1.2208,0.57988,-0.921079185,0.35803131,-0.09655737
1764762967.5942614,-2.8994,1.2208,0.57988,-0.921079185,0.35803131,-0.09655737
1764762967.5942614,-2.8994,1.2208,0.57988,-0.921079185,0.35803131,-0.09655737
1764762967.5942614,-2.8994,1.2208,0.57988,-0.921079185,0.35803131,-0.09655737
1764762967.5942614,-2.8994,1.2208,0.57988,-0.921079185,0.35803131,-0.09655737
1764762967.5942614,-2.8994,1.2208,0.57988,-0.921079185,0.35803131,-0.09655737
1764762967.5942614,-2.8994,1.2208,0.57988,-0.921079185,0.35803131,-0.09655737
1764762967.5951626,-2.8994,1.2208,0.57988,-0.921079185,0.35803131,-0.09655737
1764762967.5951626,-2.8994,1.2208,0.57988,-0.921079185,0.35803131,-0.09655737
1764762967.5951626,-2.02958,1.73964,0.51884,-0.919614345,0.35754303,-0.09692358
1764762967.5951626,-2.02958,1.73964,0.51884,-0.919614345,0.35754303,-0.09692358
1764762967.641387,-2.02958,1.73964,0.51884,-0.919614345,0.35754303,-0.09692358
1764762967.641387,-2.02958,1.73964,0.51884,-0.919614345,0.35754303,-0.09692358
1764762967.641387,-2.02958,1.73964,0.51884,-0.919614345,0.35754303,-0.09692358
1764762967.641387,-2.02958,1.73964,0.51884,-0.919614345,0.35754303,-0.09692358
1764762967.641387,-2.02958,1.73964,0.51884,-0.919614345,0.35754303,-0.09692358
1764762967.641387,-2.02958,1.73964,0.51884,-0.919614345,0.35754303,-0.09692358
1764762967.6418958,-2.02958,1.73964,0.51884,-0.919614345,0.35754303,-0.09692358
1764762967.6418958,-2.02958,1.73964,0.51884,-0.919614345,0.35754303,-0.09692358
1764762967.6418958,-3.69292,1.64808,0.3357199999999999,-0.91869882,0.35815338,-0.09692358
1764762967.6418958,-3.69292,1.64808,0.3357199999999999,-0.91869882,0.35815338,-0.09692358
1764762967.6418958,-3.69292,1.64808,0.3357199999999999,-0.91869882,0.35815338,-0.09692358
1764762967.6418958,-3.69292,1.64808,0.3357199999999999,-0.91869882,0.35815338,-0.09692358
1764762967.6418958,-3.69292,1.64808,0.3357199999999999,-0.91869882,0.35815338,-0.09692358
1764762967.6418958,-3.69292,1.64808,0.3357199999999999,-0.91869882,0.35815338,-0.09692358
1764762967.6418958,-3.69292,1.64808,0.3357199999999999,-0.91869882,0.35815338,-0.09692358
1764762967.6418958,-3.69292,1.64808,0.3357199999999999,-0.91869882,0.35815338,-0.09692358
1764762967.6418958,-3.69292,1.64808,0.3357199999999999,-0.91869882,0.35815338,-0.09692358
1764762967.6418958,-3.69292,1.64808,0.3357199999999999,-0.91869882,0.35815338,-0.09692358
1764762967.6418958,-5.63094,1.02242,0.3815,-0.918759855,0.360533745,-0.09716772
1764762967.6418958,-5.63094,1.02242,0.3815,-0.918759855,0.360533745,-0.09716772
1764762967.6418958,-5.63094,1.02242,0.3815,-0.918759855,0.360533745,-0.09716772
1764762967.6418958,-5.63094,1.02242,0.3815,-0.918759855,0.360533745,-0.09716772
1764762967.6418958,-5.63094,1.02242,0.3815,-0.918759855,0.360533745,-0.09716772
1764762967.6418958,-5.63094,1.02242,0.3815,-0.918759855,0.360533745,-0.09716772
1764762967.6418958,-5.63094,1.02242,0.3815,-0.918759855,0.360533745,-0.09716772
1764762967.6418958,-5.63094,1.02242,0.3815,-0.918759855,0.360533745,-0.09716772
1764762967.68813,-5.63094,1.02242,0.3815,-0.918759855,0.360533745,-0.09716772
1764762967.68813,-5.63094,1.02242,0.3815,-0.918759855,0.360533745,-0.09716772
1764762967.68813,-3.78448,0.9919,-0.12208,-0.918881925,0.359801325,-0.09741186
1764762967.68813,-3.78448,0.9919,-0.12208,-0.918881925,0.359801325,-0.09741186
1764762967.68813,-3.78448,0.9919,-0.12208,-0.918881925,0.359801325,-0.09741186
1764762967.68813,-3.78448,0.9919,-0.12208,-0.918881925,0.359801325,-0.09741186
1764762967.68813,-3.78448,0.9919,-0.12208,-0.918881925,0.359801325,-0.09741186
1764762967.68813,-3.78448,0.9919,-0.12208,-0.918881925,0.359801325,-0.09741186
1764762967.68813,-3.78448,0.9919,-0.12208,-0.918881925,0.359801325,-0.09741186
1764762967.68813,-3.78448,0.9919,-0.12208,-0.918881925,0.359801325,-0.09741186
1764762967.68813,-3.78448,0.9919,-0.12208,-0.918881925,0.359801325,-0.09741186
1764762967.68813,-3.78448,0.9919,-0.12208,-0.918881925,0.359801325,-0.09741186
1764762967.68813,-3.90656,1.32762,-0.24416,-0.917783295,0.35790924,-0.098449455
1764762967.68813,-3.90656,1.32762,-0.24416,-0.917783295,0.35790924,-0.098449455
1764762967.68813,-3.90656,1.32762,-0.24416,-0.917783295,0.35790924,-0.098449455
1764762967.68813,-3.90656,1.32762,-0.24416,-0.917783295,0.35790924,-0.098449455
1764762967.68813,-3.90656,1.32762,-0.24416,-0.917783295,0.35790924,-0.098449455
1764762967.68813,-3.90656,1.32762,-0.24416,-0.917783295,0.35790924,-0.098449455
1764762967.68813,-3.90656,1.32762,-0.24416,-0.917783295,0.35790924,-0.098449455
1764762967.68813,-3.90656,1.32762,-0.24416,-0.917783295,0.35790924,-0.098449455
1764762967.68813,-3.90656,1.32762,-0.24416,-0.917783295,0.35790924,-0.098449455
1764762967.68813,-3.90656,1.32762,-0.24416,-0.917783295,0.35790924,-0.098449455
1764762967.7323694,-4.53222,0.7019599999999999,0.09156,-0.91845468,0.357481995,-0.098205315
1764762967.7323694,-4.53222,0.7019599999999999,0.09156,-0.91845468,0.357481995,-0.098205315
1764762967.7323694,-4.53222,0.7019599999999999,0.09156,-0.91845468,0.357481995,-0.098205315
1764762967.7323694,-4.53222,0.7019599999999999,0.09156,-0.91845468,0.357481995,-0.098205315
1764762967.7323694,-4.53222,0.7019599999999999,0.09156,-0.91845468,0.357481995,-0.098205315
1764762967.7323694,-4.53222,0.7019599999999999,0.09156,-0.91845468,0.357481995,-0.098205315
1764762967.7323694,-4.53222,0.7019599999999999,0.09156,-0.91845468,0.357481995,-0.098205315
1764762967.7323694,-4.53222,0.7019599999999999,0.09156,-0.91845468,0.357481995,-0.098205315
1764762967.7323694,-4.53222,0.7019599999999999,0.09156,-0.91845468,0.357481995,-0.098205315
1764762967.7323694,-4.53222,0.7019599999999999,0.09156,-0.91845468,0.357481995,-0.098205315
1764762967.7323694,-5.15788,0.6867,0.77826,-0.920346765,0.35839752,-0.09875463
1764762967.7323694,-5.15788,0.6867,0.77826,-0.920346765,0.35839752,-0.09875463
1764762967.7323694,-5.15788,0.6867,0.77826,-0.920346765,0.35839752,-0.09875463
1764762967.7323694,-5.15788,0.6867,0.77826,-0.920346765,0.35839752,-0.09875463
1764762967.7323694,-5.15788,0.6867,0.77826,-0.920346765,0.35839752,-0.09875463
1764762967.7323694,-5.15788,0.6867,0.77826,-0.920346765,0.35839752,-0.09875463
1764762967.7323694,-5.15788,0.6867,0.77826,-0.920346765,0.35839752,-0.09875463
1764762967.7323694,-5.15788,0.6867,0.77826,-0.920346765,0.35839752,-0.09875463
1764762967.7334175,-5.15788,0.6867,0.77826,-0.920346765,0.35839752,-0.09875463
1764762967.7334175,-5.15788,0.6867,0.77826,-0.920346765,0.35839752,-0.09875463
1764762967.7334175,-3.03674,1.08346,0.88508,-0.922055745,0.35803131,-0.097228755
1764762967.7334175,-3.03674,1.08346,0.88508,-0.922055745,0.35803131,-0.097228755
1764762967.7334175,-3.03674,1.08346,0.88508,-0.922055745,0.35803131,-0.097228755
1764762967.7334175,-3.03674,1.08346,0.88508,-0.922055745,0.35803131,-0.097228755
1764762967.780933,-3.03674,1.08346,0.88508,-0.922055745,0.35803131,-0.097228755
1764762967.780933,-3.03674,1.08346,0.88508,-0.922055745,0.35803131,-0.097228755
1764762967.780933,-3.03674,1.08346,0.88508,-0.922055745,0.35803131,-0.097228755
1764762967.780933,-3.03674,1.08346,0.88508,-0.922055745,0.35803131,-0.097228755
1764762967.780933,-3.03674,1.08346,0.88508,-0.922055745,0.35803131,-0.097228755
1764762967.780933,-3.03674,1.08346,0.88508,-0.922055745,0.35803131,-0.097228755
1764762967.780933,-1.9075,0.6867,0.3815,-0.92175057,0.35790924,-0.09692358
1764762967.780933,-1.9075,0.6867,0.3815,-0.92175057,0.35790924,-0.09692358
1764762967.780933,-1.9075,0.6867,0.3815,-0.92175057,0.35790924,-0.09692358
1764762967.780933,-1.9075,0.6867,0.3815,-0.92175057,0.35790924,-0.09692358
1764762967.780933,-1.9075,0.6867,0.3815,-0.92175057,0.35790924,-0.09692358
1764762967.780933,-1.9075,0.6867,0.3815,-0.92175057,0.35790924,-0.09692358
1764762967.780933,-1.9075,0.6867,0.3815,-0.92175057,0.35790924,-0.09692358
1764762967.780933,-1.9075,0.6867,0.3815,-0.92175057,0.35790924,-0.09692358
1764762967.780933,-1.9075,0.6867,0.3815,-0.92175057,0.35790924,-0.09692358
1764762967.780933,-1.9075,0.6867,0.3815,-0.92175057,0.35790924,-0.09692358
1764762967.780933,-3.55558,0.96138,0.3051999999999999,-0.91857675,0.358824765,-0.097717035
1764762967.780933,-3.55558,0.96138,0.3051999999999999,-0.91857675,0.358824765,-0.097717035
1764762967.780933,-3.55558,0.96138,0.3051999999999999,-0.91857675,0.358824765,-0.097717035
1764762967.780933,-3.55558,0.96138,0.3051999999999999,-0.91857675,0.358824765,-0.097717035
1764762967.780933,-3.55558,0.96138,0.3051999999999999,-0.91857675,0.358824765,-0.097717035
1764762967.780933,-3.55558,0.96138,0.3051999999999999,-0.91857675,0.358824765,-0.097717035
1764762967.780933,-3.55558,0.96138,0.3051999999999999,-0.91857675,0.358824765,-0.097717035
1764762967.780933,-3.55558,0.96138,0.3051999999999999,-0.91857675,0.358824765,-0.097717035
1764762967.828919,-3.55558,0.96138,0.3051999999999999,-0.91857675,0.358824765,-0.097717035
1764762967.828919,-3.55558,0.96138,0.3051999999999999,-0.91857675,0.358824765,-0.097717035
1764762967.828919,-5.35626,1.4039199999999998,1.7549,-0.915586035,0.359801325,-0.09863256
1764762967.828919,-5.35626,1.4039199999999998,1.7549,-0.915586035,0.359801325,-0.09863256
1764762967.828919,-5.35626,1.4039199999999998,1.7549,-0.915586035,0.359801325,-0.09863256
1764762967.828919,-5.35626,1.4039199999999998,1.7549,-0.915586035,0.359801325,-0.09863256
1764762967.828919,-5.35626,1.4039199999999998,1.7549,-0.915586035,0.359801325,-0.09863256
1764762967.828919,-5.35626,1.4039199999999998,1.7549,-0.915586035,0.359801325,-0.09863256
1764762967.828919,-5.35626,1.4039199999999998,1.7549,-0.915586035,0.359801325,-0.09863256
1764762967.828919,-5.35626,1.4039199999999998,1.7549,-0.915586035,0.359801325,-0.09863256
1764762967.828919,-5.35626,1.4039199999999998,1.7549,-0.915586035,0.359801325,-0.09863256
1764762967.828919,-5.35626,1.4039199999999998,1.7549,-0.915586035,0.359801325,-0.09863256
1764762967.828919,-6.958559999999999,1.93802,2.10588,-0.915830175,0.358580625,-0.098693595
1764762967.828919,-6.958559999999999,1.93802,2.10588,-0.915830175,0.358580625,-0.098693595
1764762967.828919,-6.958559999999999,1.93802,2.10588,-0.915830175,0.358580625,-0.098693595
1764762967.828919,-6.958559999999999,1.93802,2.10588,-0.915830175,0.358580625,-0.098693595
1764762967.828919,-6.958559999999999,1.93802,2.10588,-0.915830175,0.358580625,-0.098693595
1764762967.828919,-6.958559999999999,1.93802,2.10588,-0.915830175,0.358580625,-0.098693595
1764762967.828919,-6.958559999999999,1.93802,2.10588,-0.915830175,0.358580625,-0.098693595
1764762967.828919,-6.958559999999999,1.93802,2.10588,-0.915830175,0.358580625,-0.098693595
1764762967.828919,-6.958559999999999,1.93802,2.10588,-0.915830175,0.358580625,-0.098693595
1764762967.828919,-6.958559999999999,1.93802,2.10588,-0.915830175,0.358580625,-0.098693595
1764762967.8718214,-6.66862,1.70912,1.32762,-0.917172945,0.357115785,-0.09753393
1764762967.8718214,-6.66862,1.70912,1.32762,-0.917172945,0.357115785,-0.09753393
1764762967.8718214,-6.66862,1.70912,1.32762,-0.917172945,0.357115785,-0.09753393
1764762967.8718214,-6.66862,1.70912,1.32762,-0.917172945,0.357115785,-0.09753393
1764762967.8718214,-6.66862,1.70912,1.32762,-0.917172945,0.357115785,-0.09753393
1764762967.8718214,-6.66862,1.70912,1.32762,-0.917172945,0.357115785,-0.09753393
1764762967.8718214,-6.66862,1.70912,1.32762,-0.917172945,0.357115785,-0.09753393
1764762967.8718214,-6.66862,1.70912,1.32762,-0.917172945,0.357115785,-0.09753393
1764762967.8718214,-6.66862,1.70912,1.32762,-0.917172945,0.357115785,-0.09753393
1764762967.8718214,-6.66862,1.70912,1.32762,-0.917172945,0.357115785,-0.09753393
1764762967.8718214,-5.38678,1.526,1.19028,-0.918149505,0.355528875,-0.09655737
1764762967.8718214,-5.38678,1.526,1.19028,-0.918149505,0.355528875,-0.09655737
1764762967.8718214,-5.38678,1.526,1.19028,-0.918149505,0.355528875,-0.09655737
1764762967.8718214,-5.38678,1.526,1.19028,-0.918149505,0.355528875,-0.09655737
1764762967.8718214,-5.38678,1.526,1.19028,-0.918149505,0.355528875,-0.09655737
1764762967.8718214,-5.38678,1.526,1.19028,-0.918149505,0.355528875,-0.09655737
1764762967.8718214,-5.38678,1.526,1.19028,-0.918149505,0.355528875,-0.09655737
1764762967.8718214,-5.38678,1.526,1.19028,-0.918149505,0.355528875,-0.09655737
1764762967.8718214,-5.38678,1.526,1.19028,-0.918149505,0.355528875,-0.09655737
1764762967.8718214,-5.38678,1.526,1.19028,-0.918149505,0.355528875,-0.09655737
1764762967.8718214,-2.99096,0.12208,0.77826,-0.919736415,0.354003,-0.09570288
1764762967.8718214,-2.99096,0.12208,0.77826,-0.919736415,0.354003,-0.09570288
1764762967.8718214,-2.99096,0.12208,0.77826,-0.919736415,0.354003,-0.09570288
1764762967.8718214,-2.99096,0.12208,0.77826,-0.919736415,0.354003,-0.09570288
1764762967.9187052,-2.99096,0.12208,0.77826,-0.919736415,0.354003,-0.09570288
1764762967.9187052,-2.99096,0.12208,0.77826,-0.919736415,0.354003,-0.09570288
1764762967.9187052,-2.99096,0.12208,0.77826,-0.919736415,0.354003,-0.09570288
1764762967.9187052,-2.99096,0.12208,0.77826,-0.919736415,0.354003,-0.09570288
1764762967.919713,-2.99096,0.12208,0.77826,-0.919736415,0.354003,-0.09570288
1764762967.919713,-2.99096,0.12208,0.77826,-0.919736415,0.354003,-0.09570288
1764762967.919713,-3.00622,0.09156,0.09156,-0.918271575,0.354186105,-0.096374265
1764762967.919713,-3.00622,0.09156,0.09156,-0.918271575,0.354186105,-0.096374265
1764762967.919713,-3.00622,0.09156,0.09156,-0.918271575,0.354186105,-0.096374265
1764762967.919713,-3.00622,0.09156,0.09156,-0.918271575,0.354186105,-0.096374265
1764762967.919713,-3.00622,0.09156,0.09156,-0.918271575,0.354186105,-0.096374265
1764762967.919713,-3.00622,0.09156,0.09156,-0.918271575,0.354186105,-0.096374265
1764762967.9208765,-3.00622,0.09156,0.09156,-0.918271575,0.354186105,-0.096374265
1764762967.9208765,-3.00622,0.09156,0.09156,-0.918271575,0.354186105,-0.096374265
1764762967.9208765,-3.00622,0.09156,0.09156,-0.918271575,0.354186105,-0.096374265
1764762967.9208765,-3.00622,0.09156,0.09156,-0.918271575,0.354186105,-0.096374265
1764762967.9208765,-3.72344,0.3357199999999999,0.1678599999999999,-0.91735605,0.355406805,-0.098449455
1764762967.9208765,-3.72344,0.3357199999999999,0.1678599999999999,-0.91735605,0.355406805,-0.098449455
1764762967.9208765,-3.72344,0.3357199999999999,0.1678599999999999,-0.91735605,0.355406805,-0.098449455
1764762967.9208765,-3.72344,0.3357199999999999,0.1678599999999999,-0.91735605,0.355406805,-0.098449455
1764762967.9208765,-3.72344,0.3357199999999999,0.1678599999999999,-0.91735605,0.355406805,-0.098449455
1764762967.9208765,-3.72344,0.3357199999999999,0.1678599999999999,-0.91735605,0.355406805,-0.098449455
1764762967.967607,-3.72344,0.3357199999999999,0.1678599999999999,-0.91735605,0.355406805,-0.098449455
1764762967.967607,-3.72344,0.3357199999999999,0.1678599999999999,-0.91735605,0.355406805,-0.098449455
1764762967.967607,-3.72344,0.3357199999999999,0.1678599999999999,-0.91735605,0.355406805,-0.098449455
1764762967.967607,-3.72344,0.3357199999999999,0.1678599999999999,-0.91735605,0.355406805,-0.098449455
1764762967.967607,-4.8069,-0.21364,0.1678599999999999,-0.9167457,0.358702695,-0.09802221
1764762967.967607,-4.8069,-0.21364,0.1678599999999999,-0.9167457,0.358702695,-0.09802221
1764762967.967607,-4.8069,-0.21364,0.1678599999999999,-0.9167457,0.358702695,-0.09802221
1764762967.967607,-4.8069,-0.21364,0.1678599999999999,-0.9167457,0.358702695,-0.09802221
1764762967.967607,-4.8069,-0.21364,0.1678599999999999,-0.9167457,0.358702695,-0.09802221
1764762967.967607,-4.8069,-0.21364,0.1678599999999999,-0.9167457,0.358702695,-0.09802221
1764762967.967607,-4.8069,-0.21364,0.1678599999999999,-0.9167457,0.358702695,-0.09802221
1764762967.967607,-4.8069,-0.21364,0.1678599999999999,-0.9167457,0.358702695,-0.09802221
1764762967.967607,-4.8069,-0.21364,0.1678599999999999,-0.9167457,0.358702695,-0.09802221
1764762967.967607,-4.8069,-0.21364,0.1678599999999999,-0.9167457,0.358702695,-0.09802221
1764762967.967607,-5.12736,-0.03052,0.47306,-0.91723398,0.36059478,-0.09704565
1764762967.967607,-5.12736,-0.03052,0.47306,-0.91723398,0.36059478,-0.09704565
1764762967.967607,-5.12736,-0.03052,0.47306,-0.91723398,0.36059478,-0.09704565
1764762967.967607,-5.12736,-0.03052,0.47306,-0.91723398,0.36059478,-0.09704565
1764762967.967607,-5.12736,-0.03052,0.47306,-0.91723398,0.36059478,-0.09704565
1764762967.967607,-5.12736,-0.03052,0.47306,-0.91723398,0.36059478,-0.09704565
1764762967.967607,-5.12736,-0.03052,0.47306,-0.91723398,0.36059478,-0.09704565
1764762967.967607,-5.12736,-0.03052,0.47306,-0.91723398,0.36059478,-0.09704565
1764762967.967607,-5.12736,-0.03052,0.47306,-0.91723398,0.36059478,-0.09704565
1764762967.967607,-5.12736,-0.03052,0.47306,-0.91723398,0.36059478,-0.09704565
1764762968.0116694,-5.52412,0.57988,-0.04578,-0.91723398,0.35986236,-0.096374265
1764762968.0116694,-5.52412,0.57988,-0.04578,-0.91723398,0.35986236,-0.096374265
1764762968.0116694,-5.52412,0.57988,-0.04578,-0.91723398,0.35986236,-0.096374265
1764762968.0116694,-5.52412,0.57988,-0.04578,-0.91723398,0.35986236,-0.096374265
1764762968.0116694,-5.52412,0.57988,-0.04578,-0.91723398,0.35986236,-0.096374265
1764762968.0116694,-5.52412,0.57988,-0.04578,-0.91723398,0.35986236,-0.096374265
1764762968.0116694,-5.52412,0.57988,-0.04578,-0.91723398,0.35986236,-0.096374265
1764762968.0116694,-5.52412,0.57988,-0.04578,-0.91723398,0.35986236,-0.096374265
1764762968.0116694,-5.52412,0.57988,-0.04578,-0.91723398,0.35986236,-0.096374265
1764762968.0116694,-5.52412,0.57988,-0.04578,-0.91723398,0.35986236,-0.096374265
1764762968.0116694,-5.9514,1.1445,0.28994,-0.917783295,0.358458555,-0.096862545
1764762968.0116694,-5.9514,1.1445,0.28994,-0.917783295,0.358458555,-0.096862545
1764762968.0116694,-5.9514,1.1445,0.28994,-0.917783295,0.358458555,-0.096862545
1764762968.0116694,-5.9514,1.1445,0.28994,-0.917783295,0.358458555,-0.096862545
1764762968.0116694,-5.9514,1.1445,0.28994,-0.917783295,0.358458555,-0.096862545
1764762968.0116694,-5.9514,1.1445,0.28994,-0.917783295,0.358458555,-0.096862545
1764762968.0116694,-5.9514,1.1445,0.28994,-0.917783295,0.358458555,-0.096862545
1764762968.0116694,-5.9514,1.1445,0.28994,-0.917783295,0.358458555,-0.096862545
1764762968.0116694,-5.9514,1.1445,0.28994,-0.917783295,0.358458555,-0.096862545
1764762968.0116694,-5.9514,1.1445,0.28994,-0.917783295,0.358458555,-0.096862545
1764762968.0116694,-5.478339999999999,0.85456,0.44254,-0.917905365,0.35815338,-0.097472895
1764762968.0116694,-5.478339999999999,0.85456,0.44254,-0.917905365,0.35815338,-0.097472895
1764762968.0587225,-5.478339999999999,0.85456,0.44254,-0.917905365,0.35815338,-0.097472895
1764762968.0587225,-5.478339999999999,0.85456,0.44254,-0.917905365,0.35815338,-0.097472895
1764762968.0587225,-5.478339999999999,0.85456,0.44254,-0.917905365,0.35815338,-0.097472895
1764762968.0587225,-5.478339999999999,0.85456,0.44254,-0.917905365,0.35815338,-0.097472895
1764762968.0587225,-5.478339999999999,0.85456,0.44254,-0.917905365,0.35815338,-0.097472895
1764762968.059228,-5.478339999999999,0.85456,0.44254,-0.917905365,0.35815338,-0.097472895
1764762968.059228,-5.478339999999999,0.85456,0.44254,-0.917905365,0.35815338,-0.097472895
1764762968.059228,-5.478339999999999,0.85456,0.44254,-0.917905365,0.35815338,-0.097472895
1764762968.059228,-4.97476,0.3204599999999999,0.7019599999999999,-0.91821054,0.356993715,-0.096374265
1764762968.059228,-4.97476,0.3204599999999999,0.7019599999999999,-0.91821054,0.356993715,-0.096374265
1764762968.059228,-4.97476,0.3204599999999999,0.7019599999999999,-0.91821054,0.356993715,-0.096374265
1764762968.059228,-4.97476,0.3204599999999999,0.7019599999999999,-0.91821054,0.356993715,-0.096374265
1764762968.059228,-4.97476,0.3204599999999999,0.7019599999999999,-0.91821054,0.356993715,-0.096374265
1764762968.059228,-4.97476,0.3204599999999999,0.7019599999999999,-0.91821054,0.356993715,-0.096374265
1764762968.059228,-4.97476,0.3204599999999999,0.7019599999999999,-0.91821054,0.356993715,-0.096374265
1764762968.059228,-4.97476,0.3204599999999999,0.7019599999999999,-0.91821054,0.356993715,-0.096374265
1764762968.059228,-4.97476,0.3204599999999999,0.7019599999999999,-0.91821054,0.356993715,-0.096374265
1764762968.0597298,-4.97476,0.3204599999999999,0.7019599999999999,-0.91821054,0.356993715,-0.096374265
1764762968.0597298,-4.577999999999999,0.1678599999999999,0.41202,-0.919248135,0.35705475,-0.09582495
1764762968.0597298,-4.577999999999999,0.1678599999999999,0.41202,-0.919248135,0.35705475,-0.09582495
1764762968.0597298,-4.577999999999999,0.1678599999999999,0.41202,-0.919248135,0.35705475,-0.09582495
1764762968.0597298,-4.577999999999999,0.1678599999999999,0.41202,-0.919248135,0.35705475,-0.09582495
1764762968.0597298,-4.577999999999999,0.1678599999999999,0.41202,-0.919248135,0.35705475,-0.09582495
1764762968.0597298,-4.577999999999999,0.1678599999999999,0.41202,-0.919248135,0.35705475,-0.09582495
1764762968.0597298,-4.577999999999999,0.1678599999999999,0.41202,-0.919248135,0.35705475,-0.09582495
1764762968.0597298,-4.577999999999999,0.1678599999999999,0.41202,-0.919248135,0.35705475,-0.09582495
1764762968.1084092,-4.577999999999999,0.1678599999999999,0.41202,-0.919248135,0.35705475,-0.09582495
1764762968.1084092,-4.577999999999999,0.1678599999999999,0.41202,-0.919248135,0.35705475,-0.09582495
1764762968.1084092,-4.70008,0.41202,0.39676,-0.919248135,0.35839752,-0.09680151
1764762968.1084092,-4.70008,0.41202,0.39676,-0.919248135,0.35839752,-0.09680151
1764762968.1084092,-4.70008,0.41202,0.39676,-0.919248135,0.35839752,-0.09680151
1764762968.1084092,-4.70008,0.41202,0.39676,-0.919248135,0.35839752,-0.09680151
1764762968.1084092,-4.70008,0.41202,0.39676,-0.919248135,0.35839752,-0.09680151
1764762968.1084092,-4.70008,0.41202,0.39676,-0.919248135,0.35839752,-0.09680151
1764762968.1084092,-4.70008,0.41202,0.39676,-0.919248135,0.35839752,-0.09680151
1764762968.1084092,-4.70008,0.41202,0.39676,-0.919248135,0.35839752,-0.09680151
1764762968.1084092,-4.70008,0.41202,0.39676,-0.919248135,0.35839752,-0.09680151
1764762968.1084092,-4.70008,0.41202,0.39676,-0.919248135,0.35839752,-0.09680151
1764762968.1084092,-4.89846,0.88508,0.3815,-0.918515715,0.359557185,-0.097350825
1764762968.1084092,-4.89846,0.88508,0.3815,-0.918515715,0.359557185,-0.097350825
1764762968.1084092,-4.89846,0.88508,0.3815,-0.918515715,0.359557185,-0.097350825
1764762968.1084092,-4.89846,0.88508,0.3815,-0.918515715,0.359557185,-0.097350825
1764762968.108915,-4.89846,0.88508,0.3815,-0.918515715,0.359557185,-0.097350825
1764762968.108915,-4.89846,0.88508,0.3815,-0.918515715,0.359557185,-0.097350825
1764762968.108915,-4.89846,0.88508,0.3815,-0.918515715,0.359557185,-0.097350825
1764762968.108915,-4.89846,0.88508,0.3815,-0.918515715,0.359557185,-0.097350825
1764762968.108915,-4.89846,0.88508,0.3815,-0.918515715,0.359557185,-0.097350825
1764762968.108915,-4.89846,0.88508,0.3815,-0.918515715,0.359557185,-0.097350825
1764762968.1514072,-5.92088,1.03768,0.3509799999999999,-0.9167457,0.359801325,-0.09680151
1764762968.1514072,-5.92088,1.03768,0.3509799999999999,-0.9167457,0.359801325,-0.09680151
1764762968.1514072,-5.92088,1.03768,0.3509799999999999,-0.9167457,0.359801325,-0.09680151
1764762968.1519158,-5.92088,1.03768,0.3509799999999999,-0.9167457,0.359801325,-0.09680151
1764762968.1519158,-5.92088,1.03768,0.3509799999999999,-0.9167457,0.359801325,-0.09680151
1764762968.1519158,-5.92088,1.03768,0.3509799999999999,-0.9167457,0.359801325,-0.09680151
1764762968.1519158,-5.92088,1.03768,0.3509799999999999,-0.9167457,0.359801325,-0.09680151
1764762968.1519158,-5.92088,1.03768,0.3509799999999999,-0.9167457,0.359801325,-0.09680151
1764762968.1519158,-5.92088,1.03768,0.3509799999999999,-0.9167457,0.359801325,-0.09680151
1764762968.1519158,-5.92088,1.03768,0.3509799999999999,-0.9167457,0.359801325,-0.09680151
1764762968.1519158,-7.4011,0.77826,0.42728,-0.91772226,0.359801325,-0.095153565
1764762968.1519158,-7.4011,0.77826,0.42728,-0.91772226,0.359801325,-0.095153565
1764762968.1519158,-7.4011,0.77826,0.42728,-0.91772226,0.359801325,-0.095153565
1764762968.1519158,-7.4011,0.77826,0.42728,-0.91772226,0.359801325,-0.095153565
1764762968.1519158,-7.4011,0.77826,0.42728,-0.91772226,0.359801325,-0.095153565
1764762968.1519158,-7.4011,0.77826,0.42728,-0.91772226,0.359801325,-0.095153565
1764762968.1519158,-7.4011,0.77826,0.42728,-0.91772226,0.359801325,-0.095153565
1764762968.1519158,-7.4011,0.77826,0.42728,-0.91772226,0.359801325,-0.095153565
1764762968.1519158,-7.4011,0.77826,0.42728,-0.91772226,0.359801325,-0.095153565
1764762968.1519158,-7.4011,0.77826,0.42728,-0.91772226,0.359801325,-0.095153565
1764762968.1519158,-5.5699,0.13734,-0.06104,-0.919126065,0.358702695,-0.09533667
1764762968.1519158,-5.5699,0.13734,-0.06104,-0.919126065,0.358702695,-0.09533667
1764762968.198831,-5.5699,0.13734,-0.06104,-0.919126065,0.358702695,-0.09533667
1764762968.198831,-5.5699,0.13734,-0.06104,-0.919126065,0.358702695,-0.09533667
1764762968.198831,-5.5699,0.13734,-0.06104,-0.919126065,0.358702695,-0.09533667
1764762968.198831,-5.5699,0.13734,-0.06104,-0.919126065,0.358702695,-0.09533667
1764762968.198831,-5.5699,0.13734,-0.06104,-0.919126065,0.358702695,-0.09533667
1764762968.198831,-5.5699,0.13734,-0.06104,-0.919126065,0.358702695,-0.09533667
1764762968.198831,-5.5699,0.13734,-0.06104,-0.919126065,0.358702695,-0.09533667
1764762968.198831,-5.5699,0.13734,-0.06104,-0.919126065,0.358702695,-0.09533667
1764762968.198831,-5.371519999999999,0.44254,0.04578,-0.91723398,0.35803131,-0.096740475
1764762968.198831,-5.371519999999999,0.44254,0.04578,-0.91723398,0.35803131,-0.096740475
1764762968.198831,-5.371519999999999,0.44254,0.04578,-0.91723398,0.35803131,-0.096740475
1764762968.198831,-5.371519999999999,0.44254,0.04578,-0.91723398,0.35803131,-0.096740475
1764762968.199841,-5.371519999999999,0.44254,0.04578,-0.91723398,0.35803131,-0.096740475
1764762968.199841,-5.371519999999999,0.44254,0.04578,-0.91723398,0.35803131,-0.096740475
1764762968.199841,-5.371519999999999,0.44254,0.04578,-0.91723398,0.35803131,-0.096740475
1764762968.199841,-5.371519999999999,0.44254,0.04578,-0.91723398,0.35803131,-0.096740475
1764762968.199841,-5.371519999999999,0.44254,0.04578,-0.91723398,0.35803131,-0.096740475
1764762968.199841,-5.371519999999999,0.44254,0.04578,-0.91723398,0.35803131,-0.096740475
1764762968.199841,-5.615679999999999,0.79352,0.12208,-0.916196385,0.35827545,-0.09631323
1764762968.199841,-5.615679999999999,0.79352,0.12208,-0.916196385,0.35827545,-0.09631323
1764762968.199841,-5.615679999999999,0.79352,0.12208,-0.916196385,0.35827545,-0.09631323
1764762968.199841,-5.615679999999999,0.79352,0.12208,-0.916196385,0.35827545,-0.09631323
1764762968.199841,-5.615679999999999,0.79352,0.12208,-0.916196385,0.35827545,-0.09631323
1764762968.199841,-5.615679999999999,0.79352,0.12208,-0.916196385,0.35827545,-0.09631323
1764762968.2459388,-5.615679999999999,0.79352,0.12208,-0.916196385,0.35827545,-0.09631323
1764762968.2459388,-5.615679999999999,0.79352,0.12208,-0.916196385,0.35827545,-0.09631323
1764762968.2459388,-5.615679999999999,0.79352,0.12208,-0.916196385,0.35827545,-0.09631323
1764762968.2459388,-5.615679999999999,0.79352,0.12208,-0.916196385,0.35827545,-0.09631323
1764762968.2459388,-6.74492,0.3509799999999999,0.65618,-0.918515715,0.359068905,-0.095763915
1764762968.2459388,-6.74492,0.3509799999999999,0.65618,-0.918515715,0.359068905,-0.095763915
1764762968.2459388,-6.74492,0.3509799999999999,0.65618,-0.918515715,0.359068905,-0.095763915
1764762968.2459388,-6.74492,0.3509799999999999,0.65618,-0.918515715,0.359068905,-0.095763915
1764762968.2459388,-6.74492,0.3509799999999999,0.65618,-0.918515715,0.359068905,-0.095763915
1764762968.2459388,-6.74492,0.3509799999999999,0.65618,-0.918515715,0.359068905,-0.095763915
1764762968.2459388,-6.74492,0.3509799999999999,0.65618,-0.918515715,0.359068905,-0.095763915
1764762968.2459388,-6.74492,0.3509799999999999,0.65618,-0.918515715,0.359068905,-0.095763915
1764762968.2459388,-6.74492,0.3509799999999999,0.65618,-0.918515715,0.359068905,-0.095763915
1764762968.2459388,-6.74492,0.3509799999999999,0.65618,-0.918515715,0.359068905,-0.095763915
1764762968.2459388,-5.1121,0.2289,0.39676,-0.92175057,0.35998443,-0.094787355
1764762968.2459388,-5.1121,0.2289,0.39676,-0.92175057,0.35998443,-0.094787355
1764762968.2459388,-5.1121,0.2289,0.39676,-0.92175057,0.35998443,-0.094787355
1764762968.2459388,-5.1121,0.2289,0.39676,-0.92175057,0.35998443,-0.094787355
1764762968.2459388,-5.1121,0.2289,0.39676,-0.92175057,0.35998443,-0.094787355
1764762968.2459388,-5.1121,0.2289,0.39676,-0.92175057,0.35998443,-0.094787355
1764762968.2459388,-5.1121,0.2289,0.39676,-0.92175057,0.35998443,-0.094787355
1764762968.2459388,-5.1121,0.2289,0.39676,-0.92175057,0.35998443,-0.094787355
1764762968.2459388,-5.1121,0.2289,0.39676,-0.92175057,0.35998443,-0.094787355
1764762968.2459388,-5.1121,0.2289,0.39676,-0.92175057,0.35998443,-0.094787355
1764762968.2927806,-3.72344,0.27468,-0.19838,-0.92114022,0.35876373,-0.094054935
1764762968.2927806,-3.72344,0.27468,-0.19838,-0.92114022,0.35876373,-0.094054935
1764762968.2927806,-3.72344,0.27468,-0.19838,-0.92114022,0.35876373,-0.094054935
1764762968.2927806,-3.72344,0.27468,-0.19838,-0.92114022,0.35876373,-0.094054935
1764762968.2927806,-3.72344,0.27468,-0.19838,-0.92114022,0.35876373,-0.094054935
1764762968.2927806,-3.72344,0.27468,-0.19838,-0.92114022,0.35876373,-0.094054935
1764762968.2927806,-3.72344,0.27468,-0.19838,-0.92114022,0.35876373,-0.094054935
1764762968.2927806,-3.72344,0.27468,-0.19838,-0.92114022,0.35876373,-0.094054935
1764762968.2927806,-3.72344,0.27468,-0.19838,-0.92114022,0.35876373,-0.094054935
1764762968.2937937,-3.72344,0.27468,-0.19838,-0.92114022,0.35876373,-0.094054935
1764762968.2937937,-4.47118,0.39676,0.06104,-0.918515715,0.35925201,-0.09497046
1764762968.2937937,-4.47118,0.39676,0.06104,-0.918515715,0.35925201,-0.09497046
1764762968.2937937,-4.47118,0.39676,0.06104,-0.918515715,0.35925201,-0.09497046
1764762968.2937937,-4.47118,0.39676,0.06104,-0.918515715,0.35925201,-0.09497046
1764762968.2937937,-4.47118,0.39676,0.06104,-0.918515715,0.35925201,-0.09497046
1764762968.2937937,-4.47118,0.39676,0.06104,-0.918515715,0.35925201,-0.09497046
1764762968.2937937,-4.47118,0.39676,0.06104,-0.918515715,0.35925201,-0.09497046
1764762968.2937937,-4.47118,0.39676,0.06104,-0.918515715,0.35925201,-0.09497046
1764762968.2937937,-4.47118,0.39676,0.06104,-0.918515715,0.35925201,-0.09497046
1764762968.2937937,-4.47118,0.39676,0.06104,-0.918515715,0.35925201,-0.09497046
1764762968.2937937,-5.27996,1.11398,1.12924,-0.91637949,0.360045465,-0.09655737
1764762968.2937937,-5.27996,1.11398,1.12924,-0.91637949,0.360045465,-0.09655737
1764762968.2937937,-5.27996,1.11398,1.12924,-0.91637949,0.360045465,-0.09655737
1764762968.2937937,-5.27996,1.11398,1.12924,-0.91637949,0.360045465,-0.09655737
1764762968.3380194,-5.27996,1.11398,1.12924,-0.91637949,0.360045465,-0.09655737
1764762968.3380194,-5.27996,1.11398,1.12924,-0.91637949,0.360045465,-0.09655737
1764762968.338534,-5.27996,1.11398,1.12924,-0.91637949,0.360045465,-0.09655737
1764762968.338534,-5.27996,1.11398,1.12924,-0.91637949,0.360045465,-0.09655737
1764762968.338534,-5.27996,1.11398,1.12924,-0.91637949,0.360045465,-0.09655737
1764762968.338534,-5.27996,1.11398,1.12924,-0.91637949,0.360045465,-0.09655737
1764762968.338534,-6.97382,1.63282,1.00716,-0.916196385,0.359923395,-0.0964353
1764762968.338534,-6.97382,1.63282,1.00716,-0.916196385,0.359923395,-0.0964353
1764762968.338534,-6.97382,1.63282,1.00716,-0.916196385,0.359923395,-0.0964353
1764762968.338534,-6.97382,1.63282,1.00716,-0.916196385,0.359923395,-0.0964353
1764762968.3390534,-6.97382,1.63282,1.00716,-0.916196385,0.359923395,-0.0964353
1764762968.3390534,-6.97382,1.63282,1.00716,-0.916196385,0.359923395,-0.0964353
1764762968.3390534,-6.97382,1.63282,1.00716,-0.916196385,0.359923395,-0.0964353
1764762968.3390534,-6.97382,1.63282,1.00716,-0.916196385,0.359923395,-0.0964353
1764762968.3390534,-6.97382,1.63282,1.00716,-0.916196385,0.359923395,-0.0964353
1764762968.3390534,-6.97382,1.63282,1.00716,-0.916196385,0.359923395,-0.0964353
1764762968.3390534,-7.00434,1.2055399999999998,0.65618,-0.918393645,0.357726135,-0.094665285
1764762968.3390534,-7.00434,1.2055399999999998,0.65618,-0.918393645,0.357726135,-0.094665285
1764762968.3390534,-7.00434,1.2055399999999998,0.65618,-0.918393645,0.357726135,-0.094665285
1764762968.3390534,-7.00434,1.2055399999999998,0.65618,-0.918393645,0.357726135,-0.094665285
1764762968.3390534,-7.00434,1.2055399999999998,0.65618,-0.918393645,0.357726135,-0.094665285
1764762968.3390534,-7.00434,1.2055399999999998,0.65618,-0.918393645,0.357726135,-0.094665285
1764762968.3851085,-7.00434,1.2055399999999998,0.65618,-0.918393645,0.357726135,-0.094665285
1764762968.3851085,-7.00434,1.2055399999999998,0.65618,-0.918393645,0.357726135,-0.094665285
1764762968.3851085,-7.00434,1.2055399999999998,0.65618,-0.918393645,0.357726135,-0.094665285
1764762968.3851085,-7.00434,1.2055399999999998,0.65618,-0.918393645,0.357726135,-0.094665285
1764762968.3851085,-6.42446,0.5341,-0.3357199999999999,-0.92016366,0.35742096,-0.093566655
1764762968.3851085,-6.42446,0.5341,-0.3357199999999999,-0.92016366,0.35742096,-0.093566655
1764762968.3851085,-6.42446,0.5341,-0.3357199999999999,-0.92016366,0.35742096,-0.093566655
1764762968.3851085,-6.42446,0.5341,-0.3357199999999999,-0.92016366,0.35742096,-0.093566655
1764762968.3851085,-6.42446,0.5341,-0.3357199999999999,-0.92016366,0.35742096,-0.093566655
1764762968.3851085,-6.42446,0.5341,-0.3357199999999999,-0.92016366,0.35742096,-0.093566655
1764762968.3851085,-6.42446,0.5341,-0.3357199999999999,-0.92016366,0.35742096,-0.093566655
1764762968.3851085,-6.42446,0.5341,-0.3357199999999999,-0.92016366,0.35742096,-0.093566655
1764762968.3851085,-6.42446,0.5341,-0.3357199999999999,-0.92016366,0.35742096,-0.093566655
1764762968.3851085,-6.42446,0.5341,-0.3357199999999999,-0.92016366,0.35742096,-0.093566655
1764762968.3851085,-4.48644,0.47306,0.56462,-0.92138436,0.357726135,-0.09436011
1764762968.3856328,-4.48644,0.47306,0.56462,-0.92138436,0.357726135,-0.09436011
1764762968.3856328,-4.48644,0.47306,0.56462,-0.92138436,0.357726135,-0.09436011
1764762968.3856328,-4.48644,0.47306,0.56462,-0.92138436,0.357726135,-0.09436011
