Timestamp,GyroX,GyroY,GyroZ,AccX,AccY,AccZ
1764764837.0636916,-4.54748,-0.56462,-0.6714399999999999,0.89550552,-0.447447585,-0.05090319
1764764837.0636916,-4.54748,-0.56462,-0.6714399999999999,0.89550552,-0.447447585,-0.05090319
1764764837.0636916,-4.54748,-0.56462,-0.6714399999999999,0.89550552,-0.447447585,-0.05090319
1764764837.0636916,-4.54748,-0.56462,-0.6714399999999999,0.89550552,-0.447447585,-0.05090319
1764764837.0636916,-4.54748,-0.56462,-0.6714399999999999,0.89550552,-0.447447585,-0.05090319
1764764837.0636916,-6.42446,0.56462,0.7019599999999999,0.89782485,-0.44726448,-0.05285631
1764764837.0636916,-6.42446,0.56462,0.7019599999999999,0.89782485,-0.44726448,-0.05285631
1764764837.0636916,-6.42446,0.56462,0.7019599999999999,0.89782485,-0.44726448,-0.05285631
1764764837.0636916,-6.42446,0.56462,0.7019599999999999,0.89782485,-0.44726448,-0.05285631
1764764837.0636916,-6.42446,0.56462,0.7019599999999999,0.89782485,-0.44726448,-0.05285631
1764764837.0636916,-6.42446,0.56462,0.7019599999999999,0.89782485,-0.44726448,-0.05285631
1764764837.0636916,-6.42446,0.56462,0.7019599999999999,0.89782485,-0.44726448,-0.05285631
1764764837.0636916,-6.42446,0.56462,0.7019599999999999,0.89782485,-0.44726448,-0.05285631
1764764837.0636916,-6.42446,0.56462,0.7019599999999999,0.89782485,-0.44726448,-0.05285631
1764764837.0636916,-6.42446,0.56462,0.7019599999999999,0.89782485,-0.44726448,-0.05285631
1764764837.0636916,-6.60758,1.9075,1.89224,0.899839005,-0.45068244,-0.052795275
1764764837.0636916,-6.60758,1.9075,1.89224,0.899839005,-0.45068244,-0.052795275
1764764837.0636916,-6.60758,1.9075,1.89224,0.899839005,-0.45068244,-0.052795275
1764764837.0636916,-6.60758,1.9075,1.89224,0.899839005,-0.45068244,-0.052795275
1764764837.0636916,-6.60758,1.9075,1.89224,0.899839005,-0.45068244,-0.052795275
1764764837.064702,-6.60758,1.9075,1.89224,0.899839005,-0.45068244,-0.052795275
1764764837.064702,-6.60758,1.9075,1.89224,0.899839005,-0.45068244,-0.052795275
1764764837.064702,-6.60758,1.9075,1.89224,0.899839005,-0.45068244,-0.052795275
1764764837.110437,-6.60758,1.9075,1.89224,0.899839005,-0.45068244,-0.052795275
1764764837.1109424,-6.60758,1.9075,1.89224,0.899839005,-0.45068244,-0.052795275
1764764837.1109424,-6.516019999999999,3.31142,2.15166,0.90051039,-0.452940735,-0.05236803
1764764837.1109424,-6.516019999999999,3.31142,2.15166,0.90051039,-0.452940735,-0.05236803
1764764837.1109424,-6.516019999999999,3.31142,2.15166,0.90051039,-0.452940735,-0.05236803
1764764837.1109424,-6.516019999999999,3.31142,2.15166,0.90051039,-0.452940735,-0.05236803
1764764837.1109424,-6.516019999999999,3.31142,2.15166,0.90051039,-0.452940735,-0.05236803
1764764837.1109424,-6.516019999999999,3.31142,2.15166,0.90051039,-0.452940735,-0.05236803
1764764837.1109424,-6.516019999999999,3.31142,2.15166,0.90051039,-0.452940735,-0.05236803
1764764837.1109424,-6.516019999999999,3.31142,2.15166,0.90051039,-0.452940735,-0.05236803
1764764837.1109424,-6.516019999999999,3.31142,2.15166,0.90051039,-0.452940735,-0.05236803
1764764837.1109424,-6.516019999999999,3.31142,2.15166,0.90051039,-0.452940735,-0.05236803
1764764837.1109424,-5.2647,2.94518,1.93802,0.89770278,-0.454039365,-0.051330435
1764764837.1109424,-5.2647,2.94518,1.93802,0.89770278,-0.454039365,-0.051330435
1764764837.1109424,-5.2647,2.94518,1.93802,0.89770278,-0.454039365,-0.051330435
1764764837.1109424,-5.2647,2.94518,1.93802,0.89770278,-0.454039365,-0.051330435
1764764837.1109424,-5.2647,2.94518,1.93802,0.89770278,-0.454039365,-0.051330435
1764764837.1109424,-5.2647,2.94518,1.93802,0.89770278,-0.454039365,-0.051330435
1764764837.1109424,-5.2647,2.94518,1.93802,0.89770278,-0.454039365,-0.051330435
1764764837.1109424,-5.2647,2.94518,1.93802,0.89770278,-0.454039365,-0.051330435
1764764837.1109424,-5.2647,2.94518,1.93802,0.89770278,-0.454039365,-0.051330435
1764764837.1109424,-5.2647,2.94518,1.93802,0.89770278,-0.454039365,-0.051330435
1764764837.1556048,-4.16598,2.07536,1.38866,0.89428482,-0.45593145,-0.05114733
1764764837.1556048,-4.16598,2.07536,1.38866,0.89428482,-0.45593145,-0.05114733
1764764837.1556048,-4.16598,2.07536,1.38866,0.89428482,-0.45593145,-0.05114733
1764764837.1556048,-4.16598,2.07536,1.38866,0.89428482,-0.45593145,-0.05114733
1764764837.1567996,-4.16598,2.07536,1.38866,0.89428482,-0.45593145,-0.05114733
1764764837.1567996,-4.16598,2.07536,1.38866,0.89428482,-0.45593145,-0.05114733
1764764837.1567996,-4.16598,2.07536,1.38866,0.89428482,-0.45593145,-0.05114733
1764764837.1567996,-4.16598,2.07536,1.38866,0.89428482,-0.45593145,-0.05114733
1764764837.1567996,-4.16598,2.07536,1.38866,0.89428482,-0.45593145,-0.05114733
1764764837.1567996,-4.16598,2.07536,1.38866,0.89428482,-0.45593145,-0.05114733
1764764837.1567996,-3.84552,1.26658,1.35814,0.892270665,-0.4553211,-0.05102526
1764764837.1567996,-3.84552,1.26658,1.35814,0.892270665,-0.4553211,-0.05102526
1764764837.1567996,-3.84552,1.26658,1.35814,0.892270665,-0.4553211,-0.05102526
1764764837.1567996,-3.84552,1.26658,1.35814,0.892270665,-0.4553211,-0.05102526
1764764837.1567996,-3.84552,1.26658,1.35814,0.892270665,-0.4553211,-0.05102526
1764764837.1567996,-3.84552,1.26658,1.35814,0.892270665,-0.4553211,-0.05102526
1764764837.1567996,-3.84552,1.26658,1.35814,0.892270665,-0.4553211,-0.05102526
1764764837.1567996,-3.84552,1.26658,1.35814,0.892270665,-0.4553211,-0.05102526
1764764837.1567996,-3.84552,1.26658,1.35814,0.892270665,-0.4553211,-0.05102526
1764764837.1567996,-3.84552,1.26658,1.35814,0.892270665,-0.4553211,-0.05102526
1764764837.1567996,-3.49454,0.763,0.93086,0.89318619,-0.45580938,-0.05163561
1764764837.1567996,-3.49454,0.763,0.93086,0.89318619,-0.45580938,-0.05163561
1764764837.1567996,-3.49454,0.763,0.93086,0.89318619,-0.45580938,-0.05163561
1764764837.1567996,-3.49454,0.763,0.93086,0.89318619,-0.45580938,-0.05163561
1764764837.2067723,-3.49454,0.763,0.93086,0.89318619,-0.45580938,-0.05163561
1764764837.2067723,-3.49454,0.763,0.93086,0.89318619,-0.45580938,-0.05163561
1764764837.2067723,-3.49454,0.763,0.93086,0.89318619,-0.45580938,-0.05163561
1764764837.2067723,-3.49454,0.763,0.93086,0.89318619,-0.45580938,-0.05163561
1764764837.2067723,-3.49454,0.763,0.93086,0.89318619,-0.45580938,-0.05163561
1764764837.2067723,-3.49454,0.763,0.93086,0.89318619,-0.45580938,-0.05163561
1764764837.2067723,-3.15882,1.3734,0.93086,0.89587173,-0.456114555,-0.05102526
1764764837.2067723,-3.15882,1.3734,0.93086,0.89587173,-0.456114555,-0.05102526
1764764837.2067723,-3.15882,1.3734,0.93086,0.89587173,-0.456114555,-0.05102526
1764764837.2067723,-3.15882,1.3734,0.93086,0.89587173,-0.456114555,-0.05102526
1764764837.2067723,-3.15882,1.3734,0.93086,0.89587173,-0.456114555,-0.05102526
1764764837.2067723,-3.15882,1.3734,0.93086,0.89587173,-0.456114555,-0.05102526
1764764837.2067723,-3.15882,1.3734,0.93086,0.89587173,-0.456114555,-0.05102526
1764764837.2067723,-3.15882,1.3734,0.93086,0.89587173,-0.456114555,-0.05102526
1764764837.2067723,-3.15882,1.3734,0.93086,0.89587173,-0.456114555,-0.05102526
1764764837.2067723,-3.15882,1.3734,0.93086,0.89587173,-0.456114555,-0.05102526
1764764837.2067723,-2.31952,2.12114,1.23606,0.895078275,-0.457335255,-0.04968249
1764764837.2067723,-2.31952,2.12114,1.23606,0.895078275,-0.457335255,-0.04968249
1764764837.2067723,-2.31952,2.12114,1.23606,0.895078275,-0.457335255,-0.04968249
1764764837.2067723,-2.31952,2.12114,1.23606,0.895078275,-0.457335255,-0.04968249
1764764837.2079928,-2.31952,2.12114,1.23606,0.895078275,-0.457335255,-0.04968249
1764764837.2079928,-2.31952,2.12114,1.23606,0.895078275,-0.457335255,-0.04968249
1764764837.2079928,-2.31952,2.12114,1.23606,0.895078275,-0.457335255,-0.04968249
1764764837.2079928,-2.31952,2.12114,1.23606,0.895078275,-0.457335255,-0.04968249
1764764837.250842,-2.31952,2.12114,1.23606,0.895078275,-0.457335255,-0.04968249
1764764837.250842,-2.31952,2.12114,1.23606,0.895078275,-0.457335255,-0.04968249
1764764837.250842,-1.8006799999999998,1.28184,1.23606,0.8933692950000001,-0.457701465,-0.04931628
1764764837.250842,-1.8006799999999998,1.28184,1.23606,0.8933692950000001,-0.457701465,-0.04931628
1764764837.250842,-1.8006799999999998,1.28184,1.23606,0.8933692950000001,-0.457701465,-0.04931628
1764764837.250842,-1.8006799999999998,1.28184,1.23606,0.8933692950000001,-0.457701465,-0.04931628
1764764837.251353,-1.8006799999999998,1.28184,1.23606,0.8933692950000001,-0.457701465,-0.04931628
1764764837.251353,-1.8006799999999998,1.28184,1.23606,0.8933692950000001,-0.457701465,-0.04931628
1764764837.251353,-1.8006799999999998,1.28184,1.23606,0.8933692950000001,-0.457701465,-0.04931628
1764764837.251353,-1.8006799999999998,1.28184,1.23606,0.8933692950000001,-0.457701465,-0.04931628
1764764837.251353,-1.8006799999999998,1.28184,1.23606,0.8933692950000001,-0.457701465,-0.04931628
1764764837.251353,-1.8006799999999998,1.28184,1.23606,0.8933692950000001,-0.457701465,-0.04931628
1764764837.251353,-2.30426,0.09156,1.2971,0.89147721,-0.45556524,-0.050964225
1764764837.251353,-2.30426,0.09156,1.2971,0.89147721,-0.45556524,-0.050964225
1764764837.2523646,-2.30426,0.09156,1.2971,0.89147721,-0.45556524,-0.050964225
1764764837.2523646,-2.30426,0.09156,1.2971,0.89147721,-0.45556524,-0.050964225
1764764837.2529373,-2.30426,0.09156,1.2971,0.89147721,-0.45556524,-0.050964225
1764764837.2529373,-2.30426,0.09156,1.2971,0.89147721,-0.45556524,-0.050964225
1764764837.2529373,-2.30426,0.09156,1.2971,0.89147721,-0.45556524,-0.050964225
1764764837.2529373,-2.30426,0.09156,1.2971,0.89147721,-0.45556524,-0.050964225
1764764837.2529373,-2.30426,0.09156,1.2971,0.89147721,-0.45556524,-0.050964225
1764764837.2529373,-2.30426,0.09156,1.2971,0.89147721,-0.45556524,-0.050964225
1764764837.2529373,-3.63188,-0.24416,0.12208,0.8935524,-0.453795225,-0.051818715
1764764837.2529373,-3.63188,-0.24416,0.12208,0.8935524,-0.453795225,-0.051818715
1764764837.298578,-3.63188,-0.24416,0.12208,0.8935524,-0.453795225,-0.051818715
1764764837.298578,-3.63188,-0.24416,0.12208,0.8935524,-0.453795225,-0.051818715
1764764837.298578,-3.63188,-0.24416,0.12208,0.8935524,-0.453795225,-0.051818715
1764764837.298578,-3.63188,-0.24416,0.12208,0.8935524,-0.453795225,-0.051818715
1764764837.298578,-3.63188,-0.24416,0.12208,0.8935524,-0.453795225,-0.051818715
1764764837.298578,-3.63188,-0.24416,0.12208,0.8935524,-0.453795225,-0.051818715
1764764837.298578,-3.63188,-0.24416,0.12208,0.8935524,-0.453795225,-0.051818715
1764764837.300104,-3.63188,-0.24416,0.12208,0.8935524,-0.453795225,-0.051818715
1764764837.300104,-3.86078,1.81594,-0.3357199999999999,0.90014418,-0.455015925,-0.05017077
1764764837.300104,-3.86078,1.81594,-0.3357199999999999,0.90014418,-0.455015925,-0.05017077
1764764837.300104,-3.86078,1.81594,-0.3357199999999999,0.90014418,-0.455015925,-0.05017077
1764764837.300104,-3.86078,1.81594,-0.3357199999999999,0.90014418,-0.455015925,-0.05017077
1764764837.300104,-3.86078,1.81594,-0.3357199999999999,0.90014418,-0.455015925,-0.05017077
1764764837.300104,-3.86078,1.81594,-0.3357199999999999,0.90014418,-0.455015925,-0.05017077
1764764837.300104,-3.86078,1.81594,-0.3357199999999999,0.90014418,-0.455015925,-0.05017077
1764764837.300104,-3.86078,1.81594,-0.3357199999999999,0.90014418,-0.455015925,-0.05017077
1764764837.300104,-3.86078,1.81594,-0.3357199999999999,0.90014418,-0.455015925,-0.05017077
1764764837.300104,-3.86078,1.81594,-0.3357199999999999,0.90014418,-0.455015925,-0.05017077
1764764837.300104,-3.47928,3.44876,-0.79352,0.902646615,-0.454771785,-0.048644895
1764764837.300104,-3.47928,3.44876,-0.79352,0.902646615,-0.454771785,-0.048644895
1764764837.300104,-3.47928,3.44876,-0.79352,0.902646615,-0.454771785,-0.048644895
1764764837.300104,-3.47928,3.44876,-0.79352,0.902646615,-0.454771785,-0.048644895
1764764837.3434017,-3.47928,3.44876,-0.79352,0.902646615,-0.454771785,-0.048644895
1764764837.3434017,-3.47928,3.44876,-0.79352,0.902646615,-0.454771785,-0.048644895
1764764837.3434017,-3.47928,3.44876,-0.79352,0.902646615,-0.454771785,-0.048644895
1764764837.3434017,-3.47928,3.44876,-0.79352,0.902646615,-0.454771785,-0.048644895
1764764837.3434017,-3.47928,3.44876,-0.79352,0.902646615,-0.454771785,-0.048644895
1764764837.3434017,-3.47928,3.44876,-0.79352,0.902646615,-0.454771785,-0.048644895
1764764837.3434017,-4.16598,4.02864,-1.09872,0.900449355,-0.451720035,-0.048828
1764764837.3434017,-4.16598,4.02864,-1.09872,0.900449355,-0.451720035,-0.048828
1764764837.3434017,-4.16598,4.02864,-1.09872,0.900449355,-0.451720035,-0.048828
1764764837.3434017,-4.16598,4.02864,-1.09872,0.900449355,-0.451720035,-0.048828
1764764837.3434017,-4.16598,4.02864,-1.09872,0.900449355,-0.451720035,-0.048828
1764764837.3434017,-4.16598,4.02864,-1.09872,0.900449355,-0.451720035,-0.048828
1764764837.3434017,-4.16598,4.02864,-1.09872,0.900449355,-0.451720035,-0.048828
1764764837.3434017,-4.16598,4.02864,-1.09872,0.900449355,-0.451720035,-0.048828
1764764837.3434017,-4.16598,4.02864,-1.09872,0.900449355,-0.451720035,-0.048828
1764764837.3434017,-4.16598,4.02864,-1.09872,0.900449355,-0.451720035,-0.048828
1764764837.3434017,-5.00528,3.47928,-0.96138,0.89709243,-0.450743475,-0.04931628
1764764837.3434017,-5.00528,3.47928,-0.96138,0.89709243,-0.450743475,-0.04931628
1764764837.3434017,-5.00528,3.47928,-0.96138,0.89709243,-0.450743475,-0.04931628
1764764837.3434017,-5.00528,3.47928,-0.96138,0.89709243,-0.450743475,-0.04931628
1764764837.3434017,-5.00528,3.47928,-0.96138,0.89709243,-0.450743475,-0.04931628
1764764837.3434017,-5.00528,3.47928,-0.96138,0.89709243,-0.450743475,-0.04931628
1764764837.3434017,-5.00528,3.47928,-0.96138,0.89709243,-0.450743475,-0.04931628
1764764837.3434017,-5.00528,3.47928,-0.96138,0.89709243,-0.450743475,-0.04931628
1764764837.3901105,-5.00528,3.47928,-0.96138,0.89709243,-0.450743475,-0.04931628
1764764837.3901105,-5.00528,3.47928,-0.96138,0.89709243,-0.450743475,-0.04931628
1764764837.3901105,-4.3491,2.48738,-0.82404,0.89574966,-0.45190314,-0.047912475
1764764837.3901105,-4.3491,2.48738,-0.82404,0.89574966,-0.45190314,-0.047912475
1764764837.3901105,-4.3491,2.48738,-0.82404,0.89574966,-0.45190314,-0.047912475
1764764837.3901105,-4.3491,2.48738,-0.82404,0.89574966,-0.45190314,-0.047912475
1764764837.3901105,-4.3491,2.48738,-0.82404,0.89574966,-0.45190314,-0.047912475
1764764837.3901105,-4.3491,2.48738,-0.82404,0.89574966,-0.45190314,-0.047912475
1764764837.3901105,-4.3491,2.48738,-0.82404,0.89574966,-0.45190314,-0.047912475
1764764837.3901105,-4.3491,2.48738,-0.82404,0.89574966,-0.45190314,-0.047912475
1764764837.3901105,-4.3491,2.48738,-0.82404,0.89574966,-0.45190314,-0.047912475
1764764837.3901105,-4.3491,2.48738,-0.82404,0.89574966,-0.45190314,-0.047912475
1764764837.3901105,-3.37246,1.9075,-0.41202,0.89416275,-0.452940735,-0.047057985
1764764837.3901105,-3.37246,1.9075,-0.41202,0.89416275,-0.452940735,-0.047057985
1764764837.3911328,-3.37246,1.9075,-0.41202,0.89416275,-0.452940735,-0.047057985
1764764837.3911328,-3.37246,1.9075,-0.41202,0.89416275,-0.452940735,-0.047057985
1764764837.3911328,-3.37246,1.9075,-0.41202,0.89416275,-0.452940735,-0.047057985
1764764837.3911328,-3.37246,1.9075,-0.41202,0.89416275,-0.452940735,-0.047057985
1764764837.3911328,-3.37246,1.9075,-0.41202,0.89416275,-0.452940735,-0.047057985
1764764837.3911328,-3.37246,1.9075,-0.41202,0.89416275,-0.452940735,-0.047057985
1764764837.3911328,-3.37246,1.9075,-0.41202,0.89416275,-0.452940735,-0.047057985
1764764837.3911328,-3.37246,1.9075,-0.41202,0.89416275,-0.452940735,-0.047057985
1764764837.4377232,-3.5861,0.763,-0.09156,0.893979645,-0.450743475,-0.047424195
1764764837.4382317,-3.5861,0.763,-0.09156,0.893979645,-0.450743475,-0.047424195
1764764837.4382317,-3.5861,0.763,-0.09156,0.893979645,-0.450743475,-0.047424195
1764764837.4382317,-3.5861,0.763,-0.09156,0.893979645,-0.450743475,-0.047424195
1764764837.4382317,-3.5861,0.763,-0.09156,0.893979645,-0.450743475,-0.047424195
1764764837.4382317,-3.5861,0.763,-0.09156,0.893979645,-0.450743475,-0.047424195
1764764837.4382317,-3.5861,0.763,-0.09156,0.893979645,-0.450743475,-0.047424195
1764764837.4382317,-3.5861,0.763,-0.09156,0.893979645,-0.450743475,-0.047424195
1764764837.4382317,-3.5861,0.763,-0.09156,0.893979645,-0.450743475,-0.047424195
1764764837.4382317,-3.5861,0.763,-0.09156,0.893979645,-0.450743475,-0.047424195
1764764837.4382317,-3.3572,1.12924,0.50358,0.897397605,-0.450621405,-0.047302125
1764764837.4382317,-3.3572,1.12924,0.50358,0.897397605,-0.450621405,-0.047302125
1764764837.4382317,-3.3572,1.12924,0.50358,0.897397605,-0.450621405,-0.047302125
1764764837.4382317,-3.3572,1.12924,0.50358,0.897397605,-0.450621405,-0.047302125
1764764837.4382317,-3.3572,1.12924,0.50358,0.897397605,-0.450621405,-0.047302125
1764764837.4382317,-3.3572,1.12924,0.50358,0.897397605,-0.450621405,-0.047302125
1764764837.4382317,-3.3572,1.12924,0.50358,0.897397605,-0.450621405,-0.047302125
1764764837.4382317,-3.3572,1.12924,0.50358,0.897397605,-0.450621405,-0.047302125
1764764837.4382317,-3.3572,1.12924,0.50358,0.897397605,-0.450621405,-0.047302125
1764764837.4382317,-3.3572,1.12924,0.50358,0.897397605,-0.450621405,-0.047302125
1764764837.4382317,-3.26564,1.31236,1.96854,0.898740375,-0.45202521,-0.047302125
1764764837.4382317,-3.26564,1.31236,1.96854,0.898740375,-0.45202521,-0.047302125
1764764837.4382317,-3.26564,1.31236,1.96854,0.898740375,-0.45202521,-0.047302125
1764764837.4387617,-3.26564,1.31236,1.96854,0.898740375,-0.45202521,-0.047302125
1764764837.485333,-3.26564,1.31236,1.96854,0.898740375,-0.45202521,-0.047302125
1764764837.485333,-3.26564,1.31236,1.96854,0.898740375,-0.45202521,-0.047302125
1764764837.485333,-3.26564,1.31236,1.96854,0.898740375,-0.45202521,-0.047302125
1764764837.485333,-3.26564,1.31236,1.96854,0.898740375,-0.45202521,-0.047302125
1764764837.485333,-3.26564,1.31236,1.96854,0.898740375,-0.45202521,-0.047302125
1764764837.485333,-3.26564,1.31236,1.96854,0.898740375,-0.45202521,-0.047302125
1764764837.485333,-3.2809,0.2289,2.91466,0.896665185,-0.452452455,-0.0476073
1764764837.485333,-3.2809,0.2289,2.91466,0.896665185,-0.452452455,-0.0476073
1764764837.485333,-3.2809,0.2289,2.91466,0.896665185,-0.452452455,-0.0476073
1764764837.485333,-3.2809,0.2289,2.91466,0.896665185,-0.452452455,-0.0476073
1764764837.485333,-3.2809,0.2289,2.91466,0.896665185,-0.452452455,-0.0476073
1764764837.485333,-3.2809,0.2289,2.91466,0.896665185,-0.452452455,-0.0476073
1764764837.485333,-3.2809,0.2289,2.91466,0.896665185,-0.452452455,-0.0476073
1764764837.485333,-3.2809,0.2289,2.91466,0.896665185,-0.452452455,-0.0476073
1764764837.485333,-3.2809,0.2289,2.91466,0.896665185,-0.452452455,-0.0476073
1764764837.485333,-3.2809,0.2289,2.91466,0.896665185,-0.452452455,-0.0476073
1764764837.485333,-4.39488,-0.6103999999999999,2.7468,0.894345855,-0.44982795,-0.04821765
1764764837.485333,-4.39488,-0.6103999999999999,2.7468,0.894345855,-0.44982795,-0.04821765
1764764837.485333,-4.39488,-0.6103999999999999,2.7468,0.894345855,-0.44982795,-0.04821765
1764764837.485333,-4.39488,-0.6103999999999999,2.7468,0.894345855,-0.44982795,-0.04821765
1764764837.485333,-4.39488,-0.6103999999999999,2.7468,0.894345855,-0.44982795,-0.04821765
1764764837.485333,-4.39488,-0.6103999999999999,2.7468,0.894345855,-0.44982795,-0.04821765
1764764837.485333,-4.39488,-0.6103999999999999,2.7468,0.894345855,-0.44982795,-0.04821765
1764764837.485333,-4.39488,-0.6103999999999999,2.7468,0.894345855,-0.44982795,-0.04821765
1764764837.5315833,-4.39488,-0.6103999999999999,2.7468,0.894345855,-0.44982795,-0.04821765
1764764837.5315833,-4.39488,-0.6103999999999999,2.7468,0.894345855,-0.44982795,-0.04821765
1764764837.5315833,-4.53222,-0.9003399999999999,2.80784,0.89550552,-0.45129279,-0.04846179
1764764837.532091,-4.53222,-0.9003399999999999,2.80784,0.89550552,-0.45129279,-0.04846179
1764764837.532091,-4.53222,-0.9003399999999999,2.80784,0.89550552,-0.45129279,-0.04846179
1764764837.532091,-4.53222,-0.9003399999999999,2.80784,0.89550552,-0.45129279,-0.04846179
1764764837.532091,-4.53222,-0.9003399999999999,2.80784,0.89550552,-0.45129279,-0.04846179
1764764837.532091,-4.53222,-0.9003399999999999,2.80784,0.89550552,-0.45129279,-0.04846179
1764764837.532091,-4.53222,-0.9003399999999999,2.80784,0.89550552,-0.45129279,-0.04846179
1764764837.532091,-4.53222,-0.9003399999999999,2.80784,0.89550552,-0.45129279,-0.04846179
1764764837.532091,-4.53222,-0.9003399999999999,2.80784,0.89550552,-0.45129279,-0.04846179
1764764837.532091,-4.53222,-0.9003399999999999,2.80784,0.89550552,-0.45129279,-0.04846179
1764764837.532091,-3.8913,0.01526,2.79258,0.896787255,-0.45349005,-0.04846179
1764764837.532091,-3.8913,0.01526,2.79258,0.896787255,-0.45349005,-0.04846179
1764764837.532091,-3.8913,0.01526,2.79258,0.896787255,-0.45349005,-0.04846179
1764764837.532091,-3.8913,0.01526,2.79258,0.896787255,-0.45349005,-0.04846179
1764764837.532091,-3.8913,0.01526,2.79258,0.896787255,-0.45349005,-0.04846179
1764764837.532091,-3.8913,0.01526,2.79258,0.896787255,-0.45349005,-0.04846179
1764764837.532091,-3.8913,0.01526,2.79258,0.896787255,-0.45349005,-0.04846179
1764764837.532091,-3.8913,0.01526,2.79258,0.896787255,-0.45349005,-0.04846179
1764764837.532091,-3.8913,0.01526,2.79258,0.896787255,-0.45349005,-0.04846179
1764764837.532091,-3.8913,0.01526,2.79258,0.896787255,-0.45349005,-0.04846179
1764764837.5779164,-3.72344,0.3509799999999999,2.60946,0.89648208,-0.45361212,-0.04943835
1764764837.5779164,-3.72344,0.3509799999999999,2.60946,0.89648208,-0.45361212,-0.04943835
1764764837.5779164,-3.72344,0.3509799999999999,2.60946,0.89648208,-0.45361212,-0.04943835
1764764837.5779164,-3.72344,0.3509799999999999,2.60946,0.89648208,-0.45361212,-0.04943835
1764764837.5779164,-3.72344,0.3509799999999999,2.60946,0.89648208,-0.45361212,-0.04943835
1764764837.5779164,-3.72344,0.3509799999999999,2.60946,0.89648208,-0.45361212,-0.04943835
1764764837.5779164,-3.72344,0.3509799999999999,2.60946,0.89648208,-0.45361212,-0.04943835
1764764837.5779164,-3.72344,0.3509799999999999,2.60946,0.89648208,-0.45361212,-0.04943835
1764764837.5779164,-3.72344,0.3509799999999999,2.60946,0.89648208,-0.45361212,-0.04943835
1764764837.5779164,-3.72344,0.3509799999999999,2.60946,0.89648208,-0.45361212,-0.04943835
1764764837.5779164,-3.86078,-0.03052,2.18218,0.89513931,-0.45263556,-0.05041491
1764764837.5779164,-3.86078,-0.03052,2.18218,0.89513931,-0.45263556,-0.05041491
1764764837.5779164,-3.86078,-0.03052,2.18218,0.89513931,-0.45263556,-0.05041491
1764764837.5779164,-3.86078,-0.03052,2.18218,0.89513931,-0.45263556,-0.05041491
1764764837.5779164,-3.86078,-0.03052,2.18218,0.89513931,-0.45263556,-0.05041491
1764764837.5779164,-3.86078,-0.03052,2.18218,0.89513931,-0.45263556,-0.05041491
1764764837.5779164,-3.86078,-0.03052,2.18218,0.89513931,-0.45263556,-0.05041491
1764764837.5779164,-3.86078,-0.03052,2.18218,0.89513931,-0.45263556,-0.05041491
1764764837.5779164,-3.86078,-0.03052,2.18218,0.89513931,-0.45263556,-0.05041491
1764764837.5779164,-3.86078,-0.03052,2.18218,0.89513931,-0.45263556,-0.05041491
1764764837.5779164,-4.0439,-0.18312,1.99906,0.894101715,-0.45275763,-0.05102526
1764764837.5789206,-4.0439,-0.18312,1.99906,0.894101715,-0.45275763,-0.05102526
1764764837.5789206,-4.0439,-0.18312,1.99906,0.894101715,-0.45275763,-0.05102526
1764764837.5789206,-4.0439,-0.18312,1.99906,0.894101715,-0.45275763,-0.05102526
1764764837.624779,-4.0439,-0.18312,1.99906,0.894101715,-0.45275763,-0.05102526
1764764837.624779,-4.0439,-0.18312,1.99906,0.894101715,-0.45275763,-0.05102526
1764764837.624779,-4.0439,-0.18312,1.99906,0.894101715,-0.45275763,-0.05102526
1764764837.624779,-4.0439,-0.18312,1.99906,0.894101715,-0.45275763,-0.05102526
1764764837.624779,-4.0439,-0.18312,1.99906,0.894101715,-0.45275763,-0.05102526
1764764837.624779,-4.0439,-0.18312,1.99906,0.894101715,-0.45275763,-0.05102526
1764764837.624779,-4.45592,0.3204599999999999,1.96854,0.89538345,-0.453917295,-0.05175768
1764764837.624779,-4.45592,0.3204599999999999,1.96854,0.89538345,-0.453917295,-0.05175768
1764764837.624779,-4.45592,0.3204599999999999,1.96854,0.89538345,-0.453917295,-0.05175768
1764764837.624779,-4.45592,0.3204599999999999,1.96854,0.89538345,-0.453917295,-0.05175768
1764764837.624779,-4.45592,0.3204599999999999,1.96854,0.89538345,-0.453917295,-0.05175768
1764764837.624779,-4.45592,0.3204599999999999,1.96854,0.89538345,-0.453917295,-0.05175768
1764764837.624779,-4.45592,0.3204599999999999,1.96854,0.89538345,-0.453917295,-0.05175768
1764764837.624779,-4.45592,0.3204599999999999,1.96854,0.89538345,-0.453917295,-0.05175768
1764764837.624779,-4.45592,0.3204599999999999,1.96854,0.89538345,-0.453917295,-0.05175768
1764764837.624779,-4.45592,0.3204599999999999,1.96854,0.89538345,-0.453917295,-0.05175768
1764764837.624779,-4.02864,0.85456,1.87698,0.896909325,-0.45629766,-0.050720085
1764764837.624779,-4.02864,0.85456,1.87698,0.896909325,-0.45629766,-0.050720085
1764764837.624779,-4.02864,0.85456,1.87698,0.896909325,-0.45629766,-0.050720085
1764764837.624779,-4.02864,0.85456,1.87698,0.896909325,-0.45629766,-0.050720085
1764764837.624779,-4.02864,0.85456,1.87698,0.896909325,-0.45629766,-0.050720085
1764764837.624779,-4.02864,0.85456,1.87698,0.896909325,-0.45629766,-0.050720085
1764764837.668815,-4.02864,0.85456,1.87698,0.896909325,-0.45629766,-0.050720085
1764764837.668815,-4.02864,0.85456,1.87698,0.896909325,-0.45629766,-0.050720085
1764764837.668815,-4.02864,0.85456,1.87698,0.896909325,-0.45629766,-0.050720085
1764764837.668815,-4.02864,0.85456,1.87698,0.896909325,-0.45629766,-0.050720085
1764764837.668815,-3.61662,0.93086,1.2971,0.897519675,-0.458189745,-0.050231805
1764764837.668815,-3.61662,0.93086,1.2971,0.897519675,-0.458189745,-0.050231805
1764764837.668815,-3.61662,0.93086,1.2971,0.897519675,-0.458189745,-0.050231805
1764764837.668815,-3.61662,0.93086,1.2971,0.897519675,-0.458189745,-0.050231805
1764764837.668815,-3.61662,0.93086,1.2971,0.897519675,-0.458189745,-0.050231805
1764764837.668815,-3.61662,0.93086,1.2971,0.897519675,-0.458189745,-0.050231805
1764764837.668815,-3.61662,0.93086,1.2971,0.897519675,-0.458189745,-0.050231805
1764764837.668815,-3.61662,0.93086,1.2971,0.897519675,-0.458189745,-0.050231805
1764764837.668815,-3.61662,0.93086,1.2971,0.897519675,-0.458189745,-0.050231805
1764764837.668815,-3.61662,0.93086,1.2971,0.897519675,-0.458189745,-0.050231805
1764764837.668815,-3.63188,0.44254,1.12924,0.8965431150000001,-0.457213185,-0.050231805
1764764837.668815,-3.63188,0.44254,1.12924,0.8965431150000001,-0.457213185,-0.050231805
1764764837.668815,-3.63188,0.44254,1.12924,0.8965431150000001,-0.457213185,-0.050231805
1764764837.668815,-3.63188,0.44254,1.12924,0.8965431150000001,-0.457213185,-0.050231805
1764764837.668815,-3.63188,0.44254,1.12924,0.8965431150000001,-0.457213185,-0.050231805
1764764837.668815,-3.63188,0.44254,1.12924,0.8965431150000001,-0.457213185,-0.050231805
1764764837.668815,-3.63188,0.44254,1.12924,0.8965431150000001,-0.457213185,-0.050231805
1764764837.668815,-3.63188,0.44254,1.12924,0.8965431150000001,-0.457213185,-0.050231805
1764764837.668815,-3.63188,0.44254,1.12924,0.8965431150000001,-0.457213185,-0.050231805
1764764837.668815,-3.63188,0.44254,1.12924,0.8965431150000001,-0.457213185,-0.050231805
1764764837.7195375,-3.78448,-0.18312,0.6867,0.8935524,-0.456114555,-0.050720085
1764764837.7195375,-3.78448,-0.18312,0.6867,0.8935524,-0.456114555,-0.050720085
1764764837.7195375,-3.78448,-0.18312,0.6867,0.8935524,-0.456114555,-0.050720085
1764764837.7195375,-3.78448,-0.18312,0.6867,0.8935524,-0.456114555,-0.050720085
1764764837.72005,-3.78448,-0.18312,0.6867,0.8935524,-0.456114555,-0.050720085
1764764837.72005,-3.78448,-0.18312,0.6867,0.8935524,-0.456114555,-0.050720085
1764764837.72005,-3.78448,-0.18312,0.6867,0.8935524,-0.456114555,-0.050720085
1764764837.72005,-3.78448,-0.18312,0.6867,0.8935524,-0.456114555,-0.050720085
1764764837.72005,-3.78448,-0.18312,0.6867,0.8935524,-0.456114555,-0.050720085
1764764837.72005,-3.78448,-0.18312,0.6867,0.8935524,-0.456114555,-0.050720085
1764764837.72005,-3.95234,0.0762999999999999,0.59514,0.89294205,-0.455626275,-0.05090319
1764764837.72005,-3.95234,0.0762999999999999,0.59514,0.89294205,-0.455626275,-0.05090319
1764764837.72005,-3.95234,0.0762999999999999,0.59514,0.89294205,-0.455626275,-0.05090319
1764764837.72005,-3.95234,0.0762999999999999,0.59514,0.89294205,-0.455626275,-0.05090319
1764764837.72005,-3.95234,0.0762999999999999,0.59514,0.89294205,-0.455626275,-0.05090319
1764764837.72005,-3.95234,0.0762999999999999,0.59514,0.89294205,-0.455626275,-0.05090319
1764764837.72005,-3.95234,0.0762999999999999,0.59514,0.89294205,-0.455626275,-0.05090319
1764764837.72005,-3.95234,0.0762999999999999,0.59514,0.89294205,-0.455626275,-0.05090319
1764764837.72005,-3.95234,0.0762999999999999,0.59514,0.89294205,-0.455626275,-0.05090319
1764764837.72005,-3.95234,0.0762999999999999,0.59514,0.89294205,-0.455626275,-0.05090319
1764764837.72005,-3.7387,0.0762999999999999,0.82404,0.894101715,-0.45703008,-0.051452505
1764764837.72005,-3.7387,0.0762999999999999,0.82404,0.894101715,-0.45703008,-0.051452505
1764764837.72005,-3.7387,0.0762999999999999,0.82404,0.894101715,-0.45703008,-0.051452505
1764764837.72005,-3.7387,0.0762999999999999,0.82404,0.894101715,-0.45703008,-0.051452505
1764764837.7659817,-3.7387,0.0762999999999999,0.82404,0.894101715,-0.45703008,-0.051452505
1764764837.7659817,-3.7387,0.0762999999999999,0.82404,0.894101715,-0.45703008,-0.051452505
1764764837.7659817,-3.7387,0.0762999999999999,0.82404,0.894101715,-0.45703008,-0.051452505
1764764837.7659817,-3.7387,0.0762999999999999,0.82404,0.894101715,-0.45703008,-0.051452505
1764764837.7659817,-3.7387,0.0762999999999999,0.82404,0.894101715,-0.45703008,-0.051452505
1764764837.7659817,-3.7387,0.0762999999999999,0.82404,0.894101715,-0.45703008,-0.051452505
1764764837.7659817,-3.6624,0.4578,1.02242,0.89489517,-0.4565418,-0.051330435
1764764837.7659817,-3.6624,0.4578,1.02242,0.89489517,-0.4565418,-0.051330435
1764764837.7659817,-3.6624,0.4578,1.02242,0.89489517,-0.4565418,-0.051330435
1764764837.7659817,-3.6624,0.4578,1.02242,0.89489517,-0.4565418,-0.051330435
1764764837.7659817,-3.6624,0.4578,1.02242,0.89489517,-0.4565418,-0.051330435
1764764837.7659817,-3.6624,0.4578,1.02242,0.89489517,-0.4565418,-0.051330435
1764764837.7659817,-3.6624,0.4578,1.02242,0.89489517,-0.4565418,-0.051330435
1764764837.7659817,-3.6624,0.4578,1.02242,0.89489517,-0.4565418,-0.051330435
1764764837.7659817,-3.6624,0.4578,1.02242,0.89489517,-0.4565418,-0.051330435
1764764837.7659817,-3.6624,0.4578,1.02242,0.89489517,-0.4565418,-0.051330435
1764764837.7659817,-2.5942,1.17502,1.6633399999999998,0.89330826,-0.45812871,-0.05114733
1764764837.7659817,-2.5942,1.17502,1.6633399999999998,0.89330826,-0.45812871,-0.05114733
1764764837.7659817,-2.5942,1.17502,1.6633399999999998,0.89330826,-0.45812871,-0.05114733
1764764837.7659817,-2.5942,1.17502,1.6633399999999998,0.89330826,-0.45812871,-0.05114733
1764764837.7659817,-2.5942,1.17502,1.6633399999999998,0.89330826,-0.45812871,-0.05114733
1764764837.7659817,-2.5942,1.17502,1.6633399999999998,0.89330826,-0.45812871,-0.05114733
1764764837.7659817,-2.5942,1.17502,1.6633399999999998,0.89330826,-0.45812871,-0.05114733
1764764837.7659817,-2.5942,1.17502,1.6633399999999998,0.89330826,-0.45812871,-0.05114733
1764764837.8123195,-2.5942,1.17502,1.6633399999999998,0.89330826,-0.45812871,-0.05114733
1764764837.8123195,-2.5942,1.17502,1.6633399999999998,0.89330826,-0.45812871,-0.05114733
1764764837.8123195,-2.07536,0.25942,2.1364,0.892514805,-0.4589832,-0.051696645
1764764837.8123195,-2.07536,0.25942,2.1364,0.892514805,-0.4589832,-0.051696645
1764764837.8123195,-2.07536,0.25942,2.1364,0.892514805,-0.4589832,-0.051696645
1764764837.8123195,-2.07536,0.25942,2.1364,0.892514805,-0.4589832,-0.051696645
1764764837.8123195,-2.07536,0.25942,2.1364,0.892514805,-0.4589832,-0.051696645
1764764837.8123195,-2.07536,0.25942,2.1364,0.892514805,-0.4589832,-0.051696645
1764764837.8133602,-2.07536,0.25942,2.1364,0.892514805,-0.4589832,-0.051696645
1764764837.8133602,-2.07536,0.25942,2.1364,0.892514805,-0.4589832,-0.051696645
1764764837.8133602,-2.07536,0.25942,2.1364,0.892514805,-0.4589832,-0.051696645
1764764837.8133602,-2.07536,0.25942,2.1364,0.892514805,-0.4589832,-0.051696645
1764764837.8133602,-1.41918,-0.03052,2.41108,0.893613435,-0.45971562,-0.052062855
1764764837.8133602,-1.41918,-0.03052,2.41108,0.893613435,-0.45971562,-0.052062855
1764764837.8133602,-1.41918,-0.03052,2.41108,0.893613435,-0.45971562,-0.052062855
1764764837.8133602,-1.41918,-0.03052,2.41108,0.893613435,-0.45971562,-0.052062855
1764764837.8133602,-1.41918,-0.03052,2.41108,0.893613435,-0.45971562,-0.052062855
1764764837.8143592,-1.41918,-0.03052,2.41108,0.893613435,-0.45971562,-0.052062855
1764764837.8143592,-1.41918,-0.03052,2.41108,0.893613435,-0.45971562,-0.052062855
1764764837.8143592,-1.41918,-0.03052,2.41108,0.893613435,-0.45971562,-0.052062855
1764764837.8143592,-1.41918,-0.03052,2.41108,0.893613435,-0.45971562,-0.052062855
1764764837.8143592,-1.41918,-0.03052,2.41108,0.893613435,-0.45971562,-0.052062855
1764764837.8143592,-2.02958,0.6103999999999999,1.61756,0.8970313950000001,-0.4589832,-0.052795275
1764764837.8143592,-2.02958,0.6103999999999999,1.61756,0.8970313950000001,-0.4589832,-0.052795275
1764764837.8572795,-2.02958,0.6103999999999999,1.61756,0.8970313950000001,-0.4589832,-0.052795275
1764764837.8572795,-2.02958,0.6103999999999999,1.61756,0.8970313950000001,-0.4589832,-0.052795275
1764764837.8572795,-2.02958,0.6103999999999999,1.61756,0.8970313950000001,-0.4589832,-0.052795275
1764764837.8586872,-2.02958,0.6103999999999999,1.61756,0.8970313950000001,-0.4589832,-0.052795275
1764764837.8586872,-2.02958,0.6103999999999999,1.61756,0.8970313950000001,-0.4589832,-0.052795275
1764764837.8586872,-2.02958,0.6103999999999999,1.61756,0.8970313950000001,-0.4589832,-0.052795275
1764764837.8586872,-2.02958,0.6103999999999999,1.61756,0.8970313950000001,-0.4589832,-0.052795275
1764764837.8586872,-2.02958,0.6103999999999999,1.61756,0.8970313950000001,-0.4589832,-0.052795275
1764764837.8586872,-1.4497,2.30426,0.82404,0.900327285,-0.45873906,-0.05139147
1764764837.8586872,-1.4497,2.30426,0.82404,0.900327285,-0.45873906,-0.05139147
1764764837.8586872,-1.4497,2.30426,0.82404,0.900327285,-0.45873906,-0.05139147
1764764837.8586872,-1.4497,2.30426,0.82404,0.900327285,-0.45873906,-0.05139147
1764764837.8596935,-1.4497,2.30426,0.82404,0.900327285,-0.45873906,-0.05139147
1764764837.8596935,-1.4497,2.30426,0.82404,0.900327285,-0.45873906,-0.05139147
1764764837.8596935,-1.4497,2.30426,0.82404,0.900327285,-0.45873906,-0.05139147
1764764837.8596935,-1.4497,2.30426,0.82404,0.900327285,-0.45873906,-0.05139147
1764764837.8596935,-1.4497,2.30426,0.82404,0.900327285,-0.45873906,-0.05139147
1764764837.8596935,-1.4497,2.30426,0.82404,0.900327285,-0.45873906,-0.05139147
1764764837.8596935,-1.26658,3.57084,0.09156,0.8996559000000001,-0.456969045,-0.05029284
1764764837.8596935,-1.26658,3.57084,0.09156,0.8996559000000001,-0.456969045,-0.05029284
1764764837.9074838,-1.26658,3.57084,0.09156,0.8996559000000001,-0.456969045,-0.05029284
1764764837.9074838,-1.26658,3.57084,0.09156,0.8996559000000001,-0.456969045,-0.05029284
1764764837.9074838,-1.26658,3.57084,0.09156,0.8996559000000001,-0.456969045,-0.05029284
1764764837.9074838,-1.26658,3.57084,0.09156,0.8996559000000001,-0.456969045,-0.05029284
1764764837.9074838,-1.26658,3.57084,0.09156,0.8996559000000001,-0.456969045,-0.05029284
1764764837.9074838,-1.26658,3.57084,0.09156,0.8996559000000001,-0.456969045,-0.05029284
1764764837.9074838,-1.26658,3.57084,0.09156,0.8996559000000001,-0.456969045,-0.05029284
1764764837.9074838,-1.26658,3.57084,0.09156,0.8996559000000001,-0.456969045,-0.05029284
1764764837.9074838,-1.9838,3.69292,0.41202,0.895566555,-0.45483282,-0.05041491
1764764837.9074838,-1.9838,3.69292,0.41202,0.895566555,-0.45483282,-0.05041491
1764764837.9074838,-1.9838,3.69292,0.41202,0.895566555,-0.45483282,-0.05041491
1764764837.9074838,-1.9838,3.69292,0.41202,0.895566555,-0.45483282,-0.05041491
1764764837.9074838,-1.9838,3.69292,0.41202,0.895566555,-0.45483282,-0.05041491
1764764837.9074838,-1.9838,3.69292,0.41202,0.895566555,-0.45483282,-0.05041491
1764764837.9074838,-1.9838,3.69292,0.41202,0.895566555,-0.45483282,-0.05041491
1764764837.9074838,-1.9838,3.69292,0.41202,0.895566555,-0.45483282,-0.05041491
1764764837.9074838,-1.9838,3.69292,0.41202,0.895566555,-0.45483282,-0.05041491
1764764837.9074838,-1.9838,3.69292,0.41202,0.895566555,-0.45483282,-0.05041491
1764764837.9074838,-2.41108,2.5942,0.47306,0.89318619,-0.453917295,-0.049255245
1764764837.9074838,-2.41108,2.5942,0.47306,0.89318619,-0.453917295,-0.049255245
1764764837.9074838,-2.41108,2.5942,0.47306,0.89318619,-0.453917295,-0.049255245
1764764837.9074838,-2.41108,2.5942,0.47306,0.89318619,-0.453917295,-0.049255245
1764764837.908133,-2.41108,2.5942,0.47306,0.89318619,-0.453917295,-0.049255245
1764764837.908133,-2.41108,2.5942,0.47306,0.89318619,-0.453917295,-0.049255245
1764764837.9516015,-2.41108,2.5942,0.47306,0.89318619,-0.453917295,-0.049255245
1764764837.9527082,-2.41108,2.5942,0.47306,0.89318619,-0.453917295,-0.049255245
1764764837.9527082,-2.41108,2.5942,0.47306,0.89318619,-0.453917295,-0.049255245
1764764837.9527082,-2.41108,2.5942,0.47306,0.89318619,-0.453917295,-0.049255245
1764764837.9527082,-2.65524,2.41108,-0.21364,0.892758945,-0.454893855,-0.048278685
1764764837.9527082,-2.65524,2.41108,-0.21364,0.892758945,-0.454893855,-0.048278685
1764764837.9527082,-2.65524,2.41108,-0.21364,0.892758945,-0.454893855,-0.048278685
1764764837.9527082,-2.65524,2.41108,-0.21364,0.892758945,-0.454893855,-0.048278685
1764764837.9527082,-2.65524,2.41108,-0.21364,0.892758945,-0.454893855,-0.048278685
1764764837.9527082,-2.65524,2.41108,-0.21364,0.892758945,-0.454893855,-0.048278685
1764764837.9527082,-2.65524,2.41108,-0.21364,0.892758945,-0.454893855,-0.048278685
1764764837.9527082,-2.65524,2.41108,-0.21364,0.892758945,-0.454893855,-0.048278685
1764764837.9527082,-2.65524,2.41108,-0.21364,0.892758945,-0.454893855,-0.048278685
1764764837.9527082,-2.65524,2.41108,-0.21364,0.892758945,-0.454893855,-0.048278685
1764764837.9527082,-2.50264,1.72438,-0.01526,0.89269791,-0.45495489,-0.04736316
1764764837.9527082,-2.50264,1.72438,-0.01526,0.89269791,-0.45495489,-0.04736316
1764764837.9527082,-2.50264,1.72438,-0.01526,0.89269791,-0.45495489,-0.04736316
1764764837.9527082,-2.50264,1.72438,-0.01526,0.89269791,-0.45495489,-0.04736316
1764764837.9527082,-2.50264,1.72438,-0.01526,0.89269791,-0.45495489,-0.04736316
1764764837.9527082,-2.50264,1.72438,-0.01526,0.89269791,-0.45495489,-0.04736316
1764764837.9527082,-2.50264,1.72438,-0.01526,0.89269791,-0.45495489,-0.04736316
1764764837.9527082,-2.50264,1.72438,-0.01526,0.89269791,-0.45495489,-0.04736316
1764764837.9527082,-2.50264,1.72438,-0.01526,0.89269791,-0.45495489,-0.04736316
1764764837.9527082,-2.50264,1.72438,-0.01526,0.89269791,-0.45495489,-0.04736316
1764764837.9999998,-2.91466,1.05294,0.47306,0.8928810150000001,-0.455626275,-0.047057985
1764764837.9999998,-2.91466,1.05294,0.47306,0.8928810150000001,-0.455626275,-0.047057985
1764764837.9999998,-2.91466,1.05294,0.47306,0.8928810150000001,-0.455626275,-0.047057985
1764764837.9999998,-2.91466,1.05294,0.47306,0.8928810150000001,-0.455626275,-0.047057985
1764764837.9999998,-2.91466,1.05294,0.47306,0.8928810150000001,-0.455626275,-0.047057985
1764764837.9999998,-2.91466,1.05294,0.47306,0.8928810150000001,-0.455626275,-0.047057985
1764764837.9999998,-2.91466,1.05294,0.47306,0.8928810150000001,-0.455626275,-0.047057985
1764764838.0010228,-2.91466,1.05294,0.47306,0.8928810150000001,-0.455626275,-0.047057985
1764764838.0010228,-2.91466,1.05294,0.47306,0.8928810150000001,-0.455626275,-0.047057985
1764764838.0010228,-2.91466,1.05294,0.47306,0.8928810150000001,-0.455626275,-0.047057985
1764764838.0010228,-3.4335,0.6714399999999999,0.6867,0.89501724,-0.455382135,-0.046569705
1764764838.0010228,-3.4335,0.6714399999999999,0.6867,0.89501724,-0.455382135,-0.046569705
1764764838.0010228,-3.4335,0.6714399999999999,0.6867,0.89501724,-0.455382135,-0.046569705
1764764838.0010228,-3.4335,0.6714399999999999,0.6867,0.89501724,-0.455382135,-0.046569705
1764764838.0010228,-3.4335,0.6714399999999999,0.6867,0.89501724,-0.455382135,-0.046569705
1764764838.0010228,-3.4335,0.6714399999999999,0.6867,0.89501724,-0.455382135,-0.046569705
1764764838.0010228,-3.4335,0.6714399999999999,0.6867,0.89501724,-0.455382135,-0.046569705
1764764838.0010228,-3.4335,0.6714399999999999,0.6867,0.89501724,-0.455382135,-0.046569705
1764764838.0020149,-3.4335,0.6714399999999999,0.6867,0.89501724,-0.455382135,-0.046569705
1764764838.0020149,-3.4335,0.6714399999999999,0.6867,0.89501724,-0.455382135,-0.046569705
1764764838.0020149,-3.03674,1.1445,1.46496,0.89562759,-0.455870415,-0.046935915
1764764838.0020149,-3.03674,1.1445,1.46496,0.89562759,-0.455870415,-0.046935915
1764764838.0020149,-3.03674,1.1445,1.46496,0.89562759,-0.455870415,-0.046935915
1764764838.0020149,-3.03674,1.1445,1.46496,0.89562759,-0.455870415,-0.046935915
1764764838.0445197,-3.03674,1.1445,1.46496,0.89562759,-0.455870415,-0.046935915
1764764838.0445197,-3.03674,1.1445,1.46496,0.89562759,-0.455870415,-0.046935915
1764764838.0445197,-3.03674,1.1445,1.46496,0.89562759,-0.455870415,-0.046935915
1764764838.0459805,-3.03674,1.1445,1.46496,0.89562759,-0.455870415,-0.046935915
1764764838.0459805,-3.03674,1.1445,1.46496,0.89562759,-0.455870415,-0.046935915
1764764838.0459805,-3.03674,1.1445,1.46496,0.89562759,-0.455870415,-0.046935915
1764764838.0463765,-3.34194,0.65618,1.86172,0.894467925,-0.45666387,-0.048400755
1764764838.0463765,-3.34194,0.65618,1.86172,0.894467925,-0.45666387,-0.048400755
1764764838.0463765,-3.34194,0.65618,1.86172,0.894467925,-0.45666387,-0.048400755
1764764838.0463765,-3.34194,0.65618,1.86172,0.894467925,-0.45666387,-0.048400755
1764764838.0463765,-3.34194,0.65618,1.86172,0.894467925,-0.45666387,-0.048400755
1764764838.0463765,-3.34194,0.65618,1.86172,0.894467925,-0.45666387,-0.048400755
1764764838.0463765,-3.34194,0.65618,1.86172,0.894467925,-0.45666387,-0.048400755
1764764838.0463765,-3.34194,0.65618,1.86172,0.894467925,-0.45666387,-0.048400755
1764764838.0463765,-3.34194,0.65618,1.86172,0.894467925,-0.45666387,-0.048400755
1764764838.0463765,-3.34194,0.65618,1.86172,0.894467925,-0.45666387,-0.048400755
1764764838.0463765,-4.10494,-0.25942,2.0601,0.8928199800000001,-0.45397833,-0.04956042
1764764838.0463765,-4.10494,-0.25942,2.0601,0.8928199800000001,-0.45397833,-0.04956042
1764764838.0463765,-4.10494,-0.25942,2.0601,0.8928199800000001,-0.45397833,-0.04956042
1764764838.0463765,-4.10494,-0.25942,2.0601,0.8928199800000001,-0.45397833,-0.04956042
1764764838.0463765,-4.10494,-0.25942,2.0601,0.8928199800000001,-0.45397833,-0.04956042
1764764838.0469966,-4.10494,-0.25942,2.0601,0.8928199800000001,-0.45397833,-0.04956042
1764764838.0469966,-4.10494,-0.25942,2.0601,0.8928199800000001,-0.45397833,-0.04956042
1764764838.0469966,-4.10494,-0.25942,2.0601,0.8928199800000001,-0.45397833,-0.04956042
1764764838.0937717,-4.10494,-0.25942,2.0601,0.8928199800000001,-0.45397833,-0.04956042
1764764838.0937717,-4.10494,-0.25942,2.0601,0.8928199800000001,-0.45397833,-0.04956042
1764764838.0937717,-3.7387,0.1525999999999999,2.53316,0.892514805,-0.454405575,-0.050353875
1764764838.0937717,-3.7387,0.1525999999999999,2.53316,0.892514805,-0.454405575,-0.050353875
1764764838.0937717,-3.7387,0.1525999999999999,2.53316,0.892514805,-0.454405575,-0.050353875
1764764838.0937717,-3.7387,0.1525999999999999,2.53316,0.892514805,-0.454405575,-0.050353875
1764764838.0937717,-3.7387,0.1525999999999999,2.53316,0.892514805,-0.454405575,-0.050353875
1764764838.0937717,-3.7387,0.1525999999999999,2.53316,0.892514805,-0.454405575,-0.050353875
1764764838.0937717,-3.7387,0.1525999999999999,2.53316,0.892514805,-0.454405575,-0.050353875
1764764838.0937717,-3.7387,0.1525999999999999,2.53316,0.892514805,-0.454405575,-0.050353875
1764764838.0937717,-3.7387,0.1525999999999999,2.53316,0.892514805,-0.454405575,-0.050353875
1764764838.0937717,-3.7387,0.1525999999999999,2.53316,0.892514805,-0.454405575,-0.050353875
1764764838.0937717,-3.67766,0.54936,3.03674,0.894467925,-0.45641973,-0.04956042
1764764838.0937717,-3.67766,0.54936,3.03674,0.894467925,-0.45641973,-0.04956042
1764764838.0937717,-3.67766,0.54936,3.03674,0.894467925,-0.45641973,-0.04956042
1764764838.0937717,-3.67766,0.54936,3.03674,0.894467925,-0.45641973,-0.04956042
1764764838.0937717,-3.67766,0.54936,3.03674,0.894467925,-0.45641973,-0.04956042
1764764838.0937717,-3.67766,0.54936,3.03674,0.894467925,-0.45641973,-0.04956042
1764764838.0937717,-3.67766,0.54936,3.03674,0.894467925,-0.45641973,-0.04956042
1764764838.0937717,-3.67766,0.54936,3.03674,0.894467925,-0.45641973,-0.04956042
1764764838.0937717,-3.67766,0.54936,3.03674,0.894467925,-0.45641973,-0.04956042
1764764838.0937717,-3.67766,0.54936,3.03674,0.894467925,-0.45641973,-0.04956042
1764764838.0937717,-3.60136,1.15976,2.88414,0.895200345,-0.45727422,-0.050109735
1764764838.0937717,-3.60136,1.15976,2.88414,0.895200345,-0.45727422,-0.050109735
1764764838.1409483,-3.60136,1.15976,2.88414,0.895200345,-0.45727422,-0.050109735
1764764838.1409483,-3.60136,1.15976,2.88414,0.895200345,-0.45727422,-0.050109735
1764764838.1409483,-3.60136,1.15976,2.88414,0.895200345,-0.45727422,-0.050109735
1764764838.1409483,-3.60136,1.15976,2.88414,0.895200345,-0.45727422,-0.050109735
1764764838.1409483,-3.60136,1.15976,2.88414,0.895200345,-0.45727422,-0.050109735
1764764838.1409483,-3.60136,1.15976,2.88414,0.895200345,-0.45727422,-0.050109735
1764764838.1409483,-3.60136,1.15976,2.88414,0.895200345,-0.45727422,-0.050109735
1764764838.1409483,-3.60136,1.15976,2.88414,0.895200345,-0.45727422,-0.050109735
1764764838.1409483,-3.37246,1.3734,1.9838,0.89550552,-0.45678594,-0.04992663
1764764838.1409483,-3.37246,1.3734,1.9838,0.89550552,-0.45678594,-0.04992663
1764764838.1409483,-3.37246,1.3734,1.9838,0.89550552,-0.45678594,-0.04992663
1764764838.1409483,-3.37246,1.3734,1.9838,0.89550552,-0.45678594,-0.04992663
1764764838.1409483,-3.37246,1.3734,1.9838,0.89550552,-0.45678594,-0.04992663
1764764838.1409483,-3.37246,1.3734,1.9838,0.89550552,-0.45678594,-0.04992663
1764764838.1409483,-3.37246,1.3734,1.9838,0.89550552,-0.45678594,-0.04992663
1764764838.1409483,-3.37246,1.3734,1.9838,0.89550552,-0.45678594,-0.04992663
1764764838.1409483,-3.37246,1.3734,1.9838,0.89550552,-0.45678594,-0.04992663
1764764838.1409483,-3.37246,1.3734,1.9838,0.89550552,-0.45678594,-0.04992663
1764764838.1409483,-3.02148,1.32762,0.763,0.89526138,-0.457579395,-0.050475945
1764764838.1409483,-3.02148,1.32762,0.763,0.89526138,-0.457579395,-0.050475945
1764764838.1409483,-3.02148,1.32762,0.763,0.89526138,-0.457579395,-0.050475945
1764764838.1409483,-3.02148,1.32762,0.763,0.89526138,-0.457579395,-0.050475945
1764764838.1409483,-3.02148,1.32762,0.763,0.89526138,-0.457579395,-0.050475945
1764764838.1409483,-3.02148,1.32762,0.763,0.89526138,-0.457579395,-0.050475945
1764764838.1844203,-3.02148,1.32762,0.763,0.89526138,-0.457579395,-0.050475945
1764764838.1844203,-3.02148,1.32762,0.763,0.89526138,-0.457579395,-0.050475945
1764764838.1844203,-3.02148,1.32762,0.763,0.89526138,-0.457579395,-0.050475945
1764764838.1844203,-3.02148,1.32762,0.763,0.89526138,-0.457579395,-0.050475945
1764764838.1844203,-2.5179,1.78542,0.48832,0.895810695,-0.45837285,-0.049865595
1764764838.1844203,-2.5179,1.78542,0.48832,0.895810695,-0.45837285,-0.049865595
1764764838.1844203,-2.5179,1.78542,0.48832,0.895810695,-0.45837285,-0.049865595
1764764838.1844203,-2.5179,1.78542,0.48832,0.895810695,-0.45837285,-0.049865595
1764764838.1844203,-2.5179,1.78542,0.48832,0.895810695,-0.45837285,-0.049865595
1764764838.1844203,-2.5179,1.78542,0.48832,0.895810695,-0.45837285,-0.049865595
1764764838.1844203,-2.5179,1.78542,0.48832,0.895810695,-0.45837285,-0.049865595
1764764838.1844203,-2.5179,1.78542,0.48832,0.895810695,-0.45837285,-0.049865595
1764764838.1844203,-2.5179,1.78542,0.48832,0.895810695,-0.45837285,-0.049865595
1764764838.184937,-2.5179,1.78542,0.48832,0.895810695,-0.45837285,-0.049865595
1764764838.184937,-2.24322,1.8006799999999998,-0.18312,0.89574966,-0.457823535,-0.050231805
1764764838.184937,-2.24322,1.8006799999999998,-0.18312,0.89574966,-0.457823535,-0.050231805
1764764838.184937,-2.24322,1.8006799999999998,-0.18312,0.89574966,-0.457823535,-0.050231805
1764764838.184937,-2.24322,1.8006799999999998,-0.18312,0.89574966,-0.457823535,-0.050231805
1764764838.184937,-2.24322,1.8006799999999998,-0.18312,0.89574966,-0.457823535,-0.050231805
1764764838.184937,-2.24322,1.8006799999999998,-0.18312,0.89574966,-0.457823535,-0.050231805
1764764838.184937,-2.24322,1.8006799999999998,-0.18312,0.89574966,-0.457823535,-0.050231805
1764764838.184937,-2.24322,1.8006799999999998,-0.18312,0.89574966,-0.457823535,-0.050231805
1764764838.2308085,-2.24322,1.8006799999999998,-0.18312,0.89574966,-0.457823535,-0.050231805
1764764838.2308085,-2.24322,1.8006799999999998,-0.18312,0.89574966,-0.457823535,-0.050231805
1764764838.2308085,-2.0601,1.86172,-0.4578,0.895810695,-0.457823535,-0.04931628
1764764838.2308085,-2.0601,1.86172,-0.4578,0.895810695,-0.457823535,-0.04931628
1764764838.2308085,-2.0601,1.86172,-0.4578,0.895810695,-0.457823535,-0.04931628
1764764838.2308085,-2.0601,1.86172,-0.4578,0.895810695,-0.457823535,-0.04931628
1764764838.2308085,-2.0601,1.86172,-0.4578,0.895810695,-0.457823535,-0.04931628
1764764838.2318404,-2.0601,1.86172,-0.4578,0.895810695,-0.457823535,-0.04931628
1764764838.2318404,-2.0601,1.86172,-0.4578,0.895810695,-0.457823535,-0.04931628
1764764838.2318404,-2.0601,1.86172,-0.4578,0.895810695,-0.457823535,-0.04931628
1764764838.2318404,-2.0601,1.86172,-0.4578,0.895810695,-0.457823535,-0.04931628
1764764838.2318404,-2.0601,1.86172,-0.4578,0.895810695,-0.457823535,-0.04931628
1764764838.2318404,-2.38056,1.63282,0.19838,0.894834135,-0.457823535,-0.04833972
1764764838.2318404,-2.38056,1.63282,0.19838,0.894834135,-0.457823535,-0.04833972
1764764838.2318404,-2.38056,1.63282,0.19838,0.894834135,-0.457823535,-0.04833972
1764764838.2318404,-2.38056,1.63282,0.19838,0.894834135,-0.457823535,-0.04833972
1764764838.2318404,-2.38056,1.63282,0.19838,0.894834135,-0.457823535,-0.04833972
1764764838.2318404,-2.38056,1.63282,0.19838,0.894834135,-0.457823535,-0.04833972
1764764838.2318404,-2.38056,1.63282,0.19838,0.894834135,-0.457823535,-0.04833972
1764764838.2318404,-2.38056,1.63282,0.19838,0.894834135,-0.457823535,-0.04833972
1764764838.2318404,-2.38056,1.63282,0.19838,0.894834135,-0.457823535,-0.04833972
1764764838.2318404,-2.38056,1.63282,0.19838,0.894834135,-0.457823535,-0.04833972
1764764838.232348,-2.38056,1.2208,0.6867,0.893491365,-0.45617559,-0.04833972
1764764838.232348,-2.38056,1.2208,0.6867,0.893491365,-0.45617559,-0.04833972
1764764838.2790444,-2.38056,1.2208,0.6867,0.893491365,-0.45617559,-0.04833972
1764764838.2800505,-2.38056,1.2208,0.6867,0.893491365,-0.45617559,-0.04833972
1764764838.2800505,-2.38056,1.2208,0.6867,0.893491365,-0.45617559,-0.04833972
1764764838.2800505,-2.38056,1.2208,0.6867,0.893491365,-0.45617559,-0.04833972
1764764838.2800505,-2.38056,1.2208,0.6867,0.893491365,-0.45617559,-0.04833972
1764764838.280708,-2.38056,1.2208,0.6867,0.893491365,-0.45617559,-0.04833972
1764764838.280708,-2.38056,1.2208,0.6867,0.893491365,-0.45617559,-0.04833972
1764764838.280708,-2.38056,1.2208,0.6867,0.893491365,-0.45617559,-0.04833972
1764764838.280708,-3.31142,0.5341,1.02242,0.892514805,-0.453917295,-0.04858386
1764764838.280708,-3.31142,0.5341,1.02242,0.892514805,-0.453917295,-0.04858386
1764764838.280708,-3.31142,0.5341,1.02242,0.892514805,-0.453917295,-0.04858386
1764764838.280708,-3.31142,0.5341,1.02242,0.892514805,-0.453917295,-0.04858386
1764764838.280708,-3.31142,0.5341,1.02242,0.892514805,-0.453917295,-0.04858386
1764764838.280708,-3.31142,0.5341,1.02242,0.892514805,-0.453917295,-0.04858386
1764764838.280708,-3.31142,0.5341,1.02242,0.892514805,-0.453917295,-0.04858386
1764764838.280708,-3.31142,0.5341,1.02242,0.892514805,-0.453917295,-0.04858386
1764764838.280708,-3.31142,0.5341,1.02242,0.892514805,-0.453917295,-0.04858386
1764764838.280708,-3.31142,0.5341,1.02242,0.892514805,-0.453917295,-0.04858386
1764764838.280708,-3.55558,1.00716,0.93086,0.893613435,-0.453306945,-0.048644895
1764764838.280708,-3.55558,1.00716,0.93086,0.893613435,-0.453306945,-0.048644895
1764764838.280708,-3.55558,1.00716,0.93086,0.893613435,-0.453306945,-0.048644895
1764764838.280708,-3.55558,1.00716,0.93086,0.893613435,-0.453306945,-0.048644895
1764764838.3243513,-3.55558,1.00716,0.93086,0.893613435,-0.453306945,-0.048644895
1764764838.3243513,-3.55558,1.00716,0.93086,0.893613435,-0.453306945,-0.048644895
1764764838.3243513,-3.55558,1.00716,0.93086,0.893613435,-0.453306945,-0.048644895
1764764838.3243513,-3.55558,1.00716,0.93086,0.893613435,-0.453306945,-0.048644895
1764764838.3243513,-3.55558,1.00716,0.93086,0.893613435,-0.453306945,-0.048644895
1764764838.3243513,-3.55558,1.00716,0.93086,0.893613435,-0.453306945,-0.048644895
1764764838.3243513,-4.13546,1.48022,1.11398,0.896909325,-0.45434454,-0.048156615
1764764838.3243513,-4.13546,1.48022,1.11398,0.896909325,-0.45434454,-0.048156615
1764764838.3243513,-4.13546,1.48022,1.11398,0.896909325,-0.45434454,-0.048156615
1764764838.3243513,-4.13546,1.48022,1.11398,0.896909325,-0.45434454,-0.048156615
1764764838.3243513,-4.13546,1.48022,1.11398,0.896909325,-0.45434454,-0.048156615
1764764838.3243513,-4.13546,1.48022,1.11398,0.896909325,-0.45434454,-0.048156615
1764764838.3243513,-4.13546,1.48022,1.11398,0.896909325,-0.45434454,-0.048156615
1764764838.324859,-4.13546,1.48022,1.11398,0.896909325,-0.45434454,-0.048156615
1764764838.324859,-4.13546,1.48022,1.11398,0.896909325,-0.45434454,-0.048156615
1764764838.324859,-4.13546,1.48022,1.11398,0.896909325,-0.45434454,-0.048156615
1764764838.324859,-3.63188,1.92276,1.12924,0.896298975,-0.455260065,-0.047546265
1764764838.324859,-3.63188,1.92276,1.12924,0.896298975,-0.455260065,-0.047546265
1764764838.324859,-3.63188,1.92276,1.12924,0.896298975,-0.455260065,-0.047546265
1764764838.324859,-3.63188,1.92276,1.12924,0.896298975,-0.455260065,-0.047546265
1764764838.324859,-3.63188,1.92276,1.12924,0.896298975,-0.455260065,-0.047546265
1764764838.324859,-3.63188,1.92276,1.12924,0.896298975,-0.455260065,-0.047546265
1764764838.324859,-3.63188,1.92276,1.12924,0.896298975,-0.455260065,-0.047546265
1764764838.324859,-3.63188,1.92276,1.12924,0.896298975,-0.455260065,-0.047546265
1764764838.3717675,-3.63188,1.92276,1.12924,0.896298975,-0.455260065,-0.047546265
1764764838.3717675,-3.63188,1.92276,1.12924,0.896298975,-0.455260065,-0.047546265
1764764838.3717675,-3.32668,1.15976,1.6786,0.893125155,-0.45593145,-0.047546265
1764764838.3717675,-3.32668,1.15976,1.6786,0.893125155,-0.45593145,-0.047546265
1764764838.3717675,-3.32668,1.15976,1.6786,0.893125155,-0.45593145,-0.047546265
1764764838.3717675,-3.32668,1.15976,1.6786,0.893125155,-0.45593145,-0.047546265
1764764838.3717675,-3.32668,1.15976,1.6786,0.893125155,-0.45593145,-0.047546265
1764764838.3717675,-3.32668,1.15976,1.6786,0.893125155,-0.45593145,-0.047546265
1764764838.3717675,-3.32668,1.15976,1.6786,0.893125155,-0.45593145,-0.047546265
1764764838.3717675,-3.32668,1.15976,1.6786,0.893125155,-0.45593145,-0.047546265
1764764838.3717675,-3.32668,1.15976,1.6786,0.893125155,-0.45593145,-0.047546265
1764764838.3717675,-3.32668,1.15976,1.6786,0.893125155,-0.45593145,-0.047546265
1764764838.3717675,-3.57084,0.88508,2.04484,0.89306412,-0.4577625,-0.04772937
1764764838.3727736,-3.57084,0.88508,2.04484,0.89306412,-0.4577625,-0.04772937
1764764838.3727736,-3.57084,0.88508,2.04484,0.89306412,-0.4577625,-0.04772937
1764764838.3727736,-3.57084,0.88508,2.04484,0.89306412,-0.4577625,-0.04772937
1764764838.3727736,-3.57084,0.88508,2.04484,0.89306412,-0.4577625,-0.04772937
1764764838.3727736,-3.57084,0.88508,2.04484,0.89306412,-0.4577625,-0.04772937
1764764838.3727736,-3.57084,0.88508,2.04484,0.89306412,-0.4577625,-0.04772937
1764764838.3727736,-3.57084,0.88508,2.04484,0.89306412,-0.4577625,-0.04772937
1764764838.3727736,-3.57084,0.88508,2.04484,0.89306412,-0.4577625,-0.04772937
1764764838.3727736,-3.57084,0.88508,2.04484,0.89306412,-0.4577625,-0.04772937
1764764838.3727736,-3.8913,0.74774,1.64808,0.89513931,-0.45849492,-0.04833972
1764764838.3727736,-3.8913,0.74774,1.64808,0.89513931,-0.45849492,-0.04833972
1764764838.418515,-3.8913,0.74774,1.64808,0.89513931,-0.45849492,-0.04833972
1764764838.418515,-3.8913,0.74774,1.64808,0.89513931,-0.45849492,-0.04833972
1764764838.418515,-3.8913,0.74774,1.64808,0.89513931,-0.45849492,-0.04833972
1764764838.418515,-3.8913,0.74774,1.64808,0.89513931,-0.45849492,-0.04833972
1764764838.418515,-3.8913,0.74774,1.64808,0.89513931,-0.45849492,-0.04833972
1764764838.418515,-3.8913,0.74774,1.64808,0.89513931,-0.45849492,-0.04833972
1764764838.4197934,-3.8913,0.74774,1.64808,0.89513931,-0.45849492,-0.04833972
1764764838.4197934,-3.8913,0.74774,1.64808,0.89513931,-0.45849492,-0.04833972
1764764838.4197934,-3.32668,1.87698,0.82404,0.8986183050000001,-0.45922734,-0.046935915
1764764838.4197934,-3.32668,1.87698,0.82404,0.8986183050000001,-0.45922734,-0.046935915
1764764838.4197934,-3.32668,1.87698,0.82404,0.8986183050000001,-0.45922734,-0.046935915
1764764838.4197934,-3.32668,1.87698,0.82404,0.8986183050000001,-0.45922734,-0.046935915
1764764838.4197934,-3.32668,1.87698,0.82404,0.8986183050000001,-0.45922734,-0.046935915
1764764838.4197934,-3.32668,1.87698,0.82404,0.8986183050000001,-0.45922734,-0.046935915
1764764838.4197934,-3.32668,1.87698,0.82404,0.8986183050000001,-0.45922734,-0.046935915
1764764838.4197934,-3.32668,1.87698,0.82404,0.8986183050000001,-0.45922734,-0.046935915
1764764838.4197934,-3.32668,1.87698,0.82404,0.8986183050000001,-0.45922734,-0.046935915
1764764838.4197934,-3.32668,1.87698,0.82404,0.8986183050000001,-0.45922734,-0.046935915
1764764838.4202974,-2.31952,2.76206,0.10682,0.8986183050000001,-0.45886113,-0.04589832
1764764838.4202974,-2.31952,2.76206,0.10682,0.8986183050000001,-0.45886113,-0.04589832
1764764838.4202974,-2.31952,2.76206,0.10682,0.8986183050000001,-0.45886113,-0.04589832
1764764838.4202974,-2.31952,2.76206,0.10682,0.8986183050000001,-0.45886113,-0.04589832
1764764838.466614,-2.31952,2.76206,0.10682,0.8986183050000001,-0.45886113,-0.04589832
1764764838.466614,-2.31952,2.76206,0.10682,0.8986183050000001,-0.45886113,-0.04589832
1764764838.466614,-2.31952,2.76206,0.10682,0.8986183050000001,-0.45886113,-0.04589832
1764764838.466614,-2.31952,2.76206,0.10682,0.8986183050000001,-0.45886113,-0.04589832
1764764838.466614,-2.31952,2.76206,0.10682,0.8986183050000001,-0.45886113,-0.04589832
1764764838.466614,-2.31952,2.76206,0.10682,0.8986183050000001,-0.45886113,-0.04589832
1764764838.466614,-2.5942,2.07536,-0.3204599999999999,0.895932765,-0.45751836,-0.046325565
1764764838.466614,-2.5942,2.07536,-0.3204599999999999,0.895932765,-0.45751836,-0.046325565
1764764838.466614,-2.5942,2.07536,-0.3204599999999999,0.895932765,-0.45751836,-0.046325565
1764764838.466614,-2.5942,2.07536,-0.3204599999999999,0.895932765,-0.45751836,-0.046325565
1764764838.466614,-2.5942,2.07536,-0.3204599999999999,0.895932765,-0.45751836,-0.046325565
1764764838.466614,-2.5942,2.07536,-0.3204599999999999,0.895932765,-0.45751836,-0.046325565
1764764838.466614,-2.5942,2.07536,-0.3204599999999999,0.895932765,-0.45751836,-0.046325565
1764764838.466614,-2.5942,2.07536,-0.3204599999999999,0.895932765,-0.45751836,-0.046325565
1764764838.466614,-2.5942,2.07536,-0.3204599999999999,0.895932765,-0.45751836,-0.046325565
1764764838.466614,-2.5942,2.07536,-0.3204599999999999,0.895932765,-0.45751836,-0.046325565
1764764838.466614,-2.5179,1.2055399999999998,0.01526,0.89257584,-0.4565418,-0.04577625
1764764838.466614,-2.5179,1.2055399999999998,0.01526,0.89257584,-0.4565418,-0.04577625
1764764838.466614,-2.5179,1.2055399999999998,0.01526,0.89257584,-0.4565418,-0.04577625
1764764838.466614,-2.5179,1.2055399999999998,0.01526,0.89257584,-0.4565418,-0.04577625
1764764838.466614,-2.5179,1.2055399999999998,0.01526,0.89257584,-0.4565418,-0.04577625
1764764838.466614,-2.5179,1.2055399999999998,0.01526,0.89257584,-0.4565418,-0.04577625
1764764838.466614,-2.5179,1.2055399999999998,0.01526,0.89257584,-0.4565418,-0.04577625
1764764838.466614,-2.5179,1.2055399999999998,0.01526,0.89257584,-0.4565418,-0.04577625
1764764838.5125358,-2.5179,1.2055399999999998,0.01526,0.89257584,-0.4565418,-0.04577625
1764764838.5125358,-2.5179,1.2055399999999998,0.01526,0.89257584,-0.4565418,-0.04577625
1764764838.5125358,-2.62472,0.4578,0.10682,0.8917823850000001,-0.45544317,-0.04553211
1764764838.513052,-2.62472,0.4578,0.10682,0.8917823850000001,-0.45544317,-0.04553211
1764764838.513052,-2.62472,0.4578,0.10682,0.8917823850000001,-0.45544317,-0.04553211
1764764838.513052,-2.62472,0.4578,0.10682,0.8917823850000001,-0.45544317,-0.04553211
1764764838.513052,-2.62472,0.4578,0.10682,0.8917823850000001,-0.45544317,-0.04553211
1764764838.513052,-2.62472,0.4578,0.10682,0.8917823850000001,-0.45544317,-0.04553211
1764764838.513052,-2.62472,0.4578,0.10682,0.8917823850000001,-0.45544317,-0.04553211
1764764838.513052,-2.62472,0.4578,0.10682,0.8917823850000001,-0.45544317,-0.04553211
1764764838.513052,-2.62472,0.4578,0.10682,0.8917823850000001,-0.45544317,-0.04553211
1764764838.513052,-2.62472,0.4578,0.10682,0.8917823850000001,-0.45544317,-0.04553211
1764764838.513052,-3.21986,0.28994,0.56462,0.89196549,-0.454649715,-0.04492176
1764764838.513052,-3.21986,0.28994,0.56462,0.89196549,-0.454649715,-0.04492176
1764764838.513052,-3.21986,0.28994,0.56462,0.89196549,-0.454649715,-0.04492176
1764764838.513052,-3.21986,0.28994,0.56462,0.89196549,-0.454649715,-0.04492176
1764764838.513052,-3.21986,0.28994,0.56462,0.89196549,-0.454649715,-0.04492176
1764764838.513052,-3.21986,0.28994,0.56462,0.89196549,-0.454649715,-0.04492176
1764764838.513052,-3.21986,0.28994,0.56462,0.89196549,-0.454649715,-0.04492176
1764764838.513052,-3.21986,0.28994,0.56462,0.89196549,-0.454649715,-0.04492176
1764764838.5135589,-3.21986,0.28994,0.56462,0.89196549,-0.454649715,-0.04492176
1764764838.5135589,-3.21986,0.28994,0.56462,0.89196549,-0.454649715,-0.04492176
1764764838.559929,-3.37246,0.0762999999999999,1.38866,0.893125155,-0.45471075,-0.0451659
1764764838.559929,-3.37246,0.0762999999999999,1.38866,0.893125155,-0.45471075,-0.0451659
1764764838.559929,-3.37246,0.0762999999999999,1.38866,0.893125155,-0.45471075,-0.0451659
1764764838.559929,-3.37246,0.0762999999999999,1.38866,0.893125155,-0.45471075,-0.0451659
1764764838.559929,-3.37246,0.0762999999999999,1.38866,0.893125155,-0.45471075,-0.0451659
1764764838.559929,-3.37246,0.0762999999999999,1.38866,0.893125155,-0.45471075,-0.0451659
1764764838.559929,-3.37246,0.0762999999999999,1.38866,0.893125155,-0.45471075,-0.0451659
1764764838.559929,-3.37246,0.0762999999999999,1.38866,0.893125155,-0.45471075,-0.0451659
1764764838.559929,-3.37246,0.0762999999999999,1.38866,0.893125155,-0.45471075,-0.0451659
1764764838.559929,-3.37246,0.0762999999999999,1.38866,0.893125155,-0.45471075,-0.0451659
1764764838.559929,-4.22702,-0.03052,1.8006799999999998,0.89501724,-0.454527645,-0.045715215
1764764838.559929,-4.22702,-0.03052,1.8006799999999998,0.89501724,-0.454527645,-0.045715215
1764764838.559929,-4.22702,-0.03052,1.8006799999999998,0.89501724,-0.454527645,-0.045715215
1764764838.559929,-4.22702,-0.03052,1.8006799999999998,0.89501724,-0.454527645,-0.045715215
1764764838.559929,-4.22702,-0.03052,1.8006799999999998,0.89501724,-0.454527645,-0.045715215
1764764838.559929,-4.22702,-0.03052,1.8006799999999998,0.89501724,-0.454527645,-0.045715215
1764764838.559929,-4.22702,-0.03052,1.8006799999999998,0.89501724,-0.454527645,-0.045715215
1764764838.559929,-4.22702,-0.03052,1.8006799999999998,0.89501724,-0.454527645,-0.045715215
1764764838.559929,-4.22702,-0.03052,1.8006799999999998,0.89501724,-0.454527645,-0.045715215
1764764838.559929,-4.22702,-0.03052,1.8006799999999998,0.89501724,-0.454527645,-0.045715215
1764764838.559929,-4.21176,-0.25942,1.8312,0.894834135,-0.456114555,-0.045959355
1764764838.559929,-4.21176,-0.25942,1.8312,0.894834135,-0.456114555,-0.045959355
1764764838.559929,-4.21176,-0.25942,1.8312,0.894834135,-0.456114555,-0.045959355
1764764838.559929,-4.21176,-0.25942,1.8312,0.894834135,-0.456114555,-0.045959355
1764764838.603437,-4.21176,-0.25942,1.8312,0.894834135,-0.456114555,-0.045959355
1764764838.603437,-4.21176,-0.25942,1.8312,0.894834135,-0.456114555,-0.045959355
1764764838.603437,-4.21176,-0.25942,1.8312,0.894834135,-0.456114555,-0.045959355
1764764838.603437,-4.21176,-0.25942,1.8312,0.894834135,-0.456114555,-0.045959355
1764764838.603437,-4.21176,-0.25942,1.8312,0.894834135,-0.456114555,-0.045959355
1764764838.603437,-4.21176,-0.25942,1.8312,0.894834135,-0.456114555,-0.045959355
1764764838.603437,-4.59326,0.01526,2.91466,0.89428482,-0.457335255,-0.04602039
1764764838.603437,-4.59326,0.01526,2.91466,0.89428482,-0.457335255,-0.04602039
1764764838.603437,-4.59326,0.01526,2.91466,0.89428482,-0.457335255,-0.04602039
1764764838.603437,-4.59326,0.01526,2.91466,0.89428482,-0.457335255,-0.04602039
1764764838.603437,-4.59326,0.01526,2.91466,0.89428482,-0.457335255,-0.04602039
1764764838.603437,-4.59326,0.01526,2.91466,0.89428482,-0.457335255,-0.04602039
1764764838.603437,-4.59326,0.01526,2.91466,0.89428482,-0.457335255,-0.04602039
1764764838.603437,-4.59326,0.01526,2.91466,0.89428482,-0.457335255,-0.04602039
1764764838.603437,-4.59326,0.01526,2.91466,0.89428482,-0.457335255,-0.04602039
1764764838.603437,-4.59326,0.01526,2.91466,0.89428482,-0.457335255,-0.04602039
1764764838.603437,-5.14262,-0.6409199999999999,3.11304,0.892636875,-0.456602835,-0.046447635
1764764838.603437,-5.14262,-0.6409199999999999,3.11304,0.892636875,-0.456602835,-0.046447635
1764764838.603437,-5.14262,-0.6409199999999999,3.11304,0.892636875,-0.456602835,-0.046447635
1764764838.603437,-5.14262,-0.6409199999999999,3.11304,0.892636875,-0.456602835,-0.046447635
1764764838.603437,-5.14262,-0.6409199999999999,3.11304,0.892636875,-0.456602835,-0.046447635
1764764838.603437,-5.14262,-0.6409199999999999,3.11304,0.892636875,-0.456602835,-0.046447635
1764764838.603437,-5.14262,-0.6409199999999999,3.11304,0.892636875,-0.456602835,-0.046447635
1764764838.603437,-5.14262,-0.6409199999999999,3.11304,0.892636875,-0.456602835,-0.046447635
1764764838.6503267,-5.14262,-0.6409199999999999,3.11304,0.892636875,-0.456602835,-0.046447635
1764764838.6503267,-5.14262,-0.6409199999999999,3.11304,0.892636875,-0.456602835,-0.046447635
1764764838.6503267,-5.340999999999999,-1.15976,3.14356,0.89159928,-0.456724905,-0.047790405
1764764838.6508334,-5.340999999999999,-1.15976,3.14356,0.89159928,-0.456724905,-0.047790405
1764764838.6508334,-5.340999999999999,-1.15976,3.14356,0.89159928,-0.456724905,-0.047790405
1764764838.6508334,-5.340999999999999,-1.15976,3.14356,0.89159928,-0.456724905,-0.047790405
1764764838.6508334,-5.340999999999999,-1.15976,3.14356,0.89159928,-0.456724905,-0.047790405
1764764838.6508334,-5.340999999999999,-1.15976,3.14356,0.89159928,-0.456724905,-0.047790405
1764764838.6508334,-5.340999999999999,-1.15976,3.14356,0.89159928,-0.456724905,-0.047790405
1764764838.6508334,-5.340999999999999,-1.15976,3.14356,0.89159928,-0.456724905,-0.047790405
1764764838.6508334,-5.340999999999999,-1.15976,3.14356,0.89159928,-0.456724905,-0.047790405
1764764838.6508334,-5.340999999999999,-1.15976,3.14356,0.89159928,-0.456724905,-0.047790405
1764764838.6508334,-5.44782,-0.54936,3.00622,0.89184342,-0.4577625,-0.04833972
1764764838.6508334,-5.44782,-0.54936,3.00622,0.89184342,-0.4577625,-0.04833972
1764764838.6508334,-5.44782,-0.54936,3.00622,0.89184342,-0.4577625,-0.04833972
1764764838.6508334,-5.44782,-0.54936,3.00622,0.89184342,-0.4577625,-0.04833972
1764764838.6508334,-5.44782,-0.54936,3.00622,0.89184342,-0.4577625,-0.04833972
1764764838.6508334,-5.44782,-0.54936,3.00622,0.89184342,-0.4577625,-0.04833972
1764764838.6508334,-5.44782,-0.54936,3.00622,0.89184342,-0.4577625,-0.04833972
1764764838.6508334,-5.44782,-0.54936,3.00622,0.89184342,-0.4577625,-0.04833972
1764764838.6508334,-5.44782,-0.54936,3.00622,0.89184342,-0.4577625,-0.04833972
1764764838.6508334,-5.44782,-0.54936,3.00622,0.89184342,-0.4577625,-0.04833972
1764764838.697668,-5.4173,-0.25942,2.91466,0.89306412,-0.458555955,-0.049133175
1764764838.697668,-5.4173,-0.25942,2.91466,0.89306412,-0.458555955,-0.049133175
1764764838.697668,-5.4173,-0.25942,2.91466,0.89306412,-0.458555955,-0.049133175
1764764838.697668,-5.4173,-0.25942,2.91466,0.89306412,-0.458555955,-0.049133175
1764764838.697668,-5.4173,-0.25942,2.91466,0.89306412,-0.458555955,-0.049133175
1764764838.697668,-5.4173,-0.25942,2.91466,0.89306412,-0.458555955,-0.049133175
1764764838.697668,-5.4173,-0.25942,2.91466,0.89306412,-0.458555955,-0.049133175
1764764838.697668,-5.4173,-0.25942,2.91466,0.89306412,-0.458555955,-0.049133175
1764764838.697668,-5.4173,-0.25942,2.91466,0.89306412,-0.458555955,-0.049133175
1764764838.697668,-5.4173,-0.25942,2.91466,0.89306412,-0.458555955,-0.049133175
1764764838.697668,-5.340999999999999,0.27468,2.1364,0.894345855,-0.459044235,-0.05017077
1764764838.697668,-5.340999999999999,0.27468,2.1364,0.894345855,-0.459044235,-0.05017077
1764764838.697668,-5.340999999999999,0.27468,2.1364,0.894345855,-0.459044235,-0.05017077
1764764838.697668,-5.340999999999999,0.27468,2.1364,0.894345855,-0.459044235,-0.05017077
1764764838.697668,-5.340999999999999,0.27468,2.1364,0.894345855,-0.459044235,-0.05017077
1764764838.697668,-5.340999999999999,0.27468,2.1364,0.894345855,-0.459044235,-0.05017077
1764764838.697668,-5.340999999999999,0.27468,2.1364,0.894345855,-0.459044235,-0.05017077
1764764838.697668,-5.340999999999999,0.27468,2.1364,0.894345855,-0.459044235,-0.05017077
1764764838.697668,-5.340999999999999,0.27468,2.1364,0.894345855,-0.459044235,-0.05017077
1764764838.697668,-5.340999999999999,0.27468,2.1364,0.894345855,-0.459044235,-0.05017077
1764764838.697668,-5.24944,0.5341,1.2971,0.89465103,-0.460631145,-0.05102526
1764764838.697668,-5.24944,0.5341,1.2971,0.89465103,-0.460631145,-0.05102526
1764764838.741067,-5.24944,0.5341,1.2971,0.89465103,-0.460631145,-0.05102526
1764764838.741067,-5.24944,0.5341,1.2971,0.89465103,-0.460631145,-0.05102526
1764764838.741067,-5.24944,0.5341,1.2971,0.89465103,-0.460631145,-0.05102526
1764764838.741067,-5.24944,0.5341,1.2971,0.89465103,-0.460631145,-0.05102526
1764764838.741067,-5.24944,0.5341,1.2971,0.89465103,-0.460631145,-0.05102526
1764764838.741067,-5.24944,0.5341,1.2971,0.89465103,-0.460631145,-0.05102526
1764764838.741067,-5.24944,0.5341,1.2971,0.89465103,-0.460631145,-0.05102526
1764764838.741067,-5.24944,0.5341,1.2971,0.89465103,-0.460631145,-0.05102526
1764764838.741067,-4.37962,0.7019599999999999,1.2055399999999998,0.8944068900000001,-0.461607705,-0.050964225
1764764838.741067,-4.37962,0.7019599999999999,1.2055399999999998,0.8944068900000001,-0.461607705,-0.050964225
1764764838.741067,-4.37962,0.7019599999999999,1.2055399999999998,0.8944068900000001,-0.461607705,-0.050964225
1764764838.741067,-4.37962,0.7019599999999999,1.2055399999999998,0.8944068900000001,-0.461607705,-0.050964225
1764764838.741067,-4.37962,0.7019599999999999,1.2055399999999998,0.8944068900000001,-0.461607705,-0.050964225
1764764838.741067,-4.37962,0.7019599999999999,1.2055399999999998,0.8944068900000001,-0.461607705,-0.050964225
1764764838.741067,-4.37962,0.7019599999999999,1.2055399999999998,0.8944068900000001,-0.461607705,-0.050964225
1764764838.741067,-4.37962,0.7019599999999999,1.2055399999999998,0.8944068900000001,-0.461607705,-0.050964225
1764764838.741067,-4.37962,0.7019599999999999,1.2055399999999998,0.8944068900000001,-0.461607705,-0.050964225
1764764838.741067,-4.37962,0.7019599999999999,1.2055399999999998,0.8944068900000001,-0.461607705,-0.050964225
1764764838.741067,-4.18124,0.9919,0.4578,0.8944068900000001,-0.462340125,-0.05139147
1764764838.741067,-4.18124,0.9919,0.4578,0.8944068900000001,-0.462340125,-0.05139147
1764764838.741067,-4.18124,0.9919,0.4578,0.8944068900000001,-0.462340125,-0.05139147
1764764838.741067,-4.18124,0.9919,0.4578,0.8944068900000001,-0.462340125,-0.05139147
1764764838.741067,-4.18124,0.9919,0.4578,0.8944068900000001,-0.462340125,-0.05139147
1764764838.741067,-4.18124,0.9919,0.4578,0.8944068900000001,-0.462340125,-0.05139147
1764764838.7875984,-4.18124,0.9919,0.4578,0.8944068900000001,-0.462340125,-0.05139147
1764764838.7875984,-4.18124,0.9919,0.4578,0.8944068900000001,-0.462340125,-0.05139147
1764764838.7875984,-4.18124,0.9919,0.4578,0.8944068900000001,-0.462340125,-0.05139147
1764764838.7875984,-4.18124,0.9919,0.4578,0.8944068900000001,-0.462340125,-0.05139147
1764764838.7875984,-3.67766,1.25132,0.27468,0.89367447,-0.46203495,-0.052062855
1764764838.7875984,-3.67766,1.25132,0.27468,0.89367447,-0.46203495,-0.052062855
1764764838.7875984,-3.67766,1.25132,0.27468,0.89367447,-0.46203495,-0.052062855
1764764838.7875984,-3.67766,1.25132,0.27468,0.89367447,-0.46203495,-0.052062855
1764764838.7875984,-3.67766,1.25132,0.27468,0.89367447,-0.46203495,-0.052062855
1764764838.7875984,-3.67766,1.25132,0.27468,0.89367447,-0.46203495,-0.052062855
1764764838.7875984,-3.67766,1.25132,0.27468,0.89367447,-0.46203495,-0.052062855
1764764838.7875984,-3.67766,1.25132,0.27468,0.89367447,-0.46203495,-0.052062855
1764764838.7875984,-3.67766,1.25132,0.27468,0.89367447,-0.46203495,-0.052062855
1764764838.7875984,-3.67766,1.25132,0.27468,0.89367447,-0.46203495,-0.052062855
1764764838.7886922,-3.49454,1.34288,0.06104,0.894589995,-0.46252323,-0.051818715
1764764838.7886922,-3.49454,1.34288,0.06104,0.894589995,-0.46252323,-0.051818715
1764764838.7886922,-3.49454,1.34288,0.06104,0.894589995,-0.46252323,-0.051818715
1764764838.7886922,-3.49454,1.34288,0.06104,0.894589995,-0.46252323,-0.051818715
1764764838.7886922,-3.49454,1.34288,0.06104,0.894589995,-0.46252323,-0.051818715
1764764838.7886922,-3.49454,1.34288,0.06104,0.894589995,-0.46252323,-0.051818715
1764764838.7886922,-3.49454,1.34288,0.06104,0.894589995,-0.46252323,-0.051818715
1764764838.7886922,-3.49454,1.34288,0.06104,0.894589995,-0.46252323,-0.051818715
1764764838.7886922,-3.49454,1.34288,0.06104,0.894589995,-0.46252323,-0.051818715
1764764838.7886922,-3.49454,1.34288,0.06104,0.894589995,-0.46252323,-0.051818715
1764764838.8350568,-3.63188,1.8006799999999998,0.21364,0.89404068,-0.46191288,-0.05163561
1764764838.8350568,-3.63188,1.8006799999999998,0.21364,0.89404068,-0.46191288,-0.05163561
1764764838.8350568,-3.63188,1.8006799999999998,0.21364,0.89404068,-0.46191288,-0.05163561
1764764838.8350568,-3.63188,1.8006799999999998,0.21364,0.89404068,-0.46191288,-0.05163561
1764764838.8350568,-3.63188,1.8006799999999998,0.21364,0.89404068,-0.46191288,-0.05163561
1764764838.8350568,-3.63188,1.8006799999999998,0.21364,0.89404068,-0.46191288,-0.05163561
1764764838.8350568,-3.63188,1.8006799999999998,0.21364,0.89404068,-0.46191288,-0.05163561
1764764838.8360786,-3.63188,1.8006799999999998,0.21364,0.89404068,-0.46191288,-0.05163561
1764764838.8360786,-3.63188,1.8006799999999998,0.21364,0.89404068,-0.46191288,-0.05163561
1764764838.8360786,-3.63188,1.8006799999999998,0.21364,0.89404068,-0.46191288,-0.05163561
1764764838.8360786,-3.21986,1.4497,0.0,0.892636875,-0.460264935,-0.051574575
1764764838.8360786,-3.21986,1.4497,0.0,0.892636875,-0.460264935,-0.051574575
1764764838.8360786,-3.21986,1.4497,0.0,0.892636875,-0.460264935,-0.051574575
1764764838.8360786,-3.21986,1.4497,0.0,0.892636875,-0.460264935,-0.051574575
1764764838.8360786,-3.21986,1.4497,0.0,0.892636875,-0.460264935,-0.051574575
1764764838.8360786,-3.21986,1.4497,0.0,0.892636875,-0.460264935,-0.051574575
1764764838.8360786,-3.21986,1.4497,0.0,0.892636875,-0.460264935,-0.051574575
1764764838.8360786,-3.21986,1.4497,0.0,0.892636875,-0.460264935,-0.051574575
1764764838.8360786,-3.21986,1.4497,0.0,0.892636875,-0.460264935,-0.051574575
1764764838.8360786,-3.21986,1.4497,0.0,0.892636875,-0.460264935,-0.051574575
1764764838.8360786,-3.47928,0.71722,0.6103999999999999,0.890805825,-0.459288375,-0.051696645
1764764838.8360786,-3.47928,0.71722,0.6103999999999999,0.890805825,-0.459288375,-0.051696645
1764764838.883562,-3.47928,0.71722,0.6103999999999999,0.890805825,-0.459288375,-0.051696645
1764764838.883562,-3.47928,0.71722,0.6103999999999999,0.890805825,-0.459288375,-0.051696645
1764764838.883562,-3.47928,0.71722,0.6103999999999999,0.890805825,-0.459288375,-0.051696645
1764764838.883562,-3.47928,0.71722,0.6103999999999999,0.890805825,-0.459288375,-0.051696645
1764764838.883562,-3.47928,0.71722,0.6103999999999999,0.890805825,-0.459288375,-0.051696645
1764764838.883562,-3.47928,0.71722,0.6103999999999999,0.890805825,-0.459288375,-0.051696645
1764764838.883562,-3.47928,0.71722,0.6103999999999999,0.890805825,-0.459288375,-0.051696645
1764764838.883562,-3.47928,0.71722,0.6103999999999999,0.890805825,-0.459288375,-0.051696645
1764764838.883562,-3.7387,0.54936,0.36624,0.8928199800000001,-0.45947148,-0.051818715
1764764838.883562,-3.7387,0.54936,0.36624,0.8928199800000001,-0.45947148,-0.051818715
1764764838.883562,-3.7387,0.54936,0.36624,0.8928199800000001,-0.45947148,-0.051818715
1764764838.883562,-3.7387,0.54936,0.36624,0.8928199800000001,-0.45947148,-0.051818715
1764764838.883562,-3.7387,0.54936,0.36624,0.8928199800000001,-0.45947148,-0.051818715
1764764838.883562,-3.7387,0.54936,0.36624,0.8928199800000001,-0.45947148,-0.051818715
1764764838.883562,-3.7387,0.54936,0.36624,0.8928199800000001,-0.45947148,-0.051818715
1764764838.883562,-3.7387,0.54936,0.36624,0.8928199800000001,-0.45947148,-0.051818715
1764764838.883562,-3.7387,0.54936,0.36624,0.8928199800000001,-0.45947148,-0.051818715
1764764838.883562,-3.7387,0.54936,0.36624,0.8928199800000001,-0.45947148,-0.051818715
1764764838.883562,-3.5098,0.85456,0.3509799999999999,0.8928810150000001,-0.459654585,-0.05139147
1764764838.883562,-3.5098,0.85456,0.3509799999999999,0.8928810150000001,-0.459654585,-0.05139147
1764764838.883562,-3.5098,0.85456,0.3509799999999999,0.8928810150000001,-0.459654585,-0.05139147
1764764838.883562,-3.5098,0.85456,0.3509799999999999,0.8928810150000001,-0.459654585,-0.05139147
1764764838.883562,-3.5098,0.85456,0.3509799999999999,0.8928810150000001,-0.459654585,-0.05139147
1764764838.883562,-3.5098,0.85456,0.3509799999999999,0.8928810150000001,-0.459654585,-0.05139147
1764764838.9273925,-3.5098,0.85456,0.3509799999999999,0.8928810150000001,-0.459654585,-0.05139147
1764764838.9273925,-3.5098,0.85456,0.3509799999999999,0.8928810150000001,-0.459654585,-0.05139147
1764764838.9273925,-3.5098,0.85456,0.3509799999999999,0.8928810150000001,-0.459654585,-0.05139147
1764764838.9273925,-3.5098,0.85456,0.3509799999999999,0.8928810150000001,-0.459654585,-0.05139147
1764764838.9273925,-3.17408,0.9919,0.6867,0.89257584,-0.459898725,-0.050720085
1764764838.9273925,-3.17408,0.9919,0.6867,0.89257584,-0.459898725,-0.050720085
1764764838.9273925,-3.17408,0.9919,0.6867,0.89257584,-0.459898725,-0.050720085
1764764838.9273925,-3.17408,0.9919,0.6867,0.89257584,-0.459898725,-0.050720085
1764764838.9273925,-3.17408,0.9919,0.6867,0.89257584,-0.459898725,-0.050720085
1764764838.9273925,-3.17408,0.9919,0.6867,0.89257584,-0.459898725,-0.050720085
1764764838.9273925,-3.17408,0.9919,0.6867,0.89257584,-0.459898725,-0.050720085
1764764838.9273925,-3.17408,0.9919,0.6867,0.89257584,-0.459898725,-0.050720085
1764764838.9273925,-3.17408,0.9919,0.6867,0.89257584,-0.459898725,-0.050720085
1764764838.9273925,-3.17408,0.9919,0.6867,0.89257584,-0.459898725,-0.050720085
1764764838.9273925,-3.79974,0.85456,0.25942,0.893003085,-0.46093632,-0.051818715
1764764838.9273925,-3.79974,0.85456,0.25942,0.893003085,-0.46093632,-0.051818715
1764764838.9273925,-3.79974,0.85456,0.25942,0.893003085,-0.46093632,-0.051818715
1764764838.9273925,-3.79974,0.85456,0.25942,0.893003085,-0.46093632,-0.051818715
1764764838.9273925,-3.79974,0.85456,0.25942,0.893003085,-0.46093632,-0.051818715
1764764838.9273925,-3.79974,0.85456,0.25942,0.893003085,-0.46093632,-0.051818715
1764764838.9273925,-3.79974,0.85456,0.25942,0.893003085,-0.46093632,-0.051818715
1764764838.9273925,-3.79974,0.85456,0.25942,0.893003085,-0.46093632,-0.051818715
1764764838.9745357,-3.79974,0.85456,0.25942,0.893003085,-0.46093632,-0.051818715
1764764838.9745357,-3.79974,0.85456,0.25942,0.893003085,-0.46093632,-0.051818715
1764764838.9745357,-4.5017,0.59514,-0.09156,0.893735505,-0.45934941,-0.05273424
1764764838.9745357,-4.5017,0.59514,-0.09156,0.893735505,-0.45934941,-0.05273424
1764764838.9745357,-4.5017,0.59514,-0.09156,0.893735505,-0.45934941,-0.05273424
1764764838.9745357,-4.5017,0.59514,-0.09156,0.893735505,-0.45934941,-0.05273424
1764764838.9745357,-4.5017,0.59514,-0.09156,0.893735505,-0.45934941,-0.05273424
1764764838.9745357,-4.5017,0.59514,-0.09156,0.893735505,-0.45934941,-0.05273424
1764764838.9745357,-4.5017,0.59514,-0.09156,0.893735505,-0.45934941,-0.05273424
1764764838.9745357,-4.5017,0.59514,-0.09156,0.893735505,-0.45934941,-0.05273424
1764764838.9745357,-4.5017,0.59514,-0.09156,0.893735505,-0.45934941,-0.05273424
1764764838.9745357,-4.5017,0.59514,-0.09156,0.893735505,-0.45934941,-0.05273424
1764764838.9745357,-4.13546,1.46496,-0.39676,0.896054835,-0.45995976,-0.051330435
1764764838.9745357,-4.13546,1.46496,-0.39676,0.896054835,-0.45995976,-0.051330435
1764764838.9745357,-4.13546,1.46496,-0.39676,0.896054835,-0.45995976,-0.051330435
1764764838.9745357,-4.13546,1.46496,-0.39676,0.896054835,-0.45995976,-0.051330435
1764764838.9745357,-4.13546,1.46496,-0.39676,0.896054835,-0.45995976,-0.051330435
1764764838.9745357,-4.13546,1.46496,-0.39676,0.896054835,-0.45995976,-0.051330435
1764764838.9745357,-4.13546,1.46496,-0.39676,0.896054835,-0.45995976,-0.051330435
1764764838.9745357,-4.13546,1.46496,-0.39676,0.896054835,-0.45995976,-0.051330435
1764764838.9745357,-4.13546,1.46496,-0.39676,0.896054835,-0.45995976,-0.051330435
1764764838.9745357,-4.13546,1.46496,-0.39676,0.896054835,-0.45995976,-0.051330435
1764764838.9745357,-3.14356,2.96044,-0.19838,0.897763815,-0.46191288,-0.050109735
1764764838.9745357,-3.14356,2.96044,-0.19838,0.897763815,-0.46191288,-0.050109735
1764764839.0217533,-3.14356,2.96044,-0.19838,0.897763815,-0.46191288,-0.050109735
1764764839.0217533,-3.14356,2.96044,-0.19838,0.897763815,-0.46191288,-0.050109735
1764764839.0217533,-3.14356,2.96044,-0.19838,0.897763815,-0.46191288,-0.050109735
1764764839.0217533,-3.14356,2.96044,-0.19838,0.897763815,-0.46191288,-0.050109735
1764764839.0217533,-3.14356,2.96044,-0.19838,0.897763815,-0.46191288,-0.050109735
1764764839.0217533,-3.14356,2.96044,-0.19838,0.897763815,-0.46191288,-0.050109735
1764764839.0217533,-3.14356,2.96044,-0.19838,0.897763815,-0.46191288,-0.050109735
1764764839.0217533,-3.14356,2.96044,-0.19838,0.897763815,-0.46191288,-0.050109735
1764764839.0217533,-2.2127,3.67766,-1.09872,0.89819106,-0.45983769,-0.050231805
1764764839.0217533,-2.2127,3.67766,-1.09872,0.89819106,-0.45983769,-0.050231805
1764764839.0217533,-2.2127,3.67766,-1.09872,0.89819106,-0.45983769,-0.050231805
1764764839.0217533,-2.2127,3.67766,-1.09872,0.89819106,-0.45983769,-0.050231805
1764764839.0217533,-2.2127,3.67766,-1.09872,0.89819106,-0.45983769,-0.050231805
1764764839.0217533,-2.2127,3.67766,-1.09872,0.89819106,-0.45983769,-0.050231805
1764764839.0217533,-2.2127,3.67766,-1.09872,0.89819106,-0.45983769,-0.050231805
1764764839.0217533,-2.2127,3.67766,-1.09872,0.89819106,-0.45983769,-0.050231805
1764764839.0217533,-2.2127,3.67766,-1.09872,0.89819106,-0.45983769,-0.050231805
1764764839.0217533,-2.2127,3.67766,-1.09872,0.89819106,-0.45983769,-0.050231805
1764764839.0217533,-2.54842,2.77732,-1.51074,0.89550552,-0.457457325,-0.049987665
1764764839.0217533,-2.54842,2.77732,-1.51074,0.89550552,-0.457457325,-0.049987665
1764764839.0217533,-2.54842,2.77732,-1.51074,0.89550552,-0.457457325,-0.049987665
1764764839.0217533,-2.54842,2.77732,-1.51074,0.89550552,-0.457457325,-0.049987665
1764764839.0217533,-2.54842,2.77732,-1.51074,0.89550552,-0.457457325,-0.049987665
1764764839.0217533,-2.54842,2.77732,-1.51074,0.89550552,-0.457457325,-0.049987665
1764764839.06918,-2.54842,2.77732,-1.51074,0.89550552,-0.457457325,-0.049987665
1764764839.06918,-2.54842,2.77732,-1.51074,0.89550552,-0.457457325,-0.049987665
1764764839.069695,-2.54842,2.77732,-1.51074,0.89550552,-0.457457325,-0.049987665
1764764839.069695,-2.54842,2.77732,-1.51074,0.89550552,-0.457457325,-0.049987665
1764764839.069695,-2.04484,1.7549,-1.17502,0.892514805,-0.45703008,-0.048156615
1764764839.069695,-2.04484,1.7549,-1.17502,0.892514805,-0.45703008,-0.048156615
1764764839.069695,-2.04484,1.7549,-1.17502,0.892514805,-0.45703008,-0.048156615
1764764839.069695,-2.04484,1.7549,-1.17502,0.892514805,-0.45703008,-0.048156615
1764764839.069695,-2.04484,1.7549,-1.17502,0.892514805,-0.45703008,-0.048156615
1764764839.069695,-2.04484,1.7549,-1.17502,0.892514805,-0.45703008,-0.048156615
1764764839.069695,-2.04484,1.7549,-1.17502,0.892514805,-0.45703008,-0.048156615
1764764839.069695,-2.04484,1.7549,-1.17502,0.892514805,-0.45703008,-0.048156615
1764764839.069695,-2.04484,1.7549,-1.17502,0.892514805,-0.45703008,-0.048156615
1764764839.069695,-2.04484,1.7549,-1.17502,0.892514805,-0.45703008,-0.048156615
1764764839.069695,-1.51074,1.4039199999999998,-0.5341,0.892270665,-0.45690801,-0.047302125
1764764839.069695,-1.51074,1.4039199999999998,-0.5341,0.892270665,-0.45690801,-0.047302125
1764764839.069695,-1.51074,1.4039199999999998,-0.5341,0.892270665,-0.45690801,-0.047302125
1764764839.069695,-1.51074,1.4039199999999998,-0.5341,0.892270665,-0.45690801,-0.047302125
1764764839.069695,-1.51074,1.4039199999999998,-0.5341,0.892270665,-0.45690801,-0.047302125
1764764839.069695,-1.51074,1.4039199999999998,-0.5341,0.892270665,-0.45690801,-0.047302125
1764764839.069695,-1.51074,1.4039199999999998,-0.5341,0.892270665,-0.45690801,-0.047302125
1764764839.069695,-1.51074,1.4039199999999998,-0.5341,0.892270665,-0.45690801,-0.047302125
1764764839.069695,-1.51074,1.4039199999999998,-0.5341,0.892270665,-0.45690801,-0.047302125
1764764839.069695,-1.51074,1.4039199999999998,-0.5341,0.892270665,-0.45690801,-0.047302125
1764764839.116645,-2.22796,0.82404,0.39676,0.892392735,-0.45629766,-0.0476073
1764764839.1171725,-2.22796,0.82404,0.39676,0.892392735,-0.45629766,-0.0476073
1764764839.1171725,-2.22796,0.82404,0.39676,0.892392735,-0.45629766,-0.0476073
1764764839.1171725,-2.22796,0.82404,0.39676,0.892392735,-0.45629766,-0.0476073
1764764839.1171725,-2.22796,0.82404,0.39676,0.892392735,-0.45629766,-0.0476073
1764764839.1171725,-2.22796,0.82404,0.39676,0.892392735,-0.45629766,-0.0476073
1764764839.1171725,-2.22796,0.82404,0.39676,0.892392735,-0.45629766,-0.0476073
1764764839.1171725,-2.22796,0.82404,0.39676,0.892392735,-0.45629766,-0.0476073
1764764839.1171725,-2.22796,0.82404,0.39676,0.892392735,-0.45629766,-0.0476073
1764764839.1171725,-2.22796,0.82404,0.39676,0.892392735,-0.45629766,-0.0476073
1764764839.1171725,-3.08252,0.93086,0.73248,0.8949562050000001,-0.454771785,-0.04833972
1764764839.1171725,-3.08252,0.93086,0.73248,0.8949562050000001,-0.454771785,-0.04833972
1764764839.1171725,-3.08252,0.93086,0.73248,0.8949562050000001,-0.454771785,-0.04833972
1764764839.1171725,-3.08252,0.93086,0.73248,0.8949562050000001,-0.454771785,-0.04833972
1764764839.1171725,-3.08252,0.93086,0.73248,0.8949562050000001,-0.454771785,-0.04833972
1764764839.118187,-3.08252,0.93086,0.73248,0.8949562050000001,-0.454771785,-0.04833972
1764764839.118187,-3.08252,0.93086,0.73248,0.8949562050000001,-0.454771785,-0.04833972
1764764839.118187,-3.08252,0.93086,0.73248,0.8949562050000001,-0.454771785,-0.04833972
1764764839.118187,-3.08252,0.93086,0.73248,0.8949562050000001,-0.454771785,-0.04833972
1764764839.118187,-3.08252,0.93086,0.73248,0.8949562050000001,-0.454771785,-0.04833972
1764764839.118187,-3.86078,1.12924,0.763,0.89636001,-0.45434454,-0.047668335
1764764839.118187,-3.86078,1.12924,0.763,0.89636001,-0.45434454,-0.047668335
1764764839.118187,-3.86078,1.12924,0.763,0.89636001,-0.45434454,-0.047668335
1764764839.118187,-3.86078,1.12924,0.763,0.89636001,-0.45434454,-0.047668335
1764764839.162043,-3.86078,1.12924,0.763,0.89636001,-0.45434454,-0.047668335
1764764839.162043,-3.86078,1.12924,0.763,0.89636001,-0.45434454,-0.047668335
1764764839.162043,-3.86078,1.12924,0.763,0.89636001,-0.45434454,-0.047668335
1764764839.162043,-3.86078,1.12924,0.763,0.89636001,-0.45434454,-0.047668335
1764764839.162043,-3.86078,1.12924,0.763,0.89636001,-0.45434454,-0.047668335
1764764839.162043,-3.86078,1.12924,0.763,0.89636001,-0.45434454,-0.047668335
1764764839.162043,-3.815,1.57178,1.8312,0.89648208,-0.45556524,-0.047302125
1764764839.162043,-3.815,1.57178,1.8312,0.89648208,-0.45556524,-0.047302125
1764764839.162043,-3.815,1.57178,1.8312,0.89648208,-0.45556524,-0.047302125
1764764839.162043,-3.815,1.57178,1.8312,0.89648208,-0.45556524,-0.047302125
1764764839.162043,-3.815,1.57178,1.8312,0.89648208,-0.45556524,-0.047302125
1764764839.162043,-3.815,1.57178,1.8312,0.89648208,-0.45556524,-0.047302125
1764764839.162043,-3.815,1.57178,1.8312,0.89648208,-0.45556524,-0.047302125
1764764839.162043,-3.815,1.57178,1.8312,0.89648208,-0.45556524,-0.047302125
1764764839.162043,-3.815,1.57178,1.8312,0.89648208,-0.45556524,-0.047302125
1764764839.162043,-3.815,1.57178,1.8312,0.89648208,-0.45556524,-0.047302125
1764764839.162043,-4.22702,0.44254,2.54842,0.8933692950000001,-0.45568731,-0.04846179
1764764839.162043,-4.22702,0.44254,2.54842,0.8933692950000001,-0.45568731,-0.04846179
1764764839.162043,-4.22702,0.44254,2.54842,0.8933692950000001,-0.45568731,-0.04846179
1764764839.162043,-4.22702,0.44254,2.54842,0.8933692950000001,-0.45568731,-0.04846179
1764764839.162043,-4.22702,0.44254,2.54842,0.8933692950000001,-0.45568731,-0.04846179
1764764839.162043,-4.22702,0.44254,2.54842,0.8933692950000001,-0.45568731,-0.04846179
1764764839.2096517,-4.22702,0.44254,2.54842,0.8933692950000001,-0.45568731,-0.04846179
1764764839.2096517,-4.22702,0.44254,2.54842,0.8933692950000001,-0.45568731,-0.04846179
1764764839.2096517,-4.22702,0.44254,2.54842,0.8933692950000001,-0.45568731,-0.04846179
1764764839.2096517,-4.22702,0.44254,2.54842,0.8933692950000001,-0.45568731,-0.04846179
1764764839.2096517,-5.24944,-0.36624,2.18218,0.892392735,-0.45434454,-0.048766965
1764764839.2096517,-5.24944,-0.36624,2.18218,0.892392735,-0.45434454,-0.048766965
1764764839.2096517,-5.24944,-0.36624,2.18218,0.892392735,-0.45434454,-0.048766965
1764764839.2096517,-5.24944,-0.36624,2.18218,0.892392735,-0.45434454,-0.048766965
1764764839.2096517,-5.24944,-0.36624,2.18218,0.892392735,-0.45434454,-0.048766965
1764764839.2096517,-5.24944,-0.36624,2.18218,0.892392735,-0.45434454,-0.048766965
1764764839.2096517,-5.24944,-0.36624,2.18218,0.892392735,-0.45434454,-0.048766965
1764764839.2096517,-5.24944,-0.36624,2.18218,0.892392735,-0.45434454,-0.048766965
1764764839.2096517,-5.24944,-0.36624,2.18218,0.892392735,-0.45434454,-0.048766965
1764764839.2096517,-5.24944,-0.36624,2.18218,0.892392735,-0.45434454,-0.048766965
1764764839.2096517,-4.83742,0.28994,2.38056,0.8933692950000001,-0.457091115,-0.04858386
1764764839.2096517,-4.83742,0.28994,2.38056,0.8933692950000001,-0.457091115,-0.04858386
1764764839.2096517,-4.83742,0.28994,2.38056,0.8933692950000001,-0.457091115,-0.04858386
1764764839.2096517,-4.83742,0.28994,2.38056,0.8933692950000001,-0.457091115,-0.04858386
1764764839.2096517,-4.83742,0.28994,2.38056,0.8933692950000001,-0.457091115,-0.04858386
1764764839.2096517,-4.83742,0.28994,2.38056,0.8933692950000001,-0.457091115,-0.04858386
1764764839.2096517,-4.83742,0.28994,2.38056,0.8933692950000001,-0.457091115,-0.04858386
1764764839.2096517,-4.83742,0.28994,2.38056,0.8933692950000001,-0.457091115,-0.04858386
1764764839.25375,-4.83742,0.28994,2.38056,0.8933692950000001,-0.457091115,-0.04858386
1764764839.25375,-4.83742,0.28994,2.38056,0.8933692950000001,-0.457091115,-0.04858386
1764764839.25375,-4.13546,0.97664,2.48738,0.89452896,-0.459166305,-0.048400755
1764764839.25375,-4.13546,0.97664,2.48738,0.89452896,-0.459166305,-0.048400755
1764764839.25375,-4.13546,0.97664,2.48738,0.89452896,-0.459166305,-0.048400755
1764764839.25375,-4.13546,0.97664,2.48738,0.89452896,-0.459166305,-0.048400755
1764764839.25375,-4.13546,0.97664,2.48738,0.89452896,-0.459166305,-0.048400755
1764764839.25375,-4.13546,0.97664,2.48738,0.89452896,-0.459166305,-0.048400755
1764764839.25375,-4.13546,0.97664,2.48738,0.89452896,-0.459166305,-0.048400755
1764764839.25375,-4.13546,0.97664,2.48738,0.89452896,-0.459166305,-0.048400755
1764764839.25375,-4.13546,0.97664,2.48738,0.89452896,-0.459166305,-0.048400755
1764764839.25375,-4.13546,0.97664,2.48738,0.89452896,-0.459166305,-0.048400755
1764764839.25375,-3.84552,0.96138,2.39582,0.894834135,-0.459166305,-0.048766965
1764764839.25375,-3.84552,0.96138,2.39582,0.894834135,-0.459166305,-0.048766965
1764764839.25375,-3.84552,0.96138,2.39582,0.894834135,-0.459166305,-0.048766965
1764764839.25375,-3.84552,0.96138,2.39582,0.894834135,-0.459166305,-0.048766965
1764764839.25375,-3.84552,0.96138,2.39582,0.894834135,-0.459166305,-0.048766965
1764764839.25375,-3.84552,0.96138,2.39582,0.894834135,-0.459166305,-0.048766965
1764764839.2548263,-3.84552,0.96138,2.39582,0.894834135,-0.459166305,-0.048766965
1764764839.2548263,-3.84552,0.96138,2.39582,0.894834135,-0.459166305,-0.048766965
1764764839.2548263,-3.84552,0.96138,2.39582,0.894834135,-0.459166305,-0.048766965
1764764839.2548263,-3.84552,0.96138,2.39582,0.894834135,-0.459166305,-0.048766965
1764764839.2548263,-3.98286,1.08346,1.3734,0.8939186100000001,-0.458922165,-0.049987665
1764764839.2548263,-3.98286,1.08346,1.3734,0.8939186100000001,-0.458922165,-0.049987665
1764764839.302284,-3.98286,1.08346,1.3734,0.8939186100000001,-0.458922165,-0.049987665
1764764839.302284,-3.98286,1.08346,1.3734,0.8939186100000001,-0.458922165,-0.049987665
1764764839.302284,-3.98286,1.08346,1.3734,0.8939186100000001,-0.458922165,-0.049987665
1764764839.302284,-3.98286,1.08346,1.3734,0.8939186100000001,-0.458922165,-0.049987665
1764764839.302284,-3.98286,1.08346,1.3734,0.8939186100000001,-0.458922165,-0.049987665
1764764839.302284,-3.98286,1.08346,1.3734,0.8939186100000001,-0.458922165,-0.049987665
1764764839.302284,-3.98286,1.08346,1.3734,0.8939186100000001,-0.458922165,-0.049987665
1764764839.302284,-3.98286,1.08346,1.3734,0.8939186100000001,-0.458922165,-0.049987665
1764764839.302284,-3.26564,1.11398,0.97664,0.894345855,-0.45971562,-0.04992663
1764764839.302284,-3.26564,1.11398,0.97664,0.894345855,-0.45971562,-0.04992663
1764764839.302284,-3.26564,1.11398,0.97664,0.894345855,-0.45971562,-0.04992663
1764764839.302284,-3.26564,1.11398,0.97664,0.894345855,-0.45971562,-0.04992663
1764764839.302284,-3.26564,1.11398,0.97664,0.894345855,-0.45971562,-0.04992663
1764764839.302284,-3.26564,1.11398,0.97664,0.894345855,-0.45971562,-0.04992663
1764764839.302284,-3.26564,1.11398,0.97664,0.894345855,-0.45971562,-0.04992663
1764764839.302284,-3.26564,1.11398,0.97664,0.894345855,-0.45971562,-0.04992663
1764764839.302284,-3.26564,1.11398,0.97664,0.894345855,-0.45971562,-0.04992663
1764764839.302284,-3.26564,1.11398,0.97664,0.894345855,-0.45971562,-0.04992663
1764764839.302284,-2.8231,1.1445,0.5341,0.893491365,-0.46008183,-0.049987665
1764764839.302284,-2.8231,1.1445,0.5341,0.893491365,-0.46008183,-0.049987665
1764764839.302284,-2.8231,1.1445,0.5341,0.893491365,-0.46008183,-0.049987665
1764764839.302284,-2.8231,1.1445,0.5341,0.893491365,-0.46008183,-0.049987665
1764764839.345929,-2.8231,1.1445,0.5341,0.893491365,-0.46008183,-0.049987665
1764764839.345929,-2.8231,1.1445,0.5341,0.893491365,-0.46008183,-0.049987665
1764764839.345929,-2.8231,1.1445,0.5341,0.893491365,-0.46008183,-0.049987665
1764764839.345929,-2.8231,1.1445,0.5341,0.893491365,-0.46008183,-0.049987665
1764764839.345929,-2.8231,1.1445,0.5341,0.893491365,-0.46008183,-0.049987665
1764764839.345929,-2.8231,1.1445,0.5341,0.893491365,-0.46008183,-0.049987665
1764764839.345929,-2.45686,0.8087799999999999,0.42728,0.892758945,-0.459776655,-0.049377315
1764764839.345929,-2.45686,0.8087799999999999,0.42728,0.892758945,-0.459776655,-0.049377315
1764764839.345929,-2.45686,0.8087799999999999,0.42728,0.892758945,-0.459776655,-0.049377315
1764764839.345929,-2.45686,0.8087799999999999,0.42728,0.892758945,-0.459776655,-0.049377315
1764764839.345929,-2.45686,0.8087799999999999,0.42728,0.892758945,-0.459776655,-0.049377315
1764764839.345929,-2.45686,0.8087799999999999,0.42728,0.892758945,-0.459776655,-0.049377315
1764764839.345929,-2.45686,0.8087799999999999,0.42728,0.892758945,-0.459776655,-0.049377315
1764764839.345929,-2.45686,0.8087799999999999,0.42728,0.892758945,-0.459776655,-0.049377315
1764764839.3470826,-2.45686,0.8087799999999999,0.42728,0.892758945,-0.459776655,-0.049377315
1764764839.3470826,-2.45686,0.8087799999999999,0.42728,0.892758945,-0.459776655,-0.049377315
1764764839.3470826,-2.5179,0.56462,0.25942,0.893125155,-0.459532515,-0.04895007
1764764839.3470826,-2.5179,0.56462,0.25942,0.893125155,-0.459532515,-0.04895007
1764764839.3470826,-2.5179,0.56462,0.25942,0.893125155,-0.459532515,-0.04895007
1764764839.3470826,-2.5179,0.56462,0.25942,0.893125155,-0.459532515,-0.04895007
1764764839.3470826,-2.5179,0.56462,0.25942,0.893125155,-0.459532515,-0.04895007
1764764839.3470826,-2.5179,0.56462,0.25942,0.893125155,-0.459532515,-0.04895007
1764764839.3470826,-2.5179,0.56462,0.25942,0.893125155,-0.459532515,-0.04895007
1764764839.3470826,-2.5179,0.56462,0.25942,0.893125155,-0.459532515,-0.04895007
1764764839.3942063,-2.5179,0.56462,0.25942,0.893125155,-0.459532515,-0.04895007
1764764839.3942063,-2.5179,0.56462,0.25942,0.893125155,-0.459532515,-0.04895007
1764764839.3942063,-2.77732,0.27468,0.54936,0.8939186100000001,-0.459166305,-0.04870593
1764764839.3942063,-2.77732,0.27468,0.54936,0.8939186100000001,-0.459166305,-0.04870593
1764764839.394741,-2.77732,0.27468,0.54936,0.8939186100000001,-0.459166305,-0.04870593
1764764839.394741,-2.77732,0.27468,0.54936,0.8939186100000001,-0.459166305,-0.04870593
1764764839.394741,-2.77732,0.27468,0.54936,0.8939186100000001,-0.459166305,-0.04870593
1764764839.394741,-2.77732,0.27468,0.54936,0.8939186100000001,-0.459166305,-0.04870593
1764764839.394741,-2.77732,0.27468,0.54936,0.8939186100000001,-0.459166305,-0.04870593
1764764839.394741,-2.77732,0.27468,0.54936,0.8939186100000001,-0.459166305,-0.04870593
1764764839.394741,-2.77732,0.27468,0.54936,0.8939186100000001,-0.459166305,-0.04870593
1764764839.394741,-2.77732,0.27468,0.54936,0.8939186100000001,-0.459166305,-0.04870593
1764764839.394741,-3.5861,0.57988,0.7019599999999999,0.89367447,-0.45678594,-0.048828
1764764839.394741,-3.5861,0.57988,0.7019599999999999,0.89367447,-0.45678594,-0.048828
1764764839.394741,-3.5861,0.57988,0.7019599999999999,0.89367447,-0.45678594,-0.048828
1764764839.394741,-3.5861,0.57988,0.7019599999999999,0.89367447,-0.45678594,-0.048828
1764764839.394741,-3.5861,0.57988,0.7019599999999999,0.89367447,-0.45678594,-0.048828
1764764839.394741,-3.5861,0.57988,0.7019599999999999,0.89367447,-0.45678594,-0.048828
1764764839.394741,-3.5861,0.57988,0.7019599999999999,0.89367447,-0.45678594,-0.048828
1764764839.394741,-3.5861,0.57988,0.7019599999999999,0.89367447,-0.45678594,-0.048828
1764764839.394741,-3.5861,0.57988,0.7019599999999999,0.89367447,-0.45678594,-0.048828
1764764839.394741,-3.5861,0.57988,0.7019599999999999,0.89367447,-0.45678594,-0.048828
1764764839.437926,-4.02864,0.39676,1.1445,0.893125155,-0.455015925,-0.049743525
1764764839.437926,-4.02864,0.39676,1.1445,0.893125155,-0.455015925,-0.049743525
1764764839.437926,-4.02864,0.39676,1.1445,0.893125155,-0.455015925,-0.049743525
1764764839.437926,-4.02864,0.39676,1.1445,0.893125155,-0.455015925,-0.049743525
1764764839.4384348,-4.02864,0.39676,1.1445,0.893125155,-0.455015925,-0.049743525
1764764839.4384348,-4.02864,0.39676,1.1445,0.893125155,-0.455015925,-0.049743525
1764764839.4384348,-4.02864,0.39676,1.1445,0.893125155,-0.455015925,-0.049743525
1764764839.4384348,-4.02864,0.39676,1.1445,0.893125155,-0.455015925,-0.049743525
1764764839.4384348,-4.02864,0.39676,1.1445,0.893125155,-0.455015925,-0.049743525
1764764839.4384348,-4.02864,0.39676,1.1445,0.893125155,-0.455015925,-0.049743525
1764764839.4384348,-4.3491,0.9156,1.28184,0.89428482,-0.456236625,-0.05017077
1764764839.4384348,-4.3491,0.9156,1.28184,0.89428482,-0.456236625,-0.05017077
1764764839.4384348,-4.3491,0.9156,1.28184,0.89428482,-0.456236625,-0.05017077
1764764839.4384348,-4.3491,0.9156,1.28184,0.89428482,-0.456236625,-0.05017077
1764764839.4384348,-4.3491,0.9156,1.28184,0.89428482,-0.456236625,-0.05017077
1764764839.4384348,-4.3491,0.9156,1.28184,0.89428482,-0.456236625,-0.05017077
1764764839.4384348,-4.3491,0.9156,1.28184,0.89428482,-0.456236625,-0.05017077
1764764839.4384348,-4.3491,0.9156,1.28184,0.89428482,-0.456236625,-0.05017077
1764764839.4384348,-4.3491,0.9156,1.28184,0.89428482,-0.456236625,-0.05017077
1764764839.4384348,-4.3491,0.9156,1.28184,0.89428482,-0.456236625,-0.05017077
1764764839.4384348,-4.99002,0.96138,1.41918,0.895200345,-0.457823535,-0.049499385
1764764839.4399588,-4.99002,0.96138,1.41918,0.895200345,-0.457823535,-0.049499385
1764764839.4399588,-4.99002,0.96138,1.41918,0.895200345,-0.457823535,-0.049499385
1764764839.4399588,-4.99002,0.96138,1.41918,0.895200345,-0.457823535,-0.049499385
1764764839.4860363,-4.99002,0.96138,1.41918,0.895200345,-0.457823535,-0.049499385
1764764839.4860363,-4.99002,0.96138,1.41918,0.895200345,-0.457823535,-0.049499385
1764764839.4860363,-4.99002,0.96138,1.41918,0.895200345,-0.457823535,-0.049499385
1764764839.4875424,-4.99002,0.96138,1.41918,0.895200345,-0.457823535,-0.049499385
1764764839.4875424,-4.99002,0.96138,1.41918,0.895200345,-0.457823535,-0.049499385
1764764839.4875424,-4.99002,0.96138,1.41918,0.895200345,-0.457823535,-0.049499385
1764764839.4875424,-4.21176,1.28184,1.77016,0.89465103,-0.4589832,-0.049011105
1764764839.4875424,-4.21176,1.28184,1.77016,0.89465103,-0.4589832,-0.049011105
1764764839.4880853,-4.21176,1.28184,1.77016,0.89465103,-0.4589832,-0.049011105
1764764839.4880853,-4.21176,1.28184,1.77016,0.89465103,-0.4589832,-0.049011105
1764764839.4880853,-4.21176,1.28184,1.77016,0.89465103,-0.4589832,-0.049011105
1764764839.4880853,-4.21176,1.28184,1.77016,0.89465103,-0.4589832,-0.049011105
1764764839.4880853,-4.21176,1.28184,1.77016,0.89465103,-0.4589832,-0.049011105
1764764839.4880853,-4.21176,1.28184,1.77016,0.89465103,-0.4589832,-0.049011105
1764764839.4880853,-4.21176,1.28184,1.77016,0.89465103,-0.4589832,-0.049011105
1764764839.4885392,-4.21176,1.28184,1.77016,0.89465103,-0.4589832,-0.049011105
1764764839.4885392,-4.25754,0.8392999999999999,1.55652,0.89367447,-0.45947148,-0.04846179
1764764839.4885392,-4.25754,0.8392999999999999,1.55652,0.89367447,-0.45947148,-0.04846179
1764764839.4885392,-4.25754,0.8392999999999999,1.55652,0.89367447,-0.45947148,-0.04846179
1764764839.4885392,-4.25754,0.8392999999999999,1.55652,0.89367447,-0.45947148,-0.04846179
1764764839.4885392,-4.25754,0.8392999999999999,1.55652,0.89367447,-0.45947148,-0.04846179
1764764839.4885392,-4.25754,0.8392999999999999,1.55652,0.89367447,-0.45947148,-0.04846179
1764764839.5313528,-4.25754,0.8392999999999999,1.55652,0.89367447,-0.45947148,-0.04846179
1764764839.5313528,-4.25754,0.8392999999999999,1.55652,0.89367447,-0.45947148,-0.04846179
1764764839.5313528,-4.25754,0.8392999999999999,1.55652,0.89367447,-0.45947148,-0.04846179
1764764839.5313528,-4.25754,0.8392999999999999,1.55652,0.89367447,-0.45947148,-0.04846179
1764764839.5313528,-4.3491,-0.01526,1.43444,0.89257584,-0.4589832,-0.05041491
1764764839.5313528,-4.3491,-0.01526,1.43444,0.89257584,-0.4589832,-0.05041491
1764764839.5313528,-4.3491,-0.01526,1.43444,0.89257584,-0.4589832,-0.05041491
1764764839.5313528,-4.3491,-0.01526,1.43444,0.89257584,-0.4589832,-0.05041491
1764764839.5313528,-4.3491,-0.01526,1.43444,0.89257584,-0.4589832,-0.05041491
1764764839.5313528,-4.3491,-0.01526,1.43444,0.89257584,-0.4589832,-0.05041491
1764764839.5313528,-4.3491,-0.01526,1.43444,0.89257584,-0.4589832,-0.05041491
1764764839.5313528,-4.3491,-0.01526,1.43444,0.89257584,-0.4589832,-0.05041491
1764764839.5313528,-4.3491,-0.01526,1.43444,0.89257584,-0.4589832,-0.05041491
1764764839.5313528,-4.3491,-0.01526,1.43444,0.89257584,-0.4589832,-0.05041491
1764764839.5313528,-4.22702,-0.41202,0.41202,0.893613435,-0.458189745,-0.05078112
1764764839.5323732,-4.22702,-0.41202,0.41202,0.893613435,-0.458189745,-0.05078112
1764764839.5323732,-4.22702,-0.41202,0.41202,0.893613435,-0.458189745,-0.05078112
1764764839.5323732,-4.22702,-0.41202,0.41202,0.893613435,-0.458189745,-0.05078112
1764764839.5323732,-4.22702,-0.41202,0.41202,0.893613435,-0.458189745,-0.05078112
1764764839.5323732,-4.22702,-0.41202,0.41202,0.893613435,-0.458189745,-0.05078112
1764764839.5323732,-4.22702,-0.41202,0.41202,0.893613435,-0.458189745,-0.05078112
1764764839.5323732,-4.22702,-0.41202,0.41202,0.893613435,-0.458189745,-0.05078112
1764764839.5323732,-4.22702,-0.41202,0.41202,0.893613435,-0.458189745,-0.05078112
1764764839.5323732,-4.22702,-0.41202,0.41202,0.893613435,-0.458189745,-0.05078112
1764764839.5791726,-3.41824,1.86172,0.8087799999999999,0.896909325,-0.460997355,-0.04956042
1764764839.5791726,-3.41824,1.86172,0.8087799999999999,0.896909325,-0.460997355,-0.04956042
1764764839.5791726,-3.41824,1.86172,0.8087799999999999,0.896909325,-0.460997355,-0.04956042
1764764839.5791726,-3.41824,1.86172,0.8087799999999999,0.896909325,-0.460997355,-0.04956042
1764764839.5797038,-3.41824,1.86172,0.8087799999999999,0.896909325,-0.460997355,-0.04956042
1764764839.5797038,-3.41824,1.86172,0.8087799999999999,0.896909325,-0.460997355,-0.04956042
1764764839.5797038,-3.41824,1.86172,0.8087799999999999,0.896909325,-0.460997355,-0.04956042
1764764839.5797038,-3.41824,1.86172,0.8087799999999999,0.896909325,-0.460997355,-0.04956042
1764764839.5797038,-3.41824,1.86172,0.8087799999999999,0.896909325,-0.460997355,-0.04956042
1764764839.5797038,-3.41824,1.86172,0.8087799999999999,0.896909325,-0.460997355,-0.04956042
1764764839.5797038,-2.92992,2.62472,0.51884,0.897519675,-0.45995976,-0.049499385
1764764839.5797038,-2.92992,2.62472,0.51884,0.897519675,-0.45995976,-0.049499385
1764764839.5797038,-2.92992,2.62472,0.51884,0.897519675,-0.45995976,-0.049499385
1764764839.5807233,-2.92992,2.62472,0.51884,0.897519675,-0.45995976,-0.049499385
1764764839.5807233,-2.92992,2.62472,0.51884,0.897519675,-0.45995976,-0.049499385
1764764839.5807233,-2.92992,2.62472,0.51884,0.897519675,-0.45995976,-0.049499385
1764764839.5807233,-2.92992,2.62472,0.51884,0.897519675,-0.45995976,-0.049499385
1764764839.5807233,-2.92992,2.62472,0.51884,0.897519675,-0.45995976,-0.049499385
1764764839.5807233,-2.92992,2.62472,0.51884,0.897519675,-0.45995976,-0.049499385
1764764839.5807233,-2.92992,2.62472,0.51884,0.897519675,-0.45995976,-0.049499385
1764764839.5807233,-2.73154,2.88414,-0.3815,0.89636001,-0.45825078,-0.049743525
1764764839.5807233,-2.73154,2.88414,-0.3815,0.89636001,-0.45825078,-0.049743525
1764764839.5807233,-2.73154,2.88414,-0.3815,0.89636001,-0.45825078,-0.049743525
1764764839.5817184,-2.73154,2.88414,-0.3815,0.89636001,-0.45825078,-0.049743525
1764764839.6245148,-2.73154,2.88414,-0.3815,0.89636001,-0.45825078,-0.049743525
1764764839.6245148,-2.73154,2.88414,-0.3815,0.89636001,-0.45825078,-0.049743525
1764764839.6245148,-2.73154,2.88414,-0.3815,0.89636001,-0.45825078,-0.049743525
1764764839.6245148,-2.73154,2.88414,-0.3815,0.89636001,-0.45825078,-0.049743525
1764764839.6245148,-2.73154,2.88414,-0.3815,0.89636001,-0.45825078,-0.049743525
1764764839.6245148,-2.73154,2.88414,-0.3815,0.89636001,-0.45825078,-0.049743525
1764764839.6245148,-2.94518,2.04484,-0.5341,0.894345855,-0.457091115,-0.04895007
1764764839.6245148,-2.94518,2.04484,-0.5341,0.894345855,-0.457091115,-0.04895007
1764764839.6245148,-2.94518,2.04484,-0.5341,0.894345855,-0.457091115,-0.04895007
1764764839.6255133,-2.94518,2.04484,-0.5341,0.894345855,-0.457091115,-0.04895007
1764764839.6255133,-2.94518,2.04484,-0.5341,0.894345855,-0.457091115,-0.04895007
1764764839.6255133,-2.94518,2.04484,-0.5341,0.894345855,-0.457091115,-0.04895007
1764764839.6255133,-2.94518,2.04484,-0.5341,0.894345855,-0.457091115,-0.04895007
1764764839.6255133,-2.94518,2.04484,-0.5341,0.894345855,-0.457091115,-0.04895007
1764764839.6255133,-2.94518,2.04484,-0.5341,0.894345855,-0.457091115,-0.04895007
1764764839.6255133,-2.94518,2.04484,-0.5341,0.894345855,-0.457091115,-0.04895007
1764764839.6255133,-2.91466,1.43444,-0.04578,0.89184342,-0.45703008,-0.04809558
1764764839.6255133,-2.91466,1.43444,-0.04578,0.89184342,-0.45703008,-0.04809558
1764764839.6255133,-2.91466,1.43444,-0.04578,0.89184342,-0.45703008,-0.04809558
1764764839.6255133,-2.91466,1.43444,-0.04578,0.89184342,-0.45703008,-0.04809558
1764764839.6255133,-2.91466,1.43444,-0.04578,0.89184342,-0.45703008,-0.04809558
1764764839.6255133,-2.91466,1.43444,-0.04578,0.89184342,-0.45703008,-0.04809558
1764764839.6726797,-2.91466,1.43444,-0.04578,0.89184342,-0.45703008,-0.04809558
1764764839.6726797,-2.91466,1.43444,-0.04578,0.89184342,-0.45703008,-0.04809558
1764764839.6726797,-2.91466,1.43444,-0.04578,0.89184342,-0.45703008,-0.04809558
1764764839.6726797,-2.91466,1.43444,-0.04578,0.89184342,-0.45703008,-0.04809558
1764764839.6726797,-3.44876,0.42728,0.62566,0.89208756,-0.457335255,-0.04772937
1764764839.6726797,-3.44876,0.42728,0.62566,0.89208756,-0.457335255,-0.04772937
1764764839.6726797,-3.44876,0.42728,0.62566,0.89208756,-0.457335255,-0.04772937
1764764839.6726797,-3.44876,0.42728,0.62566,0.89208756,-0.457335255,-0.04772937
1764764839.6726797,-3.44876,0.42728,0.62566,0.89208756,-0.457335255,-0.04772937
1764764839.6726797,-3.44876,0.42728,0.62566,0.89208756,-0.457335255,-0.04772937
1764764839.6726797,-3.44876,0.42728,0.62566,0.89208756,-0.457335255,-0.04772937
1764764839.6726797,-3.44876,0.42728,0.62566,0.89208756,-0.457335255,-0.04772937
1764764839.6726797,-3.44876,0.42728,0.62566,0.89208756,-0.457335255,-0.04772937
1764764839.6726797,-3.44876,0.42728,0.62566,0.89208756,-0.457335255,-0.04772937
1764764839.6726797,-3.55558,0.36624,1.38866,0.89306412,-0.455992485,-0.04809558
1764764839.6726797,-3.55558,0.36624,1.38866,0.89306412,-0.455992485,-0.04809558
1764764839.6726797,-3.55558,0.36624,1.38866,0.89306412,-0.455992485,-0.04809558
1764764839.6726797,-3.55558,0.36624,1.38866,0.89306412,-0.455992485,-0.04809558
1764764839.6726797,-3.55558,0.36624,1.38866,0.89306412,-0.455992485,-0.04809558
1764764839.673689,-3.55558,0.36624,1.38866,0.89306412,-0.455992485,-0.04809558
1764764839.673689,-3.55558,0.36624,1.38866,0.89306412,-0.455992485,-0.04809558
1764764839.673689,-3.55558,0.36624,1.38866,0.89306412,-0.455992485,-0.04809558
1764764839.673689,-3.55558,0.36624,1.38866,0.89306412,-0.455992485,-0.04809558
1764764839.673689,-3.55558,0.36624,1.38866,0.89306412,-0.455992485,-0.04809558
1764764839.7157662,-4.83742,0.74774,1.92276,0.895078275,-0.455137995,-0.048522825
1764764839.7157662,-4.83742,0.74774,1.92276,0.895078275,-0.455137995,-0.048522825
1764764839.7157662,-4.83742,0.74774,1.92276,0.895078275,-0.455137995,-0.048522825
1764764839.7157662,-4.83742,0.74774,1.92276,0.895078275,-0.455137995,-0.048522825
1764764839.7157662,-4.83742,0.74774,1.92276,0.895078275,-0.455137995,-0.048522825
1764764839.7157662,-4.83742,0.74774,1.92276,0.895078275,-0.455137995,-0.048522825
1764764839.7157662,-4.83742,0.74774,1.92276,0.895078275,-0.455137995,-0.048522825
1764764839.7157662,-4.83742,0.74774,1.92276,0.895078275,-0.455137995,-0.048522825
1764764839.7157662,-4.83742,0.74774,1.92276,0.895078275,-0.455137995,-0.048522825
1764764839.7157662,-4.83742,0.74774,1.92276,0.895078275,-0.455137995,-0.048522825
1764764839.7157662,-4.37962,0.54936,2.39582,0.89562759,-0.456969045,-0.048400755
1764764839.7157662,-4.37962,0.54936,2.39582,0.89562759,-0.456969045,-0.048400755
1764764839.7157662,-4.37962,0.54936,2.39582,0.89562759,-0.456969045,-0.048400755
1764764839.7157662,-4.37962,0.54936,2.39582,0.89562759,-0.456969045,-0.048400755
1764764839.7157662,-4.37962,0.54936,2.39582,0.89562759,-0.456969045,-0.048400755
1764764839.7157662,-4.37962,0.54936,2.39582,0.89562759,-0.456969045,-0.048400755
1764764839.7157662,-4.37962,0.54936,2.39582,0.89562759,-0.456969045,-0.048400755
1764764839.7157662,-4.37962,0.54936,2.39582,0.89562759,-0.456969045,-0.048400755
1764764839.7157662,-4.37962,0.54936,2.39582,0.89562759,-0.456969045,-0.048400755
1764764839.7157662,-4.37962,0.54936,2.39582,0.89562759,-0.456969045,-0.048400755
1764764839.7157662,-4.8069,-0.1525999999999999,3.34194,0.89220963,-0.458189745,-0.049621455
1764764839.7157662,-4.8069,-0.1525999999999999,3.34194,0.89220963,-0.458189745,-0.049621455
1764764839.762733,-4.8069,-0.1525999999999999,3.34194,0.89220963,-0.458189745,-0.049621455
1764764839.762733,-4.8069,-0.1525999999999999,3.34194,0.89220963,-0.458189745,-0.049621455
1764764839.762733,-4.8069,-0.1525999999999999,3.34194,0.89220963,-0.458189745,-0.049621455
1764764839.762733,-4.8069,-0.1525999999999999,3.34194,0.89220963,-0.458189745,-0.049621455
1764764839.762733,-4.8069,-0.1525999999999999,3.34194,0.89220963,-0.458189745,-0.049621455
1764764839.762733,-4.8069,-0.1525999999999999,3.34194,0.89220963,-0.458189745,-0.049621455
1764764839.762733,-4.8069,-0.1525999999999999,3.34194,0.89220963,-0.458189745,-0.049621455
1764764839.762733,-4.8069,-0.1525999999999999,3.34194,0.89220963,-0.458189745,-0.049621455
1764764839.762733,-4.91372,-1.28184,3.15882,0.890561685,-0.45764043,-0.05065905
1764764839.762733,-4.91372,-1.28184,3.15882,0.890561685,-0.45764043,-0.05065905
1764764839.762733,-4.91372,-1.28184,3.15882,0.890561685,-0.45764043,-0.05065905
1764764839.762733,-4.91372,-1.28184,3.15882,0.890561685,-0.45764043,-0.05065905
1764764839.762733,-4.91372,-1.28184,3.15882,0.890561685,-0.45764043,-0.05065905
1764764839.762733,-4.91372,-1.28184,3.15882,0.890561685,-0.45764043,-0.05065905
1764764839.762733,-4.91372,-1.28184,3.15882,0.890561685,-0.45764043,-0.05065905
1764764839.762733,-4.91372,-1.28184,3.15882,0.890561685,-0.45764043,-0.05065905
1764764839.762733,-4.91372,-1.28184,3.15882,0.890561685,-0.45764043,-0.05065905
1764764839.762733,-4.91372,-1.28184,3.15882,0.890561685,-0.45764043,-0.05065905
1764764839.764259,-5.06632,-0.21364,2.9757,0.892392735,-0.45922734,-0.04992663
1764764839.764259,-5.06632,-0.21364,2.9757,0.892392735,-0.45922734,-0.04992663
1764764839.764259,-5.06632,-0.21364,2.9757,0.892392735,-0.45922734,-0.04992663
1764764839.764259,-5.06632,-0.21364,2.9757,0.892392735,-0.45922734,-0.04992663
1764764839.764259,-5.06632,-0.21364,2.9757,0.892392735,-0.45922734,-0.04992663
1764764839.764259,-5.06632,-0.21364,2.9757,0.892392735,-0.45922734,-0.04992663
1764764839.8106065,-5.06632,-0.21364,2.9757,0.892392735,-0.45922734,-0.04992663
1764764839.8106065,-5.06632,-0.21364,2.9757,0.892392735,-0.45922734,-0.04992663
1764764839.8106065,-5.06632,-0.21364,2.9757,0.892392735,-0.45922734,-0.04992663
1764764839.8106065,-5.06632,-0.21364,2.9757,0.892392735,-0.45922734,-0.04992663
1764764839.8106065,-4.33384,0.57988,3.49454,0.89404068,-0.461119425,-0.049987665
1764764839.8106065,-4.33384,0.57988,3.49454,0.89404068,-0.461119425,-0.049987665
1764764839.8106065,-4.33384,0.57988,3.49454,0.89404068,-0.461119425,-0.049987665
1764764839.8106065,-4.33384,0.57988,3.49454,0.89404068,-0.461119425,-0.049987665
1764764839.8106065,-4.33384,0.57988,3.49454,0.89404068,-0.461119425,-0.049987665
1764764839.8106065,-4.33384,0.57988,3.49454,0.89404068,-0.461119425,-0.049987665
1764764839.8106065,-4.33384,0.57988,3.49454,0.89404068,-0.461119425,-0.049987665
1764764839.8106065,-4.33384,0.57988,3.49454,0.89404068,-0.461119425,-0.049987665
1764764839.811123,-4.33384,0.57988,3.49454,0.89404068,-0.461119425,-0.049987665
1764764839.811123,-4.33384,0.57988,3.49454,0.89404068,-0.461119425,-0.049987665
1764764839.811123,-3.87604,0.36624,2.9757,0.89367447,-0.461729775,-0.05017077
1764764839.811123,-3.87604,0.36624,2.9757,0.89367447,-0.461729775,-0.05017077
1764764839.811123,-3.87604,0.36624,2.9757,0.89367447,-0.461729775,-0.05017077
1764764839.811123,-3.87604,0.36624,2.9757,0.89367447,-0.461729775,-0.05017077
1764764839.811123,-3.87604,0.36624,2.9757,0.89367447,-0.461729775,-0.05017077
1764764839.811123,-3.87604,0.36624,2.9757,0.89367447,-0.461729775,-0.05017077
1764764839.811123,-3.87604,0.36624,2.9757,0.89367447,-0.461729775,-0.05017077
1764764839.811123,-3.87604,0.36624,2.9757,0.89367447,-0.461729775,-0.05017077
1764764839.8571522,-3.87604,0.36624,2.9757,0.89367447,-0.461729775,-0.05017077
1764764839.8571522,-3.87604,0.36624,2.9757,0.89367447,-0.461729775,-0.05017077
1764764839.8571522,-3.99812,1.35814,1.46496,0.893735505,-0.46057011,-0.051330435
1764764839.8571522,-3.99812,1.35814,1.46496,0.893735505,-0.46057011,-0.051330435
1764764839.8571522,-3.99812,1.35814,1.46496,0.893735505,-0.46057011,-0.051330435
1764764839.8571522,-3.99812,1.35814,1.46496,0.893735505,-0.46057011,-0.051330435
1764764839.8571522,-3.99812,1.35814,1.46496,0.893735505,-0.46057011,-0.051330435
1764764839.8571522,-3.99812,1.35814,1.46496,0.893735505,-0.46057011,-0.051330435
1764764839.8571522,-3.99812,1.35814,1.46496,0.893735505,-0.46057011,-0.051330435
1764764839.8571522,-3.99812,1.35814,1.46496,0.893735505,-0.46057011,-0.051330435
1764764839.8571522,-3.99812,1.35814,1.46496,0.893735505,-0.46057011,-0.051330435
1764764839.8571522,-3.99812,1.35814,1.46496,0.893735505,-0.46057011,-0.051330435
1764764839.8571522,-4.8832,2.71628,-0.9919,0.895322415,-0.46057011,-0.052306995
1764764839.8571522,-4.8832,2.71628,-0.9919,0.895322415,-0.46057011,-0.052306995
1764764839.8571522,-4.8832,2.71628,-0.9919,0.895322415,-0.46057011,-0.052306995
1764764839.8571522,-4.8832,2.71628,-0.9919,0.895322415,-0.46057011,-0.052306995
1764764839.8571522,-4.8832,2.71628,-0.9919,0.895322415,-0.46057011,-0.052306995
1764764839.8571522,-4.8832,2.71628,-0.9919,0.895322415,-0.46057011,-0.052306995
1764764839.8571522,-4.8832,2.71628,-0.9919,0.895322415,-0.46057011,-0.052306995
1764764839.8571522,-4.8832,2.71628,-0.9919,0.895322415,-0.46057011,-0.052306995
1764764839.8571522,-4.8832,2.71628,-0.9919,0.895322415,-0.46057011,-0.052306995
1764764839.8571522,-4.8832,2.71628,-0.9919,0.895322415,-0.46057011,-0.052306995
1764764839.9027922,-5.5699,2.96044,-2.10588,0.89416275,-0.46166874,-0.05297838
1764764839.9027922,-5.5699,2.96044,-2.10588,0.89416275,-0.46166874,-0.05297838
1764764839.9027922,-5.5699,2.96044,-2.10588,0.89416275,-0.46166874,-0.05297838
1764764839.9027922,-5.5699,2.96044,-2.10588,0.89416275,-0.46166874,-0.05297838
1764764839.9027922,-5.5699,2.96044,-2.10588,0.89416275,-0.46166874,-0.05297838
1764764839.9027922,-5.5699,2.96044,-2.10588,0.89416275,-0.46166874,-0.05297838
1764764839.9027922,-5.5699,2.96044,-2.10588,0.89416275,-0.46166874,-0.05297838
1764764839.9027922,-5.5699,2.96044,-2.10588,0.89416275,-0.46166874,-0.05297838
1764764839.9027922,-5.5699,2.96044,-2.10588,0.89416275,-0.46166874,-0.05297838
1764764839.9027922,-5.5699,2.96044,-2.10588,0.89416275,-0.46166874,-0.05297838
1764764839.9027922,-5.38678,2.289,-2.73154,0.89245377,-0.46252323,-0.053649765
1764764839.9027922,-5.38678,2.289,-2.73154,0.89245377,-0.46252323,-0.053649765
1764764839.9027922,-5.38678,2.289,-2.73154,0.89245377,-0.46252323,-0.053649765
1764764839.9027922,-5.38678,2.289,-2.73154,0.89245377,-0.46252323,-0.053649765
1764764839.9027922,-5.38678,2.289,-2.73154,0.89245377,-0.46252323,-0.053649765
1764764839.9027922,-5.38678,2.289,-2.73154,0.89245377,-0.46252323,-0.053649765
1764764839.9027922,-5.38678,2.289,-2.73154,0.89245377,-0.46252323,-0.053649765
1764764839.9027922,-5.38678,2.289,-2.73154,0.89245377,-0.46252323,-0.053649765
1764764839.9027922,-5.38678,2.289,-2.73154,0.89245377,-0.46252323,-0.053649765
1764764839.9027922,-5.38678,2.289,-2.73154,0.89245377,-0.46252323,-0.053649765
1764764839.9027922,-4.8069,2.04484,-2.77732,0.891660315,-0.463682895,-0.05297838
1764764839.9027922,-4.8069,2.04484,-2.77732,0.891660315,-0.463682895,-0.05297838
1764764839.9027922,-4.8069,2.04484,-2.77732,0.891660315,-0.463682895,-0.05297838
1764764839.9027922,-4.8069,2.04484,-2.77732,0.891660315,-0.463682895,-0.05297838
1764764839.903818,-4.8069,2.04484,-2.77732,0.891660315,-0.463682895,-0.05297838
1764764839.903818,-4.8069,2.04484,-2.77732,0.891660315,-0.463682895,-0.05297838
1764764839.9508822,-4.8069,2.04484,-2.77732,0.891660315,-0.463682895,-0.05297838
