Timestamp,GyroX,GyroY,GyroZ,AccX,AccY,AccZ
1764763979.3995397,-1.35814,0.12208,-0.0762999999999999,0.90966564,-0.403868595,-0.174376995
1764763979.3995397,-1.35814,0.12208,-0.0762999999999999,0.90966564,-0.403868595,-0.174376995
1764763979.3995397,-1.35814,0.12208,-0.0762999999999999,0.90966564,-0.403868595,-0.174376995
1764763979.4000704,-3.06726,0.8087799999999999,1.48022,0.9106422,-0.40319721,-0.1757808
1764763979.4000704,-3.06726,0.8087799999999999,1.48022,0.9106422,-0.40319721,-0.1757808
1764763979.4000704,-3.06726,0.8087799999999999,1.48022,0.9106422,-0.40319721,-0.1757808
1764763979.4000704,-3.06726,0.8087799999999999,1.48022,0.9106422,-0.40319721,-0.1757808
1764763979.4000704,-3.06726,0.8087799999999999,1.48022,0.9106422,-0.40319721,-0.1757808
1764763979.4000704,-3.06726,0.8087799999999999,1.48022,0.9106422,-0.40319721,-0.1757808
1764763979.4000704,-3.06726,0.8087799999999999,1.48022,0.9106422,-0.40319721,-0.1757808
1764763979.4000704,-3.06726,0.8087799999999999,1.48022,0.9106422,-0.40319721,-0.1757808
1764763979.4000704,-3.06726,0.8087799999999999,1.48022,0.9106422,-0.40319721,-0.1757808
1764763979.4000704,-3.06726,0.8087799999999999,1.48022,0.9106422,-0.40319721,-0.1757808
1764763979.4000704,-4.39488,0.6103999999999999,1.46496,0.908872185,-0.402525825,-0.17761185
1764763979.4000704,-4.39488,0.6103999999999999,1.46496,0.908872185,-0.402525825,-0.17761185
1764763979.4000704,-4.39488,0.6103999999999999,1.46496,0.908872185,-0.402525825,-0.17761185
1764763979.4000704,-4.39488,0.6103999999999999,1.46496,0.908872185,-0.402525825,-0.17761185
1764763979.4000704,-4.39488,0.6103999999999999,1.46496,0.908872185,-0.402525825,-0.17761185
1764763979.4000704,-4.39488,0.6103999999999999,1.46496,0.908872185,-0.402525825,-0.17761185
1764763979.4000704,-4.39488,0.6103999999999999,1.46496,0.908872185,-0.402525825,-0.17761185
1764763979.4000704,-4.39488,0.6103999999999999,1.46496,0.908872185,-0.402525825,-0.17761185
1764763979.4000704,-4.39488,0.6103999999999999,1.46496,0.908872185,-0.402525825,-0.17761185
1764763979.4000704,-4.39488,0.6103999999999999,1.46496,0.908872185,-0.402525825,-0.17761185
1764763979.4465024,-4.41014,1.2971,1.78542,0.90905529,-0.405455505,-0.177428745
1764763979.4465024,-4.41014,1.2971,1.78542,0.90905529,-0.405455505,-0.177428745
1764763979.4465024,-4.41014,1.2971,1.78542,0.90905529,-0.405455505,-0.177428745
1764763979.4465024,-4.41014,1.2971,1.78542,0.90905529,-0.405455505,-0.177428745
1764763979.4465024,-4.41014,1.2971,1.78542,0.90905529,-0.405455505,-0.177428745
1764763979.4465024,-4.41014,1.2971,1.78542,0.90905529,-0.405455505,-0.177428745
1764763979.4465024,-4.41014,1.2971,1.78542,0.90905529,-0.405455505,-0.177428745
1764763979.4465024,-4.41014,1.2971,1.78542,0.90905529,-0.405455505,-0.177428745
1764763979.4470356,-4.41014,1.2971,1.78542,0.90905529,-0.405455505,-0.177428745
1764763979.4470356,-4.41014,1.2971,1.78542,0.90905529,-0.405455505,-0.177428745
1764763979.4470356,-4.1202,2.27374,1.77016,0.910459095,-0.407408625,-0.17724564
1764763979.4470356,-4.1202,2.27374,1.77016,0.910459095,-0.407408625,-0.17724564
1764763979.4470356,-4.1202,2.27374,1.77016,0.910459095,-0.407408625,-0.17724564
1764763979.4470356,-4.1202,2.27374,1.77016,0.910459095,-0.407408625,-0.17724564
1764763979.4470356,-4.1202,2.27374,1.77016,0.910459095,-0.407408625,-0.17724564
1764763979.4470356,-4.1202,2.27374,1.77016,0.910459095,-0.407408625,-0.17724564
1764763979.4470356,-4.1202,2.27374,1.77016,0.910459095,-0.407408625,-0.17724564
1764763979.4470356,-4.1202,2.27374,1.77016,0.910459095,-0.407408625,-0.17724564
1764763979.4470356,-4.1202,2.27374,1.77016,0.910459095,-0.407408625,-0.17724564
1764763979.4470356,-4.1202,2.27374,1.77016,0.910459095,-0.407408625,-0.17724564
1764763979.4470356,-4.51696,2.96044,1.1445,0.910214955,-0.40746966,-0.176696325
1764763979.4470356,-4.51696,2.96044,1.1445,0.910214955,-0.40746966,-0.176696325
1764763979.4470356,-4.51696,2.96044,1.1445,0.910214955,-0.40746966,-0.176696325
1764763979.4470356,-4.51696,2.96044,1.1445,0.910214955,-0.40746966,-0.176696325
1764763979.493793,-4.51696,2.96044,1.1445,0.910214955,-0.40746966,-0.176696325
1764763979.493793,-4.51696,2.96044,1.1445,0.910214955,-0.40746966,-0.176696325
1764763979.493793,-4.51696,2.96044,1.1445,0.910214955,-0.40746966,-0.176696325
1764763979.493793,-4.51696,2.96044,1.1445,0.910214955,-0.40746966,-0.176696325
1764763979.493793,-4.51696,2.96044,1.1445,0.910214955,-0.40746966,-0.176696325
1764763979.493793,-4.51696,2.96044,1.1445,0.910214955,-0.40746966,-0.176696325
1764763979.493793,-4.1965,2.8994,-0.6103999999999999,0.908628045,-0.40734759,-0.175841835
1764763979.49481,-4.1965,2.8994,-0.6103999999999999,0.908628045,-0.40734759,-0.175841835
1764763979.49481,-4.1965,2.8994,-0.6103999999999999,0.908628045,-0.40734759,-0.175841835
1764763979.49481,-4.1965,2.8994,-0.6103999999999999,0.908628045,-0.40734759,-0.175841835
1764763979.49481,-4.1965,2.8994,-0.6103999999999999,0.908628045,-0.40734759,-0.175841835
1764763979.49481,-4.1965,2.8994,-0.6103999999999999,0.908628045,-0.40734759,-0.175841835
1764763979.49481,-4.1965,2.8994,-0.6103999999999999,0.908628045,-0.40734759,-0.175841835
1764763979.49481,-4.1965,2.8994,-0.6103999999999999,0.908628045,-0.40734759,-0.175841835
1764763979.49481,-4.1965,2.8994,-0.6103999999999999,0.908628045,-0.40734759,-0.175841835
1764763979.49481,-4.1965,2.8994,-0.6103999999999999,0.908628045,-0.40734759,-0.175841835
1764763979.49481,-2.80784,2.289,-1.7549,0.908139765,-0.40783587,-0.175841835
1764763979.49481,-2.80784,2.289,-1.7549,0.908139765,-0.40783587,-0.175841835
1764763979.49481,-2.80784,2.289,-1.7549,0.908139765,-0.40783587,-0.175841835
1764763979.49481,-2.80784,2.289,-1.7549,0.908139765,-0.40783587,-0.175841835
1764763979.49481,-2.80784,2.289,-1.7549,0.908139765,-0.40783587,-0.175841835
1764763979.49481,-2.80784,2.289,-1.7549,0.908139765,-0.40783587,-0.175841835
1764763979.5386758,-2.80784,2.289,-1.7549,0.908139765,-0.40783587,-0.175841835
1764763979.5386758,-2.80784,2.289,-1.7549,0.908139765,-0.40783587,-0.175841835
1764763979.5386758,-2.80784,2.289,-1.7549,0.908139765,-0.40783587,-0.175841835
1764763979.5386758,-2.80784,2.289,-1.7549,0.908139765,-0.40783587,-0.175841835
1764763979.5386758,-2.25848,2.25848,-1.93802,0.90917736,-0.407774835,-0.17492631
1764763979.5386758,-2.25848,2.25848,-1.93802,0.90917736,-0.407774835,-0.17492631
1764763979.5386758,-2.25848,2.25848,-1.93802,0.90917736,-0.407774835,-0.17492631
1764763979.5386758,-2.25848,2.25848,-1.93802,0.90917736,-0.407774835,-0.17492631
1764763979.5386758,-2.25848,2.25848,-1.93802,0.90917736,-0.407774835,-0.17492631
1764763979.5386758,-2.25848,2.25848,-1.93802,0.90917736,-0.407774835,-0.17492631
1764763979.5386758,-2.25848,2.25848,-1.93802,0.90917736,-0.407774835,-0.17492631
1764763979.540186,-2.25848,2.25848,-1.93802,0.90917736,-0.407774835,-0.17492631
1764763979.540186,-2.25848,2.25848,-1.93802,0.90917736,-0.407774835,-0.17492631
1764763979.540186,-2.25848,2.25848,-1.93802,0.90917736,-0.407774835,-0.17492631
1764763979.540186,-2.09062,1.86172,-1.96854,0.91088634,-0.40722552,-0.174499065
1764763979.540186,-2.09062,1.86172,-1.96854,0.91088634,-0.40722552,-0.174499065
1764763979.540186,-2.09062,1.86172,-1.96854,0.91088634,-0.40722552,-0.174499065
1764763979.540186,-2.09062,1.86172,-1.96854,0.91088634,-0.40722552,-0.174499065
1764763979.540186,-2.09062,1.86172,-1.96854,0.91088634,-0.40722552,-0.174499065
1764763979.540186,-2.09062,1.86172,-1.96854,0.91088634,-0.40722552,-0.174499065
1764763979.540186,-2.09062,1.86172,-1.96854,0.91088634,-0.40722552,-0.174499065
1764763979.540186,-2.09062,1.86172,-1.96854,0.91088634,-0.40722552,-0.174499065
1764763979.540186,-2.09062,1.86172,-1.96854,0.91088634,-0.40722552,-0.174499065
1764763979.540186,-2.09062,1.86172,-1.96854,0.91088634,-0.40722552,-0.174499065
1764763979.5870233,-2.4416,2.7468,-2.04484,0.911435655,-0.40502826,-0.174621135
1764763979.5880337,-2.4416,2.7468,-2.04484,0.911435655,-0.40502826,-0.174621135
1764763979.5880337,-2.4416,2.7468,-2.04484,0.911435655,-0.40502826,-0.174621135
1764763979.5880337,-2.4416,2.7468,-2.04484,0.911435655,-0.40502826,-0.174621135
1764763979.5880337,-2.4416,2.7468,-2.04484,0.911435655,-0.40502826,-0.174621135
1764763979.5880337,-2.4416,2.7468,-2.04484,0.911435655,-0.40502826,-0.174621135
1764763979.5880337,-2.4416,2.7468,-2.04484,0.911435655,-0.40502826,-0.174621135
1764763979.5880337,-2.4416,2.7468,-2.04484,0.911435655,-0.40502826,-0.174621135
1764763979.5880337,-2.4416,2.7468,-2.04484,0.911435655,-0.40502826,-0.174621135
1764763979.5880337,-2.4416,2.7468,-2.04484,0.911435655,-0.40502826,-0.174621135
1764763979.5880337,-2.63998,2.31952,-1.6022999999999998,0.91174083,-0.40319721,-0.174376995
1764763979.5880337,-2.63998,2.31952,-1.6022999999999998,0.91174083,-0.40319721,-0.174376995
1764763979.5880337,-2.63998,2.31952,-1.6022999999999998,0.91174083,-0.40319721,-0.174376995
1764763979.5880337,-2.63998,2.31952,-1.6022999999999998,0.91174083,-0.40319721,-0.174376995
1764763979.5880337,-2.63998,2.31952,-1.6022999999999998,0.91174083,-0.40319721,-0.174376995
1764763979.5880337,-2.63998,2.31952,-1.6022999999999998,0.91174083,-0.40319721,-0.174376995
1764763979.5880337,-2.63998,2.31952,-1.6022999999999998,0.91174083,-0.40319721,-0.174376995
1764763979.5880337,-2.63998,2.31952,-1.6022999999999998,0.91174083,-0.40319721,-0.174376995
1764763979.589611,-2.63998,2.31952,-1.6022999999999998,0.91174083,-0.40319721,-0.174376995
1764763979.589611,-2.63998,2.31952,-1.6022999999999998,0.91174083,-0.40319721,-0.174376995
1764763979.589611,-3.5098,2.24322,-1.32762,0.91210704,-0.4016103,-0.17370561
1764763979.589611,-3.5098,2.24322,-1.32762,0.91210704,-0.4016103,-0.17370561
1764763979.589611,-3.5098,2.24322,-1.32762,0.91210704,-0.4016103,-0.17370561
1764763979.5906212,-3.5098,2.24322,-1.32762,0.91210704,-0.4016103,-0.17370561
1764763979.6343095,-3.5098,2.24322,-1.32762,0.91210704,-0.4016103,-0.17370561
1764763979.6343095,-3.5098,2.24322,-1.32762,0.91210704,-0.4016103,-0.17370561
1764763979.6343095,-3.5098,2.24322,-1.32762,0.91210704,-0.4016103,-0.17370561
1764763979.6343095,-3.5098,2.24322,-1.32762,0.91210704,-0.4016103,-0.17370561
1764763979.6343095,-3.5098,2.24322,-1.32762,0.91210704,-0.4016103,-0.17370561
1764763979.6343095,-3.5098,2.24322,-1.32762,0.91210704,-0.4016103,-0.17370561
1764763979.6343095,-3.15882,1.61756,-1.26658,0.911557725,-0.40087788,-0.174010785
1764763979.6343095,-3.15882,1.61756,-1.26658,0.911557725,-0.40087788,-0.174010785
1764763979.6343095,-3.15882,1.61756,-1.26658,0.911557725,-0.40087788,-0.174010785
1764763979.6343095,-3.15882,1.61756,-1.26658,0.911557725,-0.40087788,-0.174010785
1764763979.6343095,-3.15882,1.61756,-1.26658,0.911557725,-0.40087788,-0.174010785
1764763979.6343095,-3.15882,1.61756,-1.26658,0.911557725,-0.40087788,-0.174010785
1764763979.634771,-3.15882,1.61756,-1.26658,0.911557725,-0.40087788,-0.174010785
1764763979.634771,-3.15882,1.61756,-1.26658,0.911557725,-0.40087788,-0.174010785
1764763979.634771,-3.15882,1.61756,-1.26658,0.911557725,-0.40087788,-0.174010785
1764763979.634771,-3.15882,1.61756,-1.26658,0.911557725,-0.40087788,-0.174010785
1764763979.634771,-3.14356,1.43444,-1.4497,0.910092885,-0.40099995,-0.17394975
1764763979.634771,-3.14356,1.43444,-1.4497,0.910092885,-0.40099995,-0.17394975
1764763979.634771,-3.14356,1.43444,-1.4497,0.910092885,-0.40099995,-0.17394975
1764763979.634771,-3.14356,1.43444,-1.4497,0.910092885,-0.40099995,-0.17394975
1764763979.6812356,-3.14356,1.43444,-1.4497,0.910092885,-0.40099995,-0.17394975
1764763979.6812356,-3.14356,1.43444,-1.4497,0.910092885,-0.40099995,-0.17394975
1764763979.6812356,-3.14356,1.43444,-1.4497,0.910092885,-0.40099995,-0.17394975
1764763979.6812356,-3.14356,1.43444,-1.4497,0.910092885,-0.40099995,-0.17394975
1764763979.6822429,-3.14356,1.43444,-1.4497,0.910092885,-0.40099995,-0.17394975
1764763979.6822429,-3.14356,1.43444,-1.4497,0.910092885,-0.40099995,-0.17394975
1764763979.6822429,-3.64714,1.2208,-1.05294,0.910825305,-0.399840285,-0.174621135
1764763979.6822429,-3.64714,1.2208,-1.05294,0.910825305,-0.399840285,-0.174621135
1764763979.6822429,-3.64714,1.2208,-1.05294,0.910825305,-0.399840285,-0.174621135
1764763979.6822429,-3.64714,1.2208,-1.05294,0.910825305,-0.399840285,-0.174621135
1764763979.6822429,-3.64714,1.2208,-1.05294,0.910825305,-0.399840285,-0.174621135
1764763979.6822429,-3.64714,1.2208,-1.05294,0.910825305,-0.399840285,-0.174621135
1764763979.6822429,-3.64714,1.2208,-1.05294,0.910825305,-0.399840285,-0.174621135
1764763979.6822429,-3.64714,1.2208,-1.05294,0.910825305,-0.399840285,-0.174621135
1764763979.6822429,-3.64714,1.2208,-1.05294,0.910825305,-0.399840285,-0.174621135
1764763979.6822429,-3.64714,1.2208,-1.05294,0.910825305,-0.399840285,-0.174621135
1764763979.6822429,-4.07442,1.4497,-1.73964,0.911679795,-0.39965718,-0.174376995
1764763979.6822429,-4.07442,1.4497,-1.73964,0.911679795,-0.39965718,-0.174376995
1764763979.6822429,-4.07442,1.4497,-1.73964,0.911679795,-0.39965718,-0.174376995
1764763979.6822429,-4.07442,1.4497,-1.73964,0.911679795,-0.39965718,-0.174376995
1764763979.6822429,-4.07442,1.4497,-1.73964,0.911679795,-0.39965718,-0.174376995
1764763979.6822429,-4.07442,1.4497,-1.73964,0.911679795,-0.39965718,-0.174376995
1764763979.6822429,-4.07442,1.4497,-1.73964,0.911679795,-0.39965718,-0.174376995
1764763979.6822429,-4.07442,1.4497,-1.73964,0.911679795,-0.39965718,-0.174376995
1764763979.6822429,-4.07442,1.4497,-1.73964,0.911679795,-0.39965718,-0.174376995
1764763979.6822429,-4.07442,1.4497,-1.73964,0.911679795,-0.39965718,-0.174376995
1764763979.726023,-3.2046,2.07536,-0.3815,0.91149669,-0.40148823,-0.17358354
1764763979.726023,-3.2046,2.07536,-0.3815,0.91149669,-0.40148823,-0.17358354
1764763979.726023,-3.2046,2.07536,-0.3815,0.91149669,-0.40148823,-0.17358354
1764763979.726023,-3.2046,2.07536,-0.3815,0.91149669,-0.40148823,-0.17358354
1764763979.726023,-3.2046,2.07536,-0.3815,0.91149669,-0.40148823,-0.17358354
1764763979.726023,-3.2046,2.07536,-0.3815,0.91149669,-0.40148823,-0.17358354
1764763979.726023,-3.2046,2.07536,-0.3815,0.91149669,-0.40148823,-0.17358354
1764763979.726023,-3.2046,2.07536,-0.3815,0.91149669,-0.40148823,-0.17358354
1764763979.726023,-3.2046,2.07536,-0.3815,0.91149669,-0.40148823,-0.17358354
1764763979.726023,-3.2046,2.07536,-0.3815,0.91149669,-0.40148823,-0.17358354
1764763979.726023,-2.8231,2.1364,-0.1525999999999999,0.910459095,-0.40124409,-0.17346147
1764763979.726023,-2.8231,2.1364,-0.1525999999999999,0.910459095,-0.40124409,-0.17346147
1764763979.726023,-2.8231,2.1364,-0.1525999999999999,0.910459095,-0.40124409,-0.17346147
1764763979.726023,-2.8231,2.1364,-0.1525999999999999,0.910459095,-0.40124409,-0.17346147
1764763979.7270312,-2.8231,2.1364,-0.1525999999999999,0.910459095,-0.40124409,-0.17346147
1764763979.7270312,-2.8231,2.1364,-0.1525999999999999,0.910459095,-0.40124409,-0.17346147
1764763979.7270312,-2.8231,2.1364,-0.1525999999999999,0.910459095,-0.40124409,-0.17346147
1764763979.7270312,-2.8231,2.1364,-0.1525999999999999,0.910459095,-0.40124409,-0.17346147
1764763979.7270312,-2.8231,2.1364,-0.1525999999999999,0.910459095,-0.40124409,-0.17346147
1764763979.7270312,-2.8231,2.1364,-0.1525999999999999,0.910459095,-0.40124409,-0.17346147
1764763979.773007,-3.5861,1.4497,0.09156,0.911069445,-0.40014546,-0.174254925
1764763979.773007,-3.5861,1.4497,0.09156,0.911069445,-0.40014546,-0.174254925
1764763979.773007,-3.5861,1.4497,0.09156,0.911069445,-0.40014546,-0.174254925
1764763979.773007,-3.5861,1.4497,0.09156,0.911069445,-0.40014546,-0.174254925
1764763979.773007,-3.5861,1.4497,0.09156,0.911069445,-0.40014546,-0.174254925
1764763979.773007,-3.5861,1.4497,0.09156,0.911069445,-0.40014546,-0.174254925
1764763979.773007,-3.5861,1.4497,0.09156,0.911069445,-0.40014546,-0.174254925
1764763979.773007,-3.5861,1.4497,0.09156,0.911069445,-0.40014546,-0.174254925
1764763979.773007,-3.5861,1.4497,0.09156,0.911069445,-0.40014546,-0.174254925
1764763979.773007,-3.5861,1.4497,0.09156,0.911069445,-0.40014546,-0.174254925
1764763979.773007,-3.32668,1.11398,0.44254,0.91259532,-0.39965718,-0.175109415
1764763979.773007,-3.32668,1.11398,0.44254,0.91259532,-0.39965718,-0.175109415
1764763979.773007,-3.32668,1.11398,0.44254,0.91259532,-0.39965718,-0.175109415
1764763979.773007,-3.32668,1.11398,0.44254,0.91259532,-0.39965718,-0.175109415
1764763979.773007,-3.32668,1.11398,0.44254,0.91259532,-0.39965718,-0.175109415
1764763979.773007,-3.32668,1.11398,0.44254,0.91259532,-0.39965718,-0.175109415
1764763979.773007,-3.32668,1.11398,0.44254,0.91259532,-0.39965718,-0.175109415
1764763979.774012,-3.32668,1.11398,0.44254,0.91259532,-0.39965718,-0.175109415
1764763979.774012,-3.32668,1.11398,0.44254,0.91259532,-0.39965718,-0.175109415
1764763979.774012,-3.32668,1.11398,0.44254,0.91259532,-0.39965718,-0.175109415
1764763979.774012,-2.63998,2.57894,0.6714399999999999,0.916196385,-0.40136616,-0.173888715
1764763979.774012,-2.63998,2.57894,0.6714399999999999,0.916196385,-0.40136616,-0.173888715
1764763979.774012,-2.63998,2.57894,0.6714399999999999,0.916196385,-0.40136616,-0.173888715
1764763979.774012,-2.63998,2.57894,0.6714399999999999,0.916196385,-0.40136616,-0.173888715
1764763979.774012,-2.63998,2.57894,0.6714399999999999,0.916196385,-0.40136616,-0.173888715
1764763979.774012,-2.63998,2.57894,0.6714399999999999,0.916196385,-0.40136616,-0.173888715
1764763979.8169482,-2.63998,2.57894,0.6714399999999999,0.916196385,-0.40136616,-0.173888715
1764763979.8169482,-2.63998,2.57894,0.6714399999999999,0.916196385,-0.40136616,-0.173888715
1764763979.8169482,-2.63998,2.57894,0.6714399999999999,0.916196385,-0.40136616,-0.173888715
1764763979.8169482,-2.63998,2.57894,0.6714399999999999,0.916196385,-0.40136616,-0.173888715
1764763979.8169482,-1.55652,3.7387,0.5341,0.916806735,-0.401549265,-0.172179735
1764763979.8169482,-1.55652,3.7387,0.5341,0.916806735,-0.401549265,-0.172179735
1764763979.8169482,-1.55652,3.7387,0.5341,0.916806735,-0.401549265,-0.172179735
1764763979.8169482,-1.55652,3.7387,0.5341,0.916806735,-0.401549265,-0.172179735
1764763979.8210175,-1.55652,3.7387,0.5341,0.916806735,-0.401549265,-0.172179735
1764763979.8210175,-1.55652,3.7387,0.5341,0.916806735,-0.401549265,-0.172179735
1764763979.8210175,-1.55652,3.7387,0.5341,0.916806735,-0.401549265,-0.172179735
1764763979.8210175,-1.55652,3.7387,0.5341,0.916806735,-0.401549265,-0.172179735
1764763979.8210175,-1.55652,3.7387,0.5341,0.916806735,-0.401549265,-0.172179735
1764763979.8210175,-1.55652,3.7387,0.5341,0.916806735,-0.401549265,-0.172179735
1764763979.8210175,-1.84646,3.98286,0.42728,0.914487405,-0.39941304,-0.17138628
1764763979.8210175,-1.84646,3.98286,0.42728,0.914487405,-0.39941304,-0.17138628
1764763979.8210175,-1.84646,3.98286,0.42728,0.914487405,-0.39941304,-0.17138628
1764763979.8210175,-1.84646,3.98286,0.42728,0.914487405,-0.39941304,-0.17138628
1764763979.8210175,-1.84646,3.98286,0.42728,0.914487405,-0.39941304,-0.17138628
1764763979.8210175,-1.84646,3.98286,0.42728,0.914487405,-0.39941304,-0.17138628
1764763979.8210175,-1.84646,3.98286,0.42728,0.914487405,-0.39941304,-0.17138628
1764763979.8210175,-1.84646,3.98286,0.42728,0.914487405,-0.39941304,-0.17138628
1764763979.8210175,-1.84646,3.98286,0.42728,0.914487405,-0.39941304,-0.17138628
1764763979.8210175,-1.84646,3.98286,0.42728,0.914487405,-0.39941304,-0.17138628
1764763979.8623548,-1.89224,3.60136,-0.03052,0.910947375,-0.39868062,-0.17114214
1764763979.8623548,-1.89224,3.60136,-0.03052,0.910947375,-0.39868062,-0.17114214
1764763979.8623548,-1.89224,3.60136,-0.03052,0.910947375,-0.39868062,-0.17114214
1764763979.8623548,-1.89224,3.60136,-0.03052,0.910947375,-0.39868062,-0.17114214
1764763979.8623548,-1.89224,3.60136,-0.03052,0.910947375,-0.39868062,-0.17114214
1764763979.8623548,-1.89224,3.60136,-0.03052,0.910947375,-0.39868062,-0.17114214
1764763979.8623548,-1.89224,3.60136,-0.03052,0.910947375,-0.39868062,-0.17114214
1764763979.8623548,-1.89224,3.60136,-0.03052,0.910947375,-0.39868062,-0.17114214
1764763979.8623548,-1.89224,3.60136,-0.03052,0.910947375,-0.39868062,-0.17114214
1764763979.8623548,-1.89224,3.60136,-0.03052,0.910947375,-0.39868062,-0.17114214
1764763979.8623548,-2.19744,2.77732,-0.25942,0.909360465,-0.398131305,-0.170104545
1764763979.8623548,-2.19744,2.77732,-0.25942,0.909360465,-0.398131305,-0.170104545
1764763979.8623548,-2.19744,2.77732,-0.25942,0.909360465,-0.398131305,-0.170104545
1764763979.8623548,-2.19744,2.77732,-0.25942,0.909360465,-0.398131305,-0.170104545
1764763979.8623548,-2.19744,2.77732,-0.25942,0.909360465,-0.398131305,-0.170104545
1764763979.8623548,-2.19744,2.77732,-0.25942,0.909360465,-0.398131305,-0.170104545
1764763979.8623548,-2.19744,2.77732,-0.25942,0.909360465,-0.398131305,-0.170104545
1764763979.8623548,-2.19744,2.77732,-0.25942,0.909360465,-0.398131305,-0.170104545
1764763979.8638842,-2.19744,2.77732,-0.25942,0.909360465,-0.398131305,-0.170104545
1764763979.8638842,-2.19744,2.77732,-0.25942,0.909360465,-0.398131305,-0.170104545
1764763979.8638842,-2.07536,2.65524,-0.3509799999999999,0.91113048,-0.39965718,-0.168639705
1764763979.8638842,-2.07536,2.65524,-0.3509799999999999,0.91113048,-0.39965718,-0.168639705
1764763979.9130316,-2.07536,2.65524,-0.3509799999999999,0.91113048,-0.39965718,-0.168639705
1764763979.9130316,-2.07536,2.65524,-0.3509799999999999,0.91113048,-0.39965718,-0.168639705
1764763979.9130316,-2.07536,2.65524,-0.3509799999999999,0.91113048,-0.39965718,-0.168639705
1764763979.9130316,-2.07536,2.65524,-0.3509799999999999,0.91113048,-0.39965718,-0.168639705
1764763979.9130316,-2.07536,2.65524,-0.3509799999999999,0.91113048,-0.39965718,-0.168639705
1764763979.9130316,-2.07536,2.65524,-0.3509799999999999,0.91113048,-0.39965718,-0.168639705
1764763979.9130316,-2.07536,2.65524,-0.3509799999999999,0.91113048,-0.39965718,-0.168639705
1764763979.9130316,-2.07536,2.65524,-0.3509799999999999,0.91113048,-0.39965718,-0.168639705
1764763979.9130316,-2.5179,2.38056,-0.18312,0.91247325,-0.399474075,-0.16833453
1764763979.9130316,-2.5179,2.38056,-0.18312,0.91247325,-0.399474075,-0.16833453
1764763979.9130316,-2.5179,2.38056,-0.18312,0.91247325,-0.399474075,-0.16833453
1764763979.9130316,-2.5179,2.38056,-0.18312,0.91247325,-0.399474075,-0.16833453
1764763979.9130316,-2.5179,2.38056,-0.18312,0.91247325,-0.399474075,-0.16833453
1764763979.9130316,-2.5179,2.38056,-0.18312,0.91247325,-0.399474075,-0.16833453
1764763979.9130316,-2.5179,2.38056,-0.18312,0.91247325,-0.399474075,-0.16833453
1764763979.9130316,-2.5179,2.38056,-0.18312,0.91247325,-0.399474075,-0.16833453
1764763979.9130316,-2.5179,2.38056,-0.18312,0.91247325,-0.399474075,-0.16833453
1764763979.9130316,-2.5179,2.38056,-0.18312,0.91247325,-0.399474075,-0.16833453
1764763979.9130316,-3.3572,1.89224,0.10682,0.91320567,-0.398131305,-0.168517635
1764763979.9130316,-3.3572,1.89224,0.10682,0.91320567,-0.398131305,-0.168517635
1764763979.9130316,-3.3572,1.89224,0.10682,0.91320567,-0.398131305,-0.168517635
1764763979.9130316,-3.3572,1.89224,0.10682,0.91320567,-0.398131305,-0.168517635
1764763979.9130316,-3.3572,1.89224,0.10682,0.91320567,-0.398131305,-0.168517635
1764763979.9130316,-3.3572,1.89224,0.10682,0.91320567,-0.398131305,-0.168517635
1764763979.9578218,-3.3572,1.89224,0.10682,0.91320567,-0.398131305,-0.168517635
1764763979.9578218,-3.3572,1.89224,0.10682,0.91320567,-0.398131305,-0.168517635
1764763979.9578218,-3.3572,1.89224,0.10682,0.91320567,-0.398131305,-0.168517635
1764763979.9578218,-3.3572,1.89224,0.10682,0.91320567,-0.398131305,-0.168517635
1764763979.9578218,-3.46402,2.15166,1.38866,0.911679795,-0.398619585,-0.167785215
1764763979.9578218,-3.46402,2.15166,1.38866,0.911679795,-0.398619585,-0.167785215
1764763979.9578218,-3.46402,2.15166,1.38866,0.911679795,-0.398619585,-0.167785215
1764763979.9578218,-3.46402,2.15166,1.38866,0.911679795,-0.398619585,-0.167785215
1764763979.9578218,-3.46402,2.15166,1.38866,0.911679795,-0.398619585,-0.167785215
1764763979.9578218,-3.46402,2.15166,1.38866,0.911679795,-0.398619585,-0.167785215
1764763979.9578218,-3.46402,2.15166,1.38866,0.911679795,-0.398619585,-0.167785215
1764763979.9578218,-3.46402,2.15166,1.38866,0.911679795,-0.398619585,-0.167785215
1764763979.9578218,-3.46402,2.15166,1.38866,0.911679795,-0.398619585,-0.167785215
1764763979.9578218,-3.46402,2.15166,1.38866,0.911679795,-0.398619585,-0.167785215
1764763979.9578218,-3.64714,0.97664,2.85362,0.90978771,-0.39880269,-0.167785215
1764763979.9578218,-3.64714,0.97664,2.85362,0.90978771,-0.39880269,-0.167785215
1764763979.9578218,-3.64714,0.97664,2.85362,0.90978771,-0.39880269,-0.167785215
1764763979.9578218,-3.64714,0.97664,2.85362,0.90978771,-0.39880269,-0.167785215
1764763979.9578218,-3.64714,0.97664,2.85362,0.90978771,-0.39880269,-0.167785215
1764763979.9578218,-3.64714,0.97664,2.85362,0.90978771,-0.39880269,-0.167785215
1764763979.9588883,-3.64714,0.97664,2.85362,0.90978771,-0.39880269,-0.167785215
1764763979.9588883,-3.64714,0.97664,2.85362,0.90978771,-0.39880269,-0.167785215
1764763979.9588883,-3.64714,0.97664,2.85362,0.90978771,-0.39880269,-0.167785215
1764763979.9588883,-3.64714,0.97664,2.85362,0.90978771,-0.39880269,-0.167785215
1764763980.006,-4.25754,0.36624,2.9757,0.909970815,-0.399107865,-0.16772418
1764763980.006,-4.25754,0.36624,2.9757,0.909970815,-0.399107865,-0.16772418
1764763980.006,-4.25754,0.36624,2.9757,0.909970815,-0.399107865,-0.16772418
1764763980.006,-4.25754,0.36624,2.9757,0.909970815,-0.399107865,-0.16772418
1764763980.006,-4.25754,0.36624,2.9757,0.909970815,-0.399107865,-0.16772418
1764763980.006,-4.25754,0.36624,2.9757,0.909970815,-0.399107865,-0.16772418
1764763980.006,-4.25754,0.36624,2.9757,0.909970815,-0.399107865,-0.16772418
1764763980.006,-4.25754,0.36624,2.9757,0.909970815,-0.399107865,-0.16772418
1764763980.006,-4.25754,0.36624,2.9757,0.909970815,-0.399107865,-0.16772418
1764763980.006,-4.25754,0.36624,2.9757,0.909970815,-0.399107865,-0.16772418
1764763980.006,-4.22702,0.3815,2.30426,0.91235118,-0.40075581,-0.168517635
1764763980.006,-4.22702,0.3815,2.30426,0.91235118,-0.40075581,-0.168517635
1764763980.006,-4.22702,0.3815,2.30426,0.91235118,-0.40075581,-0.168517635
1764763980.006,-4.22702,0.3815,2.30426,0.91235118,-0.40075581,-0.168517635
1764763980.006,-4.22702,0.3815,2.30426,0.91235118,-0.40075581,-0.168517635
1764763980.006,-4.22702,0.3815,2.30426,0.91235118,-0.40075581,-0.168517635
1764763980.006,-4.22702,0.3815,2.30426,0.91235118,-0.40075581,-0.168517635
1764763980.006,-4.22702,0.3815,2.30426,0.91235118,-0.40075581,-0.168517635
1764763980.006,-4.22702,0.3815,2.30426,0.91235118,-0.40075581,-0.168517635
1764763980.006,-4.22702,0.3815,2.30426,0.91235118,-0.40075581,-0.168517635
1764763980.006,-3.7387,0.88508,1.526,0.9118629,-0.40246479,-0.16809039
1764763980.006,-3.7387,0.88508,1.526,0.9118629,-0.40246479,-0.16809039
1764763980.0501094,-3.7387,0.88508,1.526,0.9118629,-0.40246479,-0.16809039
1764763980.0501094,-3.7387,0.88508,1.526,0.9118629,-0.40246479,-0.16809039
1764763980.0501094,-3.7387,0.88508,1.526,0.9118629,-0.40246479,-0.16809039
1764763980.0501094,-3.7387,0.88508,1.526,0.9118629,-0.40246479,-0.16809039
1764763980.0501094,-3.7387,0.88508,1.526,0.9118629,-0.40246479,-0.16809039
1764763980.0501094,-3.7387,0.88508,1.526,0.9118629,-0.40246479,-0.16809039
1764763980.0501094,-3.7387,0.88508,1.526,0.9118629,-0.40246479,-0.16809039
1764763980.0501094,-3.7387,0.88508,1.526,0.9118629,-0.40246479,-0.16809039
1764763980.0501094,-3.5861,0.97664,1.31236,0.91149669,-0.40234272,-0.169005915
1764763980.0506306,-3.5861,0.97664,1.31236,0.91149669,-0.40234272,-0.169005915
1764763980.0506306,-3.5861,0.97664,1.31236,0.91149669,-0.40234272,-0.169005915
1764763980.0506306,-3.5861,0.97664,1.31236,0.91149669,-0.40234272,-0.169005915
1764763980.0506306,-3.5861,0.97664,1.31236,0.91149669,-0.40234272,-0.169005915
1764763980.0506306,-3.5861,0.97664,1.31236,0.91149669,-0.40234272,-0.169005915
1764763980.0506306,-3.5861,0.97664,1.31236,0.91149669,-0.40234272,-0.169005915
1764763980.0506306,-3.5861,0.97664,1.31236,0.91149669,-0.40234272,-0.169005915
1764763980.0506306,-3.5861,0.97664,1.31236,0.91149669,-0.40234272,-0.169005915
1764763980.0506306,-3.5861,0.97664,1.31236,0.91149669,-0.40234272,-0.169005915
1764763980.0506306,-3.5098,1.11398,0.6867,0.910825305,-0.40185444,-0.170226615
1764763980.0506306,-3.5098,1.11398,0.6867,0.910825305,-0.40185444,-0.170226615
1764763980.0506306,-3.5098,1.11398,0.6867,0.910825305,-0.40185444,-0.170226615
1764763980.0506306,-3.5098,1.11398,0.6867,0.910825305,-0.40185444,-0.170226615
1764763980.0506306,-3.5098,1.11398,0.6867,0.910825305,-0.40185444,-0.170226615
1764763980.0506306,-3.5098,1.11398,0.6867,0.910825305,-0.40185444,-0.170226615
1764763980.0975718,-3.5098,1.11398,0.6867,0.910825305,-0.40185444,-0.170226615
1764763980.0975718,-3.5098,1.11398,0.6867,0.910825305,-0.40185444,-0.170226615
1764763980.0975718,-3.5098,1.11398,0.6867,0.910825305,-0.40185444,-0.170226615
1764763980.0975718,-3.5098,1.11398,0.6867,0.910825305,-0.40185444,-0.170226615
1764763980.0975718,-3.52506,1.46496,0.27468,0.91137462,-0.402647895,-0.17077593
1764763980.0975718,-3.52506,1.46496,0.27468,0.91137462,-0.402647895,-0.17077593
1764763980.0975718,-3.52506,1.46496,0.27468,0.91137462,-0.402647895,-0.17077593
1764763980.0975718,-3.52506,1.46496,0.27468,0.91137462,-0.402647895,-0.17077593
1764763980.0975718,-3.52506,1.46496,0.27468,0.91137462,-0.402647895,-0.17077593
1764763980.0975718,-3.52506,1.46496,0.27468,0.91137462,-0.402647895,-0.17077593
1764763980.0975718,-3.52506,1.46496,0.27468,0.91137462,-0.402647895,-0.17077593
1764763980.0975718,-3.52506,1.46496,0.27468,0.91137462,-0.402647895,-0.17077593
1764763980.0975718,-3.52506,1.46496,0.27468,0.91137462,-0.402647895,-0.17077593
1764763980.0975718,-3.52506,1.46496,0.27468,0.91137462,-0.402647895,-0.17077593
1764763980.0975718,-3.15882,1.99906,0.25942,0.912656355,-0.403014105,-0.17077593
1764763980.098075,-3.15882,1.99906,0.25942,0.912656355,-0.403014105,-0.17077593
1764763980.098075,-3.15882,1.99906,0.25942,0.912656355,-0.403014105,-0.17077593
1764763980.098075,-3.15882,1.99906,0.25942,0.912656355,-0.403014105,-0.17077593
1764763980.098075,-3.15882,1.99906,0.25942,0.912656355,-0.403014105,-0.17077593
1764763980.098075,-3.15882,1.99906,0.25942,0.912656355,-0.403014105,-0.17077593
1764763980.098075,-3.15882,1.99906,0.25942,0.912656355,-0.403014105,-0.17077593
1764763980.098075,-3.15882,1.99906,0.25942,0.912656355,-0.403014105,-0.17077593
1764763980.1455452,-3.15882,1.99906,0.25942,0.912656355,-0.403014105,-0.17077593
1764763980.1455452,-3.15882,1.99906,0.25942,0.912656355,-0.403014105,-0.17077593
1764763980.1455452,-2.71628,2.24322,-0.01526,0.91296153,-0.40222065,-0.170348685
1764763980.1455452,-2.71628,2.24322,-0.01526,0.91296153,-0.40222065,-0.170348685
1764763980.1455452,-2.71628,2.24322,-0.01526,0.91296153,-0.40222065,-0.170348685
1764763980.1455452,-2.71628,2.24322,-0.01526,0.91296153,-0.40222065,-0.170348685
1764763980.1455452,-2.71628,2.24322,-0.01526,0.91296153,-0.40222065,-0.170348685
1764763980.1455452,-2.71628,2.24322,-0.01526,0.91296153,-0.40222065,-0.170348685
1764763980.1469388,-2.71628,2.24322,-0.01526,0.91296153,-0.40222065,-0.170348685
1764763980.1469388,-2.71628,2.24322,-0.01526,0.91296153,-0.40222065,-0.170348685
1764763980.1469388,-2.71628,2.24322,-0.01526,0.91296153,-0.40222065,-0.170348685
1764763980.1469388,-2.71628,2.24322,-0.01526,0.91296153,-0.40222065,-0.170348685
1764763980.1469388,-2.70102,2.92992,0.12208,0.913877055,-0.40234272,-0.169982475
1764763980.1469388,-2.70102,2.92992,0.12208,0.913877055,-0.40234272,-0.169982475
1764763980.1469388,-2.70102,2.92992,0.12208,0.913877055,-0.40234272,-0.169982475
1764763980.1469388,-2.70102,2.92992,0.12208,0.913877055,-0.40234272,-0.169982475
1764763980.1469388,-2.70102,2.92992,0.12208,0.913877055,-0.40234272,-0.169982475
1764763980.1469388,-2.70102,2.92992,0.12208,0.913877055,-0.40234272,-0.169982475
1764763980.1480596,-2.70102,2.92992,0.12208,0.913877055,-0.40234272,-0.169982475
1764763980.1480596,-2.70102,2.92992,0.12208,0.913877055,-0.40234272,-0.169982475
1764763980.1480596,-2.70102,2.92992,0.12208,0.913877055,-0.40234272,-0.169982475
1764763980.1480596,-2.70102,2.92992,0.12208,0.913877055,-0.40234272,-0.169982475
1764763980.1480596,-2.63998,3.26564,0.0,0.91320567,-0.40209858,-0.169860405
1764763980.1480596,-2.63998,3.26564,0.0,0.91320567,-0.40209858,-0.169860405
1764763980.1919603,-2.63998,3.26564,0.0,0.91320567,-0.40209858,-0.169860405
1764763980.1919603,-2.63998,3.26564,0.0,0.91320567,-0.40209858,-0.169860405
1764763980.1919603,-2.63998,3.26564,0.0,0.91320567,-0.40209858,-0.169860405
1764763980.1919603,-2.63998,3.26564,0.0,0.91320567,-0.40209858,-0.169860405
1764763980.1919603,-2.63998,3.26564,0.0,0.91320567,-0.40209858,-0.169860405
1764763980.1919603,-2.63998,3.26564,0.0,0.91320567,-0.40209858,-0.169860405
1764763980.1919603,-2.63998,3.26564,0.0,0.91320567,-0.40209858,-0.169860405
1764763980.1919603,-2.63998,3.26564,0.0,0.91320567,-0.40209858,-0.169860405
1764763980.1919603,-2.56368,2.5179,0.4578,0.910825305,-0.40185444,-0.16943316
1764763980.1919603,-2.56368,2.5179,0.4578,0.910825305,-0.40185444,-0.16943316
1764763980.1919603,-2.56368,2.5179,0.4578,0.910825305,-0.40185444,-0.16943316
1764763980.1919603,-2.56368,2.5179,0.4578,0.910825305,-0.40185444,-0.16943316
1764763980.1919603,-2.56368,2.5179,0.4578,0.910825305,-0.40185444,-0.16943316
1764763980.1919603,-2.56368,2.5179,0.4578,0.910825305,-0.40185444,-0.16943316
1764763980.1919603,-2.56368,2.5179,0.4578,0.910825305,-0.40185444,-0.16943316
1764763980.1919603,-2.56368,2.5179,0.4578,0.910825305,-0.40185444,-0.16943316
1764763980.1919603,-2.56368,2.5179,0.4578,0.910825305,-0.40185444,-0.16943316
1764763980.1919603,-2.56368,2.5179,0.4578,0.910825305,-0.40185444,-0.16943316
1764763980.1919603,-2.53316,2.24322,0.59514,0.91015392,-0.401427195,-0.169372125
1764763980.1919603,-2.53316,2.24322,0.59514,0.91015392,-0.401427195,-0.169372125
1764763980.1919603,-2.53316,2.24322,0.59514,0.91015392,-0.401427195,-0.169372125
1764763980.1919603,-2.53316,2.24322,0.59514,0.91015392,-0.401427195,-0.169372125
1764763980.1919603,-2.53316,2.24322,0.59514,0.91015392,-0.401427195,-0.169372125
1764763980.1919603,-2.53316,2.24322,0.59514,0.91015392,-0.401427195,-0.169372125
1764763980.2388902,-2.53316,2.24322,0.59514,0.91015392,-0.401427195,-0.169372125
1764763980.2388902,-2.53316,2.24322,0.59514,0.91015392,-0.401427195,-0.169372125
1764763980.2388902,-2.53316,2.24322,0.59514,0.91015392,-0.401427195,-0.169372125
1764763980.2388902,-2.53316,2.24322,0.59514,0.91015392,-0.401427195,-0.169372125
1764763980.2388902,-2.8231,2.45686,0.28994,0.91125255,-0.4003896,-0.16894488
1764763980.2388902,-2.8231,2.45686,0.28994,0.91125255,-0.4003896,-0.16894488
1764763980.2388902,-2.8231,2.45686,0.28994,0.91125255,-0.4003896,-0.16894488
1764763980.2388902,-2.8231,2.45686,0.28994,0.91125255,-0.4003896,-0.16894488
1764763980.2388902,-2.8231,2.45686,0.28994,0.91125255,-0.4003896,-0.16894488
1764763980.2388902,-2.8231,2.45686,0.28994,0.91125255,-0.4003896,-0.16894488
1764763980.2388902,-2.8231,2.45686,0.28994,0.91125255,-0.4003896,-0.16894488
1764763980.2388902,-2.8231,2.45686,0.28994,0.91125255,-0.4003896,-0.16894488
1764763980.2388902,-2.8231,2.45686,0.28994,0.91125255,-0.4003896,-0.16894488
1764763980.2388902,-2.8231,2.45686,0.28994,0.91125255,-0.4003896,-0.16894488
1764763980.2388902,-2.27374,2.62472,0.763,0.91161876,-0.400938915,-0.16760211
1764763980.2388902,-2.27374,2.62472,0.763,0.91161876,-0.400938915,-0.16760211
1764763980.2388902,-2.27374,2.62472,0.763,0.91161876,-0.400938915,-0.16760211
1764763980.2388902,-2.27374,2.62472,0.763,0.91161876,-0.400938915,-0.16760211
1764763980.2388902,-2.27374,2.62472,0.763,0.91161876,-0.400938915,-0.16760211
1764763980.2388902,-2.27374,2.62472,0.763,0.91161876,-0.400938915,-0.16760211
1764763980.2388902,-2.27374,2.62472,0.763,0.91161876,-0.400938915,-0.16760211
1764763980.2388902,-2.27374,2.62472,0.763,0.91161876,-0.400938915,-0.16760211
1764763980.2388902,-2.27374,2.62472,0.763,0.91161876,-0.400938915,-0.16760211
1764763980.2388902,-2.27374,2.62472,0.763,0.91161876,-0.400938915,-0.16760211
1764763980.28494,-2.15166,2.16692,0.6103999999999999,0.908994255,-0.402037545,-0.16674762
1764763980.28494,-2.15166,2.16692,0.6103999999999999,0.908994255,-0.402037545,-0.16674762
1764763980.28494,-2.15166,2.16692,0.6103999999999999,0.908994255,-0.402037545,-0.16674762
1764763980.28494,-2.15166,2.16692,0.6103999999999999,0.908994255,-0.402037545,-0.16674762
1764763980.28494,-2.15166,2.16692,0.6103999999999999,0.908994255,-0.402037545,-0.16674762
1764763980.28494,-2.15166,2.16692,0.6103999999999999,0.908994255,-0.402037545,-0.16674762
1764763980.28494,-2.15166,2.16692,0.6103999999999999,0.908994255,-0.402037545,-0.16674762
1764763980.28494,-2.15166,2.16692,0.6103999999999999,0.908994255,-0.402037545,-0.16674762
1764763980.28494,-2.15166,2.16692,0.6103999999999999,0.908994255,-0.402037545,-0.16674762
1764763980.28494,-2.15166,2.16692,0.6103999999999999,0.908994255,-0.402037545,-0.16674762
1764763980.28494,-2.33478,1.4497,0.82404,0.909238395,-0.402037545,-0.16772418
1764763980.28494,-2.33478,1.4497,0.82404,0.909238395,-0.402037545,-0.16772418
1764763980.28494,-2.33478,1.4497,0.82404,0.909238395,-0.402037545,-0.16772418
1764763980.28494,-2.33478,1.4497,0.82404,0.909238395,-0.402037545,-0.16772418
1764763980.28494,-2.33478,1.4497,0.82404,0.909238395,-0.402037545,-0.16772418
1764763980.28494,-2.33478,1.4497,0.82404,0.909238395,-0.402037545,-0.16772418
1764763980.28494,-2.33478,1.4497,0.82404,0.909238395,-0.402037545,-0.16772418
1764763980.2859454,-2.33478,1.4497,0.82404,0.909238395,-0.402037545,-0.16772418
1764763980.2859454,-2.33478,1.4497,0.82404,0.909238395,-0.402037545,-0.16772418
1764763980.2859454,-2.33478,1.4497,0.82404,0.909238395,-0.402037545,-0.16772418
1764763980.2859454,-2.7468,0.8087799999999999,0.48832,0.910581165,-0.40148823,-0.16772418
1764763980.2859454,-2.7468,0.8087799999999999,0.48832,0.910581165,-0.40148823,-0.16772418
1764763980.3313274,-2.7468,0.8087799999999999,0.48832,0.910581165,-0.40148823,-0.16772418
1764763980.3313274,-2.7468,0.8087799999999999,0.48832,0.910581165,-0.40148823,-0.16772418
1764763980.3313274,-2.7468,0.8087799999999999,0.48832,0.910581165,-0.40148823,-0.16772418
1764763980.3313274,-2.7468,0.8087799999999999,0.48832,0.910581165,-0.40148823,-0.16772418
1764763980.3313274,-2.7468,0.8087799999999999,0.48832,0.910581165,-0.40148823,-0.16772418
1764763980.3313274,-2.7468,0.8087799999999999,0.48832,0.910581165,-0.40148823,-0.16772418
1764763980.3313274,-2.7468,0.8087799999999999,0.48832,0.910581165,-0.40148823,-0.16772418
1764763980.3313274,-2.7468,0.8087799999999999,0.48832,0.910581165,-0.40148823,-0.16772418
1764763980.3313274,-2.56368,1.57178,-0.47306,0.914121195,-0.401183055,-0.16735797
1764763980.3313274,-2.56368,1.57178,-0.47306,0.914121195,-0.401183055,-0.16735797
1764763980.3313274,-2.56368,1.57178,-0.47306,0.914121195,-0.401183055,-0.16735797
1764763980.3324337,-2.56368,1.57178,-0.47306,0.914121195,-0.401183055,-0.16735797
1764763980.3324337,-2.56368,1.57178,-0.47306,0.914121195,-0.401183055,-0.16735797
1764763980.3324337,-2.56368,1.57178,-0.47306,0.914121195,-0.401183055,-0.16735797
1764763980.3324337,-2.56368,1.57178,-0.47306,0.914121195,-0.401183055,-0.16735797
1764763980.3324337,-2.56368,1.57178,-0.47306,0.914121195,-0.401183055,-0.16735797
1764763980.3324337,-2.56368,1.57178,-0.47306,0.914121195,-0.401183055,-0.16735797
1764763980.3324337,-2.56368,1.57178,-0.47306,0.914121195,-0.401183055,-0.16735797
1764763980.3324337,-2.45686,2.68576,-0.59514,0.91698984,-0.400694775,-0.16577106
1764763980.3324337,-2.45686,2.68576,-0.59514,0.91698984,-0.400694775,-0.16577106
1764763980.3324337,-2.45686,2.68576,-0.59514,0.91698984,-0.400694775,-0.16577106
1764763980.3324337,-2.45686,2.68576,-0.59514,0.91698984,-0.400694775,-0.16577106
1764763980.3324337,-2.45686,2.68576,-0.59514,0.91698984,-0.400694775,-0.16577106
1764763980.3324337,-2.45686,2.68576,-0.59514,0.91698984,-0.400694775,-0.16577106
1764763980.3799267,-2.45686,2.68576,-0.59514,0.91698984,-0.400694775,-0.16577106
1764763980.3799267,-2.45686,2.68576,-0.59514,0.91698984,-0.400694775,-0.16577106
1764763980.3799267,-2.45686,2.68576,-0.59514,0.91698984,-0.400694775,-0.16577106
1764763980.3799267,-2.45686,2.68576,-0.59514,0.91698984,-0.400694775,-0.16577106
1764763980.3799267,-1.8312,3.78448,-0.8698199999999999,0.91723398,-0.39941304,-0.165221745
1764763980.3799267,-1.8312,3.78448,-0.8698199999999999,0.91723398,-0.39941304,-0.165221745
1764763980.3799267,-1.8312,3.78448,-0.8698199999999999,0.91723398,-0.39941304,-0.165221745
1764763980.3799267,-1.8312,3.78448,-0.8698199999999999,0.91723398,-0.39941304,-0.165221745
1764763980.3799267,-1.8312,3.78448,-0.8698199999999999,0.91723398,-0.39941304,-0.165221745
1764763980.3799267,-1.8312,3.78448,-0.8698199999999999,0.91723398,-0.39941304,-0.165221745
1764763980.3799267,-1.8312,3.78448,-0.8698199999999999,0.91723398,-0.39941304,-0.165221745
1764763980.3799267,-1.8312,3.78448,-0.8698199999999999,0.91723398,-0.39941304,-0.165221745
1764763980.3799267,-1.8312,3.78448,-0.8698199999999999,0.91723398,-0.39941304,-0.165221745
1764763980.3799267,-1.8312,3.78448,-0.8698199999999999,0.91723398,-0.39941304,-0.165221745
1764763980.3799267,-1.63282,3.2046,-0.8698199999999999,0.91393809,-0.398985795,-0.164855535
1764763980.3799267,-1.63282,3.2046,-0.8698199999999999,0.91393809,-0.398985795,-0.164855535
1764763980.3799267,-1.63282,3.2046,-0.8698199999999999,0.91393809,-0.398985795,-0.164855535
1764763980.3799267,-1.63282,3.2046,-0.8698199999999999,0.91393809,-0.398985795,-0.164855535
1764763980.3799267,-1.63282,3.2046,-0.8698199999999999,0.91393809,-0.398985795,-0.164855535
1764763980.3799267,-1.63282,3.2046,-0.8698199999999999,0.91393809,-0.398985795,-0.164855535
1764763980.3799267,-1.63282,3.2046,-0.8698199999999999,0.91393809,-0.398985795,-0.164855535
1764763980.3799267,-1.63282,3.2046,-0.8698199999999999,0.91393809,-0.398985795,-0.164855535
1764763980.3799267,-1.63282,3.2046,-0.8698199999999999,0.91393809,-0.398985795,-0.164855535
1764763980.3799267,-1.63282,3.2046,-0.8698199999999999,0.91393809,-0.398985795,-0.164855535
1764763980.4249,-1.23606,2.4416,-0.9919,0.912656355,-0.398985795,-0.16345173
1764763980.4249,-1.23606,2.4416,-0.9919,0.912656355,-0.398985795,-0.16345173
1764763980.4249,-1.23606,2.4416,-0.9919,0.912656355,-0.398985795,-0.16345173
1764763980.4249,-1.23606,2.4416,-0.9919,0.912656355,-0.398985795,-0.16345173
1764763980.4249,-1.23606,2.4416,-0.9919,0.912656355,-0.398985795,-0.16345173
1764763980.4249,-1.23606,2.4416,-0.9919,0.912656355,-0.398985795,-0.16345173
1764763980.4249,-1.23606,2.4416,-0.9919,0.912656355,-0.398985795,-0.16345173
1764763980.4249,-1.23606,2.4416,-0.9919,0.912656355,-0.398985795,-0.16345173
1764763980.4254222,-1.23606,2.4416,-0.9919,0.912656355,-0.398985795,-0.16345173
1764763980.4254222,-1.23606,2.4416,-0.9919,0.912656355,-0.398985795,-0.16345173
1764763980.4254222,-0.3051999999999999,1.8006799999999998,-0.9919,0.912412215,-0.398985795,-0.1623531
1764763980.4254222,-0.3051999999999999,1.8006799999999998,-0.9919,0.912412215,-0.398985795,-0.1623531
1764763980.4254222,-0.3051999999999999,1.8006799999999998,-0.9919,0.912412215,-0.398985795,-0.1623531
1764763980.4254222,-0.3051999999999999,1.8006799999999998,-0.9919,0.912412215,-0.398985795,-0.1623531
1764763980.4254222,-0.3051999999999999,1.8006799999999998,-0.9919,0.912412215,-0.398985795,-0.1623531
1764763980.4254222,-0.3051999999999999,1.8006799999999998,-0.9919,0.912412215,-0.398985795,-0.1623531
1764763980.4254222,-0.3051999999999999,1.8006799999999998,-0.9919,0.912412215,-0.398985795,-0.1623531
1764763980.4254222,-0.3051999999999999,1.8006799999999998,-0.9919,0.912412215,-0.398985795,-0.1623531
1764763980.4254222,-0.3051999999999999,1.8006799999999998,-0.9919,0.912412215,-0.398985795,-0.1623531
1764763980.4254222,-0.3051999999999999,1.8006799999999998,-0.9919,0.912412215,-0.398985795,-0.1623531
1764763980.4254222,-0.28994,1.49548,-0.28994,0.912900495,-0.39929097,-0.16210896
1764763980.4254222,-0.28994,1.49548,-0.28994,0.912900495,-0.39929097,-0.16210896
1764763980.4720545,-0.28994,1.49548,-0.28994,0.912900495,-0.39929097,-0.16210896
1764763980.4720545,-0.28994,1.49548,-0.28994,0.912900495,-0.39929097,-0.16210896
1764763980.4720545,-0.28994,1.49548,-0.28994,0.912900495,-0.39929097,-0.16210896
1764763980.4720545,-0.28994,1.49548,-0.28994,0.912900495,-0.39929097,-0.16210896
1764763980.4720545,-0.28994,1.49548,-0.28994,0.912900495,-0.39929097,-0.16210896
1764763980.4720545,-0.28994,1.49548,-0.28994,0.912900495,-0.39929097,-0.16210896
1764763980.4720545,-0.28994,1.49548,-0.28994,0.912900495,-0.39929097,-0.16210896
1764763980.4720545,-0.28994,1.49548,-0.28994,0.912900495,-0.39929097,-0.16210896
1764763980.4720545,-0.62566,1.38866,0.01526,0.91491465,-0.39855855,-0.16162068
1764763980.4720545,-0.62566,1.38866,0.01526,0.91491465,-0.39855855,-0.16162068
1764763980.4720545,-0.62566,1.38866,0.01526,0.91491465,-0.39855855,-0.16162068
1764763980.4720545,-0.62566,1.38866,0.01526,0.91491465,-0.39855855,-0.16162068
1764763980.4720545,-0.62566,1.38866,0.01526,0.91491465,-0.39855855,-0.16162068
1764763980.4720545,-0.62566,1.38866,0.01526,0.91491465,-0.39855855,-0.16162068
1764763980.4720545,-0.62566,1.38866,0.01526,0.91491465,-0.39855855,-0.16162068
1764763980.4720545,-0.62566,1.38866,0.01526,0.91491465,-0.39855855,-0.16162068
1764763980.4720545,-0.62566,1.38866,0.01526,0.91491465,-0.39855855,-0.16162068
1764763980.4720545,-0.62566,1.38866,0.01526,0.91491465,-0.39855855,-0.16162068
1764763980.4720545,-1.526,1.38866,0.41202,0.913999125,-0.39660543,-0.16137654
1764763980.4720545,-1.526,1.38866,0.41202,0.913999125,-0.39660543,-0.16137654
1764763980.4720545,-1.526,1.38866,0.41202,0.913999125,-0.39660543,-0.16137654
1764763980.4720545,-1.526,1.38866,0.41202,0.913999125,-0.39660543,-0.16137654
1764763980.4720545,-1.526,1.38866,0.41202,0.913999125,-0.39660543,-0.16137654
1764763980.4720545,-1.526,1.38866,0.41202,0.913999125,-0.39660543,-0.16137654
1764763980.5186164,-1.526,1.38866,0.41202,0.913999125,-0.39660543,-0.16137654
1764763980.5186164,-1.526,1.38866,0.41202,0.913999125,-0.39660543,-0.16137654
1764763980.5186164,-1.526,1.38866,0.41202,0.913999125,-0.39660543,-0.16137654
1764763980.5186164,-1.526,1.38866,0.41202,0.913999125,-0.39660543,-0.16137654
1764763980.5186164,-2.12114,1.32762,1.28184,0.91381602,-0.39697164,-0.161193435
1764763980.5186164,-2.12114,1.32762,1.28184,0.91381602,-0.39697164,-0.161193435
1764763980.5186164,-2.12114,1.32762,1.28184,0.91381602,-0.39697164,-0.161193435
1764763980.5186164,-2.12114,1.32762,1.28184,0.91381602,-0.39697164,-0.161193435
1764763980.5186164,-2.12114,1.32762,1.28184,0.91381602,-0.39697164,-0.161193435
1764763980.5186164,-2.12114,1.32762,1.28184,0.91381602,-0.39697164,-0.161193435
1764763980.5186164,-2.12114,1.32762,1.28184,0.91381602,-0.39697164,-0.161193435
1764763980.5186164,-2.12114,1.32762,1.28184,0.91381602,-0.39697164,-0.161193435
1764763980.5186164,-2.12114,1.32762,1.28184,0.91381602,-0.39697164,-0.161193435
1764763980.5186164,-2.12114,1.32762,1.28184,0.91381602,-0.39697164,-0.161193435
1764763980.5186164,-3.47928,0.82404,2.22796,0.91222911,-0.395689905,-0.161925855
1764763980.5186164,-3.47928,0.82404,2.22796,0.91222911,-0.395689905,-0.161925855
1764763980.5186164,-3.47928,0.82404,2.22796,0.91222911,-0.395689905,-0.161925855
1764763980.5186164,-3.47928,0.82404,2.22796,0.91222911,-0.395689905,-0.161925855
1764763980.5186164,-3.47928,0.82404,2.22796,0.91222911,-0.395689905,-0.161925855
1764763980.5186164,-3.47928,0.82404,2.22796,0.91222911,-0.395689905,-0.161925855
1764763980.5186164,-3.47928,0.82404,2.22796,0.91222911,-0.395689905,-0.161925855
1764763980.5197155,-3.47928,0.82404,2.22796,0.91222911,-0.395689905,-0.161925855
1764763980.5197155,-3.47928,0.82404,2.22796,0.91222911,-0.395689905,-0.161925855
1764763980.5197155,-3.47928,0.82404,2.22796,0.91222911,-0.395689905,-0.161925855
1764763980.5660305,-4.959499999999999,-0.3051999999999999,2.33478,0.911313585,-0.39538473,-0.162292065
1764763980.5660305,-4.959499999999999,-0.3051999999999999,2.33478,0.911313585,-0.39538473,-0.162292065
1764763980.5660305,-4.959499999999999,-0.3051999999999999,2.33478,0.911313585,-0.39538473,-0.162292065
1764763980.5660305,-4.959499999999999,-0.3051999999999999,2.33478,0.911313585,-0.39538473,-0.162292065
1764763980.5660305,-4.959499999999999,-0.3051999999999999,2.33478,0.911313585,-0.39538473,-0.162292065
1764763980.5660305,-4.959499999999999,-0.3051999999999999,2.33478,0.911313585,-0.39538473,-0.162292065
1764763980.5660305,-4.959499999999999,-0.3051999999999999,2.33478,0.911313585,-0.39538473,-0.162292065
1764763980.5660305,-4.959499999999999,-0.3051999999999999,2.33478,0.911313585,-0.39538473,-0.162292065
1764763980.5660305,-4.959499999999999,-0.3051999999999999,2.33478,0.911313585,-0.39538473,-0.162292065
1764763980.5660305,-4.959499999999999,-0.3051999999999999,2.33478,0.911313585,-0.39538473,-0.162292065
1764763980.5660305,-5.31048,-0.13734,3.1283,0.911069445,-0.39721578,-0.16210896
1764763980.5660305,-5.31048,-0.13734,3.1283,0.911069445,-0.39721578,-0.16210896
1764763980.5660305,-5.31048,-0.13734,3.1283,0.911069445,-0.39721578,-0.16210896
1764763980.5660305,-5.31048,-0.13734,3.1283,0.911069445,-0.39721578,-0.16210896
1764763980.5660305,-5.31048,-0.13734,3.1283,0.911069445,-0.39721578,-0.16210896
1764763980.5660305,-5.31048,-0.13734,3.1283,0.911069445,-0.39721578,-0.16210896
1764763980.5660305,-5.31048,-0.13734,3.1283,0.911069445,-0.39721578,-0.16210896
1764763980.5660305,-5.31048,-0.13734,3.1283,0.911069445,-0.39721578,-0.16210896
1764763980.5660305,-5.31048,-0.13734,3.1283,0.911069445,-0.39721578,-0.16210896
1764763980.5660305,-5.31048,-0.13734,3.1283,0.911069445,-0.39721578,-0.16210896
1764763980.5660305,-4.852679999999999,0.24416,2.68576,0.911923935,-0.39941304,-0.16149861
1764763980.5670805,-4.852679999999999,0.24416,2.68576,0.911923935,-0.39941304,-0.16149861
1764763980.6132114,-4.852679999999999,0.24416,2.68576,0.911923935,-0.39941304,-0.16149861
1764763980.6132114,-4.852679999999999,0.24416,2.68576,0.911923935,-0.39941304,-0.16149861
1764763980.6132114,-4.852679999999999,0.24416,2.68576,0.911923935,-0.39941304,-0.16149861
1764763980.6132114,-4.852679999999999,0.24416,2.68576,0.911923935,-0.39941304,-0.16149861
1764763980.6132114,-4.852679999999999,0.24416,2.68576,0.911923935,-0.39941304,-0.16149861
1764763980.6132114,-4.852679999999999,0.24416,2.68576,0.911923935,-0.39941304,-0.16149861
1764763980.6132114,-4.852679999999999,0.24416,2.68576,0.911923935,-0.39941304,-0.16149861
1764763980.6132114,-4.852679999999999,0.24416,2.68576,0.911923935,-0.39941304,-0.16149861
1764763980.6132114,-5.17314,0.2289,1.89224,0.9118629,-0.39941304,-0.161803785
1764763980.6132114,-5.17314,0.2289,1.89224,0.9118629,-0.39941304,-0.161803785
1764763980.6132114,-5.17314,0.2289,1.89224,0.9118629,-0.39941304,-0.161803785
1764763980.6132114,-5.17314,0.2289,1.89224,0.9118629,-0.39941304,-0.161803785
1764763980.6142857,-5.17314,0.2289,1.89224,0.9118629,-0.39941304,-0.161803785
1764763980.6142857,-5.17314,0.2289,1.89224,0.9118629,-0.39941304,-0.161803785
1764763980.6142857,-5.17314,0.2289,1.89224,0.9118629,-0.39941304,-0.161803785
1764763980.6142857,-5.17314,0.2289,1.89224,0.9118629,-0.39941304,-0.161803785
1764763980.6142857,-5.17314,0.2289,1.89224,0.9118629,-0.39941304,-0.161803785
1764763980.6142857,-5.17314,0.2289,1.89224,0.9118629,-0.39941304,-0.161803785
1764763980.6142857,-5.29522,-0.10682,1.02242,0.91088634,-0.399840285,-0.16332966
1764763980.6142857,-5.29522,-0.10682,1.02242,0.91088634,-0.399840285,-0.16332966
1764763980.6142857,-5.29522,-0.10682,1.02242,0.91088634,-0.399840285,-0.16332966
1764763980.6142857,-5.29522,-0.10682,1.02242,0.91088634,-0.399840285,-0.16332966
1764763980.6567907,-5.29522,-0.10682,1.02242,0.91088634,-0.399840285,-0.16332966
1764763980.6567907,-5.29522,-0.10682,1.02242,0.91088634,-0.399840285,-0.16332966
1764763980.6567907,-5.29522,-0.10682,1.02242,0.91088634,-0.399840285,-0.16332966
1764763980.6567907,-5.29522,-0.10682,1.02242,0.91088634,-0.399840285,-0.16332966
1764763980.6567907,-5.29522,-0.10682,1.02242,0.91088634,-0.399840285,-0.16332966
1764763980.6567907,-5.29522,-0.10682,1.02242,0.91088634,-0.399840285,-0.16332966
1764763980.6567907,-5.52412,-0.04578,0.82404,0.91100841,-0.401915475,-0.16467243
1764763980.6567907,-5.52412,-0.04578,0.82404,0.91100841,-0.401915475,-0.16467243
1764763980.6567907,-5.52412,-0.04578,0.82404,0.91100841,-0.401915475,-0.16467243
1764763980.6567907,-5.52412,-0.04578,0.82404,0.91100841,-0.401915475,-0.16467243
1764763980.6567907,-5.52412,-0.04578,0.82404,0.91100841,-0.401915475,-0.16467243
1764763980.6567907,-5.52412,-0.04578,0.82404,0.91100841,-0.401915475,-0.16467243
1764763980.6567907,-5.52412,-0.04578,0.82404,0.91100841,-0.401915475,-0.16467243
1764763980.6567907,-5.52412,-0.04578,0.82404,0.91100841,-0.401915475,-0.16467243
1764763980.6567907,-5.52412,-0.04578,0.82404,0.91100841,-0.401915475,-0.16467243
1764763980.6567907,-5.52412,-0.04578,0.82404,0.91100841,-0.401915475,-0.16467243
1764763980.6567907,-4.6543,0.6409199999999999,0.3204599999999999,0.91161876,-0.40307514,-0.164367255
1764763980.6567907,-4.6543,0.6409199999999999,0.3204599999999999,0.91161876,-0.40307514,-0.164367255
1764763980.6567907,-4.6543,0.6409199999999999,0.3204599999999999,0.91161876,-0.40307514,-0.164367255
1764763980.6567907,-4.6543,0.6409199999999999,0.3204599999999999,0.91161876,-0.40307514,-0.164367255
1764763980.6567907,-4.6543,0.6409199999999999,0.3204599999999999,0.91161876,-0.40307514,-0.164367255
1764763980.6567907,-4.6543,0.6409199999999999,0.3204599999999999,0.91161876,-0.40307514,-0.164367255
1764763980.6567907,-4.6543,0.6409199999999999,0.3204599999999999,0.91161876,-0.40307514,-0.164367255
1764763980.6567907,-4.6543,0.6409199999999999,0.3204599999999999,0.91161876,-0.40307514,-0.164367255
1764763980.7037036,-4.6543,0.6409199999999999,0.3204599999999999,0.91161876,-0.40307514,-0.164367255
1764763980.7037036,-4.6543,0.6409199999999999,0.3204599999999999,0.91161876,-0.40307514,-0.164367255
1764763980.7037036,-4.41014,0.48832,0.09156,0.911557725,-0.402159615,-0.165099675
1764763980.7037036,-4.41014,0.48832,0.09156,0.911557725,-0.402159615,-0.165099675
1764763980.7037036,-4.41014,0.48832,0.09156,0.911557725,-0.402159615,-0.165099675
1764763980.7037036,-4.41014,0.48832,0.09156,0.911557725,-0.402159615,-0.165099675
1764763980.7037036,-4.41014,0.48832,0.09156,0.911557725,-0.402159615,-0.165099675
1764763980.7037036,-4.41014,0.48832,0.09156,0.911557725,-0.402159615,-0.165099675
1764763980.7037036,-4.41014,0.48832,0.09156,0.911557725,-0.402159615,-0.165099675
1764763980.7037036,-4.41014,0.48832,0.09156,0.911557725,-0.402159615,-0.165099675
1764763980.7037036,-4.41014,0.48832,0.09156,0.911557725,-0.402159615,-0.165099675
1764763980.7037036,-4.41014,0.48832,0.09156,0.911557725,-0.402159615,-0.165099675
1764763980.7037036,-4.24228,0.39676,-0.24416,0.91198497,-0.40124409,-0.16540485
1764763980.7037036,-4.24228,0.39676,-0.24416,0.91198497,-0.40124409,-0.16540485
1764763980.7047234,-4.24228,0.39676,-0.24416,0.91198497,-0.40124409,-0.16540485
1764763980.7047234,-4.24228,0.39676,-0.24416,0.91198497,-0.40124409,-0.16540485
1764763980.7047234,-4.24228,0.39676,-0.24416,0.91198497,-0.40124409,-0.16540485
1764763980.7047234,-4.24228,0.39676,-0.24416,0.91198497,-0.40124409,-0.16540485
1764763980.7047234,-4.24228,0.39676,-0.24416,0.91198497,-0.40124409,-0.16540485
1764763980.7047234,-4.24228,0.39676,-0.24416,0.91198497,-0.40124409,-0.16540485
1764763980.7047234,-4.24228,0.39676,-0.24416,0.91198497,-0.40124409,-0.16540485
1764763980.7047234,-4.24228,0.39676,-0.24416,0.91198497,-0.40124409,-0.16540485
1764763980.7047234,-4.41014,0.4578,0.4578,0.911801865,-0.401305125,-0.16589313
1764763980.7047234,-4.41014,0.4578,0.4578,0.911801865,-0.401305125,-0.16589313
1764763980.7562675,-4.41014,0.4578,0.4578,0.911801865,-0.401305125,-0.16589313
1764763980.7562675,-4.41014,0.4578,0.4578,0.911801865,-0.401305125,-0.16589313
1764763980.7562675,-4.41014,0.4578,0.4578,0.911801865,-0.401305125,-0.16589313
1764763980.7562675,-4.41014,0.4578,0.4578,0.911801865,-0.401305125,-0.16589313
1764763980.7562675,-4.41014,0.4578,0.4578,0.911801865,-0.401305125,-0.16589313
1764763980.7562675,-4.41014,0.4578,0.4578,0.911801865,-0.401305125,-0.16589313
1764763980.7562675,-4.41014,0.4578,0.4578,0.911801865,-0.401305125,-0.16589313
1764763980.7562675,-4.41014,0.4578,0.4578,0.911801865,-0.401305125,-0.16589313
1764763980.7562675,-4.4254,0.85456,0.74774,0.91015392,-0.401183055,-0.16589313
1764763980.7562675,-4.4254,0.85456,0.74774,0.91015392,-0.401183055,-0.16589313
1764763980.7562675,-4.4254,0.85456,0.74774,0.91015392,-0.401183055,-0.16589313
1764763980.7562675,-4.4254,0.85456,0.74774,0.91015392,-0.401183055,-0.16589313
1764763980.7562675,-4.4254,0.85456,0.74774,0.91015392,-0.401183055,-0.16589313
1764763980.7562675,-4.4254,0.85456,0.74774,0.91015392,-0.401183055,-0.16589313
1764763980.7562675,-4.4254,0.85456,0.74774,0.91015392,-0.401183055,-0.16589313
1764763980.7562675,-4.4254,0.85456,0.74774,0.91015392,-0.401183055,-0.16589313
1764763980.7562675,-4.4254,0.85456,0.74774,0.91015392,-0.401183055,-0.16589313
1764763980.7562675,-4.4254,0.85456,0.74774,0.91015392,-0.401183055,-0.16589313
1764763980.7562675,-4.5017,-0.1678599999999999,1.34288,0.909482535,-0.39977925,-0.166564515
1764763980.7562675,-4.5017,-0.1678599999999999,1.34288,0.909482535,-0.39977925,-0.166564515
1764763980.7562675,-4.5017,-0.1678599999999999,1.34288,0.909482535,-0.39977925,-0.166564515
1764763980.7562675,-4.5017,-0.1678599999999999,1.34288,0.909482535,-0.39977925,-0.166564515
1764763980.7562675,-4.5017,-0.1678599999999999,1.34288,0.909482535,-0.39977925,-0.166564515
1764763980.7562675,-4.5017,-0.1678599999999999,1.34288,0.909482535,-0.39977925,-0.166564515
1764763980.7998302,-4.5017,-0.1678599999999999,1.34288,0.909482535,-0.39977925,-0.166564515
1764763980.7998302,-4.5017,-0.1678599999999999,1.34288,0.909482535,-0.39977925,-0.166564515
1764763980.7998302,-4.5017,-0.1678599999999999,1.34288,0.909482535,-0.39977925,-0.166564515
1764763980.7998302,-4.5017,-0.1678599999999999,1.34288,0.909482535,-0.39977925,-0.166564515
1764763980.7998302,-4.89846,0.28994,0.82404,0.91283946,-0.40014546,-0.16662555
1764763980.7998302,-4.89846,0.28994,0.82404,0.91283946,-0.40014546,-0.16662555
1764763980.7998302,-4.89846,0.28994,0.82404,0.91283946,-0.40014546,-0.16662555
1764763980.7998302,-4.89846,0.28994,0.82404,0.91283946,-0.40014546,-0.16662555
1764763980.7998302,-4.89846,0.28994,0.82404,0.91283946,-0.40014546,-0.16662555
1764763980.7998302,-4.89846,0.28994,0.82404,0.91283946,-0.40014546,-0.16662555
1764763980.7998302,-4.89846,0.28994,0.82404,0.91283946,-0.40014546,-0.16662555
1764763980.7998302,-4.89846,0.28994,0.82404,0.91283946,-0.40014546,-0.16662555
1764763980.7998302,-4.89846,0.28994,0.82404,0.91283946,-0.40014546,-0.16662555
1764763980.7998302,-4.89846,0.28994,0.82404,0.91283946,-0.40014546,-0.16662555
1764763980.7998302,-4.22702,0.94612,1.02242,0.91442637,-0.401549265,-0.16577106
1764763980.7998302,-4.22702,0.94612,1.02242,0.91442637,-0.401549265,-0.16577106
1764763980.7998302,-4.22702,0.94612,1.02242,0.91442637,-0.401549265,-0.16577106
1764763980.7998302,-4.22702,0.94612,1.02242,0.91442637,-0.401549265,-0.16577106
1764763980.7998302,-4.22702,0.94612,1.02242,0.91442637,-0.401549265,-0.16577106
1764763980.7998302,-4.22702,0.94612,1.02242,0.91442637,-0.401549265,-0.16577106
1764763980.7998302,-4.22702,0.94612,1.02242,0.91442637,-0.401549265,-0.16577106
1764763980.7998302,-4.22702,0.94612,1.02242,0.91442637,-0.401549265,-0.16577106
1764763980.7998302,-4.22702,0.94612,1.02242,0.91442637,-0.401549265,-0.16577106
1764763980.7998302,-4.22702,0.94612,1.02242,0.91442637,-0.401549265,-0.16577106
1764763980.8468368,-3.26564,1.0682,1.2055399999999998,0.91283946,-0.403502385,-0.166320375
1764763980.8468368,-3.26564,1.0682,1.2055399999999998,0.91283946,-0.403502385,-0.166320375
1764763980.8473437,-3.26564,1.0682,1.2055399999999998,0.91283946,-0.403502385,-0.166320375
1764763980.8473437,-3.26564,1.0682,1.2055399999999998,0.91283946,-0.403502385,-0.166320375
1764763980.8473437,-3.26564,1.0682,1.2055399999999998,0.91283946,-0.403502385,-0.166320375
1764763980.8473437,-3.26564,1.0682,1.2055399999999998,0.91283946,-0.403502385,-0.166320375
1764763980.8473437,-3.26564,1.0682,1.2055399999999998,0.91283946,-0.403502385,-0.166320375
1764763980.8473437,-3.26564,1.0682,1.2055399999999998,0.91283946,-0.403502385,-0.166320375
1764763980.8473437,-3.26564,1.0682,1.2055399999999998,0.91283946,-0.403502385,-0.166320375
1764763980.8473437,-3.26564,1.0682,1.2055399999999998,0.91283946,-0.403502385,-0.166320375
1764763980.8473437,-3.55558,0.6409199999999999,1.35814,0.912290145,-0.40319721,-0.167541075
1764763980.8473437,-3.55558,0.6409199999999999,1.35814,0.912290145,-0.40319721,-0.167541075
1764763980.8473437,-3.55558,0.6409199999999999,1.35814,0.912290145,-0.40319721,-0.167541075
1764763980.8473437,-3.55558,0.6409199999999999,1.35814,0.912290145,-0.40319721,-0.167541075
1764763980.8473437,-3.55558,0.6409199999999999,1.35814,0.912290145,-0.40319721,-0.167541075
1764763980.8473437,-3.55558,0.6409199999999999,1.35814,0.912290145,-0.40319721,-0.167541075
1764763980.8473437,-3.55558,0.6409199999999999,1.35814,0.912290145,-0.40319721,-0.167541075
1764763980.8473437,-3.55558,0.6409199999999999,1.35814,0.912290145,-0.40319721,-0.167541075
1764763980.8473437,-3.55558,0.6409199999999999,1.35814,0.912290145,-0.40319721,-0.167541075
1764763980.8473437,-3.55558,0.6409199999999999,1.35814,0.912290145,-0.40319721,-0.167541075
1764763980.8473437,-4.13546,0.3051999999999999,0.74774,0.912656355,-0.40136616,-0.168761775
1764763980.8473437,-4.13546,0.3051999999999999,0.74774,0.912656355,-0.40136616,-0.168761775
1764763980.8909948,-4.13546,0.3051999999999999,0.74774,0.912656355,-0.40136616,-0.168761775
1764763980.8909948,-4.13546,0.3051999999999999,0.74774,0.912656355,-0.40136616,-0.168761775
1764763980.8909948,-4.13546,0.3051999999999999,0.74774,0.912656355,-0.40136616,-0.168761775
1764763980.8909948,-4.13546,0.3051999999999999,0.74774,0.912656355,-0.40136616,-0.168761775
1764763980.8920095,-4.13546,0.3051999999999999,0.74774,0.912656355,-0.40136616,-0.168761775
1764763980.8920095,-4.13546,0.3051999999999999,0.74774,0.912656355,-0.40136616,-0.168761775
1764763980.8920095,-4.13546,0.3051999999999999,0.74774,0.912656355,-0.40136616,-0.168761775
1764763980.8920095,-4.13546,0.3051999999999999,0.74774,0.912656355,-0.40136616,-0.168761775
1764763980.8920095,-3.61662,1.4497,-0.03052,0.91650156,-0.401793405,-0.16796832
1764763980.8920095,-3.61662,1.4497,-0.03052,0.91650156,-0.401793405,-0.16796832
1764763980.8920095,-3.61662,1.4497,-0.03052,0.91650156,-0.401793405,-0.16796832
1764763980.8920095,-3.61662,1.4497,-0.03052,0.91650156,-0.401793405,-0.16796832
1764763980.893007,-3.61662,1.4497,-0.03052,0.91650156,-0.401793405,-0.16796832
1764763980.893007,-3.61662,1.4497,-0.03052,0.91650156,-0.401793405,-0.16796832
1764763980.893007,-3.61662,1.4497,-0.03052,0.91650156,-0.401793405,-0.16796832
1764763980.893007,-3.61662,1.4497,-0.03052,0.91650156,-0.401793405,-0.16796832
1764763980.893007,-3.61662,1.4497,-0.03052,0.91650156,-0.401793405,-0.16796832
1764763980.893007,-3.61662,1.4497,-0.03052,0.91650156,-0.401793405,-0.16796832
1764763980.893007,-3.09778,3.00622,-1.08346,0.918881925,-0.402159615,-0.167174865
1764763980.893007,-3.09778,3.00622,-1.08346,0.918881925,-0.402159615,-0.167174865
1764763980.893007,-3.09778,3.00622,-1.08346,0.918881925,-0.402159615,-0.167174865
1764763980.894012,-3.09778,3.00622,-1.08346,0.918881925,-0.402159615,-0.167174865
1764763980.894012,-3.09778,3.00622,-1.08346,0.918881925,-0.402159615,-0.167174865
1764763980.894012,-3.09778,3.00622,-1.08346,0.918881925,-0.402159615,-0.167174865
1764763980.9398935,-3.09778,3.00622,-1.08346,0.918881925,-0.402159615,-0.167174865
1764763980.9398935,-3.09778,3.00622,-1.08346,0.918881925,-0.402159615,-0.167174865
1764763980.9398935,-3.09778,3.00622,-1.08346,0.918881925,-0.402159615,-0.167174865
1764763980.9398935,-3.09778,3.00622,-1.08346,0.918881925,-0.402159615,-0.167174865
1764763980.9398935,-2.70102,3.83026,-2.1364,0.91723398,-0.400938915,-0.166564515
1764763980.9398935,-2.70102,3.83026,-2.1364,0.91723398,-0.400938915,-0.166564515
1764763980.9398935,-2.70102,3.83026,-2.1364,0.91723398,-0.400938915,-0.166564515
1764763980.9398935,-2.70102,3.83026,-2.1364,0.91723398,-0.400938915,-0.166564515
1764763980.9398935,-2.70102,3.83026,-2.1364,0.91723398,-0.400938915,-0.166564515
1764763980.9398935,-2.70102,3.83026,-2.1364,0.91723398,-0.400938915,-0.166564515
1764763980.9398935,-2.70102,3.83026,-2.1364,0.91723398,-0.400938915,-0.166564515
1764763980.9398935,-2.70102,3.83026,-2.1364,0.91723398,-0.400938915,-0.166564515
1764763980.9398935,-2.70102,3.83026,-2.1364,0.91723398,-0.400938915,-0.166564515
1764763980.9398935,-2.70102,3.83026,-2.1364,0.91723398,-0.400938915,-0.166564515
1764763980.9398935,-2.5179,3.06726,-2.5942,0.912900495,-0.399596145,-0.1660152
1764763980.9398935,-2.5179,3.06726,-2.5942,0.912900495,-0.399596145,-0.1660152
1764763980.9398935,-2.5179,3.06726,-2.5942,0.912900495,-0.399596145,-0.1660152
1764763980.9398935,-2.5179,3.06726,-2.5942,0.912900495,-0.399596145,-0.1660152
1764763980.9398935,-2.5179,3.06726,-2.5942,0.912900495,-0.399596145,-0.1660152
1764763980.9398935,-2.5179,3.06726,-2.5942,0.912900495,-0.399596145,-0.1660152
1764763980.9398935,-2.5179,3.06726,-2.5942,0.912900495,-0.399596145,-0.1660152
1764763980.9398935,-2.5179,3.06726,-2.5942,0.912900495,-0.399596145,-0.1660152
1764763980.9864762,-2.5179,3.06726,-2.5942,0.912900495,-0.399596145,-0.1660152
1764763980.9864762,-2.5179,3.06726,-2.5942,0.912900495,-0.399596145,-0.1660152
1764763980.9864762,-2.77732,2.18218,-1.89224,0.91027599,-0.399107865,-0.165221745
1764763980.9864762,-2.77732,2.18218,-1.89224,0.91027599,-0.399107865,-0.165221745
1764763980.9864762,-2.77732,2.18218,-1.89224,0.91027599,-0.399107865,-0.165221745
1764763980.9864762,-2.77732,2.18218,-1.89224,0.91027599,-0.399107865,-0.165221745
1764763980.9864762,-2.77732,2.18218,-1.89224,0.91027599,-0.399107865,-0.165221745
1764763980.9864762,-2.77732,2.18218,-1.89224,0.91027599,-0.399107865,-0.165221745
1764763980.9864762,-2.77732,2.18218,-1.89224,0.91027599,-0.399107865,-0.165221745
1764763980.9864762,-2.77732,2.18218,-1.89224,0.91027599,-0.399107865,-0.165221745
1764763980.9864762,-2.77732,2.18218,-1.89224,0.91027599,-0.399107865,-0.165221745
1764763980.9864762,-2.77732,2.18218,-1.89224,0.91027599,-0.399107865,-0.165221745
1764763980.9864762,-2.48738,1.63282,-1.526,0.910947375,-0.39819234,-0.164489325
1764763980.9864762,-2.48738,1.63282,-1.526,0.910947375,-0.39819234,-0.164489325
1764763980.9864762,-2.48738,1.63282,-1.526,0.910947375,-0.39819234,-0.164489325
1764763980.9864762,-2.48738,1.63282,-1.526,0.910947375,-0.39819234,-0.164489325
1764763980.9864762,-2.48738,1.63282,-1.526,0.910947375,-0.39819234,-0.164489325
1764763980.9864762,-2.48738,1.63282,-1.526,0.910947375,-0.39819234,-0.164489325
1764763980.9864762,-2.48738,1.63282,-1.526,0.910947375,-0.39819234,-0.164489325
1764763980.9864762,-2.48738,1.63282,-1.526,0.910947375,-0.39819234,-0.164489325
1764763980.9864762,-2.48738,1.63282,-1.526,0.910947375,-0.39819234,-0.164489325
1764763980.9864762,-2.48738,1.63282,-1.526,0.910947375,-0.39819234,-0.164489325
1764763980.9864762,-2.8994,1.41918,-0.96138,0.911923935,-0.396056115,-0.16442829
1764763980.9864762,-2.8994,1.41918,-0.96138,0.911923935,-0.396056115,-0.16442829
1764763981.033835,-2.8994,1.41918,-0.96138,0.911923935,-0.396056115,-0.16442829
1764763981.033835,-2.8994,1.41918,-0.96138,0.911923935,-0.396056115,-0.16442829
1764763981.033835,-2.8994,1.41918,-0.96138,0.911923935,-0.396056115,-0.16442829
1764763981.033835,-2.8994,1.41918,-0.96138,0.911923935,-0.396056115,-0.16442829
1764763981.033835,-2.8994,1.41918,-0.96138,0.911923935,-0.396056115,-0.16442829
1764763981.033835,-2.8994,1.41918,-0.96138,0.911923935,-0.396056115,-0.16442829
1764763981.033835,-2.8994,1.41918,-0.96138,0.911923935,-0.396056115,-0.16442829
1764763981.033835,-2.8994,1.41918,-0.96138,0.911923935,-0.396056115,-0.16442829
1764763981.033835,-4.45592,0.79352,-0.25942,0.912046005,-0.39416403,-0.16528278
1764763981.033835,-4.45592,0.79352,-0.25942,0.912046005,-0.39416403,-0.16528278
1764763981.033835,-4.45592,0.79352,-0.25942,0.912046005,-0.39416403,-0.16528278
1764763981.033835,-4.45592,0.79352,-0.25942,0.912046005,-0.39416403,-0.16528278
1764763981.033835,-4.45592,0.79352,-0.25942,0.912046005,-0.39416403,-0.16528278
1764763981.033835,-4.45592,0.79352,-0.25942,0.912046005,-0.39416403,-0.16528278
1764763981.033835,-4.45592,0.79352,-0.25942,0.912046005,-0.39416403,-0.16528278
1764763981.033835,-4.45592,0.79352,-0.25942,0.912046005,-0.39416403,-0.16528278
1764763981.033835,-4.45592,0.79352,-0.25942,0.912046005,-0.39416403,-0.16528278
1764763981.033835,-4.45592,0.79352,-0.25942,0.912046005,-0.39416403,-0.16528278
1764763981.033835,-4.959499999999999,0.59514,0.9156,0.913144635,-0.39367575,-0.16516071
1764763981.033835,-4.959499999999999,0.59514,0.9156,0.913144635,-0.39367575,-0.16516071
1764763981.033835,-4.959499999999999,0.59514,0.9156,0.913144635,-0.39367575,-0.16516071
1764763981.033835,-4.959499999999999,0.59514,0.9156,0.913144635,-0.39367575,-0.16516071
1764763981.033835,-4.959499999999999,0.59514,0.9156,0.913144635,-0.39367575,-0.16516071
1764763981.033835,-4.959499999999999,0.59514,0.9156,0.913144635,-0.39367575,-0.16516071
1764763981.080691,-4.959499999999999,0.59514,0.9156,0.913144635,-0.39367575,-0.16516071
1764763981.080691,-4.959499999999999,0.59514,0.9156,0.913144635,-0.39367575,-0.16516071
1764763981.080691,-4.959499999999999,0.59514,0.9156,0.913144635,-0.39367575,-0.16516071
1764763981.080691,-4.959499999999999,0.59514,0.9156,0.913144635,-0.39367575,-0.16516071
1764763981.080691,-4.94424,0.6103999999999999,2.12114,0.914731545,-0.39623922,-0.164977605
1764763981.080691,-4.94424,0.6103999999999999,2.12114,0.914731545,-0.39623922,-0.164977605
1764763981.080691,-4.94424,0.6103999999999999,2.12114,0.914731545,-0.39623922,-0.164977605
1764763981.080691,-4.94424,0.6103999999999999,2.12114,0.914731545,-0.39623922,-0.164977605
1764763981.080691,-4.94424,0.6103999999999999,2.12114,0.914731545,-0.39623922,-0.164977605
1764763981.080691,-4.94424,0.6103999999999999,2.12114,0.914731545,-0.39623922,-0.164977605
1764763981.080691,-4.94424,0.6103999999999999,2.12114,0.914731545,-0.39623922,-0.164977605
1764763981.080691,-4.94424,0.6103999999999999,2.12114,0.914731545,-0.39623922,-0.164977605
1764763981.080691,-4.94424,0.6103999999999999,2.12114,0.914731545,-0.39623922,-0.164977605
1764763981.080691,-4.94424,0.6103999999999999,2.12114,0.914731545,-0.39623922,-0.164977605
1764763981.080691,-4.83742,0.3815,1.89224,0.912900495,-0.396300255,-0.16503864
1764763981.080691,-4.83742,0.3815,1.89224,0.912900495,-0.396300255,-0.16503864
1764763981.080691,-4.83742,0.3815,1.89224,0.912900495,-0.396300255,-0.16503864
1764763981.080691,-4.83742,0.3815,1.89224,0.912900495,-0.396300255,-0.16503864
1764763981.080691,-4.83742,0.3815,1.89224,0.912900495,-0.396300255,-0.16503864
1764763981.080691,-4.83742,0.3815,1.89224,0.912900495,-0.396300255,-0.16503864
1764763981.080691,-4.83742,0.3815,1.89224,0.912900495,-0.396300255,-0.16503864
1764763981.080691,-4.83742,0.3815,1.89224,0.912900495,-0.396300255,-0.16503864
1764763981.080691,-4.83742,0.3815,1.89224,0.912900495,-0.396300255,-0.16503864
1764763981.080691,-4.83742,0.3815,1.89224,0.912900495,-0.396300255,-0.16503864
1764763981.1275082,-4.70008,-0.56462,2.12114,0.911801865,-0.39526266,-0.16650348
1764763981.1275082,-4.70008,-0.56462,2.12114,0.911801865,-0.39526266,-0.16650348
1764763981.1275082,-4.70008,-0.56462,2.12114,0.911801865,-0.39526266,-0.16650348
1764763981.1275082,-4.70008,-0.56462,2.12114,0.911801865,-0.39526266,-0.16650348
1764763981.1275082,-4.70008,-0.56462,2.12114,0.911801865,-0.39526266,-0.16650348
1764763981.1275082,-4.70008,-0.56462,2.12114,0.911801865,-0.39526266,-0.16650348
1764763981.1275082,-4.70008,-0.56462,2.12114,0.911801865,-0.39526266,-0.16650348
1764763981.1275082,-4.70008,-0.56462,2.12114,0.911801865,-0.39526266,-0.16650348
1764763981.1275082,-4.70008,-0.56462,2.12114,0.911801865,-0.39526266,-0.16650348
1764763981.1275082,-4.70008,-0.56462,2.12114,0.911801865,-0.39526266,-0.16650348
1764763981.1275082,-4.94424,0.39676,2.16692,0.91296153,-0.39770406,-0.16638141
1764763981.1275082,-4.94424,0.39676,2.16692,0.91296153,-0.39770406,-0.16638141
1764763981.1275082,-4.94424,0.39676,2.16692,0.91296153,-0.39770406,-0.16638141
1764763981.1275082,-4.94424,0.39676,2.16692,0.91296153,-0.39770406,-0.16638141
1764763981.1275082,-4.94424,0.39676,2.16692,0.91296153,-0.39770406,-0.16638141
1764763981.1275082,-4.94424,0.39676,2.16692,0.91296153,-0.39770406,-0.16638141
1764763981.1275082,-4.94424,0.39676,2.16692,0.91296153,-0.39770406,-0.16638141
1764763981.1275082,-4.94424,0.39676,2.16692,0.91296153,-0.39770406,-0.16638141
1764763981.1275082,-4.94424,0.39676,2.16692,0.91296153,-0.39770406,-0.16638141
1764763981.1275082,-4.94424,0.39676,2.16692,0.91296153,-0.39770406,-0.16638141
1764763981.1275082,-4.303319999999999,0.93086,1.4039199999999998,0.9143043,-0.39904683,-0.165954165
1764763981.1275082,-4.303319999999999,0.93086,1.4039199999999998,0.9143043,-0.39904683,-0.165954165
1764763981.1750126,-4.303319999999999,0.93086,1.4039199999999998,0.9143043,-0.39904683,-0.165954165
1764763981.1750126,-4.303319999999999,0.93086,1.4039199999999998,0.9143043,-0.39904683,-0.165954165
1764763981.1750126,-4.303319999999999,0.93086,1.4039199999999998,0.9143043,-0.39904683,-0.165954165
1764763981.1750126,-4.303319999999999,0.93086,1.4039199999999998,0.9143043,-0.39904683,-0.165954165
1764763981.1750126,-4.303319999999999,0.93086,1.4039199999999998,0.9143043,-0.39904683,-0.165954165
1764763981.1750126,-4.303319999999999,0.93086,1.4039199999999998,0.9143043,-0.39904683,-0.165954165
1764763981.1750126,-4.303319999999999,0.93086,1.4039199999999998,0.9143043,-0.39904683,-0.165954165
1764763981.1750126,-4.303319999999999,0.93086,1.4039199999999998,0.9143043,-0.39904683,-0.165954165
1764763981.1750126,-3.70818,1.2055399999999998,1.28184,0.913999125,-0.39990132,-0.166930725
1764763981.1750126,-3.70818,1.2055399999999998,1.28184,0.913999125,-0.39990132,-0.166930725
1764763981.1750126,-3.70818,1.2055399999999998,1.28184,0.913999125,-0.39990132,-0.166930725
1764763981.1750126,-3.70818,1.2055399999999998,1.28184,0.913999125,-0.39990132,-0.166930725
1764763981.1750126,-3.70818,1.2055399999999998,1.28184,0.913999125,-0.39990132,-0.166930725
1764763981.1750126,-3.70818,1.2055399999999998,1.28184,0.913999125,-0.39990132,-0.166930725
1764763981.1750126,-3.70818,1.2055399999999998,1.28184,0.913999125,-0.39990132,-0.166930725
1764763981.1750126,-3.70818,1.2055399999999998,1.28184,0.913999125,-0.39990132,-0.166930725
1764763981.1750126,-3.70818,1.2055399999999998,1.28184,0.913999125,-0.39990132,-0.166930725
1764763981.1750126,-3.70818,1.2055399999999998,1.28184,0.913999125,-0.39990132,-0.166930725
1764763981.1750126,-3.38772,1.15976,0.04578,0.913510845,-0.40002339,-0.16699176
1764763981.1750126,-3.38772,1.15976,0.04578,0.913510845,-0.40002339,-0.16699176
1764763981.1750126,-3.38772,1.15976,0.04578,0.913510845,-0.40002339,-0.16699176
1764763981.1750126,-3.38772,1.15976,0.04578,0.913510845,-0.40002339,-0.16699176
1764763981.1750126,-3.38772,1.15976,0.04578,0.913510845,-0.40002339,-0.16699176
1764763981.1750126,-3.38772,1.15976,0.04578,0.913510845,-0.40002339,-0.16699176
1764763981.2206757,-3.38772,1.15976,0.04578,0.913510845,-0.40002339,-0.16699176
1764763981.2206757,-3.38772,1.15976,0.04578,0.913510845,-0.40002339,-0.16699176
1764763981.2206757,-3.38772,1.15976,0.04578,0.913510845,-0.40002339,-0.16699176
1764763981.2206757,-3.38772,1.15976,0.04578,0.913510845,-0.40002339,-0.16699176
1764763981.2206757,-2.76206,1.02242,-0.44254,0.91344981,-0.40014546,-0.167419005
1764763981.2211864,-2.76206,1.02242,-0.44254,0.91344981,-0.40014546,-0.167419005
1764763981.2211864,-2.76206,1.02242,-0.44254,0.91344981,-0.40014546,-0.167419005
1764763981.2211864,-2.76206,1.02242,-0.44254,0.91344981,-0.40014546,-0.167419005
1764763981.2211864,-2.76206,1.02242,-0.44254,0.91344981,-0.40014546,-0.167419005
1764763981.2211864,-2.76206,1.02242,-0.44254,0.91344981,-0.40014546,-0.167419005
1764763981.2211864,-2.76206,1.02242,-0.44254,0.91344981,-0.40014546,-0.167419005
1764763981.2211864,-2.76206,1.02242,-0.44254,0.91344981,-0.40014546,-0.167419005
1764763981.2211864,-2.76206,1.02242,-0.44254,0.91344981,-0.40014546,-0.167419005
1764763981.2211864,-2.76206,1.02242,-0.44254,0.91344981,-0.40014546,-0.167419005
1764763981.2211864,-3.14356,1.15976,-0.21364,0.91381602,-0.39904683,-0.166930725
1764763981.2211864,-3.14356,1.15976,-0.21364,0.91381602,-0.39904683,-0.166930725
1764763981.2211864,-3.14356,1.15976,-0.21364,0.91381602,-0.39904683,-0.166930725
1764763981.2211864,-3.14356,1.15976,-0.21364,0.91381602,-0.39904683,-0.166930725
1764763981.2211864,-3.14356,1.15976,-0.21364,0.91381602,-0.39904683,-0.166930725
1764763981.2211864,-3.14356,1.15976,-0.21364,0.91381602,-0.39904683,-0.166930725
1764763981.2211864,-3.14356,1.15976,-0.21364,0.91381602,-0.39904683,-0.166930725
1764763981.2211864,-3.14356,1.15976,-0.21364,0.91381602,-0.39904683,-0.166930725
1764763981.2211864,-3.14356,1.15976,-0.21364,0.91381602,-0.39904683,-0.166930725
1764763981.2211864,-3.14356,1.15976,-0.21364,0.91381602,-0.39904683,-0.166930725
1764763981.2669578,-2.79258,1.6786,0.18312,0.913388775,-0.3979482,-0.166930725
1764763981.2669578,-2.79258,1.6786,0.18312,0.913388775,-0.3979482,-0.166930725
1764763981.2669578,-2.79258,1.6786,0.18312,0.913388775,-0.3979482,-0.166930725
1764763981.2675388,-2.79258,1.6786,0.18312,0.913388775,-0.3979482,-0.166930725
1764763981.2675388,-2.79258,1.6786,0.18312,0.913388775,-0.3979482,-0.166930725
1764763981.2675388,-2.79258,1.6786,0.18312,0.913388775,-0.3979482,-0.166930725
1764763981.2675388,-2.79258,1.6786,0.18312,0.913388775,-0.3979482,-0.166930725
1764763981.2675388,-2.79258,1.6786,0.18312,0.913388775,-0.3979482,-0.166930725
1764763981.2675388,-2.79258,1.6786,0.18312,0.913388775,-0.3979482,-0.166930725
1764763981.2675388,-2.79258,1.6786,0.18312,0.913388775,-0.3979482,-0.166930725
1764763981.2675388,-3.11304,1.46496,0.27468,0.913266705,-0.3979482,-0.166808655
1764763981.2675388,-3.11304,1.46496,0.27468,0.913266705,-0.3979482,-0.166808655
1764763981.2675388,-3.11304,1.46496,0.27468,0.913266705,-0.3979482,-0.166808655
1764763981.2675388,-3.11304,1.46496,0.27468,0.913266705,-0.3979482,-0.166808655
1764763981.2675388,-3.11304,1.46496,0.27468,0.913266705,-0.3979482,-0.166808655
1764763981.2675388,-3.11304,1.46496,0.27468,0.913266705,-0.3979482,-0.166808655
1764763981.2675388,-3.11304,1.46496,0.27468,0.913266705,-0.3979482,-0.166808655
1764763981.2675388,-3.11304,1.46496,0.27468,0.913266705,-0.3979482,-0.166808655
1764763981.2675388,-3.11304,1.46496,0.27468,0.913266705,-0.3979482,-0.166808655
1764763981.2675388,-3.11304,1.46496,0.27468,0.913266705,-0.3979482,-0.166808655
1764763981.2675388,-3.02148,1.02242,0.6409199999999999,0.91344981,-0.398375445,-0.166930725
1764763981.2688994,-3.02148,1.02242,0.6409199999999999,0.91344981,-0.398375445,-0.166930725
1764763981.311833,-3.02148,1.02242,0.6409199999999999,0.91344981,-0.398375445,-0.166930725
1764763981.311833,-3.02148,1.02242,0.6409199999999999,0.91344981,-0.398375445,-0.166930725
1764763981.311833,-3.02148,1.02242,0.6409199999999999,0.91344981,-0.398375445,-0.166930725
1764763981.311833,-3.02148,1.02242,0.6409199999999999,0.91344981,-0.398375445,-0.166930725
1764763981.311833,-3.02148,1.02242,0.6409199999999999,0.91344981,-0.398375445,-0.166930725
1764763981.311833,-3.02148,1.02242,0.6409199999999999,0.91344981,-0.398375445,-0.166930725
1764763981.311833,-3.02148,1.02242,0.6409199999999999,0.91344981,-0.398375445,-0.166930725
1764763981.311833,-3.02148,1.02242,0.6409199999999999,0.91344981,-0.398375445,-0.166930725
1764763981.311833,-3.31142,1.19028,0.59514,0.912778425,-0.39819234,-0.16650348
1764763981.311833,-3.31142,1.19028,0.59514,0.912778425,-0.39819234,-0.16650348
1764763981.311833,-3.31142,1.19028,0.59514,0.912778425,-0.39819234,-0.16650348
1764763981.311833,-3.31142,1.19028,0.59514,0.912778425,-0.39819234,-0.16650348
1764763981.311833,-3.31142,1.19028,0.59514,0.912778425,-0.39819234,-0.16650348
1764763981.311833,-3.31142,1.19028,0.59514,0.912778425,-0.39819234,-0.16650348
1764763981.311833,-3.31142,1.19028,0.59514,0.912778425,-0.39819234,-0.16650348
1764763981.311833,-3.31142,1.19028,0.59514,0.912778425,-0.39819234,-0.16650348
1764763981.311833,-3.31142,1.19028,0.59514,0.912778425,-0.39819234,-0.16650348
1764763981.311833,-3.31142,1.19028,0.59514,0.912778425,-0.39819234,-0.16650348
1764763981.311833,-3.18934,0.50358,0.65618,0.910825305,-0.397154745,-0.166564515
1764763981.311833,-3.18934,0.50358,0.65618,0.910825305,-0.397154745,-0.166564515
1764763981.3128977,-3.18934,0.50358,0.65618,0.910825305,-0.397154745,-0.166564515
1764763981.3128977,-3.18934,0.50358,0.65618,0.910825305,-0.397154745,-0.166564515
1764763981.3128977,-3.18934,0.50358,0.65618,0.910825305,-0.397154745,-0.166564515
1764763981.3128977,-3.18934,0.50358,0.65618,0.910825305,-0.397154745,-0.166564515
1764763981.359986,-3.18934,0.50358,0.65618,0.910825305,-0.397154745,-0.166564515
1764763981.359986,-3.18934,0.50358,0.65618,0.910825305,-0.397154745,-0.166564515
1764763981.359986,-3.18934,0.50358,0.65618,0.910825305,-0.397154745,-0.166564515
1764763981.359986,-3.18934,0.50358,0.65618,0.910825305,-0.397154745,-0.166564515
1764763981.359986,-3.37246,0.51884,0.82404,0.91113048,-0.397154745,-0.16650348
1764763981.359986,-3.37246,0.51884,0.82404,0.91113048,-0.397154745,-0.16650348
1764763981.359986,-3.37246,0.51884,0.82404,0.91113048,-0.397154745,-0.16650348
1764763981.359986,-3.37246,0.51884,0.82404,0.91113048,-0.397154745,-0.16650348
1764763981.359986,-3.37246,0.51884,0.82404,0.91113048,-0.397154745,-0.16650348
1764763981.3604934,-3.37246,0.51884,0.82404,0.91113048,-0.397154745,-0.16650348
1764763981.3604934,-3.37246,0.51884,0.82404,0.91113048,-0.397154745,-0.16650348
1764763981.3604934,-3.37246,0.51884,0.82404,0.91113048,-0.397154745,-0.16650348
1764763981.3604934,-3.37246,0.51884,0.82404,0.91113048,-0.397154745,-0.16650348
1764763981.3604934,-3.37246,0.51884,0.82404,0.91113048,-0.397154745,-0.16650348
1764763981.3604934,-3.41824,0.54936,1.19028,0.912778425,-0.3979482,-0.166320375
1764763981.3604934,-3.41824,0.54936,1.19028,0.912778425,-0.3979482,-0.166320375
1764763981.3604934,-3.41824,0.54936,1.19028,0.912778425,-0.3979482,-0.166320375
1764763981.3604934,-3.41824,0.54936,1.19028,0.912778425,-0.3979482,-0.166320375
1764763981.3604934,-3.41824,0.54936,1.19028,0.912778425,-0.3979482,-0.166320375
1764763981.3604934,-3.41824,0.54936,1.19028,0.912778425,-0.3979482,-0.166320375
1764763981.3604934,-3.41824,0.54936,1.19028,0.912778425,-0.3979482,-0.166320375
1764763981.3604934,-3.41824,0.54936,1.19028,0.912778425,-0.3979482,-0.166320375
1764763981.3604934,-3.41824,0.54936,1.19028,0.912778425,-0.3979482,-0.166320375
1764763981.3604934,-3.41824,0.54936,1.19028,0.912778425,-0.3979482,-0.166320375
1764763981.406011,-3.1283,1.11398,1.54126,0.913999125,-0.39941304,-0.165710025
1764763981.406011,-3.1283,1.11398,1.54126,0.913999125,-0.39941304,-0.165710025
1764763981.406011,-3.1283,1.11398,1.54126,0.913999125,-0.39941304,-0.165710025
1764763981.406011,-3.1283,1.11398,1.54126,0.913999125,-0.39941304,-0.165710025
1764763981.406011,-3.1283,1.11398,1.54126,0.913999125,-0.39941304,-0.165710025
1764763981.406011,-3.1283,1.11398,1.54126,0.913999125,-0.39941304,-0.165710025
1764763981.406011,-3.1283,1.11398,1.54126,0.913999125,-0.39941304,-0.165710025
1764763981.406011,-3.1283,1.11398,1.54126,0.913999125,-0.39941304,-0.165710025
1764763981.406011,-3.1283,1.11398,1.54126,0.913999125,-0.39941304,-0.165710025
1764763981.406011,-3.1283,1.11398,1.54126,0.913999125,-0.39941304,-0.165710025
1764763981.406011,-2.91466,1.34288,1.35814,0.914731545,-0.399352005,-0.166198305
1764763981.406011,-2.91466,1.34288,1.35814,0.914731545,-0.399352005,-0.166198305
1764763981.406011,-2.91466,1.34288,1.35814,0.914731545,-0.399352005,-0.166198305
1764763981.406011,-2.91466,1.34288,1.35814,0.914731545,-0.399352005,-0.166198305
1764763981.406011,-2.91466,1.34288,1.35814,0.914731545,-0.399352005,-0.166198305
1764763981.406011,-2.91466,1.34288,1.35814,0.914731545,-0.399352005,-0.166198305
1764763981.406011,-2.91466,1.34288,1.35814,0.914731545,-0.399352005,-0.166198305
1764763981.406011,-2.91466,1.34288,1.35814,0.914731545,-0.399352005,-0.166198305
1764763981.406011,-2.91466,1.34288,1.35814,0.914731545,-0.399352005,-0.166198305
1764763981.406011,-2.91466,1.34288,1.35814,0.914731545,-0.399352005,-0.166198305
1764763981.406011,-4.37962,1.09872,0.6867,0.914365335,-0.398131305,-0.167296935
1764763981.406011,-4.37962,1.09872,0.6867,0.914365335,-0.398131305,-0.167296935
1764763981.454985,-4.37962,1.09872,0.6867,0.914365335,-0.398131305,-0.167296935
1764763981.454985,-4.37962,1.09872,0.6867,0.914365335,-0.398131305,-0.167296935
1764763981.454985,-4.37962,1.09872,0.6867,0.914365335,-0.398131305,-0.167296935
1764763981.454985,-4.37962,1.09872,0.6867,0.914365335,-0.398131305,-0.167296935
1764763981.454985,-4.37962,1.09872,0.6867,0.914365335,-0.398131305,-0.167296935
1764763981.454985,-4.37962,1.09872,0.6867,0.914365335,-0.398131305,-0.167296935
1764763981.454985,-4.37962,1.09872,0.6867,0.914365335,-0.398131305,-0.167296935
1764763981.454985,-4.37962,1.09872,0.6867,0.914365335,-0.398131305,-0.167296935
1764763981.454985,-4.33384,0.9919,0.13734,0.914609475,-0.39843648,-0.166686585
1764763981.454985,-4.33384,0.9919,0.13734,0.914609475,-0.39843648,-0.166686585
1764763981.454985,-4.33384,0.9919,0.13734,0.914609475,-0.39843648,-0.166686585
1764763981.454985,-4.33384,0.9919,0.13734,0.914609475,-0.39843648,-0.166686585
1764763981.454985,-4.33384,0.9919,0.13734,0.914609475,-0.39843648,-0.166686585
1764763981.454985,-4.33384,0.9919,0.13734,0.914609475,-0.39843648,-0.166686585
1764763981.454985,-4.33384,0.9919,0.13734,0.914609475,-0.39843648,-0.166686585
1764763981.454985,-4.33384,0.9919,0.13734,0.914609475,-0.39843648,-0.166686585
1764763981.454985,-4.33384,0.9919,0.13734,0.914609475,-0.39843648,-0.166686585
1764763981.454985,-4.33384,0.9919,0.13734,0.914609475,-0.39843648,-0.166686585
1764763981.454985,-3.2046,1.77016,0.3051999999999999,0.916318455,-0.4003896,-0.165099675
1764763981.454985,-3.2046,1.77016,0.3051999999999999,0.916318455,-0.4003896,-0.165099675
1764763981.454985,-3.2046,1.77016,0.3051999999999999,0.916318455,-0.4003896,-0.165099675
1764763981.454985,-3.2046,1.77016,0.3051999999999999,0.916318455,-0.4003896,-0.165099675
1764763981.454985,-3.2046,1.77016,0.3051999999999999,0.916318455,-0.4003896,-0.165099675
1764763981.454985,-3.2046,1.77016,0.3051999999999999,0.916318455,-0.4003896,-0.165099675
1764763981.500942,-3.2046,1.77016,0.3051999999999999,0.916318455,-0.4003896,-0.165099675
1764763981.500942,-3.2046,1.77016,0.3051999999999999,0.916318455,-0.4003896,-0.165099675
1764763981.500942,-3.2046,1.77016,0.3051999999999999,0.916318455,-0.4003896,-0.165099675
1764763981.500942,-3.2046,1.77016,0.3051999999999999,0.916318455,-0.4003896,-0.165099675
1764763981.500942,-2.01432,2.80784,-0.04578,0.91601328,-0.400328565,-0.163878975
1764763981.500942,-2.01432,2.80784,-0.04578,0.91601328,-0.400328565,-0.163878975
1764763981.500942,-2.01432,2.80784,-0.04578,0.91601328,-0.400328565,-0.163878975
1764763981.500942,-2.01432,2.80784,-0.04578,0.91601328,-0.400328565,-0.163878975
1764763981.500942,-2.01432,2.80784,-0.04578,0.91601328,-0.400328565,-0.163878975
1764763981.500942,-2.01432,2.80784,-0.04578,0.91601328,-0.400328565,-0.163878975
1764763981.500942,-2.01432,2.80784,-0.04578,0.91601328,-0.400328565,-0.163878975
1764763981.500942,-2.01432,2.80784,-0.04578,0.91601328,-0.400328565,-0.163878975
1764763981.500942,-2.01432,2.80784,-0.04578,0.91601328,-0.400328565,-0.163878975
1764763981.500942,-2.01432,2.80784,-0.04578,0.91601328,-0.400328565,-0.163878975
1764763981.500942,-2.31952,2.76206,-0.51884,0.91454844,-0.398253375,-0.16345173
1764763981.500942,-2.31952,2.76206,-0.51884,0.91454844,-0.398253375,-0.16345173
1764763981.500942,-2.31952,2.76206,-0.51884,0.91454844,-0.398253375,-0.16345173
1764763981.500942,-2.31952,2.76206,-0.51884,0.91454844,-0.398253375,-0.16345173
1764763981.500942,-2.31952,2.76206,-0.51884,0.91454844,-0.398253375,-0.16345173
1764763981.500942,-2.31952,2.76206,-0.51884,0.91454844,-0.398253375,-0.16345173
1764763981.500942,-2.31952,2.76206,-0.51884,0.91454844,-0.398253375,-0.16345173
1764763981.500942,-2.31952,2.76206,-0.51884,0.91454844,-0.398253375,-0.16345173
1764763981.5453696,-2.31952,2.76206,-0.51884,0.91454844,-0.398253375,-0.16345173
1764763981.5453696,-2.31952,2.76206,-0.51884,0.91454844,-0.398253375,-0.16345173
1764763981.5453696,-2.42634,1.70912,-0.3051999999999999,0.91259532,-0.396788535,-0.16381794
1764763981.5453696,-2.42634,1.70912,-0.3051999999999999,0.91259532,-0.396788535,-0.16381794
1764763981.5453696,-2.42634,1.70912,-0.3051999999999999,0.91259532,-0.396788535,-0.16381794
1764763981.5453696,-2.42634,1.70912,-0.3051999999999999,0.91259532,-0.396788535,-0.16381794
1764763981.5453696,-2.42634,1.70912,-0.3051999999999999,0.91259532,-0.396788535,-0.16381794
1764763981.5453696,-2.42634,1.70912,-0.3051999999999999,0.91259532,-0.396788535,-0.16381794
1764763981.5453696,-2.42634,1.70912,-0.3051999999999999,0.91259532,-0.396788535,-0.16381794
1764763981.5453696,-2.42634,1.70912,-0.3051999999999999,0.91259532,-0.396788535,-0.16381794
1764763981.5453696,-2.42634,1.70912,-0.3051999999999999,0.91259532,-0.396788535,-0.16381794
1764763981.5453696,-2.42634,1.70912,-0.3051999999999999,0.91259532,-0.396788535,-0.16381794
1764763981.5453696,-2.19744,1.17502,0.2289,0.911191515,-0.397643025,-0.16284138
1764763981.5453696,-2.19744,1.17502,0.2289,0.911191515,-0.397643025,-0.16284138
1764763981.5453696,-2.19744,1.17502,0.2289,0.911191515,-0.397643025,-0.16284138
1764763981.5453696,-2.19744,1.17502,0.2289,0.911191515,-0.397643025,-0.16284138
1764763981.5453696,-2.19744,1.17502,0.2289,0.911191515,-0.397643025,-0.16284138
1764763981.5453696,-2.19744,1.17502,0.2289,0.911191515,-0.397643025,-0.16284138
1764763981.5453696,-2.19744,1.17502,0.2289,0.911191515,-0.397643025,-0.16284138
1764763981.5453696,-2.19744,1.17502,0.2289,0.911191515,-0.397643025,-0.16284138
1764763981.546389,-2.19744,1.17502,0.2289,0.911191515,-0.397643025,-0.16284138
1764763981.546389,-2.19744,1.17502,0.2289,0.911191515,-0.397643025,-0.16284138
1764763981.546389,-2.18218,0.9003399999999999,0.8087799999999999,0.911679795,-0.398131305,-0.162780345
1764763981.547397,-2.18218,0.9003399999999999,0.8087799999999999,0.911679795,-0.398131305,-0.162780345
1764763981.5926468,-2.18218,0.9003399999999999,0.8087799999999999,0.911679795,-0.398131305,-0.162780345
1764763981.5926468,-2.18218,0.9003399999999999,0.8087799999999999,0.911679795,-0.398131305,-0.162780345
1764763981.5926468,-2.18218,0.9003399999999999,0.8087799999999999,0.911679795,-0.398131305,-0.162780345
1764763981.5926468,-2.18218,0.9003399999999999,0.8087799999999999,0.911679795,-0.398131305,-0.162780345
1764763981.5926468,-2.18218,0.9003399999999999,0.8087799999999999,0.911679795,-0.398131305,-0.162780345
1764763981.5926468,-2.18218,0.9003399999999999,0.8087799999999999,0.911679795,-0.398131305,-0.162780345
1764763981.5931566,-2.18218,0.9003399999999999,0.8087799999999999,0.911679795,-0.398131305,-0.162780345
1764763981.5931566,-2.18218,0.9003399999999999,0.8087799999999999,0.911679795,-0.398131305,-0.162780345
1764763981.5931566,-2.94518,0.97664,1.38866,0.913266705,-0.39648336,-0.163390695
1764763981.5931566,-2.94518,0.97664,1.38866,0.913266705,-0.39648336,-0.163390695
1764763981.5931566,-2.94518,0.97664,1.38866,0.913266705,-0.39648336,-0.163390695
1764763981.5931566,-2.94518,0.97664,1.38866,0.913266705,-0.39648336,-0.163390695
1764763981.6433244,-2.94518,0.97664,1.38866,0.913266705,-0.39648336,-0.163390695
1764763981.6433244,-2.94518,0.97664,1.38866,0.913266705,-0.39648336,-0.163390695
1764763981.6433244,-2.94518,0.97664,1.38866,0.913266705,-0.39648336,-0.163390695
1764763981.6433244,-2.94518,0.97664,1.38866,0.913266705,-0.39648336,-0.163390695
1764763981.6433244,-2.94518,0.97664,1.38866,0.913266705,-0.39648336,-0.163390695
1764763981.6433244,-2.94518,0.97664,1.38866,0.913266705,-0.39648336,-0.163390695
1764763981.6433244,-4.18124,1.2055399999999998,1.25132,0.915097755,-0.395079555,-0.163756905
1764763981.6433244,-4.18124,1.2055399999999998,1.25132,0.915097755,-0.395079555,-0.163756905
1764763981.6433244,-4.18124,1.2055399999999998,1.25132,0.915097755,-0.395079555,-0.163756905
1764763981.6433244,-4.18124,1.2055399999999998,1.25132,0.915097755,-0.395079555,-0.163756905
1764763981.6433244,-4.18124,1.2055399999999998,1.25132,0.915097755,-0.395079555,-0.163756905
1764763981.6433244,-4.18124,1.2055399999999998,1.25132,0.915097755,-0.395079555,-0.163756905
1764763981.6433244,-4.18124,1.2055399999999998,1.25132,0.915097755,-0.395079555,-0.163756905
1764763981.6433244,-4.18124,1.2055399999999998,1.25132,0.915097755,-0.395079555,-0.163756905
1764763981.6433244,-4.18124,1.2055399999999998,1.25132,0.915097755,-0.395079555,-0.163756905
1764763981.6433244,-4.18124,1.2055399999999998,1.25132,0.915097755,-0.395079555,-0.163756905
1764763981.6433244,-3.5098,1.1445,1.38866,0.914365335,-0.3967275,-0.163634835
1764763981.6433244,-3.5098,1.1445,1.38866,0.914365335,-0.3967275,-0.163634835
1764763981.6433244,-3.5098,1.1445,1.38866,0.914365335,-0.3967275,-0.163634835
1764763981.6433244,-3.5098,1.1445,1.38866,0.914365335,-0.3967275,-0.163634835
1764763981.6433244,-3.5098,1.1445,1.38866,0.914365335,-0.3967275,-0.163634835
1764763981.6433244,-3.5098,1.1445,1.38866,0.914365335,-0.3967275,-0.163634835
1764763981.6433244,-3.5098,1.1445,1.38866,0.914365335,-0.3967275,-0.163634835
1764763981.6433244,-3.5098,1.1445,1.38866,0.914365335,-0.3967275,-0.163634835
1764763981.6433244,-3.5098,1.1445,1.38866,0.914365335,-0.3967275,-0.163634835
1764763981.6433244,-3.5098,1.1445,1.38866,0.914365335,-0.3967275,-0.163634835
1764763981.6433244,-4.13546,0.6714399999999999,2.60946,0.91222911,-0.398253375,-0.163878975
1764763981.6433244,-4.13546,0.6714399999999999,2.60946,0.91222911,-0.398253375,-0.163878975
1764763981.6433244,-4.13546,0.6714399999999999,2.60946,0.91222911,-0.398253375,-0.163878975
1764763981.6433244,-4.13546,0.6714399999999999,2.60946,0.91222911,-0.398253375,-0.163878975
1764763981.6433244,-4.13546,0.6714399999999999,2.60946,0.91222911,-0.398253375,-0.163878975
1764763981.6433244,-4.13546,0.6714399999999999,2.60946,0.91222911,-0.398253375,-0.163878975
1764763981.6433244,-4.13546,0.6714399999999999,2.60946,0.91222911,-0.398253375,-0.163878975
1764763981.6433244,-4.13546,0.6714399999999999,2.60946,0.91222911,-0.398253375,-0.163878975
1764763981.6433244,-4.13546,0.6714399999999999,2.60946,0.91222911,-0.398253375,-0.163878975
1764763981.6433244,-4.13546,0.6714399999999999,2.60946,0.91222911,-0.398253375,-0.163878975
1764763981.689659,-4.37962,-0.6103999999999999,2.57894,0.910092885,-0.39697164,-0.164123115
1764763981.689659,-4.37962,-0.6103999999999999,2.57894,0.910092885,-0.39697164,-0.164123115
1764763981.689659,-4.37962,-0.6103999999999999,2.57894,0.910092885,-0.39697164,-0.164123115
1764763981.689659,-4.37962,-0.6103999999999999,2.57894,0.910092885,-0.39697164,-0.164123115
1764763981.689659,-4.37962,-0.6103999999999999,2.57894,0.910092885,-0.39697164,-0.164123115
1764763981.689659,-4.37962,-0.6103999999999999,2.57894,0.910092885,-0.39697164,-0.164123115
1764763981.689659,-4.37962,-0.6103999999999999,2.57894,0.910092885,-0.39697164,-0.164123115
1764763981.689659,-4.37962,-0.6103999999999999,2.57894,0.910092885,-0.39697164,-0.164123115
1764763981.689659,-4.37962,-0.6103999999999999,2.57894,0.910092885,-0.39697164,-0.164123115
1764763981.689659,-4.37962,-0.6103999999999999,2.57894,0.910092885,-0.39697164,-0.164123115
1764763981.690665,-4.83742,-0.36624,1.9838,0.911435655,-0.39758199,-0.164611395
1764763981.690665,-4.83742,-0.36624,1.9838,0.911435655,-0.39758199,-0.164611395
1764763981.690665,-4.83742,-0.36624,1.9838,0.911435655,-0.39758199,-0.164611395
1764763981.690665,-4.83742,-0.36624,1.9838,0.911435655,-0.39758199,-0.164611395
1764763981.690665,-4.83742,-0.36624,1.9838,0.911435655,-0.39758199,-0.164611395
1764763981.690665,-4.83742,-0.36624,1.9838,0.911435655,-0.39758199,-0.164611395
1764763981.690665,-4.83742,-0.36624,1.9838,0.911435655,-0.39758199,-0.164611395
1764763981.690665,-4.83742,-0.36624,1.9838,0.911435655,-0.39758199,-0.164611395
1764763981.690665,-4.83742,-0.36624,1.9838,0.911435655,-0.39758199,-0.164611395
1764763981.690665,-4.83742,-0.36624,1.9838,0.911435655,-0.39758199,-0.164611395
1764763981.690665,-5.15788,0.48832,1.8312,0.913144635,-0.399718215,-0.164855535
1764763981.690665,-5.15788,0.48832,1.8312,0.913144635,-0.399718215,-0.164855535
1764763981.690665,-5.15788,0.48832,1.8312,0.913144635,-0.399718215,-0.164855535
1764763981.690665,-5.15788,0.48832,1.8312,0.913144635,-0.399718215,-0.164855535
1764763981.7382903,-5.15788,0.48832,1.8312,0.913144635,-0.399718215,-0.164855535
1764763981.7382903,-5.15788,0.48832,1.8312,0.913144635,-0.399718215,-0.164855535
1764763981.7382903,-5.15788,0.48832,1.8312,0.913144635,-0.399718215,-0.164855535
1764763981.7382903,-5.15788,0.48832,1.8312,0.913144635,-0.399718215,-0.164855535
1764763981.7382903,-5.15788,0.48832,1.8312,0.913144635,-0.399718215,-0.164855535
1764763981.7382903,-5.15788,0.48832,1.8312,0.913144635,-0.399718215,-0.164855535
1764763981.7382903,-4.76112,1.12924,1.17502,0.914121195,-0.400572705,-0.165587955
1764763981.7382903,-4.76112,1.12924,1.17502,0.914121195,-0.400572705,-0.165587955
1764763981.7382903,-4.76112,1.12924,1.17502,0.914121195,-0.400572705,-0.165587955
1764763981.7382903,-4.76112,1.12924,1.17502,0.914121195,-0.400572705,-0.165587955
1764763981.7382903,-4.76112,1.12924,1.17502,0.914121195,-0.400572705,-0.165587955
1764763981.7382903,-4.76112,1.12924,1.17502,0.914121195,-0.400572705,-0.165587955
1764763981.7382903,-4.76112,1.12924,1.17502,0.914121195,-0.400572705,-0.165587955
1764763981.7382903,-4.76112,1.12924,1.17502,0.914121195,-0.400572705,-0.165587955
1764763981.7382903,-4.76112,1.12924,1.17502,0.914121195,-0.400572705,-0.165587955
1764763981.7382903,-4.76112,1.12924,1.17502,0.914121195,-0.400572705,-0.165587955
1764763981.7393034,-4.76112,1.35814,0.54936,0.91393809,-0.400450635,-0.16577106
1764763981.7393034,-4.76112,1.35814,0.54936,0.91393809,-0.400450635,-0.16577106
1764763981.7393034,-4.76112,1.35814,0.54936,0.91393809,-0.400450635,-0.16577106
1764763981.7393034,-4.76112,1.35814,0.54936,0.91393809,-0.400450635,-0.16577106
1764763981.7393034,-4.76112,1.35814,0.54936,0.91393809,-0.400450635,-0.16577106
1764763981.7393034,-4.76112,1.35814,0.54936,0.91393809,-0.400450635,-0.16577106
1764763981.7393034,-4.76112,1.35814,0.54936,0.91393809,-0.400450635,-0.16577106
1764763981.7393034,-4.76112,1.35814,0.54936,0.91393809,-0.400450635,-0.16577106
1764763981.7814624,-4.76112,1.35814,0.54936,0.91393809,-0.400450635,-0.16577106
1764763981.7814624,-4.76112,1.35814,0.54936,0.91393809,-0.400450635,-0.16577106
1764763981.7814624,-4.22702,1.31236,-0.24416,0.91369395,-0.40124409,-0.166198305
1764763981.7814624,-4.22702,1.31236,-0.24416,0.91369395,-0.40124409,-0.166198305
1764763981.7814624,-4.22702,1.31236,-0.24416,0.91369395,-0.40124409,-0.166198305
1764763981.7814624,-4.22702,1.31236,-0.24416,0.91369395,-0.40124409,-0.166198305
1764763981.7814624,-4.22702,1.31236,-0.24416,0.91369395,-0.40124409,-0.166198305
1764763981.7814624,-4.22702,1.31236,-0.24416,0.91369395,-0.40124409,-0.166198305
1764763981.7814624,-4.22702,1.31236,-0.24416,0.91369395,-0.40124409,-0.166198305
1764763981.7814624,-4.22702,1.31236,-0.24416,0.91369395,-0.40124409,-0.166198305
1764763981.7814624,-4.22702,1.31236,-0.24416,0.91369395,-0.40124409,-0.166198305
1764763981.7814624,-4.22702,1.31236,-0.24416,0.91369395,-0.40124409,-0.166198305
1764763981.7814624,-3.7387,1.25132,-0.4578,0.912778425,-0.40148823,-0.16625934
1764763981.7814624,-3.7387,1.25132,-0.4578,0.912778425,-0.40148823,-0.16625934
1764763981.7829044,-3.7387,1.25132,-0.4578,0.912778425,-0.40148823,-0.16625934
1764763981.7829044,-3.7387,1.25132,-0.4578,0.912778425,-0.40148823,-0.16625934
1764763981.7829044,-3.7387,1.25132,-0.4578,0.912778425,-0.40148823,-0.16625934
1764763981.7829044,-3.7387,1.25132,-0.4578,0.912778425,-0.40148823,-0.16625934
1764763981.7829044,-3.7387,1.25132,-0.4578,0.912778425,-0.40148823,-0.16625934
1764763981.7829044,-3.7387,1.25132,-0.4578,0.912778425,-0.40148823,-0.16625934
1764763981.7829044,-3.7387,1.25132,-0.4578,0.912778425,-0.40148823,-0.16625934
1764763981.7829044,-3.7387,1.25132,-0.4578,0.912778425,-0.40148823,-0.16625934
1764763981.828721,-3.79974,0.9003399999999999,-0.2289,0.912534285,-0.400816845,-0.16625934
1764763981.8292377,-3.79974,0.9003399999999999,-0.2289,0.912534285,-0.400816845,-0.16625934
1764763981.8292377,-3.79974,0.9003399999999999,-0.2289,0.912534285,-0.400816845,-0.16625934
1764763981.8292377,-3.79974,0.9003399999999999,-0.2289,0.912534285,-0.400816845,-0.16625934
1764763981.8292377,-3.79974,0.9003399999999999,-0.2289,0.912534285,-0.400816845,-0.16625934
1764763981.8292377,-3.79974,0.9003399999999999,-0.2289,0.912534285,-0.400816845,-0.16625934
1764763981.8292377,-3.79974,0.9003399999999999,-0.2289,0.912534285,-0.400816845,-0.16625934
1764763981.8292377,-3.79974,0.9003399999999999,-0.2289,0.912534285,-0.400816845,-0.16625934
1764763981.8292377,-3.79974,0.9003399999999999,-0.2289,0.912534285,-0.400816845,-0.16625934
1764763981.8292377,-3.79974,0.9003399999999999,-0.2289,0.912534285,-0.400816845,-0.16625934
1764763981.8292377,-3.83026,1.00716,0.1525999999999999,0.913266705,-0.39953511,-0.16662555
1764763981.8292377,-3.83026,1.00716,0.1525999999999999,0.913266705,-0.39953511,-0.16662555
1764763981.8292377,-3.83026,1.00716,0.1525999999999999,0.913266705,-0.39953511,-0.16662555
1764763981.8292377,-3.83026,1.00716,0.1525999999999999,0.913266705,-0.39953511,-0.16662555
1764763981.8292377,-3.83026,1.00716,0.1525999999999999,0.913266705,-0.39953511,-0.16662555
1764763981.8292377,-3.83026,1.00716,0.1525999999999999,0.913266705,-0.39953511,-0.16662555
1764763981.8292377,-3.83026,1.00716,0.1525999999999999,0.913266705,-0.39953511,-0.16662555
1764763981.8292377,-3.83026,1.00716,0.1525999999999999,0.913266705,-0.39953511,-0.16662555
1764763981.8292377,-3.83026,1.00716,0.1525999999999999,0.913266705,-0.39953511,-0.16662555
1764763981.8292377,-3.83026,1.00716,0.1525999999999999,0.913266705,-0.39953511,-0.16662555
1764763981.8292377,-3.84552,1.72438,0.1525999999999999,0.91393809,-0.39892476,-0.16613727
1764763981.8292377,-3.84552,1.72438,0.1525999999999999,0.91393809,-0.39892476,-0.16613727
1764763981.8292377,-3.84552,1.72438,0.1525999999999999,0.91393809,-0.39892476,-0.16613727
1764763981.8292377,-3.84552,1.72438,0.1525999999999999,0.91393809,-0.39892476,-0.16613727
1764763981.8756104,-3.84552,1.72438,0.1525999999999999,0.91393809,-0.39892476,-0.16613727
1764763981.8756104,-3.84552,1.72438,0.1525999999999999,0.91393809,-0.39892476,-0.16613727
1764763981.8756104,-3.84552,1.72438,0.1525999999999999,0.91393809,-0.39892476,-0.16613727
1764763981.8756104,-3.84552,1.72438,0.1525999999999999,0.91393809,-0.39892476,-0.16613727
1764763981.8756104,-3.84552,1.72438,0.1525999999999999,0.91393809,-0.39892476,-0.16613727
1764763981.8756104,-3.84552,1.72438,0.1525999999999999,0.91393809,-0.39892476,-0.16613727
1764763981.8756104,-3.5098,1.4497,0.4578,0.91369395,-0.398741655,-0.16589313
1764763981.8756104,-3.5098,1.4497,0.4578,0.91369395,-0.398741655,-0.16589313
1764763981.8756104,-3.5098,1.4497,0.4578,0.91369395,-0.398741655,-0.16589313
1764763981.8756104,-3.5098,1.4497,0.4578,0.91369395,-0.398741655,-0.16589313
1764763981.8756104,-3.5098,1.4497,0.4578,0.91369395,-0.398741655,-0.16589313
1764763981.8756104,-3.5098,1.4497,0.4578,0.91369395,-0.398741655,-0.16589313
1764763981.8756104,-3.5098,1.4497,0.4578,0.91369395,-0.398741655,-0.16589313
1764763981.8756104,-3.5098,1.4497,0.4578,0.91369395,-0.398741655,-0.16589313
1764763981.8756104,-3.5098,1.4497,0.4578,0.91369395,-0.398741655,-0.16589313
1764763981.8756104,-3.5098,1.4497,0.4578,0.91369395,-0.398741655,-0.16589313
1764763981.8756104,-3.32668,0.77826,0.48832,0.91235118,-0.39819234,-0.165710025
1764763981.8756104,-3.32668,0.77826,0.48832,0.91235118,-0.39819234,-0.165710025
1764763981.8756104,-3.32668,0.77826,0.48832,0.91235118,-0.39819234,-0.165710025
1764763981.8756104,-3.32668,0.77826,0.48832,0.91235118,-0.39819234,-0.165710025
1764763981.8756104,-3.32668,0.77826,0.48832,0.91235118,-0.39819234,-0.165710025
1764763981.8756104,-3.32668,0.77826,0.48832,0.91235118,-0.39819234,-0.165710025
1764763981.8756104,-3.32668,0.77826,0.48832,0.91235118,-0.39819234,-0.165710025
1764763981.8756104,-3.32668,0.77826,0.48832,0.91235118,-0.39819234,-0.165710025
1764763981.9224331,-3.32668,0.77826,0.48832,0.91235118,-0.39819234,-0.165710025
1764763981.9224331,-3.32668,0.77826,0.48832,0.91235118,-0.39819234,-0.165710025
1764763981.92346,-3.3572,0.73248,0.1525999999999999,0.911557725,-0.398253375,-0.165710025
1764763981.92346,-3.3572,0.73248,0.1525999999999999,0.911557725,-0.398253375,-0.165710025
1764763981.92346,-3.3572,0.73248,0.1525999999999999,0.911557725,-0.398253375,-0.165710025
1764763981.92346,-3.3572,0.73248,0.1525999999999999,0.911557725,-0.398253375,-0.165710025
1764763981.92346,-3.3572,0.73248,0.1525999999999999,0.911557725,-0.398253375,-0.165710025
1764763981.92346,-3.3572,0.73248,0.1525999999999999,0.911557725,-0.398253375,-0.165710025
1764763981.92346,-3.3572,0.73248,0.1525999999999999,0.911557725,-0.398253375,-0.165710025
1764763981.92346,-3.3572,0.73248,0.1525999999999999,0.911557725,-0.398253375,-0.165710025
1764763981.92346,-3.3572,0.73248,0.1525999999999999,0.911557725,-0.398253375,-0.165710025
1764763981.92346,-3.3572,0.73248,0.1525999999999999,0.911557725,-0.398253375,-0.165710025
1764763981.92346,-3.7387,0.9919,0.6103999999999999,0.913632915,-0.39745992,-0.16589313
1764763981.92346,-3.7387,0.9919,0.6103999999999999,0.913632915,-0.39745992,-0.16589313
1764763981.92346,-3.7387,0.9919,0.6103999999999999,0.913632915,-0.39745992,-0.16589313
1764763981.92346,-3.7387,0.9919,0.6103999999999999,0.913632915,-0.39745992,-0.16589313
1764763981.92346,-3.7387,0.9919,0.6103999999999999,0.913632915,-0.39745992,-0.16589313
1764763981.92346,-3.7387,0.9919,0.6103999999999999,0.913632915,-0.39745992,-0.16589313
1764763981.92346,-3.7387,0.9919,0.6103999999999999,0.913632915,-0.39745992,-0.16589313
1764763981.92346,-3.7387,0.9919,0.6103999999999999,0.913632915,-0.39745992,-0.16589313
1764763981.92346,-3.7387,0.9919,0.6103999999999999,0.913632915,-0.39745992,-0.16589313
1764763981.9244597,-3.7387,0.9919,0.6103999999999999,0.913632915,-0.39745992,-0.16589313
1764763981.971244,-4.3491,1.38866,0.3509799999999999,0.915586035,-0.396544395,-0.16552692
1764763981.971244,-4.3491,1.38866,0.3509799999999999,0.915586035,-0.396544395,-0.16552692
1764763981.971244,-4.3491,1.38866,0.3509799999999999,0.915586035,-0.396544395,-0.16552692
1764763981.971244,-4.3491,1.38866,0.3509799999999999,0.915586035,-0.396544395,-0.16552692
1764763981.9722483,-4.3491,1.38866,0.3509799999999999,0.915586035,-0.396544395,-0.16552692
1764763981.9722483,-4.3491,1.38866,0.3509799999999999,0.915586035,-0.396544395,-0.16552692
1764763981.9722483,-4.3491,1.38866,0.3509799999999999,0.915586035,-0.396544395,-0.16552692
1764763981.9722483,-4.3491,1.38866,0.3509799999999999,0.915586035,-0.396544395,-0.16552692
1764763981.9722483,-4.3491,1.38866,0.3509799999999999,0.915586035,-0.396544395,-0.16552692
1764763981.9727702,-4.3491,1.38866,0.3509799999999999,0.915586035,-0.396544395,-0.16552692
1764763981.9727702,-4.28806,2.31952,0.71722,0.915097755,-0.39721578,-0.164733465
1764763981.9727702,-4.28806,2.31952,0.71722,0.915097755,-0.39721578,-0.164733465
1764763981.9727702,-4.28806,2.31952,0.71722,0.915097755,-0.39721578,-0.164733465
1764763981.9727702,-4.28806,2.31952,0.71722,0.915097755,-0.39721578,-0.164733465
1764763981.9727702,-4.28806,2.31952,0.71722,0.915097755,-0.39721578,-0.164733465
1764763981.9727702,-4.28806,2.31952,0.71722,0.915097755,-0.39721578,-0.164733465
1764763981.9727702,-4.28806,2.31952,0.71722,0.915097755,-0.39721578,-0.164733465
1764763981.9727702,-4.28806,2.31952,0.71722,0.915097755,-0.39721578,-0.164733465
1764763981.9727702,-4.28806,2.31952,0.71722,0.915097755,-0.39721578,-0.164733465
1764763981.9727702,-4.28806,2.31952,0.71722,0.915097755,-0.39721578,-0.164733465
1764763981.9727702,-3.95234,1.99906,0.6867,0.91369395,-0.39770406,-0.165832095
1764763981.9727702,-3.95234,1.99906,0.6867,0.91369395,-0.39770406,-0.165832095
1764763981.9727702,-3.95234,1.99906,0.6867,0.91369395,-0.39770406,-0.165832095
1764763981.9727702,-3.95234,1.99906,0.6867,0.91369395,-0.39770406,-0.165832095
1764763982.016601,-3.95234,1.99906,0.6867,0.91369395,-0.39770406,-0.165832095
1764763982.016601,-3.95234,1.99906,0.6867,0.91369395,-0.39770406,-0.165832095
1764763982.016601,-3.95234,1.99906,0.6867,0.91369395,-0.39770406,-0.165832095
1764763982.016601,-3.95234,1.99906,0.6867,0.91369395,-0.39770406,-0.165832095
1764763982.016601,-3.95234,1.99906,0.6867,0.91369395,-0.39770406,-0.165832095
1764763982.016601,-3.95234,1.99906,0.6867,0.91369395,-0.39770406,-0.165832095
1764763982.016601,-3.9676,0.88508,0.39676,0.91271739,-0.398253375,-0.165954165
1764763982.016601,-3.9676,0.88508,0.39676,0.91271739,-0.398253375,-0.165954165
1764763982.016601,-3.9676,0.88508,0.39676,0.91271739,-0.398253375,-0.165954165
1764763982.016601,-3.9676,0.88508,0.39676,0.91271739,-0.398253375,-0.165954165
1764763982.016601,-3.9676,0.88508,0.39676,0.91271739,-0.398253375,-0.165954165
1764763982.016601,-3.9676,0.88508,0.39676,0.91271739,-0.398253375,-0.165954165
1764763982.016601,-3.9676,0.88508,0.39676,0.91271739,-0.398253375,-0.165954165
1764763982.0176013,-3.9676,0.88508,0.39676,0.91271739,-0.398253375,-0.165954165
1764763982.0176013,-3.9676,0.88508,0.39676,0.91271739,-0.398253375,-0.165954165
1764763982.0176013,-3.9676,0.88508,0.39676,0.91271739,-0.398253375,-0.165954165
1764763982.0176013,-3.87604,0.44254,-0.2289,0.913754985,-0.39770406,-0.16674762
1764763982.0176013,-3.87604,0.44254,-0.2289,0.913754985,-0.39770406,-0.16674762
1764763982.0176013,-3.87604,0.44254,-0.2289,0.913754985,-0.39770406,-0.16674762
1764763982.0176013,-3.87604,0.44254,-0.2289,0.913754985,-0.39770406,-0.16674762
1764763982.0176013,-3.87604,0.44254,-0.2289,0.913754985,-0.39770406,-0.16674762
1764763982.0176013,-3.87604,0.44254,-0.2289,0.913754985,-0.39770406,-0.16674762
1764763982.0632143,-3.87604,0.44254,-0.2289,0.913754985,-0.39770406,-0.16674762
1764763982.0632143,-3.87604,0.44254,-0.2289,0.913754985,-0.39770406,-0.16674762
1764763982.0632143,-3.87604,0.44254,-0.2289,0.913754985,-0.39770406,-0.16674762
1764763982.0632143,-3.87604,0.44254,-0.2289,0.913754985,-0.39770406,-0.16674762
1764763982.0632143,-2.86888,1.61756,0.2289,0.91613535,-0.399229935,-0.16528278
1764763982.0632143,-2.86888,1.61756,0.2289,0.91613535,-0.399229935,-0.16528278
1764763982.0632143,-2.86888,1.61756,0.2289,0.91613535,-0.399229935,-0.16528278
1764763982.0632143,-2.86888,1.61756,0.2289,0.91613535,-0.399229935,-0.16528278
1764763982.0632143,-2.86888,1.61756,0.2289,0.91613535,-0.399229935,-0.16528278
1764763982.0632143,-2.86888,1.61756,0.2289,0.91613535,-0.399229935,-0.16528278
1764763982.0632143,-2.86888,1.61756,0.2289,0.91613535,-0.399229935,-0.16528278
1764763982.0632143,-2.86888,1.61756,0.2289,0.91613535,-0.399229935,-0.16528278
1764763982.0632143,-2.86888,1.61756,0.2289,0.91613535,-0.399229935,-0.16528278
1764763982.0632143,-2.86888,1.61756,0.2289,0.91613535,-0.399229935,-0.16528278
1764763982.0632143,-2.38056,2.45686,0.3815,0.917661225,-0.398131305,-0.16491657
1764763982.0632143,-2.38056,2.45686,0.3815,0.917661225,-0.398131305,-0.16491657
1764763982.0632143,-2.38056,2.45686,0.3815,0.917661225,-0.398131305,-0.16491657
1764763982.0632143,-2.38056,2.45686,0.3815,0.917661225,-0.398131305,-0.16491657
1764763982.0632143,-2.38056,2.45686,0.3815,0.917661225,-0.398131305,-0.16491657
1764763982.0632143,-2.38056,2.45686,0.3815,0.917661225,-0.398131305,-0.16491657
1764763982.0632143,-2.38056,2.45686,0.3815,0.917661225,-0.398131305,-0.16491657
1764763982.0632143,-2.38056,2.45686,0.3815,0.917661225,-0.398131305,-0.16491657
1764763982.0632143,-2.38056,2.45686,0.3815,0.917661225,-0.398131305,-0.16491657
1764763982.0632143,-2.38056,2.45686,0.3815,0.917661225,-0.398131305,-0.16491657
1764763982.107372,-2.01432,2.53316,0.09156,0.916440525,-0.3967275,-0.16442829
1764763982.107372,-2.01432,2.53316,0.09156,0.916440525,-0.3967275,-0.16442829
1764763982.107372,-2.01432,2.53316,0.09156,0.916440525,-0.3967275,-0.16442829
1764763982.107372,-2.01432,2.53316,0.09156,0.916440525,-0.3967275,-0.16442829
1764763982.107372,-2.01432,2.53316,0.09156,0.916440525,-0.3967275,-0.16442829
1764763982.107372,-2.01432,2.53316,0.09156,0.916440525,-0.3967275,-0.16442829
1764763982.107372,-2.01432,2.53316,0.09156,0.916440525,-0.3967275,-0.16442829
1764763982.107372,-2.01432,2.53316,0.09156,0.916440525,-0.3967275,-0.16442829
1764763982.107372,-2.01432,2.53316,0.09156,0.916440525,-0.3967275,-0.16442829
1764763982.107372,-2.01432,2.53316,0.09156,0.916440525,-0.3967275,-0.16442829
1764763982.107372,-2.48738,2.31952,-0.1525999999999999,0.914975685,-0.3967275,-0.164001045
1764763982.107372,-2.48738,2.31952,-0.1525999999999999,0.914975685,-0.3967275,-0.164001045
1764763982.107372,-2.48738,2.31952,-0.1525999999999999,0.914975685,-0.3967275,-0.164001045
1764763982.107372,-2.48738,2.31952,-0.1525999999999999,0.914975685,-0.3967275,-0.164001045
1764763982.107372,-2.48738,2.31952,-0.1525999999999999,0.914975685,-0.3967275,-0.164001045
1764763982.107372,-2.48738,2.31952,-0.1525999999999999,0.914975685,-0.3967275,-0.164001045
1764763982.107372,-2.48738,2.31952,-0.1525999999999999,0.914975685,-0.3967275,-0.164001045
1764763982.107372,-2.48738,2.31952,-0.1525999999999999,0.914975685,-0.3967275,-0.164001045
1764763982.107372,-2.48738,2.31952,-0.1525999999999999,0.914975685,-0.3967275,-0.164001045
1764763982.107372,-2.48738,2.31952,-0.1525999999999999,0.914975685,-0.3967275,-0.164001045
1764763982.107372,-2.48738,1.87698,0.59514,0.91235118,-0.396666465,-0.163512765
1764763982.107372,-2.48738,1.87698,0.59514,0.91235118,-0.396666465,-0.163512765
1764763982.1545155,-2.48738,1.87698,0.59514,0.91235118,-0.396666465,-0.163512765
1764763982.1545155,-2.48738,1.87698,0.59514,0.91235118,-0.396666465,-0.163512765
1764763982.1545155,-2.48738,1.87698,0.59514,0.91235118,-0.396666465,-0.163512765
1764763982.1545155,-2.48738,1.87698,0.59514,0.91235118,-0.396666465,-0.163512765
1764763982.1545155,-2.48738,1.87698,0.59514,0.91235118,-0.396666465,-0.163512765
1764763982.1545155,-2.48738,1.87698,0.59514,0.91235118,-0.396666465,-0.163512765
1764763982.1545155,-2.48738,1.87698,0.59514,0.91235118,-0.396666465,-0.163512765
1764763982.1545155,-2.48738,1.87698,0.59514,0.91235118,-0.396666465,-0.163512765
1764763982.1545155,-2.83836,1.28184,1.31236,0.91210704,-0.395689905,-0.162780345
1764763982.1545155,-2.83836,1.28184,1.31236,0.91210704,-0.395689905,-0.162780345
1764763982.1545155,-2.83836,1.28184,1.31236,0.91210704,-0.395689905,-0.162780345
1764763982.1545155,-2.83836,1.28184,1.31236,0.91210704,-0.395689905,-0.162780345
1764763982.1545155,-2.83836,1.28184,1.31236,0.91210704,-0.395689905,-0.162780345
1764763982.1545155,-2.83836,1.28184,1.31236,0.91210704,-0.395689905,-0.162780345
1764763982.1545155,-2.83836,1.28184,1.31236,0.91210704,-0.395689905,-0.162780345
1764763982.1545155,-2.83836,1.28184,1.31236,0.91210704,-0.395689905,-0.162780345
1764763982.1545155,-2.83836,1.28184,1.31236,0.91210704,-0.395689905,-0.162780345
1764763982.1545155,-2.83836,1.28184,1.31236,0.91210704,-0.395689905,-0.162780345
1764763982.1545155,-3.70818,0.6409199999999999,1.95328,0.91283946,-0.395079555,-0.16271931
1764763982.1545155,-3.70818,0.6409199999999999,1.95328,0.91283946,-0.395079555,-0.16271931
1764763982.1545155,-3.70818,0.6409199999999999,1.95328,0.91283946,-0.395079555,-0.16271931
1764763982.1545155,-3.70818,0.6409199999999999,1.95328,0.91283946,-0.395079555,-0.16271931
1764763982.1545155,-3.70818,0.6409199999999999,1.95328,0.91283946,-0.395079555,-0.16271931
1764763982.1545155,-3.70818,0.6409199999999999,1.95328,0.91283946,-0.395079555,-0.16271931
1764763982.2011771,-3.70818,0.6409199999999999,1.95328,0.91283946,-0.395079555,-0.16271931
1764763982.2011771,-3.70818,0.6409199999999999,1.95328,0.91283946,-0.395079555,-0.16271931
1764763982.2011771,-3.70818,0.6409199999999999,1.95328,0.91283946,-0.395079555,-0.16271931
1764763982.2011771,-3.70818,0.6409199999999999,1.95328,0.91283946,-0.395079555,-0.16271931
1764763982.2011771,-4.822159999999999,0.94612,1.77016,0.91467051,-0.39489645,-0.163512765
1764763982.2011771,-4.822159999999999,0.94612,1.77016,0.91467051,-0.39489645,-0.163512765
1764763982.2011771,-4.822159999999999,0.94612,1.77016,0.91467051,-0.39489645,-0.163512765
1764763982.2011771,-4.822159999999999,0.94612,1.77016,0.91467051,-0.39489645,-0.163512765
1764763982.2011771,-4.822159999999999,0.94612,1.77016,0.91467051,-0.39489645,-0.163512765
1764763982.2011771,-4.822159999999999,0.94612,1.77016,0.91467051,-0.39489645,-0.163512765
1764763982.202712,-4.822159999999999,0.94612,1.77016,0.91467051,-0.39489645,-0.163512765
1764763982.202712,-4.822159999999999,0.94612,1.77016,0.91467051,-0.39489645,-0.163512765
1764763982.202712,-4.822159999999999,0.94612,1.77016,0.91467051,-0.39489645,-0.163512765
1764763982.202712,-4.822159999999999,0.94612,1.77016,0.91467051,-0.39489645,-0.163512765
1764763982.202712,-5.17314,1.26658,2.48738,0.91589121,-0.396056115,-0.163024485
1764763982.202712,-5.17314,1.26658,2.48738,0.91589121,-0.396056115,-0.163024485
1764763982.202712,-5.17314,1.26658,2.48738,0.91589121,-0.396056115,-0.163024485
1764763982.202712,-5.17314,1.26658,2.48738,0.91589121,-0.396056115,-0.163024485
1764763982.2037408,-5.17314,1.26658,2.48738,0.91589121,-0.396056115,-0.163024485
1764763982.2037408,-5.17314,1.26658,2.48738,0.91589121,-0.396056115,-0.163024485
1764763982.2037408,-5.17314,1.26658,2.48738,0.91589121,-0.396056115,-0.163024485
1764763982.2037408,-5.17314,1.26658,2.48738,0.91589121,-0.396056115,-0.163024485
1764763982.2472255,-5.17314,1.26658,2.48738,0.91589121,-0.396056115,-0.163024485
1764763982.2472255,-5.17314,1.26658,2.48738,0.91589121,-0.396056115,-0.163024485
1764763982.2472255,-4.47118,1.48022,3.61662,0.91454844,-0.39904683,-0.163024485
1764763982.2472255,-4.47118,1.48022,3.61662,0.91454844,-0.39904683,-0.163024485
1764763982.2472255,-4.47118,1.48022,3.61662,0.91454844,-0.39904683,-0.163024485
1764763982.2472255,-4.47118,1.48022,3.61662,0.91454844,-0.39904683,-0.163024485
1764763982.2472255,-4.47118,1.48022,3.61662,0.91454844,-0.39904683,-0.163024485
1764763982.2472255,-4.47118,1.48022,3.61662,0.91454844,-0.39904683,-0.163024485
1764763982.2472255,-4.47118,1.48022,3.61662,0.91454844,-0.39904683,-0.163024485
1764763982.2472255,-4.47118,1.48022,3.61662,0.91454844,-0.39904683,-0.163024485
1764763982.2472255,-4.47118,1.48022,3.61662,0.91454844,-0.39904683,-0.163024485
1764763982.2472255,-4.47118,1.48022,3.61662,0.91454844,-0.39904683,-0.163024485
1764763982.2472255,-4.60852,0.27468,3.14356,0.910092885,-0.39855855,-0.164489325
1764763982.2472255,-4.60852,0.27468,3.14356,0.910092885,-0.39855855,-0.164489325
1764763982.2472255,-4.60852,0.27468,3.14356,0.910092885,-0.39855855,-0.164489325
1764763982.2472255,-4.60852,0.27468,3.14356,0.910092885,-0.39855855,-0.164489325
1764763982.2472255,-4.60852,0.27468,3.14356,0.910092885,-0.39855855,-0.164489325
1764763982.2472255,-4.60852,0.27468,3.14356,0.910092885,-0.39855855,-0.164489325
1764763982.2472255,-4.60852,0.27468,3.14356,0.910092885,-0.39855855,-0.164489325
1764763982.2472255,-4.60852,0.27468,3.14356,0.910092885,-0.39855855,-0.164489325
1764763982.2472255,-4.60852,0.27468,3.14356,0.910092885,-0.39855855,-0.164489325
