Timestamp,GyroX,GyroY,GyroZ,AccX,AccY,AccZ
1764762887.618989,0.12208,0.9919,0.13734,-0.8939186100000001,0.39379782,-0.21935979
1764762887.618989,0.12208,0.9919,0.13734,-0.8939186100000001,0.39379782,-0.21935979
1764762887.618989,0.12208,0.9919,0.13734,-0.8939186100000001,0.39379782,-0.21935979
1764762887.618989,0.12208,0.9919,0.13734,-0.8939186100000001,0.39379782,-0.21935979
1764762887.618989,0.12208,0.9919,0.13734,-0.8939186100000001,0.39379782,-0.21935979
1764762887.618989,0.12208,0.9919,0.13734,-0.8939186100000001,0.39379782,-0.21935979
1764762887.6200018,-1.54126,0.74774,-0.3357199999999999,-0.893491365,0.39391989,-0.21923772
1764762887.6200018,-1.54126,0.74774,-0.3357199999999999,-0.893491365,0.39391989,-0.21923772
1764762887.6200018,-1.54126,0.74774,-0.3357199999999999,-0.893491365,0.39391989,-0.21923772
1764762887.6200018,-1.54126,0.74774,-0.3357199999999999,-0.893491365,0.39391989,-0.21923772
1764762887.6200018,-1.54126,0.74774,-0.3357199999999999,-0.893491365,0.39391989,-0.21923772
1764762887.6200018,-1.54126,0.74774,-0.3357199999999999,-0.893491365,0.39391989,-0.21923772
1764762887.6200018,-1.54126,0.74774,-0.3357199999999999,-0.893491365,0.39391989,-0.21923772
1764762887.6200018,-1.54126,0.74774,-0.3357199999999999,-0.893491365,0.39391989,-0.21923772
1764762887.6200018,-1.54126,0.74774,-0.3357199999999999,-0.893491365,0.39391989,-0.21923772
1764762887.6200018,-1.54126,0.74774,-0.3357199999999999,-0.893491365,0.39391989,-0.21923772
1764762887.6200018,-3.29616,1.35814,-0.3509799999999999,-0.89220963,0.39343161,-0.219726
1764762887.6200018,-3.29616,1.35814,-0.3509799999999999,-0.89220963,0.39343161,-0.219726
1764762887.6200018,-3.29616,1.35814,-0.3509799999999999,-0.89220963,0.39343161,-0.219726
1764762887.6200018,-3.29616,1.35814,-0.3509799999999999,-0.89220963,0.39343161,-0.219726
1764762887.6200018,-3.29616,1.35814,-0.3509799999999999,-0.89220963,0.39343161,-0.219726
1764762887.6200018,-3.29616,1.35814,-0.3509799999999999,-0.89220963,0.39343161,-0.219726
1764762887.6663349,-3.29616,1.35814,-0.3509799999999999,-0.89220963,0.39343161,-0.219726
1764762887.6663349,-3.29616,1.35814,-0.3509799999999999,-0.89220963,0.39343161,-0.219726
1764762887.6663349,-3.29616,1.35814,-0.3509799999999999,-0.89220963,0.39343161,-0.219726
1764762887.6663349,-3.29616,1.35814,-0.3509799999999999,-0.89220963,0.39343161,-0.219726
1764762887.6663349,-4.3491,2.54842,-0.59514,-0.88952409,0.391539525,-0.21789495
1764762887.66769,-4.3491,2.54842,-0.59514,-0.88952409,0.391539525,-0.21789495
1764762887.66769,-4.3491,2.54842,-0.59514,-0.88952409,0.391539525,-0.21789495
1764762887.66769,-4.3491,2.54842,-0.59514,-0.88952409,0.391539525,-0.21789495
1764762887.66769,-4.3491,2.54842,-0.59514,-0.88952409,0.391539525,-0.21789495
1764762887.66769,-4.3491,2.54842,-0.59514,-0.88952409,0.391539525,-0.21789495
1764762887.66769,-4.3491,2.54842,-0.59514,-0.88952409,0.391539525,-0.21789495
1764762887.66769,-4.3491,2.54842,-0.59514,-0.88952409,0.391539525,-0.21789495
1764762887.668224,-4.3491,2.54842,-0.59514,-0.88952409,0.391539525,-0.21789495
1764762887.668224,-4.3491,2.54842,-0.59514,-0.88952409,0.391539525,-0.21789495
1764762887.668224,-4.28806,3.2809,-0.8698199999999999,-0.88757097,0.390074685,-0.215880795
1764762887.668224,-4.28806,3.2809,-0.8698199999999999,-0.88757097,0.390074685,-0.215880795
1764762887.668224,-4.28806,3.2809,-0.8698199999999999,-0.88757097,0.390074685,-0.215880795
1764762887.668224,-4.28806,3.2809,-0.8698199999999999,-0.88757097,0.390074685,-0.215880795
1764762887.6686907,-4.28806,3.2809,-0.8698199999999999,-0.88757097,0.390074685,-0.215880795
1764762887.6686907,-4.28806,3.2809,-0.8698199999999999,-0.88757097,0.390074685,-0.215880795
1764762887.6686907,-4.28806,3.2809,-0.8698199999999999,-0.88757097,0.390074685,-0.215880795
1764762887.6686907,-4.28806,3.2809,-0.8698199999999999,-0.88757097,0.390074685,-0.215880795
1764762887.6686907,-4.28806,3.2809,-0.8698199999999999,-0.88757097,0.390074685,-0.215880795
1764762887.6686907,-4.28806,3.2809,-0.8698199999999999,-0.88757097,0.390074685,-0.215880795
1764762887.7123857,-4.852679999999999,4.74586,-0.65618,-0.8876320050000001,0.389708475,-0.214415955
1764762887.7123857,-4.852679999999999,4.74586,-0.65618,-0.8876320050000001,0.389708475,-0.214415955
1764762887.7123857,-4.852679999999999,4.74586,-0.65618,-0.8876320050000001,0.389708475,-0.214415955
1764762887.7123857,-4.852679999999999,4.74586,-0.65618,-0.8876320050000001,0.389708475,-0.214415955
1764762887.7123857,-4.852679999999999,4.74586,-0.65618,-0.8876320050000001,0.389708475,-0.214415955
1764762887.7123857,-4.852679999999999,4.74586,-0.65618,-0.8876320050000001,0.389708475,-0.214415955
1764762887.7123857,-4.852679999999999,4.74586,-0.65618,-0.8876320050000001,0.389708475,-0.214415955
1764762887.7123857,-4.852679999999999,4.74586,-0.65618,-0.8876320050000001,0.389708475,-0.214415955
1764762887.7123857,-4.852679999999999,4.74586,-0.65618,-0.8876320050000001,0.389708475,-0.214415955
1764762887.7123857,-4.852679999999999,4.74586,-0.65618,-0.8876320050000001,0.389708475,-0.214415955
1764762887.7123857,-5.1884,6.45498,-0.3051999999999999,-0.888730635,0.389098125,-0.213439395
1764762887.7123857,-5.1884,6.45498,-0.3051999999999999,-0.888730635,0.389098125,-0.213439395
1764762887.7123857,-5.1884,6.45498,-0.3051999999999999,-0.888730635,0.389098125,-0.213439395
1764762887.7123857,-5.1884,6.45498,-0.3051999999999999,-0.888730635,0.389098125,-0.213439395
1764762887.7123857,-5.1884,6.45498,-0.3051999999999999,-0.888730635,0.389098125,-0.213439395
1764762887.7123857,-5.1884,6.45498,-0.3051999999999999,-0.888730635,0.389098125,-0.213439395
1764762887.7123857,-5.1884,6.45498,-0.3051999999999999,-0.888730635,0.389098125,-0.213439395
1764762887.7123857,-5.1884,6.45498,-0.3051999999999999,-0.888730635,0.389098125,-0.213439395
1764762887.7123857,-5.1884,6.45498,-0.3051999999999999,-0.888730635,0.389098125,-0.213439395
1764762887.7123857,-5.1884,6.45498,-0.3051999999999999,-0.888730635,0.389098125,-0.213439395
1764762887.7598112,-3.90656,6.74492,0.28994,-0.89269791,0.38793846,-0.21289008
1764762887.7598112,-3.90656,6.74492,0.28994,-0.89269791,0.38793846,-0.21289008
1764762887.7603374,-3.90656,6.74492,0.28994,-0.89269791,0.38793846,-0.21289008
1764762887.7603374,-3.90656,6.74492,0.28994,-0.89269791,0.38793846,-0.21289008
1764762887.7603374,-3.90656,6.74492,0.28994,-0.89269791,0.38793846,-0.21289008
1764762887.7603374,-3.90656,6.74492,0.28994,-0.89269791,0.38793846,-0.21289008
1764762887.7603374,-3.90656,6.74492,0.28994,-0.89269791,0.38793846,-0.21289008
1764762887.7603374,-3.90656,6.74492,0.28994,-0.89269791,0.38793846,-0.21289008
1764762887.7603374,-3.90656,6.74492,0.28994,-0.89269791,0.38793846,-0.21289008
1764762887.7603374,-3.90656,6.74492,0.28994,-0.89269791,0.38793846,-0.21289008
1764762887.7603374,-2.96044,6.07348,1.32762,-0.894712065,0.38793846,-0.21191352
1764762887.7603374,-2.96044,6.07348,1.32762,-0.894712065,0.38793846,-0.21191352
1764762887.7603374,-2.96044,6.07348,1.32762,-0.894712065,0.38793846,-0.21191352
1764762887.761349,-2.96044,6.07348,1.32762,-0.894712065,0.38793846,-0.21191352
1764762887.761349,-2.96044,6.07348,1.32762,-0.894712065,0.38793846,-0.21191352
1764762887.761349,-2.96044,6.07348,1.32762,-0.894712065,0.38793846,-0.21191352
1764762887.761349,-2.96044,6.07348,1.32762,-0.894712065,0.38793846,-0.21191352
1764762887.761349,-2.96044,6.07348,1.32762,-0.894712065,0.38793846,-0.21191352
1764762887.761349,-2.96044,6.07348,1.32762,-0.894712065,0.38793846,-0.21191352
1764762887.761349,-2.96044,6.07348,1.32762,-0.894712065,0.38793846,-0.21191352
1764762887.761349,-2.65524,5.84458,1.526,-0.89294205,0.385313955,-0.212462835
1764762887.761349,-2.65524,5.84458,1.526,-0.89294205,0.385313955,-0.212462835
1764762887.761349,-2.65524,5.84458,1.526,-0.89294205,0.385313955,-0.212462835
1764762887.761349,-2.65524,5.84458,1.526,-0.89294205,0.385313955,-0.212462835
1764762887.8046348,-2.65524,5.84458,1.526,-0.89294205,0.385313955,-0.212462835
1764762887.8046348,-2.65524,5.84458,1.526,-0.89294205,0.385313955,-0.212462835
1764762887.8046348,-2.65524,5.84458,1.526,-0.89294205,0.385313955,-0.212462835
1764762887.8046348,-2.65524,5.84458,1.526,-0.89294205,0.385313955,-0.212462835
1764762887.8046348,-2.65524,5.84458,1.526,-0.89294205,0.385313955,-0.212462835
1764762887.8046348,-2.65524,5.84458,1.526,-0.89294205,0.385313955,-0.212462835
1764762887.8046348,-3.7387,6.01244,0.47306,-0.89062272,0.38537499,-0.213805605
1764762887.8046348,-3.7387,6.01244,0.47306,-0.89062272,0.38537499,-0.213805605
1764762887.8046348,-3.7387,6.01244,0.47306,-0.89062272,0.38537499,-0.213805605
1764762887.8046348,-3.7387,6.01244,0.47306,-0.89062272,0.38537499,-0.213805605
1764762887.8046348,-3.7387,6.01244,0.47306,-0.89062272,0.38537499,-0.213805605
1764762887.8046348,-3.7387,6.01244,0.47306,-0.89062272,0.38537499,-0.213805605
1764762887.8046348,-3.7387,6.01244,0.47306,-0.89062272,0.38537499,-0.213805605
1764762887.8046348,-3.7387,6.01244,0.47306,-0.89062272,0.38537499,-0.213805605
1764762887.8062024,-3.7387,6.01244,0.47306,-0.89062272,0.38537499,-0.213805605
1764762887.8062024,-3.7387,6.01244,0.47306,-0.89062272,0.38537499,-0.213805605
1764762887.8062024,-3.95234,4.13546,0.41202,-0.89086686,0.3869619,-0.214293885
1764762887.8062024,-3.95234,4.13546,0.41202,-0.89086686,0.3869619,-0.214293885
1764762887.8062024,-3.95234,4.13546,0.41202,-0.89086686,0.3869619,-0.214293885
1764762887.8062024,-3.95234,4.13546,0.41202,-0.89086686,0.3869619,-0.214293885
1764762887.8062024,-3.95234,4.13546,0.41202,-0.89086686,0.3869619,-0.214293885
1764762887.8062024,-3.95234,4.13546,0.41202,-0.89086686,0.3869619,-0.214293885
1764762887.8062024,-3.95234,4.13546,0.41202,-0.89086686,0.3869619,-0.214293885
1764762887.8062024,-3.95234,4.13546,0.41202,-0.89086686,0.3869619,-0.214293885
1764762887.8533747,-3.95234,4.13546,0.41202,-0.89086686,0.3869619,-0.214293885
1764762887.8533747,-3.95234,4.13546,0.41202,-0.89086686,0.3869619,-0.214293885
1764762887.8533747,-3.31142,3.4335,0.42728,-0.8917823850000001,0.38806053,-0.21191352
1764762887.8533747,-3.31142,3.4335,0.42728,-0.8917823850000001,0.38806053,-0.21191352
1764762887.8533747,-3.31142,3.4335,0.42728,-0.8917823850000001,0.38806053,-0.21191352
1764762887.8533747,-3.31142,3.4335,0.42728,-0.8917823850000001,0.38806053,-0.21191352
1764762887.8533747,-3.31142,3.4335,0.42728,-0.8917823850000001,0.38806053,-0.21191352
1764762887.8533747,-3.31142,3.4335,0.42728,-0.8917823850000001,0.38806053,-0.21191352
1764762887.8538826,-3.31142,3.4335,0.42728,-0.8917823850000001,0.38806053,-0.21191352
1764762887.8538826,-3.31142,3.4335,0.42728,-0.8917823850000001,0.38806053,-0.21191352
1764762887.8538826,-3.31142,3.4335,0.42728,-0.8917823850000001,0.38806053,-0.21191352
1764762887.8538826,-3.31142,3.4335,0.42728,-0.8917823850000001,0.38806053,-0.21191352
1764762887.9008458,-1.08346,2.71628,-0.7019599999999999,-0.8917823850000001,0.38635155,-0.210143505
1764762887.9008458,-1.08346,2.71628,-0.7019599999999999,-0.8917823850000001,0.38635155,-0.210143505
1764762887.9008458,-1.08346,2.71628,-0.7019599999999999,-0.8917823850000001,0.38635155,-0.210143505
1764762887.9008458,-1.08346,2.71628,-0.7019599999999999,-0.8917823850000001,0.38635155,-0.210143505
1764762887.9008458,-1.08346,2.71628,-0.7019599999999999,-0.8917823850000001,0.38635155,-0.210143505
1764762887.9008458,-1.08346,2.71628,-0.7019599999999999,-0.8917823850000001,0.38635155,-0.210143505
1764762887.9008458,-1.08346,2.71628,-0.7019599999999999,-0.8917823850000001,0.38635155,-0.210143505
1764762887.9008458,-1.08346,2.71628,-0.7019599999999999,-0.8917823850000001,0.38635155,-0.210143505
1764762887.9008458,-1.08346,2.71628,-0.7019599999999999,-0.8917823850000001,0.38635155,-0.210143505
1764762887.9008458,-1.08346,2.71628,-0.7019599999999999,-0.8917823850000001,0.38635155,-0.210143505
1764762887.9008458,0.8087799999999999,2.16692,-0.39676,-0.89159928,0.38342187,-0.20983833
1764762887.9008458,0.8087799999999999,2.16692,-0.39676,-0.89159928,0.38342187,-0.20983833
1764762887.9008458,0.8087799999999999,2.16692,-0.39676,-0.89159928,0.38342187,-0.20983833
1764762887.9008458,0.8087799999999999,2.16692,-0.39676,-0.89159928,0.38342187,-0.20983833
1764762887.9008458,0.8087799999999999,2.16692,-0.39676,-0.89159928,0.38342187,-0.20983833
1764762887.9008458,0.8087799999999999,2.16692,-0.39676,-0.89159928,0.38342187,-0.20983833
1764762887.9008458,0.8087799999999999,2.16692,-0.39676,-0.89159928,0.38342187,-0.20983833
1764762887.9008458,0.8087799999999999,2.16692,-0.39676,-0.89159928,0.38342187,-0.20983833
1764762887.9008458,0.8087799999999999,2.16692,-0.39676,-0.89159928,0.38342187,-0.20983833
1764762887.9008458,0.8087799999999999,2.16692,-0.39676,-0.89159928,0.38342187,-0.20983833
1764762887.9008458,1.92276,2.15166,0.9919,-0.89294205,0.38378808,-0.21008247
1764762887.9008458,1.92276,2.15166,0.9919,-0.89294205,0.38378808,-0.21008247
1764762887.9008458,1.92276,2.15166,0.9919,-0.89294205,0.38378808,-0.21008247
1764762887.9008458,1.92276,2.15166,0.9919,-0.89294205,0.38378808,-0.21008247
1764762887.9008458,1.92276,2.15166,0.9919,-0.89294205,0.38378808,-0.21008247
1764762887.9008458,1.92276,2.15166,0.9919,-0.89294205,0.38378808,-0.21008247
1764762887.9008458,1.92276,2.15166,0.9919,-0.89294205,0.38378808,-0.21008247
1764762887.9008458,1.92276,2.15166,0.9919,-0.89294205,0.38378808,-0.21008247
1764762887.9018612,1.92276,2.15166,0.9919,-0.89294205,0.38378808,-0.21008247
1764762887.9018612,1.92276,2.15166,0.9919,-0.89294205,0.38378808,-0.21008247
1764762887.9018612,2.71628,2.10588,0.73248,-0.892636875,0.38561913,-0.210509715
1764762887.9018612,2.71628,2.10588,0.73248,-0.892636875,0.38561913,-0.210509715
1764762887.9018612,2.71628,2.10588,0.73248,-0.892636875,0.38561913,-0.210509715
1764762887.9018612,2.71628,2.10588,0.73248,-0.892636875,0.38561913,-0.210509715
1764762887.9018612,2.71628,2.10588,0.73248,-0.892636875,0.38561913,-0.210509715
1764762887.9018612,2.71628,2.10588,0.73248,-0.892636875,0.38561913,-0.210509715
1764762887.9452095,2.71628,2.10588,0.73248,-0.892636875,0.38561913,-0.210509715
1764762887.9452095,2.71628,2.10588,0.73248,-0.892636875,0.38561913,-0.210509715
1764762887.9452095,2.71628,2.10588,0.73248,-0.892636875,0.38561913,-0.210509715
1764762887.9452095,2.71628,2.10588,0.73248,-0.892636875,0.38561913,-0.210509715
1764762887.9452095,2.10588,2.24322,0.8392999999999999,-0.89220963,0.386534655,-0.21179145
1764762887.9452095,2.10588,2.24322,0.8392999999999999,-0.89220963,0.386534655,-0.21179145
1764762887.9452095,2.10588,2.24322,0.8392999999999999,-0.89220963,0.386534655,-0.21179145
1764762887.9452095,2.10588,2.24322,0.8392999999999999,-0.89220963,0.386534655,-0.21179145
1764762887.9452095,2.10588,2.24322,0.8392999999999999,-0.89220963,0.386534655,-0.21179145
1764762887.9457388,2.10588,2.24322,0.8392999999999999,-0.89220963,0.386534655,-0.21179145
1764762887.9457388,2.10588,2.24322,0.8392999999999999,-0.89220963,0.386534655,-0.21179145
1764762887.9457388,2.10588,2.24322,0.8392999999999999,-0.89220963,0.386534655,-0.21179145
1764762887.9457388,2.10588,2.24322,0.8392999999999999,-0.89220963,0.386534655,-0.21179145
1764762887.9457388,2.10588,2.24322,0.8392999999999999,-0.89220963,0.386534655,-0.21179145
1764762887.9457388,1.23606,2.73154,0.48832,-0.891172035,0.38879295,-0.21313422
1764762887.9457388,1.23606,2.73154,0.48832,-0.891172035,0.38879295,-0.21313422
1764762887.9457388,1.23606,2.73154,0.48832,-0.891172035,0.38879295,-0.21313422
1764762887.9457388,1.23606,2.73154,0.48832,-0.891172035,0.38879295,-0.21313422
1764762887.992479,1.23606,2.73154,0.48832,-0.891172035,0.38879295,-0.21313422
1764762887.992479,1.23606,2.73154,0.48832,-0.891172035,0.38879295,-0.21313422
1764762887.992479,1.23606,2.73154,0.48832,-0.891172035,0.38879295,-0.21313422
1764762887.992479,1.23606,2.73154,0.48832,-0.891172035,0.38879295,-0.21313422
1764762887.992479,1.23606,2.73154,0.48832,-0.891172035,0.38879295,-0.21313422
1764762887.992479,1.23606,2.73154,0.48832,-0.891172035,0.38879295,-0.21313422
1764762887.9940193,0.41202,2.7468,0.93086,-0.890683755,0.39099021,-0.2148432
1764762887.9940193,0.41202,2.7468,0.93086,-0.890683755,0.39099021,-0.2148432
1764762887.9940193,0.41202,2.7468,0.93086,-0.890683755,0.39099021,-0.2148432
1764762887.9940193,0.41202,2.7468,0.93086,-0.890683755,0.39099021,-0.2148432
1764762887.9940193,0.41202,2.7468,0.93086,-0.890683755,0.39099021,-0.2148432
1764762887.9940193,0.41202,2.7468,0.93086,-0.890683755,0.39099021,-0.2148432
1764762887.9940193,0.41202,2.7468,0.93086,-0.890683755,0.39099021,-0.2148432
1764762887.9940193,0.41202,2.7468,0.93086,-0.890683755,0.39099021,-0.2148432
1764762887.9940193,0.41202,2.7468,0.93086,-0.890683755,0.39099021,-0.2148432
1764762887.9940193,0.41202,2.7468,0.93086,-0.890683755,0.39099021,-0.2148432
1764762887.9940193,-0.25942,4.5017,0.51884,-0.890073405,0.389342265,-0.21423285
1764762887.9940193,-0.25942,4.5017,0.51884,-0.890073405,0.389342265,-0.21423285
1764762887.9940193,-0.25942,4.5017,0.51884,-0.890073405,0.389342265,-0.21423285
1764762887.995029,-0.25942,4.5017,0.51884,-0.890073405,0.389342265,-0.21423285
1764762887.995029,-0.25942,4.5017,0.51884,-0.890073405,0.389342265,-0.21423285
1764762887.995029,-0.25942,4.5017,0.51884,-0.890073405,0.389342265,-0.21423285
1764762887.995029,-0.25942,4.5017,0.51884,-0.890073405,0.389342265,-0.21423285
1764762887.995029,-0.25942,4.5017,0.51884,-0.890073405,0.389342265,-0.21423285
1764762887.995029,-0.25942,4.5017,0.51884,-0.890073405,0.389342265,-0.21423285
1764762887.995029,-0.25942,4.5017,0.51884,-0.890073405,0.389342265,-0.21423285
1764762887.995029,0.09156,7.721559999999999,0.0,-0.888730635,0.387755355,-0.21435492
1764762887.995029,0.09156,7.721559999999999,0.0,-0.888730635,0.387755355,-0.21435492
1764762887.995029,0.09156,7.721559999999999,0.0,-0.888730635,0.387755355,-0.21435492
1764762887.995029,0.09156,7.721559999999999,0.0,-0.888730635,0.387755355,-0.21435492
1764762888.040878,0.09156,7.721559999999999,0.0,-0.888730635,0.387755355,-0.21435492
1764762888.040878,0.09156,7.721559999999999,0.0,-0.888730635,0.387755355,-0.21435492
1764762888.040878,0.09156,7.721559999999999,0.0,-0.888730635,0.387755355,-0.21435492
1764762888.040878,0.09156,7.721559999999999,0.0,-0.888730635,0.387755355,-0.21435492
1764762888.040878,0.09156,7.721559999999999,0.0,-0.888730635,0.387755355,-0.21435492
1764762888.040878,0.09156,7.721559999999999,0.0,-0.888730635,0.387755355,-0.21435492
1764762888.040878,-0.41202,7.3248,0.24416,-0.889951335,0.38854881,-0.214660095
1764762888.040878,-0.41202,7.3248,0.24416,-0.889951335,0.38854881,-0.214660095
1764762888.040878,-0.41202,7.3248,0.24416,-0.889951335,0.38854881,-0.214660095
1764762888.040878,-0.41202,7.3248,0.24416,-0.889951335,0.38854881,-0.214660095
1764762888.040878,-0.41202,7.3248,0.24416,-0.889951335,0.38854881,-0.214660095
1764762888.040878,-0.41202,7.3248,0.24416,-0.889951335,0.38854881,-0.214660095
1764762888.040878,-0.41202,7.3248,0.24416,-0.889951335,0.38854881,-0.214660095
1764762888.040878,-0.41202,7.3248,0.24416,-0.889951335,0.38854881,-0.214660095
1764762888.040878,-0.41202,7.3248,0.24416,-0.889951335,0.38854881,-0.214660095
1764762888.040878,-0.41202,7.3248,0.24416,-0.889951335,0.38854881,-0.214660095
1764762888.0413847,-1.11398,6.47024,0.13734,-0.890561685,0.39050193,-0.21520941
1764762888.0413847,-1.11398,6.47024,0.13734,-0.890561685,0.39050193,-0.21520941
1764762888.0413847,-1.11398,6.47024,0.13734,-0.890561685,0.39050193,-0.21520941
1764762888.0413847,-1.11398,6.47024,0.13734,-0.890561685,0.39050193,-0.21520941
1764762888.0413847,-1.11398,6.47024,0.13734,-0.890561685,0.39050193,-0.21520941
1764762888.0413847,-1.11398,6.47024,0.13734,-0.890561685,0.39050193,-0.21520941
1764762888.0882022,-1.11398,6.47024,0.13734,-0.890561685,0.39050193,-0.21520941
1764762888.0882022,-1.11398,6.47024,0.13734,-0.890561685,0.39050193,-0.21520941
1764762888.0882022,-1.11398,6.47024,0.13734,-0.890561685,0.39050193,-0.21520941
1764762888.0882022,-1.11398,6.47024,0.13734,-0.890561685,0.39050193,-0.21520941
1764762888.0882022,-2.4416,5.8751,0.36624,-0.890927895,0.391051245,-0.21655218
1764762888.0882022,-2.4416,5.8751,0.36624,-0.890927895,0.391051245,-0.21655218
1764762888.0882022,-2.4416,5.8751,0.36624,-0.890927895,0.391051245,-0.21655218
1764762888.0882022,-2.4416,5.8751,0.36624,-0.890927895,0.391051245,-0.21655218
1764762888.0882022,-2.4416,5.8751,0.36624,-0.890927895,0.391051245,-0.21655218
1764762888.0882022,-2.4416,5.8751,0.36624,-0.890927895,0.391051245,-0.21655218
1764762888.0887115,-2.4416,5.8751,0.36624,-0.890927895,0.391051245,-0.21655218
1764762888.0887115,-2.4416,5.8751,0.36624,-0.890927895,0.391051245,-0.21655218
1764762888.0887115,-2.4416,5.8751,0.36624,-0.890927895,0.391051245,-0.21655218
1764762888.0887115,-2.4416,5.8751,0.36624,-0.890927895,0.391051245,-0.21655218
1764762888.0887115,-2.9757,4.822159999999999,0.28994,-0.89196549,0.390440895,-0.21594183
1764762888.0887115,-2.9757,4.822159999999999,0.28994,-0.89196549,0.390440895,-0.21594183
1764762888.0887115,-2.9757,4.822159999999999,0.28994,-0.89196549,0.390440895,-0.21594183
1764762888.0887115,-2.9757,4.822159999999999,0.28994,-0.89196549,0.390440895,-0.21594183
1764762888.0887115,-2.9757,4.822159999999999,0.28994,-0.89196549,0.390440895,-0.21594183
1764762888.0887115,-2.9757,4.822159999999999,0.28994,-0.89196549,0.390440895,-0.21594183
1764762888.0887115,-2.9757,4.822159999999999,0.28994,-0.89196549,0.390440895,-0.21594183
1764762888.0887115,-2.9757,4.822159999999999,0.28994,-0.89196549,0.390440895,-0.21594183
1764762888.0887115,-2.9757,4.822159999999999,0.28994,-0.89196549,0.390440895,-0.21594183
1764762888.0887115,-2.9757,4.822159999999999,0.28994,-0.89196549,0.390440895,-0.21594183
1764762888.0887115,-3.15882,4.25754,-0.1525999999999999,-0.89135514,0.389220195,-0.216491145
1764762888.0887115,-3.15882,4.25754,-0.1525999999999999,-0.89135514,0.389220195,-0.216491145
1764762888.135398,-3.15882,4.25754,-0.1525999999999999,-0.89135514,0.389220195,-0.216491145
1764762888.135398,-3.15882,4.25754,-0.1525999999999999,-0.89135514,0.389220195,-0.216491145
1764762888.135398,-3.15882,4.25754,-0.1525999999999999,-0.89135514,0.389220195,-0.216491145
1764762888.135398,-3.15882,4.25754,-0.1525999999999999,-0.89135514,0.389220195,-0.216491145
1764762888.135398,-3.15882,4.25754,-0.1525999999999999,-0.89135514,0.389220195,-0.216491145
1764762888.135398,-3.15882,4.25754,-0.1525999999999999,-0.89135514,0.389220195,-0.216491145
1764762888.135398,-3.15882,4.25754,-0.1525999999999999,-0.89135514,0.389220195,-0.216491145
1764762888.135398,-3.15882,4.25754,-0.1525999999999999,-0.89135514,0.389220195,-0.216491145
1764762888.135398,-2.68576,3.03674,-0.01526,-0.892026525,0.387145005,-0.21594183
1764762888.135398,-2.68576,3.03674,-0.01526,-0.892026525,0.387145005,-0.21594183
1764762888.135398,-2.68576,3.03674,-0.01526,-0.892026525,0.387145005,-0.21594183
1764762888.135398,-2.68576,3.03674,-0.01526,-0.892026525,0.387145005,-0.21594183
1764762888.135398,-2.68576,3.03674,-0.01526,-0.892026525,0.387145005,-0.21594183
1764762888.135398,-2.68576,3.03674,-0.01526,-0.892026525,0.387145005,-0.21594183
1764762888.135398,-2.68576,3.03674,-0.01526,-0.892026525,0.387145005,-0.21594183
1764762888.135398,-2.68576,3.03674,-0.01526,-0.892026525,0.387145005,-0.21594183
1764762888.135398,-2.68576,3.03674,-0.01526,-0.892026525,0.387145005,-0.21594183
1764762888.135398,-2.68576,3.03674,-0.01526,-0.892026525,0.387145005,-0.21594183
1764762888.135398,-1.48022,1.81594,0.97664,-0.8949562050000001,0.38671776,-0.21472113
1764762888.135398,-1.48022,1.81594,0.97664,-0.8949562050000001,0.38671776,-0.21472113
1764762888.182782,-1.48022,1.81594,0.97664,-0.8949562050000001,0.38671776,-0.21472113
1764762888.182782,-1.48022,1.81594,0.97664,-0.8949562050000001,0.38671776,-0.21472113
1764762888.182782,-1.48022,1.81594,0.97664,-0.8949562050000001,0.38671776,-0.21472113
1764762888.182782,-1.48022,1.81594,0.97664,-0.8949562050000001,0.38671776,-0.21472113
1764762888.182782,-1.48022,1.81594,0.97664,-0.8949562050000001,0.38671776,-0.21472113
1764762888.182782,-1.48022,1.81594,0.97664,-0.8949562050000001,0.38671776,-0.21472113
1764762888.182782,-1.48022,1.81594,0.97664,-0.8949562050000001,0.38671776,-0.21472113
1764762888.182782,-1.48022,1.81594,0.97664,-0.8949562050000001,0.38671776,-0.21472113
1764762888.182782,-0.06104,1.4497,0.77826,-0.8933692950000001,0.385802235,-0.21276801
1764762888.182782,-0.06104,1.4497,0.77826,-0.8933692950000001,0.385802235,-0.21276801
1764762888.2289402,-0.06104,1.4497,0.77826,-0.8933692950000001,0.385802235,-0.21276801
1764762888.2289402,-0.06104,1.4497,0.77826,-0.8933692950000001,0.385802235,-0.21276801
1764762888.2289402,-0.06104,1.4497,0.77826,-0.8933692950000001,0.385802235,-0.21276801
1764762888.2289402,-0.06104,1.4497,0.77826,-0.8933692950000001,0.385802235,-0.21276801
1764762888.2289402,-0.06104,1.4497,0.77826,-0.8933692950000001,0.385802235,-0.21276801
1764762888.2289402,-0.06104,1.4497,0.77826,-0.8933692950000001,0.385802235,-0.21276801
1764762888.2289402,-0.06104,1.4497,0.77826,-0.8933692950000001,0.385802235,-0.21276801
1764762888.2289402,-0.06104,1.4497,0.77826,-0.8933692950000001,0.385802235,-0.21276801
1764762888.2289402,1.38866,1.6022999999999998,0.6714399999999999,-0.89245377,0.38525292,-0.21252387
1764762888.2289402,1.38866,1.6022999999999998,0.6714399999999999,-0.89245377,0.38525292,-0.21252387
1764762888.2289402,1.38866,1.6022999999999998,0.6714399999999999,-0.89245377,0.38525292,-0.21252387
1764762888.2289402,1.38866,1.6022999999999998,0.6714399999999999,-0.89245377,0.38525292,-0.21252387
1764762888.2289402,1.38866,1.6022999999999998,0.6714399999999999,-0.89245377,0.38525292,-0.21252387
1764762888.2289402,1.38866,1.6022999999999998,0.6714399999999999,-0.89245377,0.38525292,-0.21252387
1764762888.2289402,1.38866,1.6022999999999998,0.6714399999999999,-0.89245377,0.38525292,-0.21252387
1764762888.2289402,1.38866,1.6022999999999998,0.6714399999999999,-0.89245377,0.38525292,-0.21252387
1764762888.2289402,1.38866,1.6022999999999998,0.6714399999999999,-0.89245377,0.38525292,-0.21252387
1764762888.2289402,1.38866,1.6022999999999998,0.6714399999999999,-0.89245377,0.38525292,-0.21252387
1764762888.2289402,1.6786,1.6022999999999998,1.12924,-0.8917823850000001,0.38549706,-0.21264594
1764762888.2289402,1.6786,1.6022999999999998,1.12924,-0.8917823850000001,0.38549706,-0.21264594
1764762888.2289402,1.6786,1.6022999999999998,1.12924,-0.8917823850000001,0.38549706,-0.21264594
1764762888.2289402,1.6786,1.6022999999999998,1.12924,-0.8917823850000001,0.38549706,-0.21264594
1764762888.2289402,1.6786,1.6022999999999998,1.12924,-0.8917823850000001,0.38549706,-0.21264594
1764762888.2289402,1.6786,1.6022999999999998,1.12924,-0.8917823850000001,0.38549706,-0.21264594
1764762888.2289402,1.6786,1.6022999999999998,1.12924,-0.8917823850000001,0.38549706,-0.21264594
1764762888.2289402,1.6786,1.6022999999999998,1.12924,-0.8917823850000001,0.38549706,-0.21264594
1764762888.2289402,1.6786,1.6022999999999998,1.12924,-0.8917823850000001,0.38549706,-0.21264594
1764762888.2289402,1.6786,1.6022999999999998,1.12924,-0.8917823850000001,0.38549706,-0.21264594
1764762888.2289402,1.12924,2.2127,0.96138,-0.891111,0.38610741,-0.213195255
1764762888.2289402,1.12924,2.2127,0.96138,-0.891111,0.38610741,-0.213195255
1764762888.2289402,1.12924,2.2127,0.96138,-0.891111,0.38610741,-0.213195255
1764762888.2289402,1.12924,2.2127,0.96138,-0.891111,0.38610741,-0.213195255
1764762888.2289402,1.12924,2.2127,0.96138,-0.891111,0.38610741,-0.213195255
1764762888.2289402,1.12924,2.2127,0.96138,-0.891111,0.38610741,-0.213195255
1764762888.2304993,1.12924,2.2127,0.96138,-0.891111,0.38610741,-0.213195255
1764762888.2304993,1.12924,2.2127,0.96138,-0.891111,0.38610741,-0.213195255
1764762888.2304993,1.12924,2.2127,0.96138,-0.891111,0.38610741,-0.213195255
1764762888.2304993,1.12924,2.2127,0.96138,-0.891111,0.38610741,-0.213195255
1764762888.2766445,2.01432,2.60946,0.79352,-0.891416175,0.38635155,-0.2136225
1764762888.2766445,2.01432,2.60946,0.79352,-0.891416175,0.38635155,-0.2136225
1764762888.2766445,2.01432,2.60946,0.79352,-0.891416175,0.38635155,-0.2136225
1764762888.2766445,2.01432,2.60946,0.79352,-0.891416175,0.38635155,-0.2136225
1764762888.2766445,2.01432,2.60946,0.79352,-0.891416175,0.38635155,-0.2136225
1764762888.2766445,2.01432,2.60946,0.79352,-0.891416175,0.38635155,-0.2136225
1764762888.2766445,2.01432,2.60946,0.79352,-0.891416175,0.38635155,-0.2136225
1764762888.2766445,2.01432,2.60946,0.79352,-0.891416175,0.38635155,-0.2136225
1764762888.2766445,2.01432,2.60946,0.79352,-0.891416175,0.38635155,-0.2136225
1764762888.2766445,2.01432,2.60946,0.79352,-0.891416175,0.38635155,-0.2136225
1764762888.2766445,2.50264,3.03674,1.38866,-0.891538245,0.38769432,-0.213195255
1764762888.2766445,2.50264,3.03674,1.38866,-0.891538245,0.38769432,-0.213195255
1764762888.2766445,2.50264,3.03674,1.38866,-0.891538245,0.38769432,-0.213195255
1764762888.2766445,2.50264,3.03674,1.38866,-0.891538245,0.38769432,-0.213195255
1764762888.2766445,2.50264,3.03674,1.38866,-0.891538245,0.38769432,-0.213195255
1764762888.2771544,2.50264,3.03674,1.38866,-0.891538245,0.38769432,-0.213195255
1764762888.2771544,2.50264,3.03674,1.38866,-0.891538245,0.38769432,-0.213195255
1764762888.2771544,2.50264,3.03674,1.38866,-0.891538245,0.38769432,-0.213195255
1764762888.2771544,2.50264,3.03674,1.38866,-0.891538245,0.38769432,-0.213195255
1764762888.2771544,2.50264,3.03674,1.38866,-0.891538245,0.38769432,-0.213195255
1764762888.2771544,1.41918,3.83026,1.03768,-0.89208756,0.38842674,-0.21423285
1764762888.2771544,1.41918,3.83026,1.03768,-0.89208756,0.38842674,-0.21423285
1764762888.2771544,1.41918,3.83026,1.03768,-0.89208756,0.38842674,-0.21423285
1764762888.2771544,1.41918,3.83026,1.03768,-0.89208756,0.38842674,-0.21423285
1764762888.3232455,1.41918,3.83026,1.03768,-0.89208756,0.38842674,-0.21423285
1764762888.3232455,1.41918,3.83026,1.03768,-0.89208756,0.38842674,-0.21423285
1764762888.3232455,1.41918,3.83026,1.03768,-0.89208756,0.38842674,-0.21423285
1764762888.3232455,1.41918,3.83026,1.03768,-0.89208756,0.38842674,-0.21423285
1764762888.3232455,1.41918,3.83026,1.03768,-0.89208756,0.38842674,-0.21423285
1764762888.3232455,1.41918,3.83026,1.03768,-0.89208756,0.38842674,-0.21423285
1764762888.3232455,-0.1525999999999999,3.2809,1.54126,-0.892758945,0.390074685,-0.215880795
1764762888.3232455,-0.1525999999999999,3.2809,1.54126,-0.892758945,0.390074685,-0.215880795
1764762888.3232455,-0.1525999999999999,3.2809,1.54126,-0.892758945,0.390074685,-0.215880795
1764762888.3232455,-0.1525999999999999,3.2809,1.54126,-0.892758945,0.390074685,-0.215880795
1764762888.3232455,-0.1525999999999999,3.2809,1.54126,-0.892758945,0.390074685,-0.215880795
1764762888.3232455,-0.1525999999999999,3.2809,1.54126,-0.892758945,0.390074685,-0.215880795
1764762888.3232455,-0.1525999999999999,3.2809,1.54126,-0.892758945,0.390074685,-0.215880795
1764762888.3232455,-0.1525999999999999,3.2809,1.54126,-0.892758945,0.390074685,-0.215880795
1764762888.3232455,-0.1525999999999999,3.2809,1.54126,-0.892758945,0.390074685,-0.215880795
1764762888.3232455,-0.1525999999999999,3.2809,1.54126,-0.892758945,0.390074685,-0.215880795
1764762888.3232455,-1.87698,3.11304,1.23606,-0.891049965,0.39123435,-0.21716253
1764762888.3232455,-1.87698,3.11304,1.23606,-0.891049965,0.39123435,-0.21716253
1764762888.3232455,-1.87698,3.11304,1.23606,-0.891049965,0.39123435,-0.21716253
1764762888.3232455,-1.87698,3.11304,1.23606,-0.891049965,0.39123435,-0.21716253
1764762888.3232455,-1.87698,3.11304,1.23606,-0.891049965,0.39123435,-0.21716253
1764762888.3232455,-1.87698,3.11304,1.23606,-0.891049965,0.39123435,-0.21716253
1764762888.3232455,-1.87698,3.11304,1.23606,-0.891049965,0.39123435,-0.21716253
1764762888.3232455,-1.87698,3.11304,1.23606,-0.891049965,0.39123435,-0.21716253
1764762888.3703947,-1.87698,3.11304,1.23606,-0.891049965,0.39123435,-0.21716253
1764762888.3703947,-1.87698,3.11304,1.23606,-0.891049965,0.39123435,-0.21716253
1764762888.3703947,-2.47212,3.75396,0.27468,-0.8898903,0.39099021,-0.21618597
1764762888.3703947,-2.47212,3.75396,0.27468,-0.8898903,0.39099021,-0.21618597
1764762888.3714805,-2.47212,3.75396,0.27468,-0.8898903,0.39099021,-0.21618597
1764762888.3714805,-2.47212,3.75396,0.27468,-0.8898903,0.39099021,-0.21618597
1764762888.3714805,-2.47212,3.75396,0.27468,-0.8898903,0.39099021,-0.21618597
1764762888.3714805,-2.47212,3.75396,0.27468,-0.8898903,0.39099021,-0.21618597
1764762888.3714805,-2.47212,3.75396,0.27468,-0.8898903,0.39099021,-0.21618597
1764762888.3714805,-2.47212,3.75396,0.27468,-0.8898903,0.39099021,-0.21618597
1764762888.3714805,-2.47212,3.75396,0.27468,-0.8898903,0.39099021,-0.21618597
1764762888.3714805,-2.47212,3.75396,0.27468,-0.8898903,0.39099021,-0.21618597
1764762888.3714805,-2.68576,4.059159999999999,0.3509799999999999,-0.88940202,0.388976055,-0.215514585
1764762888.3714805,-2.68576,4.059159999999999,0.3509799999999999,-0.88940202,0.388976055,-0.215514585
1764762888.3725348,-2.68576,4.059159999999999,0.3509799999999999,-0.88940202,0.388976055,-0.215514585
1764762888.3725348,-2.68576,4.059159999999999,0.3509799999999999,-0.88940202,0.388976055,-0.215514585
1764762888.3725348,-2.68576,4.059159999999999,0.3509799999999999,-0.88940202,0.388976055,-0.215514585
1764762888.3725348,-2.68576,4.059159999999999,0.3509799999999999,-0.88940202,0.388976055,-0.215514585
1764762888.3730354,-2.68576,4.059159999999999,0.3509799999999999,-0.88940202,0.388976055,-0.215514585
1764762888.3730354,-2.68576,4.059159999999999,0.3509799999999999,-0.88940202,0.388976055,-0.215514585
1764762888.3730354,-2.68576,4.059159999999999,0.3509799999999999,-0.88940202,0.388976055,-0.215514585
1764762888.3730354,-2.68576,4.059159999999999,0.3509799999999999,-0.88940202,0.388976055,-0.215514585
1764762888.4179077,-3.03674,7.3248,-0.12208,-0.889951335,0.38915916,-0.215148375
1764762888.4179077,-3.03674,7.3248,-0.12208,-0.889951335,0.38915916,-0.215148375
1764762888.4179077,-3.03674,7.3248,-0.12208,-0.889951335,0.38915916,-0.215148375
1764762888.4179077,-3.03674,7.3248,-0.12208,-0.889951335,0.38915916,-0.215148375
1764762888.4179077,-3.03674,7.3248,-0.12208,-0.889951335,0.38915916,-0.215148375
1764762888.4179077,-3.03674,7.3248,-0.12208,-0.889951335,0.38915916,-0.215148375
1764762888.4179077,-3.03674,7.3248,-0.12208,-0.889951335,0.38915916,-0.215148375
1764762888.4179077,-3.03674,7.3248,-0.12208,-0.889951335,0.38915916,-0.215148375
1764762888.4179077,-3.03674,7.3248,-0.12208,-0.889951335,0.38915916,-0.215148375
1764762888.4179077,-3.03674,7.3248,-0.12208,-0.889951335,0.38915916,-0.215148375
1764762888.4179077,-3.5098,5.76828,3.8913,-0.891049965,0.388853985,-0.214904235
1764762888.4179077,-3.5098,5.76828,3.8913,-0.891049965,0.388853985,-0.214904235
1764762888.4179077,-3.5098,5.76828,3.8913,-0.891049965,0.388853985,-0.214904235
1764762888.4179077,-3.5098,5.76828,3.8913,-0.891049965,0.388853985,-0.214904235
1764762888.4179077,-3.5098,5.76828,3.8913,-0.891049965,0.388853985,-0.214904235
1764762888.4179077,-3.5098,5.76828,3.8913,-0.891049965,0.388853985,-0.214904235
1764762888.4179077,-3.5098,5.76828,3.8913,-0.891049965,0.388853985,-0.214904235
1764762888.4179077,-3.5098,5.76828,3.8913,-0.891049965,0.388853985,-0.214904235
1764762888.4179077,-3.5098,5.76828,3.8913,-0.891049965,0.388853985,-0.214904235
1764762888.4179077,-3.5098,5.76828,3.8913,-0.891049965,0.388853985,-0.214904235
1764762888.4179077,-3.08252,5.21892,0.48832,-0.890195475,0.38879295,-0.214049745
1764762888.4179077,-3.08252,5.21892,0.48832,-0.890195475,0.38879295,-0.214049745
1764762888.4179077,-3.08252,5.21892,0.48832,-0.890195475,0.38879295,-0.214049745
1764762888.4179077,-3.08252,5.21892,0.48832,-0.890195475,0.38879295,-0.214049745
1764762888.4609864,-3.08252,5.21892,0.48832,-0.890195475,0.38879295,-0.214049745
1764762888.4609864,-3.08252,5.21892,0.48832,-0.890195475,0.38879295,-0.214049745
1764762888.4609864,-3.08252,5.21892,0.48832,-0.890195475,0.38879295,-0.214049745
1764762888.4609864,-3.08252,5.21892,0.48832,-0.890195475,0.38879295,-0.214049745
1764762888.4609864,-3.08252,5.21892,0.48832,-0.890195475,0.38879295,-0.214049745
1764762888.4609864,-3.08252,5.21892,0.48832,-0.890195475,0.38879295,-0.214049745
1764762888.4609864,-1.89224,5.5699,-0.2289,-0.889829265,0.38622948,-0.2136225
1764762888.4609864,-1.89224,5.5699,-0.2289,-0.889829265,0.38622948,-0.2136225
1764762888.4609864,-1.89224,5.5699,-0.2289,-0.889829265,0.38622948,-0.2136225
1764762888.4609864,-1.89224,5.5699,-0.2289,-0.889829265,0.38622948,-0.2136225
1764762888.4609864,-1.89224,5.5699,-0.2289,-0.889829265,0.38622948,-0.2136225
1764762888.4609864,-1.89224,5.5699,-0.2289,-0.889829265,0.38622948,-0.2136225
1764762888.4609864,-1.89224,5.5699,-0.2289,-0.889829265,0.38622948,-0.2136225
1764762888.4609864,-1.89224,5.5699,-0.2289,-0.889829265,0.38622948,-0.2136225
1764762888.4609864,-1.89224,5.5699,-0.2289,-0.889829265,0.38622948,-0.2136225
1764762888.4609864,-1.89224,5.5699,-0.2289,-0.889829265,0.38622948,-0.2136225
1764762888.4609864,-1.4039199999999998,4.89846,0.56462,-0.89062272,0.38610741,-0.213561465
1764762888.4609864,-1.4039199999999998,4.89846,0.56462,-0.89062272,0.38610741,-0.213561465
1764762888.4609864,-1.4039199999999998,4.89846,0.56462,-0.89062272,0.38610741,-0.213561465
1764762888.4609864,-1.4039199999999998,4.89846,0.56462,-0.89062272,0.38610741,-0.213561465
1764762888.4609864,-1.4039199999999998,4.89846,0.56462,-0.89062272,0.38610741,-0.213561465
1764762888.4609864,-1.4039199999999998,4.89846,0.56462,-0.89062272,0.38610741,-0.213561465
1764762888.508127,-1.4039199999999998,4.89846,0.56462,-0.89062272,0.38610741,-0.213561465
1764762888.508127,-1.4039199999999998,4.89846,0.56462,-0.89062272,0.38610741,-0.213561465
1764762888.508127,-1.4039199999999998,4.89846,0.56462,-0.89062272,0.38610741,-0.213561465
1764762888.508127,-1.4039199999999998,4.89846,0.56462,-0.89062272,0.38610741,-0.213561465
1764762888.508127,-0.97664,4.3491,0.6867,-0.891416175,0.386900865,-0.21301215
1764762888.508127,-0.97664,4.3491,0.6867,-0.891416175,0.386900865,-0.21301215
1764762888.508127,-0.97664,4.3491,0.6867,-0.891416175,0.386900865,-0.21301215
1764762888.508127,-0.97664,4.3491,0.6867,-0.891416175,0.386900865,-0.21301215
1764762888.508127,-0.97664,4.3491,0.6867,-0.891416175,0.386900865,-0.21301215
1764762888.508127,-0.97664,4.3491,0.6867,-0.891416175,0.386900865,-0.21301215
1764762888.508127,-0.97664,4.3491,0.6867,-0.891416175,0.386900865,-0.21301215
1764762888.508127,-0.97664,4.3491,0.6867,-0.891416175,0.386900865,-0.21301215
1764762888.508127,-0.97664,4.3491,0.6867,-0.891416175,0.386900865,-0.21301215
1764762888.508127,-0.97664,4.3491,0.6867,-0.891416175,0.386900865,-0.21301215
1764762888.508127,0.0762999999999999,3.98286,0.2289,-0.889951335,0.38708397,-0.212096625
1764762888.508127,0.0762999999999999,3.98286,0.2289,-0.889951335,0.38708397,-0.212096625
1764762888.508127,0.0762999999999999,3.98286,0.2289,-0.889951335,0.38708397,-0.212096625
1764762888.508127,0.0762999999999999,3.98286,0.2289,-0.889951335,0.38708397,-0.212096625
1764762888.508127,0.0762999999999999,3.98286,0.2289,-0.889951335,0.38708397,-0.212096625
1764762888.508127,0.0762999999999999,3.98286,0.2289,-0.889951335,0.38708397,-0.212096625
1764762888.508127,0.0762999999999999,3.98286,0.2289,-0.889951335,0.38708397,-0.212096625
1764762888.508127,0.0762999999999999,3.98286,0.2289,-0.889951335,0.38708397,-0.212096625
1764762888.508127,0.0762999999999999,3.98286,0.2289,-0.889951335,0.38708397,-0.212096625
1764762888.508127,0.0762999999999999,3.98286,0.2289,-0.889951335,0.38708397,-0.212096625
1764762888.554947,2.1364,3.70818,0.13734,-0.890439615,0.385436025,-0.211852485
1764762888.554947,2.1364,3.70818,0.13734,-0.890439615,0.385436025,-0.211852485
1764762888.554947,2.1364,3.70818,0.13734,-0.890439615,0.385436025,-0.211852485
1764762888.554947,2.1364,3.70818,0.13734,-0.890439615,0.385436025,-0.211852485
1764762888.554947,2.1364,3.70818,0.13734,-0.890439615,0.385436025,-0.211852485
1764762888.554947,2.1364,3.70818,0.13734,-0.890439615,0.385436025,-0.211852485
1764762888.554947,2.1364,3.70818,0.13734,-0.890439615,0.385436025,-0.211852485
1764762888.554947,2.1364,3.70818,0.13734,-0.890439615,0.385436025,-0.211852485
1764762888.554947,2.1364,3.70818,0.13734,-0.890439615,0.385436025,-0.211852485
1764762888.554947,2.1364,3.70818,0.13734,-0.890439615,0.385436025,-0.211852485
1764762888.554947,2.83836,3.64714,0.3204599999999999,-0.889218915,0.38537499,-0.210997995
1764762888.554947,2.83836,3.64714,0.3204599999999999,-0.889218915,0.38537499,-0.210997995
1764762888.554947,2.83836,3.64714,0.3204599999999999,-0.889218915,0.38537499,-0.210997995
1764762888.554947,2.83836,3.64714,0.3204599999999999,-0.889218915,0.38537499,-0.210997995
1764762888.554947,2.83836,3.64714,0.3204599999999999,-0.889218915,0.38537499,-0.210997995
1764762888.554947,2.83836,3.64714,0.3204599999999999,-0.889218915,0.38537499,-0.210997995
1764762888.554947,2.83836,3.64714,0.3204599999999999,-0.889218915,0.38537499,-0.210997995
1764762888.554947,2.83836,3.64714,0.3204599999999999,-0.889218915,0.38537499,-0.210997995
1764762888.554947,2.83836,3.64714,0.3204599999999999,-0.889218915,0.38537499,-0.210997995
1764762888.554947,2.83836,3.64714,0.3204599999999999,-0.889218915,0.38537499,-0.210997995
1764762888.554947,3.5861,3.90656,-0.18312,-0.8897071950000001,0.384947745,-0.210997995
1764762888.554947,3.5861,3.90656,-0.18312,-0.8897071950000001,0.384947745,-0.210997995
1764762888.6027684,3.5861,3.90656,-0.18312,-0.8897071950000001,0.384947745,-0.210997995
1764762888.6027684,3.5861,3.90656,-0.18312,-0.8897071950000001,0.384947745,-0.210997995
1764762888.6027684,3.5861,3.90656,-0.18312,-0.8897071950000001,0.384947745,-0.210997995
1764762888.6027684,3.5861,3.90656,-0.18312,-0.8897071950000001,0.384947745,-0.210997995
1764762888.6027684,3.5861,3.90656,-0.18312,-0.8897071950000001,0.384947745,-0.210997995
1764762888.6027684,3.5861,3.90656,-0.18312,-0.8897071950000001,0.384947745,-0.210997995
1764762888.6027684,3.5861,3.90656,-0.18312,-0.8897071950000001,0.384947745,-0.210997995
1764762888.6027684,3.5861,3.90656,-0.18312,-0.8897071950000001,0.384947745,-0.210997995
1764762888.6027684,4.4254,2.54842,-0.79352,-0.889463055,0.384459465,-0.213195255
1764762888.6027684,4.4254,2.54842,-0.79352,-0.889463055,0.384459465,-0.213195255
1764762888.6027684,4.4254,2.54842,-0.79352,-0.889463055,0.384459465,-0.213195255
1764762888.6040602,4.4254,2.54842,-0.79352,-0.889463055,0.384459465,-0.213195255
1764762888.6040602,4.4254,2.54842,-0.79352,-0.889463055,0.384459465,-0.213195255
1764762888.6040602,4.4254,2.54842,-0.79352,-0.889463055,0.384459465,-0.213195255
1764762888.6040602,4.4254,2.54842,-0.79352,-0.889463055,0.384459465,-0.213195255
1764762888.6040602,4.4254,2.54842,-0.79352,-0.889463055,0.384459465,-0.213195255
1764762888.6040602,4.4254,2.54842,-0.79352,-0.889463055,0.384459465,-0.213195255
1764762888.6040602,4.4254,2.54842,-0.79352,-0.889463055,0.384459465,-0.213195255
1764762888.6040602,3.31142,1.08346,-0.85456,-0.89147721,0.38561913,-0.217589775
1764762888.6040602,3.31142,1.08346,-0.85456,-0.89147721,0.38561913,-0.217589775
1764762888.6040602,3.31142,1.08346,-0.85456,-0.89147721,0.38561913,-0.217589775
1764762888.6040602,3.31142,1.08346,-0.85456,-0.89147721,0.38561913,-0.217589775
1764762888.6040602,3.31142,1.08346,-0.85456,-0.89147721,0.38561913,-0.217589775
1764762888.6040602,3.31142,1.08346,-0.85456,-0.89147721,0.38561913,-0.217589775
1764762888.6040602,3.31142,1.08346,-0.85456,-0.89147721,0.38561913,-0.217589775
1764762888.6040602,3.31142,1.08346,-0.85456,-0.89147721,0.38561913,-0.217589775
1764762888.6473162,3.31142,1.08346,-0.85456,-0.89147721,0.38561913,-0.217589775
1764762888.6473162,3.31142,1.08346,-0.85456,-0.89147721,0.38561913,-0.217589775
1764762888.6473162,0.04578,-0.8392999999999999,0.24416,-0.895078275,0.389952615,-0.2209467
1764762888.6473162,0.04578,-0.8392999999999999,0.24416,-0.895078275,0.389952615,-0.2209467
1764762888.6473162,0.04578,-0.8392999999999999,0.24416,-0.895078275,0.389952615,-0.2209467
1764762888.6473162,0.04578,-0.8392999999999999,0.24416,-0.895078275,0.389952615,-0.2209467
1764762888.6473162,0.04578,-0.8392999999999999,0.24416,-0.895078275,0.389952615,-0.2209467
1764762888.6473162,0.04578,-0.8392999999999999,0.24416,-0.895078275,0.389952615,-0.2209467
1764762888.6473162,0.04578,-0.8392999999999999,0.24416,-0.895078275,0.389952615,-0.2209467
1764762888.6473162,0.04578,-0.8392999999999999,0.24416,-0.895078275,0.389952615,-0.2209467
1764762888.6473162,0.04578,-0.8392999999999999,0.24416,-0.895078275,0.389952615,-0.2209467
1764762888.6473162,0.04578,-0.8392999999999999,0.24416,-0.895078275,0.389952615,-0.2209467
1764762888.6473162,-4.36436,-2.65524,-0.10682,-0.897641745,0.393248505,-0.22302189
1764762888.6473162,-4.36436,-2.65524,-0.10682,-0.897641745,0.393248505,-0.22302189
1764762888.648624,-4.36436,-2.65524,-0.10682,-0.897641745,0.393248505,-0.22302189
1764762888.648624,-4.36436,-2.65524,-0.10682,-0.897641745,0.393248505,-0.22302189
1764762888.648624,-4.36436,-2.65524,-0.10682,-0.897641745,0.393248505,-0.22302189
1764762888.648624,-4.36436,-2.65524,-0.10682,-0.897641745,0.393248505,-0.22302189
1764762888.696216,-4.36436,-2.65524,-0.10682,-0.897641745,0.393248505,-0.22302189
1764762888.696216,-4.36436,-2.65524,-0.10682,-0.897641745,0.393248505,-0.22302189
1764762888.696216,-4.36436,-2.65524,-0.10682,-0.897641745,0.393248505,-0.22302189
1764762888.696216,-4.36436,-2.65524,-0.10682,-0.897641745,0.393248505,-0.22302189
1764762888.696216,-6.821219999999999,-0.2289,0.39676,-0.893735505,0.392516085,-0.222106365
1764762888.696216,-6.821219999999999,-0.2289,0.39676,-0.893735505,0.392516085,-0.222106365
1764762888.740747,-6.821219999999999,-0.2289,0.39676,-0.893735505,0.392516085,-0.222106365
1764762888.740747,-6.821219999999999,-0.2289,0.39676,-0.893735505,0.392516085,-0.222106365
1764762888.740747,-6.821219999999999,-0.2289,0.39676,-0.893735505,0.392516085,-0.222106365
1764762888.740747,-6.821219999999999,-0.2289,0.39676,-0.893735505,0.392516085,-0.222106365
1764762888.740747,-6.821219999999999,-0.2289,0.39676,-0.893735505,0.392516085,-0.222106365
1764762888.7417555,-6.821219999999999,-0.2289,0.39676,-0.893735505,0.392516085,-0.222106365
1764762888.7417555,-6.821219999999999,-0.2289,0.39676,-0.893735505,0.392516085,-0.222106365
1764762888.7417555,-6.821219999999999,-0.2289,0.39676,-0.893735505,0.392516085,-0.222106365
1764762888.7417555,-5.78354,2.42634,-0.19838,-0.88854753,0.388487775,-0.218444265
1764762888.7417555,-5.78354,2.42634,-0.19838,-0.88854753,0.388487775,-0.218444265
1764762888.7417555,-5.78354,2.42634,-0.19838,-0.88854753,0.388487775,-0.218444265
1764762888.7417555,-5.78354,2.42634,-0.19838,-0.88854753,0.388487775,-0.218444265
1764762888.7417555,-5.78354,2.42634,-0.19838,-0.88854753,0.388487775,-0.218444265
1764762888.7417555,-5.78354,2.42634,-0.19838,-0.88854753,0.388487775,-0.218444265
1764762888.7417555,-5.78354,2.42634,-0.19838,-0.88854753,0.388487775,-0.218444265
1764762888.7417555,-5.78354,2.42634,-0.19838,-0.88854753,0.388487775,-0.218444265
1764762888.7417555,-5.78354,2.42634,-0.19838,-0.88854753,0.388487775,-0.218444265
1764762888.7417555,-5.78354,2.42634,-0.19838,-0.88854753,0.388487775,-0.218444265
1764762888.7417555,-4.440659999999999,3.40298,0.6867,-0.891538245,0.38806053,-0.215026305
1764762888.7417555,-4.440659999999999,3.40298,0.6867,-0.891538245,0.38806053,-0.215026305
1764762888.7417555,-4.440659999999999,3.40298,0.6867,-0.891538245,0.38806053,-0.215026305
1764762888.7417555,-4.440659999999999,3.40298,0.6867,-0.891538245,0.38806053,-0.215026305
1764762888.7417555,-4.440659999999999,3.40298,0.6867,-0.891538245,0.38806053,-0.215026305
1764762888.7417555,-4.440659999999999,3.40298,0.6867,-0.891538245,0.38806053,-0.215026305
1764762888.7417555,-4.440659999999999,3.40298,0.6867,-0.891538245,0.38806053,-0.215026305
1764762888.7417555,-4.440659999999999,3.40298,0.6867,-0.891538245,0.38806053,-0.215026305
1764762888.7417555,-4.440659999999999,3.40298,0.6867,-0.891538245,0.38806053,-0.215026305
1764762888.7417555,-4.440659999999999,3.40298,0.6867,-0.891538245,0.38806053,-0.215026305
1764762888.7417555,-4.07442,3.87604,1.31236,-0.89147721,0.38867088,-0.21313422
1764762888.7417555,-4.07442,3.87604,1.31236,-0.89147721,0.38867088,-0.21313422
1764762888.7417555,-4.07442,3.87604,1.31236,-0.89147721,0.38867088,-0.21313422
1764762888.7417555,-4.07442,3.87604,1.31236,-0.89147721,0.38867088,-0.21313422
1764762888.7417555,-4.07442,3.87604,1.31236,-0.89147721,0.38867088,-0.21313422
1764762888.7417555,-4.07442,3.87604,1.31236,-0.89147721,0.38867088,-0.21313422
1764762888.7417555,-4.07442,3.87604,1.31236,-0.89147721,0.38867088,-0.21313422
1764762888.7417555,-4.07442,3.87604,1.31236,-0.89147721,0.38867088,-0.21313422
1764762888.7417555,-4.07442,3.87604,1.31236,-0.89147721,0.38867088,-0.21313422
1764762888.7417555,-4.07442,3.87604,1.31236,-0.89147721,0.38867088,-0.21313422
1764762888.7417555,-4.28806,4.5017,1.35814,-0.89135514,0.38879295,-0.21264594
1764762888.7417555,-4.28806,4.5017,1.35814,-0.89135514,0.38879295,-0.21264594
1764762888.7417555,-4.28806,4.5017,1.35814,-0.89135514,0.38879295,-0.21264594
1764762888.7417555,-4.28806,4.5017,1.35814,-0.89135514,0.38879295,-0.21264594
1764762888.7417555,-4.28806,4.5017,1.35814,-0.89135514,0.38879295,-0.21264594
1764762888.7417555,-4.28806,4.5017,1.35814,-0.89135514,0.38879295,-0.21264594
1764762888.7877283,-4.28806,4.5017,1.35814,-0.89135514,0.38879295,-0.21264594
1764762888.7877283,-4.28806,4.5017,1.35814,-0.89135514,0.38879295,-0.21264594
1764762888.7877283,-4.28806,4.5017,1.35814,-0.89135514,0.38879295,-0.21264594
1764762888.7877283,-4.28806,4.5017,1.35814,-0.89135514,0.38879295,-0.21264594
1764762888.7877283,-4.97476,3.87604,1.54126,-0.890805825,0.38830467,-0.211608345
1764762888.7877283,-4.97476,3.87604,1.54126,-0.890805825,0.38830467,-0.211608345
1764762888.7877283,-4.97476,3.87604,1.54126,-0.890805825,0.38830467,-0.211608345
1764762888.7877283,-4.97476,3.87604,1.54126,-0.890805825,0.38830467,-0.211608345
1764762888.7877283,-4.97476,3.87604,1.54126,-0.890805825,0.38830467,-0.211608345
1764762888.7877283,-4.97476,3.87604,1.54126,-0.890805825,0.38830467,-0.211608345
1764762888.7877283,-4.97476,3.87604,1.54126,-0.890805825,0.38830467,-0.211608345
1764762888.7877283,-4.97476,3.87604,1.54126,-0.890805825,0.38830467,-0.211608345
1764762888.7877283,-4.97476,3.87604,1.54126,-0.890805825,0.38830467,-0.211608345
1764762888.7877283,-4.97476,3.87604,1.54126,-0.890805825,0.38830467,-0.211608345
1764762888.7877283,-4.36436,4.66956,0.54936,-0.888730635,0.386412585,-0.211608345
1764762888.7877283,-4.36436,4.66956,0.54936,-0.888730635,0.386412585,-0.211608345
1764762888.7877283,-4.36436,4.66956,0.54936,-0.888730635,0.386412585,-0.211608345
1764762888.7877283,-4.36436,4.66956,0.54936,-0.888730635,0.386412585,-0.211608345
1764762888.7877283,-4.36436,4.66956,0.54936,-0.888730635,0.386412585,-0.211608345
1764762888.7877283,-4.36436,4.66956,0.54936,-0.888730635,0.386412585,-0.211608345
1764762888.7877283,-4.36436,4.66956,0.54936,-0.888730635,0.386412585,-0.211608345
1764762888.7877283,-4.36436,4.66956,0.54936,-0.888730635,0.386412585,-0.211608345
1764762888.8348954,-4.36436,4.66956,0.54936,-0.888730635,0.386412585,-0.211608345
1764762888.8348954,-4.36436,4.66956,0.54936,-0.888730635,0.386412585,-0.211608345
1764762888.8348954,-3.815,4.3491,0.3357199999999999,-0.89013444,0.386290515,-0.21154731
1764762888.8348954,-3.815,4.3491,0.3357199999999999,-0.89013444,0.386290515,-0.21154731
1764762888.8348954,-3.815,4.3491,0.3357199999999999,-0.89013444,0.386290515,-0.21154731
1764762888.8348954,-3.815,4.3491,0.3357199999999999,-0.89013444,0.386290515,-0.21154731
1764762888.8348954,-3.815,4.3491,0.3357199999999999,-0.89013444,0.386290515,-0.21154731
1764762888.8348954,-3.815,4.3491,0.3357199999999999,-0.89013444,0.386290515,-0.21154731
1764762888.8348954,-3.815,4.3491,0.3357199999999999,-0.89013444,0.386290515,-0.21154731
1764762888.8348954,-3.815,4.3491,0.3357199999999999,-0.89013444,0.386290515,-0.21154731
1764762888.8348954,-3.815,4.3491,0.3357199999999999,-0.89013444,0.386290515,-0.21154731
1764762888.8348954,-3.815,4.3491,0.3357199999999999,-0.89013444,0.386290515,-0.21154731
1764762888.8348954,-3.52506,3.815,0.65618,-0.8939186100000001,0.385924305,-0.210753855
1764762888.8348954,-3.52506,3.815,0.65618,-0.8939186100000001,0.385924305,-0.210753855
1764762888.8348954,-3.52506,3.815,0.65618,-0.8939186100000001,0.385924305,-0.210753855
1764762888.8348954,-3.52506,3.815,0.65618,-0.8939186100000001,0.385924305,-0.210753855
1764762888.8348954,-3.52506,3.815,0.65618,-0.8939186100000001,0.385924305,-0.210753855
1764762888.8348954,-3.52506,3.815,0.65618,-0.8939186100000001,0.385924305,-0.210753855
1764762888.8348954,-3.52506,3.815,0.65618,-0.8939186100000001,0.385924305,-0.210753855
1764762888.8348954,-3.52506,3.815,0.65618,-0.8939186100000001,0.385924305,-0.210753855
1764762888.8348954,-3.52506,3.815,0.65618,-0.8939186100000001,0.385924305,-0.210753855
1764762888.8348954,-3.52506,3.815,0.65618,-0.8939186100000001,0.385924305,-0.210753855
1764762888.8348954,-2.3653,3.63188,1.0682,-0.8947731,0.384093255,-0.210265575
1764762888.8348954,-2.3653,3.63188,1.0682,-0.8947731,0.384093255,-0.210265575
1764762888.8774965,-2.3653,3.63188,1.0682,-0.8947731,0.384093255,-0.210265575
1764762888.8774965,-2.3653,3.63188,1.0682,-0.8947731,0.384093255,-0.210265575
1764762888.8774965,-2.3653,3.63188,1.0682,-0.8947731,0.384093255,-0.210265575
1764762888.8774965,-2.3653,3.63188,1.0682,-0.8947731,0.384093255,-0.210265575
1764762888.8774965,-2.3653,3.63188,1.0682,-0.8947731,0.384093255,-0.210265575
1764762888.8774965,-2.3653,3.63188,1.0682,-0.8947731,0.384093255,-0.210265575
1764762888.8774965,-2.3653,3.63188,1.0682,-0.8947731,0.384093255,-0.210265575
1764762888.8774965,-2.3653,3.63188,1.0682,-0.8947731,0.384093255,-0.210265575
1764762888.8774965,-0.85456,3.3572,1.54126,-0.894467925,0.3832998,-0.209655225
1764762888.8774965,-0.85456,3.3572,1.54126,-0.894467925,0.3832998,-0.209655225
1764762888.8774965,-0.85456,3.3572,1.54126,-0.894467925,0.3832998,-0.209655225
1764762888.8774965,-0.85456,3.3572,1.54126,-0.894467925,0.3832998,-0.209655225
1764762888.8774965,-0.85456,3.3572,1.54126,-0.894467925,0.3832998,-0.209655225
1764762888.8774965,-0.85456,3.3572,1.54126,-0.894467925,0.3832998,-0.209655225
1764762888.8774965,-0.85456,3.3572,1.54126,-0.894467925,0.3832998,-0.209655225
1764762888.8774965,-0.85456,3.3572,1.54126,-0.894467925,0.3832998,-0.209655225
1764762888.8774965,-0.85456,3.3572,1.54126,-0.894467925,0.3832998,-0.209655225
1764762888.8774965,-0.85456,3.3572,1.54126,-0.894467925,0.3832998,-0.209655225
1764762888.8774965,0.24416,3.03674,0.62566,-0.892148595,0.382872555,-0.209777295
1764762888.8774965,0.24416,3.03674,0.62566,-0.892148595,0.382872555,-0.209777295
1764762888.8774965,0.24416,3.03674,0.62566,-0.892148595,0.382872555,-0.209777295
1764762888.8774965,0.24416,3.03674,0.62566,-0.892148595,0.382872555,-0.209777295
1764762888.9285796,0.24416,3.03674,0.62566,-0.892148595,0.382872555,-0.209777295
1764762888.9285796,0.24416,3.03674,0.62566,-0.892148595,0.382872555,-0.209777295
1764762888.9285796,0.24416,3.03674,0.62566,-0.892148595,0.382872555,-0.209777295
1764762888.9285796,0.24416,3.03674,0.62566,-0.892148595,0.382872555,-0.209777295
1764762888.9285796,0.24416,3.03674,0.62566,-0.892148595,0.382872555,-0.209777295
1764762888.9285796,0.24416,3.03674,0.62566,-0.892148595,0.382872555,-0.209777295
1764762888.9285796,-0.09156,3.37246,1.73964,-0.8917823850000001,0.384093255,-0.21057075
1764762888.9285796,-0.09156,3.37246,1.73964,-0.8917823850000001,0.384093255,-0.21057075
1764762888.9285796,-0.09156,3.37246,1.73964,-0.8917823850000001,0.384093255,-0.21057075
1764762888.9285796,-0.09156,3.37246,1.73964,-0.8917823850000001,0.384093255,-0.21057075
1764762888.9285796,-0.09156,3.37246,1.73964,-0.8917823850000001,0.384093255,-0.21057075
1764762888.9285796,-0.09156,3.37246,1.73964,-0.8917823850000001,0.384093255,-0.21057075
1764762888.9285796,-0.09156,3.37246,1.73964,-0.8917823850000001,0.384093255,-0.21057075
1764762888.9285796,-0.09156,3.37246,1.73964,-0.8917823850000001,0.384093255,-0.21057075
1764762888.9285796,-0.09156,3.37246,1.73964,-0.8917823850000001,0.384093255,-0.21057075
1764762888.9285796,-0.09156,3.37246,1.73964,-0.8917823850000001,0.384093255,-0.21057075
1764762888.9285796,0.13734,2.62472,1.6633399999999998,-0.8917823850000001,0.386900865,-0.21166938
1764762888.9285796,0.13734,2.62472,1.6633399999999998,-0.8917823850000001,0.386900865,-0.21166938
1764762888.9285796,0.13734,2.62472,1.6633399999999998,-0.8917823850000001,0.386900865,-0.21166938
1764762888.9285796,0.13734,2.62472,1.6633399999999998,-0.8917823850000001,0.386900865,-0.21166938
1764762888.9285796,0.13734,2.62472,1.6633399999999998,-0.8917823850000001,0.386900865,-0.21166938
1764762888.9285796,0.13734,2.62472,1.6633399999999998,-0.8917823850000001,0.386900865,-0.21166938
1764762888.9285796,0.13734,2.62472,1.6633399999999998,-0.8917823850000001,0.386900865,-0.21166938
1764762888.9285796,0.13734,2.62472,1.6633399999999998,-0.8917823850000001,0.386900865,-0.21166938
1764762888.975468,0.13734,2.62472,1.6633399999999998,-0.8917823850000001,0.386900865,-0.21166938
1764762888.975468,0.13734,2.62472,1.6633399999999998,-0.8917823850000001,0.386900865,-0.21166938
1764762888.975468,-1.0682,2.48738,1.26658,-0.89257584,0.390685035,-0.213927675
1764762888.975468,-1.0682,2.48738,1.26658,-0.89257584,0.390685035,-0.213927675
1764762888.975468,-1.0682,2.48738,1.26658,-0.89257584,0.390685035,-0.213927675
1764762888.975468,-1.0682,2.48738,1.26658,-0.89257584,0.390685035,-0.213927675
1764762888.975468,-1.0682,2.48738,1.26658,-0.89257584,0.390685035,-0.213927675
1764762888.975468,-1.0682,2.48738,1.26658,-0.89257584,0.390685035,-0.213927675
1764762888.975468,-1.0682,2.48738,1.26658,-0.89257584,0.390685035,-0.213927675
1764762888.975468,-1.0682,2.48738,1.26658,-0.89257584,0.390685035,-0.213927675
1764762888.975468,-1.0682,2.48738,1.26658,-0.89257584,0.390685035,-0.213927675
1764762888.975468,-1.0682,2.48738,1.26658,-0.89257584,0.390685035,-0.213927675
1764762888.975468,-3.4335,2.04484,1.93802,-0.893857575,0.393736785,-0.216857355
1764762888.975468,-3.4335,2.04484,1.93802,-0.893857575,0.393736785,-0.216857355
1764762888.975468,-3.4335,2.04484,1.93802,-0.893857575,0.393736785,-0.216857355
1764762888.975468,-3.4335,2.04484,1.93802,-0.893857575,0.393736785,-0.216857355
1764762888.975468,-3.4335,2.04484,1.93802,-0.893857575,0.393736785,-0.216857355
1764762888.975468,-3.4335,2.04484,1.93802,-0.893857575,0.393736785,-0.216857355
1764762888.975468,-3.4335,2.04484,1.93802,-0.893857575,0.393736785,-0.216857355
1764762888.976484,-3.4335,2.04484,1.93802,-0.893857575,0.393736785,-0.216857355
1764762888.976484,-3.4335,2.04484,1.93802,-0.893857575,0.393736785,-0.216857355
1764762888.976484,-3.4335,2.04484,1.93802,-0.893857575,0.393736785,-0.216857355
1764762888.976484,-7.996239999999999,1.51074,1.28184,-0.8949562050000001,0.39709371,-0.220397385
1764762888.976484,-7.996239999999999,1.51074,1.28184,-0.8949562050000001,0.39709371,-0.220397385
1764762889.0191925,-7.996239999999999,1.51074,1.28184,-0.8949562050000001,0.39709371,-0.220397385
1764762889.0191925,-7.996239999999999,1.51074,1.28184,-0.8949562050000001,0.39709371,-0.220397385
1764762889.0191925,-7.996239999999999,1.51074,1.28184,-0.8949562050000001,0.39709371,-0.220397385
1764762889.0191925,-7.996239999999999,1.51074,1.28184,-0.8949562050000001,0.39709371,-0.220397385
1764762889.0191925,-7.996239999999999,1.51074,1.28184,-0.8949562050000001,0.39709371,-0.220397385
1764762889.0191925,-7.996239999999999,1.51074,1.28184,-0.8949562050000001,0.39709371,-0.220397385
1764762889.0191925,-7.996239999999999,1.51074,1.28184,-0.8949562050000001,0.39709371,-0.220397385
1764762889.0191925,-7.996239999999999,1.51074,1.28184,-0.8949562050000001,0.39709371,-0.220397385
1764762889.0191925,-13.2762,0.8392999999999999,0.94612,-0.89452896,0.400084425,-0.22021428
1764762889.0197268,-13.2762,0.8392999999999999,0.94612,-0.89452896,0.400084425,-0.22021428
1764762889.0197268,-13.2762,0.8392999999999999,0.94612,-0.89452896,0.400084425,-0.22021428
1764762889.0197268,-13.2762,0.8392999999999999,0.94612,-0.89452896,0.400084425,-0.22021428
1764762889.0197268,-13.2762,0.8392999999999999,0.94612,-0.89452896,0.400084425,-0.22021428
1764762889.0197268,-13.2762,0.8392999999999999,0.94612,-0.89452896,0.400084425,-0.22021428
1764762889.0197268,-13.2762,0.8392999999999999,0.94612,-0.89452896,0.400084425,-0.22021428
1764762889.0197268,-13.2762,0.8392999999999999,0.94612,-0.89452896,0.400084425,-0.22021428
1764762889.0197268,-13.2762,0.8392999999999999,0.94612,-0.89452896,0.400084425,-0.22021428
1764762889.0197268,-13.2762,0.8392999999999999,0.94612,-0.89452896,0.400084425,-0.22021428
1764762889.0197268,-15.12266,1.31236,1.09872,-0.892026525,0.396910605,-0.214415955
1764762889.0197268,-15.12266,1.31236,1.09872,-0.892026525,0.396910605,-0.214415955
1764762889.0197268,-15.12266,1.31236,1.09872,-0.892026525,0.396910605,-0.214415955
1764762889.0197268,-15.12266,1.31236,1.09872,-0.892026525,0.396910605,-0.214415955
1764762889.066533,-15.12266,1.31236,1.09872,-0.892026525,0.396910605,-0.214415955
1764762889.066533,-15.12266,1.31236,1.09872,-0.892026525,0.396910605,-0.214415955
1764762889.066533,-15.12266,1.31236,1.09872,-0.892026525,0.396910605,-0.214415955
1764762889.066533,-15.12266,1.31236,1.09872,-0.892026525,0.396910605,-0.214415955
1764762889.066533,-15.12266,1.31236,1.09872,-0.892026525,0.396910605,-0.214415955
1764762889.066533,-15.12266,1.31236,1.09872,-0.892026525,0.396910605,-0.214415955
1764762889.066533,-13.1236,2.83836,0.41202,-0.88903581,0.392271945,-0.20837349
1764762889.066533,-13.1236,2.83836,0.41202,-0.88903581,0.392271945,-0.20837349
1764762889.066533,-13.1236,2.83836,0.41202,-0.88903581,0.392271945,-0.20837349
1764762889.066533,-13.1236,2.83836,0.41202,-0.88903581,0.392271945,-0.20837349
1764762889.066533,-13.1236,2.83836,0.41202,-0.88903581,0.392271945,-0.20837349
1764762889.066533,-13.1236,2.83836,0.41202,-0.88903581,0.392271945,-0.20837349
1764762889.066533,-13.1236,2.83836,0.41202,-0.88903581,0.392271945,-0.20837349
1764762889.066533,-13.1236,2.83836,0.41202,-0.88903581,0.392271945,-0.20837349
1764762889.066533,-13.1236,2.83836,0.41202,-0.88903581,0.392271945,-0.20837349
1764762889.066533,-13.1236,2.83836,0.41202,-0.88903581,0.392271945,-0.20837349
1764762889.066533,-10.39206,3.69292,-0.79352,-0.887021655,0.388487775,-0.20349069
1764762889.066533,-10.39206,3.69292,-0.79352,-0.887021655,0.388487775,-0.20349069
1764762889.0675452,-10.39206,3.69292,-0.79352,-0.887021655,0.388487775,-0.20349069
1764762889.0675452,-10.39206,3.69292,-0.79352,-0.887021655,0.388487775,-0.20349069
1764762889.0675452,-10.39206,3.69292,-0.79352,-0.887021655,0.388487775,-0.20349069
1764762889.0675452,-10.39206,3.69292,-0.79352,-0.887021655,0.388487775,-0.20349069
1764762889.0675452,-10.39206,3.69292,-0.79352,-0.887021655,0.388487775,-0.20349069
1764762889.0675452,-10.39206,3.69292,-0.79352,-0.887021655,0.388487775,-0.20349069
1764762889.114062,-10.39206,3.69292,-0.79352,-0.887021655,0.388487775,-0.20349069
1764762889.114062,-10.39206,3.69292,-0.79352,-0.887021655,0.388487775,-0.20349069
1764762889.114062,-7.7063,4.68482,0.1525999999999999,-0.887021655,0.386778795,-0.200377905
1764762889.114062,-7.7063,4.68482,0.1525999999999999,-0.887021655,0.386778795,-0.200377905
1764762889.114062,-7.7063,4.68482,0.1525999999999999,-0.887021655,0.386778795,-0.200377905
1764762889.114062,-7.7063,4.68482,0.1525999999999999,-0.887021655,0.386778795,-0.200377905
1764762889.114062,-7.7063,4.68482,0.1525999999999999,-0.887021655,0.386778795,-0.200377905
1764762889.114062,-7.7063,4.68482,0.1525999999999999,-0.887021655,0.386778795,-0.200377905
1764762889.114062,-7.7063,4.68482,0.1525999999999999,-0.887021655,0.386778795,-0.200377905
1764762889.114062,-7.7063,4.68482,0.1525999999999999,-0.887021655,0.386778795,-0.200377905
1764762889.114062,-7.7063,4.68482,0.1525999999999999,-0.887021655,0.386778795,-0.200377905
1764762889.114062,-7.7063,4.68482,0.1525999999999999,-0.887021655,0.386778795,-0.200377905
1764762889.115076,-4.959499999999999,5.21892,0.19838,-0.888974775,0.38476464,-0.20031687
1764762889.115076,-4.959499999999999,5.21892,0.19838,-0.888974775,0.38476464,-0.20031687
1764762889.115076,-4.959499999999999,5.21892,0.19838,-0.888974775,0.38476464,-0.20031687
1764762889.115076,-4.959499999999999,5.21892,0.19838,-0.888974775,0.38476464,-0.20031687
1764762889.115076,-4.959499999999999,5.21892,0.19838,-0.888974775,0.38476464,-0.20031687
1764762889.115076,-4.959499999999999,5.21892,0.19838,-0.888974775,0.38476464,-0.20031687
1764762889.115076,-4.959499999999999,5.21892,0.19838,-0.888974775,0.38476464,-0.20031687
1764762889.115076,-4.959499999999999,5.21892,0.19838,-0.888974775,0.38476464,-0.20031687
1764762889.115076,-4.959499999999999,5.21892,0.19838,-0.888974775,0.38476464,-0.20031687
1764762889.115076,-4.959499999999999,5.21892,0.19838,-0.888974775,0.38476464,-0.20031687
1764762889.1624858,-2.60946,4.6543,0.42728,-0.8917823850000001,0.38513085,-0.200499975
1764762889.1624858,-2.60946,4.6543,0.42728,-0.8917823850000001,0.38513085,-0.200499975
1764762889.1624858,-2.60946,4.6543,0.42728,-0.8917823850000001,0.38513085,-0.200499975
1764762889.1624858,-2.60946,4.6543,0.42728,-0.8917823850000001,0.38513085,-0.200499975
1764762889.1624858,-2.60946,4.6543,0.42728,-0.8917823850000001,0.38513085,-0.200499975
1764762889.1624858,-2.60946,4.6543,0.42728,-0.8917823850000001,0.38513085,-0.200499975
1764762889.1624858,-2.60946,4.6543,0.42728,-0.8917823850000001,0.38513085,-0.200499975
1764762889.1624858,-2.60946,4.6543,0.42728,-0.8917823850000001,0.38513085,-0.200499975
1764762889.1624858,-2.60946,4.6543,0.42728,-0.8917823850000001,0.38513085,-0.200499975
1764762889.1624858,-2.60946,4.6543,0.42728,-0.8917823850000001,0.38513085,-0.200499975
1764762889.1624858,-0.88508,3.92182,0.71722,-0.89208756,0.38537499,-0.20080515
1764762889.1624858,-0.88508,3.92182,0.71722,-0.89208756,0.38537499,-0.20080515
1764762889.1624858,-0.88508,3.92182,0.71722,-0.89208756,0.38537499,-0.20080515
1764762889.1624858,-0.88508,3.92182,0.71722,-0.89208756,0.38537499,-0.20080515
1764762889.1624858,-0.88508,3.92182,0.71722,-0.89208756,0.38537499,-0.20080515
1764762889.1624858,-0.88508,3.92182,0.71722,-0.89208756,0.38537499,-0.20080515
1764762889.1624858,-0.88508,3.92182,0.71722,-0.89208756,0.38537499,-0.20080515
1764762889.1624858,-0.88508,3.92182,0.71722,-0.89208756,0.38537499,-0.20080515
1764762889.1624858,-0.88508,3.92182,0.71722,-0.89208756,0.38537499,-0.20080515
1764762889.1624858,-0.88508,3.92182,0.71722,-0.89208756,0.38537499,-0.20080515
1764762889.1624858,0.54936,3.34194,0.5341,-0.89196549,0.385802235,-0.20153757
1764762889.1624858,0.54936,3.34194,0.5341,-0.89196549,0.385802235,-0.20153757
1764762889.1624858,0.54936,3.34194,0.5341,-0.89196549,0.385802235,-0.20153757
1764762889.1624858,0.54936,3.34194,0.5341,-0.89196549,0.385802235,-0.20153757
1764762889.2057164,0.54936,3.34194,0.5341,-0.89196549,0.385802235,-0.20153757
1764762889.2057164,0.54936,3.34194,0.5341,-0.89196549,0.385802235,-0.20153757
1764762889.2057164,0.54936,3.34194,0.5341,-0.89196549,0.385802235,-0.20153757
1764762889.2057164,0.54936,3.34194,0.5341,-0.89196549,0.385802235,-0.20153757
1764762889.2057164,0.54936,3.34194,0.5341,-0.89196549,0.385802235,-0.20153757
1764762889.2057164,0.54936,3.34194,0.5341,-0.89196549,0.385802235,-0.20153757
1764762889.2069242,1.526,3.03674,0.9156,-0.893491365,0.38647362,-0.20214792
1764762889.2069242,1.526,3.03674,0.9156,-0.893491365,0.38647362,-0.20214792
1764762889.2069242,1.526,3.03674,0.9156,-0.893491365,0.38647362,-0.20214792
1764762889.2069242,1.526,3.03674,0.9156,-0.893491365,0.38647362,-0.20214792
1764762889.2069242,1.526,3.03674,0.9156,-0.893491365,0.38647362,-0.20214792
1764762889.2069242,1.526,3.03674,0.9156,-0.893491365,0.38647362,-0.20214792
1764762889.2069242,1.526,3.03674,0.9156,-0.893491365,0.38647362,-0.20214792
1764762889.2069242,1.526,3.03674,0.9156,-0.893491365,0.38647362,-0.20214792
1764762889.2069242,1.526,3.03674,0.9156,-0.893491365,0.38647362,-0.20214792
1764762889.2069242,1.526,3.03674,0.9156,-0.893491365,0.38647362,-0.20214792
1764762889.2069242,1.61756,2.2127,0.44254,-0.892758945,0.387999495,-0.20251413
1764762889.2069242,1.61756,2.2127,0.44254,-0.892758945,0.387999495,-0.20251413
1764762889.2069242,1.61756,2.2127,0.44254,-0.892758945,0.387999495,-0.20251413
1764762889.2069242,1.61756,2.2127,0.44254,-0.892758945,0.387999495,-0.20251413
1764762889.2069242,1.61756,2.2127,0.44254,-0.892758945,0.387999495,-0.20251413
1764762889.2069242,1.61756,2.2127,0.44254,-0.892758945,0.387999495,-0.20251413
1764762889.255118,1.61756,2.2127,0.44254,-0.892758945,0.387999495,-0.20251413
1764762889.255118,1.61756,2.2127,0.44254,-0.892758945,0.387999495,-0.20251413
1764762889.255118,1.61756,2.2127,0.44254,-0.892758945,0.387999495,-0.20251413
1764762889.255118,1.61756,2.2127,0.44254,-0.892758945,0.387999495,-0.20251413
1764762889.255118,2.50264,2.289,0.39676,-0.89098893,0.387755355,-0.203185515
1764762889.255118,2.50264,2.289,0.39676,-0.89098893,0.387755355,-0.203185515
1764762889.255118,2.50264,2.289,0.39676,-0.89098893,0.387755355,-0.203185515
1764762889.255118,2.50264,2.289,0.39676,-0.89098893,0.387755355,-0.203185515
1764762889.255118,2.50264,2.289,0.39676,-0.89098893,0.387755355,-0.203185515
1764762889.255118,2.50264,2.289,0.39676,-0.89098893,0.387755355,-0.203185515
1764762889.255118,2.50264,2.289,0.39676,-0.89098893,0.387755355,-0.203185515
1764762889.255118,2.50264,2.289,0.39676,-0.89098893,0.387755355,-0.203185515
1764762889.255118,2.50264,2.289,0.39676,-0.89098893,0.387755355,-0.203185515
1764762889.255118,2.50264,2.289,0.39676,-0.89098893,0.387755355,-0.203185515
1764762889.255118,3.3572,2.15166,1.00716,-0.893125155,0.3881826,-0.204528285
1764762889.255118,3.3572,2.15166,1.00716,-0.893125155,0.3881826,-0.204528285
1764762889.255118,3.3572,2.15166,1.00716,-0.893125155,0.3881826,-0.204528285
1764762889.255118,3.3572,2.15166,1.00716,-0.893125155,0.3881826,-0.204528285
1764762889.255118,3.3572,2.15166,1.00716,-0.893125155,0.3881826,-0.204528285
1764762889.2558196,3.3572,2.15166,1.00716,-0.893125155,0.3881826,-0.204528285
1764762889.2558196,3.3572,2.15166,1.00716,-0.893125155,0.3881826,-0.204528285
1764762889.2558196,3.3572,2.15166,1.00716,-0.893125155,0.3881826,-0.204528285
1764762889.2558196,3.3572,2.15166,1.00716,-0.893125155,0.3881826,-0.204528285
1764762889.2558196,3.3572,2.15166,1.00716,-0.893125155,0.3881826,-0.204528285
1764762889.2558196,2.94518,2.39582,1.84646,-0.894101715,0.391051245,-0.204040005
1764762889.2558196,2.94518,2.39582,1.84646,-0.894101715,0.391051245,-0.204040005
1764762889.2984118,2.94518,2.39582,1.84646,-0.894101715,0.391051245,-0.204040005
1764762889.2984118,2.94518,2.39582,1.84646,-0.894101715,0.391051245,-0.204040005
1764762889.2984118,2.94518,2.39582,1.84646,-0.894101715,0.391051245,-0.204040005
1764762889.2984118,2.94518,2.39582,1.84646,-0.894101715,0.391051245,-0.204040005
1764762889.2984118,2.94518,2.39582,1.84646,-0.894101715,0.391051245,-0.204040005
1764762889.2984118,2.94518,2.39582,1.84646,-0.894101715,0.391051245,-0.204040005
1764762889.2984118,2.94518,2.39582,1.84646,-0.894101715,0.391051245,-0.204040005
1764762889.2984118,2.94518,2.39582,1.84646,-0.894101715,0.391051245,-0.204040005
1764762889.2984118,2.71628,3.31142,1.09872,-0.89196549,0.393370575,-0.204528285
1764762889.2984118,2.71628,3.31142,1.09872,-0.89196549,0.393370575,-0.204528285
1764762889.2999349,2.71628,3.31142,1.09872,-0.89196549,0.393370575,-0.204528285
1764762889.3030224,2.71628,3.31142,1.09872,-0.89196549,0.393370575,-0.204528285
1764762889.3030224,2.71628,3.31142,1.09872,-0.89196549,0.393370575,-0.204528285
1764762889.3030224,2.71628,3.31142,1.09872,-0.89196549,0.393370575,-0.204528285
1764762889.3030224,2.71628,3.31142,1.09872,-0.89196549,0.393370575,-0.204528285
1764762889.3030224,2.71628,3.31142,1.09872,-0.89196549,0.393370575,-0.204528285
1764762889.3030224,2.71628,3.31142,1.09872,-0.89196549,0.393370575,-0.204528285
1764762889.3030224,2.71628,3.31142,1.09872,-0.89196549,0.393370575,-0.204528285
1764762889.3030224,1.64808,3.67766,0.62566,-0.890561685,0.39355368,-0.20568795
1764762889.3030224,1.64808,3.67766,0.62566,-0.890561685,0.39355368,-0.20568795
1764762889.3030224,1.64808,3.67766,0.62566,-0.890561685,0.39355368,-0.20568795
1764762889.3041198,1.64808,3.67766,0.62566,-0.890561685,0.39355368,-0.20568795
1764762889.3470664,1.64808,3.67766,0.62566,-0.890561685,0.39355368,-0.20568795
1764762889.3480997,1.64808,3.67766,0.62566,-0.890561685,0.39355368,-0.20568795
1764762889.3480997,1.64808,3.67766,0.62566,-0.890561685,0.39355368,-0.20568795
1764762889.3480997,1.64808,3.67766,0.62566,-0.890561685,0.39355368,-0.20568795
1764762889.3480997,1.64808,3.67766,0.62566,-0.890561685,0.39355368,-0.20568795
1764762889.3480997,1.64808,3.67766,0.62566,-0.890561685,0.39355368,-0.20568795
1764762889.3480997,-1.0682,3.5861,0.28994,-0.890317545,0.393980925,-0.20849556
1764762889.3480997,-1.0682,3.5861,0.28994,-0.890317545,0.393980925,-0.20849556
1764762889.3480997,-1.0682,3.5861,0.28994,-0.890317545,0.393980925,-0.20849556
1764762889.3480997,-1.0682,3.5861,0.28994,-0.890317545,0.393980925,-0.20849556
1764762889.3480997,-1.0682,3.5861,0.28994,-0.890317545,0.393980925,-0.20849556
1764762889.3491054,-1.0682,3.5861,0.28994,-0.890317545,0.393980925,-0.20849556
1764762889.3491054,-1.0682,3.5861,0.28994,-0.890317545,0.393980925,-0.20849556
1764762889.3491054,-1.0682,3.5861,0.28994,-0.890317545,0.393980925,-0.20849556
1764762889.3491054,-1.0682,3.5861,0.28994,-0.890317545,0.393980925,-0.20849556
1764762889.3491054,-1.0682,3.5861,0.28994,-0.890317545,0.393980925,-0.20849556
1764762889.3491054,-3.18934,3.14356,0.5341,-0.89098893,0.39379782,-0.209655225
1764762889.3491054,-3.18934,3.14356,0.5341,-0.89098893,0.39379782,-0.209655225
1764762889.3491054,-3.18934,3.14356,0.5341,-0.89098893,0.39379782,-0.209655225
1764762889.3491054,-3.18934,3.14356,0.5341,-0.89098893,0.39379782,-0.209655225
1764762889.3491054,-3.18934,3.14356,0.5341,-0.89098893,0.39379782,-0.209655225
1764762889.3491054,-3.18934,3.14356,0.5341,-0.89098893,0.39379782,-0.209655225
1764762889.3491054,-3.18934,3.14356,0.5341,-0.89098893,0.39379782,-0.209655225
1764762889.3491054,-3.18934,3.14356,0.5341,-0.89098893,0.39379782,-0.209655225
1764762889.3926294,-3.18934,3.14356,0.5341,-0.89098893,0.39379782,-0.209655225
1764762889.3926294,-3.18934,3.14356,0.5341,-0.89098893,0.39379782,-0.209655225
1764762889.3926294,-4.74586,3.26564,0.73248,-0.892026525,0.39416403,-0.209166945
1764762889.3926294,-4.74586,3.26564,0.73248,-0.892026525,0.39416403,-0.209166945
1764762889.3926294,-4.74586,3.26564,0.73248,-0.892026525,0.39416403,-0.209166945
1764762889.3926294,-4.74586,3.26564,0.73248,-0.892026525,0.39416403,-0.209166945
1764762889.3926294,-4.74586,3.26564,0.73248,-0.892026525,0.39416403,-0.209166945
1764762889.3926294,-4.74586,3.26564,0.73248,-0.892026525,0.39416403,-0.209166945
1764762889.3926294,-4.74586,3.26564,0.73248,-0.892026525,0.39416403,-0.209166945
1764762889.3926294,-4.74586,3.26564,0.73248,-0.892026525,0.39416403,-0.209166945
1764762889.3926294,-4.74586,3.26564,0.73248,-0.892026525,0.39416403,-0.209166945
1764762889.393642,-4.74586,3.26564,0.73248,-0.892026525,0.39416403,-0.209166945
1764762889.393642,-3.69292,3.86078,0.3051999999999999,-0.8917823850000001,0.392638155,-0.205748985
1764762889.393642,-3.69292,3.86078,0.3051999999999999,-0.8917823850000001,0.392638155,-0.205748985
1764762889.393642,-3.69292,3.86078,0.3051999999999999,-0.8917823850000001,0.392638155,-0.205748985
1764762889.393642,-3.69292,3.86078,0.3051999999999999,-0.8917823850000001,0.392638155,-0.205748985
1764762889.393642,-3.69292,3.86078,0.3051999999999999,-0.8917823850000001,0.392638155,-0.205748985
1764762889.393642,-3.69292,3.86078,0.3051999999999999,-0.8917823850000001,0.392638155,-0.205748985
1764762889.393642,-3.69292,3.86078,0.3051999999999999,-0.8917823850000001,0.392638155,-0.205748985
1764762889.393642,-3.69292,3.86078,0.3051999999999999,-0.8917823850000001,0.392638155,-0.205748985
1764762889.393642,-3.69292,3.86078,0.3051999999999999,-0.8917823850000001,0.392638155,-0.205748985
1764762889.393642,-3.69292,3.86078,0.3051999999999999,-0.8917823850000001,0.392638155,-0.205748985
1764762889.437004,-2.6705,4.3491,0.12208,-0.8907447900000001,0.39025779,-0.204894495
1764762889.4375422,-2.6705,4.3491,0.12208,-0.8907447900000001,0.39025779,-0.204894495
1764762889.4375422,-2.6705,4.3491,0.12208,-0.8907447900000001,0.39025779,-0.204894495
1764762889.4380698,-2.6705,4.3491,0.12208,-0.8907447900000001,0.39025779,-0.204894495
1764762889.4380698,-2.6705,4.3491,0.12208,-0.8907447900000001,0.39025779,-0.204894495
1764762889.4380698,-2.6705,4.3491,0.12208,-0.8907447900000001,0.39025779,-0.204894495
1764762889.4380698,-2.6705,4.3491,0.12208,-0.8907447900000001,0.39025779,-0.204894495
1764762889.4380698,-2.6705,4.3491,0.12208,-0.8907447900000001,0.39025779,-0.204894495
1764762889.4380698,-2.6705,4.3491,0.12208,-0.8907447900000001,0.39025779,-0.204894495
1764762889.4380698,-2.6705,4.3491,0.12208,-0.8907447900000001,0.39025779,-0.204894495
1764762889.4380698,-2.24322,3.7387,0.28994,-0.89257584,0.389098125,-0.205504845
1764762889.4380698,-2.24322,3.7387,0.28994,-0.89257584,0.389098125,-0.205504845
1764762889.4380698,-2.24322,3.7387,0.28994,-0.89257584,0.389098125,-0.205504845
1764762889.4380698,-2.24322,3.7387,0.28994,-0.89257584,0.389098125,-0.205504845
1764762889.4380698,-2.24322,3.7387,0.28994,-0.89257584,0.389098125,-0.205504845
1764762889.4380698,-2.24322,3.7387,0.28994,-0.89257584,0.389098125,-0.205504845
1764762889.4380698,-2.24322,3.7387,0.28994,-0.89257584,0.389098125,-0.205504845
1764762889.4380698,-2.24322,3.7387,0.28994,-0.89257584,0.389098125,-0.205504845
1764762889.4380698,-2.24322,3.7387,0.28994,-0.89257584,0.389098125,-0.205504845
1764762889.4380698,-2.24322,3.7387,0.28994,-0.89257584,0.389098125,-0.205504845
1764762889.4380698,-1.95328,3.38772,0.6103999999999999,-0.89159928,0.389098125,-0.20532174
1764762889.4380698,-1.95328,3.38772,0.6103999999999999,-0.89159928,0.389098125,-0.20532174
1764762889.4380698,-1.95328,3.38772,0.6103999999999999,-0.89159928,0.389098125,-0.20532174
1764762889.4380698,-1.95328,3.38772,0.6103999999999999,-0.89159928,0.389098125,-0.20532174
1764762889.4858687,-1.95328,3.38772,0.6103999999999999,-0.89159928,0.389098125,-0.20532174
1764762889.4858687,-1.95328,3.38772,0.6103999999999999,-0.89159928,0.389098125,-0.20532174
1764762889.4858687,-1.95328,3.38772,0.6103999999999999,-0.89159928,0.389098125,-0.20532174
1764762889.4858687,-1.95328,3.38772,0.6103999999999999,-0.89159928,0.389098125,-0.20532174
1764762889.4858687,-1.95328,3.38772,0.6103999999999999,-0.89159928,0.389098125,-0.20532174
1764762889.4858687,-1.95328,3.38772,0.6103999999999999,-0.89159928,0.389098125,-0.20532174
1764762889.4858687,-2.2127,2.85362,1.26658,-0.892148595,0.389830545,-0.20471139
1764762889.4858687,-2.2127,2.85362,1.26658,-0.892148595,0.389830545,-0.20471139
1764762889.4858687,-2.2127,2.85362,1.26658,-0.892148595,0.389830545,-0.20471139
1764762889.4858687,-2.2127,2.85362,1.26658,-0.892148595,0.389830545,-0.20471139
1764762889.487395,-2.2127,2.85362,1.26658,-0.892148595,0.389830545,-0.20471139
1764762889.487395,-2.2127,2.85362,1.26658,-0.892148595,0.389830545,-0.20471139
1764762889.487395,-2.2127,2.85362,1.26658,-0.892148595,0.389830545,-0.20471139
1764762889.487395,-2.2127,2.85362,1.26658,-0.892148595,0.389830545,-0.20471139
1764762889.487395,-2.2127,2.85362,1.26658,-0.892148595,0.389830545,-0.20471139
1764762889.487395,-2.2127,2.85362,1.26658,-0.892148595,0.389830545,-0.20471139
1764762889.4881408,-1.73964,2.96044,0.9156,-0.892026525,0.39025779,-0.203307585
1764762889.4881408,-1.73964,2.96044,0.9156,-0.892026525,0.39025779,-0.203307585
1764762889.4881408,-1.73964,2.96044,0.9156,-0.892026525,0.39025779,-0.203307585
1764762889.4881408,-1.73964,2.96044,0.9156,-0.892026525,0.39025779,-0.203307585
1764762889.4881408,-1.73964,2.96044,0.9156,-0.892026525,0.39025779,-0.203307585
1764762889.4881408,-1.73964,2.96044,0.9156,-0.892026525,0.39025779,-0.203307585
1764762889.4881408,-1.73964,2.96044,0.9156,-0.892026525,0.39025779,-0.203307585
1764762889.4881408,-1.73964,2.96044,0.9156,-0.892026525,0.39025779,-0.203307585
1764762889.5321796,-1.73964,2.96044,0.9156,-0.892026525,0.39025779,-0.203307585
1764762889.5321796,-1.73964,2.96044,0.9156,-0.892026525,0.39025779,-0.203307585
1764762889.5321796,-0.97664,3.55558,0.62566,-0.8912941050000001,0.390440895,-0.20190378
1764762889.5321796,-0.97664,3.55558,0.62566,-0.8912941050000001,0.390440895,-0.20190378
1764762889.5321796,-0.97664,3.55558,0.62566,-0.8912941050000001,0.390440895,-0.20190378
1764762889.5321796,-0.97664,3.55558,0.62566,-0.8912941050000001,0.390440895,-0.20190378
1764762889.5321796,-0.97664,3.55558,0.62566,-0.8912941050000001,0.390440895,-0.20190378
1764762889.5321796,-0.97664,3.55558,0.62566,-0.8912941050000001,0.390440895,-0.20190378
1764762889.5321796,-0.97664,3.55558,0.62566,-0.8912941050000001,0.390440895,-0.20190378
1764762889.5321796,-0.97664,3.55558,0.62566,-0.8912941050000001,0.390440895,-0.20190378
1764762889.5321796,-0.97664,3.55558,0.62566,-0.8912941050000001,0.390440895,-0.20190378
1764762889.5321796,-0.97664,3.55558,0.62566,-0.8912941050000001,0.390440895,-0.20190378
1764762889.5321796,-0.44254,3.49454,0.62566,-0.89135514,0.390685035,-0.201232395
1764762889.5321796,-0.44254,3.49454,0.62566,-0.89135514,0.390685035,-0.201232395
1764762889.5321796,-0.44254,3.49454,0.62566,-0.89135514,0.390685035,-0.201232395
1764762889.5321796,-0.44254,3.49454,0.62566,-0.89135514,0.390685035,-0.201232395
1764762889.5321796,-0.44254,3.49454,0.62566,-0.89135514,0.390685035,-0.201232395
1764762889.5321796,-0.44254,3.49454,0.62566,-0.89135514,0.390685035,-0.201232395
1764762889.5321796,-0.44254,3.49454,0.62566,-0.89135514,0.390685035,-0.201232395
1764762889.5321796,-0.44254,3.49454,0.62566,-0.89135514,0.390685035,-0.201232395
1764762889.5321796,-0.44254,3.49454,0.62566,-0.89135514,0.390685035,-0.201232395
1764762889.5321796,-0.44254,3.49454,0.62566,-0.89135514,0.390685035,-0.201232395
1764762889.5780818,0.51884,3.60136,1.31236,-0.891172035,0.388609845,-0.202453095
1764762889.5780818,0.51884,3.60136,1.31236,-0.891172035,0.388609845,-0.202453095
1764762889.5780818,0.51884,3.60136,1.31236,-0.891172035,0.388609845,-0.202453095
1764762889.5780818,0.51884,3.60136,1.31236,-0.891172035,0.388609845,-0.202453095
1764762889.5780818,0.51884,3.60136,1.31236,-0.891172035,0.388609845,-0.202453095
1764762889.5780818,0.51884,3.60136,1.31236,-0.891172035,0.388609845,-0.202453095
1764762889.5780818,0.51884,3.60136,1.31236,-0.891172035,0.388609845,-0.202453095
1764762889.5780818,0.51884,3.60136,1.31236,-0.891172035,0.388609845,-0.202453095
1764762889.5780818,0.51884,3.60136,1.31236,-0.891172035,0.388609845,-0.202453095
1764762889.5780818,0.51884,3.60136,1.31236,-0.891172035,0.388609845,-0.202453095
1764762889.5780818,0.3051999999999999,3.84552,1.12924,-0.89147721,0.389098125,-0.20336862
1764762889.5780818,0.3051999999999999,3.84552,1.12924,-0.89147721,0.389098125,-0.20336862
1764762889.5780818,0.3051999999999999,3.84552,1.12924,-0.89147721,0.389098125,-0.20336862
1764762889.5780818,0.3051999999999999,3.84552,1.12924,-0.89147721,0.389098125,-0.20336862
1764762889.5780818,0.3051999999999999,3.84552,1.12924,-0.89147721,0.389098125,-0.20336862
1764762889.5780818,0.3051999999999999,3.84552,1.12924,-0.89147721,0.389098125,-0.20336862
1764762889.5780818,0.3051999999999999,3.84552,1.12924,-0.89147721,0.389098125,-0.20336862
1764762889.5780818,0.3051999999999999,3.84552,1.12924,-0.89147721,0.389098125,-0.20336862
1764762889.6266117,0.3051999999999999,3.84552,1.12924,-0.89147721,0.389098125,-0.20336862
1764762889.6266117,0.3051999999999999,3.84552,1.12924,-0.89147721,0.389098125,-0.20336862
1764762889.6266117,0.13734,3.8913,1.89224,-0.890805825,0.390685035,-0.20397897
1764762889.6266117,0.13734,3.8913,1.89224,-0.890805825,0.390685035,-0.20397897
1764762889.6266117,0.13734,3.8913,1.89224,-0.890805825,0.390685035,-0.20397897
1764762889.6266117,0.13734,3.8913,1.89224,-0.890805825,0.390685035,-0.20397897
1764762889.6266117,0.13734,3.8913,1.89224,-0.890805825,0.390685035,-0.20397897
1764762889.6266117,0.13734,3.8913,1.89224,-0.890805825,0.390685035,-0.20397897
1764762889.6266117,0.13734,3.8913,1.89224,-0.890805825,0.390685035,-0.20397897
1764762889.6266117,0.13734,3.8913,1.89224,-0.890805825,0.390685035,-0.20397897
1764762889.6266117,0.13734,3.8913,1.89224,-0.890805825,0.390685035,-0.20397897
1764762889.6266117,0.13734,3.8913,1.89224,-0.890805825,0.390685035,-0.20397897
1764762889.6266117,0.9919,3.61662,0.6409199999999999,-0.890561685,0.391173315,-0.20349069
1764762889.6266117,0.9919,3.61662,0.6409199999999999,-0.890561685,0.391173315,-0.20349069
1764762889.6266117,0.9919,3.61662,0.6409199999999999,-0.890561685,0.391173315,-0.20349069
1764762889.6266117,0.9919,3.61662,0.6409199999999999,-0.890561685,0.391173315,-0.20349069
1764762889.6266117,0.9919,3.61662,0.6409199999999999,-0.890561685,0.391173315,-0.20349069
1764762889.6266117,0.9919,3.61662,0.6409199999999999,-0.890561685,0.391173315,-0.20349069
1764762889.6266117,0.9919,3.61662,0.6409199999999999,-0.890561685,0.391173315,-0.20349069
1764762889.6266117,0.9919,3.61662,0.6409199999999999,-0.890561685,0.391173315,-0.20349069
1764762889.6266117,0.9919,3.61662,0.6409199999999999,-0.890561685,0.391173315,-0.20349069
1764762889.6266117,0.9919,3.61662,0.6409199999999999,-0.890561685,0.391173315,-0.20349069
1764762889.6266117,0.6867,3.57084,0.5341,-0.891111,0.391173315,-0.204894495
1764762889.6266117,0.6867,3.57084,0.5341,-0.891111,0.391173315,-0.204894495
1764762889.6266117,0.6867,3.57084,0.5341,-0.891111,0.391173315,-0.204894495
1764762889.6266117,0.6867,3.57084,0.5341,-0.891111,0.391173315,-0.204894495
1764762889.6266117,0.6867,3.57084,0.5341,-0.891111,0.391173315,-0.204894495
1764762889.6266117,0.6867,3.57084,0.5341,-0.891111,0.391173315,-0.204894495
1764762889.670955,0.6867,3.57084,0.5341,-0.891111,0.391173315,-0.204894495
1764762889.670955,0.6867,3.57084,0.5341,-0.891111,0.391173315,-0.204894495
1764762889.670955,0.6867,3.57084,0.5341,-0.891111,0.391173315,-0.204894495
1764762889.670955,0.6867,3.57084,0.5341,-0.891111,0.391173315,-0.204894495
1764762889.670955,-0.10682,3.38772,0.88508,-0.892270665,0.391539525,-0.205748985
1764762889.670955,-0.10682,3.38772,0.88508,-0.892270665,0.391539525,-0.205748985
1764762889.670955,-0.10682,3.38772,0.88508,-0.892270665,0.391539525,-0.205748985
1764762889.670955,-0.10682,3.38772,0.88508,-0.892270665,0.391539525,-0.205748985
1764762889.670955,-0.10682,3.38772,0.88508,-0.892270665,0.391539525,-0.205748985
1764762889.670955,-0.10682,3.38772,0.88508,-0.892270665,0.391539525,-0.205748985
1764762889.670955,-0.10682,3.38772,0.88508,-0.892270665,0.391539525,-0.205748985
1764762889.670955,-0.10682,3.38772,0.88508,-0.892270665,0.391539525,-0.205748985
1764762889.670955,-0.10682,3.38772,0.88508,-0.892270665,0.391539525,-0.205748985
1764762889.670955,-0.10682,3.38772,0.88508,-0.892270665,0.391539525,-0.205748985
1764762889.670955,-0.36624,3.25038,1.2971,-0.89269791,0.39135642,-0.205138635
1764762889.671962,-0.36624,3.25038,1.2971,-0.89269791,0.39135642,-0.205138635
1764762889.671962,-0.36624,3.25038,1.2971,-0.89269791,0.39135642,-0.205138635
1764762889.671962,-0.36624,3.25038,1.2971,-0.89269791,0.39135642,-0.205138635
1764762889.671962,-0.36624,3.25038,1.2971,-0.89269791,0.39135642,-0.205138635
1764762889.671962,-0.36624,3.25038,1.2971,-0.89269791,0.39135642,-0.205138635
1764762889.671962,-0.36624,3.25038,1.2971,-0.89269791,0.39135642,-0.205138635
1764762889.671962,-0.36624,3.25038,1.2971,-0.89269791,0.39135642,-0.205138635
1764762889.717637,-0.36624,3.25038,1.2971,-0.89269791,0.39135642,-0.205138635
1764762889.717637,-0.36624,3.25038,1.2971,-0.89269791,0.39135642,-0.205138635
1764762889.717637,-0.77826,3.08252,0.6103999999999999,-0.892636875,0.3918447,-0.205016565
1764762889.717637,-0.77826,3.08252,0.6103999999999999,-0.892636875,0.3918447,-0.205016565
1764762889.717637,-0.77826,3.08252,0.6103999999999999,-0.892636875,0.3918447,-0.205016565
1764762889.717637,-0.77826,3.08252,0.6103999999999999,-0.892636875,0.3918447,-0.205016565
1764762889.717637,-0.77826,3.08252,0.6103999999999999,-0.892636875,0.3918447,-0.205016565
1764762889.717637,-0.77826,3.08252,0.6103999999999999,-0.892636875,0.3918447,-0.205016565
1764762889.717637,-0.77826,3.08252,0.6103999999999999,-0.892636875,0.3918447,-0.205016565
1764762889.717637,-0.77826,3.08252,0.6103999999999999,-0.892636875,0.3918447,-0.205016565
1764762889.717637,-0.77826,3.08252,0.6103999999999999,-0.892636875,0.3918447,-0.205016565
1764762889.717637,-0.77826,3.08252,0.6103999999999999,-0.892636875,0.3918447,-0.205016565
1764762889.717637,-1.0682,3.3572,0.6409199999999999,-0.89159928,0.392027805,-0.20483346
1764762889.717637,-1.0682,3.3572,0.6409199999999999,-0.89159928,0.392027805,-0.20483346
1764762889.717637,-1.0682,3.3572,0.6409199999999999,-0.89159928,0.392027805,-0.20483346
1764762889.717637,-1.0682,3.3572,0.6409199999999999,-0.89159928,0.392027805,-0.20483346
1764762889.717637,-1.0682,3.3572,0.6409199999999999,-0.89159928,0.392027805,-0.20483346
1764762889.717637,-1.0682,3.3572,0.6409199999999999,-0.89159928,0.392027805,-0.20483346
1764762889.7186546,-1.0682,3.3572,0.6409199999999999,-0.89159928,0.392027805,-0.20483346
1764762889.7186546,-1.0682,3.3572,0.6409199999999999,-0.89159928,0.392027805,-0.20483346
1764762889.7186546,-1.0682,3.3572,0.6409199999999999,-0.89159928,0.392027805,-0.20483346
1764762889.7186546,-1.0682,3.3572,0.6409199999999999,-0.89159928,0.392027805,-0.20483346
1764762889.7186546,-1.12924,3.76922,0.44254,-0.89086686,0.392516085,-0.2038569
1764762889.7186546,-1.12924,3.76922,0.44254,-0.89086686,0.392516085,-0.2038569
1764762889.7626731,-1.12924,3.76922,0.44254,-0.89086686,0.392516085,-0.2038569
1764762889.7626731,-1.12924,3.76922,0.44254,-0.89086686,0.392516085,-0.2038569
1764762889.7626731,-1.12924,3.76922,0.44254,-0.89086686,0.392516085,-0.2038569
1764762889.7631776,-1.12924,3.76922,0.44254,-0.89086686,0.392516085,-0.2038569
1764762889.7631776,-1.12924,3.76922,0.44254,-0.89086686,0.392516085,-0.2038569
1764762889.7631776,-1.12924,3.76922,0.44254,-0.89086686,0.392516085,-0.2038569
1764762889.7631776,-1.12924,3.76922,0.44254,-0.89086686,0.392516085,-0.2038569
1764762889.7631776,-1.12924,3.76922,0.44254,-0.89086686,0.392516085,-0.2038569
1764762889.7631776,-0.12208,3.815,0.65618,-0.89159928,0.39086814,-0.202697235
1764762889.7631776,-0.12208,3.815,0.65618,-0.89159928,0.39086814,-0.202697235
1764762889.7631776,-0.12208,3.815,0.65618,-0.89159928,0.39086814,-0.202697235
1764762889.7631776,-0.12208,3.815,0.65618,-0.89159928,0.39086814,-0.202697235
1764762889.7631776,-0.12208,3.815,0.65618,-0.89159928,0.39086814,-0.202697235
1764762889.7631776,-0.12208,3.815,0.65618,-0.89159928,0.39086814,-0.202697235
1764762889.7643764,-0.12208,3.815,0.65618,-0.89159928,0.39086814,-0.202697235
1764762889.7643764,-0.12208,3.815,0.65618,-0.89159928,0.39086814,-0.202697235
1764762889.7643764,-0.12208,3.815,0.65618,-0.89159928,0.39086814,-0.202697235
1764762889.7646918,-0.12208,3.815,0.65618,-0.89159928,0.39086814,-0.202697235
1764762889.7646918,1.526,4.059159999999999,0.25942,-0.89135514,0.38903709,-0.201842745
1764762889.7646918,1.526,4.059159999999999,0.25942,-0.89135514,0.38903709,-0.201842745
1764762889.7646918,1.526,4.059159999999999,0.25942,-0.89135514,0.38903709,-0.201842745
1764762889.7646918,1.526,4.059159999999999,0.25942,-0.89135514,0.38903709,-0.201842745
1764762889.7646918,1.526,4.059159999999999,0.25942,-0.89135514,0.38903709,-0.201842745
1764762889.7646918,1.526,4.059159999999999,0.25942,-0.89135514,0.38903709,-0.201842745
1764762889.8107188,1.526,4.059159999999999,0.25942,-0.89135514,0.38903709,-0.201842745
1764762889.8107188,1.526,4.059159999999999,0.25942,-0.89135514,0.38903709,-0.201842745
1764762889.8107188,1.526,4.059159999999999,0.25942,-0.89135514,0.38903709,-0.201842745
1764762889.8107188,1.526,4.059159999999999,0.25942,-0.89135514,0.38903709,-0.201842745
1764762889.8107188,1.58704,4.07442,0.19838,-0.8912941050000001,0.38806053,-0.203429655
1764762889.8107188,1.58704,4.07442,0.19838,-0.8912941050000001,0.38806053,-0.203429655
1764762889.8107188,1.58704,4.07442,0.19838,-0.8912941050000001,0.38806053,-0.203429655
1764762889.8107188,1.58704,4.07442,0.19838,-0.8912941050000001,0.38806053,-0.203429655
1764762889.8107188,1.58704,4.07442,0.19838,-0.8912941050000001,0.38806053,-0.203429655
1764762889.8107188,1.58704,4.07442,0.19838,-0.8912941050000001,0.38806053,-0.203429655
1764762889.8107188,1.58704,4.07442,0.19838,-0.8912941050000001,0.38806053,-0.203429655
1764762889.8107188,1.58704,4.07442,0.19838,-0.8912941050000001,0.38806053,-0.203429655
1764762889.8107188,1.58704,4.07442,0.19838,-0.8912941050000001,0.38806053,-0.203429655
1764762889.8107188,1.58704,4.07442,0.19838,-0.8912941050000001,0.38806053,-0.203429655
1764762889.8107188,-0.03052,3.37246,1.32762,-0.89489517,0.390318825,-0.206237265
1764762889.8107188,-0.03052,3.37246,1.32762,-0.89489517,0.390318825,-0.206237265
1764762889.8107188,-0.03052,3.37246,1.32762,-0.89489517,0.390318825,-0.206237265
1764762889.8107188,-0.03052,3.37246,1.32762,-0.89489517,0.390318825,-0.206237265
1764762889.8107188,-0.03052,3.37246,1.32762,-0.89489517,0.390318825,-0.206237265
1764762889.8107188,-0.03052,3.37246,1.32762,-0.89489517,0.390318825,-0.206237265
1764762889.8107188,-0.03052,3.37246,1.32762,-0.89489517,0.390318825,-0.206237265
1764762889.8107188,-0.03052,3.37246,1.32762,-0.89489517,0.390318825,-0.206237265
1764762889.8107188,-0.03052,3.37246,1.32762,-0.89489517,0.390318825,-0.206237265
1764762889.8107188,-0.03052,3.37246,1.32762,-0.89489517,0.390318825,-0.206237265
1764762889.8579018,-1.38866,2.77732,2.35004,-0.896054835,0.39416403,-0.20678658
1764762889.8579018,-1.38866,2.77732,2.35004,-0.896054835,0.39416403,-0.20678658
1764762889.8579018,-1.38866,2.77732,2.35004,-0.896054835,0.39416403,-0.20678658
1764762889.8579018,-1.38866,2.77732,2.35004,-0.896054835,0.39416403,-0.20678658
1764762889.8579018,-1.38866,2.77732,2.35004,-0.896054835,0.39416403,-0.20678658
1764762889.8579018,-1.38866,2.77732,2.35004,-0.896054835,0.39416403,-0.20678658
1764762889.8579018,-1.38866,2.77732,2.35004,-0.896054835,0.39416403,-0.20678658
1764762889.8594315,-1.38866,2.77732,2.35004,-0.896054835,0.39416403,-0.20678658
1764762889.8594315,-1.38866,2.77732,2.35004,-0.896054835,0.39416403,-0.20678658
1764762889.8594315,-1.38866,2.77732,2.35004,-0.896054835,0.39416403,-0.20678658
1764762889.8594315,-0.3509799999999999,2.6705,0.51884,-0.89306412,0.39379782,-0.204894495
1764762889.8594315,-0.3509799999999999,2.6705,0.51884,-0.89306412,0.39379782,-0.204894495
1764762889.8594315,-0.3509799999999999,2.6705,0.51884,-0.89306412,0.39379782,-0.204894495
1764762889.8594315,-0.3509799999999999,2.6705,0.51884,-0.89306412,0.39379782,-0.204894495
1764762889.8594315,-0.3509799999999999,2.6705,0.51884,-0.89306412,0.39379782,-0.204894495
1764762889.8594315,-0.3509799999999999,2.6705,0.51884,-0.89306412,0.39379782,-0.204894495
1764762889.8594315,-0.3509799999999999,2.6705,0.51884,-0.89306412,0.39379782,-0.204894495
1764762889.8594315,-0.3509799999999999,2.6705,0.51884,-0.89306412,0.39379782,-0.204894495
1764762889.8594315,-0.3509799999999999,2.6705,0.51884,-0.89306412,0.39379782,-0.204894495
1764762889.8594315,-0.3509799999999999,2.6705,0.51884,-0.89306412,0.39379782,-0.204894495
1764762889.8594315,-0.12208,3.41824,0.06104,-0.89050065,0.3918447,-0.205016565
1764762889.8594315,-0.12208,3.41824,0.06104,-0.89050065,0.3918447,-0.205016565
1764762889.8594315,-0.12208,3.41824,0.06104,-0.89050065,0.3918447,-0.205016565
1764762889.8594315,-0.12208,3.41824,0.06104,-0.89050065,0.3918447,-0.205016565
1764762889.9033055,-0.12208,3.41824,0.06104,-0.89050065,0.3918447,-0.205016565
1764762889.9033055,-0.12208,3.41824,0.06104,-0.89050065,0.3918447,-0.205016565
1764762889.9033055,-0.12208,3.41824,0.06104,-0.89050065,0.3918447,-0.205016565
1764762889.9033055,-0.12208,3.41824,0.06104,-0.89050065,0.3918447,-0.205016565
1764762889.9043145,-0.12208,3.41824,0.06104,-0.89050065,0.3918447,-0.205016565
1764762889.9043145,-0.12208,3.41824,0.06104,-0.89050065,0.3918447,-0.205016565
1764762889.9043145,-1.31236,3.02148,0.56462,-0.8902565100000001,0.390807105,-0.205504845
1764762889.9043145,-1.31236,3.02148,0.56462,-0.8902565100000001,0.390807105,-0.205504845
1764762889.9043145,-1.31236,3.02148,0.56462,-0.8902565100000001,0.390807105,-0.205504845
1764762889.9043145,-1.31236,3.02148,0.56462,-0.8902565100000001,0.390807105,-0.205504845
1764762889.9043145,-1.31236,3.02148,0.56462,-0.8902565100000001,0.390807105,-0.205504845
1764762889.9043145,-1.31236,3.02148,0.56462,-0.8902565100000001,0.390807105,-0.205504845
1764762889.9043145,-1.31236,3.02148,0.56462,-0.8902565100000001,0.390807105,-0.205504845
1764762889.9043145,-1.31236,3.02148,0.56462,-0.8902565100000001,0.390807105,-0.205504845
1764762889.9043145,-1.31236,3.02148,0.56462,-0.8902565100000001,0.390807105,-0.205504845
1764762889.9043145,-1.31236,3.02148,0.56462,-0.8902565100000001,0.390807105,-0.205504845
1764762889.9043145,-2.07536,3.47928,0.79352,-0.8917823850000001,0.391661595,-0.206115195
1764762889.9043145,-2.07536,3.47928,0.79352,-0.8917823850000001,0.391661595,-0.206115195
1764762889.9059038,-2.07536,3.47928,0.79352,-0.8917823850000001,0.391661595,-0.206115195
1764762889.9059038,-2.07536,3.47928,0.79352,-0.8917823850000001,0.391661595,-0.206115195
1764762889.9059038,-2.07536,3.47928,0.79352,-0.8917823850000001,0.391661595,-0.206115195
1764762889.9059038,-2.07536,3.47928,0.79352,-0.8917823850000001,0.391661595,-0.206115195
1764762889.94852,-2.07536,3.47928,0.79352,-0.8917823850000001,0.391661595,-0.206115195
1764762889.949029,-2.07536,3.47928,0.79352,-0.8917823850000001,0.391661595,-0.206115195
1764762889.949029,-2.07536,3.47928,0.79352,-0.8917823850000001,0.391661595,-0.206115195
1764762889.949029,-2.07536,3.47928,0.79352,-0.8917823850000001,0.391661595,-0.206115195
1764762889.949029,-1.49548,3.52506,0.93086,-0.892026525,0.391051245,-0.205138635
1764762889.949029,-1.49548,3.52506,0.93086,-0.892026525,0.391051245,-0.205138635
1764762889.949029,-1.49548,3.52506,0.93086,-0.892026525,0.391051245,-0.205138635
1764762889.949029,-1.49548,3.52506,0.93086,-0.892026525,0.391051245,-0.205138635
1764762889.949029,-1.49548,3.52506,0.93086,-0.892026525,0.391051245,-0.205138635
1764762889.949029,-1.49548,3.52506,0.93086,-0.892026525,0.391051245,-0.205138635
1764762889.949029,-1.49548,3.52506,0.93086,-0.892026525,0.391051245,-0.205138635
1764762889.949029,-1.49548,3.52506,0.93086,-0.892026525,0.391051245,-0.205138635
1764762889.949029,-1.49548,3.52506,0.93086,-0.892026525,0.391051245,-0.205138635
1764762889.949029,-1.49548,3.52506,0.93086,-0.892026525,0.391051245,-0.205138635
1764762889.949029,-0.48832,3.5098,0.04578,-0.891660315,0.390685035,-0.20458932
1764762889.949029,-0.48832,3.5098,0.04578,-0.891660315,0.390685035,-0.20458932
1764762889.949029,-0.48832,3.5098,0.04578,-0.891660315,0.390685035,-0.20458932
1764762889.949029,-0.48832,3.5098,0.04578,-0.891660315,0.390685035,-0.20458932
1764762889.949029,-0.48832,3.5098,0.04578,-0.891660315,0.390685035,-0.20458932
1764762889.949029,-0.48832,3.5098,0.04578,-0.891660315,0.390685035,-0.20458932
1764762889.949029,-0.48832,3.5098,0.04578,-0.891660315,0.390685035,-0.20458932
1764762889.949029,-0.48832,3.5098,0.04578,-0.891660315,0.390685035,-0.20458932
1764762889.9953265,-0.48832,3.5098,0.04578,-0.891660315,0.390685035,-0.20458932
1764762889.9953265,-0.48832,3.5098,0.04578,-0.891660315,0.390685035,-0.20458932
1764762889.9953265,-0.9919,4.13546,0.85456,-0.893125155,0.39123435,-0.205260705
1764762889.9953265,-0.9919,4.13546,0.85456,-0.893125155,0.39123435,-0.205260705
1764762889.9953265,-0.9919,4.13546,0.85456,-0.893125155,0.39123435,-0.205260705
1764762889.995859,-0.9919,4.13546,0.85456,-0.893125155,0.39123435,-0.205260705
1764762889.995859,-0.9919,4.13546,0.85456,-0.893125155,0.39123435,-0.205260705
1764762889.995859,-0.9919,4.13546,0.85456,-0.893125155,0.39123435,-0.205260705
1764762889.995859,-0.9919,4.13546,0.85456,-0.893125155,0.39123435,-0.205260705
1764762889.995859,-0.9919,4.13546,0.85456,-0.893125155,0.39123435,-0.205260705
1764762889.995859,-0.9919,4.13546,0.85456,-0.893125155,0.39123435,-0.205260705
1764762889.995859,-0.9919,4.13546,0.85456,-0.893125155,0.39123435,-0.205260705
1764762889.995859,-1.73964,4.33384,0.82404,-0.8923317000000001,0.3918447,-0.205504845
1764762889.995859,-1.73964,4.33384,0.82404,-0.8923317000000001,0.3918447,-0.205504845
1764762889.995859,-1.73964,4.33384,0.82404,-0.8923317000000001,0.3918447,-0.205504845
1764762889.995859,-1.73964,4.33384,0.82404,-0.8923317000000001,0.3918447,-0.205504845
1764762889.995859,-1.73964,4.33384,0.82404,-0.8923317000000001,0.3918447,-0.205504845
1764762889.995859,-1.73964,4.33384,0.82404,-0.8923317000000001,0.3918447,-0.205504845
1764762889.995859,-1.73964,4.33384,0.82404,-0.8923317000000001,0.3918447,-0.205504845
1764762889.995859,-1.73964,4.33384,0.82404,-0.8923317000000001,0.3918447,-0.205504845
1764762889.995859,-1.73964,4.33384,0.82404,-0.8923317000000001,0.3918447,-0.205504845
1764762889.995859,-1.73964,4.33384,0.82404,-0.8923317000000001,0.3918447,-0.205504845
1764762889.995859,-1.57178,3.87604,0.3815,-0.890073405,0.390624,-0.20519967
1764762889.995859,-1.57178,3.87604,0.3815,-0.890073405,0.390624,-0.20519967
1764762890.0413618,-1.57178,3.87604,0.3815,-0.890073405,0.390624,-0.20519967
1764762890.0413618,-1.57178,3.87604,0.3815,-0.890073405,0.390624,-0.20519967
1764762890.0413618,-1.57178,3.87604,0.3815,-0.890073405,0.390624,-0.20519967
1764762890.0413618,-1.57178,3.87604,0.3815,-0.890073405,0.390624,-0.20519967
1764762890.0413618,-1.57178,3.87604,0.3815,-0.890073405,0.390624,-0.20519967
1764762890.0413618,-1.57178,3.87604,0.3815,-0.890073405,0.390624,-0.20519967
1764762890.0413618,-1.57178,3.87604,0.3815,-0.890073405,0.390624,-0.20519967
1764762890.0413618,-1.57178,3.87604,0.3815,-0.890073405,0.390624,-0.20519967
1764762890.0413618,-1.81594,3.46402,0.13734,-0.89050065,0.389952615,-0.204650355
1764762890.0413618,-1.81594,3.46402,0.13734,-0.89050065,0.389952615,-0.204650355
1764762890.0413618,-1.81594,3.46402,0.13734,-0.89050065,0.389952615,-0.204650355
1764762890.0413618,-1.81594,3.46402,0.13734,-0.89050065,0.389952615,-0.204650355
1764762890.0413618,-1.81594,3.46402,0.13734,-0.89050065,0.389952615,-0.204650355
1764762890.042852,-1.81594,3.46402,0.13734,-0.89050065,0.389952615,-0.204650355
1764762890.042852,-1.81594,3.46402,0.13734,-0.89050065,0.389952615,-0.204650355
1764762890.042852,-1.81594,3.46402,0.13734,-0.89050065,0.389952615,-0.204650355
1764762890.042852,-1.81594,3.46402,0.13734,-0.89050065,0.389952615,-0.204650355
1764762890.042852,-1.81594,3.46402,0.13734,-0.89050065,0.389952615,-0.204650355
1764762890.042852,-0.763,3.40298,0.44254,-0.89135514,0.38952537,-0.204040005
1764762890.042852,-0.763,3.40298,0.44254,-0.89135514,0.38952537,-0.204040005
1764762890.042852,-0.763,3.40298,0.44254,-0.89135514,0.38952537,-0.204040005
1764762890.042852,-0.763,3.40298,0.44254,-0.89135514,0.38952537,-0.204040005
1764762890.042852,-0.763,3.40298,0.44254,-0.89135514,0.38952537,-0.204040005
1764762890.042852,-0.763,3.40298,0.44254,-0.89135514,0.38952537,-0.204040005
1764762890.0913234,-0.763,3.40298,0.44254,-0.89135514,0.38952537,-0.204040005
1764762890.0913234,-0.763,3.40298,0.44254,-0.89135514,0.38952537,-0.204040005
1764762890.0913234,-0.763,3.40298,0.44254,-0.89135514,0.38952537,-0.204040005
1764762890.0913234,-0.763,3.40298,0.44254,-0.89135514,0.38952537,-0.204040005
1764762890.0913234,0.39676,3.38772,0.42728,-0.891660315,0.38964744,-0.203307585
1764762890.0913234,0.39676,3.38772,0.42728,-0.891660315,0.38964744,-0.203307585
1764762890.0913234,0.39676,3.38772,0.42728,-0.891660315,0.38964744,-0.203307585
1764762890.0913234,0.39676,3.38772,0.42728,-0.891660315,0.38964744,-0.203307585
1764762890.0913234,0.39676,3.38772,0.42728,-0.891660315,0.38964744,-0.203307585
1764762890.0913234,0.39676,3.38772,0.42728,-0.891660315,0.38964744,-0.203307585
1764762890.0913234,0.39676,3.38772,0.42728,-0.891660315,0.38964744,-0.203307585
1764762890.0913234,0.39676,3.38772,0.42728,-0.891660315,0.38964744,-0.203307585
1764762890.0913234,0.39676,3.38772,0.42728,-0.891660315,0.38964744,-0.203307585
1764762890.0913234,0.39676,3.38772,0.42728,-0.891660315,0.38964744,-0.203307585
1764762890.0913234,1.70912,3.49454,-0.03052,-0.891172035,0.389342265,-0.20349069
1764762890.0913234,1.70912,3.49454,-0.03052,-0.891172035,0.389342265,-0.20349069
1764762890.0913234,1.70912,3.49454,-0.03052,-0.891172035,0.389342265,-0.20349069
1764762890.0913234,1.70912,3.49454,-0.03052,-0.891172035,0.389342265,-0.20349069
1764762890.0913234,1.70912,3.49454,-0.03052,-0.891172035,0.389342265,-0.20349069
1764762890.0913234,1.70912,3.49454,-0.03052,-0.891172035,0.389342265,-0.20349069
1764762890.134981,1.70912,3.49454,-0.03052,-0.891172035,0.389342265,-0.20349069
1764762890.134981,1.70912,3.49454,-0.03052,-0.891172035,0.389342265,-0.20349069
1764762890.134981,1.70912,3.49454,-0.03052,-0.891172035,0.389342265,-0.20349069
1764762890.134981,1.70912,3.49454,-0.03052,-0.891172035,0.389342265,-0.20349069
1764762890.134981,1.9075,3.41824,-0.3051999999999999,-0.89098893,0.389220195,-0.20361276
1764762890.134981,1.9075,3.41824,-0.3051999999999999,-0.89098893,0.389220195,-0.20361276
1764762890.134981,1.9075,3.41824,-0.3051999999999999,-0.89098893,0.389220195,-0.20361276
1764762890.134981,1.9075,3.41824,-0.3051999999999999,-0.89098893,0.389220195,-0.20361276
1764762890.134981,1.9075,3.41824,-0.3051999999999999,-0.89098893,0.389220195,-0.20361276
1764762890.134981,1.9075,3.41824,-0.3051999999999999,-0.89098893,0.389220195,-0.20361276
1764762890.134981,1.9075,3.41824,-0.3051999999999999,-0.89098893,0.389220195,-0.20361276
1764762890.134981,1.9075,3.41824,-0.3051999999999999,-0.89098893,0.389220195,-0.20361276
1764762890.134981,1.9075,3.41824,-0.3051999999999999,-0.89098893,0.389220195,-0.20361276
1764762890.134981,1.9075,3.41824,-0.3051999999999999,-0.89098893,0.389220195,-0.20361276
1764762890.134981,1.70912,3.34194,-0.2289,-0.890317545,0.38915916,-0.204162075
1764762890.134981,1.70912,3.34194,-0.2289,-0.890317545,0.38915916,-0.204162075
1764762890.134981,1.70912,3.34194,-0.2289,-0.890317545,0.38915916,-0.204162075
1764762890.134981,1.70912,3.34194,-0.2289,-0.890317545,0.38915916,-0.204162075
1764762890.134981,1.70912,3.34194,-0.2289,-0.890317545,0.38915916,-0.204162075
1764762890.134981,1.70912,3.34194,-0.2289,-0.890317545,0.38915916,-0.204162075
1764762890.136005,1.70912,3.34194,-0.2289,-0.890317545,0.38915916,-0.204162075
1764762890.136005,1.70912,3.34194,-0.2289,-0.890317545,0.38915916,-0.204162075
1764762890.136005,1.70912,3.34194,-0.2289,-0.890317545,0.38915916,-0.204162075
1764762890.136005,1.70912,3.34194,-0.2289,-0.890317545,0.38915916,-0.204162075
1764762890.136005,0.82404,3.3572,-0.12208,-0.891049965,0.39025779,-0.205871055
1764762890.136005,0.82404,3.3572,-0.12208,-0.891049965,0.39025779,-0.205871055
1764762890.1847565,0.82404,3.3572,-0.12208,-0.891049965,0.39025779,-0.205871055
1764762890.1847565,0.82404,3.3572,-0.12208,-0.891049965,0.39025779,-0.205871055
1764762890.1847565,0.82404,3.3572,-0.12208,-0.891049965,0.39025779,-0.205871055
1764762890.1847565,0.82404,3.3572,-0.12208,-0.891049965,0.39025779,-0.205871055
1764762890.1847565,0.82404,3.3572,-0.12208,-0.891049965,0.39025779,-0.205871055
1764762890.1847565,0.82404,3.3572,-0.12208,-0.891049965,0.39025779,-0.205871055
1764762890.1847565,0.82404,3.3572,-0.12208,-0.891049965,0.39025779,-0.205871055
1764762890.1847565,0.82404,3.3572,-0.12208,-0.891049965,0.39025779,-0.205871055
1764762890.1847565,3.8913,3.29616,-0.25942,-0.892270665,0.392271945,-0.206359335
1764762890.1847565,3.8913,3.29616,-0.25942,-0.892270665,0.392271945,-0.206359335
1764762890.1847565,3.8913,3.29616,-0.25942,-0.892270665,0.392271945,-0.206359335
1764762890.1847565,3.8913,3.29616,-0.25942,-0.892270665,0.392271945,-0.206359335
1764762890.1852696,3.8913,3.29616,-0.25942,-0.892270665,0.392271945,-0.206359335
1764762890.1852696,3.8913,3.29616,-0.25942,-0.892270665,0.392271945,-0.206359335
1764762890.1852696,3.8913,3.29616,-0.25942,-0.892270665,0.392271945,-0.206359335
1764762890.1852696,3.8913,3.29616,-0.25942,-0.892270665,0.392271945,-0.206359335
1764762890.1852696,3.8913,3.29616,-0.25942,-0.892270665,0.392271945,-0.206359335
1764762890.1852696,3.8913,3.29616,-0.25942,-0.892270665,0.392271945,-0.206359335
1764762890.1852696,-0.48832,3.40298,-0.25942,-0.892392735,0.39355368,-0.205382775
1764762890.1852696,-0.48832,3.40298,-0.25942,-0.892392735,0.39355368,-0.205382775
1764762890.1852696,-0.48832,3.40298,-0.25942,-0.892392735,0.39355368,-0.205382775
1764762890.1852696,-0.48832,3.40298,-0.25942,-0.892392735,0.39355368,-0.205382775
1764762890.1852696,-0.48832,3.40298,-0.25942,-0.892392735,0.39355368,-0.205382775
1764762890.1852696,-0.48832,3.40298,-0.25942,-0.892392735,0.39355368,-0.205382775
1764762890.2282293,-0.48832,3.40298,-0.25942,-0.892392735,0.39355368,-0.205382775
1764762890.2282293,-0.48832,3.40298,-0.25942,-0.892392735,0.39355368,-0.205382775
1764762890.2282293,-0.48832,3.40298,-0.25942,-0.892392735,0.39355368,-0.205382775
1764762890.2282293,-0.48832,3.40298,-0.25942,-0.892392735,0.39355368,-0.205382775
1764762890.2282293,-0.27468,3.37246,0.6714399999999999,-0.89306412,0.39196677,-0.20446725
1764762890.2282293,-0.27468,3.37246,0.6714399999999999,-0.89306412,0.39196677,-0.20446725
1764762890.2292757,-0.27468,3.37246,0.6714399999999999,-0.89306412,0.39196677,-0.20446725
1764762890.2292757,-0.27468,3.37246,0.6714399999999999,-0.89306412,0.39196677,-0.20446725
1764762890.2292757,-0.27468,3.37246,0.6714399999999999,-0.89306412,0.39196677,-0.20446725
1764762890.2292757,-0.27468,3.37246,0.6714399999999999,-0.89306412,0.39196677,-0.20446725
1764762890.2292757,-0.27468,3.37246,0.6714399999999999,-0.89306412,0.39196677,-0.20446725
1764762890.2292757,-0.27468,3.37246,0.6714399999999999,-0.89306412,0.39196677,-0.20446725
1764762890.2292757,-0.27468,3.37246,0.6714399999999999,-0.89306412,0.39196677,-0.20446725
1764762890.2292757,-0.27468,3.37246,0.6714399999999999,-0.89306412,0.39196677,-0.20446725
1764762890.2292757,0.3051999999999999,4.01338,0.763,-0.893247225,0.390074685,-0.204650355
1764762890.2292757,0.3051999999999999,4.01338,0.763,-0.893247225,0.390074685,-0.204650355
1764762890.2292757,0.3051999999999999,4.01338,0.763,-0.893247225,0.390074685,-0.204650355
1764762890.2292757,0.3051999999999999,4.01338,0.763,-0.893247225,0.390074685,-0.204650355
1764762890.2292757,0.3051999999999999,4.01338,0.763,-0.893247225,0.390074685,-0.204650355
1764762890.2292757,0.3051999999999999,4.01338,0.763,-0.893247225,0.390074685,-0.204650355
1764762890.2292757,0.3051999999999999,4.01338,0.763,-0.893247225,0.390074685,-0.204650355
1764762890.2292757,0.3051999999999999,4.01338,0.763,-0.893247225,0.390074685,-0.204650355
1764762890.2757804,0.3051999999999999,4.01338,0.763,-0.893247225,0.390074685,-0.204650355
1764762890.2757804,0.3051999999999999,4.01338,0.763,-0.893247225,0.390074685,-0.204650355
1764762890.2757804,-0.54936,3.49454,1.31236,-0.89294205,0.391173315,-0.20532174
1764762890.2757804,-0.54936,3.49454,1.31236,-0.89294205,0.391173315,-0.20532174
1764762890.2757804,-0.54936,3.49454,1.31236,-0.89294205,0.391173315,-0.20532174
1764762890.2757804,-0.54936,3.49454,1.31236,-0.89294205,0.391173315,-0.20532174
1764762890.2757804,-0.54936,3.49454,1.31236,-0.89294205,0.391173315,-0.20532174
1764762890.2757804,-0.54936,3.49454,1.31236,-0.89294205,0.391173315,-0.20532174
1764762890.2757804,-0.54936,3.49454,1.31236,-0.89294205,0.391173315,-0.20532174
1764762890.2757804,-0.54936,3.49454,1.31236,-0.89294205,0.391173315,-0.20532174
1764762890.2757804,-0.54936,3.49454,1.31236,-0.89294205,0.391173315,-0.20532174
1764762890.2757804,-0.54936,3.49454,1.31236,-0.89294205,0.391173315,-0.20532174
1764762890.2757804,-0.74774,4.1202,0.74774,-0.89196549,0.391051245,-0.206115195
1764762890.2757804,-0.74774,4.1202,0.74774,-0.89196549,0.391051245,-0.206115195
1764762890.2757804,-0.74774,4.1202,0.74774,-0.89196549,0.391051245,-0.206115195
1764762890.2757804,-0.74774,4.1202,0.74774,-0.89196549,0.391051245,-0.206115195
1764762890.2757804,-0.74774,4.1202,0.74774,-0.89196549,0.391051245,-0.206115195
1764762890.2757804,-0.74774,4.1202,0.74774,-0.89196549,0.391051245,-0.206115195
1764762890.2757804,-0.74774,4.1202,0.74774,-0.89196549,0.391051245,-0.206115195
1764762890.2757804,-0.74774,4.1202,0.74774,-0.89196549,0.391051245,-0.206115195
1764762890.2757804,-0.74774,4.1202,0.74774,-0.89196549,0.391051245,-0.206115195
1764762890.2757804,-0.74774,4.1202,0.74774,-0.89196549,0.391051245,-0.206115195
1764762890.2757804,-0.77826,3.83026,0.51884,-0.89147721,0.391173315,-0.205260705
1764762890.2757804,-0.77826,3.83026,0.51884,-0.89147721,0.391173315,-0.205260705
1764762890.3235042,-0.77826,3.83026,0.51884,-0.89147721,0.391173315,-0.205260705
1764762890.3235042,-0.77826,3.83026,0.51884,-0.89147721,0.391173315,-0.205260705
1764762890.3235042,-0.77826,3.83026,0.51884,-0.89147721,0.391173315,-0.205260705
1764762890.3235042,-0.77826,3.83026,0.51884,-0.89147721,0.391173315,-0.205260705
1764762890.3235042,-0.77826,3.83026,0.51884,-0.89147721,0.391173315,-0.205260705
1764762890.3235042,-0.77826,3.83026,0.51884,-0.89147721,0.391173315,-0.205260705
1764762890.3235042,-0.77826,3.83026,0.51884,-0.89147721,0.391173315,-0.205260705
1764762890.3235042,-0.77826,3.83026,0.51884,-0.89147721,0.391173315,-0.205260705
1764762890.3235042,-0.85456,4.54748,-0.3815,-0.89098893,0.390562965,-0.20581002
1764762890.3235042,-0.85456,4.54748,-0.3815,-0.89098893,0.390562965,-0.20581002
1764762890.3235042,-0.85456,4.54748,-0.3815,-0.89098893,0.390562965,-0.20581002
1764762890.3235042,-0.85456,4.54748,-0.3815,-0.89098893,0.390562965,-0.20581002
1764762890.3235042,-0.85456,4.54748,-0.3815,-0.89098893,0.390562965,-0.20581002
1764762890.3235042,-0.85456,4.54748,-0.3815,-0.89098893,0.390562965,-0.20581002
1764762890.3235042,-0.85456,4.54748,-0.3815,-0.89098893,0.390562965,-0.20581002
1764762890.3235042,-0.85456,4.54748,-0.3815,-0.89098893,0.390562965,-0.20581002
1764762890.3235042,-0.85456,4.54748,-0.3815,-0.89098893,0.390562965,-0.20581002
1764762890.3235042,-0.85456,4.54748,-0.3815,-0.89098893,0.390562965,-0.20581002
1764762890.3235042,-0.21364,3.9676,-0.24416,-0.89123307,0.38964744,-0.205504845
1764762890.3235042,-0.21364,3.9676,-0.24416,-0.89123307,0.38964744,-0.205504845
1764762890.3235042,-0.21364,3.9676,-0.24416,-0.89123307,0.38964744,-0.205504845
1764762890.3235042,-0.21364,3.9676,-0.24416,-0.89123307,0.38964744,-0.205504845
1764762890.3235042,-0.21364,3.9676,-0.24416,-0.89123307,0.38964744,-0.205504845
1764762890.3235042,-0.21364,3.9676,-0.24416,-0.89123307,0.38964744,-0.205504845
1764762890.3706656,-0.21364,3.9676,-0.24416,-0.89123307,0.38964744,-0.205504845
1764762890.3706656,-0.21364,3.9676,-0.24416,-0.89123307,0.38964744,-0.205504845
1764762890.3706656,-0.21364,3.9676,-0.24416,-0.89123307,0.38964744,-0.205504845
1764762890.3706656,-0.21364,3.9676,-0.24416,-0.89123307,0.38964744,-0.205504845
1764762890.3706656,-0.19838,3.60136,-0.12208,-0.891904455,0.387877425,-0.20642037
1764762890.3706656,-0.19838,3.60136,-0.12208,-0.891904455,0.387877425,-0.20642037
1764762890.3706656,-0.19838,3.60136,-0.12208,-0.891904455,0.387877425,-0.20642037
1764762890.3706656,-0.19838,3.60136,-0.12208,-0.891904455,0.387877425,-0.20642037
1764762890.3706656,-0.19838,3.60136,-0.12208,-0.891904455,0.387877425,-0.20642037
1764762890.3706656,-0.19838,3.60136,-0.12208,-0.891904455,0.387877425,-0.20642037
1764762890.3706656,-0.19838,3.60136,-0.12208,-0.891904455,0.387877425,-0.20642037
1764762890.3706656,-0.19838,3.60136,-0.12208,-0.891904455,0.387877425,-0.20642037
1764762890.3706656,-0.19838,3.60136,-0.12208,-0.891904455,0.387877425,-0.20642037
1764762890.3706656,-0.19838,3.60136,-0.12208,-0.891904455,0.387877425,-0.20642037
1764762890.3706656,0.41202,4.0439,0.6409199999999999,-0.89452896,0.388121565,-0.20581002
1764762890.3706656,0.41202,4.0439,0.6409199999999999,-0.89452896,0.388121565,-0.20581002
1764762890.3706656,0.41202,4.0439,0.6409199999999999,-0.89452896,0.388121565,-0.20581002
1764762890.3706656,0.41202,4.0439,0.6409199999999999,-0.89452896,0.388121565,-0.20581002
1764762890.3706656,0.41202,4.0439,0.6409199999999999,-0.89452896,0.388121565,-0.20581002
1764762890.3706656,0.41202,4.0439,0.6409199999999999,-0.89452896,0.388121565,-0.20581002
1764762890.3706656,0.41202,4.0439,0.6409199999999999,-0.89452896,0.388121565,-0.20581002
1764762890.3706656,0.41202,4.0439,0.6409199999999999,-0.89452896,0.388121565,-0.20581002
1764762890.4176507,0.41202,4.0439,0.6409199999999999,-0.89452896,0.388121565,-0.20581002
1764762890.4176507,0.41202,4.0439,0.6409199999999999,-0.89452896,0.388121565,-0.20581002
1764762890.4176507,1.3734,4.59326,2.01432,-0.895932765,0.389220195,-0.20483346
1764762890.4176507,1.3734,4.59326,2.01432,-0.895932765,0.389220195,-0.20483346
1764762890.4176507,1.3734,4.59326,2.01432,-0.895932765,0.389220195,-0.20483346
1764762890.4176507,1.3734,4.59326,2.01432,-0.895932765,0.389220195,-0.20483346
1764762890.4176507,1.3734,4.59326,2.01432,-0.895932765,0.389220195,-0.20483346
1764762890.4176507,1.3734,4.59326,2.01432,-0.895932765,0.389220195,-0.20483346
1764762890.4176507,1.3734,4.59326,2.01432,-0.895932765,0.389220195,-0.20483346
1764762890.4176507,1.3734,4.59326,2.01432,-0.895932765,0.389220195,-0.20483346
1764762890.4176507,1.3734,4.59326,2.01432,-0.895932765,0.389220195,-0.20483346
1764762890.4176507,1.3734,4.59326,2.01432,-0.895932765,0.389220195,-0.20483346
1764762890.4176507,1.9075,5.24944,1.2208,-0.8928810150000001,0.390196755,-0.205382775
1764762890.4176507,1.9075,5.24944,1.2208,-0.8928810150000001,0.390196755,-0.205382775
1764762890.4176507,1.9075,5.24944,1.2208,-0.8928810150000001,0.390196755,-0.205382775
1764762890.4176507,1.9075,5.24944,1.2208,-0.8928810150000001,0.390196755,-0.205382775
1764762890.4176507,1.9075,5.24944,1.2208,-0.8928810150000001,0.390196755,-0.205382775
1764762890.4176507,1.9075,5.24944,1.2208,-0.8928810150000001,0.390196755,-0.205382775
1764762890.4176507,1.9075,5.24944,1.2208,-0.8928810150000001,0.390196755,-0.205382775
1764762890.4176507,1.9075,5.24944,1.2208,-0.8928810150000001,0.390196755,-0.205382775
1764762890.4176507,1.9075,5.24944,1.2208,-0.8928810150000001,0.390196755,-0.205382775
1764762890.4176507,1.9075,5.24944,1.2208,-0.8928810150000001,0.390196755,-0.205382775
1764762890.4176507,1.11398,5.234179999999999,0.44254,-0.891172035,0.39147849,-0.206969685
1764762890.4176507,1.11398,5.234179999999999,0.44254,-0.891172035,0.39147849,-0.206969685
1764762890.464676,1.11398,5.234179999999999,0.44254,-0.891172035,0.39147849,-0.206969685
1764762890.465696,1.11398,5.234179999999999,0.44254,-0.891172035,0.39147849,-0.206969685
1764762890.465696,1.11398,5.234179999999999,0.44254,-0.891172035,0.39147849,-0.206969685
1764762890.465696,1.11398,5.234179999999999,0.44254,-0.891172035,0.39147849,-0.206969685
1764762890.465696,1.11398,5.234179999999999,0.44254,-0.891172035,0.39147849,-0.206969685
1764762890.465696,1.11398,5.234179999999999,0.44254,-0.891172035,0.39147849,-0.206969685
1764762890.465696,1.11398,5.234179999999999,0.44254,-0.891172035,0.39147849,-0.206969685
1764762890.465696,1.11398,5.234179999999999,0.44254,-0.891172035,0.39147849,-0.206969685
1764762890.465696,0.2289,5.43256,0.82404,-0.88952409,0.39099021,-0.2087397
1764762890.465696,0.2289,5.43256,0.82404,-0.88952409,0.39099021,-0.2087397
1764762890.465696,0.2289,5.43256,0.82404,-0.88952409,0.39099021,-0.2087397
1764762890.465696,0.2289,5.43256,0.82404,-0.88952409,0.39099021,-0.2087397
1764762890.465696,0.2289,5.43256,0.82404,-0.88952409,0.39099021,-0.2087397
1764762890.465696,0.2289,5.43256,0.82404,-0.88952409,0.39099021,-0.2087397
1764762890.4666872,0.2289,5.43256,0.82404,-0.88952409,0.39099021,-0.2087397
1764762890.4666872,0.2289,5.43256,0.82404,-0.88952409,0.39099021,-0.2087397
