Timestamp,GyroX,GyroY,GyroZ,AccX,AccY,AccZ
1764763121.6926644,1.41918,4.3491,1.63282,-0.87060324,0.33483801,-0.34838778
1764763121.6936696,1.41918,4.3491,1.63282,-0.87060324,0.33483801,-0.34838778
1764763121.6936696,1.41918,4.3491,1.63282,-0.87060324,0.33483801,-0.34838778
1764763121.6936696,1.41918,4.3491,1.63282,-0.87060324,0.33483801,-0.34838778
1764763121.6936696,1.41918,4.3491,1.63282,-0.87060324,0.33483801,-0.34838778
1764763121.6936696,1.41918,4.3491,1.63282,-0.87060324,0.33483801,-0.34838778
1764763121.6936696,0.57988,4.18124,1.87698,-0.870420135,0.336485955,-0.349181235
1764763121.6936696,0.57988,4.18124,1.87698,-0.870420135,0.336485955,-0.349181235
1764763121.6936696,0.57988,4.18124,1.87698,-0.870420135,0.336485955,-0.349181235
1764763121.6936696,0.57988,4.18124,1.87698,-0.870420135,0.336485955,-0.349181235
1764763121.6936696,0.57988,4.18124,1.87698,-0.870420135,0.336485955,-0.349181235
1764763121.6936696,0.57988,4.18124,1.87698,-0.870420135,0.336485955,-0.349181235
1764763121.6936696,0.57988,4.18124,1.87698,-0.870420135,0.336485955,-0.349181235
1764763121.6936696,0.57988,4.18124,1.87698,-0.870420135,0.336485955,-0.349181235
1764763121.6936696,0.57988,4.18124,1.87698,-0.870420135,0.336485955,-0.349181235
1764763121.6936696,0.57988,4.18124,1.87698,-0.870420135,0.336485955,-0.349181235
1764763121.6936696,0.1525999999999999,3.49454,0.56462,-0.869565645,0.337340445,-0.35046297
1764763121.6936696,0.1525999999999999,3.49454,0.56462,-0.869565645,0.337340445,-0.35046297
1764763121.6936696,0.1525999999999999,3.49454,0.56462,-0.869565645,0.337340445,-0.35046297
1764763121.6936696,0.1525999999999999,3.49454,0.56462,-0.869565645,0.337340445,-0.35046297
1764763121.6936696,0.1525999999999999,3.49454,0.56462,-0.869565645,0.337340445,-0.35046297
1764763121.6936696,0.1525999999999999,3.49454,0.56462,-0.869565645,0.337340445,-0.35046297
1764763121.6936696,0.1525999999999999,3.49454,0.56462,-0.869565645,0.337340445,-0.35046297
1764763121.6936696,0.1525999999999999,3.49454,0.56462,-0.869565645,0.337340445,-0.35046297
1764763121.7367585,0.1525999999999999,3.49454,0.56462,-0.869565645,0.337340445,-0.35046297
1764763121.7367585,0.1525999999999999,3.49454,0.56462,-0.869565645,0.337340445,-0.35046297
1764763121.7367585,-1.00716,2.68576,0.18312,-0.869199435,0.33666906,-0.3527823
1764763121.7367585,-1.00716,2.68576,0.18312,-0.869199435,0.33666906,-0.3527823
1764763121.7367585,-1.00716,2.68576,0.18312,-0.869199435,0.33666906,-0.3527823
1764763121.7367585,-1.00716,2.68576,0.18312,-0.869199435,0.33666906,-0.3527823
1764763121.7367585,-1.00716,2.68576,0.18312,-0.869199435,0.33666906,-0.3527823
1764763121.7367585,-1.00716,2.68576,0.18312,-0.869199435,0.33666906,-0.3527823
1764763121.7367585,-1.00716,2.68576,0.18312,-0.869199435,0.33666906,-0.3527823
1764763121.7367585,-1.00716,2.68576,0.18312,-0.869199435,0.33666906,-0.3527823
1764763121.7367585,-1.00716,2.68576,0.18312,-0.869199435,0.33666906,-0.3527823
1764763121.7367585,-1.00716,2.68576,0.18312,-0.869199435,0.33666906,-0.3527823
1764763121.7367585,-2.76206,2.41108,-0.3204599999999999,-0.86901633,0.338683215,-0.35327058
1764763121.7367585,-2.76206,2.41108,-0.3204599999999999,-0.86901633,0.338683215,-0.35327058
1764763121.7367585,-2.76206,2.41108,-0.3204599999999999,-0.86901633,0.338683215,-0.35327058
1764763121.7367585,-2.76206,2.41108,-0.3204599999999999,-0.86901633,0.338683215,-0.35327058
1764763121.7367585,-2.76206,2.41108,-0.3204599999999999,-0.86901633,0.338683215,-0.35327058
1764763121.7367585,-2.76206,2.41108,-0.3204599999999999,-0.86901633,0.338683215,-0.35327058
1764763121.7367585,-2.76206,2.41108,-0.3204599999999999,-0.86901633,0.338683215,-0.35327058
1764763121.7367585,-2.76206,2.41108,-0.3204599999999999,-0.86901633,0.338683215,-0.35327058
1764763121.7377827,-2.76206,2.41108,-0.3204599999999999,-0.86901633,0.338683215,-0.35327058
1764763121.7377827,-2.76206,2.41108,-0.3204599999999999,-0.86901633,0.338683215,-0.35327058
1764763121.783707,-4.48644,2.2127,-0.41202,-0.86950461,0.339171495,-0.352477125
1764763121.7842245,-4.48644,2.2127,-0.41202,-0.86950461,0.339171495,-0.352477125
1764763121.7842245,-4.48644,2.2127,-0.41202,-0.86950461,0.339171495,-0.352477125
1764763121.7842245,-4.48644,2.2127,-0.41202,-0.86950461,0.339171495,-0.352477125
1764763121.7842245,-4.48644,2.2127,-0.41202,-0.86950461,0.339171495,-0.352477125
1764763121.7842245,-4.48644,2.2127,-0.41202,-0.86950461,0.339171495,-0.352477125
1764763121.7842245,-4.48644,2.2127,-0.41202,-0.86950461,0.339171495,-0.352477125
1764763121.7842245,-4.48644,2.2127,-0.41202,-0.86950461,0.339171495,-0.352477125
1764763121.7842245,-4.48644,2.2127,-0.41202,-0.86950461,0.339171495,-0.352477125
1764763121.7842245,-4.48644,2.2127,-0.41202,-0.86950461,0.339171495,-0.352477125
1764763121.7842245,-5.14262,2.38056,-0.28994,-0.87048117,0.33947667,-0.352355055
1764763121.7842245,-5.14262,2.38056,-0.28994,-0.87048117,0.33947667,-0.352355055
1764763121.7842245,-5.14262,2.38056,-0.28994,-0.87048117,0.33947667,-0.352355055
1764763121.7842245,-5.14262,2.38056,-0.28994,-0.87048117,0.33947667,-0.352355055
1764763121.7842245,-5.14262,2.38056,-0.28994,-0.87048117,0.33947667,-0.352355055
1764763121.7842245,-5.14262,2.38056,-0.28994,-0.87048117,0.33947667,-0.352355055
1764763121.7842245,-5.14262,2.38056,-0.28994,-0.87048117,0.33947667,-0.352355055
1764763121.7842245,-5.14262,2.38056,-0.28994,-0.87048117,0.33947667,-0.352355055
1764763121.7842245,-5.14262,2.38056,-0.28994,-0.87048117,0.33947667,-0.352355055
1764763121.7842245,-5.14262,2.38056,-0.28994,-0.87048117,0.33947667,-0.352355055
1764763121.7842245,-5.63094,2.68576,-0.4578,-0.8708473800000001,0.33837804,-0.35241609
1764763121.7842245,-5.63094,2.68576,-0.4578,-0.8708473800000001,0.33837804,-0.35241609
1764763121.7842245,-5.63094,2.68576,-0.4578,-0.8708473800000001,0.33837804,-0.35241609
1764763121.7842245,-5.63094,2.68576,-0.4578,-0.8708473800000001,0.33837804,-0.35241609
1764763121.8313854,-5.63094,2.68576,-0.4578,-0.8708473800000001,0.33837804,-0.35241609
1764763121.8313854,-5.63094,2.68576,-0.4578,-0.8708473800000001,0.33837804,-0.35241609
1764763121.8313854,-5.63094,2.68576,-0.4578,-0.8708473800000001,0.33837804,-0.35241609
1764763121.8313854,-5.63094,2.68576,-0.4578,-0.8708473800000001,0.33837804,-0.35241609
1764763121.8313854,-5.63094,2.68576,-0.4578,-0.8708473800000001,0.33837804,-0.35241609
1764763121.8313854,-5.63094,2.68576,-0.4578,-0.8708473800000001,0.33837804,-0.35241609
1764763121.8313854,-7.08064,2.60946,0.1678599999999999,-0.872251185,0.33850011,-0.353697825
1764763121.8313854,-7.08064,2.60946,0.1678599999999999,-0.872251185,0.33850011,-0.353697825
1764763121.8313854,-7.08064,2.60946,0.1678599999999999,-0.872251185,0.33850011,-0.353697825
1764763121.8313854,-7.08064,2.60946,0.1678599999999999,-0.872251185,0.33850011,-0.353697825
1764763121.8313854,-7.08064,2.60946,0.1678599999999999,-0.872251185,0.33850011,-0.353697825
1764763121.8313854,-7.08064,2.60946,0.1678599999999999,-0.872251185,0.33850011,-0.353697825
1764763121.8777597,-7.08064,2.60946,0.1678599999999999,-0.872251185,0.33850011,-0.353697825
1764763121.8777597,-7.08064,2.60946,0.1678599999999999,-0.872251185,0.33850011,-0.353697825
1764763121.8777597,-7.08064,2.60946,0.1678599999999999,-0.872251185,0.33850011,-0.353697825
1764763121.8777597,-7.08064,2.60946,0.1678599999999999,-0.872251185,0.33850011,-0.353697825
1764763121.8777597,-8.37774,2.22796,0.09156,-0.872861535,0.338805285,-0.352477125
1764763121.8777597,-8.37774,2.22796,0.09156,-0.872861535,0.338805285,-0.352477125
1764763121.8800988,-8.37774,2.22796,0.09156,-0.872861535,0.338805285,-0.352477125
1764763121.8800988,-8.37774,2.22796,0.09156,-0.872861535,0.338805285,-0.352477125
1764763121.8800988,-8.37774,2.22796,0.09156,-0.872861535,0.338805285,-0.352477125
1764763121.8800988,-8.37774,2.22796,0.09156,-0.872861535,0.338805285,-0.352477125
1764763121.8800988,-8.37774,2.22796,0.09156,-0.872861535,0.338805285,-0.352477125
1764763121.8800988,-8.37774,2.22796,0.09156,-0.872861535,0.338805285,-0.352477125
1764763121.8800988,-8.37774,2.22796,0.09156,-0.872861535,0.338805285,-0.352477125
1764763121.8800988,-8.37774,2.22796,0.09156,-0.872861535,0.338805285,-0.352477125
1764763121.8800988,-8.57612,2.4416,0.27468,-0.872495325,0.338683215,-0.34985262
1764763121.8800988,-8.57612,2.4416,0.27468,-0.872495325,0.338683215,-0.34985262
1764763121.8800988,-8.57612,2.4416,0.27468,-0.872495325,0.338683215,-0.34985262
1764763121.8800988,-8.57612,2.4416,0.27468,-0.872495325,0.338683215,-0.34985262
1764763121.8800988,-8.57612,2.4416,0.27468,-0.872495325,0.338683215,-0.34985262
1764763121.8800988,-8.57612,2.4416,0.27468,-0.872495325,0.338683215,-0.34985262
1764763121.8800988,-8.57612,2.4416,0.27468,-0.872495325,0.338683215,-0.34985262
1764763121.8800988,-8.57612,2.4416,0.27468,-0.872495325,0.338683215,-0.34985262
1764763121.8800988,-8.57612,2.4416,0.27468,-0.872495325,0.338683215,-0.34985262
1764763121.8800988,-8.57612,2.4416,0.27468,-0.872495325,0.338683215,-0.34985262
1764763121.8800988,-6.62284,3.60136,0.77826,-0.8713356600000001,0.336730095,-0.34680087
1764763121.8800988,-6.62284,3.60136,0.77826,-0.8713356600000001,0.336730095,-0.34680087
1764763121.8800988,-6.62284,3.60136,0.77826,-0.8713356600000001,0.336730095,-0.34680087
1764763121.8800988,-6.62284,3.60136,0.77826,-0.8713356600000001,0.336730095,-0.34680087
1764763121.8800988,-6.62284,3.60136,0.77826,-0.8713356600000001,0.336730095,-0.34680087
1764763121.8800988,-6.62284,3.60136,0.77826,-0.8713356600000001,0.336730095,-0.34680087
1764763121.8800988,-6.62284,3.60136,0.77826,-0.8713356600000001,0.336730095,-0.34680087
1764763121.8800988,-6.62284,3.60136,0.77826,-0.8713356600000001,0.336730095,-0.34680087
1764763121.8800988,-6.62284,3.60136,0.77826,-0.8713356600000001,0.336730095,-0.34680087
1764763121.8800988,-6.62284,3.60136,0.77826,-0.8713356600000001,0.336730095,-0.34680087
1764763121.8800988,-4.8069,3.44876,1.05294,-0.871518765,0.335509395,-0.344298435
1764763121.8800988,-4.8069,3.44876,1.05294,-0.871518765,0.335509395,-0.344298435
1764763121.923465,-4.8069,3.44876,1.05294,-0.871518765,0.335509395,-0.344298435
1764763121.923465,-4.8069,3.44876,1.05294,-0.871518765,0.335509395,-0.344298435
1764763121.923465,-4.8069,3.44876,1.05294,-0.871518765,0.335509395,-0.344298435
1764763121.923465,-4.8069,3.44876,1.05294,-0.871518765,0.335509395,-0.344298435
1764763121.923465,-4.8069,3.44876,1.05294,-0.871518765,0.335509395,-0.344298435
1764763121.923465,-4.8069,3.44876,1.05294,-0.871518765,0.335509395,-0.344298435
1764763121.923465,-4.8069,3.44876,1.05294,-0.871518765,0.335509395,-0.344298435
1764763121.923465,-4.8069,3.44876,1.05294,-0.871518765,0.335509395,-0.344298435
1764763121.923465,-2.92992,4.10494,1.08346,-0.870908415,0.33557043,-0.343688085
1764763121.923465,-2.92992,4.10494,1.08346,-0.870908415,0.33557043,-0.343688085
1764763121.923465,-2.92992,4.10494,1.08346,-0.870908415,0.33557043,-0.343688085
1764763121.923465,-2.92992,4.10494,1.08346,-0.870908415,0.33557043,-0.343688085
1764763121.923465,-2.92992,4.10494,1.08346,-0.870908415,0.33557043,-0.343688085
1764763121.923465,-2.92992,4.10494,1.08346,-0.870908415,0.33557043,-0.343688085
1764763121.923465,-2.92992,4.10494,1.08346,-0.870908415,0.33557043,-0.343688085
1764763121.923465,-2.92992,4.10494,1.08346,-0.870908415,0.33557043,-0.343688085
1764763121.923465,-2.92992,4.10494,1.08346,-0.870908415,0.33557043,-0.343688085
1764763121.923465,-2.92992,4.10494,1.08346,-0.870908415,0.33557043,-0.343688085
1764763121.923465,-1.12924,3.31142,1.03768,-0.87121359,0.335631465,-0.344298435
1764763121.923465,-1.12924,3.31142,1.03768,-0.87121359,0.335631465,-0.344298435
1764763121.923465,-1.12924,3.31142,1.03768,-0.87121359,0.335631465,-0.344298435
1764763121.923465,-1.12924,3.31142,1.03768,-0.87121359,0.335631465,-0.344298435
1764763121.9710164,-1.12924,3.31142,1.03768,-0.87121359,0.335631465,-0.344298435
1764763121.9710164,-1.12924,3.31142,1.03768,-0.87121359,0.335631465,-0.344298435
1764763121.9710164,-1.12924,3.31142,1.03768,-0.87121359,0.335631465,-0.344298435
1764763121.9710164,-1.12924,3.31142,1.03768,-0.87121359,0.335631465,-0.344298435
1764763121.9720235,-1.12924,3.31142,1.03768,-0.87121359,0.335631465,-0.344298435
1764763121.9720235,-1.12924,3.31142,1.03768,-0.87121359,0.335631465,-0.344298435
1764763121.9720235,-1.73964,3.52506,1.57178,-0.871396695,0.33703527,-0.345274995
1764763121.9720235,-1.73964,3.52506,1.57178,-0.871396695,0.33703527,-0.345274995
1764763121.9720235,-1.73964,3.52506,1.57178,-0.871396695,0.33703527,-0.345274995
1764763121.9720235,-1.73964,3.52506,1.57178,-0.871396695,0.33703527,-0.345274995
1764763121.9720235,-1.73964,3.52506,1.57178,-0.871396695,0.33703527,-0.345274995
1764763121.9720235,-1.73964,3.52506,1.57178,-0.871396695,0.33703527,-0.345274995
1764763121.9720235,-1.73964,3.52506,1.57178,-0.871396695,0.33703527,-0.345274995
1764763121.9720235,-1.73964,3.52506,1.57178,-0.871396695,0.33703527,-0.345274995
1764763121.9720235,-1.73964,3.52506,1.57178,-0.871396695,0.33703527,-0.345274995
1764763121.9720235,-1.73964,3.52506,1.57178,-0.871396695,0.33703527,-0.345274995
1764763121.9720235,-2.47212,2.92992,1.41918,-0.8715798,0.338317005,-0.34619052
1764763121.9720235,-2.47212,2.92992,1.41918,-0.8715798,0.338317005,-0.34619052
1764763121.973641,-2.47212,2.92992,1.41918,-0.8715798,0.338317005,-0.34619052
1764763121.973641,-2.47212,2.92992,1.41918,-0.8715798,0.338317005,-0.34619052
1764763121.973641,-2.47212,2.92992,1.41918,-0.8715798,0.338317005,-0.34619052
1764763121.9740498,-2.47212,2.92992,1.41918,-0.8715798,0.338317005,-0.34619052
1764763121.9740498,-2.47212,2.92992,1.41918,-0.8715798,0.338317005,-0.34619052
1764763121.9740498,-2.47212,2.92992,1.41918,-0.8715798,0.338317005,-0.34619052
1764763122.0168903,-2.47212,2.92992,1.41918,-0.8715798,0.338317005,-0.34619052
1764763122.017905,-2.47212,2.92992,1.41918,-0.8715798,0.338317005,-0.34619052
1764763122.017905,-2.5179,2.56368,1.23606,-0.87170187,0.338805285,-0.34558017
1764763122.017905,-2.5179,2.56368,1.23606,-0.87170187,0.338805285,-0.34558017
1764763122.017905,-2.5179,2.56368,1.23606,-0.87170187,0.338805285,-0.34558017
1764763122.017905,-2.5179,2.56368,1.23606,-0.87170187,0.338805285,-0.34558017
1764763122.017905,-2.5179,2.56368,1.23606,-0.87170187,0.338805285,-0.34558017
1764763122.0189023,-2.5179,2.56368,1.23606,-0.87170187,0.338805285,-0.34558017
1764763122.0189023,-2.5179,2.56368,1.23606,-0.87170187,0.338805285,-0.34558017
1764763122.0189023,-2.5179,2.56368,1.23606,-0.87170187,0.338805285,-0.34558017
1764763122.0189023,-2.5179,2.56368,1.23606,-0.87170187,0.338805285,-0.34558017
1764763122.0189023,-2.5179,2.56368,1.23606,-0.87170187,0.338805285,-0.34558017
1764763122.0189023,-2.77732,1.17502,0.8087799999999999,-0.872251185,0.339049425,-0.34472568
1764763122.0189023,-2.77732,1.17502,0.8087799999999999,-0.872251185,0.339049425,-0.34472568
1764763122.0189023,-2.77732,1.17502,0.8087799999999999,-0.872251185,0.339049425,-0.34472568
1764763122.0189023,-2.77732,1.17502,0.8087799999999999,-0.872251185,0.339049425,-0.34472568
1764763122.0189023,-2.77732,1.17502,0.8087799999999999,-0.872251185,0.339049425,-0.34472568
1764763122.0189023,-2.77732,1.17502,0.8087799999999999,-0.872251185,0.339049425,-0.34472568
1764763122.0189023,-2.77732,1.17502,0.8087799999999999,-0.872251185,0.339049425,-0.34472568
1764763122.0189023,-2.77732,1.17502,0.8087799999999999,-0.872251185,0.339049425,-0.34472568
1764763122.0189023,-2.77732,1.17502,0.8087799999999999,-0.872251185,0.339049425,-0.34472568
1764763122.0189023,-2.77732,1.17502,0.8087799999999999,-0.872251185,0.339049425,-0.34472568
1764763122.0625205,-1.48022,2.7468,1.00716,-0.869687715,0.338317005,-0.3442374
1764763122.0635335,-1.48022,2.7468,1.00716,-0.869687715,0.338317005,-0.3442374
1764763122.0635335,-1.48022,2.7468,1.00716,-0.869687715,0.338317005,-0.3442374
1764763122.0635335,-1.48022,2.7468,1.00716,-0.869687715,0.338317005,-0.3442374
1764763122.0635335,-1.48022,2.7468,1.00716,-0.869687715,0.338317005,-0.3442374
1764763122.0635335,-1.48022,2.7468,1.00716,-0.869687715,0.338317005,-0.3442374
1764763122.0635335,-1.48022,2.7468,1.00716,-0.869687715,0.338317005,-0.3442374
1764763122.0635335,-1.48022,2.7468,1.00716,-0.869687715,0.338317005,-0.3442374
1764763122.0635335,-1.48022,2.7468,1.00716,-0.869687715,0.338317005,-0.3442374
1764763122.0635335,-1.48022,2.7468,1.00716,-0.869687715,0.338317005,-0.3442374
1764763122.0635335,-0.93086,2.76206,0.6867,-0.869443575,0.338317005,-0.34362705
1764763122.0635335,-0.93086,2.76206,0.6867,-0.869443575,0.338317005,-0.34362705
1764763122.0635335,-0.93086,2.76206,0.6867,-0.869443575,0.338317005,-0.34362705
1764763122.0635335,-0.93086,2.76206,0.6867,-0.869443575,0.338317005,-0.34362705
1764763122.0635335,-0.93086,2.76206,0.6867,-0.869443575,0.338317005,-0.34362705
1764763122.0635335,-0.93086,2.76206,0.6867,-0.869443575,0.338317005,-0.34362705
1764763122.0635335,-0.93086,2.76206,0.6867,-0.869443575,0.338317005,-0.34362705
1764763122.0635335,-0.93086,2.76206,0.6867,-0.869443575,0.338317005,-0.34362705
1764763122.0635335,-0.93086,2.76206,0.6867,-0.869443575,0.338317005,-0.34362705
1764763122.0645332,-0.93086,2.76206,0.6867,-0.869443575,0.338317005,-0.34362705
1764763122.0645332,-1.2971,2.88414,0.6714399999999999,-0.869687715,0.33911046,-0.344298435
1764763122.0645332,-1.2971,2.88414,0.6714399999999999,-0.869687715,0.33911046,-0.344298435
1764763122.1106105,-1.2971,2.88414,0.6714399999999999,-0.869687715,0.33911046,-0.344298435
1764763122.1106105,-1.2971,2.88414,0.6714399999999999,-0.869687715,0.33911046,-0.344298435
1764763122.1106105,-1.2971,2.88414,0.6714399999999999,-0.869687715,0.33911046,-0.344298435
1764763122.1106105,-1.2971,2.88414,0.6714399999999999,-0.869687715,0.33911046,-0.344298435
1764763122.1106105,-1.2971,2.88414,0.6714399999999999,-0.869687715,0.33911046,-0.344298435
1764763122.1106105,-1.2971,2.88414,0.6714399999999999,-0.869687715,0.33911046,-0.344298435
1764763122.1106105,-1.2971,2.88414,0.6714399999999999,-0.869687715,0.33911046,-0.344298435
1764763122.1106105,-1.2971,2.88414,0.6714399999999999,-0.869687715,0.33911046,-0.344298435
1764763122.1106105,-0.28994,3.29616,0.6103999999999999,-0.86987082,0.33837804,-0.34435947
1764763122.1106105,-0.28994,3.29616,0.6103999999999999,-0.86987082,0.33837804,-0.34435947
1764763122.1106105,-0.28994,3.29616,0.6103999999999999,-0.86987082,0.33837804,-0.34435947
1764763122.1106105,-0.28994,3.29616,0.6103999999999999,-0.86987082,0.33837804,-0.34435947
1764763122.1106105,-0.28994,3.29616,0.6103999999999999,-0.86987082,0.33837804,-0.34435947
1764763122.1106105,-0.28994,3.29616,0.6103999999999999,-0.86987082,0.33837804,-0.34435947
1764763122.1106105,-0.28994,3.29616,0.6103999999999999,-0.86987082,0.33837804,-0.34435947
1764763122.1106105,-0.28994,3.29616,0.6103999999999999,-0.86987082,0.33837804,-0.34435947
1764763122.1106105,-0.28994,3.29616,0.6103999999999999,-0.86987082,0.33837804,-0.34435947
1764763122.1106105,-0.28994,3.29616,0.6103999999999999,-0.86987082,0.33837804,-0.34435947
1764763122.1106105,1.25132,3.64714,0.62566,-0.870053925,0.339659775,-0.343321875
1764763122.1106105,1.25132,3.64714,0.62566,-0.870053925,0.339659775,-0.343321875
1764763122.1106105,1.25132,3.64714,0.62566,-0.870053925,0.339659775,-0.343321875
1764763122.1106105,1.25132,3.64714,0.62566,-0.870053925,0.339659775,-0.343321875
1764763122.1106105,1.25132,3.64714,0.62566,-0.870053925,0.339659775,-0.343321875
1764763122.1106105,1.25132,3.64714,0.62566,-0.870053925,0.339659775,-0.343321875
1764763122.1546023,1.25132,3.64714,0.62566,-0.870053925,0.339659775,-0.343321875
1764763122.1546023,1.25132,3.64714,0.62566,-0.870053925,0.339659775,-0.343321875
1764763122.1546023,1.25132,3.64714,0.62566,-0.870053925,0.339659775,-0.343321875
1764763122.1546023,1.25132,3.64714,0.62566,-0.870053925,0.339659775,-0.343321875
1764763122.1546023,1.26658,3.55558,0.6409199999999999,-0.87060324,0.339659775,-0.344542575
1764763122.1546023,1.26658,3.55558,0.6409199999999999,-0.87060324,0.339659775,-0.344542575
1764763122.1546023,1.26658,3.55558,0.6409199999999999,-0.87060324,0.339659775,-0.344542575
1764763122.1546023,1.26658,3.55558,0.6409199999999999,-0.87060324,0.339659775,-0.344542575
1764763122.1546023,1.26658,3.55558,0.6409199999999999,-0.87060324,0.339659775,-0.344542575
1764763122.1546023,1.26658,3.55558,0.6409199999999999,-0.87060324,0.339659775,-0.344542575
1764763122.1546023,1.26658,3.55558,0.6409199999999999,-0.87060324,0.339659775,-0.344542575
1764763122.1546023,1.26658,3.55558,0.6409199999999999,-0.87060324,0.339659775,-0.344542575
1764763122.1546023,1.26658,3.55558,0.6409199999999999,-0.87060324,0.339659775,-0.344542575
1764763122.1546023,1.26658,3.55558,0.6409199999999999,-0.87060324,0.339659775,-0.344542575
1764763122.1546023,0.28994,3.5861,0.3051999999999999,-0.8713356600000001,0.340758405,-0.34509189
1764763122.1546023,0.28994,3.5861,0.3051999999999999,-0.8713356600000001,0.340758405,-0.34509189
1764763122.1546023,0.28994,3.5861,0.3051999999999999,-0.8713356600000001,0.340758405,-0.34509189
1764763122.1546023,0.28994,3.5861,0.3051999999999999,-0.8713356600000001,0.340758405,-0.34509189
1764763122.155898,0.28994,3.5861,0.3051999999999999,-0.8713356600000001,0.340758405,-0.34509189
1764763122.155898,0.28994,3.5861,0.3051999999999999,-0.8713356600000001,0.340758405,-0.34509189
1764763122.155898,0.28994,3.5861,0.3051999999999999,-0.8713356600000001,0.340758405,-0.34509189
1764763122.155898,0.28994,3.5861,0.3051999999999999,-0.8713356600000001,0.340758405,-0.34509189
1764763122.155898,0.28994,3.5861,0.3051999999999999,-0.8713356600000001,0.340758405,-0.34509189
1764763122.155898,0.28994,3.5861,0.3051999999999999,-0.8713356600000001,0.340758405,-0.34509189
1764763122.2027266,-1.61756,2.80784,0.39676,-0.870664275,0.341490825,-0.346617765
1764763122.2027266,-1.61756,2.80784,0.39676,-0.870664275,0.341490825,-0.346617765
1764763122.2037528,-1.61756,2.80784,0.39676,-0.870664275,0.341490825,-0.346617765
1764763122.2037528,-1.61756,2.80784,0.39676,-0.870664275,0.341490825,-0.346617765
1764763122.2037528,-1.61756,2.80784,0.39676,-0.870664275,0.341490825,-0.346617765
1764763122.2037528,-1.61756,2.80784,0.39676,-0.870664275,0.341490825,-0.346617765
1764763122.2037528,-1.61756,2.80784,0.39676,-0.870664275,0.341490825,-0.346617765
1764763122.2037528,-1.61756,2.80784,0.39676,-0.870664275,0.341490825,-0.346617765
1764763122.2037528,-1.61756,2.80784,0.39676,-0.870664275,0.341490825,-0.346617765
1764763122.2037528,-1.61756,2.80784,0.39676,-0.870664275,0.341490825,-0.346617765
1764763122.2037528,-1.48022,2.99096,0.06104,-0.87182394,0.340025985,-0.34680087
1764763122.2037528,-1.48022,2.99096,0.06104,-0.87182394,0.340025985,-0.34680087
1764763122.2037528,-1.48022,2.99096,0.06104,-0.87182394,0.340025985,-0.34680087
1764763122.2037528,-1.48022,2.99096,0.06104,-0.87182394,0.340025985,-0.34680087
1764763122.2037528,-1.48022,2.99096,0.06104,-0.87182394,0.340025985,-0.34680087
1764763122.2037528,-1.48022,2.99096,0.06104,-0.87182394,0.340025985,-0.34680087
1764763122.2037528,-1.48022,2.99096,0.06104,-0.87182394,0.340025985,-0.34680087
1764763122.2037528,-1.48022,2.99096,0.06104,-0.87182394,0.340025985,-0.34680087
1764763122.2037528,-1.48022,2.99096,0.06104,-0.87182394,0.340025985,-0.34680087
1764763122.2037528,-1.48022,2.99096,0.06104,-0.87182394,0.340025985,-0.34680087
1764763122.2037528,-1.25132,2.50264,1.15976,-0.87316671,0.33898839,-0.34606845
1764763122.2037528,-1.25132,2.50264,1.15976,-0.87316671,0.33898839,-0.34606845
1764763122.2037528,-1.25132,2.50264,1.15976,-0.87316671,0.33898839,-0.34606845
1764763122.2037528,-1.25132,2.50264,1.15976,-0.87316671,0.33898839,-0.34606845
1764763122.2508662,-1.25132,2.50264,1.15976,-0.87316671,0.33898839,-0.34606845
1764763122.2508662,-1.25132,2.50264,1.15976,-0.87316671,0.33898839,-0.34606845
1764763122.2508662,-1.25132,2.50264,1.15976,-0.87316671,0.33898839,-0.34606845
1764763122.2508662,-1.25132,2.50264,1.15976,-0.87316671,0.33898839,-0.34606845
1764763122.2508662,-1.25132,2.50264,1.15976,-0.87316671,0.33898839,-0.34606845
1764763122.2508662,-1.25132,2.50264,1.15976,-0.87316671,0.33898839,-0.34606845
1764763122.2508662,-1.34288,2.5942,0.6714399999999999,-0.873227745,0.339537705,-0.345397065
1764763122.2508662,-1.34288,2.5942,0.6714399999999999,-0.873227745,0.339537705,-0.345397065
1764763122.2508662,-1.34288,2.5942,0.6714399999999999,-0.873227745,0.339537705,-0.345397065
1764763122.2508662,-1.34288,2.5942,0.6714399999999999,-0.873227745,0.339537705,-0.345397065
1764763122.2508662,-1.34288,2.5942,0.6714399999999999,-0.873227745,0.339537705,-0.345397065
1764763122.2508662,-1.34288,2.5942,0.6714399999999999,-0.873227745,0.339537705,-0.345397065
1764763122.2508662,-1.34288,2.5942,0.6714399999999999,-0.873227745,0.339537705,-0.345397065
1764763122.2508662,-1.34288,2.5942,0.6714399999999999,-0.873227745,0.339537705,-0.345397065
1764763122.2508662,-1.34288,2.5942,0.6714399999999999,-0.873227745,0.339537705,-0.345397065
1764763122.2508662,-1.34288,2.5942,0.6714399999999999,-0.873227745,0.339537705,-0.345397065
1764763122.2508662,-1.92276,2.42634,0.57988,-0.8724342900000001,0.33911046,-0.345519135
1764763122.2508662,-1.92276,2.42634,0.57988,-0.8724342900000001,0.33911046,-0.345519135
1764763122.252395,-1.92276,2.42634,0.57988,-0.8724342900000001,0.33911046,-0.345519135
1764763122.252395,-1.92276,2.42634,0.57988,-0.8724342900000001,0.33911046,-0.345519135
1764763122.252395,-1.92276,2.42634,0.57988,-0.8724342900000001,0.33911046,-0.345519135
1764763122.252395,-1.92276,2.42634,0.57988,-0.8724342900000001,0.33911046,-0.345519135
1764763122.2946763,-1.92276,2.42634,0.57988,-0.8724342900000001,0.33911046,-0.345519135
1764763122.2946763,-1.92276,2.42634,0.57988,-0.8724342900000001,0.33911046,-0.345519135
1764763122.2946763,-1.92276,2.42634,0.57988,-0.8724342900000001,0.33911046,-0.345519135
1764763122.2946763,-1.92276,2.42634,0.57988,-0.8724342900000001,0.33911046,-0.345519135
1764763122.2946763,-2.02958,2.88414,-0.3051999999999999,-0.86962668,0.33837804,-0.34509189
1764763122.2946763,-2.02958,2.88414,-0.3051999999999999,-0.86962668,0.33837804,-0.34509189
1764763122.2946763,-2.02958,2.88414,-0.3051999999999999,-0.86962668,0.33837804,-0.34509189
1764763122.2946763,-2.02958,2.88414,-0.3051999999999999,-0.86962668,0.33837804,-0.34509189
1764763122.2946763,-2.02958,2.88414,-0.3051999999999999,-0.86962668,0.33837804,-0.34509189
1764763122.2946763,-2.02958,2.88414,-0.3051999999999999,-0.86962668,0.33837804,-0.34509189
1764763122.2946763,-2.02958,2.88414,-0.3051999999999999,-0.86962668,0.33837804,-0.34509189
1764763122.296334,-2.02958,2.88414,-0.3051999999999999,-0.86962668,0.33837804,-0.34509189
1764763122.296334,-2.02958,2.88414,-0.3051999999999999,-0.86962668,0.33837804,-0.34509189
1764763122.296334,-2.02958,2.88414,-0.3051999999999999,-0.86962668,0.33837804,-0.34509189
1764763122.296334,-2.80784,2.99096,0.06104,-0.8702980650000001,0.33959874,-0.344298435
1764763122.296334,-2.80784,2.99096,0.06104,-0.8702980650000001,0.33959874,-0.344298435
1764763122.297341,-2.80784,2.99096,0.06104,-0.8702980650000001,0.33959874,-0.344298435
1764763122.297341,-2.80784,2.99096,0.06104,-0.8702980650000001,0.33959874,-0.344298435
1764763122.297341,-2.80784,2.99096,0.06104,-0.8702980650000001,0.33959874,-0.344298435
1764763122.297341,-2.80784,2.99096,0.06104,-0.8702980650000001,0.33959874,-0.344298435
1764763122.297341,-2.80784,2.99096,0.06104,-0.8702980650000001,0.33959874,-0.344298435
1764763122.297341,-2.80784,2.99096,0.06104,-0.8702980650000001,0.33959874,-0.344298435
1764763122.3439505,-2.80784,2.99096,0.06104,-0.8702980650000001,0.33959874,-0.344298435
1764763122.3439505,-2.80784,2.99096,0.06104,-0.8702980650000001,0.33959874,-0.344298435
1764763122.3439505,-2.8994,2.9757,-0.59514,-0.870175995,0.33996495,-0.34362705
1764763122.3439505,-2.8994,2.9757,-0.59514,-0.870175995,0.33996495,-0.34362705
1764763122.3439505,-2.8994,2.9757,-0.59514,-0.870175995,0.33996495,-0.34362705
1764763122.3454776,-2.8994,2.9757,-0.59514,-0.870175995,0.33996495,-0.34362705
1764763122.3454776,-2.8994,2.9757,-0.59514,-0.870175995,0.33996495,-0.34362705
1764763122.3454776,-2.8994,2.9757,-0.59514,-0.870175995,0.33996495,-0.34362705
1764763122.3461113,-2.8994,2.9757,-0.59514,-0.870175995,0.33996495,-0.34362705
1764763122.3461113,-2.8994,2.9757,-0.59514,-0.870175995,0.33996495,-0.34362705
1764763122.3461113,-2.8994,2.9757,-0.59514,-0.870175995,0.33996495,-0.34362705
1764763122.3461113,-2.8994,2.9757,-0.59514,-0.870175995,0.33996495,-0.34362705
1764763122.3461113,-2.45686,3.26564,-0.1678599999999999,-0.871152555,0.339415635,-0.34338291
1764763122.3461113,-2.45686,3.26564,-0.1678599999999999,-0.871152555,0.339415635,-0.34338291
1764763122.3461113,-2.45686,3.26564,-0.1678599999999999,-0.871152555,0.339415635,-0.34338291
1764763122.3461113,-2.45686,3.26564,-0.1678599999999999,-0.871152555,0.339415635,-0.34338291
1764763122.3461113,-2.45686,3.26564,-0.1678599999999999,-0.871152555,0.339415635,-0.34338291
1764763122.3461113,-2.45686,3.26564,-0.1678599999999999,-0.871152555,0.339415635,-0.34338291
1764763122.3461113,-2.45686,3.26564,-0.1678599999999999,-0.871152555,0.339415635,-0.34338291
1764763122.3461113,-2.45686,3.26564,-0.1678599999999999,-0.871152555,0.339415635,-0.34338291
1764763122.3461113,-2.45686,3.26564,-0.1678599999999999,-0.871152555,0.339415635,-0.34338291
1764763122.3461113,-2.45686,3.26564,-0.1678599999999999,-0.871152555,0.339415635,-0.34338291
1764763122.3461113,-1.8006799999999998,3.3572,0.25942,-0.872983605,0.339537705,-0.343443945
1764763122.3461113,-1.8006799999999998,3.3572,0.25942,-0.872983605,0.339537705,-0.343443945
1764763122.3461113,-1.8006799999999998,3.3572,0.25942,-0.872983605,0.339537705,-0.343443945
1764763122.3461113,-1.8006799999999998,3.3572,0.25942,-0.872983605,0.339537705,-0.343443945
1764763122.3887763,-1.8006799999999998,3.3572,0.25942,-0.872983605,0.339537705,-0.343443945
1764763122.3887763,-1.8006799999999998,3.3572,0.25942,-0.872983605,0.339537705,-0.343443945
1764763122.3887763,-1.8006799999999998,3.3572,0.25942,-0.872983605,0.339537705,-0.343443945
1764763122.3887763,-1.8006799999999998,3.3572,0.25942,-0.872983605,0.339537705,-0.343443945
1764763122.3887763,-1.8006799999999998,3.3572,0.25942,-0.872983605,0.339537705,-0.343443945
1764763122.3887763,-1.8006799999999998,3.3572,0.25942,-0.872983605,0.339537705,-0.343443945
1764763122.3887763,-2.1364,3.61662,0.7019599999999999,-0.87341085,0.34045323,-0.344298435
1764763122.3887763,-2.1364,3.61662,0.7019599999999999,-0.87341085,0.34045323,-0.344298435
1764763122.3887763,-2.1364,3.61662,0.7019599999999999,-0.87341085,0.34045323,-0.344298435
1764763122.3887763,-2.1364,3.61662,0.7019599999999999,-0.87341085,0.34045323,-0.344298435
1764763122.3887763,-2.1364,3.61662,0.7019599999999999,-0.87341085,0.34045323,-0.344298435
1764763122.3887763,-2.1364,3.61662,0.7019599999999999,-0.87341085,0.34045323,-0.344298435
1764763122.3887763,-2.1364,3.61662,0.7019599999999999,-0.87341085,0.34045323,-0.344298435
1764763122.3887763,-2.1364,3.61662,0.7019599999999999,-0.87341085,0.34045323,-0.344298435
1764763122.3887763,-2.1364,3.61662,0.7019599999999999,-0.87341085,0.34045323,-0.344298435
1764763122.3887763,-2.1364,3.61662,0.7019599999999999,-0.87341085,0.34045323,-0.344298435
1764763122.3887763,-2.48738,3.4335,0.12208,-0.871396695,0.34069737,-0.343810155
1764763122.3887763,-2.48738,3.4335,0.12208,-0.871396695,0.34069737,-0.343810155
1764763122.3887763,-2.48738,3.4335,0.12208,-0.871396695,0.34069737,-0.343810155
1764763122.3887763,-2.48738,3.4335,0.12208,-0.871396695,0.34069737,-0.343810155
1764763122.3887763,-2.48738,3.4335,0.12208,-0.871396695,0.34069737,-0.343810155
1764763122.3887763,-2.48738,3.4335,0.12208,-0.871396695,0.34069737,-0.343810155
1764763122.435758,-2.48738,3.4335,0.12208,-0.871396695,0.34069737,-0.343810155
1764763122.435758,-2.48738,3.4335,0.12208,-0.871396695,0.34069737,-0.343810155
1764763122.435758,-2.48738,3.4335,0.12208,-0.871396695,0.34069737,-0.343810155
1764763122.435758,-2.48738,3.4335,0.12208,-0.871396695,0.34069737,-0.343810155
1764763122.435758,-2.5942,2.60946,0.28994,-0.87096945,0.34008702,-0.34374912
1764763122.435758,-2.5942,2.60946,0.28994,-0.87096945,0.34008702,-0.34374912
1764763122.435758,-2.5942,2.60946,0.28994,-0.87096945,0.34008702,-0.34374912
1764763122.435758,-2.5942,2.60946,0.28994,-0.87096945,0.34008702,-0.34374912
1764763122.435758,-2.5942,2.60946,0.28994,-0.87096945,0.34008702,-0.34374912
1764763122.435758,-2.5942,2.60946,0.28994,-0.87096945,0.34008702,-0.34374912
1764763122.435758,-2.5942,2.60946,0.28994,-0.87096945,0.34008702,-0.34374912
1764763122.435758,-2.5942,2.60946,0.28994,-0.87096945,0.34008702,-0.34374912
1764763122.435758,-2.5942,2.60946,0.28994,-0.87096945,0.34008702,-0.34374912
1764763122.435758,-2.5942,2.60946,0.28994,-0.87096945,0.34008702,-0.34374912
1764763122.435758,-2.76206,2.5942,0.13734,-0.872251185,0.3393546,-0.343199805
1764763122.435758,-2.76206,2.5942,0.13734,-0.872251185,0.3393546,-0.343199805
1764763122.435758,-2.76206,2.5942,0.13734,-0.872251185,0.3393546,-0.343199805
1764763122.435758,-2.76206,2.5942,0.13734,-0.872251185,0.3393546,-0.343199805
1764763122.435758,-2.76206,2.5942,0.13734,-0.872251185,0.3393546,-0.343199805
1764763122.435758,-2.76206,2.5942,0.13734,-0.872251185,0.3393546,-0.343199805
1764763122.435758,-2.76206,2.5942,0.13734,-0.872251185,0.3393546,-0.343199805
1764763122.435758,-2.76206,2.5942,0.13734,-0.872251185,0.3393546,-0.343199805
1764763122.435758,-2.76206,2.5942,0.13734,-0.872251185,0.3393546,-0.343199805
1764763122.435758,-2.76206,2.5942,0.13734,-0.872251185,0.3393546,-0.343199805
1764763122.4814675,-2.57894,2.68576,0.763,-0.873105675,0.33862218,-0.342101175
1764763122.4814675,-2.57894,2.68576,0.763,-0.873105675,0.33862218,-0.342101175
1764763122.4814675,-2.57894,2.68576,0.763,-0.873105675,0.33862218,-0.342101175
1764763122.4814675,-2.57894,2.68576,0.763,-0.873105675,0.33862218,-0.342101175
1764763122.4814675,-2.57894,2.68576,0.763,-0.873105675,0.33862218,-0.342101175
1764763122.4814675,-2.57894,2.68576,0.763,-0.873105675,0.33862218,-0.342101175
1764763122.4814675,-2.57894,2.68576,0.763,-0.873105675,0.33862218,-0.342101175
1764763122.4814675,-2.57894,2.68576,0.763,-0.873105675,0.33862218,-0.342101175
1764763122.4814675,-2.57894,2.68576,0.763,-0.873105675,0.33862218,-0.342101175
1764763122.4824774,-2.57894,2.68576,0.763,-0.873105675,0.33862218,-0.342101175
1764763122.4824774,-1.41918,3.17408,0.74774,-0.8724342900000001,0.336852165,-0.34167393
1764763122.4824774,-1.41918,3.17408,0.74774,-0.8724342900000001,0.336852165,-0.34167393
1764763122.5295208,-1.41918,3.17408,0.74774,-0.8724342900000001,0.336852165,-0.34167393
1764763122.5295208,-1.41918,3.17408,0.74774,-0.8724342900000001,0.336852165,-0.34167393
1764763122.5295208,-1.41918,3.17408,0.74774,-0.8724342900000001,0.336852165,-0.34167393
1764763122.5295208,-1.41918,3.17408,0.74774,-0.8724342900000001,0.336852165,-0.34167393
1764763122.5295208,-1.41918,3.17408,0.74774,-0.8724342900000001,0.336852165,-0.34167393
1764763122.5295208,-1.41918,3.17408,0.74774,-0.8724342900000001,0.336852165,-0.34167393
1764763122.5295208,-1.41918,3.17408,0.74774,-0.8724342900000001,0.336852165,-0.34167393
1764763122.5295208,-1.41918,3.17408,0.74774,-0.8724342900000001,0.336852165,-0.34167393
1764763122.5295208,-0.27468,3.2046,-0.04578,-0.871518765,0.337096305,-0.341368755
1764763122.5295208,-0.27468,3.2046,-0.04578,-0.871518765,0.337096305,-0.341368755
1764763122.5295208,-0.27468,3.2046,-0.04578,-0.871518765,0.337096305,-0.341368755
1764763122.5295208,-0.27468,3.2046,-0.04578,-0.871518765,0.337096305,-0.341368755
1764763122.5295208,-0.27468,3.2046,-0.04578,-0.871518765,0.337096305,-0.341368755
1764763122.5295208,-0.27468,3.2046,-0.04578,-0.871518765,0.337096305,-0.341368755
1764763122.5295208,-0.27468,3.2046,-0.04578,-0.871518765,0.337096305,-0.341368755
1764763122.5295208,-0.27468,3.2046,-0.04578,-0.871518765,0.337096305,-0.341368755
1764763122.5295208,-0.27468,3.2046,-0.04578,-0.871518765,0.337096305,-0.341368755
1764763122.5295208,-0.27468,3.2046,-0.04578,-0.871518765,0.337096305,-0.341368755
1764763122.5295208,-0.1525999999999999,3.29616,0.3815,-0.87206808,0.33837804,-0.341490825
1764763122.5295208,-0.1525999999999999,3.29616,0.3815,-0.87206808,0.33837804,-0.341490825
1764763122.5295208,-0.1525999999999999,3.29616,0.3815,-0.87206808,0.33837804,-0.341490825
1764763122.5295208,-0.1525999999999999,3.29616,0.3815,-0.87206808,0.33837804,-0.341490825
1764763122.5295208,-0.1525999999999999,3.29616,0.3815,-0.87206808,0.33837804,-0.341490825
1764763122.5295208,-0.1525999999999999,3.29616,0.3815,-0.87206808,0.33837804,-0.341490825
1764763122.5295208,-0.1525999999999999,3.29616,0.3815,-0.87206808,0.33837804,-0.341490825
1764763122.5295208,-0.1525999999999999,3.29616,0.3815,-0.87206808,0.33837804,-0.341490825
1764763122.5295208,-0.1525999999999999,3.29616,0.3815,-0.87206808,0.33837804,-0.341490825
1764763122.5295208,-0.1525999999999999,3.29616,0.3815,-0.87206808,0.33837804,-0.341490825
1764763122.5295208,-1.35814,3.49454,0.09156,-0.87255636,0.339903915,-0.342345315
1764763122.5295208,-1.35814,3.49454,0.09156,-0.87255636,0.339903915,-0.342345315
1764763122.5295208,-1.35814,3.49454,0.09156,-0.87255636,0.339903915,-0.342345315
1764763122.5295208,-1.35814,3.49454,0.09156,-0.87255636,0.339903915,-0.342345315
1764763122.5295208,-1.35814,3.49454,0.09156,-0.87255636,0.339903915,-0.342345315
1764763122.5295208,-1.35814,3.49454,0.09156,-0.87255636,0.339903915,-0.342345315
1764763122.5756755,-1.35814,3.49454,0.09156,-0.87255636,0.339903915,-0.342345315
1764763122.5756755,-1.35814,3.49454,0.09156,-0.87255636,0.339903915,-0.342345315
1764763122.5756755,-1.35814,3.49454,0.09156,-0.87255636,0.339903915,-0.342345315
1764763122.5756755,-1.35814,3.49454,0.09156,-0.87255636,0.339903915,-0.342345315
1764763122.5756755,-1.81594,3.15882,0.36624,-0.872861535,0.34045323,-0.34338291
1764763122.5756755,-1.81594,3.15882,0.36624,-0.872861535,0.34045323,-0.34338291
1764763122.5756755,-1.81594,3.15882,0.36624,-0.872861535,0.34045323,-0.34338291
1764763122.5756755,-1.81594,3.15882,0.36624,-0.872861535,0.34045323,-0.34338291
1764763122.5756755,-1.81594,3.15882,0.36624,-0.872861535,0.34045323,-0.34338291
1764763122.5756755,-1.81594,3.15882,0.36624,-0.872861535,0.34045323,-0.34338291
1764763122.5756755,-1.81594,3.15882,0.36624,-0.872861535,0.34045323,-0.34338291
1764763122.5756755,-1.81594,3.15882,0.36624,-0.872861535,0.34045323,-0.34338291
1764763122.5756755,-1.81594,3.15882,0.36624,-0.872861535,0.34045323,-0.34338291
1764763122.5756755,-1.81594,3.15882,0.36624,-0.872861535,0.34045323,-0.34338291
1764763122.5756755,-1.34288,2.9757,-0.12208,-0.872739465,0.340025985,-0.342345315
1764763122.5756755,-1.34288,2.9757,-0.12208,-0.872739465,0.340025985,-0.342345315
1764763122.5756755,-1.34288,2.9757,-0.12208,-0.872739465,0.340025985,-0.342345315
1764763122.5756755,-1.34288,2.9757,-0.12208,-0.872739465,0.340025985,-0.342345315
1764763122.5756755,-1.34288,2.9757,-0.12208,-0.872739465,0.340025985,-0.342345315
1764763122.5756755,-1.34288,2.9757,-0.12208,-0.872739465,0.340025985,-0.342345315
1764763122.5756755,-1.34288,2.9757,-0.12208,-0.872739465,0.340025985,-0.342345315
1764763122.5756755,-1.34288,2.9757,-0.12208,-0.872739465,0.340025985,-0.342345315
1764763122.5761175,-1.34288,2.9757,-0.12208,-0.872739465,0.340025985,-0.342345315
1764763122.5761175,-1.34288,2.9757,-0.12208,-0.872739465,0.340025985,-0.342345315
1764763122.6218536,-1.25132,3.46402,0.3357199999999999,-0.87206808,0.339537705,-0.34155186
1764763122.6228614,-1.25132,3.46402,0.3357199999999999,-0.87206808,0.339537705,-0.34155186
1764763122.6228614,-1.25132,3.46402,0.3357199999999999,-0.87206808,0.339537705,-0.34155186
1764763122.6228614,-1.25132,3.46402,0.3357199999999999,-0.87206808,0.339537705,-0.34155186
1764763122.6228614,-1.25132,3.46402,0.3357199999999999,-0.87206808,0.339537705,-0.34155186
1764763122.6228614,-1.25132,3.46402,0.3357199999999999,-0.87206808,0.339537705,-0.34155186
1764763122.6228614,-1.25132,3.46402,0.3357199999999999,-0.87206808,0.339537705,-0.34155186
1764763122.6228614,-1.25132,3.46402,0.3357199999999999,-0.87206808,0.339537705,-0.34155186
1764763122.6228614,-1.25132,3.46402,0.3357199999999999,-0.87206808,0.339537705,-0.34155186
1764763122.6228614,-1.25132,3.46402,0.3357199999999999,-0.87206808,0.339537705,-0.34155186
1764763122.6228614,-1.0682,3.6624,0.59514,-0.8715798,0.33959874,-0.34045323
1764763122.6228614,-1.0682,3.6624,0.59514,-0.8715798,0.33959874,-0.34045323
1764763122.62386,-1.0682,3.6624,0.59514,-0.8715798,0.33959874,-0.34045323
1764763122.62386,-1.0682,3.6624,0.59514,-0.8715798,0.33959874,-0.34045323
1764763122.62386,-1.0682,3.6624,0.59514,-0.8715798,0.33959874,-0.34045323
1764763122.62386,-1.0682,3.6624,0.59514,-0.8715798,0.33959874,-0.34045323
1764763122.62386,-1.0682,3.6624,0.59514,-0.8715798,0.33959874,-0.34045323
1764763122.62386,-1.0682,3.6624,0.59514,-0.8715798,0.33959874,-0.34045323
1764763122.62386,-1.0682,3.6624,0.59514,-0.8715798,0.33959874,-0.34045323
1764763122.62386,-1.0682,3.6624,0.59514,-0.8715798,0.33959874,-0.34045323
1764763122.62386,-1.03768,3.87604,0.27468,-0.8713356600000001,0.33947667,-0.340270125
1764763122.62386,-1.03768,3.87604,0.27468,-0.8713356600000001,0.33947667,-0.340270125
1764763122.6699438,-1.03768,3.87604,0.27468,-0.8713356600000001,0.33947667,-0.340270125
1764763122.6699438,-1.03768,3.87604,0.27468,-0.8713356600000001,0.33947667,-0.340270125
1764763122.6699438,-1.03768,3.87604,0.27468,-0.8713356600000001,0.33947667,-0.340270125
1764763122.6699438,-1.03768,3.87604,0.27468,-0.8713356600000001,0.33947667,-0.340270125
1764763122.6699438,-1.03768,3.87604,0.27468,-0.8713356600000001,0.33947667,-0.340270125
1764763122.6699438,-1.03768,3.87604,0.27468,-0.8713356600000001,0.33947667,-0.340270125
1764763122.67095,-1.03768,3.87604,0.27468,-0.8713356600000001,0.33947667,-0.340270125
1764763122.67095,-1.03768,3.87604,0.27468,-0.8713356600000001,0.33947667,-0.340270125
1764763122.67095,-0.36624,4.02864,0.73248,-0.87170187,0.338927355,-0.340025985
1764763122.67095,-0.36624,4.02864,0.73248,-0.87170187,0.338927355,-0.340025985
1764763122.67095,-0.36624,4.02864,0.73248,-0.87170187,0.338927355,-0.340025985
1764763122.67095,-0.36624,4.02864,0.73248,-0.87170187,0.338927355,-0.340025985
1764763122.67095,-0.36624,4.02864,0.73248,-0.87170187,0.338927355,-0.340025985
1764763122.67095,-0.36624,4.02864,0.73248,-0.87170187,0.338927355,-0.340025985
1764763122.67095,-0.36624,4.02864,0.73248,-0.87170187,0.338927355,-0.340025985
1764763122.67095,-0.36624,4.02864,0.73248,-0.87170187,0.338927355,-0.340025985
1764763122.67095,-0.36624,4.02864,0.73248,-0.87170187,0.338927355,-0.340025985
1764763122.67095,-0.36624,4.02864,0.73248,-0.87170187,0.338927355,-0.340025985
1764763122.67095,0.6103999999999999,3.92182,0.93086,-0.87304464,0.338317005,-0.340270125
1764763122.67095,0.6103999999999999,3.92182,0.93086,-0.87304464,0.338317005,-0.340270125
1764763122.7137797,0.6103999999999999,3.92182,0.93086,-0.87304464,0.338317005,-0.340270125
1764763122.7137797,0.6103999999999999,3.92182,0.93086,-0.87304464,0.338317005,-0.340270125
1764763122.7137797,0.6103999999999999,3.92182,0.93086,-0.87304464,0.338317005,-0.340270125
1764763122.7137797,0.6103999999999999,3.92182,0.93086,-0.87304464,0.338317005,-0.340270125
1764763122.7137797,0.6103999999999999,3.92182,0.93086,-0.87304464,0.338317005,-0.340270125
1764763122.7137797,0.6103999999999999,3.92182,0.93086,-0.87304464,0.338317005,-0.340270125
1764763122.7137797,0.6103999999999999,3.92182,0.93086,-0.87304464,0.338317005,-0.340270125
1764763122.7137797,0.6103999999999999,3.92182,0.93086,-0.87304464,0.338317005,-0.340270125
1764763122.7137797,0.88508,3.83026,0.6103999999999999,-0.87316671,0.3381339,-0.34106358
1764763122.7137797,0.88508,3.83026,0.6103999999999999,-0.87316671,0.3381339,-0.34106358
1764763122.7137797,0.88508,3.83026,0.6103999999999999,-0.87316671,0.3381339,-0.34106358
1764763122.7137797,0.88508,3.83026,0.6103999999999999,-0.87316671,0.3381339,-0.34106358
1764763122.7137797,0.88508,3.83026,0.6103999999999999,-0.87316671,0.3381339,-0.34106358
1764763122.7137797,0.88508,3.83026,0.6103999999999999,-0.87316671,0.3381339,-0.34106358
1764763122.7137797,0.88508,3.83026,0.6103999999999999,-0.87316671,0.3381339,-0.34106358
1764763122.7148526,0.88508,3.83026,0.6103999999999999,-0.87316671,0.3381339,-0.34106358
1764763122.7148526,0.88508,3.83026,0.6103999999999999,-0.87316671,0.3381339,-0.34106358
1764763122.7148526,0.88508,3.83026,0.6103999999999999,-0.87316671,0.3381339,-0.34106358
1764763122.7148526,1.25132,3.64714,0.9156,-0.872861535,0.339171495,-0.340758405
1764763122.7148526,1.25132,3.64714,0.9156,-0.872861535,0.339171495,-0.340758405
1764763122.7148526,1.25132,3.64714,0.9156,-0.872861535,0.339171495,-0.340758405
1764763122.7153614,1.25132,3.64714,0.9156,-0.872861535,0.339171495,-0.340758405
1764763122.7153614,1.25132,3.64714,0.9156,-0.872861535,0.339171495,-0.340758405
1764763122.7153614,1.25132,3.64714,0.9156,-0.872861535,0.339171495,-0.340758405
1764763122.7153614,1.25132,3.64714,0.9156,-0.872861535,0.339171495,-0.340758405
1764763122.7153614,1.25132,3.64714,0.9156,-0.872861535,0.339171495,-0.340758405
1764763122.7616067,1.25132,3.64714,0.9156,-0.872861535,0.339171495,-0.340758405
1764763122.7616067,1.25132,3.64714,0.9156,-0.872861535,0.339171495,-0.340758405
1764763122.7616067,1.12924,3.34194,0.19838,-0.87145773,0.33972081,-0.34081944
1764763122.7616067,1.12924,3.34194,0.19838,-0.87145773,0.33972081,-0.34081944
1764763122.7616067,1.12924,3.34194,0.19838,-0.87145773,0.33972081,-0.34081944
1764763122.7616067,1.12924,3.34194,0.19838,-0.87145773,0.33972081,-0.34081944
1764763122.7616067,1.12924,3.34194,0.19838,-0.87145773,0.33972081,-0.34081944
1764763122.7616067,1.12924,3.34194,0.19838,-0.87145773,0.33972081,-0.34081944
1764763122.810058,1.12924,3.34194,0.19838,-0.87145773,0.33972081,-0.34081944
1764763122.810058,1.12924,3.34194,0.19838,-0.87145773,0.33972081,-0.34081944
1764763122.810058,1.12924,3.34194,0.19838,-0.87145773,0.33972081,-0.34081944
1764763122.810058,1.12924,3.34194,0.19838,-0.87145773,0.33972081,-0.34081944
1764763122.810058,2.22796,3.29616,0.88508,-0.87267843,0.339049425,-0.34167393
1764763122.810058,2.22796,3.29616,0.88508,-0.87267843,0.339049425,-0.34167393
1764763122.810058,2.22796,3.29616,0.88508,-0.87267843,0.339049425,-0.34167393
1764763122.810058,2.22796,3.29616,0.88508,-0.87267843,0.339049425,-0.34167393
1764763122.810058,2.22796,3.29616,0.88508,-0.87267843,0.339049425,-0.34167393
1764763122.810058,2.22796,3.29616,0.88508,-0.87267843,0.339049425,-0.34167393
1764763122.810058,2.22796,3.29616,0.88508,-0.87267843,0.339049425,-0.34167393
1764763122.810058,2.22796,3.29616,0.88508,-0.87267843,0.339049425,-0.34167393
1764763122.810058,2.22796,3.29616,0.88508,-0.87267843,0.339049425,-0.34167393
1764763122.810058,2.22796,3.29616,0.88508,-0.87267843,0.339049425,-0.34167393
1764763122.810058,1.86172,3.63188,2.12114,-0.87365499,0.33996495,-0.341490825
1764763122.810058,1.86172,3.63188,2.12114,-0.87365499,0.33996495,-0.341490825
1764763122.810058,1.86172,3.63188,2.12114,-0.87365499,0.33996495,-0.341490825
1764763122.810058,1.86172,3.63188,2.12114,-0.87365499,0.33996495,-0.341490825
1764763122.810058,1.86172,3.63188,2.12114,-0.87365499,0.33996495,-0.341490825
1764763122.810058,1.86172,3.63188,2.12114,-0.87365499,0.33996495,-0.341490825
1764763122.810058,1.86172,3.63188,2.12114,-0.87365499,0.33996495,-0.341490825
1764763122.810058,1.86172,3.63188,2.12114,-0.87365499,0.33996495,-0.341490825
1764763122.810058,1.86172,3.63188,2.12114,-0.87365499,0.33996495,-0.341490825
1764763122.810058,1.86172,3.63188,2.12114,-0.87365499,0.33996495,-0.341490825
1764763122.8564816,1.3734,3.21986,1.43444,-0.87341085,0.341124615,-0.342589455
1764763122.8564816,1.3734,3.21986,1.43444,-0.87341085,0.341124615,-0.342589455
1764763122.8564816,1.3734,3.21986,1.43444,-0.87341085,0.341124615,-0.342589455
1764763122.8564816,1.3734,3.21986,1.43444,-0.87341085,0.341124615,-0.342589455
1764763122.8564816,1.3734,3.21986,1.43444,-0.87341085,0.341124615,-0.342589455
1764763122.8564816,1.3734,3.21986,1.43444,-0.87341085,0.341124615,-0.342589455
1764763122.8564816,1.3734,3.21986,1.43444,-0.87341085,0.341124615,-0.342589455
1764763122.8564816,1.3734,3.21986,1.43444,-0.87341085,0.341124615,-0.342589455
1764763122.8564816,1.3734,3.21986,1.43444,-0.87341085,0.341124615,-0.342589455
1764763122.8564816,1.3734,3.21986,1.43444,-0.87341085,0.341124615,-0.342589455
1764763122.8564816,1.09872,3.17408,1.31236,-0.872373255,0.34081944,-0.3430167
1764763122.8564816,1.09872,3.17408,1.31236,-0.872373255,0.34081944,-0.3430167
1764763122.8564816,1.09872,3.17408,1.31236,-0.872373255,0.34081944,-0.3430167
1764763122.8564816,1.09872,3.17408,1.31236,-0.872373255,0.34081944,-0.3430167
1764763122.8564816,1.09872,3.17408,1.31236,-0.872373255,0.34081944,-0.3430167
1764763122.8564816,1.09872,3.17408,1.31236,-0.872373255,0.34081944,-0.3430167
1764763122.8564816,1.09872,3.17408,1.31236,-0.872373255,0.34081944,-0.3430167
1764763122.8564816,1.09872,3.17408,1.31236,-0.872373255,0.34081944,-0.3430167
1764763122.8564816,1.09872,3.17408,1.31236,-0.872373255,0.34081944,-0.3430167
1764763122.8564816,1.09872,3.17408,1.31236,-0.872373255,0.34081944,-0.3430167
1764763122.8564816,0.27468,3.02148,1.0682,-0.8708473800000001,0.339537705,-0.343199805
1764763122.8564816,0.27468,3.02148,1.0682,-0.8708473800000001,0.339537705,-0.343199805
1764763122.8564816,0.27468,3.02148,1.0682,-0.8708473800000001,0.339537705,-0.343199805
1764763122.8564816,0.27468,3.02148,1.0682,-0.8708473800000001,0.339537705,-0.343199805
1764763122.8564816,0.27468,3.02148,1.0682,-0.8708473800000001,0.339537705,-0.343199805
1764763122.8564816,0.27468,3.02148,1.0682,-0.8708473800000001,0.339537705,-0.343199805
1764763122.8564816,0.27468,3.02148,1.0682,-0.8708473800000001,0.339537705,-0.343199805
1764763122.8564816,0.27468,3.02148,1.0682,-0.8708473800000001,0.339537705,-0.343199805
1764763122.8564816,0.27468,3.02148,1.0682,-0.8708473800000001,0.339537705,-0.343199805
1764763122.8564816,0.27468,3.02148,1.0682,-0.8708473800000001,0.339537705,-0.343199805
1764763122.8564816,-0.79352,3.69292,0.59514,-0.8708473800000001,0.33984288,-0.343077735
1764763122.8564816,-0.79352,3.69292,0.59514,-0.8708473800000001,0.33984288,-0.343077735
1764763122.8564816,-0.79352,3.69292,0.59514,-0.8708473800000001,0.33984288,-0.343077735
1764763122.8564816,-0.79352,3.69292,0.59514,-0.8708473800000001,0.33984288,-0.343077735
1764763122.9001586,-0.79352,3.69292,0.59514,-0.8708473800000001,0.33984288,-0.343077735
1764763122.9001586,-0.79352,3.69292,0.59514,-0.8708473800000001,0.33984288,-0.343077735
1764763122.9001586,-0.79352,3.69292,0.59514,-0.8708473800000001,0.33984288,-0.343077735
1764763122.9001586,-0.79352,3.69292,0.59514,-0.8708473800000001,0.33984288,-0.343077735
1764763122.9477422,-0.79352,3.69292,0.59514,-0.8708473800000001,0.33984288,-0.343077735
1764763122.9477422,-0.79352,3.69292,0.59514,-0.8708473800000001,0.33984288,-0.343077735
1764763122.9477422,-1.2208,3.34194,-0.0762999999999999,-0.870420135,0.339903915,-0.343077735
1764763122.9477422,-1.2208,3.34194,-0.0762999999999999,-0.870420135,0.339903915,-0.343077735
1764763122.9477422,-1.2208,3.34194,-0.0762999999999999,-0.870420135,0.339903915,-0.343077735
1764763122.9477422,-1.2208,3.34194,-0.0762999999999999,-0.870420135,0.339903915,-0.343077735
1764763122.9477422,-1.2208,3.34194,-0.0762999999999999,-0.870420135,0.339903915,-0.343077735
1764763122.9477422,-1.2208,3.34194,-0.0762999999999999,-0.870420135,0.339903915,-0.343077735
1764763122.9477422,-1.2208,3.34194,-0.0762999999999999,-0.870420135,0.339903915,-0.343077735
1764763122.9487605,-1.2208,3.34194,-0.0762999999999999,-0.870420135,0.339903915,-0.343077735
1764763122.9487605,-1.2208,3.34194,-0.0762999999999999,-0.870420135,0.339903915,-0.343077735
1764763122.9487605,-1.2208,3.34194,-0.0762999999999999,-0.870420135,0.339903915,-0.343077735
1764763122.9487605,-0.6867,3.64714,0.3509799999999999,-0.871518765,0.339171495,-0.34289463
1764763122.9487605,-0.6867,3.64714,0.3509799999999999,-0.871518765,0.339171495,-0.34289463
1764763122.9487605,-0.6867,3.64714,0.3509799999999999,-0.871518765,0.339171495,-0.34289463
1764763122.9487605,-0.6867,3.64714,0.3509799999999999,-0.871518765,0.339171495,-0.34289463
1764763122.9487605,-0.6867,3.64714,0.3509799999999999,-0.871518765,0.339171495,-0.34289463
1764763122.9487605,-0.6867,3.64714,0.3509799999999999,-0.871518765,0.339171495,-0.34289463
1764763122.9498022,-0.6867,3.64714,0.3509799999999999,-0.871518765,0.339171495,-0.34289463
1764763122.9498022,-0.6867,3.64714,0.3509799999999999,-0.871518765,0.339171495,-0.34289463
1764763122.9498022,-0.6867,3.64714,0.3509799999999999,-0.871518765,0.339171495,-0.34289463
1764763122.9498022,-0.6867,3.64714,0.3509799999999999,-0.871518765,0.339171495,-0.34289463
1764763122.9498022,-0.01526,4.07442,0.77826,-0.872739465,0.33837804,-0.343932225
1764763122.9498022,-0.01526,4.07442,0.77826,-0.872739465,0.33837804,-0.343932225
1764763122.9498022,-0.01526,4.07442,0.77826,-0.872739465,0.33837804,-0.343932225
1764763122.9498022,-0.01526,4.07442,0.77826,-0.872739465,0.33837804,-0.343932225
1764763122.9498022,-0.01526,4.07442,0.77826,-0.872739465,0.33837804,-0.343932225
1764763122.9498022,-0.01526,4.07442,0.77826,-0.872739465,0.33837804,-0.343932225
1764763122.9508028,-0.01526,4.07442,0.77826,-0.872739465,0.33837804,-0.343932225
1764763122.9508028,-0.01526,4.07442,0.77826,-0.872739465,0.33837804,-0.343932225
1764763122.9508028,-0.01526,4.07442,0.77826,-0.872739465,0.33837804,-0.343932225
1764763122.9508028,-0.01526,4.07442,0.77826,-0.872739465,0.33837804,-0.343932225
1764763122.9508028,-0.79352,4.22702,1.35814,-0.873227745,0.33947667,-0.34387119
1764763122.9508028,-0.79352,4.22702,1.35814,-0.873227745,0.33947667,-0.34387119
1764763122.9508028,-0.79352,4.22702,1.35814,-0.873227745,0.33947667,-0.34387119
1764763122.9508028,-0.79352,4.22702,1.35814,-0.873227745,0.33947667,-0.34387119
1764763122.9508028,-0.79352,4.22702,1.35814,-0.873227745,0.33947667,-0.34387119
1764763122.9508028,-0.79352,4.22702,1.35814,-0.873227745,0.33947667,-0.34387119
1764763122.9508028,-0.79352,4.22702,1.35814,-0.873227745,0.33947667,-0.34387119
1764763122.9508028,-0.79352,4.22702,1.35814,-0.873227745,0.33947667,-0.34387119
1764763122.9508028,-0.79352,4.22702,1.35814,-0.873227745,0.33947667,-0.34387119
1764763122.9508028,-0.79352,4.22702,1.35814,-0.873227745,0.33947667,-0.34387119
1764763122.9508028,-1.41918,3.78448,0.3509799999999999,-0.871762905,0.340758405,-0.34362705
1764763122.9508028,-1.41918,3.78448,0.3509799999999999,-0.871762905,0.340758405,-0.34362705
1764763122.9508028,-1.41918,3.78448,0.3509799999999999,-0.871762905,0.340758405,-0.34362705
1764763122.9508028,-1.41918,3.78448,0.3509799999999999,-0.871762905,0.340758405,-0.34362705
1764763122.9508028,-1.41918,3.78448,0.3509799999999999,-0.871762905,0.340758405,-0.34362705
1764763122.9508028,-1.41918,3.78448,0.3509799999999999,-0.871762905,0.340758405,-0.34362705
1764763122.998271,-1.41918,3.78448,0.3509799999999999,-0.871762905,0.340758405,-0.34362705
1764763122.998271,-1.41918,3.78448,0.3509799999999999,-0.871762905,0.340758405,-0.34362705
1764763122.998271,-1.41918,3.78448,0.3509799999999999,-0.871762905,0.340758405,-0.34362705
1764763122.998271,-1.41918,3.78448,0.3509799999999999,-0.871762905,0.340758405,-0.34362705
1764763122.998271,-1.11398,3.54032,0.47306,-0.871396695,0.340148055,-0.34362705
1764763122.998271,-1.11398,3.54032,0.47306,-0.871396695,0.340148055,-0.34362705
1764763122.998271,-1.11398,3.54032,0.47306,-0.871396695,0.340148055,-0.34362705
1764763122.998271,-1.11398,3.54032,0.47306,-0.871396695,0.340148055,-0.34362705
1764763122.998271,-1.11398,3.54032,0.47306,-0.871396695,0.340148055,-0.34362705
1764763122.998271,-1.11398,3.54032,0.47306,-0.871396695,0.340148055,-0.34362705
1764763122.998271,-1.11398,3.54032,0.47306,-0.871396695,0.340148055,-0.34362705
1764763122.998271,-1.11398,3.54032,0.47306,-0.871396695,0.340148055,-0.34362705
1764763122.998271,-1.11398,3.54032,0.47306,-0.871396695,0.340148055,-0.34362705
1764763122.998271,-1.11398,3.54032,0.47306,-0.871396695,0.340148055,-0.34362705
1764763122.998271,-1.28184,3.75396,1.08346,-0.872007045,0.33984288,-0.341979105
1764763122.998271,-1.28184,3.75396,1.08346,-0.872007045,0.33984288,-0.341979105
1764763122.998271,-1.28184,3.75396,1.08346,-0.872007045,0.33984288,-0.341979105
1764763122.998271,-1.28184,3.75396,1.08346,-0.872007045,0.33984288,-0.341979105
1764763122.998271,-1.28184,3.75396,1.08346,-0.872007045,0.33984288,-0.341979105
1764763122.998271,-1.28184,3.75396,1.08346,-0.872007045,0.33984288,-0.341979105
1764763122.998271,-1.28184,3.75396,1.08346,-0.872007045,0.33984288,-0.341979105
1764763122.998271,-1.28184,3.75396,1.08346,-0.872007045,0.33984288,-0.341979105
1764763122.998271,-1.28184,3.75396,1.08346,-0.872007045,0.33984288,-0.341979105
1764763122.998271,-1.28184,3.75396,1.08346,-0.872007045,0.33984288,-0.341979105
1764763123.0414643,-0.1525999999999999,3.69292,0.96138,-0.872251185,0.338561145,-0.34130772
1764763123.0414643,-0.1525999999999999,3.69292,0.96138,-0.872251185,0.338561145,-0.34130772
1764763123.0414643,-0.1525999999999999,3.69292,0.96138,-0.872251185,0.338561145,-0.34130772
1764763123.0414643,-0.1525999999999999,3.69292,0.96138,-0.872251185,0.338561145,-0.34130772
1764763123.0414643,-0.1525999999999999,3.69292,0.96138,-0.872251185,0.338561145,-0.34130772
1764763123.0414643,-0.1525999999999999,3.69292,0.96138,-0.872251185,0.338561145,-0.34130772
1764763123.0414643,-0.1525999999999999,3.69292,0.96138,-0.872251185,0.338561145,-0.34130772
1764763123.0414643,-0.1525999999999999,3.69292,0.96138,-0.872251185,0.338561145,-0.34130772
1764763123.0414643,-0.1525999999999999,3.69292,0.96138,-0.872251185,0.338561145,-0.34130772
1764763123.0414643,-0.1525999999999999,3.69292,0.96138,-0.872251185,0.338561145,-0.34130772
1764763123.0414643,0.3051999999999999,3.41824,1.09872,-0.872129115,0.338561145,-0.34167393
1764763123.0414643,0.3051999999999999,3.41824,1.09872,-0.872129115,0.338561145,-0.34167393
1764763123.0424716,0.3051999999999999,3.41824,1.09872,-0.872129115,0.338561145,-0.34167393
1764763123.0424716,0.3051999999999999,3.41824,1.09872,-0.872129115,0.338561145,-0.34167393
1764763123.0424716,0.3051999999999999,3.41824,1.09872,-0.872129115,0.338561145,-0.34167393
1764763123.0424716,0.3051999999999999,3.41824,1.09872,-0.872129115,0.338561145,-0.34167393
1764763123.0424716,0.3051999999999999,3.41824,1.09872,-0.872129115,0.338561145,-0.34167393
1764763123.0424716,0.3051999999999999,3.41824,1.09872,-0.872129115,0.338561145,-0.34167393
1764763123.0424716,0.3051999999999999,3.41824,1.09872,-0.872129115,0.338561145,-0.34167393
1764763123.0424716,0.3051999999999999,3.41824,1.09872,-0.872129115,0.338561145,-0.34167393
1764763123.0424716,0.94612,3.57084,1.08346,-0.871640835,0.338561145,-0.34142979
1764763123.0424716,0.94612,3.57084,1.08346,-0.871640835,0.338561145,-0.34142979
1764763123.0879593,0.94612,3.57084,1.08346,-0.871640835,0.338561145,-0.34142979
1764763123.0879593,0.94612,3.57084,1.08346,-0.871640835,0.338561145,-0.34142979
1764763123.0879593,0.94612,3.57084,1.08346,-0.871640835,0.338561145,-0.34142979
1764763123.0884683,0.94612,3.57084,1.08346,-0.871640835,0.338561145,-0.34142979
1764763123.0884683,0.94612,3.57084,1.08346,-0.871640835,0.338561145,-0.34142979
1764763123.0884683,0.94612,3.57084,1.08346,-0.871640835,0.338561145,-0.34142979
1764763123.0884683,0.94612,3.57084,1.08346,-0.871640835,0.338561145,-0.34142979
1764763123.0884683,0.94612,3.57084,1.08346,-0.871640835,0.338561145,-0.34142979
1764763123.0884683,0.62566,3.69292,0.6103999999999999,-0.872373255,0.33862218,-0.34228428
1764763123.0884683,0.62566,3.69292,0.6103999999999999,-0.872373255,0.33862218,-0.34228428
1764763123.0884683,0.62566,3.69292,0.6103999999999999,-0.872373255,0.33862218,-0.34228428
1764763123.0884683,0.62566,3.69292,0.6103999999999999,-0.872373255,0.33862218,-0.34228428
1764763123.0884683,0.62566,3.69292,0.6103999999999999,-0.872373255,0.33862218,-0.34228428
1764763123.0884683,0.62566,3.69292,0.6103999999999999,-0.872373255,0.33862218,-0.34228428
1764763123.0884683,0.62566,3.69292,0.6103999999999999,-0.872373255,0.33862218,-0.34228428
1764763123.0884683,0.62566,3.69292,0.6103999999999999,-0.872373255,0.33862218,-0.34228428
1764763123.0884683,0.62566,3.69292,0.6103999999999999,-0.872373255,0.33862218,-0.34228428
1764763123.0884683,0.62566,3.69292,0.6103999999999999,-0.872373255,0.33862218,-0.34228428
1764763123.0884683,0.18312,4.02864,1.09872,-0.872983605,0.339659775,-0.342589455
1764763123.0884683,0.18312,4.02864,1.09872,-0.872983605,0.339659775,-0.342589455
1764763123.0884683,0.18312,4.02864,1.09872,-0.872983605,0.339659775,-0.342589455
1764763123.0884683,0.18312,4.02864,1.09872,-0.872983605,0.339659775,-0.342589455
1764763123.1342232,0.18312,4.02864,1.09872,-0.872983605,0.339659775,-0.342589455
1764763123.1342232,0.18312,4.02864,1.09872,-0.872983605,0.339659775,-0.342589455
1764763123.1342232,0.18312,4.02864,1.09872,-0.872983605,0.339659775,-0.342589455
1764763123.1342232,0.18312,4.02864,1.09872,-0.872983605,0.339659775,-0.342589455
1764763123.1342232,0.18312,4.02864,1.09872,-0.872983605,0.339659775,-0.342589455
1764763123.1342232,0.18312,4.02864,1.09872,-0.872983605,0.339659775,-0.342589455
1764763123.1342232,-0.28994,3.86078,0.50358,-0.87194601,0.339293565,-0.34289463
1764763123.1342232,-0.28994,3.86078,0.50358,-0.87194601,0.339293565,-0.34289463
1764763123.1342232,-0.28994,3.86078,0.50358,-0.87194601,0.339293565,-0.34289463
1764763123.1342232,-0.28994,3.86078,0.50358,-0.87194601,0.339293565,-0.34289463
1764763123.1342232,-0.28994,3.86078,0.50358,-0.87194601,0.339293565,-0.34289463
1764763123.1342232,-0.28994,3.86078,0.50358,-0.87194601,0.339293565,-0.34289463
1764763123.1342232,-0.28994,3.86078,0.50358,-0.87194601,0.339293565,-0.34289463
1764763123.1342232,-0.28994,3.86078,0.50358,-0.87194601,0.339293565,-0.34289463
1764763123.1342232,-0.28994,3.86078,0.50358,-0.87194601,0.339293565,-0.34289463
1764763123.1342232,-0.28994,3.86078,0.50358,-0.87194601,0.339293565,-0.34289463
1764763123.1342232,0.09156,3.78448,0.94612,-0.8715798,0.339415635,-0.34313877
1764763123.1342232,0.09156,3.78448,0.94612,-0.8715798,0.339415635,-0.34313877
1764763123.1342232,0.09156,3.78448,0.94612,-0.8715798,0.339415635,-0.34313877
1764763123.1352873,0.09156,3.78448,0.94612,-0.8715798,0.339415635,-0.34313877
1764763123.1352873,0.09156,3.78448,0.94612,-0.8715798,0.339415635,-0.34313877
1764763123.1352873,0.09156,3.78448,0.94612,-0.8715798,0.339415635,-0.34313877
1764763123.1352873,0.09156,3.78448,0.94612,-0.8715798,0.339415635,-0.34313877
1764763123.1352873,0.09156,3.78448,0.94612,-0.8715798,0.339415635,-0.34313877
1764763123.1817436,0.09156,3.78448,0.94612,-0.8715798,0.339415635,-0.34313877
1764763123.1817436,0.09156,3.78448,0.94612,-0.8715798,0.339415635,-0.34313877
1764763123.1817436,-0.6867,3.60136,0.88508,-0.872495325,0.33984288,-0.34362705
1764763123.1817436,-0.6867,3.60136,0.88508,-0.872495325,0.33984288,-0.34362705
1764763123.1817436,-0.6867,3.60136,0.88508,-0.872495325,0.33984288,-0.34362705
1764763123.1817436,-0.6867,3.60136,0.88508,-0.872495325,0.33984288,-0.34362705
1764763123.1817436,-0.6867,3.60136,0.88508,-0.872495325,0.33984288,-0.34362705
1764763123.1817436,-0.6867,3.60136,0.88508,-0.872495325,0.33984288,-0.34362705
1764763123.1817436,-0.6867,3.60136,0.88508,-0.872495325,0.33984288,-0.34362705
1764763123.1817436,-0.6867,3.60136,0.88508,-0.872495325,0.33984288,-0.34362705
1764763123.1817436,-0.6867,3.60136,0.88508,-0.872495325,0.33984288,-0.34362705
1764763123.1817436,-0.6867,3.60136,0.88508,-0.872495325,0.33984288,-0.34362705
1764763123.1817436,-0.6867,3.78448,0.50358,-0.87267843,0.33923253,-0.34350498
1764763123.1817436,-0.6867,3.78448,0.50358,-0.87267843,0.33923253,-0.34350498
1764763123.1817436,-0.6867,3.78448,0.50358,-0.87267843,0.33923253,-0.34350498
1764763123.1817436,-0.6867,3.78448,0.50358,-0.87267843,0.33923253,-0.34350498
1764763123.1817436,-0.6867,3.78448,0.50358,-0.87267843,0.33923253,-0.34350498
1764763123.1817436,-0.6867,3.78448,0.50358,-0.87267843,0.33923253,-0.34350498
1764763123.1817436,-0.6867,3.78448,0.50358,-0.87267843,0.33923253,-0.34350498
1764763123.1817436,-0.6867,3.78448,0.50358,-0.87267843,0.33923253,-0.34350498
1764763123.1817436,-0.6867,3.78448,0.50358,-0.87267843,0.33923253,-0.34350498
1764763123.1817436,-0.6867,3.78448,0.50358,-0.87267843,0.33923253,-0.34350498
1764763123.1817436,-0.9156,3.815,0.6409199999999999,-0.87231222,0.33898839,-0.34313877
1764763123.1817436,-0.9156,3.815,0.6409199999999999,-0.87231222,0.33898839,-0.34313877
1764763123.2292037,-0.9156,3.815,0.6409199999999999,-0.87231222,0.33898839,-0.34313877
1764763123.2292037,-0.9156,3.815,0.6409199999999999,-0.87231222,0.33898839,-0.34313877
1764763123.2292037,-0.9156,3.815,0.6409199999999999,-0.87231222,0.33898839,-0.34313877
1764763123.2292037,-0.9156,3.815,0.6409199999999999,-0.87231222,0.33898839,-0.34313877
1764763123.2292037,-0.9156,3.815,0.6409199999999999,-0.87231222,0.33898839,-0.34313877
1764763123.2292037,-0.9156,3.815,0.6409199999999999,-0.87231222,0.33898839,-0.34313877
1764763123.2292037,-0.9156,3.815,0.6409199999999999,-0.87231222,0.33898839,-0.34313877
1764763123.2292037,-0.9156,3.815,0.6409199999999999,-0.87231222,0.33898839,-0.34313877
1764763123.2292037,-0.44254,3.60136,0.18312,-0.8715798,0.33886632,-0.34216221
1764763123.2292037,-0.44254,3.60136,0.18312,-0.8715798,0.33886632,-0.34216221
1764763123.2292037,-0.44254,3.60136,0.18312,-0.8715798,0.33886632,-0.34216221
1764763123.2292037,-0.44254,3.60136,0.18312,-0.8715798,0.33886632,-0.34216221
1764763123.2292037,-0.44254,3.60136,0.18312,-0.8715798,0.33886632,-0.34216221
1764763123.2292037,-0.44254,3.60136,0.18312,-0.8715798,0.33886632,-0.34216221
1764763123.2292037,-0.44254,3.60136,0.18312,-0.8715798,0.33886632,-0.34216221
1764763123.2292037,-0.44254,3.60136,0.18312,-0.8715798,0.33886632,-0.34216221
1764763123.2292037,-0.44254,3.60136,0.18312,-0.8715798,0.33886632,-0.34216221
1764763123.2292037,-0.44254,3.60136,0.18312,-0.8715798,0.33886632,-0.34216221
1764763123.229947,-0.3204599999999999,3.95234,0.3357199999999999,-0.872129115,0.33874425,-0.342101175
1764763123.229947,-0.3204599999999999,3.95234,0.3357199999999999,-0.872129115,0.33874425,-0.342101175
1764763123.229947,-0.3204599999999999,3.95234,0.3357199999999999,-0.872129115,0.33874425,-0.342101175
1764763123.229947,-0.3204599999999999,3.95234,0.3357199999999999,-0.872129115,0.33874425,-0.342101175
1764763123.229947,-0.3204599999999999,3.95234,0.3357199999999999,-0.872129115,0.33874425,-0.342101175
1764763123.229947,-0.3204599999999999,3.95234,0.3357199999999999,-0.872129115,0.33874425,-0.342101175
1764763123.2757769,-0.3204599999999999,3.95234,0.3357199999999999,-0.872129115,0.33874425,-0.342101175
1764763123.2757769,-0.3204599999999999,3.95234,0.3357199999999999,-0.872129115,0.33874425,-0.342101175
1764763123.2757769,-0.3204599999999999,3.95234,0.3357199999999999,-0.872129115,0.33874425,-0.342101175
1764763123.2757769,-0.3204599999999999,3.95234,0.3357199999999999,-0.872129115,0.33874425,-0.342101175
1764763123.2757769,-0.6103999999999999,4.1202,1.09872,-0.872739465,0.33959874,-0.34228428
1764763123.2762954,-0.6103999999999999,4.1202,1.09872,-0.872739465,0.33959874,-0.34228428
1764763123.2762954,-0.6103999999999999,4.1202,1.09872,-0.872739465,0.33959874,-0.34228428
1764763123.2762954,-0.6103999999999999,4.1202,1.09872,-0.872739465,0.33959874,-0.34228428
1764763123.2762954,-0.6103999999999999,4.1202,1.09872,-0.872739465,0.33959874,-0.34228428
1764763123.2762954,-0.6103999999999999,4.1202,1.09872,-0.872739465,0.33959874,-0.34228428
1764763123.2762954,-0.6103999999999999,4.1202,1.09872,-0.872739465,0.33959874,-0.34228428
1764763123.2762954,-0.6103999999999999,4.1202,1.09872,-0.872739465,0.33959874,-0.34228428
1764763123.2762954,-0.6103999999999999,4.1202,1.09872,-0.872739465,0.33959874,-0.34228428
1764763123.2762954,-0.6103999999999999,4.1202,1.09872,-0.872739465,0.33959874,-0.34228428
1764763123.2762954,-0.54936,3.8913,0.82404,-0.8715798,0.340025985,-0.3430167
1764763123.2762954,-0.54936,3.8913,0.82404,-0.8715798,0.340025985,-0.3430167
1764763123.2762954,-0.54936,3.8913,0.82404,-0.8715798,0.340025985,-0.3430167
1764763123.2762954,-0.54936,3.8913,0.82404,-0.8715798,0.340025985,-0.3430167
1764763123.2762954,-0.54936,3.8913,0.82404,-0.8715798,0.340025985,-0.3430167
1764763123.2762954,-0.54936,3.8913,0.82404,-0.8715798,0.340025985,-0.3430167
1764763123.277306,-0.54936,3.8913,0.82404,-0.8715798,0.340025985,-0.3430167
1764763123.277306,-0.54936,3.8913,0.82404,-0.8715798,0.340025985,-0.3430167
1764763123.323333,-0.54936,3.8913,0.82404,-0.8715798,0.340025985,-0.3430167
1764763123.323333,-0.54936,3.8913,0.82404,-0.8715798,0.340025985,-0.3430167
1764763123.323333,0.03052,3.2046,0.27468,-0.870786345,0.33788976,-0.34277256
1764763123.323333,0.03052,3.2046,0.27468,-0.870786345,0.33788976,-0.34277256
1764763123.323333,0.03052,3.2046,0.27468,-0.870786345,0.33788976,-0.34277256
1764763123.323333,0.03052,3.2046,0.27468,-0.870786345,0.33788976,-0.34277256
1764763123.323333,0.03052,3.2046,0.27468,-0.870786345,0.33788976,-0.34277256
1764763123.323333,0.03052,3.2046,0.27468,-0.870786345,0.33788976,-0.34277256
1764763123.323333,0.03052,3.2046,0.27468,-0.870786345,0.33788976,-0.34277256
1764763123.323333,0.03052,3.2046,0.27468,-0.870786345,0.33788976,-0.34277256
1764763123.323333,0.03052,3.2046,0.27468,-0.870786345,0.33788976,-0.34277256
1764763123.323333,0.03052,3.2046,0.27468,-0.870786345,0.33788976,-0.34277256
1764763123.323333,0.57988,3.72344,1.48022,-0.872617395,0.33801183,-0.34289463
1764763123.323333,0.57988,3.72344,1.48022,-0.872617395,0.33801183,-0.34289463
1764763123.323333,0.57988,3.72344,1.48022,-0.872617395,0.33801183,-0.34289463
1764763123.323333,0.57988,3.72344,1.48022,-0.872617395,0.33801183,-0.34289463
1764763123.323333,0.57988,3.72344,1.48022,-0.872617395,0.33801183,-0.34289463
1764763123.323333,0.57988,3.72344,1.48022,-0.872617395,0.33801183,-0.34289463
1764763123.323333,0.57988,3.72344,1.48022,-0.872617395,0.33801183,-0.34289463
1764763123.323333,0.57988,3.72344,1.48022,-0.872617395,0.33801183,-0.34289463
1764763123.323333,0.57988,3.72344,1.48022,-0.872617395,0.33801183,-0.34289463
1764763123.323333,0.57988,3.72344,1.48022,-0.872617395,0.33801183,-0.34289463
1764763123.323333,0.93086,4.2728,1.54126,-0.87365499,0.338927355,-0.343321875
1764763123.323333,0.93086,4.2728,1.54126,-0.87365499,0.338927355,-0.343321875
1764763123.371771,0.93086,4.2728,1.54126,-0.87365499,0.338927355,-0.343321875
1764763123.371771,0.93086,4.2728,1.54126,-0.87365499,0.338927355,-0.343321875
1764763123.371771,0.93086,4.2728,1.54126,-0.87365499,0.338927355,-0.343321875
1764763123.371771,0.93086,4.2728,1.54126,-0.87365499,0.338927355,-0.343321875
1764763123.371771,0.93086,4.2728,1.54126,-0.87365499,0.338927355,-0.343321875
1764763123.371771,0.93086,4.2728,1.54126,-0.87365499,0.338927355,-0.343321875
1764763123.371771,0.93086,4.2728,1.54126,-0.87365499,0.338927355,-0.343321875
1764763123.371771,0.93086,4.2728,1.54126,-0.87365499,0.338927355,-0.343321875
1764763123.371771,0.50358,4.059159999999999,1.4497,-0.872617395,0.33947667,-0.3430167
1764763123.371771,0.50358,4.059159999999999,1.4497,-0.872617395,0.33947667,-0.3430167
1764763123.371771,0.50358,4.059159999999999,1.4497,-0.872617395,0.33947667,-0.3430167
1764763123.371771,0.50358,4.059159999999999,1.4497,-0.872617395,0.33947667,-0.3430167
1764763123.371771,0.50358,4.059159999999999,1.4497,-0.872617395,0.33947667,-0.3430167
1764763123.371771,0.50358,4.059159999999999,1.4497,-0.872617395,0.33947667,-0.3430167
1764763123.371771,0.50358,4.059159999999999,1.4497,-0.872617395,0.33947667,-0.3430167
1764763123.371771,0.50358,4.059159999999999,1.4497,-0.872617395,0.33947667,-0.3430167
1764763123.371771,0.50358,4.059159999999999,1.4497,-0.872617395,0.33947667,-0.3430167
1764763123.371771,0.50358,4.059159999999999,1.4497,-0.872617395,0.33947667,-0.3430167
1764763123.371771,0.5341,3.61662,0.74774,-0.871396695,0.340148055,-0.343199805
1764763123.371771,0.5341,3.61662,0.74774,-0.871396695,0.340148055,-0.343199805
1764763123.371771,0.5341,3.61662,0.74774,-0.871396695,0.340148055,-0.343199805
1764763123.371771,0.5341,3.61662,0.74774,-0.871396695,0.340148055,-0.343199805
1764763123.414251,0.5341,3.61662,0.74774,-0.871396695,0.340148055,-0.343199805
1764763123.414759,0.5341,3.61662,0.74774,-0.871396695,0.340148055,-0.343199805
1764763123.414759,0.5341,3.61662,0.74774,-0.871396695,0.340148055,-0.343199805
1764763123.414759,0.5341,3.61662,0.74774,-0.871396695,0.340148055,-0.343199805
1764763123.414759,0.5341,3.61662,0.74774,-0.871396695,0.340148055,-0.343199805
1764763123.414759,0.5341,3.61662,0.74774,-0.871396695,0.340148055,-0.343199805
1764763123.414759,0.19838,3.69292,0.59514,-0.87060324,0.339293565,-0.34387119
1764763123.414759,0.19838,3.69292,0.59514,-0.87060324,0.339293565,-0.34387119
1764763123.414759,0.19838,3.69292,0.59514,-0.87060324,0.339293565,-0.34387119
1764763123.414759,0.19838,3.69292,0.59514,-0.87060324,0.339293565,-0.34387119
1764763123.414759,0.19838,3.69292,0.59514,-0.87060324,0.339293565,-0.34387119
1764763123.414759,0.19838,3.69292,0.59514,-0.87060324,0.339293565,-0.34387119
1764763123.414759,0.19838,3.69292,0.59514,-0.87060324,0.339293565,-0.34387119
1764763123.414759,0.19838,3.69292,0.59514,-0.87060324,0.339293565,-0.34387119
1764763123.414759,0.19838,3.69292,0.59514,-0.87060324,0.339293565,-0.34387119
1764763123.414759,0.19838,3.69292,0.59514,-0.87060324,0.339293565,-0.34387119
1764763123.414759,-1.23606,3.52506,0.79352,-0.871518765,0.340758405,-0.343321875
1764763123.414759,-1.23606,3.52506,0.79352,-0.871518765,0.340758405,-0.343321875
1764763123.414759,-1.23606,3.52506,0.79352,-0.871518765,0.340758405,-0.343321875
1764763123.414759,-1.23606,3.52506,0.79352,-0.871518765,0.340758405,-0.343321875
1764763123.414759,-1.23606,3.52506,0.79352,-0.871518765,0.340758405,-0.343321875
1764763123.414759,-1.23606,3.52506,0.79352,-0.871518765,0.340758405,-0.343321875
1764763123.4607778,-1.23606,3.52506,0.79352,-0.871518765,0.340758405,-0.343321875
1764763123.4607778,-1.23606,3.52506,0.79352,-0.871518765,0.340758405,-0.343321875
1764763123.4607778,-1.23606,3.52506,0.79352,-0.871518765,0.340758405,-0.343321875
1764763123.461294,-1.23606,3.52506,0.79352,-0.871518765,0.340758405,-0.343321875
1764763123.461294,-0.7019599999999999,3.57084,0.41202,-0.87170187,0.33996495,-0.343199805
1764763123.461294,-0.7019599999999999,3.57084,0.41202,-0.87170187,0.33996495,-0.343199805
1764763123.461294,-0.7019599999999999,3.57084,0.41202,-0.87170187,0.33996495,-0.343199805
1764763123.461294,-0.7019599999999999,3.57084,0.41202,-0.87170187,0.33996495,-0.343199805
1764763123.461294,-0.7019599999999999,3.57084,0.41202,-0.87170187,0.33996495,-0.343199805
1764763123.461294,-0.7019599999999999,3.57084,0.41202,-0.87170187,0.33996495,-0.343199805
1764763123.461294,-0.7019599999999999,3.57084,0.41202,-0.87170187,0.33996495,-0.343199805
1764763123.461294,-0.7019599999999999,3.57084,0.41202,-0.87170187,0.33996495,-0.343199805
1764763123.461294,-0.7019599999999999,3.57084,0.41202,-0.87170187,0.33996495,-0.343199805
1764763123.461294,-0.7019599999999999,3.57084,0.41202,-0.87170187,0.33996495,-0.343199805
1764763123.461294,0.51884,3.70818,0.6714399999999999,-0.8724342900000001,0.33923253,-0.343321875
1764763123.461294,0.51884,3.70818,0.6714399999999999,-0.8724342900000001,0.33923253,-0.343321875
1764763123.461294,0.51884,3.70818,0.6714399999999999,-0.8724342900000001,0.33923253,-0.343321875
1764763123.461294,0.51884,3.70818,0.6714399999999999,-0.8724342900000001,0.33923253,-0.343321875
1764763123.461294,0.51884,3.70818,0.6714399999999999,-0.8724342900000001,0.33923253,-0.343321875
1764763123.461294,0.51884,3.70818,0.6714399999999999,-0.8724342900000001,0.33923253,-0.343321875
1764763123.461294,0.51884,3.70818,0.6714399999999999,-0.8724342900000001,0.33923253,-0.343321875
1764763123.461294,0.51884,3.70818,0.6714399999999999,-0.8724342900000001,0.33923253,-0.343321875
1764763123.461294,0.51884,3.70818,0.6714399999999999,-0.8724342900000001,0.33923253,-0.343321875
1764763123.461294,0.51884,3.70818,0.6714399999999999,-0.8724342900000001,0.33923253,-0.343321875
1764763123.461294,0.41202,3.87604,1.34288,-0.87316671,0.339903915,-0.345030855
1764763123.461294,0.41202,3.87604,1.34288,-0.87316671,0.339903915,-0.345030855
1764763123.5070746,0.41202,3.87604,1.34288,-0.87316671,0.339903915,-0.345030855
1764763123.5070746,0.41202,3.87604,1.34288,-0.87316671,0.339903915,-0.345030855
1764763123.5080924,0.41202,3.87604,1.34288,-0.87316671,0.339903915,-0.345030855
1764763123.5080924,0.41202,3.87604,1.34288,-0.87316671,0.339903915,-0.345030855
1764763123.5080924,0.41202,3.87604,1.34288,-0.87316671,0.339903915,-0.345030855
1764763123.5080924,0.41202,3.87604,1.34288,-0.87316671,0.339903915,-0.345030855
1764763123.5080924,0.41202,3.87604,1.34288,-0.87316671,0.339903915,-0.345030855
1764763123.5080924,0.41202,3.87604,1.34288,-0.87316671,0.339903915,-0.345030855
1764763123.5080924,-0.74774,3.41824,1.84646,-0.873716025,0.34265049,-0.34594638
1764763123.5080924,-0.74774,3.41824,1.84646,-0.873716025,0.34265049,-0.34594638
1764763123.5094292,-0.74774,3.41824,1.84646,-0.873716025,0.34265049,-0.34594638
1764763123.5094292,-0.74774,3.41824,1.84646,-0.873716025,0.34265049,-0.34594638
1764763123.5094292,-0.74774,3.41824,1.84646,-0.873716025,0.34265049,-0.34594638
1764763123.5094292,-0.74774,3.41824,1.84646,-0.873716025,0.34265049,-0.34594638
1764763123.5094292,-0.74774,3.41824,1.84646,-0.873716025,0.34265049,-0.34594638
1764763123.5094292,-0.74774,3.41824,1.84646,-0.873716025,0.34265049,-0.34594638
1764763123.5094292,-0.74774,3.41824,1.84646,-0.873716025,0.34265049,-0.34594638
1764763123.5094292,-0.74774,3.41824,1.84646,-0.873716025,0.34265049,-0.34594638
1764763123.5094292,-2.09062,2.45686,1.26658,-0.873593955,0.342711525,-0.34631259
1764763123.5094292,-2.09062,2.45686,1.26658,-0.873593955,0.342711525,-0.34631259
1764763123.5094292,-2.09062,2.45686,1.26658,-0.873593955,0.342711525,-0.34631259
1764763123.5094292,-2.09062,2.45686,1.26658,-0.873593955,0.342711525,-0.34631259
1764763123.5565076,-2.09062,2.45686,1.26658,-0.873593955,0.342711525,-0.34631259
1764763123.5565076,-2.09062,2.45686,1.26658,-0.873593955,0.342711525,-0.34631259
1764763123.5565076,-2.09062,2.45686,1.26658,-0.873593955,0.342711525,-0.34631259
1764763123.5565076,-2.09062,2.45686,1.26658,-0.873593955,0.342711525,-0.34631259
1764763123.5565076,-2.09062,2.45686,1.26658,-0.873593955,0.342711525,-0.34631259
1764763123.5565076,-2.09062,2.45686,1.26658,-0.873593955,0.342711525,-0.34631259
1764763123.5565076,-1.78542,3.03674,1.00716,-0.87206808,0.340758405,-0.3454581
1764763123.5565076,-1.78542,3.03674,1.00716,-0.87206808,0.340758405,-0.3454581
1764763123.5565076,-1.78542,3.03674,1.00716,-0.87206808,0.340758405,-0.3454581
1764763123.5565076,-1.78542,3.03674,1.00716,-0.87206808,0.340758405,-0.3454581
1764763123.5565076,-1.78542,3.03674,1.00716,-0.87206808,0.340758405,-0.3454581
1764763123.5565076,-1.78542,3.03674,1.00716,-0.87206808,0.340758405,-0.3454581
1764763123.5565076,-1.78542,3.03674,1.00716,-0.87206808,0.340758405,-0.3454581
1764763123.5565076,-1.78542,3.03674,1.00716,-0.87206808,0.340758405,-0.3454581
1764763123.5565076,-1.78542,3.03674,1.00716,-0.87206808,0.340758405,-0.3454581
1764763123.5565076,-1.78542,3.03674,1.00716,-0.87206808,0.340758405,-0.3454581
1764763123.5565076,-2.22796,3.37246,0.85456,-0.8718849750000001,0.338683215,-0.344542575
1764763123.5565076,-2.22796,3.37246,0.85456,-0.8718849750000001,0.338683215,-0.344542575
1764763123.5565076,-2.22796,3.37246,0.85456,-0.8718849750000001,0.338683215,-0.344542575
1764763123.5565076,-2.22796,3.37246,0.85456,-0.8718849750000001,0.338683215,-0.344542575
1764763123.5565076,-2.22796,3.37246,0.85456,-0.8718849750000001,0.338683215,-0.344542575
1764763123.5565076,-2.22796,3.37246,0.85456,-0.8718849750000001,0.338683215,-0.344542575
1764763123.5985622,-2.22796,3.37246,0.85456,-0.8718849750000001,0.338683215,-0.344542575
1764763123.5985622,-2.22796,3.37246,0.85456,-0.8718849750000001,0.338683215,-0.344542575
1764763123.5985622,-2.22796,3.37246,0.85456,-0.8718849750000001,0.338683215,-0.344542575
1764763123.5985622,-2.22796,3.37246,0.85456,-0.8718849750000001,0.338683215,-0.344542575
1764763123.599208,-1.86172,3.41824,0.77826,-0.871030485,0.338805285,-0.343932225
1764763123.599208,-1.86172,3.41824,0.77826,-0.871030485,0.338805285,-0.343932225
1764763123.599208,-1.86172,3.41824,0.77826,-0.871030485,0.338805285,-0.343932225
1764763123.599208,-1.86172,3.41824,0.77826,-0.871030485,0.338805285,-0.343932225
1764763123.599208,-1.86172,3.41824,0.77826,-0.871030485,0.338805285,-0.343932225
1764763123.599208,-1.86172,3.41824,0.77826,-0.871030485,0.338805285,-0.343932225
1764763123.599208,-1.86172,3.41824,0.77826,-0.871030485,0.338805285,-0.343932225
1764763123.599208,-1.86172,3.41824,0.77826,-0.871030485,0.338805285,-0.343932225
1764763123.599208,-1.86172,3.41824,0.77826,-0.871030485,0.338805285,-0.343932225
1764763123.599208,-1.86172,3.41824,0.77826,-0.871030485,0.338805285,-0.343932225
1764763123.599208,-1.32762,3.64714,0.27468,-0.870542205,0.337950795,-0.343443945
1764763123.599208,-1.32762,3.64714,0.27468,-0.870542205,0.337950795,-0.343443945
1764763123.599208,-1.32762,3.64714,0.27468,-0.870542205,0.337950795,-0.343443945
1764763123.599208,-1.32762,3.64714,0.27468,-0.870542205,0.337950795,-0.343443945
1764763123.599208,-1.32762,3.64714,0.27468,-0.870542205,0.337950795,-0.343443945
1764763123.599208,-1.32762,3.64714,0.27468,-0.870542205,0.337950795,-0.343443945
1764763123.599208,-1.32762,3.64714,0.27468,-0.870542205,0.337950795,-0.343443945
1764763123.599208,-1.32762,3.64714,0.27468,-0.870542205,0.337950795,-0.343443945
1764763123.599208,-1.32762,3.64714,0.27468,-0.870542205,0.337950795,-0.343443945
1764763123.599208,-1.32762,3.64714,0.27468,-0.870542205,0.337950795,-0.343443945
1764763123.6463623,-1.81594,3.2809,0.0762999999999999,-0.871030485,0.339171495,-0.343688085
1764763123.6463623,-1.81594,3.2809,0.0762999999999999,-0.871030485,0.339171495,-0.343688085
1764763123.6463623,-1.81594,3.2809,0.0762999999999999,-0.871030485,0.339171495,-0.343688085
1764763123.6463623,-1.81594,3.2809,0.0762999999999999,-0.871030485,0.339171495,-0.343688085
1764763123.6463623,-1.81594,3.2809,0.0762999999999999,-0.871030485,0.339171495,-0.343688085
1764763123.6463623,-1.81594,3.2809,0.0762999999999999,-0.871030485,0.339171495,-0.343688085
1764763123.6479423,-1.81594,3.2809,0.0762999999999999,-0.871030485,0.339171495,-0.343688085
1764763123.6479423,-1.81594,3.2809,0.0762999999999999,-0.871030485,0.339171495,-0.343688085
1764763123.6479423,-1.81594,3.2809,0.0762999999999999,-0.871030485,0.339171495,-0.343688085
1764763123.6479423,-1.81594,3.2809,0.0762999999999999,-0.871030485,0.339171495,-0.343688085
1764763123.6479423,-2.73154,4.1202,0.6867,-0.87145773,0.340392195,-0.343810155
1764763123.6479423,-2.73154,4.1202,0.6867,-0.87145773,0.340392195,-0.343810155
1764763123.6479423,-2.73154,4.1202,0.6867,-0.87145773,0.340392195,-0.343810155
1764763123.6479423,-2.73154,4.1202,0.6867,-0.87145773,0.340392195,-0.343810155
1764763123.6489496,-2.73154,4.1202,0.6867,-0.87145773,0.340392195,-0.343810155
1764763123.6489496,-2.73154,4.1202,0.6867,-0.87145773,0.340392195,-0.343810155
1764763123.6489496,-2.73154,4.1202,0.6867,-0.87145773,0.340392195,-0.343810155
1764763123.649287,-2.73154,4.1202,0.6867,-0.87145773,0.340392195,-0.343810155
1764763123.649287,-2.73154,4.1202,0.6867,-0.87145773,0.340392195,-0.343810155
1764763123.649287,-2.73154,4.1202,0.6867,-0.87145773,0.340392195,-0.343810155
1764763123.649287,-3.67766,4.0439,1.73964,-0.872983605,0.34240635,-0.34411533
1764763123.649287,-3.67766,4.0439,1.73964,-0.872983605,0.34240635,-0.34411533
1764763123.649287,-3.67766,4.0439,1.73964,-0.872983605,0.34240635,-0.34411533
1764763123.649287,-3.67766,4.0439,1.73964,-0.872983605,0.34240635,-0.34411533
1764763123.6920078,-3.67766,4.0439,1.73964,-0.872983605,0.34240635,-0.34411533
1764763123.6920078,-3.67766,4.0439,1.73964,-0.872983605,0.34240635,-0.34411533
1764763123.6920078,-3.67766,4.0439,1.73964,-0.872983605,0.34240635,-0.34411533
1764763123.6920078,-3.67766,4.0439,1.73964,-0.872983605,0.34240635,-0.34411533
1764763123.6920078,-3.67766,4.0439,1.73964,-0.872983605,0.34240635,-0.34411533
1764763123.6920078,-3.67766,4.0439,1.73964,-0.872983605,0.34240635,-0.34411533
1764763123.6920078,-4.22702,4.60852,1.78542,-0.87365499,0.343321875,-0.34387119
1764763123.6920078,-4.22702,4.60852,1.78542,-0.87365499,0.343321875,-0.34387119
1764763123.6920078,-4.22702,4.60852,1.78542,-0.87365499,0.343321875,-0.34387119
1764763123.6920078,-4.22702,4.60852,1.78542,-0.87365499,0.343321875,-0.34387119
1764763123.6920078,-4.22702,4.60852,1.78542,-0.87365499,0.343321875,-0.34387119
1764763123.6920078,-4.22702,4.60852,1.78542,-0.87365499,0.343321875,-0.34387119
1764763123.6920078,-4.22702,4.60852,1.78542,-0.87365499,0.343321875,-0.34387119
1764763123.6920078,-4.22702,4.60852,1.78542,-0.87365499,0.343321875,-0.34387119
1764763123.6920078,-4.22702,4.60852,1.78542,-0.87365499,0.343321875,-0.34387119
1764763123.6920078,-4.22702,4.60852,1.78542,-0.87365499,0.343321875,-0.34387119
1764763123.6920078,-5.17314,4.56274,1.3734,-0.87182394,0.34399326,-0.343932225
1764763123.6933744,-5.17314,4.56274,1.3734,-0.87182394,0.34399326,-0.343932225
1764763123.6933744,-5.17314,4.56274,1.3734,-0.87182394,0.34399326,-0.343932225
1764763123.6933744,-5.17314,4.56274,1.3734,-0.87182394,0.34399326,-0.343932225
1764763123.6933744,-5.17314,4.56274,1.3734,-0.87182394,0.34399326,-0.343932225
1764763123.6933744,-5.17314,4.56274,1.3734,-0.87182394,0.34399326,-0.343932225
1764763123.743491,-5.17314,4.56274,1.3734,-0.87182394,0.34399326,-0.343932225
1764763123.743491,-5.17314,4.56274,1.3734,-0.87182394,0.34399326,-0.343932225
1764763123.743491,-5.17314,4.56274,1.3734,-0.87182394,0.34399326,-0.343932225
1764763123.743491,-5.17314,4.56274,1.3734,-0.87182394,0.34399326,-0.343932225
1764763123.743491,-5.646199999999999,4.08968,0.7019599999999999,-0.8702980650000001,0.344664645,-0.342955665
1764763123.743491,-5.646199999999999,4.08968,0.7019599999999999,-0.8702980650000001,0.344664645,-0.342955665
1764763123.743491,-5.646199999999999,4.08968,0.7019599999999999,-0.8702980650000001,0.344664645,-0.342955665
1764763123.743491,-5.646199999999999,4.08968,0.7019599999999999,-0.8702980650000001,0.344664645,-0.342955665
1764763123.743491,-5.646199999999999,4.08968,0.7019599999999999,-0.8702980650000001,0.344664645,-0.342955665
1764763123.743491,-5.646199999999999,4.08968,0.7019599999999999,-0.8702980650000001,0.344664645,-0.342955665
1764763123.743491,-5.646199999999999,4.08968,0.7019599999999999,-0.8702980650000001,0.344664645,-0.342955665
1764763123.743491,-5.646199999999999,4.08968,0.7019599999999999,-0.8702980650000001,0.344664645,-0.342955665
1764763123.743491,-5.646199999999999,4.08968,0.7019599999999999,-0.8702980650000001,0.344664645,-0.342955665
1764763123.743491,-5.646199999999999,4.08968,0.7019599999999999,-0.8702980650000001,0.344664645,-0.342955665
1764763123.743491,-6.05822,3.75396,0.42728,-0.869565645,0.34265049,-0.341979105
1764763123.743491,-6.05822,3.75396,0.42728,-0.869565645,0.34265049,-0.341979105
1764763123.743491,-6.05822,3.75396,0.42728,-0.869565645,0.34265049,-0.341979105
1764763123.743491,-6.05822,3.75396,0.42728,-0.869565645,0.34265049,-0.341979105
1764763123.743491,-6.05822,3.75396,0.42728,-0.869565645,0.34265049,-0.341979105
1764763123.743491,-6.05822,3.75396,0.42728,-0.869565645,0.34265049,-0.341979105
1764763123.743491,-6.05822,3.75396,0.42728,-0.869565645,0.34265049,-0.341979105
1764763123.743491,-6.05822,3.75396,0.42728,-0.869565645,0.34265049,-0.341979105
1764763123.743491,-6.05822,3.75396,0.42728,-0.869565645,0.34265049,-0.341979105
1764763123.743491,-6.05822,3.75396,0.42728,-0.869565645,0.34265049,-0.341979105
1764763123.743491,-5.1121,3.55558,0.3204599999999999,-0.8702980650000001,0.34081944,-0.34289463
1764763123.743491,-5.1121,3.55558,0.3204599999999999,-0.8702980650000001,0.34081944,-0.34289463
1764763123.7881677,-5.1121,3.55558,0.3204599999999999,-0.8702980650000001,0.34081944,-0.34289463
1764763123.7881677,-5.1121,3.55558,0.3204599999999999,-0.8702980650000001,0.34081944,-0.34289463
1764763123.7881677,-5.1121,3.55558,0.3204599999999999,-0.8702980650000001,0.34081944,-0.34289463
1764763123.7881677,-5.1121,3.55558,0.3204599999999999,-0.8702980650000001,0.34081944,-0.34289463
1764763123.7881677,-5.1121,3.55558,0.3204599999999999,-0.8702980650000001,0.34081944,-0.34289463
1764763123.7881677,-5.1121,3.55558,0.3204599999999999,-0.8702980650000001,0.34081944,-0.34289463
1764763123.7881677,-5.1121,3.55558,0.3204599999999999,-0.8702980650000001,0.34081944,-0.34289463
1764763123.7881677,-5.1121,3.55558,0.3204599999999999,-0.8702980650000001,0.34081944,-0.34289463
1764763123.7881677,-4.76112,3.55558,0.79352,-0.871518765,0.34094151,-0.341857035
1764763123.7881677,-4.76112,3.55558,0.79352,-0.871518765,0.34094151,-0.341857035
1764763123.7881677,-4.76112,3.55558,0.79352,-0.871518765,0.34094151,-0.341857035
1764763123.7881677,-4.76112,3.55558,0.79352,-0.871518765,0.34094151,-0.341857035
1764763123.7881677,-4.76112,3.55558,0.79352,-0.871518765,0.34094151,-0.341857035
1764763123.7881677,-4.76112,3.55558,0.79352,-0.871518765,0.34094151,-0.341857035
1764763123.7881677,-4.76112,3.55558,0.79352,-0.871518765,0.34094151,-0.341857035
1764763123.7881677,-4.76112,3.55558,0.79352,-0.871518765,0.34094151,-0.341857035
1764763123.7881677,-4.76112,3.55558,0.79352,-0.871518765,0.34094151,-0.341857035
1764763123.7881677,-4.76112,3.55558,0.79352,-0.871518765,0.34094151,-0.341857035
1764763123.7881677,-2.76206,3.63188,0.44254,-0.870786345,0.340270125,-0.340880475
1764763123.7881677,-2.76206,3.63188,0.44254,-0.870786345,0.340270125,-0.340880475
1764763123.7881677,-2.76206,3.63188,0.44254,-0.870786345,0.340270125,-0.340880475
1764763123.7881677,-2.76206,3.63188,0.44254,-0.870786345,0.340270125,-0.340880475
1764763123.8351088,-2.76206,3.63188,0.44254,-0.870786345,0.340270125,-0.340880475
1764763123.8351088,-2.76206,3.63188,0.44254,-0.870786345,0.340270125,-0.340880475
1764763123.8351088,-2.76206,3.63188,0.44254,-0.870786345,0.340270125,-0.340880475
1764763123.8351088,-2.76206,3.63188,0.44254,-0.870786345,0.340270125,-0.340880475
1764763123.8351088,-2.76206,3.63188,0.44254,-0.870786345,0.340270125,-0.340880475
1764763123.8351088,-2.76206,3.63188,0.44254,-0.870786345,0.340270125,-0.340880475
1764763123.8351088,-1.7549,3.815,0.94612,-0.870542205,0.34106358,-0.339659775
1764763123.8351088,-1.7549,3.815,0.94612,-0.870542205,0.34106358,-0.339659775
1764763123.8351088,-1.7549,3.815,0.94612,-0.870542205,0.34106358,-0.339659775
1764763123.8351088,-1.7549,3.815,0.94612,-0.870542205,0.34106358,-0.339659775
1764763123.8351088,-1.7549,3.815,0.94612,-0.870542205,0.34106358,-0.339659775
1764763123.8351088,-1.7549,3.815,0.94612,-0.870542205,0.34106358,-0.339659775
1764763123.8351088,-1.7549,3.815,0.94612,-0.870542205,0.34106358,-0.339659775
1764763123.8351088,-1.7549,3.815,0.94612,-0.870542205,0.34106358,-0.339659775
1764763123.836113,-1.7549,3.815,0.94612,-0.870542205,0.34106358,-0.339659775
1764763123.836113,-1.7549,3.815,0.94612,-0.870542205,0.34106358,-0.339659775
1764763123.836113,-0.9156,4.01338,0.9919,-0.8708473800000001,0.341368755,-0.339049425
1764763123.836113,-0.9156,4.01338,0.9919,-0.8708473800000001,0.341368755,-0.339049425
1764763123.836113,-0.9156,4.01338,0.9919,-0.8708473800000001,0.341368755,-0.339049425
1764763123.836113,-0.9156,4.01338,0.9919,-0.8708473800000001,0.341368755,-0.339049425
1764763123.836113,-0.9156,4.01338,0.9919,-0.8708473800000001,0.341368755,-0.339049425
1764763123.836628,-0.9156,4.01338,0.9919,-0.8708473800000001,0.341368755,-0.339049425
1764763123.836628,-0.9156,4.01338,0.9919,-0.8708473800000001,0.341368755,-0.339049425
1764763123.836628,-0.9156,4.01338,0.9919,-0.8708473800000001,0.341368755,-0.339049425
1764763123.8835847,-0.9156,4.01338,0.9919,-0.8708473800000001,0.341368755,-0.339049425
1764763123.8835847,-0.9156,4.01338,0.9919,-0.8708473800000001,0.341368755,-0.339049425
1764763123.8835847,-0.28994,3.52506,0.3815,-0.869321505,0.34045323,-0.33874425
1764763123.8835847,-0.28994,3.52506,0.3815,-0.869321505,0.34045323,-0.33874425
1764763123.8835847,-0.28994,3.52506,0.3815,-0.869321505,0.34045323,-0.33874425
1764763123.8835847,-0.28994,3.52506,0.3815,-0.869321505,0.34045323,-0.33874425
1764763123.8835847,-0.28994,3.52506,0.3815,-0.869321505,0.34045323,-0.33874425
1764763123.8835847,-0.28994,3.52506,0.3815,-0.869321505,0.34045323,-0.33874425
1764763123.8835847,-0.28994,3.52506,0.3815,-0.869321505,0.34045323,-0.33874425
1764763123.8835847,-0.28994,3.52506,0.3815,-0.869321505,0.34045323,-0.33874425
1764763123.8835847,-0.28994,3.52506,0.3815,-0.869321505,0.34045323,-0.33874425
1764763123.8835847,-0.28994,3.52506,0.3815,-0.869321505,0.34045323,-0.33874425
1764763123.885097,0.71722,3.44876,0.3204599999999999,-0.86974875,0.33923253,-0.339415635
1764763123.885097,0.71722,3.44876,0.3204599999999999,-0.86974875,0.33923253,-0.339415635
1764763123.885097,0.71722,3.44876,0.3204599999999999,-0.86974875,0.33923253,-0.339415635
1764763123.885097,0.71722,3.44876,0.3204599999999999,-0.86974875,0.33923253,-0.339415635
1764763123.885097,0.71722,3.44876,0.3204599999999999,-0.86974875,0.33923253,-0.339415635
1764763123.885097,0.71722,3.44876,0.3204599999999999,-0.86974875,0.33923253,-0.339415635
1764763123.885097,0.71722,3.44876,0.3204599999999999,-0.86974875,0.33923253,-0.339415635
1764763123.885097,0.71722,3.44876,0.3204599999999999,-0.86974875,0.33923253,-0.339415635
1764763123.885097,0.71722,3.44876,0.3204599999999999,-0.86974875,0.33923253,-0.339415635
1764763123.885097,0.71722,3.44876,0.3204599999999999,-0.86974875,0.33923253,-0.339415635
1764763123.885097,1.58704,3.44876,1.4497,-0.87255636,0.34118565,-0.34008702
1764763123.885097,1.58704,3.44876,1.4497,-0.87255636,0.34118565,-0.34008702
1764763123.9293485,1.58704,3.44876,1.4497,-0.87255636,0.34118565,-0.34008702
1764763123.9293485,1.58704,3.44876,1.4497,-0.87255636,0.34118565,-0.34008702
1764763123.9293485,1.58704,3.44876,1.4497,-0.87255636,0.34118565,-0.34008702
1764763123.9293485,1.58704,3.44876,1.4497,-0.87255636,0.34118565,-0.34008702
1764763123.9293485,1.58704,3.44876,1.4497,-0.87255636,0.34118565,-0.34008702
1764763123.93042,1.58704,3.44876,1.4497,-0.87255636,0.34118565,-0.34008702
1764763123.93042,1.58704,3.44876,1.4497,-0.87255636,0.34118565,-0.34008702
1764763123.93042,1.58704,3.44876,1.4497,-0.87255636,0.34118565,-0.34008702
1764763123.93042,1.55652,3.67766,2.10588,-0.872861535,0.343688085,-0.340148055
1764763123.93042,1.55652,3.67766,2.10588,-0.872861535,0.343688085,-0.340148055
1764763123.93042,1.55652,3.67766,2.10588,-0.872861535,0.343688085,-0.340148055
1764763123.93042,1.55652,3.67766,2.10588,-0.872861535,0.343688085,-0.340148055
1764763123.93042,1.55652,3.67766,2.10588,-0.872861535,0.343688085,-0.340148055
1764763123.93042,1.55652,3.67766,2.10588,-0.872861535,0.343688085,-0.340148055
1764763123.93042,1.55652,3.67766,2.10588,-0.872861535,0.343688085,-0.340148055
1764763123.93042,1.55652,3.67766,2.10588,-0.872861535,0.343688085,-0.340148055
1764763123.93042,1.55652,3.67766,2.10588,-0.872861535,0.343688085,-0.340148055
1764763123.93042,1.55652,3.67766,2.10588,-0.872861535,0.343688085,-0.340148055
1764763123.93042,2.39582,3.9676,1.72438,-0.86999289,0.34313877,-0.33898839
1764763123.93042,2.39582,3.9676,1.72438,-0.86999289,0.34313877,-0.33898839
1764763123.93042,2.39582,3.9676,1.72438,-0.86999289,0.34313877,-0.33898839
1764763123.93042,2.39582,3.9676,1.72438,-0.86999289,0.34313877,-0.33898839
1764763123.9764106,2.39582,3.9676,1.72438,-0.86999289,0.34313877,-0.33898839
1764763123.9764106,2.39582,3.9676,1.72438,-0.86999289,0.34313877,-0.33898839
1764763123.9764106,2.39582,3.9676,1.72438,-0.86999289,0.34313877,-0.33898839
1764763123.9764106,2.39582,3.9676,1.72438,-0.86999289,0.34313877,-0.33898839
1764763123.9764106,2.39582,3.9676,1.72438,-0.86999289,0.34313877,-0.33898839
1764763123.9764106,2.39582,3.9676,1.72438,-0.86999289,0.34313877,-0.33898839
1764763123.9764106,3.34194,3.55558,0.6103999999999999,-0.868833225,0.341246685,-0.33972081
1764763123.9764106,3.34194,3.55558,0.6103999999999999,-0.868833225,0.341246685,-0.33972081
1764763123.9764106,3.34194,3.55558,0.6103999999999999,-0.868833225,0.341246685,-0.33972081
1764763123.977754,3.34194,3.55558,0.6103999999999999,-0.868833225,0.341246685,-0.33972081
1764763123.977754,3.34194,3.55558,0.6103999999999999,-0.868833225,0.341246685,-0.33972081
1764763123.977754,3.34194,3.55558,0.6103999999999999,-0.868833225,0.341246685,-0.33972081
1764763123.977754,3.34194,3.55558,0.6103999999999999,-0.868833225,0.341246685,-0.33972081
1764763123.977754,3.34194,3.55558,0.6103999999999999,-0.868833225,0.341246685,-0.33972081
1764763123.977754,3.34194,3.55558,0.6103999999999999,-0.868833225,0.341246685,-0.33972081
1764763123.977754,3.34194,3.55558,0.6103999999999999,-0.868833225,0.341246685,-0.33972081
1764763123.977754,3.2046,3.52506,0.2289,-0.869443575,0.340514265,-0.341979105
1764763123.977754,3.2046,3.52506,0.2289,-0.869443575,0.340514265,-0.341979105
1764763123.977754,3.2046,3.52506,0.2289,-0.869443575,0.340514265,-0.341979105
1764763123.977754,3.2046,3.52506,0.2289,-0.869443575,0.340514265,-0.341979105
1764763123.977754,3.2046,3.52506,0.2289,-0.869443575,0.340514265,-0.341979105
1764763123.977754,3.2046,3.52506,0.2289,-0.869443575,0.340514265,-0.341979105
1764763123.977754,3.2046,3.52506,0.2289,-0.869443575,0.340514265,-0.341979105
1764763123.977754,3.2046,3.52506,0.2289,-0.869443575,0.340514265,-0.341979105
1764763124.0203648,3.2046,3.52506,0.2289,-0.869443575,0.340514265,-0.341979105
1764763124.0203648,3.2046,3.52506,0.2289,-0.869443575,0.340514265,-0.341979105
1764763124.0203648,1.54126,3.15882,0.4578,-0.870786345,0.342589455,-0.34399326
1764763124.0203648,1.54126,3.15882,0.4578,-0.870786345,0.342589455,-0.34399326
1764763124.0203648,1.54126,3.15882,0.4578,-0.870786345,0.342589455,-0.34399326
1764763124.0203648,1.54126,3.15882,0.4578,-0.870786345,0.342589455,-0.34399326
1764763124.0203648,1.54126,3.15882,0.4578,-0.870786345,0.342589455,-0.34399326
1764763124.0203648,1.54126,3.15882,0.4578,-0.870786345,0.342589455,-0.34399326
1764763124.0203648,1.54126,3.15882,0.4578,-0.870786345,0.342589455,-0.34399326
1764763124.0203648,1.54126,3.15882,0.4578,-0.870786345,0.342589455,-0.34399326
1764763124.0203648,1.54126,3.15882,0.4578,-0.870786345,0.342589455,-0.34399326
1764763124.0203648,1.54126,3.15882,0.4578,-0.870786345,0.342589455,-0.34399326
1764763124.0203648,0.65618,3.61662,0.8392999999999999,-0.8715798,0.344054295,-0.343321875
1764763124.0203648,0.65618,3.61662,0.8392999999999999,-0.8715798,0.344054295,-0.343321875
1764763124.0203648,0.65618,3.61662,0.8392999999999999,-0.8715798,0.344054295,-0.343321875
1764763124.0203648,0.65618,3.61662,0.8392999999999999,-0.8715798,0.344054295,-0.343321875
1764763124.0213869,0.65618,3.61662,0.8392999999999999,-0.8715798,0.344054295,-0.343321875
1764763124.0213869,0.65618,3.61662,0.8392999999999999,-0.8715798,0.344054295,-0.343321875
1764763124.0213869,0.65618,3.61662,0.8392999999999999,-0.8715798,0.344054295,-0.343321875
1764763124.0213869,0.65618,3.61662,0.8392999999999999,-0.8715798,0.344054295,-0.343321875
1764763124.0213869,0.65618,3.61662,0.8392999999999999,-0.8715798,0.344054295,-0.343321875
1764763124.0213869,0.65618,3.61662,0.8392999999999999,-0.8715798,0.344054295,-0.343321875
1764763124.022432,1.23606,3.8913,0.50358,-0.87060324,0.343566015,-0.343077735
1764763124.022432,1.23606,3.8913,0.50358,-0.87060324,0.343566015,-0.343077735
1764763124.069014,1.23606,3.8913,0.50358,-0.87060324,0.343566015,-0.343077735
1764763124.0695453,1.23606,3.8913,0.50358,-0.87060324,0.343566015,-0.343077735
1764763124.0695453,1.23606,3.8913,0.50358,-0.87060324,0.343566015,-0.343077735
1764763124.0695453,1.23606,3.8913,0.50358,-0.87060324,0.343566015,-0.343077735
1764763124.0695453,1.23606,3.8913,0.50358,-0.87060324,0.343566015,-0.343077735
1764763124.0695453,1.23606,3.8913,0.50358,-0.87060324,0.343566015,-0.343077735
1764763124.0695453,1.23606,3.8913,0.50358,-0.87060324,0.343566015,-0.343077735
1764763124.0695453,1.23606,3.8913,0.50358,-0.87060324,0.343566015,-0.343077735
1764763124.0695453,0.59514,3.8913,0.1678599999999999,-0.870664275,0.343077735,-0.342833595
1764763124.0695453,0.59514,3.8913,0.1678599999999999,-0.870664275,0.343077735,-0.342833595
1764763124.0695453,0.59514,3.8913,0.1678599999999999,-0.870664275,0.343077735,-0.342833595
1764763124.0695453,0.59514,3.8913,0.1678599999999999,-0.870664275,0.343077735,-0.342833595
1764763124.0695453,0.59514,3.8913,0.1678599999999999,-0.870664275,0.343077735,-0.342833595
1764763124.0695453,0.59514,3.8913,0.1678599999999999,-0.870664275,0.343077735,-0.342833595
1764763124.0695453,0.59514,3.8913,0.1678599999999999,-0.870664275,0.343077735,-0.342833595
1764763124.0695453,0.59514,3.8913,0.1678599999999999,-0.870664275,0.343077735,-0.342833595
1764763124.0695453,0.59514,3.8913,0.1678599999999999,-0.870664275,0.343077735,-0.342833595
1764763124.0695453,0.59514,3.8913,0.1678599999999999,-0.870664275,0.343077735,-0.342833595
1764763124.0695453,0.3357199999999999,3.87604,0.09156,-0.8708473800000001,0.342101175,-0.34338291
1764763124.0695453,0.3357199999999999,3.87604,0.09156,-0.8708473800000001,0.342101175,-0.34338291
1764763124.0695453,0.3357199999999999,3.87604,0.09156,-0.8708473800000001,0.342101175,-0.34338291
1764763124.0695453,0.3357199999999999,3.87604,0.09156,-0.8708473800000001,0.342101175,-0.34338291
1764763124.0695453,0.3357199999999999,3.87604,0.09156,-0.8708473800000001,0.342101175,-0.34338291
1764763124.0695453,0.3357199999999999,3.87604,0.09156,-0.8708473800000001,0.342101175,-0.34338291
1764763124.117856,0.3357199999999999,3.87604,0.09156,-0.8708473800000001,0.342101175,-0.34338291
1764763124.117856,0.3357199999999999,3.87604,0.09156,-0.8708473800000001,0.342101175,-0.34338291
1764763124.117856,0.3357199999999999,3.87604,0.09156,-0.8708473800000001,0.342101175,-0.34338291
1764763124.117856,0.3357199999999999,3.87604,0.09156,-0.8708473800000001,0.342101175,-0.34338291
1764763124.117856,-0.44254,2.99096,0.01526,-0.87023703,0.34167393,-0.3442374
1764763124.117856,-0.44254,2.99096,0.01526,-0.87023703,0.34167393,-0.3442374
1764763124.117856,-0.44254,2.99096,0.01526,-0.87023703,0.34167393,-0.3442374
1764763124.117856,-0.44254,2.99096,0.01526,-0.87023703,0.34167393,-0.3442374
1764763124.117856,-0.44254,2.99096,0.01526,-0.87023703,0.34167393,-0.3442374
1764763124.117856,-0.44254,2.99096,0.01526,-0.87023703,0.34167393,-0.3442374
1764763124.117856,-0.44254,2.99096,0.01526,-0.87023703,0.34167393,-0.3442374
1764763124.117856,-0.44254,2.99096,0.01526,-0.87023703,0.34167393,-0.3442374
1764763124.117856,-0.44254,2.99096,0.01526,-0.87023703,0.34167393,-0.3442374
1764763124.117856,-0.44254,2.99096,0.01526,-0.87023703,0.34167393,-0.3442374
1764763124.117856,-1.41918,3.2809,0.25942,-0.87145773,0.342101175,-0.34472568
1764763124.117856,-1.41918,3.2809,0.25942,-0.87145773,0.342101175,-0.34472568
1764763124.117856,-1.41918,3.2809,0.25942,-0.87145773,0.342101175,-0.34472568
1764763124.117856,-1.41918,3.2809,0.25942,-0.87145773,0.342101175,-0.34472568
1764763124.117856,-1.41918,3.2809,0.25942,-0.87145773,0.342101175,-0.34472568
1764763124.117856,-1.41918,3.2809,0.25942,-0.87145773,0.342101175,-0.34472568
1764763124.117856,-1.41918,3.2809,0.25942,-0.87145773,0.342101175,-0.34472568
1764763124.117856,-1.41918,3.2809,0.25942,-0.87145773,0.342101175,-0.34472568
1764763124.1618109,-1.41918,3.2809,0.25942,-0.87145773,0.342101175,-0.34472568
1764763124.1618109,-1.41918,3.2809,0.25942,-0.87145773,0.342101175,-0.34472568
1764763124.1618109,-2.07536,3.1283,0.82404,-0.871518765,0.34228428,-0.344420505
1764763124.1618109,-2.07536,3.1283,0.82404,-0.871518765,0.34228428,-0.344420505
1764763124.1618109,-2.07536,3.1283,0.82404,-0.871518765,0.34228428,-0.344420505
1764763124.1618109,-2.07536,3.1283,0.82404,-0.871518765,0.34228428,-0.344420505
1764763124.1618109,-2.07536,3.1283,0.82404,-0.871518765,0.34228428,-0.344420505
1764763124.1618109,-2.07536,3.1283,0.82404,-0.871518765,0.34228428,-0.344420505
1764763124.1618109,-2.07536,3.1283,0.82404,-0.871518765,0.34228428,-0.344420505
1764763124.1618109,-2.07536,3.1283,0.82404,-0.871518765,0.34228428,-0.344420505
1764763124.1618109,-2.07536,3.1283,0.82404,-0.871518765,0.34228428,-0.344420505
1764763124.1618109,-2.07536,3.1283,0.82404,-0.871518765,0.34228428,-0.344420505
1764763124.1618109,-0.97664,3.52506,0.6714399999999999,-0.87096945,0.341796,-0.34240635
1764763124.1618109,-0.97664,3.52506,0.6714399999999999,-0.87096945,0.341796,-0.34240635
1764763124.1618109,-0.97664,3.52506,0.6714399999999999,-0.87096945,0.341796,-0.34240635
1764763124.1618109,-0.97664,3.52506,0.6714399999999999,-0.87096945,0.341796,-0.34240635
1764763124.1618109,-0.97664,3.52506,0.6714399999999999,-0.87096945,0.341796,-0.34240635
1764763124.1618109,-0.97664,3.52506,0.6714399999999999,-0.87096945,0.341796,-0.34240635
1764763124.1618109,-0.97664,3.52506,0.6714399999999999,-0.87096945,0.341796,-0.34240635
1764763124.1618109,-0.97664,3.52506,0.6714399999999999,-0.87096945,0.341796,-0.34240635
1764763124.1618109,-0.97664,3.52506,0.6714399999999999,-0.87096945,0.341796,-0.34240635
1764763124.1618109,-0.97664,3.52506,0.6714399999999999,-0.87096945,0.341796,-0.34240635
1764763124.1618109,0.24416,3.29616,0.3204599999999999,-0.87048117,0.341002545,-0.340880475
1764763124.1618109,0.24416,3.29616,0.3204599999999999,-0.87048117,0.341002545,-0.340880475
1764763124.2081132,0.24416,3.29616,0.3204599999999999,-0.87048117,0.341002545,-0.340880475
1764763124.2081132,0.24416,3.29616,0.3204599999999999,-0.87048117,0.341002545,-0.340880475
1764763124.2086363,0.24416,3.29616,0.3204599999999999,-0.87048117,0.341002545,-0.340880475
1764763124.2086363,0.24416,3.29616,0.3204599999999999,-0.87048117,0.341002545,-0.340880475
1764763124.2086363,0.24416,3.29616,0.3204599999999999,-0.87048117,0.341002545,-0.340880475
1764763124.2086363,0.24416,3.29616,0.3204599999999999,-0.87048117,0.341002545,-0.340880475
1764763124.2086363,0.24416,3.29616,0.3204599999999999,-0.87048117,0.341002545,-0.340880475
1764763124.2086363,0.24416,3.29616,0.3204599999999999,-0.87048117,0.341002545,-0.340880475
1764763124.2086363,0.4578,3.63188,-0.13734,-0.870420135,0.34081944,-0.341124615
1764763124.2086363,0.4578,3.63188,-0.13734,-0.870420135,0.34081944,-0.341124615
1764763124.2086363,0.4578,3.63188,-0.13734,-0.870420135,0.34081944,-0.341124615
1764763124.2086363,0.4578,3.63188,-0.13734,-0.870420135,0.34081944,-0.341124615
1764763124.2086363,0.4578,3.63188,-0.13734,-0.870420135,0.34081944,-0.341124615
1764763124.2086363,0.4578,3.63188,-0.13734,-0.870420135,0.34081944,-0.341124615
1764763124.2086363,0.4578,3.63188,-0.13734,-0.870420135,0.34081944,-0.341124615
1764763124.2086363,0.4578,3.63188,-0.13734,-0.870420135,0.34081944,-0.341124615
1764763124.2086363,0.4578,3.63188,-0.13734,-0.870420135,0.34081944,-0.341124615
1764763124.2086363,0.4578,3.63188,-0.13734,-0.870420135,0.34081944,-0.341124615
1764763124.2086363,0.2289,3.6624,0.82404,-0.870542205,0.34045323,-0.34204014
1764763124.2086363,0.2289,3.6624,0.82404,-0.870542205,0.34045323,-0.34204014
1764763124.2086363,0.2289,3.6624,0.82404,-0.870542205,0.34045323,-0.34204014
1764763124.2086363,0.2289,3.6624,0.82404,-0.870542205,0.34045323,-0.34204014
1764763124.2551162,0.2289,3.6624,0.82404,-0.870542205,0.34045323,-0.34204014
1764763124.2551162,0.2289,3.6624,0.82404,-0.870542205,0.34045323,-0.34204014
1764763124.2551162,0.2289,3.6624,0.82404,-0.870542205,0.34045323,-0.34204014
1764763124.2551162,0.2289,3.6624,0.82404,-0.870542205,0.34045323,-0.34204014
1764763124.2551162,0.2289,3.6624,0.82404,-0.870542205,0.34045323,-0.34204014
1764763124.2551162,0.2289,3.6624,0.82404,-0.870542205,0.34045323,-0.34204014
1764763124.2551162,0.3815,3.5861,0.3051999999999999,-0.87182394,0.341124615,-0.34228428
1764763124.2551162,0.3815,3.5861,0.3051999999999999,-0.87182394,0.341124615,-0.34228428
1764763124.2551162,0.3815,3.5861,0.3051999999999999,-0.87182394,0.341124615,-0.34228428
1764763124.2551162,0.3815,3.5861,0.3051999999999999,-0.87182394,0.341124615,-0.34228428
1764763124.2551162,0.3815,3.5861,0.3051999999999999,-0.87182394,0.341124615,-0.34228428
1764763124.2551162,0.3815,3.5861,0.3051999999999999,-0.87182394,0.341124615,-0.34228428
1764763124.2551162,0.3815,3.5861,0.3051999999999999,-0.87182394,0.341124615,-0.34228428
1764763124.2551162,0.3815,3.5861,0.3051999999999999,-0.87182394,0.341124615,-0.34228428
1764763124.2551162,0.3815,3.5861,0.3051999999999999,-0.87182394,0.341124615,-0.34228428
1764763124.2551162,0.3815,3.5861,0.3051999999999999,-0.87182394,0.341124615,-0.34228428
1764763124.2551162,0.01526,3.69292,0.48832,-0.87145773,0.34204014,-0.34240635
1764763124.2551162,0.01526,3.69292,0.48832,-0.87145773,0.34204014,-0.34240635
1764763124.2551162,0.01526,3.69292,0.48832,-0.87145773,0.34204014,-0.34240635
1764763124.2551162,0.01526,3.69292,0.48832,-0.87145773,0.34204014,-0.34240635
1764763124.2551162,0.01526,3.69292,0.48832,-0.87145773,0.34204014,-0.34240635
1764763124.2551162,0.01526,3.69292,0.48832,-0.87145773,0.34204014,-0.34240635
1764763124.2551162,0.01526,3.69292,0.48832,-0.87145773,0.34204014,-0.34240635
1764763124.2551162,0.01526,3.69292,0.48832,-0.87145773,0.34204014,-0.34240635
1764763124.301291,0.01526,3.69292,0.48832,-0.87145773,0.34204014,-0.34240635
1764763124.3017943,0.01526,3.69292,0.48832,-0.87145773,0.34204014,-0.34240635
1764763124.3017943,-0.79352,3.31142,0.36624,-0.871274625,0.34289463,-0.34326084
1764763124.3017943,-0.79352,3.31142,0.36624,-0.871274625,0.34289463,-0.34326084
1764763124.3017943,-0.79352,3.31142,0.36624,-0.871274625,0.34289463,-0.34326084
1764763124.3017943,-0.79352,3.31142,0.36624,-0.871274625,0.34289463,-0.34326084
1764763124.3017943,-0.79352,3.31142,0.36624,-0.871274625,0.34289463,-0.34326084
1764763124.3017943,-0.79352,3.31142,0.36624,-0.871274625,0.34289463,-0.34326084
1764763124.3017943,-0.79352,3.31142,0.36624,-0.871274625,0.34289463,-0.34326084
1764763124.3017943,-0.79352,3.31142,0.36624,-0.871274625,0.34289463,-0.34326084
1764763124.3017943,-0.79352,3.31142,0.36624,-0.871274625,0.34289463,-0.34326084
1764763124.3017943,-0.79352,3.31142,0.36624,-0.871274625,0.34289463,-0.34326084
1764763124.3017943,-1.2208,3.34194,0.1525999999999999,-0.870420135,0.342101175,-0.34387119
1764763124.3017943,-1.2208,3.34194,0.1525999999999999,-0.870420135,0.342101175,-0.34387119
1764763124.3017943,-1.2208,3.34194,0.1525999999999999,-0.870420135,0.342101175,-0.34387119
1764763124.3017943,-1.2208,3.34194,0.1525999999999999,-0.870420135,0.342101175,-0.34387119
1764763124.3017943,-1.2208,3.34194,0.1525999999999999,-0.870420135,0.342101175,-0.34387119
1764763124.3017943,-1.2208,3.34194,0.1525999999999999,-0.870420135,0.342101175,-0.34387119
1764763124.3017943,-1.2208,3.34194,0.1525999999999999,-0.870420135,0.342101175,-0.34387119
1764763124.3028014,-1.2208,3.34194,0.1525999999999999,-0.870420135,0.342101175,-0.34387119
1764763124.3028014,-1.2208,3.34194,0.1525999999999999,-0.870420135,0.342101175,-0.34387119
1764763124.3028014,-1.2208,3.34194,0.1525999999999999,-0.870420135,0.342101175,-0.34387119
1764763124.348837,-1.05294,3.23512,0.5341,-0.871396695,0.34118565,-0.343688085
1764763124.348837,-1.05294,3.23512,0.5341,-0.871396695,0.34118565,-0.343688085
1764763124.348837,-1.05294,3.23512,0.5341,-0.871396695,0.34118565,-0.343688085
1764763124.348837,-1.05294,3.23512,0.5341,-0.871396695,0.34118565,-0.343688085
1764763124.348837,-1.05294,3.23512,0.5341,-0.871396695,0.34118565,-0.343688085
1764763124.348837,-1.05294,3.23512,0.5341,-0.871396695,0.34118565,-0.343688085
1764763124.348837,-1.05294,3.23512,0.5341,-0.871396695,0.34118565,-0.343688085
1764763124.348837,-1.05294,3.23512,0.5341,-0.871396695,0.34118565,-0.343688085
1764763124.348837,-1.05294,3.23512,0.5341,-0.871396695,0.34118565,-0.343688085
1764763124.348837,-1.05294,3.23512,0.5341,-0.871396695,0.34118565,-0.343688085
1764763124.348837,-0.82404,3.46402,-0.27468,-0.871274625,0.341002545,-0.343443945
1764763124.348837,-0.82404,3.46402,-0.27468,-0.871274625,0.341002545,-0.343443945
1764763124.348837,-0.82404,3.46402,-0.27468,-0.871274625,0.341002545,-0.343443945
1764763124.348837,-0.82404,3.46402,-0.27468,-0.871274625,0.341002545,-0.343443945
1764763124.348837,-0.82404,3.46402,-0.27468,-0.871274625,0.341002545,-0.343443945
1764763124.348837,-0.82404,3.46402,-0.27468,-0.871274625,0.341002545,-0.343443945
1764763124.348837,-0.82404,3.46402,-0.27468,-0.871274625,0.341002545,-0.343443945
1764763124.348837,-0.82404,3.46402,-0.27468,-0.871274625,0.341002545,-0.343443945
1764763124.348837,-0.82404,3.46402,-0.27468,-0.871274625,0.341002545,-0.343443945
1764763124.348837,-0.82404,3.46402,-0.27468,-0.871274625,0.341002545,-0.343443945
1764763124.348837,-0.6867,3.25038,-0.39676,-0.871030485,0.340758405,-0.342955665
1764763124.348837,-0.6867,3.25038,-0.39676,-0.871030485,0.340758405,-0.342955665
1764763124.348837,-0.6867,3.25038,-0.39676,-0.871030485,0.340758405,-0.342955665
1764763124.348837,-0.6867,3.25038,-0.39676,-0.871030485,0.340758405,-0.342955665
1764763124.3927577,-0.6867,3.25038,-0.39676,-0.871030485,0.340758405,-0.342955665
1764763124.3927577,-0.6867,3.25038,-0.39676,-0.871030485,0.340758405,-0.342955665
1764763124.3927577,-0.6867,3.25038,-0.39676,-0.871030485,0.340758405,-0.342955665
1764763124.394469,-0.6867,3.25038,-0.39676,-0.871030485,0.340758405,-0.342955665
1764763124.394469,-0.6867,3.25038,-0.39676,-0.871030485,0.340758405,-0.342955665
1764763124.394469,-0.6867,3.25038,-0.39676,-0.871030485,0.340758405,-0.342955665
1764763124.394469,-1.17502,3.17408,-0.4578,-0.870908415,0.34204014,-0.34374912
1764763124.394469,-1.17502,3.17408,-0.4578,-0.870908415,0.34204014,-0.34374912
1764763124.394469,-1.17502,3.17408,-0.4578,-0.870908415,0.34204014,-0.34374912
1764763124.394469,-1.17502,3.17408,-0.4578,-0.870908415,0.34204014,-0.34374912
1764763124.394469,-1.17502,3.17408,-0.4578,-0.870908415,0.34204014,-0.34374912
1764763124.394469,-1.17502,3.17408,-0.4578,-0.870908415,0.34204014,-0.34374912
1764763124.394469,-1.17502,3.17408,-0.4578,-0.870908415,0.34204014,-0.34374912
1764763124.394469,-1.17502,3.17408,-0.4578,-0.870908415,0.34204014,-0.34374912
1764763124.394469,-1.17502,3.17408,-0.4578,-0.870908415,0.34204014,-0.34374912
1764763124.394469,-1.17502,3.17408,-0.4578,-0.870908415,0.34204014,-0.34374912
1764763124.394469,-2.12114,3.34194,-0.12208,-0.87206808,0.342223245,-0.34387119
1764763124.394469,-2.12114,3.34194,-0.12208,-0.87206808,0.342223245,-0.34387119
1764763124.394469,-2.12114,3.34194,-0.12208,-0.87206808,0.342223245,-0.34387119
1764763124.394469,-2.12114,3.34194,-0.12208,-0.87206808,0.342223245,-0.34387119
1764763124.394469,-2.12114,3.34194,-0.12208,-0.87206808,0.342223245,-0.34387119
1764763124.394469,-2.12114,3.34194,-0.12208,-0.87206808,0.342223245,-0.34387119
1764763124.4389982,-2.12114,3.34194,-0.12208,-0.87206808,0.342223245,-0.34387119
1764763124.4389982,-2.12114,3.34194,-0.12208,-0.87206808,0.342223245,-0.34387119
1764763124.4389982,-2.12114,3.34194,-0.12208,-0.87206808,0.342223245,-0.34387119
1764763124.4389982,-2.12114,3.34194,-0.12208,-0.87206808,0.342223245,-0.34387119
1764763124.4389982,-2.01432,3.41824,-0.3204599999999999,-0.871396695,0.34265049,-0.34350498
1764763124.4389982,-2.01432,3.41824,-0.3204599999999999,-0.871396695,0.34265049,-0.34350498
1764763124.4389982,-2.01432,3.41824,-0.3204599999999999,-0.871396695,0.34265049,-0.34350498
1764763124.4389982,-2.01432,3.41824,-0.3204599999999999,-0.871396695,0.34265049,-0.34350498
1764763124.4389982,-2.01432,3.41824,-0.3204599999999999,-0.871396695,0.34265049,-0.34350498
1764763124.4389982,-2.01432,3.41824,-0.3204599999999999,-0.871396695,0.34265049,-0.34350498
1764763124.4389982,-2.01432,3.41824,-0.3204599999999999,-0.871396695,0.34265049,-0.34350498
1764763124.4389982,-2.01432,3.41824,-0.3204599999999999,-0.871396695,0.34265049,-0.34350498
1764763124.4395034,-2.01432,3.41824,-0.3204599999999999,-0.871396695,0.34265049,-0.34350498
1764763124.4395034,-2.01432,3.41824,-0.3204599999999999,-0.871396695,0.34265049,-0.34350498
1764763124.4395034,-2.16692,2.50264,-0.2289,-0.87060324,0.34191807,-0.342833595
1764763124.4395034,-2.16692,2.50264,-0.2289,-0.87060324,0.34191807,-0.342833595
1764763124.4395034,-2.16692,2.50264,-0.2289,-0.87060324,0.34191807,-0.342833595
1764763124.4395034,-2.16692,2.50264,-0.2289,-0.87060324,0.34191807,-0.342833595
1764763124.4395034,-2.16692,2.50264,-0.2289,-0.87060324,0.34191807,-0.342833595
1764763124.4395034,-2.16692,2.50264,-0.2289,-0.87060324,0.34191807,-0.342833595
1764763124.4395034,-2.16692,2.50264,-0.2289,-0.87060324,0.34191807,-0.342833595
1764763124.4395034,-2.16692,2.50264,-0.2289,-0.87060324,0.34191807,-0.342833595
1764763124.4395034,-2.16692,2.50264,-0.2289,-0.87060324,0.34191807,-0.342833595
1764763124.440023,-2.16692,2.50264,-0.2289,-0.87060324,0.34191807,-0.342833595
1764763124.4889202,-2.12114,2.73154,-0.3204599999999999,-0.8713356600000001,0.340636335,-0.342345315
1764763124.4889202,-2.12114,2.73154,-0.3204599999999999,-0.8713356600000001,0.340636335,-0.342345315
1764763124.4889202,-2.12114,2.73154,-0.3204599999999999,-0.8713356600000001,0.340636335,-0.342345315
1764763124.4889202,-2.12114,2.73154,-0.3204599999999999,-0.8713356600000001,0.340636335,-0.342345315
1764763124.4889202,-2.12114,2.73154,-0.3204599999999999,-0.8713356600000001,0.340636335,-0.342345315
1764763124.4889202,-2.12114,2.73154,-0.3204599999999999,-0.8713356600000001,0.340636335,-0.342345315
1764763124.4889202,-2.12114,2.73154,-0.3204599999999999,-0.8713356600000001,0.340636335,-0.342345315
1764763124.489928,-2.12114,2.73154,-0.3204599999999999,-0.8713356600000001,0.340636335,-0.342345315
1764763124.489928,-2.12114,2.73154,-0.3204599999999999,-0.8713356600000001,0.340636335,-0.342345315
1764763124.489928,-2.12114,2.73154,-0.3204599999999999,-0.8713356600000001,0.340636335,-0.342345315
1764763124.489928,-2.07536,3.37246,1.09872,-0.874082235,0.34106358,-0.34204014
1764763124.489928,-2.07536,3.37246,1.09872,-0.874082235,0.34106358,-0.34204014
1764763124.489928,-2.07536,3.37246,1.09872,-0.874082235,0.34106358,-0.34204014
1764763124.489928,-2.07536,3.37246,1.09872,-0.874082235,0.34106358,-0.34204014
1764763124.489928,-2.07536,3.37246,1.09872,-0.874082235,0.34106358,-0.34204014
1764763124.489928,-2.07536,3.37246,1.09872,-0.874082235,0.34106358,-0.34204014
1764763124.489928,-2.07536,3.37246,1.09872,-0.874082235,0.34106358,-0.34204014
1764763124.489928,-2.07536,3.37246,1.09872,-0.874082235,0.34106358,-0.34204014
1764763124.489928,-2.07536,3.37246,1.09872,-0.874082235,0.34106358,-0.34204014
1764763124.489928,-2.07536,3.37246,1.09872,-0.874082235,0.34106358,-0.34204014
1764763124.489928,-2.3653,3.815,1.48022,-0.87414327,0.342223245,-0.341490825
1764763124.489928,-2.3653,3.815,1.48022,-0.87414327,0.342223245,-0.341490825
1764763124.489928,-2.3653,3.815,1.48022,-0.87414327,0.342223245,-0.341490825
1764763124.489928,-2.3653,3.815,1.48022,-0.87414327,0.342223245,-0.341490825
1764763124.533545,-2.3653,3.815,1.48022,-0.87414327,0.342223245,-0.341490825
1764763124.533545,-2.3653,3.815,1.48022,-0.87414327,0.342223245,-0.341490825
1764763124.533545,-2.3653,3.815,1.48022,-0.87414327,0.342223245,-0.341490825
1764763124.533545,-2.3653,3.815,1.48022,-0.87414327,0.342223245,-0.341490825
1764763124.533545,-2.3653,3.815,1.48022,-0.87414327,0.342223245,-0.341490825
1764763124.533545,-2.3653,3.815,1.48022,-0.87414327,0.342223245,-0.341490825
1764763124.533545,-2.71628,3.75396,0.42728,-0.872373255,0.34204014,-0.341612895
1764763124.533545,-2.71628,3.75396,0.42728,-0.872373255,0.34204014,-0.341612895
1764763124.533545,-2.71628,3.75396,0.42728,-0.872373255,0.34204014,-0.341612895
1764763124.533545,-2.71628,3.75396,0.42728,-0.872373255,0.34204014,-0.341612895
1764763124.533545,-2.71628,3.75396,0.42728,-0.872373255,0.34204014,-0.341612895
1764763124.533545,-2.71628,3.75396,0.42728,-0.872373255,0.34204014,-0.341612895
