Timestamp,GyroX,GyroY,GyroZ,AccX,AccY,AccZ
1764763511.5293038,-4.39488,0.85456,2.70102,-0.8972145,0.3124992,-0.323546535
1764763511.5293038,-4.39488,0.85456,2.70102,-0.8972145,0.3124992,-0.323546535
1764763511.5293038,-4.39488,0.85456,2.70102,-0.8972145,0.3124992,-0.323546535
1764763511.5293038,-4.39488,0.85456,2.70102,-0.8972145,0.3124992,-0.323546535
1764763511.5293038,-4.39488,0.85456,2.70102,-0.8972145,0.3124992,-0.323546535
1764763511.5293038,-4.39488,0.85456,2.70102,-0.8972145,0.3124992,-0.323546535
1764763511.5293038,-4.39488,0.85456,2.70102,-0.8972145,0.3124992,-0.323546535
1764763511.5293038,-4.39488,0.85456,2.70102,-0.8972145,0.3124992,-0.323546535
1764763511.5293038,-7.08064,3.87604,2.53316,-0.89697036,0.316222335,-0.321837555
1764763511.5293038,-7.08064,3.87604,2.53316,-0.89697036,0.316222335,-0.321837555
1764763511.5293038,-7.08064,3.87604,2.53316,-0.89697036,0.316222335,-0.321837555
1764763511.5293038,-7.08064,3.87604,2.53316,-0.89697036,0.316222335,-0.321837555
1764763511.5293038,-7.08064,3.87604,2.53316,-0.89697036,0.316222335,-0.321837555
1764763511.5293038,-7.08064,3.87604,2.53316,-0.89697036,0.316222335,-0.321837555
1764763511.5293038,-7.08064,3.87604,2.53316,-0.89697036,0.316222335,-0.321837555
1764763511.5293038,-7.08064,3.87604,2.53316,-0.89697036,0.316222335,-0.321837555
1764763511.5293038,-7.08064,3.87604,2.53316,-0.89697036,0.316222335,-0.321837555
1764763511.5293038,-7.08064,3.87604,2.53316,-0.89697036,0.316222335,-0.321837555
1764763511.5293038,-8.27092,0.6867,1.6633399999999998,-0.892148595,0.320494785,-0.31896891
1764763511.5293038,-8.27092,0.6867,1.6633399999999998,-0.892148595,0.320494785,-0.31896891
1764763511.5293038,-8.27092,0.6867,1.6633399999999998,-0.892148595,0.320494785,-0.31896891
1764763511.5293038,-8.27092,0.6867,1.6633399999999998,-0.892148595,0.320494785,-0.31896891
1764763511.5293038,-8.27092,0.6867,1.6633399999999998,-0.892148595,0.320494785,-0.31896891
1764763511.5293038,-8.27092,0.6867,1.6633399999999998,-0.892148595,0.320494785,-0.31896891
1764763511.5765724,-8.27092,0.6867,1.6633399999999998,-0.892148595,0.320494785,-0.31896891
1764763511.5765724,-8.27092,0.6867,1.6633399999999998,-0.892148595,0.320494785,-0.31896891
1764763511.5770996,-8.27092,0.6867,1.6633399999999998,-0.892148595,0.320494785,-0.31896891
1764763511.5770996,-8.27092,0.6867,1.6633399999999998,-0.892148595,0.320494785,-0.31896891
1764763511.5770996,-9.6138,2.10588,0.50358,-0.8862282,0.322692045,-0.315123705
1764763511.5770996,-9.6138,2.10588,0.50358,-0.8862282,0.322692045,-0.315123705
1764763511.5770996,-9.6138,2.10588,0.50358,-0.8862282,0.322692045,-0.315123705
1764763511.5770996,-9.6138,2.10588,0.50358,-0.8862282,0.322692045,-0.315123705
1764763511.5770996,-9.6138,2.10588,0.50358,-0.8862282,0.322692045,-0.315123705
1764763511.5770996,-9.6138,2.10588,0.50358,-0.8862282,0.322692045,-0.315123705
1764763511.5770996,-9.6138,2.10588,0.50358,-0.8862282,0.322692045,-0.315123705
1764763511.577628,-9.6138,2.10588,0.50358,-0.8862282,0.322692045,-0.315123705
1764763511.577628,-9.6138,2.10588,0.50358,-0.8862282,0.322692045,-0.315123705
1764763511.577628,-9.6138,2.10588,0.50358,-0.8862282,0.322692045,-0.315123705
1764763511.577628,-9.156,2.6705,0.59514,-0.88464129,0.31970133,-0.312194025
1764763511.577628,-9.156,2.6705,0.59514,-0.88464129,0.31970133,-0.312194025
1764763511.577628,-9.156,2.6705,0.59514,-0.88464129,0.31970133,-0.312194025
1764763511.577628,-9.156,2.6705,0.59514,-0.88464129,0.31970133,-0.312194025
1764763511.577628,-9.156,2.6705,0.59514,-0.88464129,0.31970133,-0.312194025
1764763511.577628,-9.156,2.6705,0.59514,-0.88464129,0.31970133,-0.312194025
1764763511.578672,-9.156,2.6705,0.59514,-0.88464129,0.31970133,-0.312194025
1764763511.578672,-9.156,2.6705,0.59514,-0.88464129,0.31970133,-0.312194025
1764763511.578672,-9.156,2.6705,0.59514,-0.88464129,0.31970133,-0.312194025
1764763511.578672,-9.156,2.6705,0.59514,-0.88464129,0.31970133,-0.312194025
1764763511.6247463,-7.11116,3.79974,0.47306,-0.88512957,0.31640544,-0.31091229
1764763511.6247463,-7.11116,3.79974,0.47306,-0.88512957,0.31640544,-0.31091229
1764763511.6247463,-7.11116,3.79974,0.47306,-0.88512957,0.31640544,-0.31091229
1764763511.6247463,-7.11116,3.79974,0.47306,-0.88512957,0.31640544,-0.31091229
1764763511.6247463,-7.11116,3.79974,0.47306,-0.88512957,0.31640544,-0.31091229
1764763511.6247463,-7.11116,3.79974,0.47306,-0.88512957,0.31640544,-0.31091229
1764763511.6247463,-7.11116,3.79974,0.47306,-0.88512957,0.31640544,-0.31091229
1764763511.6247463,-7.11116,3.79974,0.47306,-0.88512957,0.31640544,-0.31091229
1764763511.6247463,-7.11116,3.79974,0.47306,-0.88512957,0.31640544,-0.31091229
1764763511.6247463,-7.11116,3.79974,0.47306,-0.88512957,0.31640544,-0.31091229
1764763511.6247463,-4.1202,3.99812,0.94612,-0.88769304,0.31530681,-0.30969159
1764763511.6247463,-4.1202,3.99812,0.94612,-0.88769304,0.31530681,-0.30969159
1764763511.6247463,-4.1202,3.99812,0.94612,-0.88769304,0.31530681,-0.30969159
1764763511.6247463,-4.1202,3.99812,0.94612,-0.88769304,0.31530681,-0.30969159
1764763511.6247463,-4.1202,3.99812,0.94612,-0.88769304,0.31530681,-0.30969159
1764763511.6247463,-4.1202,3.99812,0.94612,-0.88769304,0.31530681,-0.30969159
1764763511.6247463,-4.1202,3.99812,0.94612,-0.88769304,0.31530681,-0.30969159
1764763511.6247463,-4.1202,3.99812,0.94612,-0.88769304,0.31530681,-0.30969159
1764763511.6247463,-4.1202,3.99812,0.94612,-0.88769304,0.31530681,-0.30969159
1764763511.6247463,-4.1202,3.99812,0.94612,-0.88769304,0.31530681,-0.30969159
1764763511.6247463,-2.04484,4.28806,1.19028,-0.88879167,0.31640544,-0.308165715
1764763511.6247463,-2.04484,4.28806,1.19028,-0.88879167,0.31640544,-0.308165715
1764763511.6247463,-2.04484,4.28806,1.19028,-0.88879167,0.31640544,-0.308165715
1764763511.6247463,-2.04484,4.28806,1.19028,-0.88879167,0.31640544,-0.308165715
1764763511.6719286,-2.04484,4.28806,1.19028,-0.88879167,0.31640544,-0.308165715
1764763511.6719286,-2.04484,4.28806,1.19028,-0.88879167,0.31640544,-0.308165715
1764763511.6719286,-2.04484,4.28806,1.19028,-0.88879167,0.31640544,-0.308165715
1764763511.6719286,-2.04484,4.28806,1.19028,-0.88879167,0.31640544,-0.308165715
1764763511.6719286,-2.04484,4.28806,1.19028,-0.88879167,0.31640544,-0.308165715
1764763511.6719286,-2.04484,4.28806,1.19028,-0.88879167,0.31640544,-0.308165715
1764763511.6719286,-0.51884,4.22702,1.00716,-0.88927995,0.318175455,-0.30676191
1764763511.6719286,-0.51884,4.22702,1.00716,-0.88927995,0.318175455,-0.30676191
1764763511.6719286,-0.51884,4.22702,1.00716,-0.88927995,0.318175455,-0.30676191
1764763511.6719286,-0.51884,4.22702,1.00716,-0.88927995,0.318175455,-0.30676191
1764763511.6719286,-0.51884,4.22702,1.00716,-0.88927995,0.318175455,-0.30676191
1764763511.6719286,-0.51884,4.22702,1.00716,-0.88927995,0.318175455,-0.30676191
1764763511.6719286,-0.51884,4.22702,1.00716,-0.88927995,0.318175455,-0.30676191
1764763511.6719286,-0.51884,4.22702,1.00716,-0.88927995,0.318175455,-0.30676191
1764763511.6719286,-0.51884,4.22702,1.00716,-0.88927995,0.318175455,-0.30676191
1764763511.6719286,-0.51884,4.22702,1.00716,-0.88927995,0.318175455,-0.30676191
1764763511.6719286,1.26658,4.3491,0.79352,-0.889340985,0.318297525,-0.30737226
1764763511.6719286,1.26658,4.3491,0.79352,-0.889340985,0.318297525,-0.30737226
1764763511.6729372,1.26658,4.3491,0.79352,-0.889340985,0.318297525,-0.30737226
1764763511.6729372,1.26658,4.3491,0.79352,-0.889340985,0.318297525,-0.30737226
1764763511.6729372,1.26658,4.3491,0.79352,-0.889340985,0.318297525,-0.30737226
1764763511.6729372,1.26658,4.3491,0.79352,-0.889340985,0.318297525,-0.30737226
1764763511.6729372,1.26658,4.3491,0.79352,-0.889340985,0.318297525,-0.30737226
1764763511.6729372,1.26658,4.3491,0.79352,-0.889340985,0.318297525,-0.30737226
1764763511.7165508,1.26658,4.3491,0.79352,-0.889340985,0.318297525,-0.30737226
1764763511.7165508,1.26658,4.3491,0.79352,-0.889340985,0.318297525,-0.30737226
1764763511.7165508,2.27374,3.79974,1.08346,-0.89001237,0.31774821,-0.30859296
1764763511.7165508,2.27374,3.79974,1.08346,-0.89001237,0.31774821,-0.30859296
1764763511.7165508,2.27374,3.79974,1.08346,-0.89001237,0.31774821,-0.30859296
1764763511.7165508,2.27374,3.79974,1.08346,-0.89001237,0.31774821,-0.30859296
1764763511.7165508,2.27374,3.79974,1.08346,-0.89001237,0.31774821,-0.30859296
1764763511.7165508,2.27374,3.79974,1.08346,-0.89001237,0.31774821,-0.30859296
1764763511.7165508,2.27374,3.79974,1.08346,-0.89001237,0.31774821,-0.30859296
1764763511.7165508,2.27374,3.79974,1.08346,-0.89001237,0.31774821,-0.30859296
1764763511.7165508,2.27374,3.79974,1.08346,-0.89001237,0.31774821,-0.30859296
1764763511.7165508,2.27374,3.79974,1.08346,-0.89001237,0.31774821,-0.30859296
1764763511.7165508,1.78542,2.83836,0.9003399999999999,-0.889829265,0.317320965,-0.310729185
1764763511.7165508,1.78542,2.83836,0.9003399999999999,-0.889829265,0.317320965,-0.310729185
1764763511.7165508,1.78542,2.83836,0.9003399999999999,-0.889829265,0.317320965,-0.310729185
1764763511.7165508,1.78542,2.83836,0.9003399999999999,-0.889829265,0.317320965,-0.310729185
1764763511.7165508,1.78542,2.83836,0.9003399999999999,-0.889829265,0.317320965,-0.310729185
1764763511.7165508,1.78542,2.83836,0.9003399999999999,-0.889829265,0.317320965,-0.310729185
1764763511.7175708,1.78542,2.83836,0.9003399999999999,-0.889829265,0.317320965,-0.310729185
1764763511.7175708,1.78542,2.83836,0.9003399999999999,-0.889829265,0.317320965,-0.310729185
1764763511.7175708,1.78542,2.83836,0.9003399999999999,-0.889829265,0.317320965,-0.310729185
1764763511.7175708,1.78542,2.83836,0.9003399999999999,-0.889829265,0.317320965,-0.310729185
1764763511.7640505,1.6022999999999998,3.32668,1.26658,-0.890561685,0.31652751,-0.31213299
1764763511.7640505,1.6022999999999998,3.32668,1.26658,-0.890561685,0.31652751,-0.31213299
1764763511.7640505,1.6022999999999998,3.32668,1.26658,-0.890561685,0.31652751,-0.31213299
1764763511.7640505,1.6022999999999998,3.32668,1.26658,-0.890561685,0.31652751,-0.31213299
1764763511.7640505,1.6022999999999998,3.32668,1.26658,-0.890561685,0.31652751,-0.31213299
1764763511.7640505,1.6022999999999998,3.32668,1.26658,-0.890561685,0.31652751,-0.31213299
1764763511.7650628,1.6022999999999998,3.32668,1.26658,-0.890561685,0.31652751,-0.31213299
1764763511.7650628,1.6022999999999998,3.32668,1.26658,-0.890561685,0.31652751,-0.31213299
1764763511.7650628,1.6022999999999998,3.32668,1.26658,-0.890561685,0.31652751,-0.31213299
1764763511.7650628,1.6022999999999998,3.32668,1.26658,-0.890561685,0.31652751,-0.31213299
1764763511.7650628,2.79258,3.87604,1.57178,-0.890805825,0.316832685,-0.31079022
1764763511.7650628,2.79258,3.87604,1.57178,-0.890805825,0.316832685,-0.31079022
1764763511.7650628,2.79258,3.87604,1.57178,-0.890805825,0.316832685,-0.31079022
1764763511.7650628,2.79258,3.87604,1.57178,-0.890805825,0.316832685,-0.31079022
1764763511.7650628,2.79258,3.87604,1.57178,-0.890805825,0.316832685,-0.31079022
1764763511.7650628,2.79258,3.87604,1.57178,-0.890805825,0.316832685,-0.31079022
1764763511.7650628,2.79258,3.87604,1.57178,-0.890805825,0.316832685,-0.31079022
1764763511.7650628,2.79258,3.87604,1.57178,-0.890805825,0.316832685,-0.31079022
1764763511.7650628,2.79258,3.87604,1.57178,-0.890805825,0.316832685,-0.31079022
1764763511.7650628,2.79258,3.87604,1.57178,-0.890805825,0.316832685,-0.31079022
1764763511.7650628,4.24228,3.52506,1.43444,-0.89001237,0.31652751,-0.30981366
1764763511.7650628,4.24228,3.52506,1.43444,-0.89001237,0.31652751,-0.30981366
1764763511.8116453,4.24228,3.52506,1.43444,-0.89001237,0.31652751,-0.30981366
1764763511.8116453,4.24228,3.52506,1.43444,-0.89001237,0.31652751,-0.30981366
1764763511.8116453,4.24228,3.52506,1.43444,-0.89001237,0.31652751,-0.30981366
1764763511.8116453,4.24228,3.52506,1.43444,-0.89001237,0.31652751,-0.30981366
1764763511.8116453,4.24228,3.52506,1.43444,-0.89001237,0.31652751,-0.30981366
1764763511.8116453,4.24228,3.52506,1.43444,-0.89001237,0.31652751,-0.30981366
1764763511.8116453,4.24228,3.52506,1.43444,-0.89001237,0.31652751,-0.30981366
1764763511.8116453,4.24228,3.52506,1.43444,-0.89001237,0.31652751,-0.30981366
1764763511.8116453,5.7225,3.69292,1.64808,-0.88927995,0.31713786,-0.309996765
1764763511.8116453,5.7225,3.69292,1.64808,-0.88927995,0.31713786,-0.309996765
1764763511.8116453,5.7225,3.69292,1.64808,-0.88927995,0.31713786,-0.309996765
1764763511.8116453,5.7225,3.69292,1.64808,-0.88927995,0.31713786,-0.309996765
1764763511.8116453,5.7225,3.69292,1.64808,-0.88927995,0.31713786,-0.309996765
1764763511.8116453,5.7225,3.69292,1.64808,-0.88927995,0.31713786,-0.309996765
1764763511.8550453,5.7225,3.69292,1.64808,-0.88927995,0.31713786,-0.309996765
1764763511.8550453,5.7225,3.69292,1.64808,-0.88927995,0.31713786,-0.309996765
1764763511.8550453,5.7225,3.69292,1.64808,-0.88927995,0.31713786,-0.309996765
1764763511.8550453,5.7225,3.69292,1.64808,-0.88927995,0.31713786,-0.309996765
1764763511.8550453,6.2566,3.6624,1.4039199999999998,-0.88842546,0.317565105,-0.31213299
1764763511.8550453,6.2566,3.6624,1.4039199999999998,-0.88842546,0.317565105,-0.31213299
1764763511.8550453,6.2566,3.6624,1.4039199999999998,-0.88842546,0.317565105,-0.31213299
1764763511.8550453,6.2566,3.6624,1.4039199999999998,-0.88842546,0.317565105,-0.31213299
1764763511.8550453,6.2566,3.6624,1.4039199999999998,-0.88842546,0.317565105,-0.31213299
1764763511.85603,6.2566,3.6624,1.4039199999999998,-0.88842546,0.317565105,-0.31213299
1764763511.85603,6.2566,3.6624,1.4039199999999998,-0.88842546,0.317565105,-0.31213299
1764763511.85603,6.2566,3.6624,1.4039199999999998,-0.88842546,0.317565105,-0.31213299
1764763511.85603,6.2566,3.6624,1.4039199999999998,-0.88842546,0.317565105,-0.31213299
1764763511.85603,6.2566,3.6624,1.4039199999999998,-0.88842546,0.317565105,-0.31213299
1764763511.85603,5.17314,3.47928,0.6409199999999999,-0.888730635,0.31835856,-0.31408611
1764763511.85603,5.17314,3.47928,0.6409199999999999,-0.888730635,0.31835856,-0.31408611
1764763511.85603,5.17314,3.47928,0.6409199999999999,-0.888730635,0.31835856,-0.31408611
1764763511.85603,5.17314,3.47928,0.6409199999999999,-0.888730635,0.31835856,-0.31408611
1764763511.85603,5.17314,3.47928,0.6409199999999999,-0.888730635,0.31835856,-0.31408611
1764763511.85603,5.17314,3.47928,0.6409199999999999,-0.888730635,0.31835856,-0.31408611
1764763511.85603,5.17314,3.47928,0.6409199999999999,-0.888730635,0.31835856,-0.31408611
1764763511.85603,5.17314,3.47928,0.6409199999999999,-0.888730635,0.31835856,-0.31408611
1764763511.85603,5.17314,3.47928,0.6409199999999999,-0.888730635,0.31835856,-0.31408611
1764763511.85603,5.17314,3.47928,0.6409199999999999,-0.888730635,0.31835856,-0.31408611
1764763511.85603,3.90656,3.5861,1.3734,-0.88940202,0.320006505,-0.316100265
1764763511.85603,3.90656,3.5861,1.3734,-0.88940202,0.320006505,-0.316100265
1764763511.857118,3.90656,3.5861,1.3734,-0.88940202,0.320006505,-0.316100265
1764763511.857118,3.90656,3.5861,1.3734,-0.88940202,0.320006505,-0.316100265
1764763511.857118,3.90656,3.5861,1.3734,-0.88940202,0.320006505,-0.316100265
1764763511.857118,3.90656,3.5861,1.3734,-0.88940202,0.320006505,-0.316100265
1764763511.857118,3.90656,3.5861,1.3734,-0.88940202,0.320006505,-0.316100265
1764763511.857118,3.90656,3.5861,1.3734,-0.88940202,0.320006505,-0.316100265
1764763511.857118,3.90656,3.5861,1.3734,-0.88940202,0.320006505,-0.316100265
1764763511.857118,3.90656,3.5861,1.3734,-0.88940202,0.320006505,-0.316100265
1764763511.903173,2.62472,4.15072,1.35814,-0.89013444,0.3210441,-0.317687175
1764763511.903173,2.62472,4.15072,1.35814,-0.89013444,0.3210441,-0.317687175
1764763511.903173,2.62472,4.15072,1.35814,-0.89013444,0.3210441,-0.317687175
1764763511.903173,2.62472,4.15072,1.35814,-0.89013444,0.3210441,-0.317687175
1764763511.903173,2.62472,4.15072,1.35814,-0.89013444,0.3210441,-0.317687175
1764763511.903173,2.62472,4.15072,1.35814,-0.89013444,0.3210441,-0.317687175
1764763511.903173,2.62472,4.15072,1.35814,-0.89013444,0.3210441,-0.317687175
1764763511.903173,2.62472,4.15072,1.35814,-0.89013444,0.3210441,-0.317687175
1764763511.903173,2.62472,4.15072,1.35814,-0.89013444,0.3210441,-0.317687175
1764763511.903173,2.62472,4.15072,1.35814,-0.89013444,0.3210441,-0.317687175
1764763511.903173,1.7549,4.33384,0.85456,-0.89001237,0.320860995,-0.31835856
1764763511.903173,1.7549,4.33384,0.85456,-0.89001237,0.320860995,-0.31835856
1764763511.903173,1.7549,4.33384,0.85456,-0.89001237,0.320860995,-0.31835856
1764763511.903173,1.7549,4.33384,0.85456,-0.89001237,0.320860995,-0.31835856
1764763511.903173,1.7549,4.33384,0.85456,-0.89001237,0.320860995,-0.31835856
1764763511.903173,1.7549,4.33384,0.85456,-0.89001237,0.320860995,-0.31835856
1764763511.903173,1.7549,4.33384,0.85456,-0.89001237,0.320860995,-0.31835856
1764763511.903173,1.7549,4.33384,0.85456,-0.89001237,0.320860995,-0.31835856
1764763511.903173,1.7549,4.33384,0.85456,-0.89001237,0.320860995,-0.31835856
1764763511.903173,1.7549,4.33384,0.85456,-0.89001237,0.320860995,-0.31835856
1764763511.903173,1.48022,3.21986,0.4578,-0.88891374,0.31933512,-0.317565105
1764763511.903173,1.48022,3.21986,0.4578,-0.88891374,0.31933512,-0.317565105
1764763511.9472704,1.48022,3.21986,0.4578,-0.88891374,0.31933512,-0.317565105
1764763511.948299,1.48022,3.21986,0.4578,-0.88891374,0.31933512,-0.317565105
1764763511.948299,1.48022,3.21986,0.4578,-0.88891374,0.31933512,-0.317565105
1764763511.948299,1.48022,3.21986,0.4578,-0.88891374,0.31933512,-0.317565105
1764763511.948299,1.48022,3.21986,0.4578,-0.88891374,0.31933512,-0.317565105
1764763511.948299,1.48022,3.21986,0.4578,-0.88891374,0.31933512,-0.317565105
1764763511.948299,1.48022,3.21986,0.4578,-0.88891374,0.31933512,-0.317565105
1764763511.948299,1.48022,3.21986,0.4578,-0.88891374,0.31933512,-0.317565105
1764763511.948299,0.4578,3.8913,0.0,-0.888974775,0.31799235,-0.31835856
1764763511.948299,0.4578,3.8913,0.0,-0.888974775,0.31799235,-0.31835856
1764763511.948299,0.4578,3.8913,0.0,-0.888974775,0.31799235,-0.31835856
1764763511.948299,0.4578,3.8913,0.0,-0.888974775,0.31799235,-0.31835856
1764763511.948299,0.4578,3.8913,0.0,-0.888974775,0.31799235,-0.31835856
1764763511.948299,0.4578,3.8913,0.0,-0.888974775,0.31799235,-0.31835856
1764763511.948299,0.4578,3.8913,0.0,-0.888974775,0.31799235,-0.31835856
1764763511.948299,0.4578,3.8913,0.0,-0.888974775,0.31799235,-0.31835856
1764763511.948299,0.4578,3.8913,0.0,-0.888974775,0.31799235,-0.31835856
1764763511.948299,0.4578,3.8913,0.0,-0.888974775,0.31799235,-0.31835856
1764763511.948299,-1.92276,3.64714,0.3204599999999999,-0.89001237,0.318175455,-0.318297525
1764763511.948299,-1.92276,3.64714,0.3204599999999999,-0.89001237,0.318175455,-0.318297525
1764763511.948299,-1.92276,3.64714,0.3204599999999999,-0.89001237,0.318175455,-0.318297525
1764763511.948299,-1.92276,3.64714,0.3204599999999999,-0.89001237,0.318175455,-0.318297525
1764763511.9938676,-1.92276,3.64714,0.3204599999999999,-0.89001237,0.318175455,-0.318297525
1764763511.9938676,-1.92276,3.64714,0.3204599999999999,-0.89001237,0.318175455,-0.318297525
1764763511.9938676,-1.92276,3.64714,0.3204599999999999,-0.89001237,0.318175455,-0.318297525
1764763511.9938676,-1.92276,3.64714,0.3204599999999999,-0.89001237,0.318175455,-0.318297525
1764763511.9938676,-1.92276,3.64714,0.3204599999999999,-0.89001237,0.318175455,-0.318297525
1764763511.9938676,-1.92276,3.64714,0.3204599999999999,-0.89001237,0.318175455,-0.318297525
1764763511.9938676,-3.52506,3.70818,0.3357199999999999,-0.890073405,0.3186027,-0.318297525
1764763511.9938676,-3.52506,3.70818,0.3357199999999999,-0.890073405,0.3186027,-0.318297525
1764763511.9938676,-3.52506,3.70818,0.3357199999999999,-0.890073405,0.3186027,-0.318297525
1764763511.9938676,-3.52506,3.70818,0.3357199999999999,-0.890073405,0.3186027,-0.318297525
1764763511.9938676,-3.52506,3.70818,0.3357199999999999,-0.890073405,0.3186027,-0.318297525
1764763511.9938676,-3.52506,3.70818,0.3357199999999999,-0.890073405,0.3186027,-0.318297525
1764763511.9938676,-3.52506,3.70818,0.3357199999999999,-0.890073405,0.3186027,-0.318297525
1764763511.9938676,-3.52506,3.70818,0.3357199999999999,-0.890073405,0.3186027,-0.318297525
1764763511.9948776,-3.52506,3.70818,0.3357199999999999,-0.890073405,0.3186027,-0.318297525
1764763511.9948776,-3.52506,3.70818,0.3357199999999999,-0.890073405,0.3186027,-0.318297525
1764763511.9948776,-4.059159999999999,4.15072,0.24416,-0.8902565100000001,0.318907875,-0.317931315
1764763511.9948776,-4.059159999999999,4.15072,0.24416,-0.8902565100000001,0.318907875,-0.317931315
1764763511.9948776,-4.059159999999999,4.15072,0.24416,-0.8902565100000001,0.318907875,-0.317931315
1764763511.9948776,-4.059159999999999,4.15072,0.24416,-0.8902565100000001,0.318907875,-0.317931315
1764763511.9948776,-4.059159999999999,4.15072,0.24416,-0.8902565100000001,0.318907875,-0.317931315
1764763511.9948776,-4.059159999999999,4.15072,0.24416,-0.8902565100000001,0.318907875,-0.317931315
1764763511.9948776,-4.059159999999999,4.15072,0.24416,-0.8902565100000001,0.318907875,-0.317931315
1764763511.9948776,-4.059159999999999,4.15072,0.24416,-0.8902565100000001,0.318907875,-0.317931315
1764763512.0436108,-4.059159999999999,4.15072,0.24416,-0.8902565100000001,0.318907875,-0.317931315
1764763512.0436108,-4.059159999999999,4.15072,0.24416,-0.8902565100000001,0.318907875,-0.317931315
1764763512.0436108,-3.40298,3.83026,0.06104,-0.890561685,0.31823649,-0.31701579
1764763512.0436108,-3.40298,3.83026,0.06104,-0.890561685,0.31823649,-0.31701579
1764763512.0436108,-3.40298,3.83026,0.06104,-0.890561685,0.31823649,-0.31701579
1764763512.0436108,-3.40298,3.83026,0.06104,-0.890561685,0.31823649,-0.31701579
1764763512.0436108,-3.40298,3.83026,0.06104,-0.890561685,0.31823649,-0.31701579
1764763512.0436108,-3.40298,3.83026,0.06104,-0.890561685,0.31823649,-0.31701579
1764763512.0436108,-3.40298,3.83026,0.06104,-0.890561685,0.31823649,-0.31701579
1764763512.0436108,-3.40298,3.83026,0.06104,-0.890561685,0.31823649,-0.31701579
1764763512.0436108,-3.40298,3.83026,0.06104,-0.890561685,0.31823649,-0.31701579
1764763512.0436108,-3.40298,3.83026,0.06104,-0.890561685,0.31823649,-0.31701579
1764763512.0436108,-2.92992,3.72344,-0.09156,-0.89037858,0.31835856,-0.316588545
1764763512.0436108,-2.92992,3.72344,-0.09156,-0.89037858,0.31835856,-0.316588545
1764763512.0436108,-2.92992,3.72344,-0.09156,-0.89037858,0.31835856,-0.316588545
1764763512.0436108,-2.92992,3.72344,-0.09156,-0.89037858,0.31835856,-0.316588545
1764763512.0436108,-2.92992,3.72344,-0.09156,-0.89037858,0.31835856,-0.316588545
1764763512.0436108,-2.92992,3.72344,-0.09156,-0.89037858,0.31835856,-0.316588545
1764763512.0436108,-2.92992,3.72344,-0.09156,-0.89037858,0.31835856,-0.316588545
1764763512.0436108,-2.92992,3.72344,-0.09156,-0.89037858,0.31835856,-0.316588545
1764763512.0436108,-2.92992,3.72344,-0.09156,-0.89037858,0.31835856,-0.316588545
1764763512.0436108,-2.92992,3.72344,-0.09156,-0.89037858,0.31835856,-0.316588545
1764763512.0436108,-2.38056,3.98286,-0.0762999999999999,-0.890561685,0.31909098,-0.31591716
1764763512.0436108,-2.38056,3.98286,-0.0762999999999999,-0.890561685,0.31909098,-0.31591716
1764763512.09167,-2.38056,3.98286,-0.0762999999999999,-0.890561685,0.31909098,-0.31591716
1764763512.09167,-2.38056,3.98286,-0.0762999999999999,-0.890561685,0.31909098,-0.31591716
1764763512.09167,-2.38056,3.98286,-0.0762999999999999,-0.890561685,0.31909098,-0.31591716
1764763512.09167,-2.38056,3.98286,-0.0762999999999999,-0.890561685,0.31909098,-0.31591716
1764763512.09167,-2.38056,3.98286,-0.0762999999999999,-0.890561685,0.31909098,-0.31591716
1764763512.09167,-2.38056,3.98286,-0.0762999999999999,-0.890561685,0.31909098,-0.31591716
1764763512.09167,-2.38056,3.98286,-0.0762999999999999,-0.890561685,0.31909098,-0.31591716
1764763512.09167,-2.38056,3.98286,-0.0762999999999999,-0.890561685,0.31909098,-0.31591716
1764763512.09167,-1.54126,3.79974,-0.13734,-0.89123307,0.318419595,-0.315001635
1764763512.09167,-1.54126,3.79974,-0.13734,-0.89123307,0.318419595,-0.315001635
1764763512.09167,-1.54126,3.79974,-0.13734,-0.89123307,0.318419595,-0.315001635
1764763512.09167,-1.54126,3.79974,-0.13734,-0.89123307,0.318419595,-0.315001635
1764763512.09167,-1.54126,3.79974,-0.13734,-0.89123307,0.318419595,-0.315001635
1764763512.09167,-1.54126,3.79974,-0.13734,-0.89123307,0.318419595,-0.315001635
1764763512.09167,-1.54126,3.79974,-0.13734,-0.89123307,0.318419595,-0.315001635
1764763512.092687,-1.54126,3.79974,-0.13734,-0.89123307,0.318419595,-0.315001635
1764763512.092687,-1.54126,3.79974,-0.13734,-0.89123307,0.318419595,-0.315001635
1764763512.092687,-1.54126,3.79974,-0.13734,-0.89123307,0.318419595,-0.315001635
1764763512.092687,-0.18312,3.84552,0.763,-0.8917823850000001,0.316222335,-0.31530681
1764763512.092687,-0.18312,3.84552,0.763,-0.8917823850000001,0.316222335,-0.31530681
1764763512.092687,-0.18312,3.84552,0.763,-0.8917823850000001,0.316222335,-0.31530681
1764763512.092687,-0.18312,3.84552,0.763,-0.8917823850000001,0.316222335,-0.31530681
1764763512.092687,-0.18312,3.84552,0.763,-0.8917823850000001,0.316222335,-0.31530681
1764763512.092687,-0.18312,3.84552,0.763,-0.8917823850000001,0.316222335,-0.31530681
1764763512.1352274,-0.18312,3.84552,0.763,-0.8917823850000001,0.316222335,-0.31530681
1764763512.1352274,-0.18312,3.84552,0.763,-0.8917823850000001,0.316222335,-0.31530681
1764763512.1352274,-0.18312,3.84552,0.763,-0.8917823850000001,0.316222335,-0.31530681
1764763512.1352274,-0.18312,3.84552,0.763,-0.8917823850000001,0.316222335,-0.31530681
1764763512.1352274,0.82404,4.0439,0.763,-0.89208756,0.31555095,-0.315245775
1764763512.1352274,0.82404,4.0439,0.763,-0.89208756,0.31555095,-0.315245775
1764763512.1352274,0.82404,4.0439,0.763,-0.89208756,0.31555095,-0.315245775
1764763512.1357334,0.82404,4.0439,0.763,-0.89208756,0.31555095,-0.315245775
1764763512.1860254,0.82404,4.0439,0.763,-0.89208756,0.31555095,-0.315245775
1764763512.1860254,0.82404,4.0439,0.763,-0.89208756,0.31555095,-0.315245775
1764763512.1860254,0.82404,4.0439,0.763,-0.89208756,0.31555095,-0.315245775
1764763512.1860254,0.82404,4.0439,0.763,-0.89208756,0.31555095,-0.315245775
1764763512.1860254,0.82404,4.0439,0.763,-0.89208756,0.31555095,-0.315245775
1764763512.1860254,0.82404,4.0439,0.763,-0.89208756,0.31555095,-0.315245775
1764763512.1860254,1.4497,4.45592,0.36624,-0.891111,0.316222335,-0.315245775
1764763512.1860254,1.4497,4.45592,0.36624,-0.891111,0.316222335,-0.315245775
1764763512.1860254,1.4497,4.45592,0.36624,-0.891111,0.316222335,-0.315245775
1764763512.1860254,1.4497,4.45592,0.36624,-0.891111,0.316222335,-0.315245775
1764763512.1860254,1.4497,4.45592,0.36624,-0.891111,0.316222335,-0.315245775
1764763512.1860254,1.4497,4.45592,0.36624,-0.891111,0.316222335,-0.315245775
1764763512.1860254,1.4497,4.45592,0.36624,-0.891111,0.316222335,-0.315245775
1764763512.1860254,1.4497,4.45592,0.36624,-0.891111,0.316222335,-0.315245775
1764763512.1860254,1.4497,4.45592,0.36624,-0.891111,0.316222335,-0.315245775
1764763512.1860254,1.4497,4.45592,0.36624,-0.891111,0.316222335,-0.315245775
1764763512.1860254,1.00716,4.6543,0.79352,-0.890073405,0.317443035,-0.315123705
1764763512.1860254,1.00716,4.6543,0.79352,-0.890073405,0.317443035,-0.315123705
1764763512.1860254,1.00716,4.6543,0.79352,-0.890073405,0.317443035,-0.315123705
1764763512.1860254,1.00716,4.6543,0.79352,-0.890073405,0.317443035,-0.315123705
1764763512.1860254,1.00716,4.6543,0.79352,-0.890073405,0.317443035,-0.315123705
1764763512.1860254,1.00716,4.6543,0.79352,-0.890073405,0.317443035,-0.315123705
1764763512.1860254,1.00716,4.6543,0.79352,-0.890073405,0.317443035,-0.315123705
1764763512.1860254,1.00716,4.6543,0.79352,-0.890073405,0.317443035,-0.315123705
1764763512.1860254,1.00716,4.6543,0.79352,-0.890073405,0.317443035,-0.315123705
1764763512.1860254,1.00716,4.6543,0.79352,-0.890073405,0.317443035,-0.315123705
1764763512.1860254,-0.13734,4.66956,0.21364,-0.88842546,0.31799235,-0.31518474
1764763512.1860254,-0.13734,4.66956,0.21364,-0.88842546,0.31799235,-0.31518474
1764763512.1860254,-0.13734,4.66956,0.21364,-0.88842546,0.31799235,-0.31518474
1764763512.1860254,-0.13734,4.66956,0.21364,-0.88842546,0.31799235,-0.31518474
1764763512.1860254,-0.13734,4.66956,0.21364,-0.88842546,0.31799235,-0.31518474
1764763512.1860254,-0.13734,4.66956,0.21364,-0.88842546,0.31799235,-0.31518474
1764763512.1860254,-0.13734,4.66956,0.21364,-0.88842546,0.31799235,-0.31518474
1764763512.1860254,-0.13734,4.66956,0.21364,-0.88842546,0.31799235,-0.31518474
1764763512.1860254,-0.13734,4.66956,0.21364,-0.88842546,0.31799235,-0.31518474
1764763512.1860254,-0.13734,4.66956,0.21364,-0.88842546,0.31799235,-0.31518474
1764763512.1860254,-0.77826,4.440659999999999,-0.27468,-0.8876320050000001,0.31823649,-0.31542888
1764763512.1860254,-0.77826,4.440659999999999,-0.27468,-0.8876320050000001,0.31823649,-0.31542888
1764763512.1860254,-0.77826,4.440659999999999,-0.27468,-0.8876320050000001,0.31823649,-0.31542888
1764763512.1860254,-0.77826,4.440659999999999,-0.27468,-0.8876320050000001,0.31823649,-0.31542888
1764763512.230384,-0.77826,4.440659999999999,-0.27468,-0.8876320050000001,0.31823649,-0.31542888
1764763512.2309048,-0.77826,4.440659999999999,-0.27468,-0.8876320050000001,0.31823649,-0.31542888
1764763512.2309048,-0.77826,4.440659999999999,-0.27468,-0.8876320050000001,0.31823649,-0.31542888
1764763512.2309048,-0.77826,4.440659999999999,-0.27468,-0.8876320050000001,0.31823649,-0.31542888
1764763512.2309048,-0.77826,4.440659999999999,-0.27468,-0.8876320050000001,0.31823649,-0.31542888
1764763512.2309048,-0.77826,4.440659999999999,-0.27468,-0.8876320050000001,0.31823649,-0.31542888
1764763512.2309048,-1.61756,5.17314,-0.18312,-0.88720476,0.31811442,-0.3149406
1764763512.2309048,-1.61756,5.17314,-0.18312,-0.88720476,0.31811442,-0.3149406
1764763512.2309048,-1.61756,5.17314,-0.18312,-0.88720476,0.31811442,-0.3149406
1764763512.2309048,-1.61756,5.17314,-0.18312,-0.88720476,0.31811442,-0.3149406
1764763512.2309048,-1.61756,5.17314,-0.18312,-0.88720476,0.31811442,-0.3149406
1764763512.2309048,-1.61756,5.17314,-0.18312,-0.88720476,0.31811442,-0.3149406
1764763512.2309048,-1.61756,5.17314,-0.18312,-0.88720476,0.31811442,-0.3149406
1764763512.2309048,-1.61756,5.17314,-0.18312,-0.88720476,0.31811442,-0.3149406
1764763512.2309048,-1.61756,5.17314,-0.18312,-0.88720476,0.31811442,-0.3149406
1764763512.2314186,-1.61756,5.17314,-0.18312,-0.88720476,0.31811442,-0.3149406
1764763512.2314186,-2.53316,4.47118,-0.01526,-0.8876320050000001,0.318907875,-0.315001635
1764763512.2314186,-2.53316,4.47118,-0.01526,-0.8876320050000001,0.318907875,-0.315001635
1764763512.2314186,-2.53316,4.47118,-0.01526,-0.8876320050000001,0.318907875,-0.315001635
1764763512.2314186,-2.53316,4.47118,-0.01526,-0.8876320050000001,0.318907875,-0.315001635
1764763512.2776186,-2.53316,4.47118,-0.01526,-0.8876320050000001,0.318907875,-0.315001635
1764763512.2781303,-2.53316,4.47118,-0.01526,-0.8876320050000001,0.318907875,-0.315001635
1764763512.2781303,-2.53316,4.47118,-0.01526,-0.8876320050000001,0.318907875,-0.315001635
1764763512.2781303,-2.53316,4.47118,-0.01526,-0.8876320050000001,0.318907875,-0.315001635
1764763512.2781303,-2.53316,4.47118,-0.01526,-0.8876320050000001,0.318907875,-0.315001635
1764763512.2781303,-2.53316,4.47118,-0.01526,-0.8876320050000001,0.318907875,-0.315001635
1764763512.2781303,-2.16692,4.08968,0.21364,-0.8891578800000001,0.319518225,-0.315001635
1764763512.2781303,-2.16692,4.08968,0.21364,-0.8891578800000001,0.319518225,-0.315001635
1764763512.2781303,-2.16692,4.08968,0.21364,-0.8891578800000001,0.319518225,-0.315001635
1764763512.2781303,-2.16692,4.08968,0.21364,-0.8891578800000001,0.319518225,-0.315001635
1764763512.2781303,-2.16692,4.08968,0.21364,-0.8891578800000001,0.319518225,-0.315001635
1764763512.2791452,-2.16692,4.08968,0.21364,-0.8891578800000001,0.319518225,-0.315001635
1764763512.2791452,-2.16692,4.08968,0.21364,-0.8891578800000001,0.319518225,-0.315001635
1764763512.2791452,-2.16692,4.08968,0.21364,-0.8891578800000001,0.319518225,-0.315001635
1764763512.2791452,-2.16692,4.08968,0.21364,-0.8891578800000001,0.319518225,-0.315001635
1764763512.2791452,-2.16692,4.08968,0.21364,-0.8891578800000001,0.319518225,-0.315001635
1764763512.2791452,-1.72438,3.9676,0.54936,-0.890683755,0.319396155,-0.31420818
1764763512.2791452,-1.72438,3.9676,0.54936,-0.890683755,0.319396155,-0.31420818
1764763512.2791452,-1.72438,3.9676,0.54936,-0.890683755,0.319396155,-0.31420818
1764763512.2791452,-1.72438,3.9676,0.54936,-0.890683755,0.319396155,-0.31420818
1764763512.2791452,-1.72438,3.9676,0.54936,-0.890683755,0.319396155,-0.31420818
1764763512.2791452,-1.72438,3.9676,0.54936,-0.890683755,0.319396155,-0.31420818
1764763512.2791452,-1.72438,3.9676,0.54936,-0.890683755,0.319396155,-0.31420818
1764763512.2801456,-1.72438,3.9676,0.54936,-0.890683755,0.319396155,-0.31420818
1764763512.3236828,-1.72438,3.9676,0.54936,-0.890683755,0.319396155,-0.31420818
1764763512.3236828,-1.72438,3.9676,0.54936,-0.890683755,0.319396155,-0.31420818
1764763512.3236828,0.09156,3.47928,0.82404,-0.89196549,0.317076825,-0.313658865
1764763512.3236828,0.09156,3.47928,0.82404,-0.89196549,0.317076825,-0.313658865
1764763512.3236828,0.09156,3.47928,0.82404,-0.89196549,0.317076825,-0.313658865
1764763512.3236828,0.09156,3.47928,0.82404,-0.89196549,0.317076825,-0.313658865
1764763512.3236828,0.09156,3.47928,0.82404,-0.89196549,0.317076825,-0.313658865
1764763512.3236828,0.09156,3.47928,0.82404,-0.89196549,0.317076825,-0.313658865
1764763512.3236828,0.09156,3.47928,0.82404,-0.89196549,0.317076825,-0.313658865
1764763512.3236828,0.09156,3.47928,0.82404,-0.89196549,0.317076825,-0.313658865
1764763512.3236828,0.09156,3.47928,0.82404,-0.89196549,0.317076825,-0.313658865
1764763512.3246918,0.09156,3.47928,0.82404,-0.89196549,0.317076825,-0.313658865
1764763512.3246918,1.8312,4.18124,1.57178,-0.892148595,0.315611985,-0.313292655
1764763512.3246918,1.8312,4.18124,1.57178,-0.892148595,0.315611985,-0.313292655
1764763512.3246918,1.8312,4.18124,1.57178,-0.892148595,0.315611985,-0.313292655
1764763512.3246918,1.8312,4.18124,1.57178,-0.892148595,0.315611985,-0.313292655
1764763512.3246918,1.8312,4.18124,1.57178,-0.892148595,0.315611985,-0.313292655
1764763512.3246918,1.8312,4.18124,1.57178,-0.892148595,0.315611985,-0.313292655
1764763512.3246918,1.8312,4.18124,1.57178,-0.892148595,0.315611985,-0.313292655
1764763512.3246918,1.8312,4.18124,1.57178,-0.892148595,0.315611985,-0.313292655
1764763512.3246918,1.8312,4.18124,1.57178,-0.892148595,0.315611985,-0.313292655
1764763512.3246918,1.8312,4.18124,1.57178,-0.892148595,0.315611985,-0.313292655
1764763512.3246918,3.2809,3.84552,1.17502,-0.890195475,0.313536795,-0.313292655
1764763512.3246918,3.2809,3.84552,1.17502,-0.890195475,0.313536795,-0.313292655
1764763512.369834,3.2809,3.84552,1.17502,-0.890195475,0.313536795,-0.313292655
1764763512.369834,3.2809,3.84552,1.17502,-0.890195475,0.313536795,-0.313292655
1764763512.369834,3.2809,3.84552,1.17502,-0.890195475,0.313536795,-0.313292655
1764763512.3708563,3.2809,3.84552,1.17502,-0.890195475,0.313536795,-0.313292655
1764763512.3708563,3.2809,3.84552,1.17502,-0.890195475,0.313536795,-0.313292655
1764763512.3708563,3.2809,3.84552,1.17502,-0.890195475,0.313536795,-0.313292655
1764763512.3708563,3.2809,3.84552,1.17502,-0.890195475,0.313536795,-0.313292655
1764763512.3708563,3.2809,3.84552,1.17502,-0.890195475,0.313536795,-0.313292655
1764763512.3708563,4.83742,3.86078,0.71722,-0.888730635,0.310729185,-0.313780935
1764763512.3708563,4.83742,3.86078,0.71722,-0.888730635,0.310729185,-0.313780935
1764763512.3708563,4.83742,3.86078,0.71722,-0.888730635,0.310729185,-0.313780935
1764763512.3708563,4.83742,3.86078,0.71722,-0.888730635,0.310729185,-0.313780935
1764763512.3708563,4.83742,3.86078,0.71722,-0.888730635,0.310729185,-0.313780935
1764763512.3708563,4.83742,3.86078,0.71722,-0.888730635,0.310729185,-0.313780935
1764763512.3708563,4.83742,3.86078,0.71722,-0.888730635,0.310729185,-0.313780935
1764763512.3708563,4.83742,3.86078,0.71722,-0.888730635,0.310729185,-0.313780935
1764763512.3708563,4.83742,3.86078,0.71722,-0.888730635,0.310729185,-0.313780935
1764763512.3708563,4.83742,3.86078,0.71722,-0.888730635,0.310729185,-0.313780935
1764763512.3708563,5.78354,3.72344,0.8392999999999999,-0.88964616,0.311827815,-0.315489915
1764763512.3708563,5.78354,3.72344,0.8392999999999999,-0.88964616,0.311827815,-0.315489915
1764763512.3708563,5.78354,3.72344,0.8392999999999999,-0.88964616,0.311827815,-0.315489915
1764763512.3708563,5.78354,3.72344,0.8392999999999999,-0.88964616,0.311827815,-0.315489915
1764763512.3708563,5.78354,3.72344,0.8392999999999999,-0.88964616,0.311827815,-0.315489915
1764763512.3708563,5.78354,3.72344,0.8392999999999999,-0.88964616,0.311827815,-0.315489915
1764763512.4167857,5.78354,3.72344,0.8392999999999999,-0.88964616,0.311827815,-0.315489915
1764763512.4167857,5.78354,3.72344,0.8392999999999999,-0.88964616,0.311827815,-0.315489915
1764763512.4167857,5.78354,3.72344,0.8392999999999999,-0.88964616,0.311827815,-0.315489915
1764763512.4167857,5.78354,3.72344,0.8392999999999999,-0.88964616,0.311827815,-0.315489915
1764763512.4167857,4.33384,4.08968,1.84646,-0.890439615,0.315856125,-0.31640544
1764763512.4167857,4.33384,4.08968,1.84646,-0.890439615,0.315856125,-0.31640544
1764763512.4167857,4.33384,4.08968,1.84646,-0.890439615,0.315856125,-0.31640544
1764763512.4167857,4.33384,4.08968,1.84646,-0.890439615,0.315856125,-0.31640544
1764763512.4167857,4.33384,4.08968,1.84646,-0.890439615,0.315856125,-0.31640544
1764763512.4167857,4.33384,4.08968,1.84646,-0.890439615,0.315856125,-0.31640544
1764763512.4167857,4.33384,4.08968,1.84646,-0.890439615,0.315856125,-0.31640544
1764763512.4167857,4.33384,4.08968,1.84646,-0.890439615,0.315856125,-0.31640544
1764763512.4167857,4.33384,4.08968,1.84646,-0.890439615,0.315856125,-0.31640544
1764763512.4167857,4.33384,4.08968,1.84646,-0.890439615,0.315856125,-0.31640544
1764763512.4167857,2.42634,3.61662,1.26658,-0.8898903,0.320250645,-0.317931315
1764763512.4167857,2.42634,3.61662,1.26658,-0.8898903,0.320250645,-0.317931315
1764763512.4167857,2.42634,3.61662,1.26658,-0.8898903,0.320250645,-0.317931315
1764763512.4167857,2.42634,3.61662,1.26658,-0.8898903,0.320250645,-0.317931315
1764763512.4167857,2.42634,3.61662,1.26658,-0.8898903,0.320250645,-0.317931315
1764763512.4167857,2.42634,3.61662,1.26658,-0.8898903,0.320250645,-0.317931315
1764763512.4167857,2.42634,3.61662,1.26658,-0.8898903,0.320250645,-0.317931315
1764763512.4167857,2.42634,3.61662,1.26658,-0.8898903,0.320250645,-0.317931315
1764763512.4167857,2.42634,3.61662,1.26658,-0.8898903,0.320250645,-0.317931315
1764763512.4167857,2.42634,3.61662,1.26658,-0.8898903,0.320250645,-0.317931315
1764763512.4630768,0.1525999999999999,3.41824,0.12208,-0.888486495,0.321593415,-0.318785805
1764763512.4630768,0.1525999999999999,3.41824,0.12208,-0.888486495,0.321593415,-0.318785805
1764763512.4630768,0.1525999999999999,3.41824,0.12208,-0.888486495,0.321593415,-0.318785805
1764763512.4630768,0.1525999999999999,3.41824,0.12208,-0.888486495,0.321593415,-0.318785805
1764763512.4630768,0.1525999999999999,3.41824,0.12208,-0.888486495,0.321593415,-0.318785805
1764763512.4630768,0.1525999999999999,3.41824,0.12208,-0.888486495,0.321593415,-0.318785805
1764763512.4630768,0.1525999999999999,3.41824,0.12208,-0.888486495,0.321593415,-0.318785805
1764763512.4630768,0.1525999999999999,3.41824,0.12208,-0.888486495,0.321593415,-0.318785805
1764763512.4641693,0.1525999999999999,3.41824,0.12208,-0.888486495,0.321593415,-0.318785805
1764763512.4641693,0.1525999999999999,3.41824,0.12208,-0.888486495,0.321593415,-0.318785805
1764763512.4641693,-1.23606,3.21986,-0.12208,-0.888242355,0.32067789,-0.319640295
1764763512.4641693,-1.23606,3.21986,-0.12208,-0.888242355,0.32067789,-0.319640295
1764763512.4641693,-1.23606,3.21986,-0.12208,-0.888242355,0.32067789,-0.319640295
1764763512.4641693,-1.23606,3.21986,-0.12208,-0.888242355,0.32067789,-0.319640295
1764763512.4641693,-1.23606,3.21986,-0.12208,-0.888242355,0.32067789,-0.319640295
1764763512.4641693,-1.23606,3.21986,-0.12208,-0.888242355,0.32067789,-0.319640295
1764763512.4641693,-1.23606,3.21986,-0.12208,-0.888242355,0.32067789,-0.319640295
1764763512.4641693,-1.23606,3.21986,-0.12208,-0.888242355,0.32067789,-0.319640295
1764763512.4641693,-1.23606,3.21986,-0.12208,-0.888242355,0.32067789,-0.319640295
1764763512.4641693,-1.23606,3.21986,-0.12208,-0.888242355,0.32067789,-0.319640295
1764763512.4641693,-1.6633399999999998,3.00622,-0.01526,-0.88903581,0.31970133,-0.31909098
1764763512.4641693,-1.6633399999999998,3.00622,-0.01526,-0.88903581,0.31970133,-0.31909098
1764763512.510303,-1.6633399999999998,3.00622,-0.01526,-0.88903581,0.31970133,-0.31909098
1764763512.510303,-1.6633399999999998,3.00622,-0.01526,-0.88903581,0.31970133,-0.31909098
1764763512.510303,-1.6633399999999998,3.00622,-0.01526,-0.88903581,0.31970133,-0.31909098
1764763512.510303,-1.6633399999999998,3.00622,-0.01526,-0.88903581,0.31970133,-0.31909098
1764763512.510303,-1.6633399999999998,3.00622,-0.01526,-0.88903581,0.31970133,-0.31909098
1764763512.510303,-1.6633399999999998,3.00622,-0.01526,-0.88903581,0.31970133,-0.31909098
1764763512.510303,-1.6633399999999998,3.00622,-0.01526,-0.88903581,0.31970133,-0.31909098
1764763512.510303,-1.6633399999999998,3.00622,-0.01526,-0.88903581,0.31970133,-0.31909098
1764763512.510303,-0.85456,3.46402,0.88508,-0.890439615,0.3186027,-0.31811442
1764763512.510303,-0.85456,3.46402,0.88508,-0.890439615,0.3186027,-0.31811442
1764763512.510303,-0.85456,3.46402,0.88508,-0.890439615,0.3186027,-0.31811442
1764763512.510303,-0.85456,3.46402,0.88508,-0.890439615,0.3186027,-0.31811442
1764763512.510303,-0.85456,3.46402,0.88508,-0.890439615,0.3186027,-0.31811442
1764763512.510303,-0.85456,3.46402,0.88508,-0.890439615,0.3186027,-0.31811442
1764763512.510303,-0.85456,3.46402,0.88508,-0.890439615,0.3186027,-0.31811442
1764763512.510303,-0.85456,3.46402,0.88508,-0.890439615,0.3186027,-0.31811442
1764763512.510303,-0.85456,3.46402,0.88508,-0.890439615,0.3186027,-0.31811442
1764763512.510303,-0.85456,3.46402,0.88508,-0.890439615,0.3186027,-0.31811442
1764763512.510303,0.47306,3.76922,0.54936,-0.891049965,0.316588545,-0.31762614
1764763512.510303,0.47306,3.76922,0.54936,-0.891049965,0.316588545,-0.31762614
1764763512.510303,0.47306,3.76922,0.54936,-0.891049965,0.316588545,-0.31762614
1764763512.510303,0.47306,3.76922,0.54936,-0.891049965,0.316588545,-0.31762614
1764763512.555681,0.47306,3.76922,0.54936,-0.891049965,0.316588545,-0.31762614
1764763512.555681,0.47306,3.76922,0.54936,-0.891049965,0.316588545,-0.31762614
1764763512.555681,0.47306,3.76922,0.54936,-0.891049965,0.316588545,-0.31762614
1764763512.555681,0.47306,3.76922,0.54936,-0.891049965,0.316588545,-0.31762614
1764763512.555681,0.47306,3.76922,0.54936,-0.891049965,0.316588545,-0.31762614
1764763512.555681,0.47306,3.76922,0.54936,-0.891049965,0.316588545,-0.31762614
1764763512.555681,0.28994,3.78448,0.9919,-0.891538245,0.31506267,-0.318053385
1764763512.555681,0.28994,3.78448,0.9919,-0.891538245,0.31506267,-0.318053385
1764763512.555681,0.28994,3.78448,0.9919,-0.891538245,0.31506267,-0.318053385
1764763512.555681,0.28994,3.78448,0.9919,-0.891538245,0.31506267,-0.318053385
1764763512.555681,0.28994,3.78448,0.9919,-0.891538245,0.31506267,-0.318053385
1764763512.555681,0.28994,3.78448,0.9919,-0.891538245,0.31506267,-0.318053385
1764763512.555681,0.28994,3.78448,0.9919,-0.891538245,0.31506267,-0.318053385
1764763512.555681,0.28994,3.78448,0.9919,-0.891538245,0.31506267,-0.318053385
1764763512.555681,0.28994,3.78448,0.9919,-0.891538245,0.31506267,-0.318053385
1764763512.555681,0.28994,3.78448,0.9919,-0.891538245,0.31506267,-0.318053385
1764763512.555681,0.03052,4.16598,1.6633399999999998,-0.891049965,0.31420818,-0.318785805
1764763512.555681,0.03052,4.16598,1.6633399999999998,-0.891049965,0.31420818,-0.318785805
1764763512.5575247,0.03052,4.16598,1.6633399999999998,-0.891049965,0.31420818,-0.318785805
1764763512.5575247,0.03052,4.16598,1.6633399999999998,-0.891049965,0.31420818,-0.318785805
1764763512.5575247,0.03052,4.16598,1.6633399999999998,-0.891049965,0.31420818,-0.318785805
1764763512.5575247,0.03052,4.16598,1.6633399999999998,-0.891049965,0.31420818,-0.318785805
1764763512.5575247,0.03052,4.16598,1.6633399999999998,-0.891049965,0.31420818,-0.318785805
1764763512.5575247,0.03052,4.16598,1.6633399999999998,-0.891049965,0.31420818,-0.318785805
1764763512.6022365,0.03052,4.16598,1.6633399999999998,-0.891049965,0.31420818,-0.318785805
1764763512.6022365,0.03052,4.16598,1.6633399999999998,-0.891049965,0.31420818,-0.318785805
1764763512.6022365,-0.6714399999999999,3.69292,0.96138,-0.89037858,0.314757495,-0.319640295
1764763512.6022365,-0.6714399999999999,3.69292,0.96138,-0.89037858,0.314757495,-0.319640295
1764763512.6022365,-0.6714399999999999,3.69292,0.96138,-0.89037858,0.314757495,-0.319640295
1764763512.6022365,-0.6714399999999999,3.69292,0.96138,-0.89037858,0.314757495,-0.319640295
1764763512.6022365,-0.6714399999999999,3.69292,0.96138,-0.89037858,0.314757495,-0.319640295
1764763512.6022365,-0.6714399999999999,3.69292,0.96138,-0.89037858,0.314757495,-0.319640295
1764763512.6022365,-0.6714399999999999,3.69292,0.96138,-0.89037858,0.314757495,-0.319640295
1764763512.6022365,-0.6714399999999999,3.69292,0.96138,-0.89037858,0.314757495,-0.319640295
1764763512.6022365,-0.6714399999999999,3.69292,0.96138,-0.89037858,0.314757495,-0.319640295
1764763512.6022365,-0.6714399999999999,3.69292,0.96138,-0.89037858,0.314757495,-0.319640295
1764763512.6022365,-1.72438,3.55558,0.3509799999999999,-0.888974775,0.31567302,-0.31933512
1764763512.6022365,-1.72438,3.55558,0.3509799999999999,-0.888974775,0.31567302,-0.31933512
1764763512.6022365,-1.72438,3.55558,0.3509799999999999,-0.888974775,0.31567302,-0.31933512
1764763512.6032372,-1.72438,3.55558,0.3509799999999999,-0.888974775,0.31567302,-0.31933512
1764763512.6032372,-1.72438,3.55558,0.3509799999999999,-0.888974775,0.31567302,-0.31933512
1764763512.6032372,-1.72438,3.55558,0.3509799999999999,-0.888974775,0.31567302,-0.31933512
1764763512.6032372,-1.72438,3.55558,0.3509799999999999,-0.888974775,0.31567302,-0.31933512
1764763512.6032372,-1.72438,3.55558,0.3509799999999999,-0.888974775,0.31567302,-0.31933512
1764763512.6032372,-1.72438,3.55558,0.3509799999999999,-0.888974775,0.31567302,-0.31933512
1764763512.6032372,-1.72438,3.55558,0.3509799999999999,-0.888974775,0.31567302,-0.31933512
1764763512.6032372,-2.289,3.3572,0.18312,-0.888608565,0.316344405,-0.318297525
1764763512.6032372,-2.289,3.3572,0.18312,-0.888608565,0.316344405,-0.318297525
1764763512.6495402,-2.289,3.3572,0.18312,-0.888608565,0.316344405,-0.318297525
1764763512.6495402,-2.289,3.3572,0.18312,-0.888608565,0.316344405,-0.318297525
1764763512.6495402,-2.289,3.3572,0.18312,-0.888608565,0.316344405,-0.318297525
1764763512.6495402,-2.289,3.3572,0.18312,-0.888608565,0.316344405,-0.318297525
1764763512.6495402,-2.289,3.3572,0.18312,-0.888608565,0.316344405,-0.318297525
1764763512.6495402,-2.289,3.3572,0.18312,-0.888608565,0.316344405,-0.318297525
1764763512.6495402,-2.289,3.3572,0.18312,-0.888608565,0.316344405,-0.318297525
1764763512.6495402,-2.289,3.3572,0.18312,-0.888608565,0.316344405,-0.318297525
1764763512.6500487,-2.39582,3.2809,0.1525999999999999,-0.88854753,0.31567302,-0.317320965
1764763512.6500487,-2.39582,3.2809,0.1525999999999999,-0.88854753,0.31567302,-0.317320965
1764763512.6500487,-2.39582,3.2809,0.1525999999999999,-0.88854753,0.31567302,-0.317320965
1764763512.6500487,-2.39582,3.2809,0.1525999999999999,-0.88854753,0.31567302,-0.317320965
1764763512.6500487,-2.39582,3.2809,0.1525999999999999,-0.88854753,0.31567302,-0.317320965
1764763512.6500487,-2.39582,3.2809,0.1525999999999999,-0.88854753,0.31567302,-0.317320965
1764763512.6500487,-2.39582,3.2809,0.1525999999999999,-0.88854753,0.31567302,-0.317320965
1764763512.6500487,-2.39582,3.2809,0.1525999999999999,-0.88854753,0.31567302,-0.317320965
1764763512.6500487,-2.39582,3.2809,0.1525999999999999,-0.88854753,0.31567302,-0.317320965
1764763512.6500487,-2.39582,3.2809,0.1525999999999999,-0.88854753,0.31567302,-0.317320965
1764763512.6500487,-2.09062,4.059159999999999,0.59514,-0.890073405,0.31518474,-0.317687175
1764763512.6500487,-2.09062,4.059159999999999,0.59514,-0.890073405,0.31518474,-0.317687175
1764763512.6500487,-2.09062,4.059159999999999,0.59514,-0.890073405,0.31518474,-0.317687175
1764763512.6500487,-2.09062,4.059159999999999,0.59514,-0.890073405,0.31518474,-0.317687175
1764763512.6500487,-2.09062,4.059159999999999,0.59514,-0.890073405,0.31518474,-0.317687175
1764763512.6500487,-2.09062,4.059159999999999,0.59514,-0.890073405,0.31518474,-0.317687175
1764763512.6965842,-2.09062,4.059159999999999,0.59514,-0.890073405,0.31518474,-0.317687175
1764763512.6965842,-2.09062,4.059159999999999,0.59514,-0.890073405,0.31518474,-0.317687175
1764763512.6965842,-2.09062,4.059159999999999,0.59514,-0.890073405,0.31518474,-0.317687175
1764763512.6965842,-2.09062,4.059159999999999,0.59514,-0.890073405,0.31518474,-0.317687175
1764763512.6965842,-0.56462,3.6624,0.51884,-0.88976823,0.3149406,-0.316466475
1764763512.6965842,-0.56462,3.6624,0.51884,-0.88976823,0.3149406,-0.316466475
1764763512.6965842,-0.56462,3.6624,0.51884,-0.88976823,0.3149406,-0.316466475
1764763512.6965842,-0.56462,3.6624,0.51884,-0.88976823,0.3149406,-0.316466475
1764763512.6965842,-0.56462,3.6624,0.51884,-0.88976823,0.3149406,-0.316466475
1764763512.6965842,-0.56462,3.6624,0.51884,-0.88976823,0.3149406,-0.316466475
1764763512.6965842,-0.56462,3.6624,0.51884,-0.88976823,0.3149406,-0.316466475
1764763512.6965842,-0.56462,3.6624,0.51884,-0.88976823,0.3149406,-0.316466475
1764763512.6965842,-0.56462,3.6624,0.51884,-0.88976823,0.3149406,-0.316466475
1764763512.6965842,-0.56462,3.6624,0.51884,-0.88976823,0.3149406,-0.316466475
1764763512.6965842,-0.19838,3.55558,0.74774,-0.89001237,0.31542888,-0.31603923
1764763512.6965842,-0.19838,3.55558,0.74774,-0.89001237,0.31542888,-0.31603923
1764763512.6965842,-0.19838,3.55558,0.74774,-0.89001237,0.31542888,-0.31603923
1764763512.6965842,-0.19838,3.55558,0.74774,-0.89001237,0.31542888,-0.31603923
1764763512.6965842,-0.19838,3.55558,0.74774,-0.89001237,0.31542888,-0.31603923
1764763512.6965842,-0.19838,3.55558,0.74774,-0.89001237,0.31542888,-0.31603923
1764763512.6965842,-0.19838,3.55558,0.74774,-0.89001237,0.31542888,-0.31603923
1764763512.6965842,-0.19838,3.55558,0.74774,-0.89001237,0.31542888,-0.31603923
1764763512.6965842,-0.19838,3.55558,0.74774,-0.89001237,0.31542888,-0.31603923
1764763512.6965842,-0.19838,3.55558,0.74774,-0.89001237,0.31542888,-0.31603923
1764763512.743384,-0.03052,3.69292,1.2208,-0.88964616,0.316710615,-0.31713786
1764763512.743384,-0.03052,3.69292,1.2208,-0.88964616,0.316710615,-0.31713786
1764763512.743384,-0.03052,3.69292,1.2208,-0.88964616,0.316710615,-0.31713786
1764763512.743384,-0.03052,3.69292,1.2208,-0.88964616,0.316710615,-0.31713786
1764763512.743384,-0.03052,3.69292,1.2208,-0.88964616,0.316710615,-0.31713786
1764763512.743384,-0.03052,3.69292,1.2208,-0.88964616,0.316710615,-0.31713786
1764763512.743384,-0.03052,3.69292,1.2208,-0.88964616,0.316710615,-0.31713786
1764763512.743384,-0.03052,3.69292,1.2208,-0.88964616,0.316710615,-0.31713786
1764763512.7449012,-0.03052,3.69292,1.2208,-0.88964616,0.316710615,-0.31713786
1764763512.7449012,-0.03052,3.69292,1.2208,-0.88964616,0.316710615,-0.31713786
1764763512.7449012,0.36624,3.99812,1.26658,-0.89037858,0.31713786,-0.31811442
1764763512.7449012,0.36624,3.99812,1.26658,-0.89037858,0.31713786,-0.31811442
1764763512.7449012,0.36624,3.99812,1.26658,-0.89037858,0.31713786,-0.31811442
1764763512.7449012,0.36624,3.99812,1.26658,-0.89037858,0.31713786,-0.31811442
1764763512.7449012,0.36624,3.99812,1.26658,-0.89037858,0.31713786,-0.31811442
1764763512.7449012,0.36624,3.99812,1.26658,-0.89037858,0.31713786,-0.31811442
1764763512.7449012,0.36624,3.99812,1.26658,-0.89037858,0.31713786,-0.31811442
1764763512.7449012,0.36624,3.99812,1.26658,-0.89037858,0.31713786,-0.31811442
1764763512.7449012,0.36624,3.99812,1.26658,-0.89037858,0.31713786,-0.31811442
1764763512.7449012,0.36624,3.99812,1.26658,-0.89037858,0.31713786,-0.31811442
1764763512.787598,0.3357199999999999,3.78448,1.46496,-0.889829265,0.31579509,-0.31774821
1764763512.787598,0.3357199999999999,3.78448,1.46496,-0.889829265,0.31579509,-0.31774821
1764763512.787598,0.3357199999999999,3.78448,1.46496,-0.889829265,0.31579509,-0.31774821
1764763512.787598,0.3357199999999999,3.78448,1.46496,-0.889829265,0.31579509,-0.31774821
1764763512.787598,0.3357199999999999,3.78448,1.46496,-0.889829265,0.31579509,-0.31774821
1764763512.787598,0.3357199999999999,3.78448,1.46496,-0.889829265,0.31579509,-0.31774821
1764763512.787598,0.3357199999999999,3.78448,1.46496,-0.889829265,0.31579509,-0.31774821
1764763512.787598,0.3357199999999999,3.78448,1.46496,-0.889829265,0.31579509,-0.31774821
1764763512.787598,0.3357199999999999,3.78448,1.46496,-0.889829265,0.31579509,-0.31774821
1764763512.787598,0.3357199999999999,3.78448,1.46496,-0.889829265,0.31579509,-0.31774821
1764763512.787598,0.6867,3.7387,1.11398,-0.88927995,0.31506267,-0.317198895
1764763512.787598,0.6867,3.7387,1.11398,-0.88927995,0.31506267,-0.317198895
1764763512.787598,0.6867,3.7387,1.11398,-0.88927995,0.31506267,-0.317198895
1764763512.787598,0.6867,3.7387,1.11398,-0.88927995,0.31506267,-0.317198895
1764763512.787598,0.6867,3.7387,1.11398,-0.88927995,0.31506267,-0.317198895
1764763512.787598,0.6867,3.7387,1.11398,-0.88927995,0.31506267,-0.317198895
1764763512.787598,0.6867,3.7387,1.11398,-0.88927995,0.31506267,-0.317198895
1764763512.787598,0.6867,3.7387,1.11398,-0.88927995,0.31506267,-0.317198895
1764763512.787598,0.6867,3.7387,1.11398,-0.88927995,0.31506267,-0.317198895
1764763512.787598,0.6867,3.7387,1.11398,-0.88927995,0.31506267,-0.317198895
1764763512.787598,0.3357199999999999,3.87604,0.5341,-0.88879167,0.315856125,-0.317382
1764763512.787598,0.3357199999999999,3.87604,0.5341,-0.88879167,0.315856125,-0.317382
1764763512.7886186,0.3357199999999999,3.87604,0.5341,-0.88879167,0.315856125,-0.317382
1764763512.7886186,0.3357199999999999,3.87604,0.5341,-0.88879167,0.315856125,-0.317382
1764763512.8352003,0.3357199999999999,3.87604,0.5341,-0.88879167,0.315856125,-0.317382
1764763512.8352003,0.3357199999999999,3.87604,0.5341,-0.88879167,0.315856125,-0.317382
1764763512.8352003,0.3357199999999999,3.87604,0.5341,-0.88879167,0.315856125,-0.317382
1764763512.8352003,0.3357199999999999,3.87604,0.5341,-0.88879167,0.315856125,-0.317382
1764763512.8352003,0.3357199999999999,3.87604,0.5341,-0.88879167,0.315856125,-0.317382
1764763512.8352003,0.3357199999999999,3.87604,0.5341,-0.88879167,0.315856125,-0.317382
1764763512.8352003,-0.41202,3.84552,0.6103999999999999,-0.88927995,0.316466475,-0.31787028
1764763512.835708,-0.41202,3.84552,0.6103999999999999,-0.88927995,0.316466475,-0.31787028
1764763512.835708,-0.41202,3.84552,0.6103999999999999,-0.88927995,0.316466475,-0.31787028
1764763512.835708,-0.41202,3.84552,0.6103999999999999,-0.88927995,0.316466475,-0.31787028
1764763512.835708,-0.41202,3.84552,0.6103999999999999,-0.88927995,0.316466475,-0.31787028
1764763512.835708,-0.41202,3.84552,0.6103999999999999,-0.88927995,0.316466475,-0.31787028
1764763512.835708,-0.41202,3.84552,0.6103999999999999,-0.88927995,0.316466475,-0.31787028
1764763512.835708,-0.41202,3.84552,0.6103999999999999,-0.88927995,0.316466475,-0.31787028
1764763512.835708,-0.41202,3.84552,0.6103999999999999,-0.88927995,0.316466475,-0.31787028
1764763512.835708,-0.41202,3.84552,0.6103999999999999,-0.88927995,0.316466475,-0.31787028
1764763512.835708,-0.57988,3.60136,0.9156,-0.889096845,0.316222335,-0.318175455
1764763512.835708,-0.57988,3.60136,0.9156,-0.889096845,0.316222335,-0.318175455
1764763512.835708,-0.57988,3.60136,0.9156,-0.889096845,0.316222335,-0.318175455
1764763512.835708,-0.57988,3.60136,0.9156,-0.889096845,0.316222335,-0.318175455
1764763512.835708,-0.57988,3.60136,0.9156,-0.889096845,0.316222335,-0.318175455
1764763512.835708,-0.57988,3.60136,0.9156,-0.889096845,0.316222335,-0.318175455
1764763512.835708,-0.57988,3.60136,0.9156,-0.889096845,0.316222335,-0.318175455
1764763512.835708,-0.57988,3.60136,0.9156,-0.889096845,0.316222335,-0.318175455
1764763512.8847122,-0.57988,3.60136,0.9156,-0.889096845,0.316222335,-0.318175455
1764763512.885731,-0.57988,3.60136,0.9156,-0.889096845,0.316222335,-0.318175455
1764763512.885731,0.4578,3.67766,0.51884,-0.88854753,0.315489915,-0.31811442
1764763512.885731,0.4578,3.67766,0.51884,-0.88854753,0.315489915,-0.31811442
1764763512.885731,0.4578,3.67766,0.51884,-0.88854753,0.315489915,-0.31811442
1764763512.885731,0.4578,3.67766,0.51884,-0.88854753,0.315489915,-0.31811442
1764763512.885731,0.4578,3.67766,0.51884,-0.88854753,0.315489915,-0.31811442
1764763512.885731,0.4578,3.67766,0.51884,-0.88854753,0.315489915,-0.31811442
1764763512.885731,0.4578,3.67766,0.51884,-0.88854753,0.315489915,-0.31811442
1764763512.885731,0.4578,3.67766,0.51884,-0.88854753,0.315489915,-0.31811442
1764763512.8867316,0.4578,3.67766,0.51884,-0.88854753,0.315489915,-0.31811442
1764763512.8867316,0.4578,3.67766,0.51884,-0.88854753,0.315489915,-0.31811442
1764763512.887505,1.17502,1.9838,-1.31236,-0.88769304,0.31481853,-0.3198234
1764763512.887505,1.17502,1.9838,-1.31236,-0.88769304,0.31481853,-0.3198234
1764763512.887505,1.17502,1.9838,-1.31236,-0.88769304,0.31481853,-0.3198234
1764763512.887505,1.17502,1.9838,-1.31236,-0.88769304,0.31481853,-0.3198234
1764763512.887505,1.17502,1.9838,-1.31236,-0.88769304,0.31481853,-0.3198234
1764763512.887505,1.17502,1.9838,-1.31236,-0.88769304,0.31481853,-0.3198234
1764763512.887505,1.17502,1.9838,-1.31236,-0.88769304,0.31481853,-0.3198234
1764763512.887505,1.17502,1.9838,-1.31236,-0.88769304,0.31481853,-0.3198234
1764763512.887505,1.17502,1.9838,-1.31236,-0.88769304,0.31481853,-0.3198234
1764763512.887505,1.17502,1.9838,-1.31236,-0.88769304,0.31481853,-0.3198234
1764763512.887505,1.31236,1.11398,-1.41918,-0.88842546,0.314513355,-0.321105135
1764763512.887505,1.31236,1.11398,-1.41918,-0.88842546,0.314513355,-0.321105135
1764763512.887505,1.31236,1.11398,-1.41918,-0.88842546,0.314513355,-0.321105135
1764763512.887505,1.31236,1.11398,-1.41918,-0.88842546,0.314513355,-0.321105135
1764763512.9300609,1.31236,1.11398,-1.41918,-0.88842546,0.314513355,-0.321105135
1764763512.9300609,1.31236,1.11398,-1.41918,-0.88842546,0.314513355,-0.321105135
1764763512.9300609,1.31236,1.11398,-1.41918,-0.88842546,0.314513355,-0.321105135
1764763512.9300609,1.31236,1.11398,-1.41918,-0.88842546,0.314513355,-0.321105135
1764763512.9300609,1.31236,1.11398,-1.41918,-0.88842546,0.314513355,-0.321105135
1764763512.9310734,1.31236,1.11398,-1.41918,-0.88842546,0.314513355,-0.321105135
1764763512.9310734,1.08346,2.65524,0.47306,-0.889585125,0.31542888,-0.32189859
1764763512.9310734,1.08346,2.65524,0.47306,-0.889585125,0.31542888,-0.32189859
1764763512.9310734,1.08346,2.65524,0.47306,-0.889585125,0.31542888,-0.32189859
1764763512.9310734,1.08346,2.65524,0.47306,-0.889585125,0.31542888,-0.32189859
1764763512.9310734,1.08346,2.65524,0.47306,-0.889585125,0.31542888,-0.32189859
1764763512.9310734,1.08346,2.65524,0.47306,-0.889585125,0.31542888,-0.32189859
1764763512.9310734,1.08346,2.65524,0.47306,-0.889585125,0.31542888,-0.32189859
1764763512.9310734,1.08346,2.65524,0.47306,-0.889585125,0.31542888,-0.32189859
1764763512.9310734,1.08346,2.65524,0.47306,-0.889585125,0.31542888,-0.32189859
1764763512.9310734,1.08346,2.65524,0.47306,-0.889585125,0.31542888,-0.32189859
1764763512.9310734,1.05294,2.41108,0.97664,-0.89367447,0.316466475,-0.32092203
1764763512.9310734,1.05294,2.41108,0.97664,-0.89367447,0.316466475,-0.32092203
1764763512.9310734,1.05294,2.41108,0.97664,-0.89367447,0.316466475,-0.32092203
1764763512.9310734,1.05294,2.41108,0.97664,-0.89367447,0.316466475,-0.32092203
1764763512.9310734,1.05294,2.41108,0.97664,-0.89367447,0.316466475,-0.32092203
1764763512.9310734,1.05294,2.41108,0.97664,-0.89367447,0.316466475,-0.32092203
1764763512.9774563,1.05294,2.41108,0.97664,-0.89367447,0.316466475,-0.32092203
1764763512.9774563,1.05294,2.41108,0.97664,-0.89367447,0.316466475,-0.32092203
1764763512.9774563,1.05294,2.41108,0.97664,-0.89367447,0.316466475,-0.32092203
1764763512.9774563,1.05294,2.41108,0.97664,-0.89367447,0.316466475,-0.32092203
1764763512.9774563,1.526,3.3572,1.25132,-0.892758945,0.31848063,-0.318785805
1764763512.9774563,1.526,3.3572,1.25132,-0.892758945,0.31848063,-0.318785805
1764763512.9774563,1.526,3.3572,1.25132,-0.892758945,0.31848063,-0.318785805
1764763512.9774563,1.526,3.3572,1.25132,-0.892758945,0.31848063,-0.318785805
1764763512.9774563,1.526,3.3572,1.25132,-0.892758945,0.31848063,-0.318785805
1764763512.977979,1.526,3.3572,1.25132,-0.892758945,0.31848063,-0.318785805
1764763512.977979,1.526,3.3572,1.25132,-0.892758945,0.31848063,-0.318785805
1764763512.977979,1.526,3.3572,1.25132,-0.892758945,0.31848063,-0.318785805
1764763512.977979,1.526,3.3572,1.25132,-0.892758945,0.31848063,-0.318785805
1764763512.977979,1.526,3.3572,1.25132,-0.892758945,0.31848063,-0.318785805
1764763512.977979,0.3815,3.38772,-0.2289,-0.88927995,0.3186027,-0.31787028
1764763512.977979,0.3815,3.38772,-0.2289,-0.88927995,0.3186027,-0.31787028
1764763512.977979,0.3815,3.38772,-0.2289,-0.88927995,0.3186027,-0.31787028
1764763512.977979,0.3815,3.38772,-0.2289,-0.88927995,0.3186027,-0.31787028
1764763512.977979,0.3815,3.38772,-0.2289,-0.88927995,0.3186027,-0.31787028
1764763512.977979,0.3815,3.38772,-0.2289,-0.88927995,0.3186027,-0.31787028
1764763512.977979,0.3815,3.38772,-0.2289,-0.88927995,0.3186027,-0.31787028
1764763512.977979,0.3815,3.38772,-0.2289,-0.88927995,0.3186027,-0.31787028
1764763512.977979,0.3815,3.38772,-0.2289,-0.88927995,0.3186027,-0.31787028
1764763512.977979,0.3815,3.38772,-0.2289,-0.88927995,0.3186027,-0.31787028
1764763513.0242105,-0.93086,3.815,-0.9156,-0.887998215,0.316954755,-0.316954755
1764763513.0242105,-0.93086,3.815,-0.9156,-0.887998215,0.316954755,-0.316954755
1764763513.0242105,-0.93086,3.815,-0.9156,-0.887998215,0.316954755,-0.316954755
1764763513.0242105,-0.93086,3.815,-0.9156,-0.887998215,0.316954755,-0.316954755
1764763513.0242105,-0.93086,3.815,-0.9156,-0.887998215,0.316954755,-0.316954755
1764763513.0242105,-0.93086,3.815,-0.9156,-0.887998215,0.316954755,-0.316954755
1764763513.0242105,-0.93086,3.815,-0.9156,-0.887998215,0.316954755,-0.316954755
1764763513.0242105,-0.93086,3.815,-0.9156,-0.887998215,0.316954755,-0.316954755
1764763513.0247507,-0.93086,3.815,-0.9156,-0.887998215,0.316954755,-0.316954755
1764763513.0247507,-0.93086,3.815,-0.9156,-0.887998215,0.316954755,-0.316954755
1764763513.0247507,-0.6867,6.3329,-0.41202,-0.88525164,0.31433025,-0.31591716
1764763513.0247507,-0.6867,6.3329,-0.41202,-0.88525164,0.31433025,-0.31591716
1764763513.0247507,-0.6867,6.3329,-0.41202,-0.88525164,0.31433025,-0.31591716
1764763513.0247507,-0.6867,6.3329,-0.41202,-0.88525164,0.31433025,-0.31591716
1764763513.0247507,-0.6867,6.3329,-0.41202,-0.88525164,0.31433025,-0.31591716
1764763513.0247507,-0.6867,6.3329,-0.41202,-0.88525164,0.31433025,-0.31591716
1764763513.0247507,-0.6867,6.3329,-0.41202,-0.88525164,0.31433025,-0.31591716
1764763513.0247507,-0.6867,6.3329,-0.41202,-0.88525164,0.31433025,-0.31591716
1764763513.0247507,-0.6867,6.3329,-0.41202,-0.88525164,0.31433025,-0.31591716
1764763513.0247507,-0.6867,6.3329,-0.41202,-0.88525164,0.31433025,-0.31591716
1764763513.0247507,0.8698199999999999,8.0115,-0.39676,-0.887021655,0.3124992,-0.31542888
1764763513.0247507,0.8698199999999999,8.0115,-0.39676,-0.887021655,0.3124992,-0.31542888
1764763513.0728884,0.8698199999999999,8.0115,-0.39676,-0.887021655,0.3124992,-0.31542888
1764763513.0728884,0.8698199999999999,8.0115,-0.39676,-0.887021655,0.3124992,-0.31542888
1764763513.0728884,0.8698199999999999,8.0115,-0.39676,-0.887021655,0.3124992,-0.31542888
1764763513.0728884,0.8698199999999999,8.0115,-0.39676,-0.887021655,0.3124992,-0.31542888
1764763513.0728884,0.8698199999999999,8.0115,-0.39676,-0.887021655,0.3124992,-0.31542888
1764763513.0728884,0.8698199999999999,8.0115,-0.39676,-0.887021655,0.3124992,-0.31542888
1764763513.0728884,0.8698199999999999,8.0115,-0.39676,-0.887021655,0.3124992,-0.31542888
1764763513.0728884,0.8698199999999999,8.0115,-0.39676,-0.887021655,0.3124992,-0.31542888
1764763513.0728884,3.6624,7.38584,0.28994,-0.888852705,0.31274334,-0.316100265
1764763513.0728884,3.6624,7.38584,0.28994,-0.888852705,0.31274334,-0.316100265
1764763513.0728884,3.6624,7.38584,0.28994,-0.888852705,0.31274334,-0.316100265
1764763513.0728884,3.6624,7.38584,0.28994,-0.888852705,0.31274334,-0.316100265
1764763513.0728884,3.6624,7.38584,0.28994,-0.888852705,0.31274334,-0.316100265
1764763513.0728884,3.6624,7.38584,0.28994,-0.888852705,0.31274334,-0.316100265
1764763513.0728884,3.6624,7.38584,0.28994,-0.888852705,0.31274334,-0.316100265
1764763513.0728884,3.6624,7.38584,0.28994,-0.888852705,0.31274334,-0.316100265
1764763513.0728884,3.6624,7.38584,0.28994,-0.888852705,0.31274334,-0.316100265
1764763513.0728884,3.6624,7.38584,0.28994,-0.888852705,0.31274334,-0.316100265
1764763513.0728884,6.47024,6.50076,0.73248,-0.8912941050000001,0.31335369,-0.31701579
1764763513.0728884,6.47024,6.50076,0.73248,-0.8912941050000001,0.31335369,-0.31701579
1764763513.0728884,6.47024,6.50076,0.73248,-0.8912941050000001,0.31335369,-0.31701579
1764763513.0728884,6.47024,6.50076,0.73248,-0.8912941050000001,0.31335369,-0.31701579
1764763513.0728884,6.47024,6.50076,0.73248,-0.8912941050000001,0.31335369,-0.31701579
1764763513.0728884,6.47024,6.50076,0.73248,-0.8912941050000001,0.31335369,-0.31701579
1764763513.1192172,6.47024,6.50076,0.73248,-0.8912941050000001,0.31335369,-0.31701579
1764763513.1192172,6.47024,6.50076,0.73248,-0.8912941050000001,0.31335369,-0.31701579
1764763513.1192172,6.47024,6.50076,0.73248,-0.8912941050000001,0.31335369,-0.31701579
1764763513.1192172,6.47024,6.50076,0.73248,-0.8912941050000001,0.31335369,-0.31701579
1764763513.1192172,6.6381,4.91372,0.8698199999999999,-0.89208756,0.31457439,-0.31957926
1764763513.1192172,6.6381,4.91372,0.8698199999999999,-0.89208756,0.31457439,-0.31957926
1764763513.1192172,6.6381,4.91372,0.8698199999999999,-0.89208756,0.31457439,-0.31957926
1764763513.1192172,6.6381,4.91372,0.8698199999999999,-0.89208756,0.31457439,-0.31957926
1764763513.1192172,6.6381,4.91372,0.8698199999999999,-0.89208756,0.31457439,-0.31957926
1764763513.1192172,6.6381,4.91372,0.8698199999999999,-0.89208756,0.31457439,-0.31957926
1764763513.1192172,6.6381,4.91372,0.8698199999999999,-0.89208756,0.31457439,-0.31957926
1764763513.1192172,6.6381,4.91372,0.8698199999999999,-0.89208756,0.31457439,-0.31957926
1764763513.1192172,6.6381,4.91372,0.8698199999999999,-0.89208756,0.31457439,-0.31957926
1764763513.1192172,6.6381,4.91372,0.8698199999999999,-0.89208756,0.31457439,-0.31957926
1764763513.1192172,6.31764,4.440659999999999,0.3051999999999999,-0.89050065,0.317931315,-0.322692045
1764763513.1192172,6.31764,4.440659999999999,0.3051999999999999,-0.89050065,0.317931315,-0.322692045
1764763513.120227,6.31764,4.440659999999999,0.3051999999999999,-0.89050065,0.317931315,-0.322692045
1764763513.120227,6.31764,4.440659999999999,0.3051999999999999,-0.89050065,0.317931315,-0.322692045
1764763513.120227,6.31764,4.440659999999999,0.3051999999999999,-0.89050065,0.317931315,-0.322692045
1764763513.120736,6.31764,4.440659999999999,0.3051999999999999,-0.89050065,0.317931315,-0.322692045
1764763513.120736,6.31764,4.440659999999999,0.3051999999999999,-0.89050065,0.317931315,-0.322692045
1764763513.120736,6.31764,4.440659999999999,0.3051999999999999,-0.89050065,0.317931315,-0.322692045
1764763513.167966,6.31764,4.440659999999999,0.3051999999999999,-0.89050065,0.317931315,-0.322692045
1764763513.167966,6.31764,4.440659999999999,0.3051999999999999,-0.89050065,0.317931315,-0.322692045
1764763513.167966,4.51696,4.36436,-0.24416,-0.888974775,0.31799235,-0.32580483
1764763513.167966,4.51696,4.36436,-0.24416,-0.888974775,0.31799235,-0.32580483
1764763513.167966,4.51696,4.36436,-0.24416,-0.888974775,0.31799235,-0.32580483
1764763513.167966,4.51696,4.36436,-0.24416,-0.888974775,0.31799235,-0.32580483
1764763513.167966,4.51696,4.36436,-0.24416,-0.888974775,0.31799235,-0.32580483
1764763513.167966,4.51696,4.36436,-0.24416,-0.888974775,0.31799235,-0.32580483
1764763513.167966,4.51696,4.36436,-0.24416,-0.888974775,0.31799235,-0.32580483
1764763513.167966,4.51696,4.36436,-0.24416,-0.888974775,0.31799235,-0.32580483
1764763513.167966,4.51696,4.36436,-0.24416,-0.888974775,0.31799235,-0.32580483
1764763513.167966,4.51696,4.36436,-0.24416,-0.888974775,0.31799235,-0.32580483
1764763513.167966,0.97664,2.10588,-0.763,-0.8912941050000001,0.31884684,-0.32849037
1764763513.167966,0.97664,2.10588,-0.763,-0.8912941050000001,0.31884684,-0.32849037
1764763513.167966,0.97664,2.10588,-0.763,-0.8912941050000001,0.31884684,-0.32849037
1764763513.167966,0.97664,2.10588,-0.763,-0.8912941050000001,0.31884684,-0.32849037
1764763513.167966,0.97664,2.10588,-0.763,-0.8912941050000001,0.31884684,-0.32849037
1764763513.167966,0.97664,2.10588,-0.763,-0.8912941050000001,0.31884684,-0.32849037
1764763513.167966,0.97664,2.10588,-0.763,-0.8912941050000001,0.31884684,-0.32849037
1764763513.167966,0.97664,2.10588,-0.763,-0.8912941050000001,0.31884684,-0.32849037
1764763513.167966,0.97664,2.10588,-0.763,-0.8912941050000001,0.31884684,-0.32849037
1764763513.167966,0.97664,2.10588,-0.763,-0.8912941050000001,0.31884684,-0.32849037
1764763513.167966,-2.27374,1.11398,-1.19028,-0.89147721,0.317565105,-0.32678139
1764763513.167966,-2.27374,1.11398,-1.19028,-0.89147721,0.317565105,-0.32678139
1764763513.167966,-2.27374,1.11398,-1.19028,-0.89147721,0.317565105,-0.32678139
1764763513.167966,-2.27374,1.11398,-1.19028,-0.89147721,0.317565105,-0.32678139
1764763513.21411,-2.27374,1.11398,-1.19028,-0.89147721,0.317565105,-0.32678139
1764763513.2146327,-2.27374,1.11398,-1.19028,-0.89147721,0.317565105,-0.32678139
1764763513.2146327,-2.27374,1.11398,-1.19028,-0.89147721,0.317565105,-0.32678139
1764763513.2146327,-2.27374,1.11398,-1.19028,-0.89147721,0.317565105,-0.32678139
1764763513.2146327,-2.27374,1.11398,-1.19028,-0.89147721,0.317565105,-0.32678139
1764763513.2146327,-2.27374,1.11398,-1.19028,-0.89147721,0.317565105,-0.32678139
1764763513.2146327,-7.340059999999999,1.6633399999999998,-1.84646,-0.89245377,0.31750407,-0.32311929
1764763513.2146327,-7.340059999999999,1.6633399999999998,-1.84646,-0.89245377,0.31750407,-0.32311929
1764763513.215647,-7.340059999999999,1.6633399999999998,-1.84646,-0.89245377,0.31750407,-0.32311929
1764763513.215647,-7.340059999999999,1.6633399999999998,-1.84646,-0.89245377,0.31750407,-0.32311929
1764763513.215647,-7.340059999999999,1.6633399999999998,-1.84646,-0.89245377,0.31750407,-0.32311929
1764763513.215647,-7.340059999999999,1.6633399999999998,-1.84646,-0.89245377,0.31750407,-0.32311929
1764763513.215647,-7.340059999999999,1.6633399999999998,-1.84646,-0.89245377,0.31750407,-0.32311929
1764763513.215647,-7.340059999999999,1.6633399999999998,-1.84646,-0.89245377,0.31750407,-0.32311929
1764763513.215647,-7.340059999999999,1.6633399999999998,-1.84646,-0.89245377,0.31750407,-0.32311929
1764763513.215647,-7.340059999999999,1.6633399999999998,-1.84646,-0.89245377,0.31750407,-0.32311929
1764763513.215647,-11.30766,2.47212,-2.41108,-0.89147721,0.31445232,-0.3186027
1764763513.215647,-11.30766,2.47212,-2.41108,-0.89147721,0.31445232,-0.3186027
1764763513.215647,-11.30766,2.47212,-2.41108,-0.89147721,0.31445232,-0.3186027
1764763513.215647,-11.30766,2.47212,-2.41108,-0.89147721,0.31445232,-0.3186027
1764763513.215647,-11.30766,2.47212,-2.41108,-0.89147721,0.31445232,-0.3186027
1764763513.215647,-11.30766,2.47212,-2.41108,-0.89147721,0.31445232,-0.3186027
1764763513.215647,-11.30766,2.47212,-2.41108,-0.89147721,0.31445232,-0.3186027
1764763513.215647,-11.30766,2.47212,-2.41108,-0.89147721,0.31445232,-0.3186027
1764763513.2637966,-11.30766,2.47212,-2.41108,-0.89147721,0.31445232,-0.3186027
1764763513.2637966,-11.30766,2.47212,-2.41108,-0.89147721,0.31445232,-0.3186027
1764763513.2637966,-7.752079999999999,3.76922,-1.28184,-0.8898903,0.30529707,-0.31347576
1764763513.2637966,-7.752079999999999,3.76922,-1.28184,-0.8898903,0.30529707,-0.31347576
1764763513.2637966,-7.752079999999999,3.76922,-1.28184,-0.8898903,0.30529707,-0.31347576
1764763513.2637966,-7.752079999999999,3.76922,-1.28184,-0.8898903,0.30529707,-0.31347576
1764763513.2637966,-7.752079999999999,3.76922,-1.28184,-0.8898903,0.30529707,-0.31347576
1764763513.2637966,-7.752079999999999,3.76922,-1.28184,-0.8898903,0.30529707,-0.31347576
1764763513.2637966,-7.752079999999999,3.76922,-1.28184,-0.8898903,0.30529707,-0.31347576
1764763513.2637966,-7.752079999999999,3.76922,-1.28184,-0.8898903,0.30529707,-0.31347576
1764763513.2637966,-7.752079999999999,3.76922,-1.28184,-0.8898903,0.30529707,-0.31347576
1764763513.2637966,-7.752079999999999,3.76922,-1.28184,-0.8898903,0.30529707,-0.31347576
1764763513.2637966,4.959499999999999,4.53222,0.39676,-0.889218915,0.29247972,-0.310485045
1764763513.2637966,4.959499999999999,4.53222,0.39676,-0.889218915,0.29247972,-0.310485045
1764763513.2637966,4.959499999999999,4.53222,0.39676,-0.889218915,0.29247972,-0.310485045
1764763513.2637966,4.959499999999999,4.53222,0.39676,-0.889218915,0.29247972,-0.310485045
1764763513.2637966,4.959499999999999,4.53222,0.39676,-0.889218915,0.29247972,-0.310485045
1764763513.2637966,4.959499999999999,4.53222,0.39676,-0.889218915,0.29247972,-0.310485045
1764763513.2637966,4.959499999999999,4.53222,0.39676,-0.889218915,0.29247972,-0.310485045
1764763513.2637966,4.959499999999999,4.53222,0.39676,-0.889218915,0.29247972,-0.310485045
1764763513.2637966,4.959499999999999,4.53222,0.39676,-0.889218915,0.29247972,-0.310485045
1764763513.2637966,4.959499999999999,4.53222,0.39676,-0.889218915,0.29247972,-0.310485045
1764763513.3072836,16.95386,4.822159999999999,1.25132,-0.889829265,0.288390375,-0.31237713
1764763513.3072836,16.95386,4.822159999999999,1.25132,-0.889829265,0.288390375,-0.31237713
1764763513.3072836,16.95386,4.822159999999999,1.25132,-0.889829265,0.288390375,-0.31237713
1764763513.3072836,16.95386,4.822159999999999,1.25132,-0.889829265,0.288390375,-0.31237713
1764763513.3072836,16.95386,4.822159999999999,1.25132,-0.889829265,0.288390375,-0.31237713
1764763513.3072836,16.95386,4.822159999999999,1.25132,-0.889829265,0.288390375,-0.31237713
1764763513.3072836,16.95386,4.822159999999999,1.25132,-0.889829265,0.288390375,-0.31237713
1764763513.3072836,16.95386,4.822159999999999,1.25132,-0.889829265,0.288390375,-0.31237713
1764763513.3072836,16.95386,4.822159999999999,1.25132,-0.889829265,0.288390375,-0.31237713
1764763513.3072836,16.95386,4.822159999999999,1.25132,-0.889829265,0.288390375,-0.31237713
1764763513.3072836,20.35684,4.1202,2.86888,-0.8928199800000001,0.29650803,-0.31896891
1764763513.3072836,20.35684,4.1202,2.86888,-0.8928199800000001,0.29650803,-0.31896891
1764763513.3072836,20.35684,4.1202,2.86888,-0.8928199800000001,0.29650803,-0.31896891
1764763513.3072836,20.35684,4.1202,2.86888,-0.8928199800000001,0.29650803,-0.31896891
1764763513.3072836,20.35684,4.1202,2.86888,-0.8928199800000001,0.29650803,-0.31896891
1764763513.3072836,20.35684,4.1202,2.86888,-0.8928199800000001,0.29650803,-0.31896891
1764763513.3072836,20.35684,4.1202,2.86888,-0.8928199800000001,0.29650803,-0.31896891
1764763513.3072836,20.35684,4.1202,2.86888,-0.8928199800000001,0.29650803,-0.31896891
1764763513.3072836,20.35684,4.1202,2.86888,-0.8928199800000001,0.29650803,-0.31896891
1764763513.3072836,20.35684,4.1202,2.86888,-0.8928199800000001,0.29650803,-0.31896891
1764763513.3082838,12.11644,3.18934,2.5179,-0.893857575,0.312560235,-0.325987935
1764763513.3082838,12.11644,3.18934,2.5179,-0.893857575,0.312560235,-0.325987935
1764763513.3082838,12.11644,3.18934,2.5179,-0.893857575,0.312560235,-0.325987935
1764763513.3082838,12.11644,3.18934,2.5179,-0.893857575,0.312560235,-0.325987935
1764763513.3560152,12.11644,3.18934,2.5179,-0.893857575,0.312560235,-0.325987935
1764763513.3560152,12.11644,3.18934,2.5179,-0.893857575,0.312560235,-0.325987935
1764763513.3560152,12.11644,3.18934,2.5179,-0.893857575,0.312560235,-0.325987935
1764763513.3570404,12.11644,3.18934,2.5179,-0.893857575,0.312560235,-0.325987935
1764763513.3570404,12.11644,3.18934,2.5179,-0.893857575,0.312560235,-0.325987935
1764763513.3570404,12.11644,3.18934,2.5179,-0.893857575,0.312560235,-0.325987935
1764763513.3570404,-3.29616,2.76206,2.09062,-0.89245377,0.328917615,-0.329405895
1764763513.3570404,-3.29616,2.76206,2.09062,-0.89245377,0.328917615,-0.329405895
1764763513.3570404,-3.29616,2.76206,2.09062,-0.89245377,0.328917615,-0.329405895
1764763513.3570404,-3.29616,2.76206,2.09062,-0.89245377,0.328917615,-0.329405895
1764763513.3570404,-3.29616,2.76206,2.09062,-0.89245377,0.328917615,-0.329405895
1764763513.3570404,-3.29616,2.76206,2.09062,-0.89245377,0.328917615,-0.329405895
1764763513.3570404,-3.29616,2.76206,2.09062,-0.89245377,0.328917615,-0.329405895
1764763513.3580532,-3.29616,2.76206,2.09062,-0.89245377,0.328917615,-0.329405895
1764763513.3580532,-3.29616,2.76206,2.09062,-0.89245377,0.328917615,-0.329405895
1764763513.3580532,-3.29616,2.76206,2.09062,-0.89245377,0.328917615,-0.329405895
1764763513.3580532,-14.46648,2.5179,1.31236,-0.89013444,0.333190065,-0.3271476
1764763513.3580532,-14.46648,2.5179,1.31236,-0.89013444,0.333190065,-0.3271476
1764763513.3580532,-14.46648,2.5179,1.31236,-0.89013444,0.333190065,-0.3271476
1764763513.3580532,-14.46648,2.5179,1.31236,-0.89013444,0.333190065,-0.3271476
1764763513.3580532,-14.46648,2.5179,1.31236,-0.89013444,0.333190065,-0.3271476
1764763513.3580532,-14.46648,2.5179,1.31236,-0.89013444,0.333190065,-0.3271476
1764763513.3580532,-14.46648,2.5179,1.31236,-0.89013444,0.333190065,-0.3271476
1764763513.3580532,-14.46648,2.5179,1.31236,-0.89013444,0.333190065,-0.3271476
1764763513.4038055,-14.46648,2.5179,1.31236,-0.89013444,0.333190065,-0.3271476
1764763513.4038055,-14.46648,2.5179,1.31236,-0.89013444,0.333190065,-0.3271476
1764763513.4038055,-13.9629,2.73154,0.74774,-0.8876320050000001,0.323790675,-0.320738925
1764763513.4038055,-13.9629,2.73154,0.74774,-0.8876320050000001,0.323790675,-0.320738925
1764763513.4038055,-13.9629,2.73154,0.74774,-0.8876320050000001,0.323790675,-0.320738925
1764763513.4038055,-13.9629,2.73154,0.74774,-0.8876320050000001,0.323790675,-0.320738925
1764763513.4038055,-13.9629,2.73154,0.74774,-0.8876320050000001,0.323790675,-0.320738925
1764763513.4038055,-13.9629,2.73154,0.74774,-0.8876320050000001,0.323790675,-0.320738925
1764763513.4038055,-13.9629,2.73154,0.74774,-0.8876320050000001,0.323790675,-0.320738925
1764763513.4038055,-13.9629,2.73154,0.74774,-0.8876320050000001,0.323790675,-0.320738925
1764763513.4038055,-13.9629,2.73154,0.74774,-0.8876320050000001,0.323790675,-0.320738925
1764763513.4038055,-13.9629,2.73154,0.74774,-0.8876320050000001,0.323790675,-0.320738925
1764763513.4038055,-7.95046,4.01338,1.4497,-0.888364425,0.316100265,-0.315611985
1764763513.4038055,-7.95046,4.01338,1.4497,-0.888364425,0.316100265,-0.315611985
1764763513.4038055,-7.95046,4.01338,1.4497,-0.888364425,0.316100265,-0.315611985
1764763513.4038055,-7.95046,4.01338,1.4497,-0.888364425,0.316100265,-0.315611985
1764763513.4038055,-7.95046,4.01338,1.4497,-0.888364425,0.316100265,-0.315611985
1764763513.4038055,-7.95046,4.01338,1.4497,-0.888364425,0.316100265,-0.315611985
1764763513.4038055,-7.95046,4.01338,1.4497,-0.888364425,0.316100265,-0.315611985
1764763513.4038055,-7.95046,4.01338,1.4497,-0.888364425,0.316100265,-0.315611985
1764763513.4533591,-7.95046,4.01338,1.4497,-0.888364425,0.316100265,-0.315611985
1764763513.4533591,-7.95046,4.01338,1.4497,-0.888364425,0.316100265,-0.315611985
1764763513.4533591,-5.63094,4.959499999999999,3.7387,-0.892270665,0.31701579,-0.314147145
1764763513.4533591,-5.63094,4.959499999999999,3.7387,-0.892270665,0.31701579,-0.314147145
1764763513.4533591,-5.63094,4.959499999999999,3.7387,-0.892270665,0.31701579,-0.314147145
1764763513.4533591,-5.63094,4.959499999999999,3.7387,-0.892270665,0.31701579,-0.314147145
1764763513.4533591,-5.63094,4.959499999999999,3.7387,-0.892270665,0.31701579,-0.314147145
1764763513.4533591,-5.63094,4.959499999999999,3.7387,-0.892270665,0.31701579,-0.314147145
1764763513.4533591,-5.63094,4.959499999999999,3.7387,-0.892270665,0.31701579,-0.314147145
1764763513.4533591,-5.63094,4.959499999999999,3.7387,-0.892270665,0.31701579,-0.314147145
1764763513.4533591,-5.63094,4.959499999999999,3.7387,-0.892270665,0.31701579,-0.314147145
1764763513.4533591,-5.63094,4.959499999999999,3.7387,-0.892270665,0.31701579,-0.314147145
1764763513.4533591,-6.271859999999999,4.822159999999999,4.577999999999999,-0.89306412,0.318663735,-0.315367845
1764763513.4533591,-6.271859999999999,4.822159999999999,4.577999999999999,-0.89306412,0.318663735,-0.315367845
1764763513.4533591,-6.271859999999999,4.822159999999999,4.577999999999999,-0.89306412,0.318663735,-0.315367845
1764763513.4533591,-6.271859999999999,4.822159999999999,4.577999999999999,-0.89306412,0.318663735,-0.315367845
1764763513.4543772,-6.271859999999999,4.822159999999999,4.577999999999999,-0.89306412,0.318663735,-0.315367845
1764763513.4543772,-6.271859999999999,4.822159999999999,4.577999999999999,-0.89306412,0.318663735,-0.315367845
1764763513.4543772,-6.271859999999999,4.822159999999999,4.577999999999999,-0.89306412,0.318663735,-0.315367845
1764763513.4543772,-6.271859999999999,4.822159999999999,4.577999999999999,-0.89306412,0.318663735,-0.315367845
1764763513.4543772,-6.271859999999999,4.822159999999999,4.577999999999999,-0.89306412,0.318663735,-0.315367845
1764763513.4543772,-6.271859999999999,4.822159999999999,4.577999999999999,-0.89306412,0.318663735,-0.315367845
1764763513.4543772,-2.5942,4.70008,3.52506,-0.89098893,0.31164471,-0.317443035
1764763513.4543772,-2.5942,4.70008,3.52506,-0.89098893,0.31164471,-0.317443035
1764763513.4543772,-2.5942,4.70008,3.52506,-0.89098893,0.31164471,-0.317443035
1764763513.4543772,-2.5942,4.70008,3.52506,-0.89098893,0.31164471,-0.317443035
1764763513.497496,-2.5942,4.70008,3.52506,-0.89098893,0.31164471,-0.317443035
1764763513.497496,-2.5942,4.70008,3.52506,-0.89098893,0.31164471,-0.317443035
1764763513.497496,-2.5942,4.70008,3.52506,-0.89098893,0.31164471,-0.317443035
1764763513.497496,-2.5942,4.70008,3.52506,-0.89098893,0.31164471,-0.317443035
1764763513.497496,-2.5942,4.70008,3.52506,-0.89098893,0.31164471,-0.317443035
1764763513.497496,-2.5942,4.70008,3.52506,-0.89098893,0.31164471,-0.317443035
1764763513.497496,5.4936,3.57084,2.1364,-0.8874489,0.303893265,-0.32006754
1764763513.497496,5.4936,3.57084,2.1364,-0.8874489,0.303893265,-0.32006754
1764763513.497496,5.4936,3.57084,2.1364,-0.8874489,0.303893265,-0.32006754
1764763513.497496,5.4936,3.57084,2.1364,-0.8874489,0.303893265,-0.32006754
1764763513.497496,5.4936,3.57084,2.1364,-0.8874489,0.303893265,-0.32006754
1764763513.497496,5.4936,3.57084,2.1364,-0.8874489,0.303893265,-0.32006754
1764763513.497496,5.4936,3.57084,2.1364,-0.8874489,0.303893265,-0.32006754
1764763513.497496,5.4936,3.57084,2.1364,-0.8874489,0.303893265,-0.32006754
1764763513.497496,5.4936,3.57084,2.1364,-0.8874489,0.303893265,-0.32006754
1764763513.497496,5.4936,3.57084,2.1364,-0.8874489,0.303893265,-0.32006754
1764763513.497496,8.14884,2.10588,1.19028,-0.88769304,0.30651777,-0.32250894
1764763513.497496,8.14884,2.10588,1.19028,-0.88769304,0.30651777,-0.32250894
1764763513.497496,8.14884,2.10588,1.19028,-0.88769304,0.30651777,-0.32250894
1764763513.497496,8.14884,2.10588,1.19028,-0.88769304,0.30651777,-0.32250894
1764763513.497496,8.14884,2.10588,1.19028,-0.88769304,0.30651777,-0.32250894
1764763513.497496,8.14884,2.10588,1.19028,-0.88769304,0.30651777,-0.32250894
1764763513.497496,8.14884,2.10588,1.19028,-0.88769304,0.30651777,-0.32250894
1764763513.497496,8.14884,2.10588,1.19028,-0.88769304,0.30651777,-0.32250894
1764763513.5437412,8.14884,2.10588,1.19028,-0.88769304,0.30651777,-0.32250894
1764763513.5442462,8.14884,2.10588,1.19028,-0.88769304,0.30651777,-0.32250894
1764763513.5442462,2.88414,1.17502,-0.6714399999999999,-0.887998215,0.311339535,-0.325011375
1764763513.5442462,2.88414,1.17502,-0.6714399999999999,-0.887998215,0.311339535,-0.325011375
1764763513.5442462,2.88414,1.17502,-0.6714399999999999,-0.887998215,0.311339535,-0.325011375
1764763513.5442462,2.88414,1.17502,-0.6714399999999999,-0.887998215,0.311339535,-0.325011375
1764763513.5442462,2.88414,1.17502,-0.6714399999999999,-0.887998215,0.311339535,-0.325011375
1764763513.5442462,2.88414,1.17502,-0.6714399999999999,-0.887998215,0.311339535,-0.325011375
1764763513.5442462,2.88414,1.17502,-0.6714399999999999,-0.887998215,0.311339535,-0.325011375
1764763513.5442462,2.88414,1.17502,-0.6714399999999999,-0.887998215,0.311339535,-0.325011375
1764763513.5442462,2.88414,1.17502,-0.6714399999999999,-0.887998215,0.311339535,-0.325011375
1764763513.5442462,2.88414,1.17502,-0.6714399999999999,-0.887998215,0.311339535,-0.325011375
1764763513.5442462,-1.0682,1.02242,-1.49548,-0.88805925,0.30786054,-0.325377585
1764763513.5442462,-1.0682,1.02242,-1.49548,-0.88805925,0.30786054,-0.325377585
1764763513.5442462,-1.0682,1.02242,-1.49548,-0.88805925,0.30786054,-0.325377585
1764763513.5442462,-1.0682,1.02242,-1.49548,-0.88805925,0.30786054,-0.325377585
1764763513.5442462,-1.0682,1.02242,-1.49548,-0.88805925,0.30786054,-0.325377585
1764763513.5442462,-1.0682,1.02242,-1.49548,-0.88805925,0.30786054,-0.325377585
1764763513.5442462,-1.0682,1.02242,-1.49548,-0.88805925,0.30786054,-0.325377585
1764763513.5442462,-1.0682,1.02242,-1.49548,-0.88805925,0.30786054,-0.325377585
1764763513.5442462,-1.0682,1.02242,-1.49548,-0.88805925,0.30786054,-0.325377585
1764763513.5442462,-1.0682,1.02242,-1.49548,-0.88805925,0.30786054,-0.325377585
1764763513.5442462,0.6714399999999999,0.94612,-1.78542,-0.88830339,0.29980392,-0.32421792
1764763513.5447488,0.6714399999999999,0.94612,-1.78542,-0.88830339,0.29980392,-0.32421792
1764763513.590958,0.6714399999999999,0.94612,-1.78542,-0.88830339,0.29980392,-0.32421792
1764763513.590958,0.6714399999999999,0.94612,-1.78542,-0.88830339,0.29980392,-0.32421792
1764763513.591851,0.6714399999999999,0.94612,-1.78542,-0.88830339,0.29980392,-0.32421792
1764763513.591851,0.6714399999999999,0.94612,-1.78542,-0.88830339,0.29980392,-0.32421792
1764763513.591851,0.6714399999999999,0.94612,-1.78542,-0.88830339,0.29980392,-0.32421792
1764763513.591851,0.6714399999999999,0.94612,-1.78542,-0.88830339,0.29980392,-0.32421792
1764763513.591851,0.6714399999999999,0.94612,-1.78542,-0.88830339,0.29980392,-0.32421792
1764763513.591851,0.6714399999999999,0.94612,-1.78542,-0.88830339,0.29980392,-0.32421792
1764763513.591851,4.77638,1.35814,-0.71722,-0.89050065,0.29833908,-0.32372964
1764763513.591851,4.77638,1.35814,-0.71722,-0.89050065,0.29833908,-0.32372964
1764763513.591851,4.77638,1.35814,-0.71722,-0.89050065,0.29833908,-0.32372964
1764763513.591851,4.77638,1.35814,-0.71722,-0.89050065,0.29833908,-0.32372964
1764763513.591851,4.77638,1.35814,-0.71722,-0.89050065,0.29833908,-0.32372964
1764763513.591851,4.77638,1.35814,-0.71722,-0.89050065,0.29833908,-0.32372964
1764763513.591851,4.77638,1.35814,-0.71722,-0.89050065,0.29833908,-0.32372964
1764763513.591851,4.77638,1.35814,-0.71722,-0.89050065,0.29833908,-0.32372964
1764763513.591851,4.77638,1.35814,-0.71722,-0.89050065,0.29833908,-0.32372964
1764763513.591851,4.77638,1.35814,-0.71722,-0.89050065,0.29833908,-0.32372964
1764763513.591851,3.61662,1.3734,1.2971,-0.89538345,0.30810468,-0.324156885
1764763513.591851,3.61662,1.3734,1.2971,-0.89538345,0.30810468,-0.324156885
1764763513.591851,3.61662,1.3734,1.2971,-0.89538345,0.30810468,-0.324156885
1764763513.591851,3.61662,1.3734,1.2971,-0.89538345,0.30810468,-0.324156885
1764763513.6389506,3.61662,1.3734,1.2971,-0.89538345,0.30810468,-0.324156885
1764763513.6389506,3.61662,1.3734,1.2971,-0.89538345,0.30810468,-0.324156885
1764763513.6389506,3.61662,1.3734,1.2971,-0.89538345,0.30810468,-0.324156885
1764763513.6389506,3.61662,1.3734,1.2971,-0.89538345,0.30810468,-0.324156885
1764763513.6389506,3.61662,1.3734,1.2971,-0.89538345,0.30810468,-0.324156885
1764763513.6389506,3.61662,1.3734,1.2971,-0.89538345,0.30810468,-0.324156885
1764763513.6389506,-1.46496,1.2055399999999998,1.64808,-0.8959938000000001,0.31994547,-0.3259269
1764763513.6389506,-1.46496,1.2055399999999998,1.64808,-0.8959938000000001,0.31994547,-0.3259269
1764763513.6389506,-1.46496,1.2055399999999998,1.64808,-0.8959938000000001,0.31994547,-0.3259269
1764763513.6389506,-1.46496,1.2055399999999998,1.64808,-0.8959938000000001,0.31994547,-0.3259269
1764763513.6389506,-1.46496,1.2055399999999998,1.64808,-0.8959938000000001,0.31994547,-0.3259269
1764763513.6389506,-1.46496,1.2055399999999998,1.64808,-0.8959938000000001,0.31994547,-0.3259269
1764763513.6389506,-1.46496,1.2055399999999998,1.64808,-0.8959938000000001,0.31994547,-0.3259269
1764763513.6389506,-1.46496,1.2055399999999998,1.64808,-0.8959938000000001,0.31994547,-0.3259269
1764763513.6389506,-1.46496,1.2055399999999998,1.64808,-0.8959938000000001,0.31994547,-0.3259269
1764763513.6389506,-1.46496,1.2055399999999998,1.64808,-0.8959938000000001,0.31994547,-0.3259269
1764763513.6389506,-10.33102,2.16692,1.11398,-0.893613435,0.32849037,-0.325377585
1764763513.6389506,-10.33102,2.16692,1.11398,-0.893613435,0.32849037,-0.325377585
1764763513.6389506,-10.33102,2.16692,1.11398,-0.893613435,0.32849037,-0.325377585
1764763513.6389506,-10.33102,2.16692,1.11398,-0.893613435,0.32849037,-0.325377585
1764763513.6389506,-10.33102,2.16692,1.11398,-0.893613435,0.32849037,-0.325377585
1764763513.6389506,-10.33102,2.16692,1.11398,-0.893613435,0.32849037,-0.325377585
1764763513.6389506,-10.33102,2.16692,1.11398,-0.893613435,0.32849037,-0.325377585
1764763513.6399558,-10.33102,2.16692,1.11398,-0.893613435,0.32849037,-0.325377585
1764763513.6830845,-10.33102,2.16692,1.11398,-0.893613435,0.32849037,-0.325377585
1764763513.6840944,-10.33102,2.16692,1.11398,-0.893613435,0.32849037,-0.325377585
1764763513.6840944,-17.65582,3.15882,0.18312,-0.890439615,0.330992805,-0.323912745
1764763513.6840944,-17.65582,3.15882,0.18312,-0.890439615,0.330992805,-0.323912745
1764763513.6846006,-17.65582,3.15882,0.18312,-0.890439615,0.330992805,-0.323912745
1764763513.6846006,-17.65582,3.15882,0.18312,-0.890439615,0.330992805,-0.323912745
1764763513.6846006,-17.65582,3.15882,0.18312,-0.890439615,0.330992805,-0.323912745
1764763513.6846006,-17.65582,3.15882,0.18312,-0.890439615,0.330992805,-0.323912745
1764763513.6846006,-17.65582,3.15882,0.18312,-0.890439615,0.330992805,-0.323912745
1764763513.6846006,-17.65582,3.15882,0.18312,-0.890439615,0.330992805,-0.323912745
1764763513.6846006,-17.65582,3.15882,0.18312,-0.890439615,0.330992805,-0.323912745
1764763513.6846006,-17.65582,3.15882,0.18312,-0.890439615,0.330992805,-0.323912745
1764763513.6846006,-21.10458,4.5017,0.36624,-0.88598406,0.32995521,-0.31945719
1764763513.6846006,-21.10458,4.5017,0.36624,-0.88598406,0.32995521,-0.31945719
1764763513.6846006,-21.10458,4.5017,0.36624,-0.88598406,0.32995521,-0.31945719
1764763513.6846006,-21.10458,4.5017,0.36624,-0.88598406,0.32995521,-0.31945719
1764763513.6846006,-21.10458,4.5017,0.36624,-0.88598406,0.32995521,-0.31945719
1764763513.6846006,-21.10458,4.5017,0.36624,-0.88598406,0.32995521,-0.31945719
1764763513.6846006,-21.10458,4.5017,0.36624,-0.88598406,0.32995521,-0.31945719
1764763513.6846006,-21.10458,4.5017,0.36624,-0.88598406,0.32995521,-0.31945719
1764763513.6846006,-21.10458,4.5017,0.36624,-0.88598406,0.32995521,-0.31945719
1764763513.6846006,-21.10458,4.5017,0.36624,-0.88598406,0.32995521,-0.31945719
1764763513.7311635,-21.98966,4.68482,0.94612,-0.8865333750000001,0.3283683,-0.31396404
1764763513.7311635,-21.98966,4.68482,0.94612,-0.8865333750000001,0.3283683,-0.31396404
1764763513.7311635,-21.98966,4.68482,0.94612,-0.8865333750000001,0.3283683,-0.31396404
1764763513.7311635,-21.98966,4.68482,0.94612,-0.8865333750000001,0.3283683,-0.31396404
1764763513.7311635,-21.98966,4.68482,0.94612,-0.8865333750000001,0.3283683,-0.31396404
1764763513.7311635,-21.98966,4.68482,0.94612,-0.8865333750000001,0.3283683,-0.31396404
1764763513.7311635,-21.98966,4.68482,0.94612,-0.8865333750000001,0.3283683,-0.31396404
1764763513.7311635,-21.98966,4.68482,0.94612,-0.8865333750000001,0.3283683,-0.31396404
1764763513.7311635,-21.98966,4.68482,0.94612,-0.8865333750000001,0.3283683,-0.31396404
1764763513.7311635,-21.98966,4.68482,0.94612,-0.8865333750000001,0.3283683,-0.31396404
1764763513.7311635,-20.34158,5.7988,0.97664,-0.88610613,0.324767235,-0.30786054
1764763513.7311635,-20.34158,5.7988,0.97664,-0.88610613,0.324767235,-0.30786054
1764763513.7311635,-20.34158,5.7988,0.97664,-0.88610613,0.324767235,-0.30786054
1764763513.7311635,-20.34158,5.7988,0.97664,-0.88610613,0.324767235,-0.30786054
1764763513.7311635,-20.34158,5.7988,0.97664,-0.88610613,0.324767235,-0.30786054
1764763513.7316763,-20.34158,5.7988,0.97664,-0.88610613,0.324767235,-0.30786054
1764763513.7316763,-20.34158,5.7988,0.97664,-0.88610613,0.324767235,-0.30786054
1764763513.7316763,-20.34158,5.7988,0.97664,-0.88610613,0.324767235,-0.30786054
1764763513.7316763,-20.34158,5.7988,0.97664,-0.88610613,0.324767235,-0.30786054
1764763513.7316763,-20.34158,5.7988,0.97664,-0.88610613,0.324767235,-0.30786054
1764763513.7316763,-16.0993,7.263759999999999,-0.4578,-0.884580255,0.317320965,-0.30322188
1764763513.7316763,-16.0993,7.263759999999999,-0.4578,-0.884580255,0.317320965,-0.30322188
1764763513.7316763,-16.0993,7.263759999999999,-0.4578,-0.884580255,0.317320965,-0.30322188
1764763513.7316763,-16.0993,7.263759999999999,-0.4578,-0.884580255,0.317320965,-0.30322188
1764763513.7748098,-16.0993,7.263759999999999,-0.4578,-0.884580255,0.317320965,-0.30322188
1764763513.7748098,-16.0993,7.263759999999999,-0.4578,-0.884580255,0.317320965,-0.30322188
1764763513.7748098,-16.0993,7.263759999999999,-0.4578,-0.884580255,0.317320965,-0.30322188
1764763513.7748098,-16.0993,7.263759999999999,-0.4578,-0.884580255,0.317320965,-0.30322188
1764763513.7748098,-16.0993,7.263759999999999,-0.4578,-0.884580255,0.317320965,-0.30322188
1764763513.7748098,-16.0993,7.263759999999999,-0.4578,-0.884580255,0.317320965,-0.30322188
1764763513.7748098,-10.54466,7.52318,-0.3509799999999999,-0.8839088700000001,0.30993573,-0.301818075
1764763513.7748098,-10.54466,7.52318,-0.3509799999999999,-0.8839088700000001,0.30993573,-0.301818075
1764763513.7748098,-10.54466,7.52318,-0.3509799999999999,-0.8839088700000001,0.30993573,-0.301818075
1764763513.7748098,-10.54466,7.52318,-0.3509799999999999,-0.8839088700000001,0.30993573,-0.301818075
1764763513.7748098,-10.54466,7.52318,-0.3509799999999999,-0.8839088700000001,0.30993573,-0.301818075
1764763513.7748098,-10.54466,7.52318,-0.3509799999999999,-0.8839088700000001,0.30993573,-0.301818075
1764763513.7748098,-10.54466,7.52318,-0.3509799999999999,-0.8839088700000001,0.30993573,-0.301818075
1764763513.7753177,-10.54466,7.52318,-0.3509799999999999,-0.8839088700000001,0.30993573,-0.301818075
1764763513.7753177,-10.54466,7.52318,-0.3509799999999999,-0.8839088700000001,0.30993573,-0.301818075
1764763513.7753177,-10.54466,7.52318,-0.3509799999999999,-0.8839088700000001,0.30993573,-0.301818075
1764763513.7753177,-7.56896,7.645259999999999,1.03768,-0.8854957800000001,0.30822675,-0.302550495
1764763513.7753177,-7.56896,7.645259999999999,1.03768,-0.8854957800000001,0.30822675,-0.302550495
1764763513.7753177,-7.56896,7.645259999999999,1.03768,-0.8854957800000001,0.30822675,-0.302550495
1764763513.7753177,-7.56896,7.645259999999999,1.03768,-0.8854957800000001,0.30822675,-0.302550495
1764763513.7753177,-7.56896,7.645259999999999,1.03768,-0.8854957800000001,0.30822675,-0.302550495
1764763513.7753177,-7.56896,7.645259999999999,1.03768,-0.8854957800000001,0.30822675,-0.302550495
1764763513.7753177,-7.56896,7.645259999999999,1.03768,-0.8854957800000001,0.30822675,-0.302550495
1764763513.7753177,-7.56896,7.645259999999999,1.03768,-0.8854957800000001,0.30822675,-0.302550495
1764763513.8243132,-7.56896,7.645259999999999,1.03768,-0.8854957800000001,0.30822675,-0.302550495
1764763513.8243132,-7.56896,7.645259999999999,1.03768,-0.8854957800000001,0.30822675,-0.302550495
1764763513.824818,-6.04296,5.92088,1.31236,-0.89001237,0.307921575,-0.30505293
1764763513.824818,-6.04296,5.92088,1.31236,-0.89001237,0.307921575,-0.30505293
1764763513.824818,-6.04296,5.92088,1.31236,-0.89001237,0.307921575,-0.30505293
1764763513.824818,-6.04296,5.92088,1.31236,-0.89001237,0.307921575,-0.30505293
1764763513.824818,-6.04296,5.92088,1.31236,-0.89001237,0.307921575,-0.30505293
1764763513.824818,-6.04296,5.92088,1.31236,-0.89001237,0.307921575,-0.30505293
1764763513.824818,-6.04296,5.92088,1.31236,-0.89001237,0.307921575,-0.30505293
1764763513.824818,-6.04296,5.92088,1.31236,-0.89001237,0.307921575,-0.30505293
1764763513.824818,-6.04296,5.92088,1.31236,-0.89001237,0.307921575,-0.30505293
1764763513.824818,-6.04296,5.92088,1.31236,-0.89001237,0.307921575,-0.30505293
1764763513.8258345,1.03768,4.54748,2.73154,-0.89257584,0.304625685,-0.311217465
1764763513.8258345,1.03768,4.54748,2.73154,-0.89257584,0.304625685,-0.311217465
1764763513.8258345,1.03768,4.54748,2.73154,-0.89257584,0.304625685,-0.311217465
1764763513.8258345,1.03768,4.54748,2.73154,-0.89257584,0.304625685,-0.311217465
1764763513.8258345,1.03768,4.54748,2.73154,-0.89257584,0.304625685,-0.311217465
1764763513.826373,1.03768,4.54748,2.73154,-0.89257584,0.304625685,-0.311217465
1764763513.826373,1.03768,4.54748,2.73154,-0.89257584,0.304625685,-0.311217465
1764763513.826373,1.03768,4.54748,2.73154,-0.89257584,0.304625685,-0.311217465
1764763513.826373,1.03768,4.54748,2.73154,-0.89257584,0.304625685,-0.311217465
1764763513.826373,1.03768,4.54748,2.73154,-0.89257584,0.304625685,-0.311217465
1764763513.826373,9.5375,3.26564,4.1202,-0.894223785,0.30346602,-0.31603923
1764763513.826373,9.5375,3.26564,4.1202,-0.894223785,0.30346602,-0.31603923
1764763513.8689356,9.5375,3.26564,4.1202,-0.894223785,0.30346602,-0.31603923
1764763513.8689356,9.5375,3.26564,4.1202,-0.894223785,0.30346602,-0.31603923
1764763513.8701725,9.5375,3.26564,4.1202,-0.894223785,0.30346602,-0.31603923
1764763513.8701725,9.5375,3.26564,4.1202,-0.894223785,0.30346602,-0.31603923
1764763513.8705757,9.5375,3.26564,4.1202,-0.894223785,0.30346602,-0.31603923
1764763513.8705757,9.5375,3.26564,4.1202,-0.894223785,0.30346602,-0.31603923
1764763513.8705757,9.5375,3.26564,4.1202,-0.894223785,0.30346602,-0.31603923
1764763513.8705757,9.5375,3.26564,4.1202,-0.894223785,0.30346602,-0.31603923
1764763513.8705757,12.37586,-0.71722,1.58704,-0.894834135,0.31091229,-0.321227205
1764763513.8705757,12.37586,-0.71722,1.58704,-0.894834135,0.31091229,-0.321227205
1764763513.8705757,12.37586,-0.71722,1.58704,-0.894834135,0.31091229,-0.321227205
1764763513.8705757,12.37586,-0.71722,1.58704,-0.894834135,0.31091229,-0.321227205
1764763513.8705757,12.37586,-0.71722,1.58704,-0.894834135,0.31091229,-0.321227205
1764763513.8705757,12.37586,-0.71722,1.58704,-0.894834135,0.31091229,-0.321227205
1764763513.8705757,12.37586,-0.71722,1.58704,-0.894834135,0.31091229,-0.321227205
1764763513.8705757,12.37586,-0.71722,1.58704,-0.894834135,0.31091229,-0.321227205
1764763513.8705757,12.37586,-0.71722,1.58704,-0.894834135,0.31091229,-0.321227205
1764763513.8705757,12.37586,-0.71722,1.58704,-0.894834135,0.31091229,-0.321227205
1764763513.8705757,5.21892,-2.33478,0.09156,-0.89294205,0.324156885,-0.32507241
1764763513.8705757,5.21892,-2.33478,0.09156,-0.89294205,0.324156885,-0.32507241
1764763513.8705757,5.21892,-2.33478,0.09156,-0.89294205,0.324156885,-0.32507241
1764763513.8705757,5.21892,-2.33478,0.09156,-0.89294205,0.324156885,-0.32507241
1764763513.9164083,5.21892,-2.33478,0.09156,-0.89294205,0.324156885,-0.32507241
1764763513.9164083,5.21892,-2.33478,0.09156,-0.89294205,0.324156885,-0.32507241
1764763513.9164083,5.21892,-2.33478,0.09156,-0.89294205,0.324156885,-0.32507241
1764763513.9164083,5.21892,-2.33478,0.09156,-0.89294205,0.324156885,-0.32507241
1764763513.9164083,5.21892,-2.33478,0.09156,-0.89294205,0.324156885,-0.32507241
1764763513.9164083,5.21892,-2.33478,0.09156,-0.89294205,0.324156885,-0.32507241
1764763513.9164083,-6.47024,-1.4497,-0.3204599999999999,-0.88952409,0.33410559,-0.324401025
1764763513.9164083,-6.47024,-1.4497,-0.3204599999999999,-0.88952409,0.33410559,-0.324401025
1764763513.9164083,-6.47024,-1.4497,-0.3204599999999999,-0.88952409,0.33410559,-0.324401025
1764763513.9164083,-6.47024,-1.4497,-0.3204599999999999,-0.88952409,0.33410559,-0.324401025
1764763513.9164083,-6.47024,-1.4497,-0.3204599999999999,-0.88952409,0.33410559,-0.324401025
1764763513.9164083,-6.47024,-1.4497,-0.3204599999999999,-0.88952409,0.33410559,-0.324401025
1764763513.9164083,-6.47024,-1.4497,-0.3204599999999999,-0.88952409,0.33410559,-0.324401025
1764763513.9164083,-6.47024,-1.4497,-0.3204599999999999,-0.88952409,0.33410559,-0.324401025
1764763513.9164083,-6.47024,-1.4497,-0.3204599999999999,-0.88952409,0.33410559,-0.324401025
1764763513.9164083,-6.47024,-1.4497,-0.3204599999999999,-0.88952409,0.33410559,-0.324401025
1764763513.9164083,-13.59666,0.48832,-0.2289,-0.88793718,0.33349524,-0.319274085
1764763513.9164083,-13.59666,0.48832,-0.2289,-0.88793718,0.33349524,-0.319274085
1764763513.9164083,-13.59666,0.48832,-0.2289,-0.88793718,0.33349524,-0.319274085
1764763513.9164083,-13.59666,0.48832,-0.2289,-0.88793718,0.33349524,-0.319274085
1764763513.9164083,-13.59666,0.48832,-0.2289,-0.88793718,0.33349524,-0.319274085
1764763513.9164083,-13.59666,0.48832,-0.2289,-0.88793718,0.33349524,-0.319274085
1764763513.9639552,-13.59666,0.48832,-0.2289,-0.88793718,0.33349524,-0.319274085
1764763513.9639552,-13.59666,0.48832,-0.2289,-0.88793718,0.33349524,-0.319274085
1764763513.9639552,-13.59666,0.48832,-0.2289,-0.88793718,0.33349524,-0.319274085
1764763513.9639552,-13.59666,0.48832,-0.2289,-0.88793718,0.33349524,-0.319274085
1764763513.9639552,-10.49888,3.60136,0.41202,-0.887021655,0.32311929,-0.310362975
1764763513.9639552,-10.49888,3.60136,0.41202,-0.887021655,0.32311929,-0.310362975
1764763513.9639552,-10.49888,3.60136,0.41202,-0.887021655,0.32311929,-0.310362975
1764763513.9639552,-10.49888,3.60136,0.41202,-0.887021655,0.32311929,-0.310362975
1764763513.9639552,-10.49888,3.60136,0.41202,-0.887021655,0.32311929,-0.310362975
1764763513.9649627,-10.49888,3.60136,0.41202,-0.887021655,0.32311929,-0.310362975
1764763513.9649627,-10.49888,3.60136,0.41202,-0.887021655,0.32311929,-0.310362975
1764763513.9649627,-10.49888,3.60136,0.41202,-0.887021655,0.32311929,-0.310362975
1764763513.9649627,-10.49888,3.60136,0.41202,-0.887021655,0.32311929,-0.310362975
1764763513.9649627,-10.49888,3.60136,0.41202,-0.887021655,0.32311929,-0.310362975
1764763513.9649627,1.31236,6.76018,1.46496,-0.886655445,0.31201092,-0.304015335
1764763513.9649627,1.31236,6.76018,1.46496,-0.886655445,0.31201092,-0.304015335
1764763513.9649627,1.31236,6.76018,1.46496,-0.886655445,0.31201092,-0.304015335
1764763513.9649627,1.31236,6.76018,1.46496,-0.886655445,0.31201092,-0.304015335
1764763513.9649627,1.31236,6.76018,1.46496,-0.886655445,0.31201092,-0.304015335
1764763513.9649627,1.31236,6.76018,1.46496,-0.886655445,0.31201092,-0.304015335
1764763513.966143,1.31236,6.76018,1.46496,-0.886655445,0.31201092,-0.304015335
1764763513.966143,1.31236,6.76018,1.46496,-0.886655445,0.31201092,-0.304015335
1764763513.966143,1.31236,6.76018,1.46496,-0.886655445,0.31201092,-0.304015335
1764763513.966143,1.31236,6.76018,1.46496,-0.886655445,0.31201092,-0.304015335
1764763514.0105696,11.87228,8.30144,1.96854,-0.887876145,0.307433295,-0.304991895
1764763514.0105696,11.87228,8.30144,1.96854,-0.887876145,0.307433295,-0.304991895
1764763514.0105696,11.87228,8.30144,1.96854,-0.887876145,0.307433295,-0.304991895
1764763514.0105696,11.87228,8.30144,1.96854,-0.887876145,0.307433295,-0.304991895
1764763514.0105696,11.87228,8.30144,1.96854,-0.887876145,0.307433295,-0.304991895
1764763514.0105696,11.87228,8.30144,1.96854,-0.887876145,0.307433295,-0.304991895
1764763514.0105696,11.87228,8.30144,1.96854,-0.887876145,0.307433295,-0.304991895
1764763514.0105696,11.87228,8.30144,1.96854,-0.887876145,0.307433295,-0.304991895
1764763514.0105696,11.87228,8.30144,1.96854,-0.887876145,0.307433295,-0.304991895
1764763514.0105696,11.87228,8.30144,1.96854,-0.887876145,0.307433295,-0.304991895
1764763514.0105696,14.81746,7.691039999999999,2.2127,-0.889340985,0.3088371,-0.310607115
1764763514.0105696,14.81746,7.691039999999999,2.2127,-0.889340985,0.3088371,-0.310607115
1764763514.0105696,14.81746,7.691039999999999,2.2127,-0.889340985,0.3088371,-0.310607115
1764763514.0105696,14.81746,7.691039999999999,2.2127,-0.889340985,0.3088371,-0.310607115
1764763514.0105696,14.81746,7.691039999999999,2.2127,-0.889340985,0.3088371,-0.310607115
1764763514.0105696,14.81746,7.691039999999999,2.2127,-0.889340985,0.3088371,-0.310607115
1764763514.0105696,14.81746,7.691039999999999,2.2127,-0.889340985,0.3088371,-0.310607115
1764763514.0105696,14.81746,7.691039999999999,2.2127,-0.889340985,0.3088371,-0.310607115
1764763514.0105696,14.81746,7.691039999999999,2.2127,-0.889340985,0.3088371,-0.310607115
1764763514.0105696,14.81746,7.691039999999999,2.2127,-0.889340985,0.3088371,-0.310607115
1764763514.0105696,12.39112,6.28712,2.18218,-0.890439615,0.312438165,-0.318907875
1764763514.0105696,12.39112,6.28712,2.18218,-0.890439615,0.312438165,-0.318907875
1764763514.0105696,12.39112,6.28712,2.18218,-0.890439615,0.312438165,-0.318907875
1764763514.0105696,12.39112,6.28712,2.18218,-0.890439615,0.312438165,-0.318907875
1764763514.0540671,12.39112,6.28712,2.18218,-0.890439615,0.312438165,-0.318907875
1764763514.0540671,12.39112,6.28712,2.18218,-0.890439615,0.312438165,-0.318907875
1764763514.0540671,12.39112,6.28712,2.18218,-0.890439615,0.312438165,-0.318907875
1764763514.0540671,12.39112,6.28712,2.18218,-0.890439615,0.312438165,-0.318907875
1764763514.0540671,12.39112,6.28712,2.18218,-0.890439615,0.312438165,-0.318907875
1764763514.0540671,12.39112,6.28712,2.18218,-0.890439615,0.312438165,-0.318907875
1764763514.0540671,6.74492,5.31048,2.9757,-0.89269791,0.31848063,-0.326232075
1764763514.0540671,6.74492,5.31048,2.9757,-0.89269791,0.31848063,-0.326232075
1764763514.0540671,6.74492,5.31048,2.9757,-0.89269791,0.31848063,-0.326232075
1764763514.0540671,6.74492,5.31048,2.9757,-0.89269791,0.31848063,-0.326232075
1764763514.0540671,6.74492,5.31048,2.9757,-0.89269791,0.31848063,-0.326232075
1764763514.0540671,6.74492,5.31048,2.9757,-0.89269791,0.31848063,-0.326232075
1764763514.0540671,6.74492,5.31048,2.9757,-0.89269791,0.31848063,-0.326232075
1764763514.0540671,6.74492,5.31048,2.9757,-0.89269791,0.31848063,-0.326232075
1764763514.0540671,6.74492,5.31048,2.9757,-0.89269791,0.31848063,-0.326232075
1764763514.0540671,6.74492,5.31048,2.9757,-0.89269791,0.31848063,-0.326232075
1764763514.0540671,2.54842,4.13546,3.2809,-0.8923317000000001,0.32263101,-0.32788002
1764763514.0540671,2.54842,4.13546,3.2809,-0.8923317000000001,0.32263101,-0.32788002
1764763514.0545838,2.54842,4.13546,3.2809,-0.8923317000000001,0.32263101,-0.32788002
1764763514.0545838,2.54842,4.13546,3.2809,-0.8923317000000001,0.32263101,-0.32788002
1764763514.0545838,2.54842,4.13546,3.2809,-0.8923317000000001,0.32263101,-0.32788002
1764763514.0545838,2.54842,4.13546,3.2809,-0.8923317000000001,0.32263101,-0.32788002
1764763514.1041462,2.54842,4.13546,3.2809,-0.8923317000000001,0.32263101,-0.32788002
1764763514.1041462,2.54842,4.13546,3.2809,-0.8923317000000001,0.32263101,-0.32788002
1764763514.104682,2.54842,4.13546,3.2809,-0.8923317000000001,0.32263101,-0.32788002
1764763514.104682,2.54842,4.13546,3.2809,-0.8923317000000001,0.32263101,-0.32788002
1764763514.104682,0.3051999999999999,2.79258,0.9919,-0.88891374,0.324401025,-0.32653725
1764763514.104682,0.3051999999999999,2.79258,0.9919,-0.88891374,0.324401025,-0.32653725
1764763514.104682,0.3051999999999999,2.79258,0.9919,-0.88891374,0.324401025,-0.32653725
1764763514.104682,0.3051999999999999,2.79258,0.9919,-0.88891374,0.324401025,-0.32653725
1764763514.104682,0.3051999999999999,2.79258,0.9919,-0.88891374,0.324401025,-0.32653725
1764763514.104682,0.3051999999999999,2.79258,0.9919,-0.88891374,0.324401025,-0.32653725
1764763514.104682,0.3051999999999999,2.79258,0.9919,-0.88891374,0.324401025,-0.32653725
1764763514.104682,0.3051999999999999,2.79258,0.9919,-0.88891374,0.324401025,-0.32653725
1764763514.104682,0.3051999999999999,2.79258,0.9919,-0.88891374,0.324401025,-0.32653725
1764763514.104682,0.3051999999999999,2.79258,0.9919,-0.88891374,0.324401025,-0.32653725
1764763514.104682,0.3051999999999999,1.6786,-1.00716,-0.88683855,0.32128824,-0.32299722
1764763514.104682,0.3051999999999999,1.6786,-1.00716,-0.88683855,0.32128824,-0.32299722
1764763514.104682,0.3051999999999999,1.6786,-1.00716,-0.88683855,0.32128824,-0.32299722
1764763514.104682,0.3051999999999999,1.6786,-1.00716,-0.88683855,0.32128824,-0.32299722
1764763514.104682,0.3051999999999999,1.6786,-1.00716,-0.88683855,0.32128824,-0.32299722
1764763514.104682,0.3051999999999999,1.6786,-1.00716,-0.88683855,0.32128824,-0.32299722
1764763514.104682,0.3051999999999999,1.6786,-1.00716,-0.88683855,0.32128824,-0.32299722
1764763514.104682,0.3051999999999999,1.6786,-1.00716,-0.88683855,0.32128824,-0.32299722
1764763514.104682,0.3051999999999999,1.6786,-1.00716,-0.88683855,0.32128824,-0.32299722
1764763514.104682,0.3051999999999999,1.6786,-1.00716,-0.88683855,0.32128824,-0.32299722
1764763514.104682,-0.77826,1.54126,-0.85456,-0.88781511,0.320494785,-0.32128824
1764763514.104682,-0.77826,1.54126,-0.85456,-0.88781511,0.320494785,-0.32128824
1764763514.1507738,-0.77826,1.54126,-0.85456,-0.88781511,0.320494785,-0.32128824
1764763514.1507738,-0.77826,1.54126,-0.85456,-0.88781511,0.320494785,-0.32128824
1764763514.1507738,-0.77826,1.54126,-0.85456,-0.88781511,0.320494785,-0.32128824
1764763514.1507738,-0.77826,1.54126,-0.85456,-0.88781511,0.320494785,-0.32128824
1764763514.1507738,-0.77826,1.54126,-0.85456,-0.88781511,0.320494785,-0.32128824
1764763514.151789,-0.77826,1.54126,-0.85456,-0.88781511,0.320494785,-0.32128824
1764763514.151789,-0.77826,1.54126,-0.85456,-0.88781511,0.320494785,-0.32128824
1764763514.151789,-0.77826,1.54126,-0.85456,-0.88781511,0.320494785,-0.32128824
1764763514.151789,-3.5098,2.15166,-0.3051999999999999,-0.889096845,0.321105135,-0.319884435
1764763514.151789,-3.5098,2.15166,-0.3051999999999999,-0.889096845,0.321105135,-0.319884435
1764763514.151789,-3.5098,2.15166,-0.3051999999999999,-0.889096845,0.321105135,-0.319884435
1764763514.151789,-3.5098,2.15166,-0.3051999999999999,-0.889096845,0.321105135,-0.319884435
1764763514.151789,-3.5098,2.15166,-0.3051999999999999,-0.889096845,0.321105135,-0.319884435
1764763514.151789,-3.5098,2.15166,-0.3051999999999999,-0.889096845,0.321105135,-0.319884435
1764763514.151789,-3.5098,2.15166,-0.3051999999999999,-0.889096845,0.321105135,-0.319884435
1764763514.151789,-3.5098,2.15166,-0.3051999999999999,-0.889096845,0.321105135,-0.319884435
1764763514.151789,-3.5098,2.15166,-0.3051999999999999,-0.889096845,0.321105135,-0.319884435
1764763514.151789,-3.5098,2.15166,-0.3051999999999999,-0.889096845,0.321105135,-0.319884435
1764763514.151789,-4.31858,3.25038,0.6867,-0.8898903,0.32238687,-0.317320965
1764763514.151789,-4.31858,3.25038,0.6867,-0.8898903,0.32238687,-0.317320965
1764763514.151789,-4.31858,3.25038,0.6867,-0.8898903,0.32238687,-0.317320965
1764763514.151789,-4.31858,3.25038,0.6867,-0.8898903,0.32238687,-0.317320965
1764763514.1941974,-4.31858,3.25038,0.6867,-0.8898903,0.32238687,-0.317320965
1764763514.1941974,-4.31858,3.25038,0.6867,-0.8898903,0.32238687,-0.317320965
1764763514.1941974,-4.31858,3.25038,0.6867,-0.8898903,0.32238687,-0.317320965
1764763514.1941974,-4.31858,3.25038,0.6867,-0.8898903,0.32238687,-0.317320965
1764763514.1941974,-4.31858,3.25038,0.6867,-0.8898903,0.32238687,-0.317320965
1764763514.1941974,-4.31858,3.25038,0.6867,-0.8898903,0.32238687,-0.317320965
1764763514.1941974,-4.3491,4.56274,2.24322,-0.8907447900000001,0.324401025,-0.3137199
1764763514.1941974,-4.3491,4.56274,2.24322,-0.8907447900000001,0.324401025,-0.3137199
1764763514.1941974,-4.3491,4.56274,2.24322,-0.8907447900000001,0.324401025,-0.3137199
1764763514.1941974,-4.3491,4.56274,2.24322,-0.8907447900000001,0.324401025,-0.3137199
1764763514.1941974,-4.3491,4.56274,2.24322,-0.8907447900000001,0.324401025,-0.3137199
1764763514.1941974,-4.3491,4.56274,2.24322,-0.8907447900000001,0.324401025,-0.3137199
1764763514.1941974,-4.3491,4.56274,2.24322,-0.8907447900000001,0.324401025,-0.3137199
1764763514.1941974,-4.3491,4.56274,2.24322,-0.8907447900000001,0.324401025,-0.3137199
1764763514.1941974,-4.3491,4.56274,2.24322,-0.8907447900000001,0.324401025,-0.3137199
1764763514.1941974,-4.3491,4.56274,2.24322,-0.8907447900000001,0.324401025,-0.3137199
1764763514.1941974,-3.17408,5.7988,2.7468,-0.889585125,0.32433999,-0.311461605
1764763514.1941974,-3.17408,5.7988,2.7468,-0.889585125,0.32433999,-0.311461605
1764763514.1941974,-3.17408,5.7988,2.7468,-0.889585125,0.32433999,-0.311461605
1764763514.1941974,-3.17408,5.7988,2.7468,-0.889585125,0.32433999,-0.311461605
1764763514.1941974,-3.17408,5.7988,2.7468,-0.889585125,0.32433999,-0.311461605
1764763514.1941974,-3.17408,5.7988,2.7468,-0.889585125,0.32433999,-0.311461605
1764763514.241738,-3.17408,5.7988,2.7468,-0.889585125,0.32433999,-0.311461605
1764763514.241738,-3.17408,5.7988,2.7468,-0.889585125,0.32433999,-0.311461605
1764763514.241738,-3.17408,5.7988,2.7468,-0.889585125,0.32433999,-0.311461605
1764763514.241738,-3.17408,5.7988,2.7468,-0.889585125,0.32433999,-0.311461605
1764763514.241738,-4.41014,5.44782,2.54842,-0.887509935,0.32372964,-0.313658865
1764763514.241738,-4.41014,5.44782,2.54842,-0.887509935,0.32372964,-0.313658865
1764763514.241738,-4.41014,5.44782,2.54842,-0.887509935,0.32372964,-0.313658865
1764763514.241738,-4.41014,5.44782,2.54842,-0.887509935,0.32372964,-0.313658865
1764763514.241738,-4.41014,5.44782,2.54842,-0.887509935,0.32372964,-0.313658865
1764763514.241738,-4.41014,5.44782,2.54842,-0.887509935,0.32372964,-0.313658865
1764763514.241738,-4.41014,5.44782,2.54842,-0.887509935,0.32372964,-0.313658865
1764763514.241738,-4.41014,5.44782,2.54842,-0.887509935,0.32372964,-0.313658865
1764763514.241738,-4.41014,5.44782,2.54842,-0.887509935,0.32372964,-0.313658865
1764763514.241738,-4.41014,5.44782,2.54842,-0.887509935,0.32372964,-0.313658865
1764763514.241738,-5.82932,4.22702,2.10588,-0.88683855,0.32202066,-0.31689372
1764763514.241738,-5.82932,4.22702,2.10588,-0.88683855,0.32202066,-0.31689372
1764763514.241738,-5.82932,4.22702,2.10588,-0.88683855,0.32202066,-0.31689372
1764763514.241738,-5.82932,4.22702,2.10588,-0.88683855,0.32202066,-0.31689372
1764763514.241738,-5.82932,4.22702,2.10588,-0.88683855,0.32202066,-0.31689372
1764763514.241738,-5.82932,4.22702,2.10588,-0.88683855,0.32202066,-0.31689372
1764763514.241738,-5.82932,4.22702,2.10588,-0.88683855,0.32202066,-0.31689372
1764763514.241738,-5.82932,4.22702,2.10588,-0.88683855,0.32202066,-0.31689372
1764763514.241738,-5.82932,4.22702,2.10588,-0.88683855,0.32202066,-0.31689372
1764763514.241738,-5.82932,4.22702,2.10588,-0.88683855,0.32202066,-0.31689372
1764763514.2888544,-7.965719999999999,1.96854,-0.36624,-0.884091975,0.320250645,-0.319640295
1764763514.2888544,-7.965719999999999,1.96854,-0.36624,-0.884091975,0.320250645,-0.319640295
1764763514.2888544,-7.965719999999999,1.96854,-0.36624,-0.884091975,0.320250645,-0.319640295
1764763514.2898636,-7.965719999999999,1.96854,-0.36624,-0.884091975,0.320250645,-0.319640295
1764763514.2898636,-7.965719999999999,1.96854,-0.36624,-0.884091975,0.320250645,-0.319640295
1764763514.2898636,-7.965719999999999,1.96854,-0.36624,-0.884091975,0.320250645,-0.319640295
1764763514.2898636,-7.965719999999999,1.96854,-0.36624,-0.884091975,0.320250645,-0.319640295
1764763514.2898636,-7.965719999999999,1.96854,-0.36624,-0.884091975,0.320250645,-0.319640295
1764763514.2898636,-7.965719999999999,1.96854,-0.36624,-0.884091975,0.320250645,-0.319640295
1764763514.2898636,-7.965719999999999,1.96854,-0.36624,-0.884091975,0.320250645,-0.319640295
1764763514.2898636,-11.33818,1.6022999999999998,-2.45686,-0.88049091,0.319518225,-0.321227205
1764763514.2898636,-11.33818,1.6022999999999998,-2.45686,-0.88049091,0.319518225,-0.321227205
1764763514.2898636,-11.33818,1.6022999999999998,-2.45686,-0.88049091,0.319518225,-0.321227205
1764763514.2898636,-11.33818,1.6022999999999998,-2.45686,-0.88049091,0.319518225,-0.321227205
1764763514.2910297,-11.33818,1.6022999999999998,-2.45686,-0.88049091,0.319518225,-0.321227205
1764763514.2910297,-11.33818,1.6022999999999998,-2.45686,-0.88049091,0.319518225,-0.321227205
1764763514.2910297,-11.33818,1.6022999999999998,-2.45686,-0.88049091,0.319518225,-0.321227205
1764763514.291576,-11.33818,1.6022999999999998,-2.45686,-0.88049091,0.319518225,-0.321227205
1764763514.291576,-11.33818,1.6022999999999998,-2.45686,-0.88049091,0.319518225,-0.321227205
1764763514.291576,-11.33818,1.6022999999999998,-2.45686,-0.88049091,0.319518225,-0.321227205
1764763514.291576,-15.74832,2.27374,-2.96044,-0.87682881,0.31896891,-0.32189859
1764763514.291576,-15.74832,2.27374,-2.96044,-0.87682881,0.31896891,-0.32189859
1764763514.291576,-15.74832,2.27374,-2.96044,-0.87682881,0.31896891,-0.32189859
1764763514.291576,-15.74832,2.27374,-2.96044,-0.87682881,0.31896891,-0.32189859
1764763514.334559,-15.74832,2.27374,-2.96044,-0.87682881,0.31896891,-0.32189859
1764763514.334559,-15.74832,2.27374,-2.96044,-0.87682881,0.31896891,-0.32189859
1764763514.334559,-15.74832,2.27374,-2.96044,-0.87682881,0.31896891,-0.32189859
1764763514.334559,-15.74832,2.27374,-2.96044,-0.87682881,0.31896891,-0.32189859
1764763514.334559,-15.74832,2.27374,-2.96044,-0.87682881,0.31896891,-0.32189859
1764763514.334559,-15.74832,2.27374,-2.96044,-0.87682881,0.31896891,-0.32189859
1764763514.334559,-18.32726,2.25848,-3.47928,-0.8764626,0.318175455,-0.31945719
1764763514.334559,-18.32726,2.25848,-3.47928,-0.8764626,0.318175455,-0.31945719
1764763514.334559,-18.32726,2.25848,-3.47928,-0.8764626,0.318175455,-0.31945719
1764763514.334559,-18.32726,2.25848,-3.47928,-0.8764626,0.318175455,-0.31945719
1764763514.334559,-18.32726,2.25848,-3.47928,-0.8764626,0.318175455,-0.31945719
1764763514.334559,-18.32726,2.25848,-3.47928,-0.8764626,0.318175455,-0.31945719
1764763514.335946,-18.32726,2.25848,-3.47928,-0.8764626,0.318175455,-0.31945719
1764763514.335946,-18.32726,2.25848,-3.47928,-0.8764626,0.318175455,-0.31945719
1764763514.335946,-18.32726,2.25848,-3.47928,-0.8764626,0.318175455,-0.31945719
1764763514.335946,-18.32726,2.25848,-3.47928,-0.8764626,0.318175455,-0.31945719
1764763514.335946,-17.74738,2.56368,-2.35004,-0.88061298,0.31628337,-0.315489915
1764763514.335946,-17.74738,2.56368,-2.35004,-0.88061298,0.31628337,-0.315489915
1764763514.335946,-17.74738,2.56368,-2.35004,-0.88061298,0.31628337,-0.315489915
1764763514.335946,-17.74738,2.56368,-2.35004,-0.88061298,0.31628337,-0.315489915
1764763514.335946,-17.74738,2.56368,-2.35004,-0.88061298,0.31628337,-0.315489915
1764763514.335946,-17.74738,2.56368,-2.35004,-0.88061298,0.31628337,-0.315489915
1764763514.335946,-17.74738,2.56368,-2.35004,-0.88061298,0.31628337,-0.315489915
1764763514.335946,-17.74738,2.56368,-2.35004,-0.88061298,0.31628337,-0.315489915
1764763514.3831198,-17.74738,2.56368,-2.35004,-0.88061298,0.31628337,-0.315489915
1764763514.3831198,-17.74738,2.56368,-2.35004,-0.88061298,0.31628337,-0.315489915
1764763514.3831198,-13.33724,3.08252,-4.33384,-0.88732683,0.314025075,-0.31140057
1764763514.3831198,-13.33724,3.08252,-4.33384,-0.88732683,0.314025075,-0.31140057
1764763514.3831198,-13.33724,3.08252,-4.33384,-0.88732683,0.314025075,-0.31140057
1764763514.3831198,-13.33724,3.08252,-4.33384,-0.88732683,0.314025075,-0.31140057
1764763514.3831198,-13.33724,3.08252,-4.33384,-0.88732683,0.314025075,-0.31140057
1764763514.3831198,-13.33724,3.08252,-4.33384,-0.88732683,0.314025075,-0.31140057
1764763514.3831198,-13.33724,3.08252,-4.33384,-0.88732683,0.314025075,-0.31140057
1764763514.3831198,-13.33724,3.08252,-4.33384,-0.88732683,0.314025075,-0.31140057
