Timestamp,GyroX,GyroY,GyroZ,AccX,AccY,AccZ
1764762731.7352753,-2.88414,2.25848,-0.0762999999999999,-0.87072531,0.390318825,-0.27148368
1764762731.7352753,-2.88414,2.25848,-0.0762999999999999,-0.87072531,0.390318825,-0.27148368
1764762731.7352753,-2.88414,2.25848,-0.0762999999999999,-0.87072531,0.390318825,-0.27148368
1764762731.7352753,-2.88414,2.25848,-0.0762999999999999,-0.87072531,0.390318825,-0.27148368
1764762731.7352753,-2.88414,2.25848,-0.0762999999999999,-0.87072531,0.390318825,-0.27148368
1764762731.7352753,-2.88414,2.25848,-0.0762999999999999,-0.87072531,0.390318825,-0.27148368
1764762731.7352753,-2.88414,2.25848,-0.0762999999999999,-0.87072531,0.390318825,-0.27148368
1764762731.7352753,-2.88414,2.25848,-0.0762999999999999,-0.87072531,0.390318825,-0.27148368
1764762731.7352753,-1.96854,2.0601,0.09156,-0.871762905,0.39074607,-0.272521275
1764762731.7352753,-1.96854,2.0601,0.09156,-0.871762905,0.39074607,-0.272521275
1764762731.7352753,-1.96854,2.0601,0.09156,-0.871762905,0.39074607,-0.272521275
1764762731.7352753,-1.96854,2.0601,0.09156,-0.871762905,0.39074607,-0.272521275
1764762731.7352753,-1.96854,2.0601,0.09156,-0.871762905,0.39074607,-0.272521275
1764762731.736746,-1.96854,2.0601,0.09156,-0.871762905,0.39074607,-0.272521275
1764762731.736746,-1.96854,2.0601,0.09156,-0.871762905,0.39074607,-0.272521275
1764762731.736746,-1.96854,2.0601,0.09156,-0.871762905,0.39074607,-0.272521275
1764762731.736746,-1.96854,2.0601,0.09156,-0.871762905,0.39074607,-0.272521275
1764762731.736746,-1.96854,2.0601,0.09156,-0.871762905,0.39074607,-0.272521275
1764762731.736746,-0.93086,1.43444,-0.0762999999999999,-0.872739465,0.3918447,-0.272032995
1764762731.736746,-0.93086,1.43444,-0.0762999999999999,-0.872739465,0.3918447,-0.272032995
1764762731.736746,-0.93086,1.43444,-0.0762999999999999,-0.872739465,0.3918447,-0.272032995
1764762731.736746,-0.93086,1.43444,-0.0762999999999999,-0.872739465,0.3918447,-0.272032995
1764762731.7830637,-0.93086,1.43444,-0.0762999999999999,-0.872739465,0.3918447,-0.272032995
1764762731.7830637,-0.93086,1.43444,-0.0762999999999999,-0.872739465,0.3918447,-0.272032995
1764762731.7830637,-0.93086,1.43444,-0.0762999999999999,-0.872739465,0.3918447,-0.272032995
1764762731.7830637,-0.93086,1.43444,-0.0762999999999999,-0.872739465,0.3918447,-0.272032995
1764762731.7830637,-0.93086,1.43444,-0.0762999999999999,-0.872739465,0.3918447,-0.272032995
1764762731.7830637,-0.93086,1.43444,-0.0762999999999999,-0.872739465,0.3918447,-0.272032995
1764762731.7830637,1.73964,1.95328,0.8698199999999999,-0.87170187,0.39001365,-0.271544715
1764762731.7830637,1.73964,1.95328,0.8698199999999999,-0.87170187,0.39001365,-0.271544715
1764762731.7830637,1.73964,1.95328,0.8698199999999999,-0.87170187,0.39001365,-0.271544715
1764762731.7830637,1.73964,1.95328,0.8698199999999999,-0.87170187,0.39001365,-0.271544715
1764762731.7830637,1.73964,1.95328,0.8698199999999999,-0.87170187,0.39001365,-0.271544715
1764762731.7830637,1.73964,1.95328,0.8698199999999999,-0.87170187,0.39001365,-0.271544715
1764762731.7830637,1.73964,1.95328,0.8698199999999999,-0.87170187,0.39001365,-0.271544715
1764762731.7830637,1.73964,1.95328,0.8698199999999999,-0.87170187,0.39001365,-0.271544715
1764762731.7830637,1.73964,1.95328,0.8698199999999999,-0.87170187,0.39001365,-0.271544715
1764762731.7848074,1.73964,1.95328,0.8698199999999999,-0.87170187,0.39001365,-0.271544715
1764762731.7848074,3.5861,2.41108,1.55652,-0.871152555,0.388731915,-0.271300575
1764762731.7848074,3.5861,2.41108,1.55652,-0.871152555,0.388731915,-0.271300575
1764762731.7848074,3.5861,2.41108,1.55652,-0.871152555,0.388731915,-0.271300575
1764762731.7848074,3.5861,2.41108,1.55652,-0.871152555,0.388731915,-0.271300575
1764762731.7848074,3.5861,2.41108,1.55652,-0.871152555,0.388731915,-0.271300575
1764762731.7848074,3.5861,2.41108,1.55652,-0.871152555,0.388731915,-0.271300575
1764762731.7848074,3.5861,2.41108,1.55652,-0.871152555,0.388731915,-0.271300575
1764762731.7848074,3.5861,2.41108,1.55652,-0.871152555,0.388731915,-0.271300575
1764762731.8276198,3.5861,2.41108,1.55652,-0.871152555,0.388731915,-0.271300575
1764762731.8276198,3.5861,2.41108,1.55652,-0.871152555,0.388731915,-0.271300575
1764762731.8276198,4.577999999999999,3.40298,1.32762,-0.870542205,0.39050193,-0.27062919
1764762731.8276198,4.577999999999999,3.40298,1.32762,-0.870542205,0.39050193,-0.27062919
1764762731.8276198,4.577999999999999,3.40298,1.32762,-0.870542205,0.39050193,-0.27062919
1764762731.8276198,4.577999999999999,3.40298,1.32762,-0.870542205,0.39050193,-0.27062919
1764762731.8276198,4.577999999999999,3.40298,1.32762,-0.870542205,0.39050193,-0.27062919
1764762731.8276198,4.577999999999999,3.40298,1.32762,-0.870542205,0.39050193,-0.27062919
1764762731.8276198,4.577999999999999,3.40298,1.32762,-0.870542205,0.39050193,-0.27062919
1764762731.8276198,4.577999999999999,3.40298,1.32762,-0.870542205,0.39050193,-0.27062919
1764762731.8276198,4.577999999999999,3.40298,1.32762,-0.870542205,0.39050193,-0.27062919
1764762731.8276198,4.577999999999999,3.40298,1.32762,-0.870542205,0.39050193,-0.27062919
1764762731.8276198,5.340999999999999,4.059159999999999,1.25132,-0.87096945,0.392271945,-0.272155065
1764762731.8276198,5.340999999999999,4.059159999999999,1.25132,-0.87096945,0.392271945,-0.272155065
1764762731.8276198,5.340999999999999,4.059159999999999,1.25132,-0.87096945,0.392271945,-0.272155065
1764762731.8276198,5.340999999999999,4.059159999999999,1.25132,-0.87096945,0.392271945,-0.272155065
1764762731.8276198,5.340999999999999,4.059159999999999,1.25132,-0.87096945,0.392271945,-0.272155065
1764762731.8276198,5.340999999999999,4.059159999999999,1.25132,-0.87096945,0.392271945,-0.272155065
1764762731.8276198,5.340999999999999,4.059159999999999,1.25132,-0.87096945,0.392271945,-0.272155065
1764762731.8276198,5.340999999999999,4.059159999999999,1.25132,-0.87096945,0.392271945,-0.272155065
1764762731.8291557,5.340999999999999,4.059159999999999,1.25132,-0.87096945,0.392271945,-0.272155065
1764762731.8291557,5.340999999999999,4.059159999999999,1.25132,-0.87096945,0.392271945,-0.272155065
1764762731.8291557,4.91372,3.92182,1.2971,-0.87206808,0.394225065,-0.273986115
1764762731.8291557,4.91372,3.92182,1.2971,-0.87206808,0.394225065,-0.273986115
1764762731.8750684,4.91372,3.92182,1.2971,-0.87206808,0.394225065,-0.273986115
1764762731.8750684,4.91372,3.92182,1.2971,-0.87206808,0.394225065,-0.273986115
1764762731.8750684,4.91372,3.92182,1.2971,-0.87206808,0.394225065,-0.273986115
1764762731.8750684,4.91372,3.92182,1.2971,-0.87206808,0.394225065,-0.273986115
1764762731.8750684,4.91372,3.92182,1.2971,-0.87206808,0.394225065,-0.273986115
1764762731.8750684,4.91372,3.92182,1.2971,-0.87206808,0.394225065,-0.273986115
1764762731.8760858,4.91372,3.92182,1.2971,-0.87206808,0.394225065,-0.273986115
1764762731.8760858,4.91372,3.92182,1.2971,-0.87206808,0.394225065,-0.273986115
1764762731.8760858,4.4254,3.49454,1.48022,-0.8724342900000001,0.396056115,-0.27600027
1764762731.8760858,4.4254,3.49454,1.48022,-0.8724342900000001,0.396056115,-0.27600027
1764762731.8760858,4.4254,3.49454,1.48022,-0.8724342900000001,0.396056115,-0.27600027
1764762731.8760858,4.4254,3.49454,1.48022,-0.8724342900000001,0.396056115,-0.27600027
1764762731.8760858,4.4254,3.49454,1.48022,-0.8724342900000001,0.396056115,-0.27600027
1764762731.8760858,4.4254,3.49454,1.48022,-0.8724342900000001,0.396056115,-0.27600027
1764762731.8760858,4.4254,3.49454,1.48022,-0.8724342900000001,0.396056115,-0.27600027
1764762731.8760858,4.4254,3.49454,1.48022,-0.8724342900000001,0.396056115,-0.27600027
1764762731.8760858,4.4254,3.49454,1.48022,-0.8724342900000001,0.396056115,-0.27600027
1764762731.8760858,4.4254,3.49454,1.48022,-0.8724342900000001,0.396056115,-0.27600027
1764762731.8760858,2.79258,3.21986,1.78542,-0.872373255,0.39807027,-0.27807546
1764762731.8760858,2.79258,3.21986,1.78542,-0.872373255,0.39807027,-0.27807546
1764762731.8760858,2.79258,3.21986,1.78542,-0.872373255,0.39807027,-0.27807546
1764762731.8760858,2.79258,3.21986,1.78542,-0.872373255,0.39807027,-0.27807546
1764762731.924427,2.79258,3.21986,1.78542,-0.872373255,0.39807027,-0.27807546
1764762731.9249644,2.79258,3.21986,1.78542,-0.872373255,0.39807027,-0.27807546
1764762731.9249644,2.79258,3.21986,1.78542,-0.872373255,0.39807027,-0.27807546
1764762731.9249644,2.79258,3.21986,1.78542,-0.872373255,0.39807027,-0.27807546
1764762731.9249644,2.79258,3.21986,1.78542,-0.872373255,0.39807027,-0.27807546
1764762731.9249644,2.79258,3.21986,1.78542,-0.872373255,0.39807027,-0.27807546
1764762731.9249644,0.50358,3.4335,1.32762,-0.87109152,0.399962355,-0.27978444
1764762731.9249644,0.50358,3.4335,1.32762,-0.87109152,0.399962355,-0.27978444
1764762731.9249644,0.50358,3.4335,1.32762,-0.87109152,0.399962355,-0.27978444
1764762731.9249644,0.50358,3.4335,1.32762,-0.87109152,0.399962355,-0.27978444
1764762731.9249644,0.50358,3.4335,1.32762,-0.87109152,0.399962355,-0.27978444
1764762731.9249644,0.50358,3.4335,1.32762,-0.87109152,0.399962355,-0.27978444
1764762731.9249644,0.50358,3.4335,1.32762,-0.87109152,0.399962355,-0.27978444
1764762731.9249644,0.50358,3.4335,1.32762,-0.87109152,0.399962355,-0.27978444
1764762731.9249644,0.50358,3.4335,1.32762,-0.87109152,0.399962355,-0.27978444
1764762731.9249644,0.50358,3.4335,1.32762,-0.87109152,0.399962355,-0.27978444
1764762731.9249644,-1.25132,3.02148,1.1445,-0.87048117,0.39990132,-0.28002858
1764762731.9249644,-1.25132,3.02148,1.1445,-0.87048117,0.39990132,-0.28002858
1764762731.9249644,-1.25132,3.02148,1.1445,-0.87048117,0.39990132,-0.28002858
1764762731.9249644,-1.25132,3.02148,1.1445,-0.87048117,0.39990132,-0.28002858
1764762731.9249644,-1.25132,3.02148,1.1445,-0.87048117,0.39990132,-0.28002858
1764762731.9249644,-1.25132,3.02148,1.1445,-0.87048117,0.39990132,-0.28002858
1764762731.9249644,-1.25132,3.02148,1.1445,-0.87048117,0.39990132,-0.28002858
1764762731.9249644,-1.25132,3.02148,1.1445,-0.87048117,0.39990132,-0.28002858
1764762731.9685345,-1.25132,3.02148,1.1445,-0.87048117,0.39990132,-0.28002858
1764762731.9685345,-1.25132,3.02148,1.1445,-0.87048117,0.39990132,-0.28002858
1764762731.9685345,-2.24322,3.5861,0.82404,-0.87048117,0.39868062,-0.27844167
1764762731.9685345,-2.24322,3.5861,0.82404,-0.87048117,0.39868062,-0.27844167
1764762731.9685345,-2.24322,3.5861,0.82404,-0.87048117,0.39868062,-0.27844167
1764762731.9685345,-2.24322,3.5861,0.82404,-0.87048117,0.39868062,-0.27844167
1764762731.9685345,-2.24322,3.5861,0.82404,-0.87048117,0.39868062,-0.27844167
1764762731.9685345,-2.24322,3.5861,0.82404,-0.87048117,0.39868062,-0.27844167
1764762731.9685345,-2.24322,3.5861,0.82404,-0.87048117,0.39868062,-0.27844167
1764762731.9685345,-2.24322,3.5861,0.82404,-0.87048117,0.39868062,-0.27844167
1764762731.9685345,-2.24322,3.5861,0.82404,-0.87048117,0.39868062,-0.27844167
1764762731.9685345,-2.24322,3.5861,0.82404,-0.87048117,0.39868062,-0.27844167
1764762731.9685345,-1.81594,3.86078,1.25132,-0.870664275,0.396666465,-0.27612234
1764762731.9685345,-1.81594,3.86078,1.25132,-0.870664275,0.396666465,-0.27612234
1764762731.9685345,-1.81594,3.86078,1.25132,-0.870664275,0.396666465,-0.27612234
1764762731.9685345,-1.81594,3.86078,1.25132,-0.870664275,0.396666465,-0.27612234
1764762731.9685345,-1.81594,3.86078,1.25132,-0.870664275,0.396666465,-0.27612234
1764762731.9685345,-1.81594,3.86078,1.25132,-0.870664275,0.396666465,-0.27612234
1764762731.9685345,-1.81594,3.86078,1.25132,-0.870664275,0.396666465,-0.27612234
1764762731.9685345,-1.81594,3.86078,1.25132,-0.870664275,0.396666465,-0.27612234
1764762731.9685345,-1.81594,3.86078,1.25132,-0.870664275,0.396666465,-0.27612234
1764762731.9685345,-1.81594,3.86078,1.25132,-0.870664275,0.396666465,-0.27612234
1764762732.0153694,-0.47306,4.54748,0.3051999999999999,-0.869199435,0.39404196,-0.275084745
1764762732.0153694,-0.47306,4.54748,0.3051999999999999,-0.869199435,0.39404196,-0.275084745
1764762732.0153694,-0.47306,4.54748,0.3051999999999999,-0.869199435,0.39404196,-0.275084745
1764762732.0153694,-0.47306,4.54748,0.3051999999999999,-0.869199435,0.39404196,-0.275084745
1764762732.0153694,-0.47306,4.54748,0.3051999999999999,-0.869199435,0.39404196,-0.275084745
1764762732.0153694,-0.47306,4.54748,0.3051999999999999,-0.869199435,0.39404196,-0.275084745
1764762732.0153694,-0.47306,4.54748,0.3051999999999999,-0.869199435,0.39404196,-0.275084745
1764762732.0153694,-0.47306,4.54748,0.3051999999999999,-0.869199435,0.39404196,-0.275084745
1764762732.0153694,-0.47306,4.54748,0.3051999999999999,-0.869199435,0.39404196,-0.275084745
1764762732.0153694,-0.47306,4.54748,0.3051999999999999,-0.869199435,0.39404196,-0.275084745
1764762732.0153694,0.9003399999999999,4.83742,0.6103999999999999,-0.86950461,0.392638155,-0.274230255
1764762732.0153694,0.9003399999999999,4.83742,0.6103999999999999,-0.86950461,0.392638155,-0.274230255
1764762732.0153694,0.9003399999999999,4.83742,0.6103999999999999,-0.86950461,0.392638155,-0.274230255
1764762732.0153694,0.9003399999999999,4.83742,0.6103999999999999,-0.86950461,0.392638155,-0.274230255
1764762732.0153694,0.9003399999999999,4.83742,0.6103999999999999,-0.86950461,0.392638155,-0.274230255
1764762732.0153694,0.9003399999999999,4.83742,0.6103999999999999,-0.86950461,0.392638155,-0.274230255
1764762732.0153694,0.9003399999999999,4.83742,0.6103999999999999,-0.86950461,0.392638155,-0.274230255
1764762732.0153694,0.9003399999999999,4.83742,0.6103999999999999,-0.86950461,0.392638155,-0.274230255
1764762732.0153694,0.9003399999999999,4.83742,0.6103999999999999,-0.86950461,0.392638155,-0.274230255
1764762732.0153694,0.9003399999999999,4.83742,0.6103999999999999,-0.86950461,0.392638155,-0.274230255
1764762732.0153694,0.7019599999999999,4.15072,1.95328,-0.874082235,0.393370575,-0.27551199
1764762732.0153694,0.7019599999999999,4.15072,1.95328,-0.874082235,0.393370575,-0.27551199
1764762732.0153694,0.7019599999999999,4.15072,1.95328,-0.874082235,0.393370575,-0.27551199
1764762732.0153694,0.7019599999999999,4.15072,1.95328,-0.874082235,0.393370575,-0.27551199
1764762732.0582674,0.7019599999999999,4.15072,1.95328,-0.874082235,0.393370575,-0.27551199
1764762732.0582674,0.7019599999999999,4.15072,1.95328,-0.874082235,0.393370575,-0.27551199
1764762732.0582674,0.7019599999999999,4.15072,1.95328,-0.874082235,0.393370575,-0.27551199
1764762732.0582674,0.7019599999999999,4.15072,1.95328,-0.874082235,0.393370575,-0.27551199
1764762732.0582674,0.7019599999999999,4.15072,1.95328,-0.874082235,0.393370575,-0.27551199
1764762732.0582674,0.7019599999999999,4.15072,1.95328,-0.874082235,0.393370575,-0.27551199
1764762732.0587964,1.49548,3.54032,1.93802,-0.8739601650000001,0.39465231,-0.275450955
1764762732.0587964,1.49548,3.54032,1.93802,-0.8739601650000001,0.39465231,-0.275450955
1764762732.0587964,1.49548,3.54032,1.93802,-0.8739601650000001,0.39465231,-0.275450955
1764762732.0587964,1.49548,3.54032,1.93802,-0.8739601650000001,0.39465231,-0.275450955
1764762732.0587964,1.49548,3.54032,1.93802,-0.8739601650000001,0.39465231,-0.275450955
1764762732.0587964,1.49548,3.54032,1.93802,-0.8739601650000001,0.39465231,-0.275450955
1764762732.0587964,1.49548,3.54032,1.93802,-0.8739601650000001,0.39465231,-0.275450955
1764762732.0587964,1.49548,3.54032,1.93802,-0.8739601650000001,0.39465231,-0.275450955
1764762732.0587964,1.49548,3.54032,1.93802,-0.8739601650000001,0.39465231,-0.275450955
1764762732.0587964,1.49548,3.54032,1.93802,-0.8739601650000001,0.39465231,-0.275450955
1764762732.0593011,2.33478,4.1202,1.08346,-0.871274625,0.394713345,-0.2758782
1764762732.0593011,2.33478,4.1202,1.08346,-0.871274625,0.394713345,-0.2758782
1764762732.059816,2.33478,4.1202,1.08346,-0.871274625,0.394713345,-0.2758782
1764762732.059816,2.33478,4.1202,1.08346,-0.871274625,0.394713345,-0.2758782
1764762732.059816,2.33478,4.1202,1.08346,-0.871274625,0.394713345,-0.2758782
1764762732.059816,2.33478,4.1202,1.08346,-0.871274625,0.394713345,-0.2758782
1764762732.059816,2.33478,4.1202,1.08346,-0.871274625,0.394713345,-0.2758782
1764762732.059816,2.33478,4.1202,1.08346,-0.871274625,0.394713345,-0.2758782
1764762732.106593,2.33478,4.1202,1.08346,-0.871274625,0.394713345,-0.2758782
1764762732.1079483,2.33478,4.1202,1.08346,-0.871274625,0.394713345,-0.2758782
1764762732.1079483,2.33478,3.90656,1.72438,-0.87096945,0.394469205,-0.276183375
1764762732.1079483,2.33478,3.90656,1.72438,-0.87096945,0.394469205,-0.276183375
1764762732.1079483,2.33478,3.90656,1.72438,-0.87096945,0.394469205,-0.276183375
1764762732.1079483,2.33478,3.90656,1.72438,-0.87096945,0.394469205,-0.276183375
1764762732.1079483,2.33478,3.90656,1.72438,-0.87096945,0.394469205,-0.276183375
1764762732.1079483,2.33478,3.90656,1.72438,-0.87096945,0.394469205,-0.276183375
1764762732.1079483,2.33478,3.90656,1.72438,-0.87096945,0.394469205,-0.276183375
1764762732.1079483,2.33478,3.90656,1.72438,-0.87096945,0.394469205,-0.276183375
1764762732.1091788,2.33478,3.90656,1.72438,-0.87096945,0.394469205,-0.276183375
1764762732.1091788,2.33478,3.90656,1.72438,-0.87096945,0.394469205,-0.276183375
1764762732.1091788,1.72438,4.16598,1.38866,-0.8702980650000001,0.394469205,-0.27648855
1764762732.1091788,1.72438,4.16598,1.38866,-0.8702980650000001,0.394469205,-0.27648855
1764762732.1091788,1.72438,4.16598,1.38866,-0.8702980650000001,0.394469205,-0.27648855
1764762732.1091788,1.72438,4.16598,1.38866,-0.8702980650000001,0.394469205,-0.27648855
1764762732.1091788,1.72438,4.16598,1.38866,-0.8702980650000001,0.394469205,-0.27648855
1764762732.1091788,1.72438,4.16598,1.38866,-0.8702980650000001,0.394469205,-0.27648855
1764762732.1091788,1.72438,4.16598,1.38866,-0.8702980650000001,0.394469205,-0.27648855
1764762732.1091788,1.72438,4.16598,1.38866,-0.8702980650000001,0.394469205,-0.27648855
1764762732.1091788,1.72438,4.16598,1.38866,-0.8702980650000001,0.394469205,-0.27648855
1764762732.1091788,1.72438,4.16598,1.38866,-0.8702980650000001,0.394469205,-0.27648855
1764762732.1530645,0.04578,4.07442,1.2971,-0.86962668,0.3955068,-0.27734304
1764762732.1530645,0.04578,4.07442,1.2971,-0.86962668,0.3955068,-0.27734304
1764762732.1530645,0.04578,4.07442,1.2971,-0.86962668,0.3955068,-0.27734304
1764762732.1530645,0.04578,4.07442,1.2971,-0.86962668,0.3955068,-0.27734304
1764762732.1530645,0.04578,4.07442,1.2971,-0.86962668,0.3955068,-0.27734304
1764762732.1530645,0.04578,4.07442,1.2971,-0.86962668,0.3955068,-0.27734304
1764762732.1530645,0.04578,4.07442,1.2971,-0.86962668,0.3955068,-0.27734304
1764762732.1530645,0.04578,4.07442,1.2971,-0.86962668,0.3955068,-0.27734304
1764762732.1530645,0.04578,4.07442,1.2971,-0.86962668,0.3955068,-0.27734304
1764762732.1530645,0.04578,4.07442,1.2971,-0.86962668,0.3955068,-0.27734304
1764762732.1530645,-0.1525999999999999,4.15072,0.79352,-0.86999289,0.395689905,-0.278014425
1764762732.1530645,-0.1525999999999999,4.15072,0.79352,-0.86999289,0.395689905,-0.278014425
1764762732.1530645,-0.1525999999999999,4.15072,0.79352,-0.86999289,0.395689905,-0.278014425
1764762732.1530645,-0.1525999999999999,4.15072,0.79352,-0.86999289,0.395689905,-0.278014425
1764762732.1530645,-0.1525999999999999,4.15072,0.79352,-0.86999289,0.395689905,-0.278014425
1764762732.1530645,-0.1525999999999999,4.15072,0.79352,-0.86999289,0.395689905,-0.278014425
1764762732.1530645,-0.1525999999999999,4.15072,0.79352,-0.86999289,0.395689905,-0.278014425
1764762732.1530645,-0.1525999999999999,4.15072,0.79352,-0.86999289,0.395689905,-0.278014425
1764762732.1530645,-0.1525999999999999,4.15072,0.79352,-0.86999289,0.395689905,-0.278014425
1764762732.1530645,-0.1525999999999999,4.15072,0.79352,-0.86999289,0.395689905,-0.278014425
1764762732.1530645,-0.3815,3.95234,0.73248,-0.869443575,0.39636129,-0.27844167
1764762732.1530645,-0.3815,3.95234,0.73248,-0.869443575,0.39636129,-0.27844167
1764762732.2001162,-0.3815,3.95234,0.73248,-0.869443575,0.39636129,-0.27844167
1764762732.200623,-0.3815,3.95234,0.73248,-0.869443575,0.39636129,-0.27844167
1764762732.200623,-0.3815,3.95234,0.73248,-0.869443575,0.39636129,-0.27844167
1764762732.200623,-0.3815,3.95234,0.73248,-0.869443575,0.39636129,-0.27844167
1764762732.200623,-0.3815,3.95234,0.73248,-0.869443575,0.39636129,-0.27844167
1764762732.200623,-0.3815,3.95234,0.73248,-0.869443575,0.39636129,-0.27844167
1764762732.200623,-0.3815,3.95234,0.73248,-0.869443575,0.39636129,-0.27844167
1764762732.200623,-0.3815,3.95234,0.73248,-0.869443575,0.39636129,-0.27844167
1764762732.200623,0.7019599999999999,4.59326,1.43444,-0.871030485,0.395934045,-0.27795339
1764762732.200623,0.7019599999999999,4.59326,1.43444,-0.871030485,0.395934045,-0.27795339
1764762732.2016337,0.7019599999999999,4.59326,1.43444,-0.871030485,0.395934045,-0.27795339
1764762732.2016337,0.7019599999999999,4.59326,1.43444,-0.871030485,0.395934045,-0.27795339
1764762732.2016337,0.7019599999999999,4.59326,1.43444,-0.871030485,0.395934045,-0.27795339
1764762732.2016337,0.7019599999999999,4.59326,1.43444,-0.871030485,0.395934045,-0.27795339
1764762732.2016337,0.7019599999999999,4.59326,1.43444,-0.871030485,0.395934045,-0.27795339
1764762732.2016337,0.7019599999999999,4.59326,1.43444,-0.871030485,0.395934045,-0.27795339
1764762732.2016337,0.7019599999999999,4.59326,1.43444,-0.871030485,0.395934045,-0.27795339
1764762732.2016337,0.7019599999999999,4.59326,1.43444,-0.871030485,0.395934045,-0.27795339
1764762732.2016337,-0.13734,3.87604,1.55652,-0.87206808,0.39611715,-0.27868581
1764762732.2016337,-0.13734,3.87604,1.55652,-0.87206808,0.39611715,-0.27868581
1764762732.2016337,-0.13734,3.87604,1.55652,-0.87206808,0.39611715,-0.27868581
1764762732.202632,-0.13734,3.87604,1.55652,-0.87206808,0.39611715,-0.27868581
1764762732.202632,-0.13734,3.87604,1.55652,-0.87206808,0.39611715,-0.27868581
1764762732.202632,-0.13734,3.87604,1.55652,-0.87206808,0.39611715,-0.27868581
1764762732.202632,-0.13734,3.87604,1.55652,-0.87206808,0.39611715,-0.27868581
1764762732.202632,-0.13734,3.87604,1.55652,-0.87206808,0.39611715,-0.27868581
1764762732.2446246,-0.13734,3.87604,1.55652,-0.87206808,0.39611715,-0.27868581
1764762732.2446246,-0.13734,3.87604,1.55652,-0.87206808,0.39611715,-0.27868581
1764762732.2446246,-0.19838,3.93708,1.17502,-0.870542205,0.396910605,-0.2795403
1764762732.2446246,-0.19838,3.93708,1.17502,-0.870542205,0.396910605,-0.2795403
1764762732.2446246,-0.19838,3.93708,1.17502,-0.870542205,0.396910605,-0.2795403
1764762732.2446246,-0.19838,3.93708,1.17502,-0.870542205,0.396910605,-0.2795403
1764762732.2446246,-0.19838,3.93708,1.17502,-0.870542205,0.396910605,-0.2795403
1764762732.2446246,-0.19838,3.93708,1.17502,-0.870542205,0.396910605,-0.2795403
1764762732.2446246,-0.19838,3.93708,1.17502,-0.870542205,0.396910605,-0.2795403
1764762732.2446246,-0.19838,3.93708,1.17502,-0.870542205,0.396910605,-0.2795403
1764762732.2446246,-0.19838,3.93708,1.17502,-0.870542205,0.396910605,-0.2795403
1764762732.2446246,-0.19838,3.93708,1.17502,-0.870542205,0.396910605,-0.2795403
1764762732.2446246,0.94612,3.60136,0.6714399999999999,-0.870542205,0.395689905,-0.27856374
1764762732.2446246,0.94612,3.60136,0.6714399999999999,-0.870542205,0.395689905,-0.27856374
1764762732.2446246,0.94612,3.60136,0.6714399999999999,-0.870542205,0.395689905,-0.27856374
1764762732.2446246,0.94612,3.60136,0.6714399999999999,-0.870542205,0.395689905,-0.27856374
1764762732.2446246,0.94612,3.60136,0.6714399999999999,-0.870542205,0.395689905,-0.27856374
1764762732.2446246,0.94612,3.60136,0.6714399999999999,-0.870542205,0.395689905,-0.27856374
1764762732.246096,0.94612,3.60136,0.6714399999999999,-0.870542205,0.395689905,-0.27856374
1764762732.246096,0.94612,3.60136,0.6714399999999999,-0.870542205,0.395689905,-0.27856374
1764762732.246096,0.94612,3.60136,0.6714399999999999,-0.870542205,0.395689905,-0.27856374
1764762732.246096,0.94612,3.60136,0.6714399999999999,-0.870542205,0.395689905,-0.27856374
1764762732.2937715,2.24322,3.52506,1.08346,-0.87096945,0.392516085,-0.277404075
1764762732.2944582,2.24322,3.52506,1.08346,-0.87096945,0.392516085,-0.277404075
1764762732.2944582,2.24322,3.52506,1.08346,-0.87096945,0.392516085,-0.277404075
1764762732.2944582,2.24322,3.52506,1.08346,-0.87096945,0.392516085,-0.277404075
1764762732.2944582,2.24322,3.52506,1.08346,-0.87096945,0.392516085,-0.277404075
1764762732.2944582,2.24322,3.52506,1.08346,-0.87096945,0.392516085,-0.277404075
1764762732.2944582,2.24322,3.52506,1.08346,-0.87096945,0.392516085,-0.277404075
1764762732.2944582,2.24322,3.52506,1.08346,-0.87096945,0.392516085,-0.277404075
1764762732.2944582,2.24322,3.52506,1.08346,-0.87096945,0.392516085,-0.277404075
1764762732.2944582,2.24322,3.52506,1.08346,-0.87096945,0.392516085,-0.277404075
1764762732.2944582,1.48022,4.02864,1.17502,-0.870542205,0.39453024,-0.278502705
1764762732.2944582,1.48022,4.02864,1.17502,-0.870542205,0.39453024,-0.278502705
1764762732.2944582,1.48022,4.02864,1.17502,-0.870542205,0.39453024,-0.278502705
1764762732.2944582,1.48022,4.02864,1.17502,-0.870542205,0.39453024,-0.278502705
1764762732.2944582,1.48022,4.02864,1.17502,-0.870542205,0.39453024,-0.278502705
1764762732.2944582,1.48022,4.02864,1.17502,-0.870542205,0.39453024,-0.278502705
1764762732.2944582,1.48022,4.02864,1.17502,-0.870542205,0.39453024,-0.278502705
1764762732.2944582,1.48022,4.02864,1.17502,-0.870542205,0.39453024,-0.278502705
1764762732.2944582,1.48022,4.02864,1.17502,-0.870542205,0.39453024,-0.278502705
1764762732.2944582,1.48022,4.02864,1.17502,-0.870542205,0.39453024,-0.278502705
1764762732.2944582,-0.42728,4.1965,1.2055399999999998,-0.86974875,0.39758199,-0.28015065
1764762732.2944582,-0.42728,4.1965,1.2055399999999998,-0.86974875,0.39758199,-0.28015065
1764762732.2954664,-0.42728,4.1965,1.2055399999999998,-0.86974875,0.39758199,-0.28015065
1764762732.2954664,-0.42728,4.1965,1.2055399999999998,-0.86974875,0.39758199,-0.28015065
1764762732.338828,-0.42728,4.1965,1.2055399999999998,-0.86974875,0.39758199,-0.28015065
1764762732.338828,-0.42728,4.1965,1.2055399999999998,-0.86974875,0.39758199,-0.28015065
1764762732.338828,-0.42728,4.1965,1.2055399999999998,-0.86974875,0.39758199,-0.28015065
1764762732.338828,-0.42728,4.1965,1.2055399999999998,-0.86974875,0.39758199,-0.28015065
1764762732.338828,-0.42728,4.1965,1.2055399999999998,-0.86974875,0.39758199,-0.28015065
1764762732.338828,-0.42728,4.1965,1.2055399999999998,-0.86974875,0.39758199,-0.28015065
1764762732.338828,-1.9075,4.577999999999999,1.2055399999999998,-0.8687111550000001,0.39745992,-0.28088307
1764762732.338828,-1.9075,4.577999999999999,1.2055399999999998,-0.8687111550000001,0.39745992,-0.28088307
1764762732.338828,-1.9075,4.577999999999999,1.2055399999999998,-0.8687111550000001,0.39745992,-0.28088307
1764762732.338828,-1.9075,4.577999999999999,1.2055399999999998,-0.8687111550000001,0.39745992,-0.28088307
1764762732.338828,-1.9075,4.577999999999999,1.2055399999999998,-0.8687111550000001,0.39745992,-0.28088307
1764762732.338828,-1.9075,4.577999999999999,1.2055399999999998,-0.8687111550000001,0.39745992,-0.28088307
1764762732.338828,-1.9075,4.577999999999999,1.2055399999999998,-0.8687111550000001,0.39745992,-0.28088307
1764762732.338828,-1.9075,4.577999999999999,1.2055399999999998,-0.8687111550000001,0.39745992,-0.28088307
1764762732.3401806,-1.9075,4.577999999999999,1.2055399999999998,-0.8687111550000001,0.39745992,-0.28088307
1764762732.3401806,-1.9075,4.577999999999999,1.2055399999999998,-0.8687111550000001,0.39745992,-0.28088307
1764762732.3401806,-1.7549,5.02054,0.47306,-0.86742942,0.395811975,-0.28002858
1764762732.3401806,-1.7549,5.02054,0.47306,-0.86742942,0.395811975,-0.28002858
1764762732.3401806,-1.7549,5.02054,0.47306,-0.86742942,0.395811975,-0.28002858
1764762732.3401806,-1.7549,5.02054,0.47306,-0.86742942,0.395811975,-0.28002858
1764762732.3401806,-1.7549,5.02054,0.47306,-0.86742942,0.395811975,-0.28002858
1764762732.3401806,-1.7549,5.02054,0.47306,-0.86742942,0.395811975,-0.28002858
1764762732.3401806,-1.7549,5.02054,0.47306,-0.86742942,0.395811975,-0.28002858
1764762732.3401806,-1.7549,5.02054,0.47306,-0.86742942,0.395811975,-0.28002858
1764762732.386506,-1.7549,5.02054,0.47306,-0.86742942,0.395811975,-0.28002858
1764762732.386506,-1.7549,5.02054,0.47306,-0.86742942,0.395811975,-0.28002858
1764762732.386506,-2.25848,5.14262,0.97664,-0.86938254,0.39453024,-0.27966237
1764762732.386506,-2.25848,5.14262,0.97664,-0.86938254,0.39453024,-0.27966237
1764762732.386506,-2.25848,5.14262,0.97664,-0.86938254,0.39453024,-0.27966237
1764762732.386506,-2.25848,5.14262,0.97664,-0.86938254,0.39453024,-0.27966237
1764762732.386506,-2.25848,5.14262,0.97664,-0.86938254,0.39453024,-0.27966237
1764762732.386506,-2.25848,5.14262,0.97664,-0.86938254,0.39453024,-0.27966237
1764762732.386506,-2.25848,5.14262,0.97664,-0.86938254,0.39453024,-0.27966237
1764762732.386506,-2.25848,5.14262,0.97664,-0.86938254,0.39453024,-0.27966237
1764762732.386506,-2.25848,5.14262,0.97664,-0.86938254,0.39453024,-0.27966237
1764762732.386506,-2.25848,5.14262,0.97664,-0.86938254,0.39453024,-0.27966237
1764762732.386506,-3.8913,4.54748,0.8392999999999999,-0.87109152,0.395445765,-0.28027272
1764762732.386506,-3.8913,4.54748,0.8392999999999999,-0.87109152,0.395445765,-0.28027272
1764762732.386506,-3.8913,4.54748,0.8392999999999999,-0.87109152,0.395445765,-0.28027272
1764762732.386506,-3.8913,4.54748,0.8392999999999999,-0.87109152,0.395445765,-0.28027272
1764762732.386506,-3.8913,4.54748,0.8392999999999999,-0.87109152,0.395445765,-0.28027272
1764762732.386506,-3.8913,4.54748,0.8392999999999999,-0.87109152,0.395445765,-0.28027272
1764762732.386506,-3.8913,4.54748,0.8392999999999999,-0.87109152,0.395445765,-0.28027272
1764762732.386506,-3.8913,4.54748,0.8392999999999999,-0.87109152,0.395445765,-0.28027272
1764762732.386506,-3.8913,4.54748,0.8392999999999999,-0.87109152,0.395445765,-0.28027272
1764762732.386506,-3.8913,4.54748,0.8392999999999999,-0.87109152,0.395445765,-0.28027272
1764762732.4340382,-3.57084,3.83026,0.27468,-0.870420135,0.39416403,-0.27905202
1764762732.4340382,-3.57084,3.83026,0.27468,-0.870420135,0.39416403,-0.27905202
1764762732.4340382,-3.57084,3.83026,0.27468,-0.870420135,0.39416403,-0.27905202
1764762732.4340382,-3.57084,3.83026,0.27468,-0.870420135,0.39416403,-0.27905202
1764762732.4340382,-3.57084,3.83026,0.27468,-0.870420135,0.39416403,-0.27905202
1764762732.4340382,-3.57084,3.83026,0.27468,-0.870420135,0.39416403,-0.27905202
1764762732.4340382,-3.57084,3.83026,0.27468,-0.870420135,0.39416403,-0.27905202
1764762732.4340382,-3.57084,3.83026,0.27468,-0.870420135,0.39416403,-0.27905202
1764762732.4340382,-3.57084,3.83026,0.27468,-0.870420135,0.39416403,-0.27905202
1764762732.4340382,-3.57084,3.83026,0.27468,-0.870420135,0.39416403,-0.27905202
1764762732.4340382,-2.33478,3.15882,0.28994,-0.86999289,0.39294333,-0.277892355
1764762732.4340382,-2.33478,3.15882,0.28994,-0.86999289,0.39294333,-0.277892355
1764762732.4340382,-2.33478,3.15882,0.28994,-0.86999289,0.39294333,-0.277892355
1764762732.4340382,-2.33478,3.15882,0.28994,-0.86999289,0.39294333,-0.277892355
1764762732.4340382,-2.33478,3.15882,0.28994,-0.86999289,0.39294333,-0.277892355
1764762732.4340382,-2.33478,3.15882,0.28994,-0.86999289,0.39294333,-0.277892355
1764762732.4340382,-2.33478,3.15882,0.28994,-0.86999289,0.39294333,-0.277892355
1764762732.4340382,-2.33478,3.15882,0.28994,-0.86999289,0.39294333,-0.277892355
1764762732.4340382,-2.33478,3.15882,0.28994,-0.86999289,0.39294333,-0.277892355
1764762732.4340382,-2.33478,3.15882,0.28994,-0.86999289,0.39294333,-0.277892355
1764762732.4340382,-0.8087799999999999,3.47928,0.57988,-0.8702980650000001,0.39257712,-0.277159935
1764762732.4340382,-0.8087799999999999,3.47928,0.57988,-0.8702980650000001,0.39257712,-0.277159935
1764762732.4799216,-0.8087799999999999,3.47928,0.57988,-0.8702980650000001,0.39257712,-0.277159935
1764762732.4799216,-0.8087799999999999,3.47928,0.57988,-0.8702980650000001,0.39257712,-0.277159935
1764762732.4799216,-0.8087799999999999,3.47928,0.57988,-0.8702980650000001,0.39257712,-0.277159935
1764762732.4799216,-0.8087799999999999,3.47928,0.57988,-0.8702980650000001,0.39257712,-0.277159935
1764762732.4799216,-0.8087799999999999,3.47928,0.57988,-0.8702980650000001,0.39257712,-0.277159935
1764762732.4799216,-0.8087799999999999,3.47928,0.57988,-0.8702980650000001,0.39257712,-0.277159935
1764762732.4799216,-0.8087799999999999,3.47928,0.57988,-0.8702980650000001,0.39257712,-0.277159935
1764762732.4799216,-0.8087799999999999,3.47928,0.57988,-0.8702980650000001,0.39257712,-0.277159935
1764762732.4804287,-0.1525999999999999,3.47928,0.62566,-0.869199435,0.393370575,-0.276183375
1764762732.4804287,-0.1525999999999999,3.47928,0.62566,-0.869199435,0.393370575,-0.276183375
1764762732.4804287,-0.1525999999999999,3.47928,0.62566,-0.869199435,0.393370575,-0.276183375
1764762732.4804287,-0.1525999999999999,3.47928,0.62566,-0.869199435,0.393370575,-0.276183375
1764762732.4804287,-0.1525999999999999,3.47928,0.62566,-0.869199435,0.393370575,-0.276183375
1764762732.4804287,-0.1525999999999999,3.47928,0.62566,-0.869199435,0.393370575,-0.276183375
1764762732.4804287,-0.1525999999999999,3.47928,0.62566,-0.869199435,0.393370575,-0.276183375
1764762732.4804287,-0.1525999999999999,3.47928,0.62566,-0.869199435,0.393370575,-0.276183375
1764762732.4804287,-0.1525999999999999,3.47928,0.62566,-0.869199435,0.393370575,-0.276183375
1764762732.4804287,-0.1525999999999999,3.47928,0.62566,-0.869199435,0.393370575,-0.276183375
1764762732.4804287,1.1445,3.83026,0.36624,-0.86828391,0.393614715,-0.276183375
1764762732.4804287,1.1445,3.83026,0.36624,-0.86828391,0.393614715,-0.276183375
1764762732.4804287,1.1445,3.83026,0.36624,-0.86828391,0.393614715,-0.276183375
1764762732.4804287,1.1445,3.83026,0.36624,-0.86828391,0.393614715,-0.276183375
1764762732.5261064,1.1445,3.83026,0.36624,-0.86828391,0.393614715,-0.276183375
1764762732.5261064,1.1445,3.83026,0.36624,-0.86828391,0.393614715,-0.276183375
1764762732.5261064,1.1445,3.83026,0.36624,-0.86828391,0.393614715,-0.276183375
1764762732.5261064,1.1445,3.83026,0.36624,-0.86828391,0.393614715,-0.276183375
1764762732.5261064,1.1445,3.83026,0.36624,-0.86828391,0.393614715,-0.276183375
1764762732.5261064,1.1445,3.83026,0.36624,-0.86828391,0.393614715,-0.276183375
1764762732.5261064,1.72438,3.34194,0.57988,-0.868833225,0.394713345,-0.277282005
1764762732.5261064,1.72438,3.34194,0.57988,-0.868833225,0.394713345,-0.277282005
1764762732.5261064,1.72438,3.34194,0.57988,-0.868833225,0.394713345,-0.277282005
1764762732.5261064,1.72438,3.34194,0.57988,-0.868833225,0.394713345,-0.277282005
1764762732.5261064,1.72438,3.34194,0.57988,-0.868833225,0.394713345,-0.277282005
1764762732.5261064,1.72438,3.34194,0.57988,-0.868833225,0.394713345,-0.277282005
1764762732.5261064,1.72438,3.34194,0.57988,-0.868833225,0.394713345,-0.277282005
1764762732.5261064,1.72438,3.34194,0.57988,-0.868833225,0.394713345,-0.277282005
1764762732.5261064,1.72438,3.34194,0.57988,-0.868833225,0.394713345,-0.277282005
1764762732.5261064,1.72438,3.34194,0.57988,-0.868833225,0.394713345,-0.277282005
1764762732.5261064,1.1445,3.08252,0.27468,-0.8698097850000001,0.39575094,-0.27807546
1764762732.5261064,1.1445,3.08252,0.27468,-0.8698097850000001,0.39575094,-0.27807546
1764762732.5261064,1.1445,3.08252,0.27468,-0.8698097850000001,0.39575094,-0.27807546
1764762732.5261064,1.1445,3.08252,0.27468,-0.8698097850000001,0.39575094,-0.27807546
1764762732.5261064,1.1445,3.08252,0.27468,-0.8698097850000001,0.39575094,-0.27807546
1764762732.5261064,1.1445,3.08252,0.27468,-0.8698097850000001,0.39575094,-0.27807546
1764762732.5261064,1.1445,3.08252,0.27468,-0.8698097850000001,0.39575094,-0.27807546
1764762732.5261064,1.1445,3.08252,0.27468,-0.8698097850000001,0.39575094,-0.27807546
1764762732.5729992,1.1445,3.08252,0.27468,-0.8698097850000001,0.39575094,-0.27807546
1764762732.5729992,1.1445,3.08252,0.27468,-0.8698097850000001,0.39575094,-0.27807546
1764762732.5729992,-0.5341,2.35004,0.41202,-0.870542205,0.396666465,-0.28015065
1764762732.5729992,-0.5341,2.35004,0.41202,-0.870542205,0.396666465,-0.28015065
1764762732.5729992,-0.5341,2.35004,0.41202,-0.870542205,0.396666465,-0.28015065
1764762732.5729992,-0.5341,2.35004,0.41202,-0.870542205,0.396666465,-0.28015065
1764762732.5729992,-0.5341,2.35004,0.41202,-0.870542205,0.396666465,-0.28015065
1764762732.5729992,-0.5341,2.35004,0.41202,-0.870542205,0.396666465,-0.28015065
1764762732.5729992,-0.5341,2.35004,0.41202,-0.870542205,0.396666465,-0.28015065
1764762732.5729992,-0.5341,2.35004,0.41202,-0.870542205,0.396666465,-0.28015065
1764762732.5729992,-0.5341,2.35004,0.41202,-0.870542205,0.396666465,-0.28015065
1764762732.5729992,-0.5341,2.35004,0.41202,-0.870542205,0.396666465,-0.28015065
1764762732.5729992,-0.96138,2.86888,-0.12208,-0.869199435,0.39709371,-0.28063893
1764762732.5729992,-0.96138,2.86888,-0.12208,-0.869199435,0.39709371,-0.28063893
1764762732.5729992,-0.96138,2.86888,-0.12208,-0.869199435,0.39709371,-0.28063893
1764762732.5729992,-0.96138,2.86888,-0.12208,-0.869199435,0.39709371,-0.28063893
1764762732.5729992,-0.96138,2.86888,-0.12208,-0.869199435,0.39709371,-0.28063893
1764762732.5729992,-0.96138,2.86888,-0.12208,-0.869199435,0.39709371,-0.28063893
1764762732.5729992,-0.96138,2.86888,-0.12208,-0.869199435,0.39709371,-0.28063893
1764762732.5729992,-0.96138,2.86888,-0.12208,-0.869199435,0.39709371,-0.28063893
1764762732.5729992,-0.96138,2.86888,-0.12208,-0.869199435,0.39709371,-0.28063893
1764762732.5729992,-0.96138,2.86888,-0.12208,-0.869199435,0.39709371,-0.28063893
1764762732.5729992,-0.28994,3.57084,0.79352,-0.871640835,0.39477438,-0.280699965
1764762732.574003,-0.28994,3.57084,0.79352,-0.871640835,0.39477438,-0.280699965
1764762732.574003,-0.28994,3.57084,0.79352,-0.871640835,0.39477438,-0.280699965
1764762732.574003,-0.28994,3.57084,0.79352,-0.871640835,0.39477438,-0.280699965
1764762732.6205325,-0.28994,3.57084,0.79352,-0.871640835,0.39477438,-0.280699965
1764762732.6205325,-0.28994,3.57084,0.79352,-0.871640835,0.39477438,-0.280699965
1764762732.6205325,-0.28994,3.57084,0.79352,-0.871640835,0.39477438,-0.280699965
1764762732.6205325,-0.28994,3.57084,0.79352,-0.871640835,0.39477438,-0.280699965
1764762732.6205325,-0.28994,3.57084,0.79352,-0.871640835,0.39477438,-0.280699965
1764762732.6205325,-0.28994,3.57084,0.79352,-0.871640835,0.39477438,-0.280699965
1764762732.6205325,-0.763,3.17408,1.32762,-0.872983605,0.39501852,-0.28015065
1764762732.6205325,-0.763,3.17408,1.32762,-0.872983605,0.39501852,-0.28015065
1764762732.6205325,-0.763,3.17408,1.32762,-0.872983605,0.39501852,-0.28015065
1764762732.6205325,-0.763,3.17408,1.32762,-0.872983605,0.39501852,-0.28015065
1764762732.6205325,-0.763,3.17408,1.32762,-0.872983605,0.39501852,-0.28015065
1764762732.6205325,-0.763,3.17408,1.32762,-0.872983605,0.39501852,-0.28015065
1764762732.6205325,-0.763,3.17408,1.32762,-0.872983605,0.39501852,-0.28015065
1764762732.6205325,-0.763,3.17408,1.32762,-0.872983605,0.39501852,-0.28015065
1764762732.6205325,-0.763,3.17408,1.32762,-0.872983605,0.39501852,-0.28015065
1764762732.6205325,-0.763,3.17408,1.32762,-0.872983605,0.39501852,-0.28015065
1764762732.6205325,-0.71722,3.98286,0.50358,-0.870542205,0.396910605,-0.28015065
1764762732.6205325,-0.71722,3.98286,0.50358,-0.870542205,0.396910605,-0.28015065
1764762732.6205325,-0.71722,3.98286,0.50358,-0.870542205,0.396910605,-0.28015065
1764762732.6205325,-0.71722,3.98286,0.50358,-0.870542205,0.396910605,-0.28015065
1764762732.6205325,-0.71722,3.98286,0.50358,-0.870542205,0.396910605,-0.28015065
1764762732.6205325,-0.71722,3.98286,0.50358,-0.870542205,0.396910605,-0.28015065
1764762732.667999,-0.71722,3.98286,0.50358,-0.870542205,0.396910605,-0.28015065
1764762732.667999,-0.71722,3.98286,0.50358,-0.870542205,0.396910605,-0.28015065
1764762732.667999,-0.71722,3.98286,0.50358,-0.870542205,0.396910605,-0.28015065
1764762732.667999,-0.71722,3.98286,0.50358,-0.870542205,0.396910605,-0.28015065
1764762732.667999,-1.2055399999999998,3.76922,0.04578,-0.86987082,0.395934045,-0.28112721
1764762732.667999,-1.2055399999999998,3.76922,0.04578,-0.86987082,0.395934045,-0.28112721
1764762732.667999,-1.2055399999999998,3.76922,0.04578,-0.86987082,0.395934045,-0.28112721
1764762732.667999,-1.2055399999999998,3.76922,0.04578,-0.86987082,0.395934045,-0.28112721
1764762732.667999,-1.2055399999999998,3.76922,0.04578,-0.86987082,0.395934045,-0.28112721
1764762732.667999,-1.2055399999999998,3.76922,0.04578,-0.86987082,0.395934045,-0.28112721
1764762732.667999,-1.2055399999999998,3.76922,0.04578,-0.86987082,0.395934045,-0.28112721
1764762732.667999,-1.2055399999999998,3.76922,0.04578,-0.86987082,0.395934045,-0.28112721
1764762732.667999,-1.2055399999999998,3.76922,0.04578,-0.86987082,0.395934045,-0.28112721
1764762732.668517,-1.2055399999999998,3.76922,0.04578,-0.86987082,0.395934045,-0.28112721
1764762732.668517,-2.4416,3.64714,0.3509799999999999,-0.86999289,0.39599508,-0.281066175
1764762732.668517,-2.4416,3.64714,0.3509799999999999,-0.86999289,0.39599508,-0.281066175
1764762732.668517,-2.4416,3.64714,0.3509799999999999,-0.86999289,0.39599508,-0.281066175
1764762732.668517,-2.4416,3.64714,0.3509799999999999,-0.86999289,0.39599508,-0.281066175
1764762732.668517,-2.4416,3.64714,0.3509799999999999,-0.86999289,0.39599508,-0.281066175
1764762732.668517,-2.4416,3.64714,0.3509799999999999,-0.86999289,0.39599508,-0.281066175
1764762732.668517,-2.4416,3.64714,0.3509799999999999,-0.86999289,0.39599508,-0.281066175
1764762732.668517,-2.4416,3.64714,0.3509799999999999,-0.86999289,0.39599508,-0.281066175
1764762732.668517,-2.4416,3.64714,0.3509799999999999,-0.86999289,0.39599508,-0.281066175
1764762732.668517,-2.4416,3.64714,0.3509799999999999,-0.86999289,0.39599508,-0.281066175
1764762732.668517,-2.33478,3.44876,0.8087799999999999,-0.870542205,0.397398885,-0.27990651
1764762732.668517,-2.33478,3.44876,0.8087799999999999,-0.870542205,0.397398885,-0.27990651
1764762732.7150784,-2.33478,3.44876,0.8087799999999999,-0.870542205,0.397398885,-0.27990651
1764762732.7150784,-2.33478,3.44876,0.8087799999999999,-0.870542205,0.397398885,-0.27990651
1764762732.7150784,-2.33478,3.44876,0.8087799999999999,-0.870542205,0.397398885,-0.27990651
1764762732.7150784,-2.33478,3.44876,0.8087799999999999,-0.870542205,0.397398885,-0.27990651
1764762732.7150784,-2.33478,3.44876,0.8087799999999999,-0.870542205,0.397398885,-0.27990651
1764762732.7150784,-2.33478,3.44876,0.8087799999999999,-0.870542205,0.397398885,-0.27990651
1764762732.7150784,-2.33478,3.44876,0.8087799999999999,-0.870542205,0.397398885,-0.27990651
1764762732.7150784,-2.33478,3.44876,0.8087799999999999,-0.870542205,0.397398885,-0.27990651
1764762732.7150784,-1.93802,3.38772,0.21364,-0.86950461,0.397032675,-0.27856374
1764762732.7150784,-1.93802,3.38772,0.21364,-0.86950461,0.397032675,-0.27856374
1764762732.7150784,-1.93802,3.38772,0.21364,-0.86950461,0.397032675,-0.27856374
1764762732.7150784,-1.93802,3.38772,0.21364,-0.86950461,0.397032675,-0.27856374
1764762732.7150784,-1.93802,3.38772,0.21364,-0.86950461,0.397032675,-0.27856374
1764762732.7150784,-1.93802,3.38772,0.21364,-0.86950461,0.397032675,-0.27856374
1764762732.7150784,-1.93802,3.38772,0.21364,-0.86950461,0.397032675,-0.27856374
1764762732.7150784,-1.93802,3.38772,0.21364,-0.86950461,0.397032675,-0.27856374
1764762732.7150784,-1.93802,3.38772,0.21364,-0.86950461,0.397032675,-0.27856374
1764762732.7150784,-1.93802,3.38772,0.21364,-0.86950461,0.397032675,-0.27856374
1764762732.7150784,-1.23606,3.54032,0.3204599999999999,-0.8682228750000001,0.395567835,-0.277159935
1764762732.7150784,-1.23606,3.54032,0.3204599999999999,-0.8682228750000001,0.395567835,-0.277159935
1764762732.7150784,-1.23606,3.54032,0.3204599999999999,-0.8682228750000001,0.395567835,-0.277159935
1764762732.7150784,-1.23606,3.54032,0.3204599999999999,-0.8682228750000001,0.395567835,-0.277159935
1764762732.7585466,-1.23606,3.54032,0.3204599999999999,-0.8682228750000001,0.395567835,-0.277159935
1764762732.7585466,-1.23606,3.54032,0.3204599999999999,-0.8682228750000001,0.395567835,-0.277159935
1764762732.7585466,-1.23606,3.54032,0.3204599999999999,-0.8682228750000001,0.395567835,-0.277159935
1764762732.7585466,-1.23606,3.54032,0.3204599999999999,-0.8682228750000001,0.395567835,-0.277159935
1764762732.7585466,-1.23606,3.54032,0.3204599999999999,-0.8682228750000001,0.395567835,-0.277159935
1764762732.7585466,-1.23606,3.54032,0.3204599999999999,-0.8682228750000001,0.395567835,-0.277159935
1764762732.7585466,-0.54936,3.11304,1.11398,-0.8708473800000001,0.395079555,-0.27734304
1764762732.7585466,-0.54936,3.11304,1.11398,-0.8708473800000001,0.395079555,-0.27734304
1764762732.7585466,-0.54936,3.11304,1.11398,-0.8708473800000001,0.395079555,-0.27734304
1764762732.7585466,-0.54936,3.11304,1.11398,-0.8708473800000001,0.395079555,-0.27734304
1764762732.7585466,-0.54936,3.11304,1.11398,-0.8708473800000001,0.395079555,-0.27734304
1764762732.7585466,-0.54936,3.11304,1.11398,-0.8708473800000001,0.395079555,-0.27734304
1764762732.7585466,-0.54936,3.11304,1.11398,-0.8708473800000001,0.395079555,-0.27734304
1764762732.7585466,-0.54936,3.11304,1.11398,-0.8708473800000001,0.395079555,-0.27734304
1764762732.7585466,-0.54936,3.11304,1.11398,-0.8708473800000001,0.395079555,-0.27734304
1764762732.7585466,-0.54936,3.11304,1.11398,-0.8708473800000001,0.395079555,-0.27734304
1764762732.7585466,0.28994,3.26564,1.34288,-0.870786345,0.394225065,-0.27758718
1764762732.7585466,0.28994,3.26564,1.34288,-0.870786345,0.394225065,-0.27758718
1764762732.7585466,0.28994,3.26564,1.34288,-0.870786345,0.394225065,-0.27758718
1764762732.7585466,0.28994,3.26564,1.34288,-0.870786345,0.394225065,-0.27758718
1764762732.7585466,0.28994,3.26564,1.34288,-0.870786345,0.394225065,-0.27758718
1764762732.7585466,0.28994,3.26564,1.34288,-0.870786345,0.394225065,-0.27758718
1764762732.7585466,0.28994,3.26564,1.34288,-0.870786345,0.394225065,-0.27758718
1764762732.7585466,0.28994,3.26564,1.34288,-0.870786345,0.394225065,-0.27758718
1764762732.8048117,0.28994,3.26564,1.34288,-0.870786345,0.394225065,-0.27758718
1764762732.8048117,0.28994,3.26564,1.34288,-0.870786345,0.394225065,-0.27758718
1764762732.8048117,-0.0762999999999999,3.60136,0.7019599999999999,-0.86950461,0.394957485,-0.278746845
1764762732.8048117,-0.0762999999999999,3.60136,0.7019599999999999,-0.86950461,0.394957485,-0.278746845
1764762732.8048117,-0.0762999999999999,3.60136,0.7019599999999999,-0.86950461,0.394957485,-0.278746845
1764762732.8048117,-0.0762999999999999,3.60136,0.7019599999999999,-0.86950461,0.394957485,-0.278746845
1764762732.8048117,-0.0762999999999999,3.60136,0.7019599999999999,-0.86950461,0.394957485,-0.278746845
1764762732.8048117,-0.0762999999999999,3.60136,0.7019599999999999,-0.86950461,0.394957485,-0.278746845
1764762732.8058715,-0.0762999999999999,3.60136,0.7019599999999999,-0.86950461,0.394957485,-0.278746845
1764762732.8058715,-0.0762999999999999,3.60136,0.7019599999999999,-0.86950461,0.394957485,-0.278746845
1764762732.8058715,-0.0762999999999999,3.60136,0.7019599999999999,-0.86950461,0.394957485,-0.278746845
1764762732.8058715,-0.0762999999999999,3.60136,0.7019599999999999,-0.86950461,0.394957485,-0.278746845
1764762732.8058715,-0.50358,3.70818,1.11398,-0.8692604700000001,0.395689905,-0.27880788
1764762732.8058715,-0.50358,3.70818,1.11398,-0.8692604700000001,0.395689905,-0.27880788
1764762732.8058715,-0.50358,3.70818,1.11398,-0.8692604700000001,0.395689905,-0.27880788
1764762732.8058715,-0.50358,3.70818,1.11398,-0.8692604700000001,0.395689905,-0.27880788
1764762732.8058715,-0.50358,3.70818,1.11398,-0.8692604700000001,0.395689905,-0.27880788
1764762732.8058715,-0.50358,3.70818,1.11398,-0.8692604700000001,0.395689905,-0.27880788
1764762732.8058715,-0.50358,3.70818,1.11398,-0.8692604700000001,0.395689905,-0.27880788
1764762732.8058715,-0.50358,3.70818,1.11398,-0.8692604700000001,0.395689905,-0.27880788
1764762732.8058715,-0.50358,3.70818,1.11398,-0.8692604700000001,0.395689905,-0.27880788
1764762732.8058715,-0.50358,3.70818,1.11398,-0.8692604700000001,0.395689905,-0.27880788
1764762732.8534284,-1.34288,7.79786,1.25132,-0.869687715,0.3967275,-0.27941823
1764762732.8534284,-1.34288,7.79786,1.25132,-0.869687715,0.3967275,-0.27941823
1764762732.8534284,-1.34288,7.79786,1.25132,-0.869687715,0.3967275,-0.27941823
1764762732.8534284,-1.34288,7.79786,1.25132,-0.869687715,0.3967275,-0.27941823
1764762732.8534284,-1.34288,7.79786,1.25132,-0.869687715,0.3967275,-0.27941823
1764762732.8534284,-1.34288,7.79786,1.25132,-0.869687715,0.3967275,-0.27941823
1764762732.8534284,-1.34288,7.79786,1.25132,-0.869687715,0.3967275,-0.27941823
1764762732.8534284,-1.34288,7.79786,1.25132,-0.869687715,0.3967275,-0.27941823
1764762732.8534284,-1.34288,7.79786,1.25132,-0.869687715,0.3967275,-0.27941823
1764762732.8534284,-1.34288,7.79786,1.25132,-0.869687715,0.3967275,-0.27941823
1764762732.8534284,-2.27374,3.23512,1.28184,-0.86974875,0.39819234,-0.2795403
1764762732.8534284,-2.27374,3.23512,1.28184,-0.86974875,0.39819234,-0.2795403
1764762732.8534284,-2.27374,3.23512,1.28184,-0.86974875,0.39819234,-0.2795403
1764762732.8534284,-2.27374,3.23512,1.28184,-0.86974875,0.39819234,-0.2795403
1764762732.8534284,-2.27374,3.23512,1.28184,-0.86974875,0.39819234,-0.2795403
1764762732.8534284,-2.27374,3.23512,1.28184,-0.86974875,0.39819234,-0.2795403
1764762732.8534284,-2.27374,3.23512,1.28184,-0.86974875,0.39819234,-0.2795403
1764762732.8534284,-2.27374,3.23512,1.28184,-0.86974875,0.39819234,-0.2795403
1764762732.8534284,-2.27374,3.23512,1.28184,-0.86974875,0.39819234,-0.2795403
1764762732.8534284,-2.27374,3.23512,1.28184,-0.86974875,0.39819234,-0.2795403
1764762732.8534284,-2.39582,3.47928,0.79352,-0.86877219,0.39770406,-0.278868915
1764762732.8534284,-2.39582,3.47928,0.79352,-0.86877219,0.39770406,-0.278868915
1764762732.8534284,-2.39582,3.47928,0.79352,-0.86877219,0.39770406,-0.278868915
1764762732.8534284,-2.39582,3.47928,0.79352,-0.86877219,0.39770406,-0.278868915
1764762732.900278,-2.39582,3.47928,0.79352,-0.86877219,0.39770406,-0.278868915
1764762732.900278,-2.39582,3.47928,0.79352,-0.86877219,0.39770406,-0.278868915
1764762732.900278,-2.39582,3.47928,0.79352,-0.86877219,0.39770406,-0.278868915
1764762732.900278,-2.39582,3.47928,0.79352,-0.86877219,0.39770406,-0.278868915
1764762732.900278,-2.39582,3.47928,0.79352,-0.86877219,0.39770406,-0.278868915
1764762732.900278,-2.39582,3.47928,0.79352,-0.86877219,0.39770406,-0.278868915
1764762732.900278,-1.86172,3.00622,0.50358,-0.86852805,0.395323695,-0.278746845
1764762732.900278,-1.86172,3.00622,0.50358,-0.86852805,0.395323695,-0.278746845
1764762732.900278,-1.86172,3.00622,0.50358,-0.86852805,0.395323695,-0.278746845
1764762732.900278,-1.86172,3.00622,0.50358,-0.86852805,0.395323695,-0.278746845
1764762732.900278,-1.86172,3.00622,0.50358,-0.86852805,0.395323695,-0.278746845
1764762732.900278,-1.86172,3.00622,0.50358,-0.86852805,0.395323695,-0.278746845
1764762732.900278,-1.86172,3.00622,0.50358,-0.86852805,0.395323695,-0.278746845
1764762732.900278,-1.86172,3.00622,0.50358,-0.86852805,0.395323695,-0.278746845
1764762732.900278,-1.86172,3.00622,0.50358,-0.86852805,0.395323695,-0.278746845
1764762732.900278,-1.86172,3.00622,0.50358,-0.86852805,0.395323695,-0.278746845
1764762732.900278,-0.88508,4.16598,0.9003399999999999,-0.86962668,0.39391989,-0.27795339
1764762732.900278,-0.88508,4.16598,0.9003399999999999,-0.86962668,0.39391989,-0.27795339
1764762732.900278,-0.88508,4.16598,0.9003399999999999,-0.86962668,0.39391989,-0.27795339
1764762732.900278,-0.88508,4.16598,0.9003399999999999,-0.86962668,0.39391989,-0.27795339
1764762732.9475927,-0.88508,4.16598,0.9003399999999999,-0.86962668,0.39391989,-0.27795339
1764762732.9475927,-0.88508,4.16598,0.9003399999999999,-0.86962668,0.39391989,-0.27795339
1764762732.9475927,-0.88508,4.16598,0.9003399999999999,-0.86962668,0.39391989,-0.27795339
1764762732.9475927,-0.88508,4.16598,0.9003399999999999,-0.86962668,0.39391989,-0.27795339
1764762732.9475927,-0.88508,4.16598,0.9003399999999999,-0.86962668,0.39391989,-0.27795339
1764762732.9475927,-0.88508,4.16598,0.9003399999999999,-0.86962668,0.39391989,-0.27795339
1764762732.9475927,-0.8392999999999999,4.24228,1.46496,-0.870786345,0.39514059,-0.27697683
1764762732.9475927,-0.8392999999999999,4.24228,1.46496,-0.870786345,0.39514059,-0.27697683
1764762732.9475927,-0.8392999999999999,4.24228,1.46496,-0.870786345,0.39514059,-0.27697683
1764762732.9475927,-0.8392999999999999,4.24228,1.46496,-0.870786345,0.39514059,-0.27697683
1764762732.9475927,-0.8392999999999999,4.24228,1.46496,-0.870786345,0.39514059,-0.27697683
1764762732.9475927,-0.8392999999999999,4.24228,1.46496,-0.870786345,0.39514059,-0.27697683
1764762732.9475927,-0.8392999999999999,4.24228,1.46496,-0.870786345,0.39514059,-0.27697683
1764762732.9475927,-0.8392999999999999,4.24228,1.46496,-0.870786345,0.39514059,-0.27697683
1764762732.9475927,-0.8392999999999999,4.24228,1.46496,-0.870786345,0.39514059,-0.27697683
1764762732.9475927,-0.8392999999999999,4.24228,1.46496,-0.870786345,0.39514059,-0.27697683
1764762732.9475927,-0.09156,3.98286,1.0682,-0.869931855,0.395811975,-0.277037865
1764762732.9475927,-0.09156,3.98286,1.0682,-0.869931855,0.395811975,-0.277037865
1764762732.9475927,-0.09156,3.98286,1.0682,-0.869931855,0.395811975,-0.277037865
1764762732.9475927,-0.09156,3.98286,1.0682,-0.869931855,0.395811975,-0.277037865
1764762732.9475927,-0.09156,3.98286,1.0682,-0.869931855,0.395811975,-0.277037865
1764762732.9475927,-0.09156,3.98286,1.0682,-0.869931855,0.395811975,-0.277037865
1764762732.9475927,-0.09156,3.98286,1.0682,-0.869931855,0.395811975,-0.277037865
1764762732.9475927,-0.09156,3.98286,1.0682,-0.869931855,0.395811975,-0.277037865
1764762732.9958022,-0.09156,3.98286,1.0682,-0.869931855,0.395811975,-0.277037865
1764762732.9958022,-0.09156,3.98286,1.0682,-0.869931855,0.395811975,-0.277037865
1764762732.9958022,0.04578,4.37962,0.82404,-0.8692604700000001,0.39587301,-0.277159935
1764762732.9958022,0.04578,4.37962,0.82404,-0.8692604700000001,0.39587301,-0.277159935
1764762732.9958022,0.04578,4.37962,0.82404,-0.8692604700000001,0.39587301,-0.277159935
1764762732.9958022,0.04578,4.37962,0.82404,-0.8692604700000001,0.39587301,-0.277159935
1764762732.9958022,0.04578,4.37962,0.82404,-0.8692604700000001,0.39587301,-0.277159935
1764762732.9958022,0.04578,4.37962,0.82404,-0.8692604700000001,0.39587301,-0.277159935
1764762732.9958022,0.04578,4.37962,0.82404,-0.8692604700000001,0.39587301,-0.277159935
1764762732.9958022,0.04578,4.37962,0.82404,-0.8692604700000001,0.39587301,-0.277159935
1764762732.9958022,0.04578,4.37962,0.82404,-0.8692604700000001,0.39587301,-0.277159935
1764762732.9958022,0.04578,4.37962,0.82404,-0.8692604700000001,0.39587301,-0.277159935
1764762732.9958022,-0.73248,3.5098,0.97664,-0.870908415,0.39623922,-0.27795339
1764762732.9958022,-0.73248,3.5098,0.97664,-0.870908415,0.39623922,-0.27795339
1764762732.9958022,-0.73248,3.5098,0.97664,-0.870908415,0.39623922,-0.27795339
1764762732.9958022,-0.73248,3.5098,0.97664,-0.870908415,0.39623922,-0.27795339
1764762732.9958022,-0.73248,3.5098,0.97664,-0.870908415,0.39623922,-0.27795339
1764762732.9958022,-0.73248,3.5098,0.97664,-0.870908415,0.39623922,-0.27795339
1764762732.9958022,-0.73248,3.5098,0.97664,-0.870908415,0.39623922,-0.27795339
1764762732.9958022,-0.73248,3.5098,0.97664,-0.870908415,0.39623922,-0.27795339
1764762732.9958022,-0.73248,3.5098,0.97664,-0.870908415,0.39623922,-0.27795339
1764762732.9958022,-0.73248,3.5098,0.97664,-0.870908415,0.39623922,-0.27795339
1764762732.9958022,-0.9919,3.5861,1.55652,-0.87048117,0.39587301,-0.27856374
1764762732.9958022,-0.9919,3.5861,1.55652,-0.87048117,0.39587301,-0.27856374
1764762733.0396044,-0.9919,3.5861,1.55652,-0.87048117,0.39587301,-0.27856374
1764762733.0396044,-0.9919,3.5861,1.55652,-0.87048117,0.39587301,-0.27856374
1764762733.0396044,-0.9919,3.5861,1.55652,-0.87048117,0.39587301,-0.27856374
1764762733.0401156,-0.9919,3.5861,1.55652,-0.87048117,0.39587301,-0.27856374
1764762733.0401156,-0.9919,3.5861,1.55652,-0.87048117,0.39587301,-0.27856374
1764762733.0401156,-0.9919,3.5861,1.55652,-0.87048117,0.39587301,-0.27856374
1764762733.0401156,-0.9919,3.5861,1.55652,-0.87048117,0.39587301,-0.27856374
1764762733.0401156,-0.9919,3.5861,1.55652,-0.87048117,0.39587301,-0.27856374
1764762733.0401156,0.10682,3.63188,0.50358,-0.869199435,0.395811975,-0.2783196
1764762733.0401156,0.10682,3.63188,0.50358,-0.869199435,0.395811975,-0.2783196
1764762733.0401156,0.10682,3.63188,0.50358,-0.869199435,0.395811975,-0.2783196
1764762733.0401156,0.10682,3.63188,0.50358,-0.869199435,0.395811975,-0.2783196
1764762733.0401156,0.10682,3.63188,0.50358,-0.869199435,0.395811975,-0.2783196
1764762733.0401156,0.10682,3.63188,0.50358,-0.869199435,0.395811975,-0.2783196
1764762733.0401156,0.10682,3.63188,0.50358,-0.869199435,0.395811975,-0.2783196
1764762733.0401156,0.10682,3.63188,0.50358,-0.869199435,0.395811975,-0.2783196
1764762733.0401156,0.10682,3.63188,0.50358,-0.869199435,0.395811975,-0.2783196
1764762733.0401156,0.10682,3.63188,0.50358,-0.869199435,0.395811975,-0.2783196
1764762733.0401156,1.23606,3.63188,0.62566,-0.8687111550000001,0.39587301,-0.27758718
1764762733.0401156,1.23606,3.63188,0.62566,-0.8687111550000001,0.39587301,-0.27758718
1764762733.0401156,1.23606,3.63188,0.62566,-0.8687111550000001,0.39587301,-0.27758718
1764762733.0401156,1.23606,3.63188,0.62566,-0.8687111550000001,0.39587301,-0.27758718
1764762733.0401156,1.23606,3.63188,0.62566,-0.8687111550000001,0.39587301,-0.27758718
1764762733.0401156,1.23606,3.63188,0.62566,-0.8687111550000001,0.39587301,-0.27758718
1764762733.08631,1.23606,3.63188,0.62566,-0.8687111550000001,0.39587301,-0.27758718
1764762733.08631,1.23606,3.63188,0.62566,-0.8687111550000001,0.39587301,-0.27758718
1764762733.08631,1.23606,3.63188,0.62566,-0.8687111550000001,0.39587301,-0.27758718
1764762733.08631,1.23606,3.63188,0.62566,-0.8687111550000001,0.39587301,-0.27758718
1764762733.08631,1.17502,4.0439,1.2055399999999998,-0.868833225,0.397398885,-0.277526145
1764762733.08631,1.17502,4.0439,1.2055399999999998,-0.868833225,0.397398885,-0.277526145
1764762733.08631,1.17502,4.0439,1.2055399999999998,-0.868833225,0.397398885,-0.277526145
1764762733.08631,1.17502,4.0439,1.2055399999999998,-0.868833225,0.397398885,-0.277526145
1764762733.08631,1.17502,4.0439,1.2055399999999998,-0.868833225,0.397398885,-0.277526145
1764762733.08631,1.17502,4.0439,1.2055399999999998,-0.868833225,0.397398885,-0.277526145
1764762733.08631,1.17502,4.0439,1.2055399999999998,-0.868833225,0.397398885,-0.277526145
1764762733.08631,1.17502,4.0439,1.2055399999999998,-0.868833225,0.397398885,-0.277526145
1764762733.08631,1.17502,4.0439,1.2055399999999998,-0.868833225,0.397398885,-0.277526145
1764762733.08631,1.17502,4.0439,1.2055399999999998,-0.868833225,0.397398885,-0.277526145
1764762733.08631,0.41202,3.95234,1.3734,-0.86865012,0.397032675,-0.278502705
1764762733.08631,0.41202,3.95234,1.3734,-0.86865012,0.397032675,-0.278502705
1764762733.0868175,0.41202,3.95234,1.3734,-0.86865012,0.397032675,-0.278502705
1764762733.0868175,0.41202,3.95234,1.3734,-0.86865012,0.397032675,-0.278502705
1764762733.0868175,0.41202,3.95234,1.3734,-0.86865012,0.397032675,-0.278502705
1764762733.0868175,0.41202,3.95234,1.3734,-0.86865012,0.397032675,-0.278502705
1764762733.0868175,0.41202,3.95234,1.3734,-0.86865012,0.397032675,-0.278502705
1764762733.0868175,0.41202,3.95234,1.3734,-0.86865012,0.397032675,-0.278502705
1764762733.0868175,0.41202,3.95234,1.3734,-0.86865012,0.397032675,-0.278502705
1764762733.0868175,0.41202,3.95234,1.3734,-0.86865012,0.397032675,-0.278502705
1764762733.133172,-0.763,3.25038,0.56462,-0.869321505,0.39660543,-0.28039479
1764762733.133172,-0.763,3.25038,0.56462,-0.869321505,0.39660543,-0.28039479
1764762733.133172,-0.763,3.25038,0.56462,-0.869321505,0.39660543,-0.28039479
1764762733.133172,-0.763,3.25038,0.56462,-0.869321505,0.39660543,-0.28039479
1764762733.133172,-0.763,3.25038,0.56462,-0.869321505,0.39660543,-0.28039479
1764762733.133172,-0.763,3.25038,0.56462,-0.869321505,0.39660543,-0.28039479
1764762733.133172,-0.763,3.25038,0.56462,-0.869321505,0.39660543,-0.28039479
1764762733.133172,-0.763,3.25038,0.56462,-0.869321505,0.39660543,-0.28039479
1764762733.133172,-0.763,3.25038,0.56462,-0.869321505,0.39660543,-0.28039479
1764762733.133172,-0.763,3.25038,0.56462,-0.869321505,0.39660543,-0.28039479
1764762733.133172,-1.8006799999999998,3.14356,0.12208,-0.869077365,0.3967275,-0.281188245
1764762733.1336796,-1.8006799999999998,3.14356,0.12208,-0.869077365,0.3967275,-0.281188245
1764762733.1336796,-1.8006799999999998,3.14356,0.12208,-0.869077365,0.3967275,-0.281188245
1764762733.1336796,-1.8006799999999998,3.14356,0.12208,-0.869077365,0.3967275,-0.281188245
1764762733.1336796,-1.8006799999999998,3.14356,0.12208,-0.869077365,0.3967275,-0.281188245
1764762733.1336796,-1.8006799999999998,3.14356,0.12208,-0.869077365,0.3967275,-0.281188245
1764762733.1336796,-1.8006799999999998,3.14356,0.12208,-0.869077365,0.3967275,-0.281188245
1764762733.1336796,-1.8006799999999998,3.14356,0.12208,-0.869077365,0.3967275,-0.281188245
1764762733.1336796,-1.8006799999999998,3.14356,0.12208,-0.869077365,0.3967275,-0.281188245
1764762733.1336796,-1.8006799999999998,3.14356,0.12208,-0.869077365,0.3967275,-0.281188245
1764762733.1336796,-2.45686,3.86078,0.8087799999999999,-0.87121359,0.398131305,-0.28112721
1764762733.1336796,-2.45686,3.86078,0.8087799999999999,-0.87121359,0.398131305,-0.28112721
1764762733.1799572,-2.45686,3.86078,0.8087799999999999,-0.87121359,0.398131305,-0.28112721
1764762733.1799572,-2.45686,3.86078,0.8087799999999999,-0.87121359,0.398131305,-0.28112721
1764762733.1799572,-2.45686,3.86078,0.8087799999999999,-0.87121359,0.398131305,-0.28112721
1764762733.1799572,-2.45686,3.86078,0.8087799999999999,-0.87121359,0.398131305,-0.28112721
1764762733.1799572,-2.45686,3.86078,0.8087799999999999,-0.87121359,0.398131305,-0.28112721
1764762733.1799572,-2.45686,3.86078,0.8087799999999999,-0.87121359,0.398131305,-0.28112721
1764762733.1799572,-2.45686,3.86078,0.8087799999999999,-0.87121359,0.398131305,-0.28112721
1764762733.1799572,-2.45686,3.86078,0.8087799999999999,-0.87121359,0.398131305,-0.28112721
1764762733.1799572,-2.92992,3.46402,0.96138,-0.871274625,0.399107865,-0.27990651
1764762733.1799572,-2.92992,3.46402,0.96138,-0.871274625,0.399107865,-0.27990651
1764762733.1799572,-2.92992,3.46402,0.96138,-0.871274625,0.399107865,-0.27990651
1764762733.1799572,-2.92992,3.46402,0.96138,-0.871274625,0.399107865,-0.27990651
1764762733.1799572,-2.92992,3.46402,0.96138,-0.871274625,0.399107865,-0.27990651
1764762733.1799572,-2.92992,3.46402,0.96138,-0.871274625,0.399107865,-0.27990651
1764762733.1799572,-2.92992,3.46402,0.96138,-0.871274625,0.399107865,-0.27990651
1764762733.1799572,-2.92992,3.46402,0.96138,-0.871274625,0.399107865,-0.27990651
1764762733.1799572,-2.92992,3.46402,0.96138,-0.871274625,0.399107865,-0.27990651
1764762733.1799572,-2.92992,3.46402,0.96138,-0.871274625,0.399107865,-0.27990651
1764762733.180472,-2.80784,3.61662,0.3357199999999999,-0.86901633,0.39868062,-0.278624775
1764762733.180472,-2.80784,3.61662,0.3357199999999999,-0.86901633,0.39868062,-0.278624775
1764762733.180472,-2.80784,3.61662,0.3357199999999999,-0.86901633,0.39868062,-0.278624775
1764762733.180472,-2.80784,3.61662,0.3357199999999999,-0.86901633,0.39868062,-0.278624775
1764762733.180472,-2.80784,3.61662,0.3357199999999999,-0.86901633,0.39868062,-0.278624775
1764762733.180472,-2.80784,3.61662,0.3357199999999999,-0.86901633,0.39868062,-0.278624775
1764762733.2265978,-2.80784,3.61662,0.3357199999999999,-0.86901633,0.39868062,-0.278624775
1764762733.2265978,-2.80784,3.61662,0.3357199999999999,-0.86901633,0.39868062,-0.278624775
1764762733.2265978,-2.80784,3.61662,0.3357199999999999,-0.86901633,0.39868062,-0.278624775
1764762733.2265978,-2.80784,3.61662,0.3357199999999999,-0.86901633,0.39868062,-0.278624775
1764762733.2265978,-2.289,3.60136,0.06104,-0.86755149,0.39562887,-0.2783196
1764762733.2265978,-2.289,3.60136,0.06104,-0.86755149,0.39562887,-0.2783196
1764762733.2265978,-2.289,3.60136,0.06104,-0.86755149,0.39562887,-0.2783196
1764762733.2265978,-2.289,3.60136,0.06104,-0.86755149,0.39562887,-0.2783196
1764762733.2265978,-2.289,3.60136,0.06104,-0.86755149,0.39562887,-0.2783196
1764762733.2265978,-2.289,3.60136,0.06104,-0.86755149,0.39562887,-0.2783196
1764762733.2265978,-2.289,3.60136,0.06104,-0.86755149,0.39562887,-0.2783196
1764762733.2265978,-2.289,3.60136,0.06104,-0.86755149,0.39562887,-0.2783196
1764762733.2265978,-2.289,3.60136,0.06104,-0.86755149,0.39562887,-0.2783196
1764762733.2265978,-2.289,3.60136,0.06104,-0.86755149,0.39562887,-0.2783196
1764762733.2265978,-1.05294,3.87604,0.28994,-0.86803977,0.39355368,-0.27807546
1764762733.2265978,-1.05294,3.87604,0.28994,-0.86803977,0.39355368,-0.27807546
1764762733.2265978,-1.05294,3.87604,0.28994,-0.86803977,0.39355368,-0.27807546
1764762733.2265978,-1.05294,3.87604,0.28994,-0.86803977,0.39355368,-0.27807546
1764762733.2265978,-1.05294,3.87604,0.28994,-0.86803977,0.39355368,-0.27807546
1764762733.2265978,-1.05294,3.87604,0.28994,-0.86803977,0.39355368,-0.27807546
1764762733.2265978,-1.05294,3.87604,0.28994,-0.86803977,0.39355368,-0.27807546
1764762733.2265978,-1.05294,3.87604,0.28994,-0.86803977,0.39355368,-0.27807546
1764762733.2265978,-1.05294,3.87604,0.28994,-0.86803977,0.39355368,-0.27807546
1764762733.2265978,-1.05294,3.87604,0.28994,-0.86803977,0.39355368,-0.27807546
1764762733.2725248,-1.00716,2.91466,0.6867,-0.870786345,0.394102995,-0.27892995
1764762733.2725248,-1.00716,2.91466,0.6867,-0.870786345,0.394102995,-0.27892995
1764762733.2725248,-1.00716,2.91466,0.6867,-0.870786345,0.394102995,-0.27892995
1764762733.2730372,-1.00716,2.91466,0.6867,-0.870786345,0.394102995,-0.27892995
1764762733.2730372,-1.00716,2.91466,0.6867,-0.870786345,0.394102995,-0.27892995
1764762733.2730372,-1.00716,2.91466,0.6867,-0.870786345,0.394102995,-0.27892995
1764762733.2730372,-1.00716,2.91466,0.6867,-0.870786345,0.394102995,-0.27892995
1764762733.2730372,-1.00716,2.91466,0.6867,-0.870786345,0.394102995,-0.27892995
1764762733.2730372,-1.00716,2.91466,0.6867,-0.870786345,0.394102995,-0.27892995
1764762733.2730372,-1.00716,2.91466,0.6867,-0.870786345,0.394102995,-0.27892995
1764762733.2730372,-1.31236,3.49454,1.09872,-0.8729225700000001,0.39526266,-0.27905202
1764762733.2730372,-1.31236,3.49454,1.09872,-0.8729225700000001,0.39526266,-0.27905202
1764762733.3184838,-1.31236,3.49454,1.09872,-0.8729225700000001,0.39526266,-0.27905202
1764762733.3184838,-1.31236,3.49454,1.09872,-0.8729225700000001,0.39526266,-0.27905202
1764762733.3184838,-1.31236,3.49454,1.09872,-0.8729225700000001,0.39526266,-0.27905202
1764762733.3184838,-1.31236,3.49454,1.09872,-0.8729225700000001,0.39526266,-0.27905202
1764762733.3184838,-1.31236,3.49454,1.09872,-0.8729225700000001,0.39526266,-0.27905202
1764762733.3184838,-1.31236,3.49454,1.09872,-0.8729225700000001,0.39526266,-0.27905202
1764762733.3184838,-1.31236,3.49454,1.09872,-0.8729225700000001,0.39526266,-0.27905202
1764762733.319523,-1.31236,3.49454,1.09872,-0.8729225700000001,0.39526266,-0.27905202
1764762733.319523,-1.35814,3.46402,0.28994,-0.871030485,0.39562887,-0.277770285
1764762733.319523,-1.35814,3.46402,0.28994,-0.871030485,0.39562887,-0.277770285
1764762733.319523,-1.35814,3.46402,0.28994,-0.871030485,0.39562887,-0.277770285
1764762733.319523,-1.35814,3.46402,0.28994,-0.871030485,0.39562887,-0.277770285
1764762733.319523,-1.35814,3.46402,0.28994,-0.871030485,0.39562887,-0.277770285
1764762733.319523,-1.35814,3.46402,0.28994,-0.871030485,0.39562887,-0.277770285
1764762733.319523,-1.35814,3.46402,0.28994,-0.871030485,0.39562887,-0.277770285
1764762733.319523,-1.35814,3.46402,0.28994,-0.871030485,0.39562887,-0.277770285
1764762733.319523,-1.35814,3.46402,0.28994,-0.871030485,0.39562887,-0.277770285
1764762733.319523,-1.35814,3.46402,0.28994,-0.871030485,0.39562887,-0.277770285
1764762733.319523,-0.88508,4.0439,-0.39676,-0.869077365,0.396422325,-0.278258565
1764762733.3207338,-0.88508,4.0439,-0.39676,-0.869077365,0.396422325,-0.278258565
1764762733.3207338,-0.88508,4.0439,-0.39676,-0.869077365,0.396422325,-0.278258565
1764762733.3207338,-0.88508,4.0439,-0.39676,-0.869077365,0.396422325,-0.278258565
1764762733.3207338,-0.88508,4.0439,-0.39676,-0.869077365,0.396422325,-0.278258565
1764762733.3207338,-0.88508,4.0439,-0.39676,-0.869077365,0.396422325,-0.278258565
1764762733.3207338,-0.88508,4.0439,-0.39676,-0.869077365,0.396422325,-0.278258565
1764762733.3207338,-0.88508,4.0439,-0.39676,-0.869077365,0.396422325,-0.278258565
1764762733.3207338,-0.88508,4.0439,-0.39676,-0.869077365,0.396422325,-0.278258565
1764762733.3207338,-0.88508,4.0439,-0.39676,-0.869077365,0.396422325,-0.278258565
1764762733.3207338,-2.63998,4.77638,0.01526,-0.86852805,0.3979482,-0.278746845
1764762733.3207338,-2.63998,4.77638,0.01526,-0.86852805,0.3979482,-0.278746845
1764762733.3207338,-2.63998,4.77638,0.01526,-0.86852805,0.3979482,-0.278746845
1764762733.3207338,-2.63998,4.77638,0.01526,-0.86852805,0.3979482,-0.278746845
1764762733.3207338,-2.63998,4.77638,0.01526,-0.86852805,0.3979482,-0.278746845
1764762733.3207338,-2.63998,4.77638,0.01526,-0.86852805,0.3979482,-0.278746845
1764762733.3678803,-2.63998,4.77638,0.01526,-0.86852805,0.3979482,-0.278746845
1764762733.3678803,-2.63998,4.77638,0.01526,-0.86852805,0.3979482,-0.278746845
1764762733.3689616,-2.63998,4.77638,0.01526,-0.86852805,0.3979482,-0.278746845
1764762733.3689616,-2.63998,4.77638,0.01526,-0.86852805,0.3979482,-0.278746845
1764762733.3689616,-4.07442,4.33384,-1.32762,-0.866391825,0.39977925,-0.28015065
1764762733.3689616,-4.07442,4.33384,-1.32762,-0.866391825,0.39977925,-0.28015065
1764762733.3689616,-4.07442,4.33384,-1.32762,-0.866391825,0.39977925,-0.28015065
1764762733.3689616,-4.07442,4.33384,-1.32762,-0.866391825,0.39977925,-0.28015065
1764762733.3689616,-4.07442,4.33384,-1.32762,-0.866391825,0.39977925,-0.28015065
1764762733.3689616,-4.07442,4.33384,-1.32762,-0.866391825,0.39977925,-0.28015065
1764762733.3689616,-4.07442,4.33384,-1.32762,-0.866391825,0.39977925,-0.28015065
1764762733.3689616,-4.07442,4.33384,-1.32762,-0.866391825,0.39977925,-0.28015065
1764762733.3689616,-4.07442,4.33384,-1.32762,-0.866391825,0.39977925,-0.28015065
1764762733.3699589,-4.07442,4.33384,-1.32762,-0.866391825,0.39977925,-0.28015065
1764762733.3699589,-5.52412,4.56274,-1.28184,-0.8682228750000001,0.398375445,-0.282164805
1764762733.3699589,-5.52412,4.56274,-1.28184,-0.8682228750000001,0.398375445,-0.282164805
1764762733.3699589,-5.52412,4.56274,-1.28184,-0.8682228750000001,0.398375445,-0.282164805
1764762733.3699589,-5.52412,4.56274,-1.28184,-0.8682228750000001,0.398375445,-0.282164805
1764762733.3708713,-5.52412,4.56274,-1.28184,-0.8682228750000001,0.398375445,-0.282164805
1764762733.3708713,-5.52412,4.56274,-1.28184,-0.8682228750000001,0.398375445,-0.282164805
1764762733.3708713,-5.52412,4.56274,-1.28184,-0.8682228750000001,0.398375445,-0.282164805
1764762733.3708713,-5.52412,4.56274,-1.28184,-0.8682228750000001,0.398375445,-0.282164805
1764762733.410504,-5.52412,4.56274,-1.28184,-0.8682228750000001,0.398375445,-0.282164805
1764762733.410504,-5.52412,4.56274,-1.28184,-0.8682228750000001,0.398375445,-0.282164805
1764762733.410504,-4.8832,3.31142,0.44254,-0.8718849750000001,0.39807027,-0.280944105
1764762733.410504,-4.8832,3.31142,0.44254,-0.8718849750000001,0.39807027,-0.280944105
1764762733.410504,-4.8832,3.31142,0.44254,-0.8718849750000001,0.39807027,-0.280944105
1764762733.410504,-4.8832,3.31142,0.44254,-0.8718849750000001,0.39807027,-0.280944105
1764762733.410504,-4.8832,3.31142,0.44254,-0.8718849750000001,0.39807027,-0.280944105
1764762733.410504,-4.8832,3.31142,0.44254,-0.8718849750000001,0.39807027,-0.280944105
1764762733.410504,-4.8832,3.31142,0.44254,-0.8718849750000001,0.39807027,-0.280944105
1764762733.410504,-4.8832,3.31142,0.44254,-0.8718849750000001,0.39807027,-0.280944105
1764762733.410504,-4.8832,3.31142,0.44254,-0.8718849750000001,0.39807027,-0.280944105
1764762733.410504,-4.8832,3.31142,0.44254,-0.8718849750000001,0.39807027,-0.280944105
1764762733.410504,-5.20366,3.00622,0.12208,-0.87072531,0.39929097,-0.279723405
1764762733.410504,-5.20366,3.00622,0.12208,-0.87072531,0.39929097,-0.279723405
1764762733.410504,-5.20366,3.00622,0.12208,-0.87072531,0.39929097,-0.279723405
1764762733.411128,-5.20366,3.00622,0.12208,-0.87072531,0.39929097,-0.279723405
1764762733.411128,-5.20366,3.00622,0.12208,-0.87072531,0.39929097,-0.279723405
1764762733.411128,-5.20366,3.00622,0.12208,-0.87072531,0.39929097,-0.279723405
1764762733.411128,-5.20366,3.00622,0.12208,-0.87072531,0.39929097,-0.279723405
1764762733.411128,-5.20366,3.00622,0.12208,-0.87072531,0.39929097,-0.279723405
1764762733.411128,-5.20366,3.00622,0.12208,-0.87072531,0.39929097,-0.279723405
1764762733.411128,-5.20366,3.00622,0.12208,-0.87072531,0.39929097,-0.279723405
1764762733.411128,-4.4254,3.11304,-0.57988,-0.86938254,0.39990132,-0.277159935
1764762733.411128,-4.4254,3.11304,-0.57988,-0.86938254,0.39990132,-0.277159935
1764762733.411128,-4.4254,3.11304,-0.57988,-0.86938254,0.39990132,-0.277159935
1764762733.411128,-4.4254,3.11304,-0.57988,-0.86938254,0.39990132,-0.277159935
1764762733.4616077,-4.4254,3.11304,-0.57988,-0.86938254,0.39990132,-0.277159935
1764762733.4616077,-4.4254,3.11304,-0.57988,-0.86938254,0.39990132,-0.277159935
1764762733.4616077,-4.4254,3.11304,-0.57988,-0.86938254,0.39990132,-0.277159935
1764762733.4616077,-4.4254,3.11304,-0.57988,-0.86938254,0.39990132,-0.277159935
1764762733.4626255,-4.4254,3.11304,-0.57988,-0.86938254,0.39990132,-0.277159935
1764762733.4626255,-4.4254,3.11304,-0.57988,-0.86938254,0.39990132,-0.277159935
1764762733.4626255,-3.18934,2.83836,-0.54936,-0.8679177,0.398009235,-0.275817165
1764762733.4626255,-3.18934,2.83836,-0.54936,-0.8679177,0.398009235,-0.275817165
1764762733.4626255,-3.18934,2.83836,-0.54936,-0.8679177,0.398009235,-0.275817165
1764762733.4626255,-3.18934,2.83836,-0.54936,-0.8679177,0.398009235,-0.275817165
1764762733.4626255,-3.18934,2.83836,-0.54936,-0.8679177,0.398009235,-0.275817165
1764762733.4626255,-3.18934,2.83836,-0.54936,-0.8679177,0.398009235,-0.275817165
1764762733.4626255,-3.18934,2.83836,-0.54936,-0.8679177,0.398009235,-0.275817165
1764762733.4626255,-3.18934,2.83836,-0.54936,-0.8679177,0.398009235,-0.275817165
1764762733.4626255,-3.18934,2.83836,-0.54936,-0.8679177,0.398009235,-0.275817165
1764762733.4626255,-3.18934,2.83836,-0.54936,-0.8679177,0.398009235,-0.275817165
1764762733.4626255,-2.56368,3.49454,-0.10682,-0.86999289,0.395689905,-0.275450955
1764762733.4626255,-2.56368,3.49454,-0.10682,-0.86999289,0.395689905,-0.275450955
1764762733.4626255,-2.56368,3.49454,-0.10682,-0.86999289,0.395689905,-0.275450955
1764762733.4626255,-2.56368,3.49454,-0.10682,-0.86999289,0.395689905,-0.275450955
1764762733.4626255,-2.56368,3.49454,-0.10682,-0.86999289,0.395689905,-0.275450955
1764762733.4626255,-2.56368,3.49454,-0.10682,-0.86999289,0.395689905,-0.275450955
1764762733.506001,-2.56368,3.49454,-0.10682,-0.86999289,0.395689905,-0.275450955
1764762733.506001,-2.56368,3.49454,-0.10682,-0.86999289,0.395689905,-0.275450955
1764762733.506001,-2.56368,3.49454,-0.10682,-0.86999289,0.395689905,-0.275450955
1764762733.506001,-2.56368,3.49454,-0.10682,-0.86999289,0.395689905,-0.275450955
1764762733.506001,-2.5942,2.5942,0.6714399999999999,-0.872129115,0.39416403,-0.27624441
1764762733.506001,-2.5942,2.5942,0.6714399999999999,-0.872129115,0.39416403,-0.27624441
1764762733.506001,-2.5942,2.5942,0.6714399999999999,-0.872129115,0.39416403,-0.27624441
1764762733.506001,-2.5942,2.5942,0.6714399999999999,-0.872129115,0.39416403,-0.27624441
1764762733.506001,-2.5942,2.5942,0.6714399999999999,-0.872129115,0.39416403,-0.27624441
1764762733.506001,-2.5942,2.5942,0.6714399999999999,-0.872129115,0.39416403,-0.27624441
1764762733.506001,-2.5942,2.5942,0.6714399999999999,-0.872129115,0.39416403,-0.27624441
1764762733.506001,-2.5942,2.5942,0.6714399999999999,-0.872129115,0.39416403,-0.27624441
1764762733.506001,-2.5942,2.5942,0.6714399999999999,-0.872129115,0.39416403,-0.27624441
1764762733.506001,-2.5942,2.5942,0.6714399999999999,-0.872129115,0.39416403,-0.27624441
1764762733.506001,-2.50264,3.40298,0.763,-0.87072531,0.39501852,-0.276671655
1764762733.506001,-2.50264,3.40298,0.763,-0.87072531,0.39501852,-0.276671655
1764762733.506001,-2.50264,3.40298,0.763,-0.87072531,0.39501852,-0.276671655
1764762733.506001,-2.50264,3.40298,0.763,-0.87072531,0.39501852,-0.276671655
1764762733.506001,-2.50264,3.40298,0.763,-0.87072531,0.39501852,-0.276671655
1764762733.5070083,-2.50264,3.40298,0.763,-0.87072531,0.39501852,-0.276671655
1764762733.5527017,-2.50264,3.40298,0.763,-0.87072531,0.39501852,-0.276671655
1764762733.5532117,-2.50264,3.40298,0.763,-0.87072531,0.39501852,-0.276671655
1764762733.5532117,-2.50264,3.40298,0.763,-0.87072531,0.39501852,-0.276671655
1764762733.5532117,-2.50264,3.40298,0.763,-0.87072531,0.39501852,-0.276671655
1764762733.5532117,-3.03674,3.1283,-0.01526,-0.86999289,0.39660543,-0.275817165
1764762733.5532117,-3.03674,3.1283,-0.01526,-0.86999289,0.39660543,-0.275817165
1764762733.5532117,-3.03674,3.1283,-0.01526,-0.86999289,0.39660543,-0.275817165
1764762733.5532117,-3.03674,3.1283,-0.01526,-0.86999289,0.39660543,-0.275817165
1764762733.5532117,-3.03674,3.1283,-0.01526,-0.86999289,0.39660543,-0.275817165
1764762733.5532117,-3.03674,3.1283,-0.01526,-0.86999289,0.39660543,-0.275817165
1764762733.5532117,-3.03674,3.1283,-0.01526,-0.86999289,0.39660543,-0.275817165
1764762733.5532117,-3.03674,3.1283,-0.01526,-0.86999289,0.39660543,-0.275817165
1764762733.5532117,-3.03674,3.1283,-0.01526,-0.86999289,0.39660543,-0.275817165
1764762733.5532117,-3.03674,3.1283,-0.01526,-0.86999289,0.39660543,-0.275817165
1764762733.5532117,-2.63998,3.38772,-0.06104,-0.870175995,0.396178185,-0.274840605
1764762733.5532117,-2.63998,3.38772,-0.06104,-0.870175995,0.396178185,-0.274840605
1764762733.5532117,-2.63998,3.38772,-0.06104,-0.870175995,0.396178185,-0.274840605
1764762733.5532117,-2.63998,3.38772,-0.06104,-0.870175995,0.396178185,-0.274840605
1764762733.5532117,-2.63998,3.38772,-0.06104,-0.870175995,0.396178185,-0.274840605
1764762733.5532117,-2.63998,3.38772,-0.06104,-0.870175995,0.396178185,-0.274840605
1764762733.5532117,-2.63998,3.38772,-0.06104,-0.870175995,0.396178185,-0.274840605
1764762733.5532117,-2.63998,3.38772,-0.06104,-0.870175995,0.396178185,-0.274840605
1764762733.5532117,-2.63998,3.38772,-0.06104,-0.870175995,0.396178185,-0.274840605
1764762733.5532117,-2.63998,3.38772,-0.06104,-0.870175995,0.396178185,-0.274840605
1764762733.5532117,-0.3204599999999999,3.09778,0.5341,-0.870908415,0.39501852,-0.27453543
1764762733.5532117,-0.3204599999999999,3.09778,0.5341,-0.870908415,0.39501852,-0.27453543
1764762733.5966802,-0.3204599999999999,3.09778,0.5341,-0.870908415,0.39501852,-0.27453543
1764762733.5966802,-0.3204599999999999,3.09778,0.5341,-0.870908415,0.39501852,-0.27453543
1764762733.5966802,-0.3204599999999999,3.09778,0.5341,-0.870908415,0.39501852,-0.27453543
1764762733.5966802,-0.3204599999999999,3.09778,0.5341,-0.870908415,0.39501852,-0.27453543
1764762733.5966802,-0.3204599999999999,3.09778,0.5341,-0.870908415,0.39501852,-0.27453543
1764762733.5966802,-0.3204599999999999,3.09778,0.5341,-0.870908415,0.39501852,-0.27453543
1764762733.5966802,-0.3204599999999999,3.09778,0.5341,-0.870908415,0.39501852,-0.27453543
1764762733.5966802,-0.3204599999999999,3.09778,0.5341,-0.870908415,0.39501852,-0.27453543
1764762733.5966802,0.04578,3.54032,0.44254,-0.87109152,0.395323695,-0.275328885
1764762733.5966802,0.04578,3.54032,0.44254,-0.87109152,0.395323695,-0.275328885
1764762733.598476,0.04578,3.54032,0.44254,-0.87109152,0.395323695,-0.275328885
1764762733.598476,0.04578,3.54032,0.44254,-0.87109152,0.395323695,-0.275328885
1764762733.598476,0.04578,3.54032,0.44254,-0.87109152,0.395323695,-0.275328885
1764762733.598476,0.04578,3.54032,0.44254,-0.87109152,0.395323695,-0.275328885
1764762733.598476,0.04578,3.54032,0.44254,-0.87109152,0.395323695,-0.275328885
1764762733.598476,0.04578,3.54032,0.44254,-0.87109152,0.395323695,-0.275328885
1764762733.598476,0.04578,3.54032,0.44254,-0.87109152,0.395323695,-0.275328885
1764762733.598476,0.04578,3.54032,0.44254,-0.87109152,0.395323695,-0.275328885
1764762733.598476,-1.23606,3.18934,0.1678599999999999,-0.870175995,0.397154745,-0.276427515
1764762733.598476,-1.23606,3.18934,0.1678599999999999,-0.870175995,0.397154745,-0.276427515
1764762733.598476,-1.23606,3.18934,0.1678599999999999,-0.870175995,0.397154745,-0.276427515
1764762733.598476,-1.23606,3.18934,0.1678599999999999,-0.870175995,0.397154745,-0.276427515
1764762733.6453116,-1.23606,3.18934,0.1678599999999999,-0.870175995,0.397154745,-0.276427515
1764762733.6453116,-1.23606,3.18934,0.1678599999999999,-0.870175995,0.397154745,-0.276427515
1764762733.6453116,-1.23606,3.18934,0.1678599999999999,-0.870175995,0.397154745,-0.276427515
1764762733.6453116,-1.23606,3.18934,0.1678599999999999,-0.870175995,0.397154745,-0.276427515
1764762733.6453116,-1.23606,3.18934,0.1678599999999999,-0.870175995,0.397154745,-0.276427515
1764762733.6453116,-1.23606,3.18934,0.1678599999999999,-0.870175995,0.397154745,-0.276427515
1764762733.6453116,-1.4039199999999998,3.09778,-0.5341,-0.868955295,0.39807027,-0.27648855
1764762733.6453116,-1.4039199999999998,3.09778,-0.5341,-0.868955295,0.39807027,-0.27648855
1764762733.6453116,-1.4039199999999998,3.09778,-0.5341,-0.868955295,0.39807027,-0.27648855
1764762733.6453116,-1.4039199999999998,3.09778,-0.5341,-0.868955295,0.39807027,-0.27648855
1764762733.6453116,-1.4039199999999998,3.09778,-0.5341,-0.868955295,0.39807027,-0.27648855
1764762733.6453116,-1.4039199999999998,3.09778,-0.5341,-0.868955295,0.39807027,-0.27648855
1764762733.6453116,-1.4039199999999998,3.09778,-0.5341,-0.868955295,0.39807027,-0.27648855
1764762733.6453116,-1.4039199999999998,3.09778,-0.5341,-0.868955295,0.39807027,-0.27648855
1764762733.6453116,-1.4039199999999998,3.09778,-0.5341,-0.868955295,0.39807027,-0.27648855
1764762733.6453116,-1.4039199999999998,3.09778,-0.5341,-0.868955295,0.39807027,-0.27648855
1764762733.6453116,-2.50264,2.60946,-0.6867,-0.868955295,0.398741655,-0.276671655
1764762733.6453116,-2.50264,2.60946,-0.6867,-0.868955295,0.398741655,-0.276671655
1764762733.6453116,-2.50264,2.60946,-0.6867,-0.868955295,0.398741655,-0.276671655
1764762733.6453116,-2.50264,2.60946,-0.6867,-0.868955295,0.398741655,-0.276671655
1764762733.6453116,-2.50264,2.60946,-0.6867,-0.868955295,0.398741655,-0.276671655
1764762733.6453116,-2.50264,2.60946,-0.6867,-0.868955295,0.398741655,-0.276671655
1764762733.6463249,-2.50264,2.60946,-0.6867,-0.868955295,0.398741655,-0.276671655
1764762733.6463249,-2.50264,2.60946,-0.6867,-0.868955295,0.398741655,-0.276671655
1764762733.6906648,-2.50264,2.60946,-0.6867,-0.868955295,0.398741655,-0.276671655
1764762733.6906648,-2.50264,2.60946,-0.6867,-0.868955295,0.398741655,-0.276671655
1764762733.6906648,-4.715339999999999,2.33478,-1.2208,-0.868955295,0.39892476,-0.27807546
1764762733.6906648,-4.715339999999999,2.33478,-1.2208,-0.868955295,0.39892476,-0.27807546
1764762733.6906648,-4.715339999999999,2.33478,-1.2208,-0.868955295,0.39892476,-0.27807546
1764762733.6906648,-4.715339999999999,2.33478,-1.2208,-0.868955295,0.39892476,-0.27807546
1764762733.6906648,-4.715339999999999,2.33478,-1.2208,-0.868955295,0.39892476,-0.27807546
1764762733.6906648,-4.715339999999999,2.33478,-1.2208,-0.868955295,0.39892476,-0.27807546
1764762733.6906648,-4.715339999999999,2.33478,-1.2208,-0.868955295,0.39892476,-0.27807546
1764762733.6906648,-4.715339999999999,2.33478,-1.2208,-0.868955295,0.39892476,-0.27807546
1764762733.6906648,-4.715339999999999,2.33478,-1.2208,-0.868955295,0.39892476,-0.27807546
1764762733.6906648,-4.715339999999999,2.33478,-1.2208,-0.868955295,0.39892476,-0.27807546
1764762733.6906648,-6.14978,2.22796,-1.26658,-0.86962668,0.39843648,-0.278746845
1764762733.6906648,-6.14978,2.22796,-1.26658,-0.86962668,0.39843648,-0.278746845
1764762733.6906648,-6.14978,2.22796,-1.26658,-0.86962668,0.39843648,-0.278746845
1764762733.6906648,-6.14978,2.22796,-1.26658,-0.86962668,0.39843648,-0.278746845
1764762733.6906648,-6.14978,2.22796,-1.26658,-0.86962668,0.39843648,-0.278746845
1764762733.6906648,-6.14978,2.22796,-1.26658,-0.86962668,0.39843648,-0.278746845
1764762733.6906648,-6.14978,2.22796,-1.26658,-0.86962668,0.39843648,-0.278746845
1764762733.6906648,-6.14978,2.22796,-1.26658,-0.86962668,0.39843648,-0.278746845
1764762733.6906648,-6.14978,2.22796,-1.26658,-0.86962668,0.39843648,-0.278746845
1764762733.6920245,-6.14978,2.22796,-1.26658,-0.86962668,0.39843648,-0.278746845
1764762733.7382631,-6.34816,2.54842,-0.6714399999999999,-0.872007045,0.39855855,-0.277404075
1764762733.7382631,-6.34816,2.54842,-0.6714399999999999,-0.872007045,0.39855855,-0.277404075
1764762733.7382631,-6.34816,2.54842,-0.6714399999999999,-0.872007045,0.39855855,-0.277404075
1764762733.7382631,-6.34816,2.54842,-0.6714399999999999,-0.872007045,0.39855855,-0.277404075
1764762733.7382631,-6.34816,2.54842,-0.6714399999999999,-0.872007045,0.39855855,-0.277404075
1764762733.7382631,-6.34816,2.54842,-0.6714399999999999,-0.872007045,0.39855855,-0.277404075
1764762733.7382631,-6.34816,2.54842,-0.6714399999999999,-0.872007045,0.39855855,-0.277404075
1764762733.7382631,-6.34816,2.54842,-0.6714399999999999,-0.872007045,0.39855855,-0.277404075
1764762733.7382631,-6.34816,2.54842,-0.6714399999999999,-0.872007045,0.39855855,-0.277404075
1764762733.7382631,-6.34816,2.54842,-0.6714399999999999,-0.872007045,0.39855855,-0.277404075
1764762733.7382631,-4.10494,2.30426,0.0,-0.8728005,0.397398885,-0.273375765
1764762733.7382631,-4.10494,2.30426,0.0,-0.8728005,0.397398885,-0.273375765
1764762733.7382631,-4.10494,2.30426,0.0,-0.8728005,0.397398885,-0.273375765
1764762733.7382631,-4.10494,2.30426,0.0,-0.8728005,0.397398885,-0.273375765
1764762733.7382631,-4.10494,2.30426,0.0,-0.8728005,0.397398885,-0.273375765
1764762733.7382631,-4.10494,2.30426,0.0,-0.8728005,0.397398885,-0.273375765
1764762733.7382631,-4.10494,2.30426,0.0,-0.8728005,0.397398885,-0.273375765
1764762733.7382631,-4.10494,2.30426,0.0,-0.8728005,0.397398885,-0.273375765
1764762733.7382631,-4.10494,2.30426,0.0,-0.8728005,0.397398885,-0.273375765
1764762733.739795,-4.10494,2.30426,0.0,-0.8728005,0.397398885,-0.273375765
1764762733.739795,-2.12114,3.4335,-0.82404,-0.86999289,0.396666465,-0.27160575
1764762733.739795,-2.12114,3.4335,-0.82404,-0.86999289,0.396666465,-0.27160575
1764762733.739795,-2.12114,3.4335,-0.82404,-0.86999289,0.396666465,-0.27160575
1764762733.739795,-2.12114,3.4335,-0.82404,-0.86999289,0.396666465,-0.27160575
1764762733.7853131,-2.12114,3.4335,-0.82404,-0.86999289,0.396666465,-0.27160575
1764762733.7853131,-2.12114,3.4335,-0.82404,-0.86999289,0.396666465,-0.27160575
1764762733.7853131,-2.12114,3.4335,-0.82404,-0.86999289,0.396666465,-0.27160575
1764762733.7853131,-2.12114,3.4335,-0.82404,-0.86999289,0.396666465,-0.27160575
1764762733.7853131,-2.12114,3.4335,-0.82404,-0.86999289,0.396666465,-0.27160575
1764762733.7853131,-2.12114,3.4335,-0.82404,-0.86999289,0.396666465,-0.27160575
1764762733.7853131,-1.6786,3.37246,-0.59514,-0.870420135,0.396788535,-0.27148368
1764762733.7853131,-1.6786,3.37246,-0.59514,-0.870420135,0.396788535,-0.27148368
1764762733.7853131,-1.6786,3.37246,-0.59514,-0.870420135,0.396788535,-0.27148368
1764762733.7853131,-1.6786,3.37246,-0.59514,-0.870420135,0.396788535,-0.27148368
1764762733.7853131,-1.6786,3.37246,-0.59514,-0.870420135,0.396788535,-0.27148368
1764762733.7853131,-1.6786,3.37246,-0.59514,-0.870420135,0.396788535,-0.27148368
1764762733.7853131,-1.6786,3.37246,-0.59514,-0.870420135,0.396788535,-0.27148368
1764762733.7853131,-1.6786,3.37246,-0.59514,-0.870420135,0.396788535,-0.27148368
1764762733.7853131,-1.6786,3.37246,-0.59514,-0.870420135,0.396788535,-0.27148368
1764762733.7853131,-1.6786,3.37246,-0.59514,-0.870420135,0.396788535,-0.27148368
1764762733.7853131,-1.58704,3.03674,0.12208,-0.871274625,0.395689905,-0.27136161
1764762733.7853131,-1.58704,3.03674,0.12208,-0.871274625,0.395689905,-0.27136161
1764762733.7853131,-1.58704,3.03674,0.12208,-0.871274625,0.395689905,-0.27136161
1764762733.7853131,-1.58704,3.03674,0.12208,-0.871274625,0.395689905,-0.27136161
1764762733.7853131,-1.58704,3.03674,0.12208,-0.871274625,0.395689905,-0.27136161
1764762733.7853131,-1.58704,3.03674,0.12208,-0.871274625,0.395689905,-0.27136161
1764762733.7853131,-1.58704,3.03674,0.12208,-0.871274625,0.395689905,-0.27136161
1764762733.7853131,-1.58704,3.03674,0.12208,-0.871274625,0.395689905,-0.27136161
1764762733.7853131,-1.58704,3.03674,0.12208,-0.871274625,0.395689905,-0.27136161
1764762733.7853131,-1.58704,3.03674,0.12208,-0.871274625,0.395689905,-0.27136161
1764762733.8333654,-0.7019599999999999,2.9757,-0.2289,-0.87060324,0.39404196,-0.27087333
1764762733.8333654,-0.7019599999999999,2.9757,-0.2289,-0.87060324,0.39404196,-0.27087333
1764762733.8333654,-0.7019599999999999,2.9757,-0.2289,-0.87060324,0.39404196,-0.27087333
1764762733.8333654,-0.7019599999999999,2.9757,-0.2289,-0.87060324,0.39404196,-0.27087333
1764762733.8333654,-0.7019599999999999,2.9757,-0.2289,-0.87060324,0.39404196,-0.27087333
1764762733.8333654,-0.7019599999999999,2.9757,-0.2289,-0.87060324,0.39404196,-0.27087333
1764762733.8333654,-0.7019599999999999,2.9757,-0.2289,-0.87060324,0.39404196,-0.27087333
1764762733.8333654,-0.7019599999999999,2.9757,-0.2289,-0.87060324,0.39404196,-0.27087333
1764762733.8333654,-0.7019599999999999,2.9757,-0.2289,-0.87060324,0.39404196,-0.27087333
1764762733.8333654,-0.7019599999999999,2.9757,-0.2289,-0.87060324,0.39404196,-0.27087333
1764762733.8333654,0.97664,3.11304,-0.0762999999999999,-0.871152555,0.39330954,-0.27001884
1764762733.8333654,0.97664,3.11304,-0.0762999999999999,-0.871152555,0.39330954,-0.27001884
1764762733.8333654,0.97664,3.11304,-0.0762999999999999,-0.871152555,0.39330954,-0.27001884
1764762733.8333654,0.97664,3.11304,-0.0762999999999999,-0.871152555,0.39330954,-0.27001884
1764762733.8333654,0.97664,3.11304,-0.0762999999999999,-0.871152555,0.39330954,-0.27001884
1764762733.8333654,0.97664,3.11304,-0.0762999999999999,-0.871152555,0.39330954,-0.27001884
1764762733.8333654,0.97664,3.11304,-0.0762999999999999,-0.871152555,0.39330954,-0.27001884
1764762733.8333654,0.97664,3.11304,-0.0762999999999999,-0.871152555,0.39330954,-0.27001884
1764762733.8333654,0.97664,3.11304,-0.0762999999999999,-0.871152555,0.39330954,-0.27001884
1764762733.8333654,0.97664,3.11304,-0.0762999999999999,-0.871152555,0.39330954,-0.27001884
1764762733.8333654,2.39582,3.32668,-0.6103999999999999,-0.87121359,0.392271945,-0.269835735
1764762733.8333654,2.39582,3.32668,-0.6103999999999999,-0.87121359,0.392271945,-0.269835735
1764762733.8333654,2.39582,3.32668,-0.6103999999999999,-0.87121359,0.392271945,-0.269835735
1764762733.8333654,2.39582,3.32668,-0.6103999999999999,-0.87121359,0.392271945,-0.269835735
1764762733.8809044,2.39582,3.32668,-0.6103999999999999,-0.87121359,0.392271945,-0.269835735
1764762733.8809044,2.39582,3.32668,-0.6103999999999999,-0.87121359,0.392271945,-0.269835735
1764762733.8809044,2.39582,3.32668,-0.6103999999999999,-0.87121359,0.392271945,-0.269835735
1764762733.8809044,2.39582,3.32668,-0.6103999999999999,-0.87121359,0.392271945,-0.269835735
1764762733.8809044,2.39582,3.32668,-0.6103999999999999,-0.87121359,0.392271945,-0.269835735
1764762733.8809044,2.39582,3.32668,-0.6103999999999999,-0.87121359,0.392271945,-0.269835735
1764762733.8809044,3.31142,3.14356,-1.0682,-0.871274625,0.392760225,-0.27062919
1764762733.8809044,3.31142,3.14356,-1.0682,-0.871274625,0.392760225,-0.27062919
1764762733.8809044,3.31142,3.14356,-1.0682,-0.871274625,0.392760225,-0.27062919
1764762733.8809044,3.31142,3.14356,-1.0682,-0.871274625,0.392760225,-0.27062919
1764762733.8809044,3.31142,3.14356,-1.0682,-0.871274625,0.392760225,-0.27062919
1764762733.8809044,3.31142,3.14356,-1.0682,-0.871274625,0.392760225,-0.27062919
1764762733.8809044,3.31142,3.14356,-1.0682,-0.871274625,0.392760225,-0.27062919
1764762733.8809044,3.31142,3.14356,-1.0682,-0.871274625,0.392760225,-0.27062919
1764762733.8809044,3.31142,3.14356,-1.0682,-0.871274625,0.392760225,-0.27062919
1764762733.8809044,3.31142,3.14356,-1.0682,-0.871274625,0.392760225,-0.27062919
1764762733.8809044,3.15882,2.80784,-0.56462,-0.87267843,0.392760225,-0.271910925
1764762733.8809044,3.15882,2.80784,-0.56462,-0.87267843,0.392760225,-0.271910925
1764762733.8809044,3.15882,2.80784,-0.56462,-0.87267843,0.392760225,-0.271910925
1764762733.8809044,3.15882,2.80784,-0.56462,-0.87267843,0.392760225,-0.271910925
1764762733.8809044,3.15882,2.80784,-0.56462,-0.87267843,0.392760225,-0.271910925
1764762733.8809044,3.15882,2.80784,-0.56462,-0.87267843,0.392760225,-0.271910925
1764762733.927973,3.15882,2.80784,-0.56462,-0.87267843,0.392760225,-0.271910925
1764762733.927973,3.15882,2.80784,-0.56462,-0.87267843,0.392760225,-0.271910925
1764762733.927973,3.15882,2.80784,-0.56462,-0.87267843,0.392760225,-0.271910925
1764762733.927973,3.15882,2.80784,-0.56462,-0.87267843,0.392760225,-0.271910925
1764762733.9284997,2.77732,3.18934,-0.8698199999999999,-0.871518765,0.392149875,-0.27368094
1764762733.9284997,2.77732,3.18934,-0.8698199999999999,-0.871518765,0.392149875,-0.27368094
1764762733.9284997,2.77732,3.18934,-0.8698199999999999,-0.871518765,0.392149875,-0.27368094
1764762733.9284997,2.77732,3.18934,-0.8698199999999999,-0.871518765,0.392149875,-0.27368094
1764762733.9284997,2.77732,3.18934,-0.8698199999999999,-0.871518765,0.392149875,-0.27368094
1764762733.9284997,2.77732,3.18934,-0.8698199999999999,-0.871518765,0.392149875,-0.27368094
1764762733.9284997,2.77732,3.18934,-0.8698199999999999,-0.871518765,0.392149875,-0.27368094
1764762733.9284997,2.77732,3.18934,-0.8698199999999999,-0.871518765,0.392149875,-0.27368094
1764762733.9284997,2.77732,3.18934,-0.8698199999999999,-0.871518765,0.392149875,-0.27368094
1764762733.9284997,2.77732,3.18934,-0.8698199999999999,-0.871518765,0.392149875,-0.27368094
1764762733.9284997,2.0601,2.79258,-0.71722,-0.8718849750000001,0.39404196,-0.273619905
1764762733.9284997,2.0601,2.79258,-0.71722,-0.8718849750000001,0.39404196,-0.273619905
1764762733.9284997,2.0601,2.79258,-0.71722,-0.8718849750000001,0.39404196,-0.273619905
1764762733.9284997,2.0601,2.79258,-0.71722,-0.8718849750000001,0.39404196,-0.273619905
1764762733.9284997,2.0601,2.79258,-0.71722,-0.8718849750000001,0.39404196,-0.273619905
1764762733.9284997,2.0601,2.79258,-0.71722,-0.8718849750000001,0.39404196,-0.273619905
1764762733.9284997,2.0601,2.79258,-0.71722,-0.8718849750000001,0.39404196,-0.273619905
1764762733.9284997,2.0601,2.79258,-0.71722,-0.8718849750000001,0.39404196,-0.273619905
1764762733.9284997,2.0601,2.79258,-0.71722,-0.8718849750000001,0.39404196,-0.273619905
1764762733.9284997,2.0601,2.79258,-0.71722,-0.8718849750000001,0.39404196,-0.273619905
1764762733.975054,2.30426,2.56368,-0.77826,-0.8729225700000001,0.39538473,-0.273619905
1764762733.975054,2.30426,2.56368,-0.77826,-0.8729225700000001,0.39538473,-0.273619905
1764762733.975054,2.30426,2.56368,-0.77826,-0.8729225700000001,0.39538473,-0.273619905
1764762733.975054,2.30426,2.56368,-0.77826,-0.8729225700000001,0.39538473,-0.273619905
1764762733.975054,2.30426,2.56368,-0.77826,-0.8729225700000001,0.39538473,-0.273619905
1764762733.975054,2.30426,2.56368,-0.77826,-0.8729225700000001,0.39538473,-0.273619905
1764762733.975054,2.30426,2.56368,-0.77826,-0.8729225700000001,0.39538473,-0.273619905
1764762733.975054,2.30426,2.56368,-0.77826,-0.8729225700000001,0.39538473,-0.273619905
1764762733.975054,2.30426,2.56368,-0.77826,-0.8729225700000001,0.39538473,-0.273619905
1764762733.975054,2.30426,2.56368,-0.77826,-0.8729225700000001,0.39538473,-0.273619905
1764762733.975054,1.48022,2.4416,-1.0682,-0.872129115,0.396422325,-0.2746575
1764762733.975054,1.48022,2.4416,-1.0682,-0.872129115,0.396422325,-0.2746575
1764762733.975054,1.48022,2.4416,-1.0682,-0.872129115,0.396422325,-0.2746575
1764762733.975054,1.48022,2.4416,-1.0682,-0.872129115,0.396422325,-0.2746575
1764762733.975054,1.48022,2.4416,-1.0682,-0.872129115,0.396422325,-0.2746575
1764762733.975054,1.48022,2.4416,-1.0682,-0.872129115,0.396422325,-0.2746575
1764762733.975054,1.48022,2.4416,-1.0682,-0.872129115,0.396422325,-0.2746575
1764762733.975054,1.48022,2.4416,-1.0682,-0.872129115,0.396422325,-0.2746575
1764762733.975054,1.48022,2.4416,-1.0682,-0.872129115,0.396422325,-0.2746575
1764762733.975054,1.48022,2.4416,-1.0682,-0.872129115,0.396422325,-0.2746575
1764762733.975054,0.3051999999999999,2.88414,-1.54126,-0.871396695,0.395934045,-0.2758782
1764762733.975054,0.3051999999999999,2.88414,-1.54126,-0.871396695,0.395934045,-0.2758782
1764762733.975054,0.3051999999999999,2.88414,-1.54126,-0.871396695,0.395934045,-0.2758782
1764762733.975054,0.3051999999999999,2.88414,-1.54126,-0.871396695,0.395934045,-0.2758782
1764762734.0228648,0.3051999999999999,2.88414,-1.54126,-0.871396695,0.395934045,-0.2758782
1764762734.0228648,0.3051999999999999,2.88414,-1.54126,-0.871396695,0.395934045,-0.2758782
1764762734.0228648,0.3051999999999999,2.88414,-1.54126,-0.871396695,0.395934045,-0.2758782
1764762734.0228648,0.3051999999999999,2.88414,-1.54126,-0.871396695,0.395934045,-0.2758782
1764762734.0228648,0.3051999999999999,2.88414,-1.54126,-0.871396695,0.395934045,-0.2758782
1764762734.0228648,0.3051999999999999,2.88414,-1.54126,-0.871396695,0.395934045,-0.2758782
1764762734.0228648,-0.21364,3.052,-0.79352,-0.871030485,0.39379782,-0.27551199
1764762734.0228648,-0.21364,3.052,-0.79352,-0.871030485,0.39379782,-0.27551199
1764762734.0228648,-0.21364,3.052,-0.79352,-0.871030485,0.39379782,-0.27551199
1764762734.0228648,-0.21364,3.052,-0.79352,-0.871030485,0.39379782,-0.27551199
1764762734.0228648,-0.21364,3.052,-0.79352,-0.871030485,0.39379782,-0.27551199
1764762734.0228648,-0.21364,3.052,-0.79352,-0.871030485,0.39379782,-0.27551199
1764762734.0228648,-0.21364,3.052,-0.79352,-0.871030485,0.39379782,-0.27551199
1764762734.0228648,-0.21364,3.052,-0.79352,-0.871030485,0.39379782,-0.27551199
1764762734.0228648,-0.21364,3.052,-0.79352,-0.871030485,0.39379782,-0.27551199
1764762734.0228648,-0.21364,3.052,-0.79352,-0.871030485,0.39379782,-0.27551199
1764762734.0228648,0.3051999999999999,4.22702,-1.69386,-0.86999289,0.391417455,-0.273131625
1764762734.0228648,0.3051999999999999,4.22702,-1.69386,-0.86999289,0.391417455,-0.273131625
1764762734.0228648,0.3051999999999999,4.22702,-1.69386,-0.86999289,0.391417455,-0.273131625
1764762734.0228648,0.3051999999999999,4.22702,-1.69386,-0.86999289,0.391417455,-0.273131625
1764762734.0228648,0.3051999999999999,4.22702,-1.69386,-0.86999289,0.391417455,-0.273131625
1764762734.0228648,0.3051999999999999,4.22702,-1.69386,-0.86999289,0.391417455,-0.273131625
1764762734.0690088,0.3051999999999999,4.22702,-1.69386,-0.86999289,0.391417455,-0.273131625
1764762734.0690088,0.3051999999999999,4.22702,-1.69386,-0.86999289,0.391417455,-0.273131625
1764762734.0690088,0.3051999999999999,4.22702,-1.69386,-0.86999289,0.391417455,-0.273131625
1764762734.0690088,0.3051999999999999,4.22702,-1.69386,-0.86999289,0.391417455,-0.273131625
1764762734.0690088,4.39488,5.646199999999999,-1.96854,-0.8702980650000001,0.38793846,-0.27014091
1764762734.0690088,4.39488,5.646199999999999,-1.96854,-0.8702980650000001,0.38793846,-0.27014091
1764762734.0690088,4.39488,5.646199999999999,-1.96854,-0.8702980650000001,0.38793846,-0.27014091
1764762734.070021,4.39488,5.646199999999999,-1.96854,-0.8702980650000001,0.38793846,-0.27014091
1764762734.070021,4.39488,5.646199999999999,-1.96854,-0.8702980650000001,0.38793846,-0.27014091
1764762734.070021,4.39488,5.646199999999999,-1.96854,-0.8702980650000001,0.38793846,-0.27014091
1764762734.070021,4.39488,5.646199999999999,-1.96854,-0.8702980650000001,0.38793846,-0.27014091
1764762734.070021,4.39488,5.646199999999999,-1.96854,-0.8702980650000001,0.38793846,-0.27014091
1764762734.070021,4.39488,5.646199999999999,-1.96854,-0.8702980650000001,0.38793846,-0.27014091
1764762734.070021,4.39488,5.646199999999999,-1.96854,-0.8702980650000001,0.38793846,-0.27014091
1764762734.070021,8.42352,7.08064,-0.6714399999999999,-0.87145773,0.38464257,-0.26806572
1764762734.070021,8.42352,7.08064,-0.6714399999999999,-0.87145773,0.38464257,-0.26806572
1764762734.070021,8.42352,7.08064,-0.6714399999999999,-0.87145773,0.38464257,-0.26806572
1764762734.070021,8.42352,7.08064,-0.6714399999999999,-0.87145773,0.38464257,-0.26806572
1764762734.070021,8.42352,7.08064,-0.6714399999999999,-0.87145773,0.38464257,-0.26806572
1764762734.070021,8.42352,7.08064,-0.6714399999999999,-0.87145773,0.38464257,-0.26806572
1764762734.070021,8.42352,7.08064,-0.6714399999999999,-0.87145773,0.38464257,-0.26806572
1764762734.070021,8.42352,7.08064,-0.6714399999999999,-0.87145773,0.38464257,-0.26806572
1764762734.070021,8.42352,7.08064,-0.6714399999999999,-0.87145773,0.38464257,-0.26806572
1764762734.070021,8.42352,7.08064,-0.6714399999999999,-0.87145773,0.38464257,-0.26806572
1764762734.1136477,8.1641,7.52318,0.27468,-0.873349815,0.387877425,-0.271666785
1764762734.1136477,8.1641,7.52318,0.27468,-0.873349815,0.387877425,-0.271666785
1764762734.1136477,8.1641,7.52318,0.27468,-0.873349815,0.387877425,-0.271666785
1764762734.1136477,8.1641,7.52318,0.27468,-0.873349815,0.387877425,-0.271666785
1764762734.1136477,8.1641,7.52318,0.27468,-0.873349815,0.387877425,-0.271666785
1764762734.1136477,8.1641,7.52318,0.27468,-0.873349815,0.387877425,-0.271666785
1764762734.1136477,8.1641,7.52318,0.27468,-0.873349815,0.387877425,-0.271666785
1764762734.1136477,8.1641,7.52318,0.27468,-0.873349815,0.387877425,-0.271666785
1764762734.1141808,8.1641,7.52318,0.27468,-0.873349815,0.387877425,-0.271666785
1764762734.1141808,8.1641,7.52318,0.27468,-0.873349815,0.387877425,-0.271666785
1764762734.1141808,5.997179999999999,8.28618,0.97664,-0.873227745,0.39343161,-0.276671655
1764762734.1141808,5.997179999999999,8.28618,0.97664,-0.873227745,0.39343161,-0.276671655
1764762734.1141808,5.997179999999999,8.28618,0.97664,-0.873227745,0.39343161,-0.276671655
1764762734.1141808,5.997179999999999,8.28618,0.97664,-0.873227745,0.39343161,-0.276671655
1764762734.1141808,5.997179999999999,8.28618,0.97664,-0.873227745,0.39343161,-0.276671655
1764762734.1141808,5.997179999999999,8.28618,0.97664,-0.873227745,0.39343161,-0.276671655
1764762734.1141808,5.997179999999999,8.28618,0.97664,-0.873227745,0.39343161,-0.276671655
1764762734.1141808,5.997179999999999,8.28618,0.97664,-0.873227745,0.39343161,-0.276671655
1764762734.1141808,5.997179999999999,8.28618,0.97664,-0.873227745,0.39343161,-0.276671655
1764762734.1141808,5.997179999999999,8.28618,0.97664,-0.873227745,0.39343161,-0.276671655
1764762734.1141808,3.69292,9.0797,1.86172,-0.873105675,0.396300255,-0.28137135
1764762734.1141808,3.69292,9.0797,1.86172,-0.873105675,0.396300255,-0.28137135
1764762734.160745,3.69292,9.0797,1.86172,-0.873105675,0.396300255,-0.28137135
1764762734.160745,3.69292,9.0797,1.86172,-0.873105675,0.396300255,-0.28137135
1764762734.160745,3.69292,9.0797,1.86172,-0.873105675,0.396300255,-0.28137135
1764762734.160745,3.69292,9.0797,1.86172,-0.873105675,0.396300255,-0.28137135
1764762734.160745,3.69292,9.0797,1.86172,-0.873105675,0.396300255,-0.28137135
1764762734.160745,3.69292,9.0797,1.86172,-0.873105675,0.396300255,-0.28137135
1764762734.160745,3.69292,9.0797,1.86172,-0.873105675,0.396300255,-0.28137135
1764762734.160745,3.69292,9.0797,1.86172,-0.873105675,0.396300255,-0.28137135
1764762734.160745,-1.6022999999999998,7.782599999999999,0.56462,-0.873349815,0.399229935,-0.28588794
1764762734.160745,-1.6022999999999998,7.782599999999999,0.56462,-0.873349815,0.399229935,-0.28588794
1764762734.160745,-1.6022999999999998,7.782599999999999,0.56462,-0.873349815,0.399229935,-0.28588794
1764762734.160745,-1.6022999999999998,7.782599999999999,0.56462,-0.873349815,0.399229935,-0.28588794
1764762734.160745,-1.6022999999999998,7.782599999999999,0.56462,-0.873349815,0.399229935,-0.28588794
1764762734.160745,-1.6022999999999998,7.782599999999999,0.56462,-0.873349815,0.399229935,-0.28588794
1764762734.160745,-1.6022999999999998,7.782599999999999,0.56462,-0.873349815,0.399229935,-0.28588794
1764762734.160745,-1.6022999999999998,7.782599999999999,0.56462,-0.873349815,0.399229935,-0.28588794
1764762734.160745,-1.6022999999999998,7.782599999999999,0.56462,-0.873349815,0.399229935,-0.28588794
1764762734.160745,-1.6022999999999998,7.782599999999999,0.56462,-0.873349815,0.399229935,-0.28588794
1764762734.160745,-5.31048,6.91278,-0.28994,-0.872739465,0.400816845,-0.287902095
1764762734.160745,-5.31048,6.91278,-0.28994,-0.872739465,0.400816845,-0.287902095
1764762734.160745,-5.31048,6.91278,-0.28994,-0.872739465,0.400816845,-0.287902095
1764762734.160745,-5.31048,6.91278,-0.28994,-0.872739465,0.400816845,-0.287902095
1764762734.160745,-5.31048,6.91278,-0.28994,-0.872739465,0.400816845,-0.287902095
1764762734.162274,-5.31048,6.91278,-0.28994,-0.872739465,0.400816845,-0.287902095
1764762734.162274,-5.31048,6.91278,-0.28994,-0.872739465,0.400816845,-0.287902095
1764762734.162274,-5.31048,6.91278,-0.28994,-0.872739465,0.400816845,-0.287902095
1764762734.2098644,-5.31048,6.91278,-0.28994,-0.872739465,0.400816845,-0.287902095
1764762734.2098644,-5.31048,6.91278,-0.28994,-0.872739465,0.400816845,-0.287902095
1764762734.2098644,-8.14884,5.0358,-0.41202,-0.873105675,0.398741655,-0.286559325
1764762734.2098644,-8.14884,5.0358,-0.41202,-0.873105675,0.398741655,-0.286559325
1764762734.2098644,-8.14884,5.0358,-0.41202,-0.873105675,0.398741655,-0.286559325
1764762734.2098644,-8.14884,5.0358,-0.41202,-0.873105675,0.398741655,-0.286559325
1764762734.2098644,-8.14884,5.0358,-0.41202,-0.873105675,0.398741655,-0.286559325
1764762734.2098644,-8.14884,5.0358,-0.41202,-0.873105675,0.398741655,-0.286559325
1764762734.2098644,-8.14884,5.0358,-0.41202,-0.873105675,0.398741655,-0.286559325
1764762734.2098644,-8.14884,5.0358,-0.41202,-0.873105675,0.398741655,-0.286559325
1764762734.2098644,-8.14884,5.0358,-0.41202,-0.873105675,0.398741655,-0.286559325
1764762734.2098644,-8.14884,5.0358,-0.41202,-0.873105675,0.398741655,-0.286559325
1764762734.2098644,-9.0034,4.21176,-0.36624,-0.87255636,0.395201625,-0.28259205
1764762734.2098644,-9.0034,4.21176,-0.36624,-0.87255636,0.395201625,-0.28259205
1764762734.2098644,-9.0034,4.21176,-0.36624,-0.87255636,0.395201625,-0.28259205
1764762734.2098644,-9.0034,4.21176,-0.36624,-0.87255636,0.395201625,-0.28259205
1764762734.2098644,-9.0034,4.21176,-0.36624,-0.87255636,0.395201625,-0.28259205
1764762734.2098644,-9.0034,4.21176,-0.36624,-0.87255636,0.395201625,-0.28259205
1764762734.2098644,-9.0034,4.21176,-0.36624,-0.87255636,0.395201625,-0.28259205
1764762734.2098644,-9.0034,4.21176,-0.36624,-0.87255636,0.395201625,-0.28259205
1764762734.2098644,-9.0034,4.21176,-0.36624,-0.87255636,0.395201625,-0.28259205
1764762734.2098644,-9.0034,4.21176,-0.36624,-0.87255636,0.395201625,-0.28259205
1764762734.2567315,-8.33196,3.25038,-0.8087799999999999,-0.87194601,0.39245505,-0.278502705
1764762734.2567315,-8.33196,3.25038,-0.8087799999999999,-0.87194601,0.39245505,-0.278502705
1764762734.2567315,-8.33196,3.25038,-0.8087799999999999,-0.87194601,0.39245505,-0.278502705
1764762734.2567315,-8.33196,3.25038,-0.8087799999999999,-0.87194601,0.39245505,-0.278502705
1764762734.2567315,-8.33196,3.25038,-0.8087799999999999,-0.87194601,0.39245505,-0.278502705
1764762734.2567315,-8.33196,3.25038,-0.8087799999999999,-0.87194601,0.39245505,-0.278502705
1764762734.2567315,-8.33196,3.25038,-0.8087799999999999,-0.87194601,0.39245505,-0.278502705
1764762734.2567315,-8.33196,3.25038,-0.8087799999999999,-0.87194601,0.39245505,-0.278502705
1764762734.2567315,-8.33196,3.25038,-0.8087799999999999,-0.87194601,0.39245505,-0.278502705
1764762734.2567315,-8.33196,3.25038,-0.8087799999999999,-0.87194601,0.39245505,-0.278502705
1764762734.2567315,-6.59232,2.79258,-1.28184,-0.87121359,0.387145005,-0.274840605
1764762734.2567315,-6.59232,2.79258,-1.28184,-0.87121359,0.387145005,-0.274840605
1764762734.2567315,-6.59232,2.79258,-1.28184,-0.87121359,0.387145005,-0.274840605
1764762734.2567315,-6.59232,2.79258,-1.28184,-0.87121359,0.387145005,-0.274840605
1764762734.2567315,-6.59232,2.79258,-1.28184,-0.87121359,0.387145005,-0.274840605
1764762734.2577453,-6.59232,2.79258,-1.28184,-0.87121359,0.387145005,-0.274840605
1764762734.2577453,-6.59232,2.79258,-1.28184,-0.87121359,0.387145005,-0.274840605
1764762734.2577453,-6.59232,2.79258,-1.28184,-0.87121359,0.387145005,-0.274840605
1764762734.2577453,-6.59232,2.79258,-1.28184,-0.87121359,0.387145005,-0.274840605
1764762734.2577453,-6.59232,2.79258,-1.28184,-0.87121359,0.387145005,-0.274840605
1764762734.2577453,-1.81594,2.31952,0.3815,-0.87511983,0.38305566,-0.271422645
1764762734.2577453,-1.81594,2.31952,0.3815,-0.87511983,0.38305566,-0.271422645
1764762734.2577453,-1.81594,2.31952,0.3815,-0.87511983,0.38305566,-0.271422645
1764762734.2577453,-1.81594,2.31952,0.3815,-0.87511983,0.38305566,-0.271422645
1764762734.2577453,-1.81594,2.31952,0.3815,-0.87511983,0.38305566,-0.271422645
1764762734.2577453,-1.81594,2.31952,0.3815,-0.87511983,0.38305566,-0.271422645
1764762734.3040352,-1.81594,2.31952,0.3815,-0.87511983,0.38305566,-0.271422645
1764762734.3040352,-1.81594,2.31952,0.3815,-0.87511983,0.38305566,-0.271422645
1764762734.3040352,-1.81594,2.31952,0.3815,-0.87511983,0.38305566,-0.271422645
1764762734.3040352,-1.81594,2.31952,0.3815,-0.87511983,0.38305566,-0.271422645
1764762734.3040352,1.64808,0.6103999999999999,0.8087799999999999,-0.876889845,0.38366601,-0.271544715
1764762734.3040352,1.64808,0.6103999999999999,0.8087799999999999,-0.876889845,0.38366601,-0.271544715
1764762734.3040352,1.64808,0.6103999999999999,0.8087799999999999,-0.876889845,0.38366601,-0.271544715
1764762734.3040352,1.64808,0.6103999999999999,0.8087799999999999,-0.876889845,0.38366601,-0.271544715
1764762734.3040352,1.64808,0.6103999999999999,0.8087799999999999,-0.876889845,0.38366601,-0.271544715
1764762734.3040352,1.64808,0.6103999999999999,0.8087799999999999,-0.876889845,0.38366601,-0.271544715
1764762734.3040352,1.64808,0.6103999999999999,0.8087799999999999,-0.876889845,0.38366601,-0.271544715
1764762734.3040352,1.64808,0.6103999999999999,0.8087799999999999,-0.876889845,0.38366601,-0.271544715
1764762734.3040352,1.64808,0.6103999999999999,0.8087799999999999,-0.876889845,0.38366601,-0.271544715
1764762734.3040352,1.64808,0.6103999999999999,0.8087799999999999,-0.876889845,0.38366601,-0.271544715
1764762734.3050492,2.07536,0.9156,1.02242,-0.875669145,0.386900865,-0.27380301
1764762734.3050492,2.07536,0.9156,1.02242,-0.875669145,0.386900865,-0.27380301
1764762734.3050492,2.07536,0.9156,1.02242,-0.875669145,0.386900865,-0.27380301
1764762734.3050492,2.07536,0.9156,1.02242,-0.875669145,0.386900865,-0.27380301
1764762734.3050492,2.07536,0.9156,1.02242,-0.875669145,0.386900865,-0.27380301
1764762734.3050492,2.07536,0.9156,1.02242,-0.875669145,0.386900865,-0.27380301
1764762734.3476074,2.07536,0.9156,1.02242,-0.875669145,0.386900865,-0.27380301
1764762734.3476074,2.07536,0.9156,1.02242,-0.875669145,0.386900865,-0.27380301
1764762734.3476074,2.07536,0.9156,1.02242,-0.875669145,0.386900865,-0.27380301
1764762734.3476074,2.07536,0.9156,1.02242,-0.875669145,0.386900865,-0.27380301
1764762734.3476074,0.8087799999999999,1.09872,0.88508,-0.872495325,0.389098125,-0.275450955
1764762734.3476074,0.8087799999999999,1.09872,0.88508,-0.872495325,0.389098125,-0.275450955
1764762734.3476074,0.8087799999999999,1.09872,0.88508,-0.872495325,0.389098125,-0.275450955
1764762734.3476074,0.8087799999999999,1.09872,0.88508,-0.872495325,0.389098125,-0.275450955
1764762734.3476074,0.8087799999999999,1.09872,0.88508,-0.872495325,0.389098125,-0.275450955
1764762734.3476074,0.8087799999999999,1.09872,0.88508,-0.872495325,0.389098125,-0.275450955
1764762734.3476074,0.8087799999999999,1.09872,0.88508,-0.872495325,0.389098125,-0.275450955
1764762734.3476074,0.8087799999999999,1.09872,0.88508,-0.872495325,0.389098125,-0.275450955
1764762734.394356,0.8087799999999999,1.09872,0.88508,-0.872495325,0.389098125,-0.275450955
1764762734.394356,0.8087799999999999,1.09872,0.88508,-0.872495325,0.389098125,-0.275450955
1764762734.394356,0.21364,2.68576,-0.27468,-0.86779563,0.389464335,-0.275450955
1764762734.394356,0.21364,2.68576,-0.27468,-0.86779563,0.389464335,-0.275450955
1764762734.394356,0.21364,2.68576,-0.27468,-0.86779563,0.389464335,-0.275450955
1764762734.394356,0.21364,2.68576,-0.27468,-0.86779563,0.389464335,-0.275450955
1764762734.3948913,0.21364,2.68576,-0.27468,-0.86779563,0.389464335,-0.275450955
1764762734.3948913,0.21364,2.68576,-0.27468,-0.86779563,0.389464335,-0.275450955
1764762734.3948913,0.21364,2.68576,-0.27468,-0.86779563,0.389464335,-0.275450955
1764762734.3948913,0.21364,2.68576,-0.27468,-0.86779563,0.389464335,-0.275450955
1764762734.3948913,0.21364,2.68576,-0.27468,-0.86779563,0.389464335,-0.275450955
1764762734.3948913,0.21364,2.68576,-0.27468,-0.86779563,0.389464335,-0.275450955
1764762734.3948913,1.08346,2.83836,-0.44254,-0.867490455,0.391051245,-0.27429129
1764762734.3948913,1.08346,2.83836,-0.44254,-0.867490455,0.391051245,-0.27429129
1764762734.3948913,1.08346,2.83836,-0.44254,-0.867490455,0.391051245,-0.27429129
1764762734.3948913,1.08346,2.83836,-0.44254,-0.867490455,0.391051245,-0.27429129
1764762734.3948913,1.08346,2.83836,-0.44254,-0.867490455,0.391051245,-0.27429129
1764762734.3948913,1.08346,2.83836,-0.44254,-0.867490455,0.391051245,-0.27429129
1764762734.3948913,1.08346,2.83836,-0.44254,-0.867490455,0.391051245,-0.27429129
1764762734.3948913,1.08346,2.83836,-0.44254,-0.867490455,0.391051245,-0.27429129
1764762734.3948913,1.08346,2.83836,-0.44254,-0.867490455,0.391051245,-0.27429129
1764762734.3948913,1.08346,2.83836,-0.44254,-0.867490455,0.391051245,-0.27429129
1764762734.3948913,-0.71722,4.54748,-0.3204599999999999,-0.86962668,0.392882295,-0.27880788
1764762734.3948913,-0.71722,4.54748,-0.3204599999999999,-0.86962668,0.392882295,-0.27880788
1764762734.3948913,-0.71722,4.54748,-0.3204599999999999,-0.86962668,0.392882295,-0.27880788
1764762734.3948913,-0.71722,4.54748,-0.3204599999999999,-0.86962668,0.392882295,-0.27880788
1764762734.3948913,-0.71722,4.54748,-0.3204599999999999,-0.86962668,0.392882295,-0.27880788
1764762734.3948913,-0.71722,4.54748,-0.3204599999999999,-0.86962668,0.392882295,-0.27880788
1764762734.3948913,-0.71722,4.54748,-0.3204599999999999,-0.86962668,0.392882295,-0.27880788
1764762734.3948913,-0.71722,4.54748,-0.3204599999999999,-0.86962668,0.392882295,-0.27880788
1764762734.3948913,-0.71722,4.54748,-0.3204599999999999,-0.86962668,0.392882295,-0.27880788
1764762734.3948913,-0.71722,4.54748,-0.3204599999999999,-0.86962668,0.392882295,-0.27880788
1764762734.3948913,-2.2127,3.32668,0.8698199999999999,-0.876035355,0.39416403,-0.28137135
1764762734.3948913,-2.2127,3.32668,0.8698199999999999,-0.876035355,0.39416403,-0.28137135
1764762734.3948913,-2.2127,3.32668,0.8698199999999999,-0.876035355,0.39416403,-0.28137135
1764762734.3948913,-2.2127,3.32668,0.8698199999999999,-0.876035355,0.39416403,-0.28137135
1764762734.4412396,-2.2127,3.32668,0.8698199999999999,-0.876035355,0.39416403,-0.28137135
1764762734.4412396,-2.2127,3.32668,0.8698199999999999,-0.876035355,0.39416403,-0.28137135
1764762734.4412396,-2.2127,3.32668,0.8698199999999999,-0.876035355,0.39416403,-0.28137135
1764762734.4412396,-2.2127,3.32668,0.8698199999999999,-0.876035355,0.39416403,-0.28137135
1764762734.4412396,-2.2127,3.32668,0.8698199999999999,-0.876035355,0.39416403,-0.28137135
1764762734.4412396,-2.2127,3.32668,0.8698199999999999,-0.876035355,0.39416403,-0.28137135
1764762734.4412396,-3.18934,2.48738,1.6633399999999998,-0.87841572,0.3942861,-0.28222584
1764762734.4412396,-3.18934,2.48738,1.6633399999999998,-0.87841572,0.3942861,-0.28222584
1764762734.4417646,-3.18934,2.48738,1.6633399999999998,-0.87841572,0.3942861,-0.28222584
1764762734.4417646,-3.18934,2.48738,1.6633399999999998,-0.87841572,0.3942861,-0.28222584
1764762734.4417646,-3.18934,2.48738,1.6633399999999998,-0.87841572,0.3942861,-0.28222584
1764762734.4417646,-3.18934,2.48738,1.6633399999999998,-0.87841572,0.3942861,-0.28222584
1764762734.4428058,-3.18934,2.48738,1.6633399999999998,-0.87841572,0.3942861,-0.28222584
1764762734.4428058,-3.18934,2.48738,1.6633399999999998,-0.87841572,0.3942861,-0.28222584
1764762734.4428058,-3.18934,2.48738,1.6633399999999998,-0.87841572,0.3942861,-0.28222584
1764762734.4428058,-3.18934,2.48738,1.6633399999999998,-0.87841572,0.3942861,-0.28222584
1764762734.4428058,-2.8994,2.47212,0.88508,-0.87438741,0.39233298,-0.27929616
1764762734.4428058,-2.8994,2.47212,0.88508,-0.87438741,0.39233298,-0.27929616
1764762734.4428058,-2.8994,2.47212,0.88508,-0.87438741,0.39233298,-0.27929616
1764762734.4428058,-2.8994,2.47212,0.88508,-0.87438741,0.39233298,-0.27929616
1764762734.4428058,-2.8994,2.47212,0.88508,-0.87438741,0.39233298,-0.27929616
1764762734.4428058,-2.8994,2.47212,0.88508,-0.87438741,0.39233298,-0.27929616
1764762734.4442997,-2.8994,2.47212,0.88508,-0.87438741,0.39233298,-0.27929616
1764762734.4442997,-2.8994,2.47212,0.88508,-0.87438741,0.39233298,-0.27929616
1764762734.489884,-2.8994,2.47212,0.88508,-0.87438741,0.39233298,-0.27929616
1764762734.489884,-2.8994,2.47212,0.88508,-0.87438741,0.39233298,-0.27929616
1764762734.489884,-3.32668,3.70818,0.88508,-0.8713356600000001,0.390624,-0.278990985
1764762734.489884,-3.32668,3.70818,0.88508,-0.8713356600000001,0.390624,-0.278990985
1764762734.489884,-3.32668,3.70818,0.88508,-0.8713356600000001,0.390624,-0.278990985
1764762734.489884,-3.32668,3.70818,0.88508,-0.8713356600000001,0.390624,-0.278990985
1764762734.489884,-3.32668,3.70818,0.88508,-0.8713356600000001,0.390624,-0.278990985
1764762734.489884,-3.32668,3.70818,0.88508,-0.8713356600000001,0.390624,-0.278990985
1764762734.489884,-3.32668,3.70818,0.88508,-0.8713356600000001,0.390624,-0.278990985
1764762734.489884,-3.32668,3.70818,0.88508,-0.8713356600000001,0.390624,-0.278990985
1764762734.489884,-3.32668,3.70818,0.88508,-0.8713356600000001,0.390624,-0.278990985
1764762734.489884,-3.32668,3.70818,0.88508,-0.8713356600000001,0.390624,-0.278990985
1764762734.489884,-3.5861,3.7387,1.43444,-0.87267843,0.389708475,-0.27758718
1764762734.489884,-3.5861,3.7387,1.43444,-0.87267843,0.389708475,-0.27758718
1764762734.489884,-3.5861,3.7387,1.43444,-0.87267843,0.389708475,-0.27758718
1764762734.489884,-3.5861,3.7387,1.43444,-0.87267843,0.389708475,-0.27758718
1764762734.489884,-3.5861,3.7387,1.43444,-0.87267843,0.389708475,-0.27758718
1764762734.489884,-3.5861,3.7387,1.43444,-0.87267843,0.389708475,-0.27758718
1764762734.489884,-3.5861,3.7387,1.43444,-0.87267843,0.389708475,-0.27758718
1764762734.4908986,-3.5861,3.7387,1.43444,-0.87267843,0.389708475,-0.27758718
1764762734.4908986,-3.5861,3.7387,1.43444,-0.87267843,0.389708475,-0.27758718
1764762734.4908986,-3.5861,3.7387,1.43444,-0.87267843,0.389708475,-0.27758718
1764762734.5339477,-4.4254,3.67766,1.2055399999999998,-0.873349815,0.39099021,-0.27624441
1764762734.5339477,-4.4254,3.67766,1.2055399999999998,-0.873349815,0.39099021,-0.27624441
1764762734.5339477,-4.4254,3.67766,1.2055399999999998,-0.873349815,0.39099021,-0.27624441
1764762734.5339477,-4.4254,3.67766,1.2055399999999998,-0.873349815,0.39099021,-0.27624441
1764762734.5339477,-4.4254,3.67766,1.2055399999999998,-0.873349815,0.39099021,-0.27624441
1764762734.5339477,-4.4254,3.67766,1.2055399999999998,-0.873349815,0.39099021,-0.27624441
1764762734.5339477,-4.4254,3.67766,1.2055399999999998,-0.873349815,0.39099021,-0.27624441
1764762734.5339477,-4.4254,3.67766,1.2055399999999998,-0.873349815,0.39099021,-0.27624441
1764762734.5339477,-4.4254,3.67766,1.2055399999999998,-0.873349815,0.39099021,-0.27624441
1764762734.5339477,-4.4254,3.67766,1.2055399999999998,-0.873349815,0.39099021,-0.27624441
1764762734.5339477,-3.11304,3.2046,0.50358,-0.87267843,0.39135642,-0.27600027
1764762734.5339477,-3.11304,3.2046,0.50358,-0.87267843,0.39135642,-0.27600027
1764762734.5339477,-3.11304,3.2046,0.50358,-0.87267843,0.39135642,-0.27600027
1764762734.5339477,-3.11304,3.2046,0.50358,-0.87267843,0.39135642,-0.27600027
1764762734.5339477,-3.11304,3.2046,0.50358,-0.87267843,0.39135642,-0.27600027
1764762734.5339477,-3.11304,3.2046,0.50358,-0.87267843,0.39135642,-0.27600027
