Timestamp,GyroX,GyroY,GyroZ,AccX,AccY,AccZ
1764763901.4995475,0.8698199999999999,3.29616,0.82404,-0.88879167,0.33874425,-0.29601975
1764763901.4995475,1.31236,3.38772,0.62566,-0.887143725,0.33764562,-0.295714575
1764763901.4995475,1.31236,3.38772,0.62566,-0.887143725,0.33764562,-0.295714575
1764763901.4995475,1.31236,3.38772,0.62566,-0.887143725,0.33764562,-0.295714575
1764763901.4995475,1.31236,3.38772,0.62566,-0.887143725,0.33764562,-0.295714575
1764763901.4995475,1.31236,3.38772,0.62566,-0.887143725,0.33764562,-0.295714575
1764763901.4995475,1.31236,3.38772,0.62566,-0.887143725,0.33764562,-0.295714575
1764763901.4995475,1.31236,3.38772,0.62566,-0.887143725,0.33764562,-0.295714575
1764763901.4995475,1.31236,3.38772,0.62566,-0.887143725,0.33764562,-0.295714575
1764763901.4995475,1.31236,3.38772,0.62566,-0.887143725,0.33764562,-0.295714575
1764763901.4995475,1.31236,3.38772,0.62566,-0.887143725,0.33764562,-0.295714575
1764763901.4995475,0.9919,4.01338,1.00716,-0.888242355,0.337218375,-0.296324925
1764763901.4995475,0.9919,4.01338,1.00716,-0.888242355,0.337218375,-0.296324925
1764763901.4995475,0.9919,4.01338,1.00716,-0.888242355,0.337218375,-0.296324925
1764763901.4995475,0.9919,4.01338,1.00716,-0.888242355,0.337218375,-0.296324925
1764763901.4995475,0.9919,4.01338,1.00716,-0.888242355,0.337218375,-0.296324925
1764763901.4995475,0.9919,4.01338,1.00716,-0.888242355,0.337218375,-0.296324925
1764763901.4995475,0.9919,4.01338,1.00716,-0.888242355,0.337218375,-0.296324925
1764763901.4995475,0.9919,4.01338,1.00716,-0.888242355,0.337218375,-0.296324925
1764763901.5449138,0.9919,4.01338,1.00716,-0.888242355,0.337218375,-0.296324925
1764763901.5449138,0.9919,4.01338,1.00716,-0.888242355,0.337218375,-0.296324925
1764763901.5449138,0.36624,4.31858,1.96854,-0.88927995,0.337584585,-0.297057345
1764763901.5449138,0.36624,4.31858,1.96854,-0.88927995,0.337584585,-0.297057345
1764763901.5449138,0.36624,4.31858,1.96854,-0.88927995,0.337584585,-0.297057345
1764763901.5449138,0.36624,4.31858,1.96854,-0.88927995,0.337584585,-0.297057345
1764763901.5449138,0.36624,4.31858,1.96854,-0.88927995,0.337584585,-0.297057345
1764763901.5449138,0.36624,4.31858,1.96854,-0.88927995,0.337584585,-0.297057345
1764763901.5449138,0.36624,4.31858,1.96854,-0.88927995,0.337584585,-0.297057345
1764763901.5449138,0.36624,4.31858,1.96854,-0.88927995,0.337584585,-0.297057345
1764763901.5449138,0.36624,4.31858,1.96854,-0.88927995,0.337584585,-0.297057345
1764763901.5449138,0.36624,4.31858,1.96854,-0.88927995,0.337584585,-0.297057345
1764763901.5449138,1.11398,4.59326,1.86172,-0.888974775,0.33801183,-0.29650803
1764763901.5449138,1.11398,4.59326,1.86172,-0.888974775,0.33801183,-0.29650803
1764763901.545925,1.11398,4.59326,1.86172,-0.888974775,0.33801183,-0.29650803
1764763901.545925,1.11398,4.59326,1.86172,-0.888974775,0.33801183,-0.29650803
1764763901.545925,1.11398,4.59326,1.86172,-0.888974775,0.33801183,-0.29650803
1764763901.545925,1.11398,4.59326,1.86172,-0.888974775,0.33801183,-0.29650803
1764763901.545925,1.11398,4.59326,1.86172,-0.888974775,0.33801183,-0.29650803
1764763901.545925,1.11398,4.59326,1.86172,-0.888974775,0.33801183,-0.29650803
1764763901.545925,1.11398,4.59326,1.86172,-0.888974775,0.33801183,-0.29650803
1764763901.545925,1.11398,4.59326,1.86172,-0.888974775,0.33801183,-0.29650803
1764763901.5922072,1.99906,5.05106,1.09872,-0.887754075,0.3381339,-0.29724045
1764763901.5922072,1.99906,5.05106,1.09872,-0.887754075,0.3381339,-0.29724045
1764763901.5922072,1.99906,5.05106,1.09872,-0.887754075,0.3381339,-0.29724045
1764763901.5922072,1.99906,5.05106,1.09872,-0.887754075,0.3381339,-0.29724045
1764763901.5922072,1.99906,5.05106,1.09872,-0.887754075,0.3381339,-0.29724045
1764763901.5922072,1.99906,5.05106,1.09872,-0.887754075,0.3381339,-0.29724045
1764763901.5922072,1.99906,5.05106,1.09872,-0.887754075,0.3381339,-0.29724045
1764763901.5922072,1.99906,5.05106,1.09872,-0.887754075,0.3381339,-0.29724045
1764763901.5922072,1.99906,5.05106,1.09872,-0.887754075,0.3381339,-0.29724045
1764763901.5922072,1.99906,5.05106,1.09872,-0.887754075,0.3381339,-0.29724045
1764763901.5922072,1.6633399999999998,4.22702,1.15976,-0.88805925,0.33788976,-0.298033905
1764763901.5922072,1.6633399999999998,4.22702,1.15976,-0.88805925,0.33788976,-0.298033905
1764763901.5922072,1.6633399999999998,4.22702,1.15976,-0.88805925,0.33788976,-0.298033905
1764763901.5922072,1.6633399999999998,4.22702,1.15976,-0.88805925,0.33788976,-0.298033905
1764763901.5922072,1.6633399999999998,4.22702,1.15976,-0.88805925,0.33788976,-0.298033905
1764763901.5922072,1.6633399999999998,4.22702,1.15976,-0.88805925,0.33788976,-0.298033905
1764763901.5922072,1.6633399999999998,4.22702,1.15976,-0.88805925,0.33788976,-0.298033905
1764763901.5922072,1.6633399999999998,4.22702,1.15976,-0.88805925,0.33788976,-0.298033905
1764763901.5922072,1.6633399999999998,4.22702,1.15976,-0.88805925,0.33788976,-0.298033905
1764763901.5922072,1.6633399999999998,4.22702,1.15976,-0.88805925,0.33788976,-0.298033905
1764763901.5922072,-0.27468,3.98286,1.70912,-0.889218915,0.338927355,-0.299620815
1764763901.5922072,-0.27468,3.98286,1.70912,-0.889218915,0.338927355,-0.299620815
1764763901.5922072,-0.27468,3.98286,1.70912,-0.889218915,0.338927355,-0.299620815
1764763901.5922072,-0.27468,3.98286,1.70912,-0.889218915,0.338927355,-0.299620815
1764763901.5922072,-0.27468,3.98286,1.70912,-0.889218915,0.338927355,-0.299620815
1764763901.5922072,-0.27468,3.98286,1.70912,-0.889218915,0.338927355,-0.299620815
1764763901.6400635,-0.27468,3.98286,1.70912,-0.889218915,0.338927355,-0.299620815
1764763901.6400635,-0.27468,3.98286,1.70912,-0.889218915,0.338927355,-0.299620815
1764763901.6400635,-0.27468,3.98286,1.70912,-0.889218915,0.338927355,-0.299620815
1764763901.6400635,-0.27468,3.98286,1.70912,-0.889218915,0.338927355,-0.299620815
1764763901.6400635,-2.04484,3.06726,1.09872,-0.887998215,0.340392195,-0.30163497
1764763901.6400635,-2.04484,3.06726,1.09872,-0.887998215,0.340392195,-0.30163497
1764763901.6400635,-2.04484,3.06726,1.09872,-0.887998215,0.340392195,-0.30163497
1764763901.6400635,-2.04484,3.06726,1.09872,-0.887998215,0.340392195,-0.30163497
1764763901.6400635,-2.04484,3.06726,1.09872,-0.887998215,0.340392195,-0.30163497
1764763901.6400635,-2.04484,3.06726,1.09872,-0.887998215,0.340392195,-0.30163497
1764763901.6400635,-2.04484,3.06726,1.09872,-0.887998215,0.340392195,-0.30163497
1764763901.6400635,-2.04484,3.06726,1.09872,-0.887998215,0.340392195,-0.30163497
1764763901.6400635,-2.04484,3.06726,1.09872,-0.887998215,0.340392195,-0.30163497
1764763901.6400635,-2.04484,3.06726,1.09872,-0.887998215,0.340392195,-0.30163497
1764763901.6400635,-3.34194,2.7468,0.54936,-0.887998215,0.340880475,-0.301573935
1764763901.6400635,-3.34194,2.7468,0.54936,-0.887998215,0.340880475,-0.301573935
1764763901.6400635,-3.34194,2.7468,0.54936,-0.887998215,0.340880475,-0.301573935
1764763901.6400635,-3.34194,2.7468,0.54936,-0.887998215,0.340880475,-0.301573935
1764763901.6400635,-3.34194,2.7468,0.54936,-0.887998215,0.340880475,-0.301573935
1764763901.6400635,-3.34194,2.7468,0.54936,-0.887998215,0.340880475,-0.301573935
1764763901.6400635,-3.34194,2.7468,0.54936,-0.887998215,0.340880475,-0.301573935
1764763901.6400635,-3.34194,2.7468,0.54936,-0.887998215,0.340880475,-0.301573935
1764763901.6400635,-3.34194,2.7468,0.54936,-0.887998215,0.340880475,-0.301573935
1764763901.6400635,-3.34194,2.7468,0.54936,-0.887998215,0.340880475,-0.301573935
1764763901.6867146,-3.76922,3.17408,0.44254,-0.88805925,0.33972081,-0.3002922
1764763901.6867146,-3.76922,3.17408,0.44254,-0.88805925,0.33972081,-0.3002922
1764763901.6867146,-3.76922,3.17408,0.44254,-0.88805925,0.33972081,-0.3002922
1764763901.6867146,-3.76922,3.17408,0.44254,-0.88805925,0.33972081,-0.3002922
1764763901.6867146,-3.76922,3.17408,0.44254,-0.88805925,0.33972081,-0.3002922
1764763901.6867146,-3.76922,3.17408,0.44254,-0.88805925,0.33972081,-0.3002922
1764763901.6867146,-3.76922,3.17408,0.44254,-0.88805925,0.33972081,-0.3002922
1764763901.6867146,-3.76922,3.17408,0.44254,-0.88805925,0.33972081,-0.3002922
1764763901.6867146,-3.76922,3.17408,0.44254,-0.88805925,0.33972081,-0.3002922
1764763901.6867146,-3.76922,3.17408,0.44254,-0.88805925,0.33972081,-0.3002922
1764763901.6867146,-2.79258,2.88414,-0.01526,-0.88793718,0.33837804,-0.29724045
1764763901.6872382,-2.79258,2.88414,-0.01526,-0.88793718,0.33837804,-0.29724045
1764763901.6872382,-2.79258,2.88414,-0.01526,-0.88793718,0.33837804,-0.29724045
1764763901.6872382,-2.79258,2.88414,-0.01526,-0.88793718,0.33837804,-0.29724045
1764763901.6872382,-2.79258,2.88414,-0.01526,-0.88793718,0.33837804,-0.29724045
1764763901.6872382,-2.79258,2.88414,-0.01526,-0.88793718,0.33837804,-0.29724045
1764763901.6872382,-2.79258,2.88414,-0.01526,-0.88793718,0.33837804,-0.29724045
1764763901.6872382,-2.79258,2.88414,-0.01526,-0.88793718,0.33837804,-0.29724045
1764763901.6872382,-2.79258,2.88414,-0.01526,-0.88793718,0.33837804,-0.29724045
1764763901.6872382,-2.79258,2.88414,-0.01526,-0.88793718,0.33837804,-0.29724045
1764763901.6872382,-1.43444,3.31142,-0.09156,-0.888730635,0.33764562,-0.29504319
1764763901.6872382,-1.43444,3.31142,-0.09156,-0.888730635,0.33764562,-0.29504319
1764763901.733279,-1.43444,3.31142,-0.09156,-0.888730635,0.33764562,-0.29504319
1764763901.733279,-1.43444,3.31142,-0.09156,-0.888730635,0.33764562,-0.29504319
1764763901.7343,-1.43444,3.31142,-0.09156,-0.888730635,0.33764562,-0.29504319
1764763901.7343,-1.43444,3.31142,-0.09156,-0.888730635,0.33764562,-0.29504319
1764763901.7343,-1.43444,3.31142,-0.09156,-0.888730635,0.33764562,-0.29504319
1764763901.734893,-1.43444,3.31142,-0.09156,-0.888730635,0.33764562,-0.29504319
1764763901.734893,-1.43444,3.31142,-0.09156,-0.888730635,0.33764562,-0.29504319
1764763901.734893,-1.43444,3.31142,-0.09156,-0.888730635,0.33764562,-0.29504319
1764763901.734893,-0.47306,3.44876,-0.0762999999999999,-0.88769304,0.336485955,-0.29492112
1764763901.734893,-0.47306,3.44876,-0.0762999999999999,-0.88769304,0.336485955,-0.29492112
1764763901.734893,-0.47306,3.44876,-0.0762999999999999,-0.88769304,0.336485955,-0.29492112
1764763901.734893,-0.47306,3.44876,-0.0762999999999999,-0.88769304,0.336485955,-0.29492112
1764763901.734893,-0.47306,3.44876,-0.0762999999999999,-0.88769304,0.336485955,-0.29492112
1764763901.734893,-0.47306,3.44876,-0.0762999999999999,-0.88769304,0.336485955,-0.29492112
1764763901.734893,-0.47306,3.44876,-0.0762999999999999,-0.88769304,0.336485955,-0.29492112
1764763901.734893,-0.47306,3.44876,-0.0762999999999999,-0.88769304,0.336485955,-0.29492112
1764763901.734893,-0.47306,3.44876,-0.0762999999999999,-0.88769304,0.336485955,-0.29492112
1764763901.734893,-0.47306,3.44876,-0.0762999999999999,-0.88769304,0.336485955,-0.29492112
1764763901.734893,-0.54936,3.37246,0.73248,-0.888486495,0.336363885,-0.296324925
1764763901.734893,-0.54936,3.37246,0.73248,-0.888486495,0.336363885,-0.296324925
1764763901.734893,-0.54936,3.37246,0.73248,-0.888486495,0.336363885,-0.296324925
1764763901.734893,-0.54936,3.37246,0.73248,-0.888486495,0.336363885,-0.296324925
1764763901.778588,-0.54936,3.37246,0.73248,-0.888486495,0.336363885,-0.296324925
1764763901.778588,-0.54936,3.37246,0.73248,-0.888486495,0.336363885,-0.296324925
1764763901.778588,-0.54936,3.37246,0.73248,-0.888486495,0.336363885,-0.296324925
1764763901.778588,-0.54936,3.37246,0.73248,-0.888486495,0.336363885,-0.296324925
1764763901.778588,-0.54936,3.37246,0.73248,-0.888486495,0.336363885,-0.296324925
1764763901.778588,-0.54936,3.37246,0.73248,-0.888486495,0.336363885,-0.296324925
1764763901.778588,-1.12924,3.11304,1.00716,-0.888730635,0.3369132,-0.296935275
1764763901.778588,-1.12924,3.11304,1.00716,-0.888730635,0.3369132,-0.296935275
1764763901.778588,-1.12924,3.11304,1.00716,-0.888730635,0.3369132,-0.296935275
1764763901.778588,-1.12924,3.11304,1.00716,-0.888730635,0.3369132,-0.296935275
1764763901.778588,-1.12924,3.11304,1.00716,-0.888730635,0.3369132,-0.296935275
1764763901.779616,-1.12924,3.11304,1.00716,-0.888730635,0.3369132,-0.296935275
1764763901.779616,-1.12924,3.11304,1.00716,-0.888730635,0.3369132,-0.296935275
1764763901.779616,-1.12924,3.11304,1.00716,-0.888730635,0.3369132,-0.296935275
1764763901.779616,-1.12924,3.11304,1.00716,-0.888730635,0.3369132,-0.296935275
1764763901.779616,-1.12924,3.11304,1.00716,-0.888730635,0.3369132,-0.296935275
1764763901.7801363,-1.15976,3.37246,0.5341,-0.88927995,0.33886632,-0.29736252
1764763901.7801363,-1.15976,3.37246,0.5341,-0.88927995,0.33886632,-0.29736252
1764763901.7801363,-1.15976,3.37246,0.5341,-0.88927995,0.33886632,-0.29736252
1764763901.7801363,-1.15976,3.37246,0.5341,-0.88927995,0.33886632,-0.29736252
1764763901.7801363,-1.15976,3.37246,0.5341,-0.88927995,0.33886632,-0.29736252
1764763901.7801363,-1.15976,3.37246,0.5341,-0.88927995,0.33886632,-0.29736252
1764763901.7801363,-1.15976,3.37246,0.5341,-0.88927995,0.33886632,-0.29736252
1764763901.7801363,-1.15976,3.37246,0.5341,-0.88927995,0.33886632,-0.29736252
1764763901.8266935,-1.15976,3.37246,0.5341,-0.88927995,0.33886632,-0.29736252
1764763901.8266935,-1.15976,3.37246,0.5341,-0.88927995,0.33886632,-0.29736252
1764763901.8266935,-0.6409199999999999,3.49454,0.28994,-0.8881202850000001,0.33850011,-0.2966301
1764763901.8266935,-0.6409199999999999,3.49454,0.28994,-0.8881202850000001,0.33850011,-0.2966301
1764763901.8266935,-0.6409199999999999,3.49454,0.28994,-0.8881202850000001,0.33850011,-0.2966301
1764763901.8266935,-0.6409199999999999,3.49454,0.28994,-0.8881202850000001,0.33850011,-0.2966301
1764763901.8266935,-0.6409199999999999,3.49454,0.28994,-0.8881202850000001,0.33850011,-0.2966301
1764763901.8266935,-0.6409199999999999,3.49454,0.28994,-0.8881202850000001,0.33850011,-0.2966301
1764763901.8266935,-0.6409199999999999,3.49454,0.28994,-0.8881202850000001,0.33850011,-0.2966301
1764763901.8266935,-0.6409199999999999,3.49454,0.28994,-0.8881202850000001,0.33850011,-0.2966301
1764763901.8266935,-0.6409199999999999,3.49454,0.28994,-0.8881202850000001,0.33850011,-0.2966301
1764763901.8266935,-0.6409199999999999,3.49454,0.28994,-0.8881202850000001,0.33850011,-0.2966301
1764763901.8266935,-0.56462,3.72344,0.7019599999999999,-0.888608565,0.33776769,-0.29699631
1764763901.8266935,-0.56462,3.72344,0.7019599999999999,-0.888608565,0.33776769,-0.29699631
1764763901.8266935,-0.56462,3.72344,0.7019599999999999,-0.888608565,0.33776769,-0.29699631
1764763901.8266935,-0.56462,3.72344,0.7019599999999999,-0.888608565,0.33776769,-0.29699631
1764763901.8266935,-0.56462,3.72344,0.7019599999999999,-0.888608565,0.33776769,-0.29699631
1764763901.8266935,-0.56462,3.72344,0.7019599999999999,-0.888608565,0.33776769,-0.29699631
1764763901.8266935,-0.56462,3.72344,0.7019599999999999,-0.888608565,0.33776769,-0.29699631
1764763901.8279655,-0.56462,3.72344,0.7019599999999999,-0.888608565,0.33776769,-0.29699631
1764763901.8279655,-0.56462,3.72344,0.7019599999999999,-0.888608565,0.33776769,-0.29699631
1764763901.8279655,-0.56462,3.72344,0.7019599999999999,-0.888608565,0.33776769,-0.29699631
1764763901.8279655,-0.71722,3.52506,1.35814,-0.88854753,0.33788976,-0.29724045
1764763901.8279655,-0.71722,3.52506,1.35814,-0.88854753,0.33788976,-0.29724045
1764763901.8750844,-0.71722,3.52506,1.35814,-0.88854753,0.33788976,-0.29724045
1764763901.8750844,-0.71722,3.52506,1.35814,-0.88854753,0.33788976,-0.29724045
1764763901.8750844,-0.71722,3.52506,1.35814,-0.88854753,0.33788976,-0.29724045
1764763901.8750844,-0.71722,3.52506,1.35814,-0.88854753,0.33788976,-0.29724045
1764763901.8750844,-0.71722,3.52506,1.35814,-0.88854753,0.33788976,-0.29724045
1764763901.8750844,-0.71722,3.52506,1.35814,-0.88854753,0.33788976,-0.29724045
1764763901.8750844,-0.71722,3.52506,1.35814,-0.88854753,0.33788976,-0.29724045
1764763901.8750844,-0.71722,3.52506,1.35814,-0.88854753,0.33788976,-0.29724045
1764763901.8750844,-0.62566,3.98286,0.74774,-0.888364425,0.337950795,-0.296691135
1764763901.8750844,-0.62566,3.98286,0.74774,-0.888364425,0.337950795,-0.296691135
1764763901.8750844,-0.62566,3.98286,0.74774,-0.888364425,0.337950795,-0.296691135
1764763901.8750844,-0.62566,3.98286,0.74774,-0.888364425,0.337950795,-0.296691135
1764763901.8750844,-0.62566,3.98286,0.74774,-0.888364425,0.337950795,-0.296691135
1764763901.8750844,-0.62566,3.98286,0.74774,-0.888364425,0.337950795,-0.296691135
1764763901.8750844,-0.62566,3.98286,0.74774,-0.888364425,0.337950795,-0.296691135
1764763901.8750844,-0.62566,3.98286,0.74774,-0.888364425,0.337950795,-0.296691135
1764763901.8750844,-0.62566,3.98286,0.74774,-0.888364425,0.337950795,-0.296691135
1764763901.8750844,-0.62566,3.98286,0.74774,-0.888364425,0.337950795,-0.296691135
1764763901.8750844,-0.36624,3.5861,0.50358,-0.887509935,0.33837804,-0.29724045
1764763901.8750844,-0.36624,3.5861,0.50358,-0.887509935,0.33837804,-0.29724045
1764763901.8750844,-0.36624,3.5861,0.50358,-0.887509935,0.33837804,-0.29724045
1764763901.8750844,-0.36624,3.5861,0.50358,-0.887509935,0.33837804,-0.29724045
1764763901.8750844,-0.36624,3.5861,0.50358,-0.887509935,0.33837804,-0.29724045
1764763901.8750844,-0.36624,3.5861,0.50358,-0.887509935,0.33837804,-0.29724045
1764763901.9186308,-0.36624,3.5861,0.50358,-0.887509935,0.33837804,-0.29724045
1764763901.9186308,-0.36624,3.5861,0.50358,-0.887509935,0.33837804,-0.29724045
1764763901.9186308,-0.36624,3.5861,0.50358,-0.887509935,0.33837804,-0.29724045
1764763901.9186308,-0.36624,3.5861,0.50358,-0.887509935,0.33837804,-0.29724045
1764763901.9186308,-0.50358,3.78448,0.48832,-0.88769304,0.3393546,-0.29699631
1764763901.9186308,-0.50358,3.78448,0.48832,-0.88769304,0.3393546,-0.29699631
1764763901.9186308,-0.50358,3.78448,0.48832,-0.88769304,0.3393546,-0.29699631
1764763901.9186308,-0.50358,3.78448,0.48832,-0.88769304,0.3393546,-0.29699631
1764763901.9186308,-0.50358,3.78448,0.48832,-0.88769304,0.3393546,-0.29699631
1764763901.9186308,-0.50358,3.78448,0.48832,-0.88769304,0.3393546,-0.29699631
1764763901.9186308,-0.50358,3.78448,0.48832,-0.88769304,0.3393546,-0.29699631
1764763901.9186308,-0.50358,3.78448,0.48832,-0.88769304,0.3393546,-0.29699631
1764763901.9186308,-0.50358,3.78448,0.48832,-0.88769304,0.3393546,-0.29699631
1764763901.9186308,-0.50358,3.78448,0.48832,-0.88769304,0.3393546,-0.29699631
1764763901.9186308,-1.1445,4.059159999999999,0.85456,-0.88891374,0.339415635,-0.296691135
1764763901.9186308,-1.1445,4.059159999999999,0.85456,-0.88891374,0.339415635,-0.296691135
1764763901.9186308,-1.1445,4.059159999999999,0.85456,-0.88891374,0.339415635,-0.296691135
1764763901.9186308,-1.1445,4.059159999999999,0.85456,-0.88891374,0.339415635,-0.296691135
1764763901.9186308,-1.1445,4.059159999999999,0.85456,-0.88891374,0.339415635,-0.296691135
1764763901.9186308,-1.1445,4.059159999999999,0.85456,-0.88891374,0.339415635,-0.296691135
1764763901.9196503,-1.1445,4.059159999999999,0.85456,-0.88891374,0.339415635,-0.296691135
1764763901.9196503,-1.1445,4.059159999999999,0.85456,-0.88891374,0.339415635,-0.296691135
1764763901.9196503,-1.1445,4.059159999999999,0.85456,-0.88891374,0.339415635,-0.296691135
1764763901.9196503,-1.1445,4.059159999999999,0.85456,-0.88891374,0.339415635,-0.296691135
1764763901.967116,-0.51884,3.37246,-0.03052,-0.887509935,0.338317005,-0.29638596
1764763901.967116,-0.51884,3.37246,-0.03052,-0.887509935,0.338317005,-0.29638596
1764763901.967116,-0.51884,3.37246,-0.03052,-0.887509935,0.338317005,-0.29638596
1764763901.967116,-0.51884,3.37246,-0.03052,-0.887509935,0.338317005,-0.29638596
1764763901.967116,-0.51884,3.37246,-0.03052,-0.887509935,0.338317005,-0.29638596
1764763901.967116,-0.51884,3.37246,-0.03052,-0.887509935,0.338317005,-0.29638596
1764763901.967116,-0.51884,3.37246,-0.03052,-0.887509935,0.338317005,-0.29638596
1764763901.967116,-0.51884,3.37246,-0.03052,-0.887509935,0.338317005,-0.29638596
1764763901.967116,-0.51884,3.37246,-0.03052,-0.887509935,0.338317005,-0.29638596
1764763901.967116,-0.51884,3.37246,-0.03052,-0.887509935,0.338317005,-0.29638596
1764763901.967116,-0.3815,3.1283,-0.5341,-0.887876145,0.336485955,-0.296935275
1764763901.967116,-0.3815,3.1283,-0.5341,-0.887876145,0.336485955,-0.296935275
1764763901.967116,-0.3815,3.1283,-0.5341,-0.887876145,0.336485955,-0.296935275
1764763901.967116,-0.3815,3.1283,-0.5341,-0.887876145,0.336485955,-0.296935275
1764763901.967116,-0.3815,3.1283,-0.5341,-0.887876145,0.336485955,-0.296935275
1764763901.967116,-0.3815,3.1283,-0.5341,-0.887876145,0.336485955,-0.296935275
1764763901.967116,-0.3815,3.1283,-0.5341,-0.887876145,0.336485955,-0.296935275
1764763901.967116,-0.3815,3.1283,-0.5341,-0.887876145,0.336485955,-0.296935275
1764763901.967116,-0.3815,3.1283,-0.5341,-0.887876145,0.336485955,-0.296935275
1764763901.967116,-0.3815,3.1283,-0.5341,-0.887876145,0.336485955,-0.296935275
1764763902.0098386,-0.3357199999999999,3.02148,0.77826,-0.8912941050000001,0.33788976,-0.29748459
1764763902.0098386,-0.3357199999999999,3.02148,0.77826,-0.8912941050000001,0.33788976,-0.29748459
1764763902.0098386,-0.3357199999999999,3.02148,0.77826,-0.8912941050000001,0.33788976,-0.29748459
1764763902.0098386,-0.3357199999999999,3.02148,0.77826,-0.8912941050000001,0.33788976,-0.29748459
1764763902.0098386,-0.3357199999999999,3.02148,0.77826,-0.8912941050000001,0.33788976,-0.29748459
1764763902.0098386,-0.3357199999999999,3.02148,0.77826,-0.8912941050000001,0.33788976,-0.29748459
1764763902.0098386,-0.3357199999999999,3.02148,0.77826,-0.8912941050000001,0.33788976,-0.29748459
1764763902.0098386,-0.3357199999999999,3.02148,0.77826,-0.8912941050000001,0.33788976,-0.29748459
1764763902.0098386,-0.3357199999999999,3.02148,0.77826,-0.8912941050000001,0.33788976,-0.29748459
1764763902.0098386,-0.3357199999999999,3.02148,0.77826,-0.8912941050000001,0.33788976,-0.29748459
1764763902.0098386,-1.0682,3.47928,1.64808,-0.890927895,0.33923253,-0.297911835
1764763902.0098386,-1.0682,3.47928,1.64808,-0.890927895,0.33923253,-0.297911835
1764763902.0098386,-1.0682,3.47928,1.64808,-0.890927895,0.33923253,-0.297911835
1764763902.0098386,-1.0682,3.47928,1.64808,-0.890927895,0.33923253,-0.297911835
1764763902.0110111,-1.0682,3.47928,1.64808,-0.890927895,0.33923253,-0.297911835
1764763902.0110111,-1.0682,3.47928,1.64808,-0.890927895,0.33923253,-0.297911835
1764763902.0110111,-1.0682,3.47928,1.64808,-0.890927895,0.33923253,-0.297911835
1764763902.0110111,-1.0682,3.47928,1.64808,-0.890927895,0.33923253,-0.297911835
1764763902.0110111,-1.0682,3.47928,1.64808,-0.890927895,0.33923253,-0.297911835
1764763902.0110111,-1.0682,3.47928,1.64808,-0.890927895,0.33923253,-0.297911835
1764763902.0110111,-1.2055399999999998,3.6624,0.9156,-0.8897071950000001,0.340270125,-0.297423555
1764763902.0110111,-1.2055399999999998,3.6624,0.9156,-0.8897071950000001,0.340270125,-0.297423555
1764763902.0110111,-1.2055399999999998,3.6624,0.9156,-0.8897071950000001,0.340270125,-0.297423555
1764763902.0110111,-1.2055399999999998,3.6624,0.9156,-0.8897071950000001,0.340270125,-0.297423555
1764763902.060898,-1.2055399999999998,3.6624,0.9156,-0.8897071950000001,0.340270125,-0.297423555
1764763902.060898,-1.2055399999999998,3.6624,0.9156,-0.8897071950000001,0.340270125,-0.297423555
1764763902.060898,-1.2055399999999998,3.6624,0.9156,-0.8897071950000001,0.340270125,-0.297423555
1764763902.060898,-1.2055399999999998,3.6624,0.9156,-0.8897071950000001,0.340270125,-0.297423555
1764763902.060898,-1.2055399999999998,3.6624,0.9156,-0.8897071950000001,0.340270125,-0.297423555
1764763902.0621195,-1.2055399999999998,3.6624,0.9156,-0.8897071950000001,0.340270125,-0.297423555
1764763902.0621195,-1.19028,3.09778,-0.0762999999999999,-0.8886696000000001,0.339171495,-0.29736252
1764763902.0621195,-1.19028,3.09778,-0.0762999999999999,-0.8886696000000001,0.339171495,-0.29736252
1764763902.0621195,-1.19028,3.09778,-0.0762999999999999,-0.8886696000000001,0.339171495,-0.29736252
1764763902.0621195,-1.19028,3.09778,-0.0762999999999999,-0.8886696000000001,0.339171495,-0.29736252
1764763902.0621195,-1.19028,3.09778,-0.0762999999999999,-0.8886696000000001,0.339171495,-0.29736252
1764763902.0621195,-1.19028,3.09778,-0.0762999999999999,-0.8886696000000001,0.339171495,-0.29736252
1764763902.0621195,-1.19028,3.09778,-0.0762999999999999,-0.8886696000000001,0.339171495,-0.29736252
1764763902.0621195,-1.19028,3.09778,-0.0762999999999999,-0.8886696000000001,0.339171495,-0.29736252
1764763902.0621195,-1.19028,3.09778,-0.0762999999999999,-0.8886696000000001,0.339171495,-0.29736252
1764763902.0621195,-1.19028,3.09778,-0.0762999999999999,-0.8886696000000001,0.339171495,-0.29736252
1764763902.0621195,-1.46496,3.15882,0.06104,-0.888608565,0.3381339,-0.296935275
1764763902.0621195,-1.46496,3.15882,0.06104,-0.888608565,0.3381339,-0.296935275
1764763902.0621195,-1.46496,3.15882,0.06104,-0.888608565,0.3381339,-0.296935275
1764763902.0621195,-1.46496,3.15882,0.06104,-0.888608565,0.3381339,-0.296935275
1764763902.0621195,-1.46496,3.15882,0.06104,-0.888608565,0.3381339,-0.296935275
1764763902.0621195,-1.46496,3.15882,0.06104,-0.888608565,0.3381339,-0.296935275
1764763902.0621195,-1.46496,3.15882,0.06104,-0.888608565,0.3381339,-0.296935275
1764763902.0621195,-1.46496,3.15882,0.06104,-0.888608565,0.3381339,-0.296935275
1764763902.10505,-1.46496,3.15882,0.06104,-0.888608565,0.3381339,-0.296935275
1764763902.10505,-1.46496,3.15882,0.06104,-0.888608565,0.3381339,-0.296935275
1764763902.1065989,-0.763,4.059159999999999,0.57988,-0.88830339,0.337340445,-0.2954094
1764763902.1065989,-0.763,4.059159999999999,0.57988,-0.88830339,0.337340445,-0.2954094
1764763902.1065989,-0.763,4.059159999999999,0.57988,-0.88830339,0.337340445,-0.2954094
1764763902.1065989,-0.763,4.059159999999999,0.57988,-0.88830339,0.337340445,-0.2954094
1764763902.1065989,-0.763,4.059159999999999,0.57988,-0.88830339,0.337340445,-0.2954094
1764763902.1065989,-0.763,4.059159999999999,0.57988,-0.88830339,0.337340445,-0.2954094
1764763902.1065989,-0.763,4.059159999999999,0.57988,-0.88830339,0.337340445,-0.2954094
1764763902.1065989,-0.763,4.059159999999999,0.57988,-0.88830339,0.337340445,-0.2954094
1764763902.1065989,-0.763,4.059159999999999,0.57988,-0.88830339,0.337340445,-0.2954094
1764763902.1065989,-0.763,4.059159999999999,0.57988,-0.88830339,0.337340445,-0.2954094
1764763902.1065989,0.13734,4.5017,0.51884,-0.88854753,0.336974235,-0.294615945
1764763902.1065989,0.13734,4.5017,0.51884,-0.88854753,0.336974235,-0.294615945
1764763902.1065989,0.13734,4.5017,0.51884,-0.88854753,0.336974235,-0.294615945
1764763902.1065989,0.13734,4.5017,0.51884,-0.88854753,0.336974235,-0.294615945
1764763902.1065989,0.13734,4.5017,0.51884,-0.88854753,0.336974235,-0.294615945
1764763902.1065989,0.13734,4.5017,0.51884,-0.88854753,0.336974235,-0.294615945
1764763902.1065989,0.13734,4.5017,0.51884,-0.88854753,0.336974235,-0.294615945
1764763902.1065989,0.13734,4.5017,0.51884,-0.88854753,0.336974235,-0.294615945
1764763902.1065989,0.13734,4.5017,0.51884,-0.88854753,0.336974235,-0.294615945
1764763902.1065989,0.13734,4.5017,0.51884,-0.88854753,0.336974235,-0.294615945
1764763902.1065989,1.12924,4.83742,1.12924,-0.88879167,0.33740148,-0.294371805
1764763902.1065989,1.12924,4.83742,1.12924,-0.88879167,0.33740148,-0.294371805
1764763902.1506658,1.12924,4.83742,1.12924,-0.88879167,0.33740148,-0.294371805
1764763902.1506658,1.12924,4.83742,1.12924,-0.88879167,0.33740148,-0.294371805
1764763902.1506658,1.12924,4.83742,1.12924,-0.88879167,0.33740148,-0.294371805
1764763902.1506658,1.12924,4.83742,1.12924,-0.88879167,0.33740148,-0.294371805
1764763902.1506658,1.12924,4.83742,1.12924,-0.88879167,0.33740148,-0.294371805
1764763902.1506658,1.12924,4.83742,1.12924,-0.88879167,0.33740148,-0.294371805
1764763902.1506658,1.12924,4.83742,1.12924,-0.88879167,0.33740148,-0.294371805
1764763902.1506658,1.12924,4.83742,1.12924,-0.88879167,0.33740148,-0.294371805
1764763902.1506658,1.3734,4.7306,0.88508,-0.88903581,0.337462515,-0.29614182
1764763902.1506658,1.3734,4.7306,0.88508,-0.88903581,0.337462515,-0.29614182
1764763902.1506658,1.3734,4.7306,0.88508,-0.88903581,0.337462515,-0.29614182
1764763902.1506658,1.3734,4.7306,0.88508,-0.88903581,0.337462515,-0.29614182
1764763902.1506658,1.3734,4.7306,0.88508,-0.88903581,0.337462515,-0.29614182
1764763902.1506658,1.3734,4.7306,0.88508,-0.88903581,0.337462515,-0.29614182
1764763902.1506658,1.3734,4.7306,0.88508,-0.88903581,0.337462515,-0.29614182
1764763902.1506658,1.3734,4.7306,0.88508,-0.88903581,0.337462515,-0.29614182
1764763902.1506658,1.3734,4.7306,0.88508,-0.88903581,0.337462515,-0.29614182
1764763902.1506658,1.3734,4.7306,0.88508,-0.88903581,0.337462515,-0.29614182
1764763902.1506658,0.6103999999999999,4.41014,1.51074,-0.8886696000000001,0.33874425,-0.29797287
1764763902.1506658,0.6103999999999999,4.41014,1.51074,-0.8886696000000001,0.33874425,-0.29797287
1764763902.1506658,0.6103999999999999,4.41014,1.51074,-0.8886696000000001,0.33874425,-0.29797287
1764763902.1506658,0.6103999999999999,4.41014,1.51074,-0.8886696000000001,0.33874425,-0.29797287
1764763902.1970189,0.6103999999999999,4.41014,1.51074,-0.8886696000000001,0.33874425,-0.29797287
1764763902.1970189,0.6103999999999999,4.41014,1.51074,-0.8886696000000001,0.33874425,-0.29797287
1764763902.1970189,0.6103999999999999,4.41014,1.51074,-0.8886696000000001,0.33874425,-0.29797287
1764763902.1970189,0.6103999999999999,4.41014,1.51074,-0.8886696000000001,0.33874425,-0.29797287
1764763902.1970189,0.6103999999999999,4.41014,1.51074,-0.8886696000000001,0.33874425,-0.29797287
1764763902.1970189,0.6103999999999999,4.41014,1.51074,-0.8886696000000001,0.33874425,-0.29797287
1764763902.1970189,-0.94612,3.61662,0.9003399999999999,-0.888608565,0.34033116,-0.299254605
1764763902.1970189,-0.94612,3.61662,0.9003399999999999,-0.888608565,0.34033116,-0.299254605
1764763902.1970189,-0.94612,3.61662,0.9003399999999999,-0.888608565,0.34033116,-0.299254605
1764763902.1970189,-0.94612,3.61662,0.9003399999999999,-0.888608565,0.34033116,-0.299254605
1764763902.1970189,-0.94612,3.61662,0.9003399999999999,-0.888608565,0.34033116,-0.299254605
1764763902.1970189,-0.94612,3.61662,0.9003399999999999,-0.888608565,0.34033116,-0.299254605
1764763902.1970189,-0.94612,3.61662,0.9003399999999999,-0.888608565,0.34033116,-0.299254605
1764763902.1970189,-0.94612,3.61662,0.9003399999999999,-0.888608565,0.34033116,-0.299254605
1764763902.1970189,-0.94612,3.61662,0.9003399999999999,-0.888608565,0.34033116,-0.299254605
1764763902.1970189,-0.94612,3.61662,0.9003399999999999,-0.888608565,0.34033116,-0.299254605
1764763902.1970189,-2.41108,2.80784,0.21364,-0.88781511,0.340514265,-0.29992599
1764763902.1970189,-2.41108,2.80784,0.21364,-0.88781511,0.340514265,-0.29992599
1764763902.1970189,-2.41108,2.80784,0.21364,-0.88781511,0.340514265,-0.29992599
1764763902.1970189,-2.41108,2.80784,0.21364,-0.88781511,0.340514265,-0.29992599
1764763902.1970189,-2.41108,2.80784,0.21364,-0.88781511,0.340514265,-0.29992599
1764763902.1970189,-2.41108,2.80784,0.21364,-0.88781511,0.340514265,-0.29992599
1764763902.1970189,-2.41108,2.80784,0.21364,-0.88781511,0.340514265,-0.29992599
1764763902.1970189,-2.41108,2.80784,0.21364,-0.88781511,0.340514265,-0.29992599
1764763902.2440133,-2.41108,2.80784,0.21364,-0.88781511,0.340514265,-0.29992599
1764763902.2440133,-2.41108,2.80784,0.21364,-0.88781511,0.340514265,-0.29992599
1764763902.2440133,-3.2809,2.65524,0.3357199999999999,-0.88805925,0.341002545,-0.299254605
1764763902.2440133,-3.2809,2.65524,0.3357199999999999,-0.88805925,0.341002545,-0.299254605
1764763902.2440133,-3.2809,2.65524,0.3357199999999999,-0.88805925,0.341002545,-0.299254605
1764763902.2440133,-3.2809,2.65524,0.3357199999999999,-0.88805925,0.341002545,-0.299254605
1764763902.2440133,-3.2809,2.65524,0.3357199999999999,-0.88805925,0.341002545,-0.299254605
1764763902.2440133,-3.2809,2.65524,0.3357199999999999,-0.88805925,0.341002545,-0.299254605
1764763902.2440133,-3.2809,2.65524,0.3357199999999999,-0.88805925,0.341002545,-0.299254605
1764763902.2440133,-3.2809,2.65524,0.3357199999999999,-0.88805925,0.341002545,-0.299254605
1764763902.2440133,-3.2809,2.65524,0.3357199999999999,-0.88805925,0.341002545,-0.299254605
1764763902.2440133,-3.2809,2.65524,0.3357199999999999,-0.88805925,0.341002545,-0.299254605
1764763902.2440133,-3.32668,2.7468,0.24416,-0.888242355,0.34020909,-0.297667695
1764763902.2440133,-3.32668,2.7468,0.24416,-0.888242355,0.34020909,-0.297667695
1764763902.2440133,-3.32668,2.7468,0.24416,-0.888242355,0.34020909,-0.297667695
1764763902.2440133,-3.32668,2.7468,0.24416,-0.888242355,0.34020909,-0.297667695
1764763902.2440133,-3.32668,2.7468,0.24416,-0.888242355,0.34020909,-0.297667695
1764763902.2440133,-3.32668,2.7468,0.24416,-0.888242355,0.34020909,-0.297667695
1764763902.2440133,-3.32668,2.7468,0.24416,-0.888242355,0.34020909,-0.297667695
1764763902.2440133,-3.32668,2.7468,0.24416,-0.888242355,0.34020909,-0.297667695
1764763902.2440133,-3.32668,2.7468,0.24416,-0.888242355,0.34020909,-0.297667695
1764763902.2440133,-3.32668,2.7468,0.24416,-0.888242355,0.34020909,-0.297667695
1764763902.2909164,-1.8312,3.31142,0.28994,-0.887876145,0.338805285,-0.29638596
1764763902.2909164,-1.8312,3.31142,0.28994,-0.887876145,0.338805285,-0.29638596
1764763902.2909164,-1.8312,3.31142,0.28994,-0.887876145,0.338805285,-0.29638596
1764763902.2909164,-1.8312,3.31142,0.28994,-0.887876145,0.338805285,-0.29638596
1764763902.2909164,-1.8312,3.31142,0.28994,-0.887876145,0.338805285,-0.29638596
1764763902.2909164,-1.8312,3.31142,0.28994,-0.887876145,0.338805285,-0.29638596
1764763902.2909164,-1.8312,3.31142,0.28994,-0.887876145,0.338805285,-0.29638596
1764763902.2909164,-1.8312,3.31142,0.28994,-0.887876145,0.338805285,-0.29638596
1764763902.2909164,-1.8312,3.31142,0.28994,-0.887876145,0.338805285,-0.29638596
1764763902.2909164,-1.8312,3.31142,0.28994,-0.887876145,0.338805285,-0.29638596
1764763902.2920072,-1.2208,3.40298,0.3357199999999999,-0.88842546,0.33752355,-0.29589768
1764763902.2920072,-1.2208,3.40298,0.3357199999999999,-0.88842546,0.33752355,-0.29589768
1764763902.2920072,-1.2208,3.40298,0.3357199999999999,-0.88842546,0.33752355,-0.29589768
1764763902.2920072,-1.2208,3.40298,0.3357199999999999,-0.88842546,0.33752355,-0.29589768
1764763902.2920072,-1.2208,3.40298,0.3357199999999999,-0.88842546,0.33752355,-0.29589768
1764763902.2920072,-1.2208,3.40298,0.3357199999999999,-0.88842546,0.33752355,-0.29589768
1764763902.2930064,-1.2208,3.40298,0.3357199999999999,-0.88842546,0.33752355,-0.29589768
1764763902.2930064,-1.2208,3.40298,0.3357199999999999,-0.88842546,0.33752355,-0.29589768
1764763902.2930064,-1.2208,3.40298,0.3357199999999999,-0.88842546,0.33752355,-0.29589768
1764763902.2930064,-1.2208,3.40298,0.3357199999999999,-0.88842546,0.33752355,-0.29589768
1764763902.2930064,-1.09872,3.25038,0.44254,-0.889218915,0.33715734,-0.296202855
1764763902.2937877,-1.09872,3.25038,0.44254,-0.889218915,0.33715734,-0.296202855
1764763902.2937877,-1.09872,3.25038,0.44254,-0.889218915,0.33715734,-0.296202855
1764763902.2937877,-1.09872,3.25038,0.44254,-0.889218915,0.33715734,-0.296202855
1764763902.3415856,-1.09872,3.25038,0.44254,-0.889218915,0.33715734,-0.296202855
1764763902.3415856,-1.09872,3.25038,0.44254,-0.889218915,0.33715734,-0.296202855
1764763902.3415856,-1.09872,3.25038,0.44254,-0.889218915,0.33715734,-0.296202855
1764763902.3415856,-1.09872,3.25038,0.44254,-0.889218915,0.33715734,-0.296202855
1764763902.3415856,-1.09872,3.25038,0.44254,-0.889218915,0.33715734,-0.296202855
1764763902.3415856,-1.09872,3.25038,0.44254,-0.889218915,0.33715734,-0.296202855
1764763902.3415856,-1.72438,3.7387,1.09872,-0.889340985,0.337950795,-0.2966301
1764763902.3415856,-1.72438,3.7387,1.09872,-0.889340985,0.337950795,-0.2966301
1764763902.3415856,-1.72438,3.7387,1.09872,-0.889340985,0.337950795,-0.2966301
1764763902.3415856,-1.72438,3.7387,1.09872,-0.889340985,0.337950795,-0.2966301
1764763902.3415856,-1.72438,3.7387,1.09872,-0.889340985,0.337950795,-0.2966301
1764763902.3415856,-1.72438,3.7387,1.09872,-0.889340985,0.337950795,-0.2966301
1764763902.3415856,-1.72438,3.7387,1.09872,-0.889340985,0.337950795,-0.2966301
1764763902.342747,-1.72438,3.7387,1.09872,-0.889340985,0.337950795,-0.2966301
1764763902.342747,-1.72438,3.7387,1.09872,-0.889340985,0.337950795,-0.2966301
1764763902.342747,-1.72438,3.7387,1.09872,-0.889340985,0.337950795,-0.2966301
1764763902.342747,-1.8006799999999998,4.02864,0.97664,-0.88830339,0.3393546,-0.29687424
1764763902.342747,-1.8006799999999998,4.02864,0.97664,-0.88830339,0.3393546,-0.29687424
1764763902.342747,-1.8006799999999998,4.02864,0.97664,-0.88830339,0.3393546,-0.29687424
1764763902.342747,-1.8006799999999998,4.02864,0.97664,-0.88830339,0.3393546,-0.29687424
1764763902.342747,-1.8006799999999998,4.02864,0.97664,-0.88830339,0.3393546,-0.29687424
1764763902.342747,-1.8006799999999998,4.02864,0.97664,-0.88830339,0.3393546,-0.29687424
1764763902.3849106,-1.8006799999999998,4.02864,0.97664,-0.88830339,0.3393546,-0.29687424
1764763902.3849106,-1.8006799999999998,4.02864,0.97664,-0.88830339,0.3393546,-0.29687424
1764763902.3849106,-1.8006799999999998,4.02864,0.97664,-0.88830339,0.3393546,-0.29687424
1764763902.3849106,-1.8006799999999998,4.02864,0.97664,-0.88830339,0.3393546,-0.29687424
1764763902.3849106,-2.31952,3.7387,0.3357199999999999,-0.888486495,0.340392195,-0.296813205
1764763902.3849106,-2.31952,3.7387,0.3357199999999999,-0.888486495,0.340392195,-0.296813205
1764763902.3849106,-2.31952,3.7387,0.3357199999999999,-0.888486495,0.340392195,-0.296813205
1764763902.3849106,-2.31952,3.7387,0.3357199999999999,-0.888486495,0.340392195,-0.296813205
1764763902.3849106,-2.31952,3.7387,0.3357199999999999,-0.888486495,0.340392195,-0.296813205
1764763902.3849106,-2.31952,3.7387,0.3357199999999999,-0.888486495,0.340392195,-0.296813205
1764763902.3849106,-2.31952,3.7387,0.3357199999999999,-0.888486495,0.340392195,-0.296813205
1764763902.3849106,-2.31952,3.7387,0.3357199999999999,-0.888486495,0.340392195,-0.296813205
1764763902.3849106,-2.31952,3.7387,0.3357199999999999,-0.888486495,0.340392195,-0.296813205
1764763902.3849106,-2.31952,3.7387,0.3357199999999999,-0.888486495,0.340392195,-0.296813205
1764763902.3849106,-1.69386,3.67766,0.3509799999999999,-0.88818132,0.339781845,-0.29650803
1764763902.3849106,-1.69386,3.67766,0.3509799999999999,-0.88818132,0.339781845,-0.29650803
1764763902.3849106,-1.69386,3.67766,0.3509799999999999,-0.88818132,0.339781845,-0.29650803
1764763902.3849106,-1.69386,3.67766,0.3509799999999999,-0.88818132,0.339781845,-0.29650803
1764763902.3849106,-1.69386,3.67766,0.3509799999999999,-0.88818132,0.339781845,-0.29650803
1764763902.3849106,-1.69386,3.67766,0.3509799999999999,-0.88818132,0.339781845,-0.29650803
1764763902.3849106,-1.69386,3.67766,0.3509799999999999,-0.88818132,0.339781845,-0.29650803
1764763902.3849106,-1.69386,3.67766,0.3509799999999999,-0.88818132,0.339781845,-0.29650803
1764763902.3849106,-1.69386,3.67766,0.3509799999999999,-0.88818132,0.339781845,-0.29650803
1764763902.3849106,-1.69386,3.67766,0.3509799999999999,-0.88818132,0.339781845,-0.29650803
1764763902.43112,-1.31236,3.93708,0.9003399999999999,-0.88879167,0.33959874,-0.29626389
1764763902.43112,-1.31236,3.93708,0.9003399999999999,-0.88879167,0.33959874,-0.29626389
1764763902.43112,-1.31236,3.93708,0.9003399999999999,-0.88879167,0.33959874,-0.29626389
1764763902.43112,-1.31236,3.93708,0.9003399999999999,-0.88879167,0.33959874,-0.29626389
1764763902.432126,-1.31236,3.93708,0.9003399999999999,-0.88879167,0.33959874,-0.29626389
1764763902.432126,-1.31236,3.93708,0.9003399999999999,-0.88879167,0.33959874,-0.29626389
1764763902.432126,-1.31236,3.93708,0.9003399999999999,-0.88879167,0.33959874,-0.29626389
1764763902.432126,-1.31236,3.93708,0.9003399999999999,-0.88879167,0.33959874,-0.29626389
1764763902.432126,-1.31236,3.93708,0.9003399999999999,-0.88879167,0.33959874,-0.29626389
1764763902.432126,-1.31236,3.93708,0.9003399999999999,-0.88879167,0.33959874,-0.29626389
1764763902.432126,-1.0682,3.93708,0.74774,-0.88830339,0.33959874,-0.295348365
1764763902.432126,-1.0682,3.93708,0.74774,-0.88830339,0.33959874,-0.295348365
1764763902.432126,-1.0682,3.93708,0.74774,-0.88830339,0.33959874,-0.295348365
1764763902.432126,-1.0682,3.93708,0.74774,-0.88830339,0.33959874,-0.295348365
1764763902.432126,-1.0682,3.93708,0.74774,-0.88830339,0.33959874,-0.295348365
1764763902.432126,-1.0682,3.93708,0.74774,-0.88830339,0.33959874,-0.295348365
1764763902.432126,-1.0682,3.93708,0.74774,-0.88830339,0.33959874,-0.295348365
1764763902.432126,-1.0682,3.93708,0.74774,-0.88830339,0.33959874,-0.295348365
1764763902.432126,-1.0682,3.93708,0.74774,-0.88830339,0.33959874,-0.295348365
1764763902.432126,-1.0682,3.93708,0.74774,-0.88830339,0.33959874,-0.295348365
1764763902.432126,-0.93086,3.46402,0.7019599999999999,-0.88830339,0.339049425,-0.295348365
1764763902.432126,-0.93086,3.46402,0.7019599999999999,-0.88830339,0.339049425,-0.295348365
1764763902.432126,-0.93086,3.46402,0.7019599999999999,-0.88830339,0.339049425,-0.295348365
1764763902.432126,-0.93086,3.46402,0.7019599999999999,-0.88830339,0.339049425,-0.295348365
1764763902.4776886,-0.93086,3.46402,0.7019599999999999,-0.88830339,0.339049425,-0.295348365
1764763902.4776886,-0.93086,3.46402,0.7019599999999999,-0.88830339,0.339049425,-0.295348365
1764763902.4776886,-0.93086,3.46402,0.7019599999999999,-0.88830339,0.339049425,-0.295348365
1764763902.4776886,-0.93086,3.46402,0.7019599999999999,-0.88830339,0.339049425,-0.295348365
1764763902.4776886,-0.93086,3.46402,0.7019599999999999,-0.88830339,0.339049425,-0.295348365
1764763902.4776886,-0.93086,3.46402,0.7019599999999999,-0.88830339,0.339049425,-0.295348365
1764763902.4776886,-0.8087799999999999,3.44876,0.9919,-0.88854753,0.338927355,-0.295714575
1764763902.4776886,-0.8087799999999999,3.44876,0.9919,-0.88854753,0.338927355,-0.295714575
1764763902.4776886,-0.8087799999999999,3.44876,0.9919,-0.88854753,0.338927355,-0.295714575
1764763902.4776886,-0.8087799999999999,3.44876,0.9919,-0.88854753,0.338927355,-0.295714575
1764763902.4776886,-0.8087799999999999,3.44876,0.9919,-0.88854753,0.338927355,-0.295714575
1764763902.4776886,-0.8087799999999999,3.44876,0.9919,-0.88854753,0.338927355,-0.295714575
1764763902.4776886,-0.8087799999999999,3.44876,0.9919,-0.88854753,0.338927355,-0.295714575
1764763902.4776886,-0.8087799999999999,3.44876,0.9919,-0.88854753,0.338927355,-0.295714575
1764763902.4776886,-0.8087799999999999,3.44876,0.9919,-0.88854753,0.338927355,-0.295714575
1764763902.478953,-0.8087799999999999,3.44876,0.9919,-0.88854753,0.338927355,-0.295714575
1764763902.478953,-0.3509799999999999,3.70818,0.6103999999999999,-0.889096845,0.338927355,-0.295714575
1764763902.478953,-0.3509799999999999,3.70818,0.6103999999999999,-0.889096845,0.338927355,-0.295714575
1764763902.478953,-0.3509799999999999,3.70818,0.6103999999999999,-0.889096845,0.338927355,-0.295714575
1764763902.478953,-0.3509799999999999,3.70818,0.6103999999999999,-0.889096845,0.338927355,-0.295714575
1764763902.478953,-0.3509799999999999,3.70818,0.6103999999999999,-0.889096845,0.338927355,-0.295714575
1764763902.478953,-0.3509799999999999,3.70818,0.6103999999999999,-0.889096845,0.338927355,-0.295714575
1764763902.478953,-0.3509799999999999,3.70818,0.6103999999999999,-0.889096845,0.338927355,-0.295714575
1764763902.478953,-0.3509799999999999,3.70818,0.6103999999999999,-0.889096845,0.338927355,-0.295714575
1764763902.5248792,-0.3509799999999999,3.70818,0.6103999999999999,-0.889096845,0.338927355,-0.295714575
1764763902.5248792,-0.3509799999999999,3.70818,0.6103999999999999,-0.889096845,0.338927355,-0.295714575
1764763902.525383,0.24416,3.54032,0.47306,-0.888486495,0.3393546,-0.29528733
1764763902.525383,0.24416,3.54032,0.47306,-0.888486495,0.3393546,-0.29528733
1764763902.525383,0.24416,3.54032,0.47306,-0.888486495,0.3393546,-0.29528733
1764763902.525383,0.24416,3.54032,0.47306,-0.888486495,0.3393546,-0.29528733
1764763902.525383,0.24416,3.54032,0.47306,-0.888486495,0.3393546,-0.29528733
1764763902.525383,0.24416,3.54032,0.47306,-0.888486495,0.3393546,-0.29528733
1764763902.525383,0.24416,3.54032,0.47306,-0.888486495,0.3393546,-0.29528733
1764763902.525383,0.24416,3.54032,0.47306,-0.888486495,0.3393546,-0.29528733
1764763902.5258937,0.24416,3.54032,0.47306,-0.888486495,0.3393546,-0.29528733
1764763902.5258937,0.24416,3.54032,0.47306,-0.888486495,0.3393546,-0.29528733
1764763902.5258937,-0.93086,2.8994,-0.03052,-0.88793718,0.33874425,-0.295958715
1764763902.5258937,-0.93086,2.8994,-0.03052,-0.88793718,0.33874425,-0.295958715
1764763902.5258937,-0.93086,2.8994,-0.03052,-0.88793718,0.33874425,-0.295958715
1764763902.5258937,-0.93086,2.8994,-0.03052,-0.88793718,0.33874425,-0.295958715
1764763902.5258937,-0.93086,2.8994,-0.03052,-0.88793718,0.33874425,-0.295958715
1764763902.5258937,-0.93086,2.8994,-0.03052,-0.88793718,0.33874425,-0.295958715
1764763902.5258937,-0.93086,2.8994,-0.03052,-0.88793718,0.33874425,-0.295958715
1764763902.5258937,-0.93086,2.8994,-0.03052,-0.88793718,0.33874425,-0.295958715
1764763902.526899,-0.93086,2.8994,-0.03052,-0.88793718,0.33874425,-0.295958715
1764763902.526899,-0.93086,2.8994,-0.03052,-0.88793718,0.33874425,-0.295958715
1764763902.5730774,-1.02242,3.4335,0.8698199999999999,-0.889340985,0.33886632,-0.297179415
1764763902.5730774,-1.02242,3.4335,0.8698199999999999,-0.889340985,0.33886632,-0.297179415
1764763902.5730774,-1.02242,3.4335,0.8698199999999999,-0.889340985,0.33886632,-0.297179415
1764763902.5730774,-1.02242,3.4335,0.8698199999999999,-0.889340985,0.33886632,-0.297179415
1764763902.573585,-1.02242,3.4335,0.8698199999999999,-0.889340985,0.33886632,-0.297179415
1764763902.573585,-1.02242,3.4335,0.8698199999999999,-0.889340985,0.33886632,-0.297179415
1764763902.573585,-1.02242,3.4335,0.8698199999999999,-0.889340985,0.33886632,-0.297179415
1764763902.573585,-1.02242,3.4335,0.8698199999999999,-0.889340985,0.33886632,-0.297179415
1764763902.573585,-1.02242,3.4335,0.8698199999999999,-0.889340985,0.33886632,-0.297179415
1764763902.573585,-1.02242,3.4335,0.8698199999999999,-0.889340985,0.33886632,-0.297179415
1764763902.573585,-1.26658,3.41824,2.07536,-0.8907447900000001,0.33996495,-0.29772873
1764763902.573585,-1.26658,3.41824,2.07536,-0.8907447900000001,0.33996495,-0.29772873
1764763902.573585,-1.26658,3.41824,2.07536,-0.8907447900000001,0.33996495,-0.29772873
1764763902.573585,-1.26658,3.41824,2.07536,-0.8907447900000001,0.33996495,-0.29772873
1764763902.573585,-1.26658,3.41824,2.07536,-0.8907447900000001,0.33996495,-0.29772873
1764763902.573585,-1.26658,3.41824,2.07536,-0.8907447900000001,0.33996495,-0.29772873
1764763902.573585,-1.26658,3.41824,2.07536,-0.8907447900000001,0.33996495,-0.29772873
1764763902.573585,-1.26658,3.41824,2.07536,-0.8907447900000001,0.33996495,-0.29772873
1764763902.573585,-1.26658,3.41824,2.07536,-0.8907447900000001,0.33996495,-0.29772873
1764763902.573585,-1.26658,3.41824,2.07536,-0.8907447900000001,0.33996495,-0.29772873
1764763902.573585,-1.35814,3.25038,1.92276,-0.88976823,0.34094151,-0.296935275
1764763902.573585,-1.35814,3.25038,1.92276,-0.88976823,0.34094151,-0.296935275
1764763902.6160989,-1.35814,3.25038,1.92276,-0.88976823,0.34094151,-0.296935275
1764763902.6160989,-1.35814,3.25038,1.92276,-0.88976823,0.34094151,-0.296935275
1764763902.6160989,-1.35814,3.25038,1.92276,-0.88976823,0.34094151,-0.296935275
1764763902.6160989,-1.35814,3.25038,1.92276,-0.88976823,0.34094151,-0.296935275
1764763902.6160989,-1.35814,3.25038,1.92276,-0.88976823,0.34094151,-0.296935275
1764763902.6160989,-1.35814,3.25038,1.92276,-0.88976823,0.34094151,-0.296935275
1764763902.6160989,-1.35814,3.25038,1.92276,-0.88976823,0.34094151,-0.296935275
1764763902.6160989,-1.35814,3.25038,1.92276,-0.88976823,0.34094151,-0.296935275
1764763902.6160989,-0.9156,3.76922,0.6867,-0.88793718,0.34069737,-0.29626389
1764763902.6160989,-0.9156,3.76922,0.6867,-0.88793718,0.34069737,-0.29626389
1764763902.6160989,-0.9156,3.76922,0.6867,-0.88793718,0.34069737,-0.29626389
1764763902.6166024,-0.9156,3.76922,0.6867,-0.88793718,0.34069737,-0.29626389
1764763902.6166024,-0.9156,3.76922,0.6867,-0.88793718,0.34069737,-0.29626389
1764763902.6166024,-0.9156,3.76922,0.6867,-0.88793718,0.34069737,-0.29626389
1764763902.6166024,-0.9156,3.76922,0.6867,-0.88793718,0.34069737,-0.29626389
1764763902.6166024,-0.9156,3.76922,0.6867,-0.88793718,0.34069737,-0.29626389
1764763902.6166024,-0.9156,3.76922,0.6867,-0.88793718,0.34069737,-0.29626389
1764763902.6166024,-0.9156,3.76922,0.6867,-0.88793718,0.34069737,-0.29626389
1764763902.6166024,-1.54126,3.60136,0.12208,-0.886655445,0.33972081,-0.296446995
1764763902.6166024,-1.54126,3.60136,0.12208,-0.886655445,0.33972081,-0.296446995
1764763902.6166024,-1.54126,3.60136,0.12208,-0.886655445,0.33972081,-0.296446995
1764763902.6166024,-1.54126,3.60136,0.12208,-0.886655445,0.33972081,-0.296446995
1764763902.6166024,-1.54126,3.60136,0.12208,-0.886655445,0.33972081,-0.296446995
1764763902.6166024,-1.54126,3.60136,0.12208,-0.886655445,0.33972081,-0.296446995
1764763902.6166024,-1.54126,3.60136,0.12208,-0.886655445,0.33972081,-0.296446995
1764763902.6166024,-1.54126,3.60136,0.12208,-0.886655445,0.33972081,-0.296446995
1764763902.6660173,-1.54126,3.60136,0.12208,-0.886655445,0.33972081,-0.296446995
1764763902.6660173,-1.54126,3.60136,0.12208,-0.886655445,0.33972081,-0.296446995
1764763902.6660173,-1.41918,3.6624,1.0682,-0.8870826900000001,0.33886632,-0.29589768
1764763902.6660173,-1.41918,3.6624,1.0682,-0.8870826900000001,0.33886632,-0.29589768
1764763902.6660173,-1.41918,3.6624,1.0682,-0.8870826900000001,0.33886632,-0.29589768
1764763902.6660173,-1.41918,3.6624,1.0682,-0.8870826900000001,0.33886632,-0.29589768
1764763902.6660173,-1.41918,3.6624,1.0682,-0.8870826900000001,0.33886632,-0.29589768
1764763902.6660173,-1.41918,3.6624,1.0682,-0.8870826900000001,0.33886632,-0.29589768
1764763902.6660173,-1.41918,3.6624,1.0682,-0.8870826900000001,0.33886632,-0.29589768
1764763902.6660173,-1.41918,3.6624,1.0682,-0.8870826900000001,0.33886632,-0.29589768
1764763902.6660173,-1.41918,3.6624,1.0682,-0.8870826900000001,0.33886632,-0.29589768
1764763902.6660173,-1.41918,3.6624,1.0682,-0.8870826900000001,0.33886632,-0.29589768
1764763902.6660173,-1.02242,4.07442,0.93086,-0.887265795,0.339171495,-0.294493875
1764763902.6660173,-1.02242,4.07442,0.93086,-0.887265795,0.339171495,-0.294493875
1764763902.6660173,-1.02242,4.07442,0.93086,-0.887265795,0.339171495,-0.294493875
1764763902.6660173,-1.02242,4.07442,0.93086,-0.887265795,0.339171495,-0.294493875
1764763902.6660173,-1.02242,4.07442,0.93086,-0.887265795,0.339171495,-0.294493875
1764763902.6660173,-1.02242,4.07442,0.93086,-0.887265795,0.339171495,-0.294493875
1764763902.6660173,-1.02242,4.07442,0.93086,-0.887265795,0.339171495,-0.294493875
1764763902.6660173,-1.02242,4.07442,0.93086,-0.887265795,0.339171495,-0.294493875
1764763902.6660173,-1.02242,4.07442,0.93086,-0.887265795,0.339171495,-0.294493875
1764763902.6660173,-1.02242,4.07442,0.93086,-0.887265795,0.339171495,-0.294493875
1764763902.7122688,0.12208,4.41014,0.48832,-0.88757097,0.338805285,-0.293395245
1764763902.7122688,0.12208,4.41014,0.48832,-0.88757097,0.338805285,-0.293395245
1764763902.7122688,0.12208,4.41014,0.48832,-0.88757097,0.338805285,-0.293395245
1764763902.7122688,0.12208,4.41014,0.48832,-0.88757097,0.338805285,-0.293395245
1764763902.7122688,0.12208,4.41014,0.48832,-0.88757097,0.338805285,-0.293395245
1764763902.7122688,0.12208,4.41014,0.48832,-0.88757097,0.338805285,-0.293395245
1764763902.7122688,0.12208,4.41014,0.48832,-0.88757097,0.338805285,-0.293395245
1764763902.7122688,0.12208,4.41014,0.48832,-0.88757097,0.338805285,-0.293395245
1764763902.7122688,0.12208,4.41014,0.48832,-0.88757097,0.338805285,-0.293395245
1764763902.7122688,0.12208,4.41014,0.48832,-0.88757097,0.338805285,-0.293395245
1764763902.7122688,1.05294,4.22702,0.97664,-0.88854753,0.338805285,-0.2941887
1764763902.7122688,1.05294,4.22702,0.97664,-0.88854753,0.338805285,-0.2941887
1764763902.7122688,1.05294,4.22702,0.97664,-0.88854753,0.338805285,-0.2941887
1764763902.7122688,1.05294,4.22702,0.97664,-0.88854753,0.338805285,-0.2941887
1764763902.7122688,1.05294,4.22702,0.97664,-0.88854753,0.338805285,-0.2941887
1764763902.7122688,1.05294,4.22702,0.97664,-0.88854753,0.338805285,-0.2941887
1764763902.7122688,1.05294,4.22702,0.97664,-0.88854753,0.338805285,-0.2941887
1764763902.7122688,1.05294,4.22702,0.97664,-0.88854753,0.338805285,-0.2941887
1764763902.7122688,1.05294,4.22702,0.97664,-0.88854753,0.338805285,-0.2941887
1764763902.7122688,1.05294,4.22702,0.97664,-0.88854753,0.338805285,-0.2941887
1764763902.7122688,0.3357199999999999,4.31858,1.15976,-0.88927995,0.340270125,-0.295958715
1764763902.7122688,0.3357199999999999,4.31858,1.15976,-0.88927995,0.340270125,-0.295958715
1764763902.7122688,0.3357199999999999,4.31858,1.15976,-0.88927995,0.340270125,-0.295958715
1764763902.7122688,0.3357199999999999,4.31858,1.15976,-0.88927995,0.340270125,-0.295958715
1764763902.758838,0.3357199999999999,4.31858,1.15976,-0.88927995,0.340270125,-0.295958715
1764763902.758838,0.3357199999999999,4.31858,1.15976,-0.88927995,0.340270125,-0.295958715
1764763902.758838,0.3357199999999999,4.31858,1.15976,-0.88927995,0.340270125,-0.295958715
1764763902.758838,0.3357199999999999,4.31858,1.15976,-0.88927995,0.340270125,-0.295958715
1764763902.758838,0.3357199999999999,4.31858,1.15976,-0.88927995,0.340270125,-0.295958715
1764763902.758838,0.3357199999999999,4.31858,1.15976,-0.88927995,0.340270125,-0.295958715
1764763902.758838,-1.31236,4.0439,0.59514,-0.888608565,0.341002545,-0.29711838
1764763902.758838,-1.31236,4.0439,0.59514,-0.888608565,0.341002545,-0.29711838
1764763902.758838,-1.31236,4.0439,0.59514,-0.888608565,0.341002545,-0.29711838
1764763902.758838,-1.31236,4.0439,0.59514,-0.888608565,0.341002545,-0.29711838
1764763902.758838,-1.31236,4.0439,0.59514,-0.888608565,0.341002545,-0.29711838
1764763902.758838,-1.31236,4.0439,0.59514,-0.888608565,0.341002545,-0.29711838
1764763902.758838,-1.31236,4.0439,0.59514,-0.888608565,0.341002545,-0.29711838
1764763902.758838,-1.31236,4.0439,0.59514,-0.888608565,0.341002545,-0.29711838
1764763902.758838,-1.31236,4.0439,0.59514,-0.888608565,0.341002545,-0.29711838
1764763902.758838,-1.31236,4.0439,0.59514,-0.888608565,0.341002545,-0.29711838
1764763902.758838,-1.2971,3.23512,0.0762999999999999,-0.88720476,0.340636335,-0.297545625
1764763902.758838,-1.2971,3.23512,0.0762999999999999,-0.88720476,0.340636335,-0.297545625
1764763902.7598486,-1.2971,3.23512,0.0762999999999999,-0.88720476,0.340636335,-0.297545625
1764763902.7598486,-1.2971,3.23512,0.0762999999999999,-0.88720476,0.340636335,-0.297545625
1764763902.7598486,-1.2971,3.23512,0.0762999999999999,-0.88720476,0.340636335,-0.297545625
1764763902.7598486,-1.2971,3.23512,0.0762999999999999,-0.88720476,0.340636335,-0.297545625
1764763902.7598486,-1.2971,3.23512,0.0762999999999999,-0.88720476,0.340636335,-0.297545625
1764763902.7598486,-1.2971,3.23512,0.0762999999999999,-0.88720476,0.340636335,-0.297545625
1764763902.80627,-1.2971,3.23512,0.0762999999999999,-0.88720476,0.340636335,-0.297545625
1764763902.80627,-1.2971,3.23512,0.0762999999999999,-0.88720476,0.340636335,-0.297545625
1764763902.80627,-1.35814,2.9757,-0.13734,-0.887998215,0.33959874,-0.29675217
1764763902.80627,-1.35814,2.9757,-0.13734,-0.887998215,0.33959874,-0.29675217
1764763902.80627,-1.35814,2.9757,-0.13734,-0.887998215,0.33959874,-0.29675217
1764763902.80627,-1.35814,2.9757,-0.13734,-0.887998215,0.33959874,-0.29675217
1764763902.80627,-1.35814,2.9757,-0.13734,-0.887998215,0.33959874,-0.29675217
1764763902.80627,-1.35814,2.9757,-0.13734,-0.887998215,0.33959874,-0.29675217
1764763902.80627,-1.35814,2.9757,-0.13734,-0.887998215,0.33959874,-0.29675217
1764763902.80627,-1.35814,2.9757,-0.13734,-0.887998215,0.33959874,-0.29675217
1764763902.80627,-1.35814,2.9757,-0.13734,-0.887998215,0.33959874,-0.29675217
1764763902.80627,-1.35814,2.9757,-0.13734,-0.887998215,0.33959874,-0.29675217
1764763902.80627,-1.70912,3.00622,0.94612,-0.8891578800000001,0.339537705,-0.296324925
1764763902.80627,-1.70912,3.00622,0.94612,-0.8891578800000001,0.339537705,-0.296324925
1764763902.80627,-1.70912,3.00622,0.94612,-0.8891578800000001,0.339537705,-0.296324925
1764763902.80627,-1.70912,3.00622,0.94612,-0.8891578800000001,0.339537705,-0.296324925
1764763902.80627,-1.70912,3.00622,0.94612,-0.8891578800000001,0.339537705,-0.296324925
1764763902.80627,-1.70912,3.00622,0.94612,-0.8891578800000001,0.339537705,-0.296324925
1764763902.80627,-1.70912,3.00622,0.94612,-0.8891578800000001,0.339537705,-0.296324925
1764763902.80627,-1.70912,3.00622,0.94612,-0.8891578800000001,0.339537705,-0.296324925
1764763902.80627,-1.70912,3.00622,0.94612,-0.8891578800000001,0.339537705,-0.296324925
1764763902.80627,-1.70912,3.00622,0.94612,-0.8891578800000001,0.339537705,-0.296324925
1764763902.853401,-1.32762,3.63188,0.56462,-0.888608565,0.339293565,-0.29553147
1764763902.853401,-1.32762,3.63188,0.56462,-0.888608565,0.339293565,-0.29553147
1764763902.8539188,-1.32762,3.63188,0.56462,-0.888608565,0.339293565,-0.29553147
1764763902.8539188,-1.32762,3.63188,0.56462,-0.888608565,0.339293565,-0.29553147
1764763902.8539188,-1.32762,3.63188,0.56462,-0.888608565,0.339293565,-0.29553147
1764763902.8539188,-1.32762,3.63188,0.56462,-0.888608565,0.339293565,-0.29553147
1764763902.8539188,-1.32762,3.63188,0.56462,-0.888608565,0.339293565,-0.29553147
1764763902.8539188,-1.32762,3.63188,0.56462,-0.888608565,0.339293565,-0.29553147
1764763902.8539188,-1.32762,3.63188,0.56462,-0.888608565,0.339293565,-0.29553147
1764763902.8539188,-1.32762,3.63188,0.56462,-0.888608565,0.339293565,-0.29553147
1764763902.8539188,-0.25942,3.2809,-0.6409199999999999,-0.88720476,0.339049425,-0.295104225
1764763902.8539188,-0.25942,3.2809,-0.6409199999999999,-0.88720476,0.339049425,-0.295104225
1764763902.8539188,-0.25942,3.2809,-0.6409199999999999,-0.88720476,0.339049425,-0.295104225
1764763902.8539188,-0.25942,3.2809,-0.6409199999999999,-0.88720476,0.339049425,-0.295104225
1764763902.8539188,-0.25942,3.2809,-0.6409199999999999,-0.88720476,0.339049425,-0.295104225
1764763902.8539188,-0.25942,3.2809,-0.6409199999999999,-0.88720476,0.339049425,-0.295104225
1764763902.8539188,-0.25942,3.2809,-0.6409199999999999,-0.88720476,0.339049425,-0.295104225
1764763902.8539188,-0.25942,3.2809,-0.6409199999999999,-0.88720476,0.339049425,-0.295104225
1764763902.8539188,-0.25942,3.2809,-0.6409199999999999,-0.88720476,0.339049425,-0.295104225
1764763902.8539188,-0.25942,3.2809,-0.6409199999999999,-0.88720476,0.339049425,-0.295104225
1764763902.8539188,-0.12208,3.60136,-0.25942,-0.8876320050000001,0.33837804,-0.296324925
1764763902.8539188,-0.12208,3.60136,-0.25942,-0.8876320050000001,0.33837804,-0.296324925
1764763902.8539188,-0.12208,3.60136,-0.25942,-0.8876320050000001,0.33837804,-0.296324925
1764763902.8539188,-0.12208,3.60136,-0.25942,-0.8876320050000001,0.33837804,-0.296324925
1764763902.9007945,-0.12208,3.60136,-0.25942,-0.8876320050000001,0.33837804,-0.296324925
1764763902.9007945,-0.12208,3.60136,-0.25942,-0.8876320050000001,0.33837804,-0.296324925
1764763902.9007945,-0.12208,3.60136,-0.25942,-0.8876320050000001,0.33837804,-0.296324925
1764763902.9007945,-0.12208,3.60136,-0.25942,-0.8876320050000001,0.33837804,-0.296324925
1764763902.9007945,-0.12208,3.60136,-0.25942,-0.8876320050000001,0.33837804,-0.296324925
1764763902.9013133,-0.12208,3.60136,-0.25942,-0.8876320050000001,0.33837804,-0.296324925
1764763902.9013133,-0.9919,3.37246,0.48832,-0.8891578800000001,0.33898839,-0.29675217
1764763902.9013133,-0.9919,3.37246,0.48832,-0.8891578800000001,0.33898839,-0.29675217
1764763902.9013133,-0.9919,3.37246,0.48832,-0.8891578800000001,0.33898839,-0.29675217
1764763902.9013133,-0.9919,3.37246,0.48832,-0.8891578800000001,0.33898839,-0.29675217
1764763902.9013133,-0.9919,3.37246,0.48832,-0.8891578800000001,0.33898839,-0.29675217
1764763902.9013133,-0.9919,3.37246,0.48832,-0.8891578800000001,0.33898839,-0.29675217
1764763902.9013133,-0.9919,3.37246,0.48832,-0.8891578800000001,0.33898839,-0.29675217
1764763902.9013133,-0.9919,3.37246,0.48832,-0.8891578800000001,0.33898839,-0.29675217
1764763902.9013133,-0.9919,3.37246,0.48832,-0.8891578800000001,0.33898839,-0.29675217
1764763902.9013133,-0.9919,3.37246,0.48832,-0.8891578800000001,0.33898839,-0.29675217
1764763902.9013133,-1.99906,3.78448,1.32762,-0.8902565100000001,0.340636335,-0.297057345
1764763902.9013133,-1.99906,3.78448,1.32762,-0.8902565100000001,0.340636335,-0.297057345
1764763902.9013133,-1.99906,3.78448,1.32762,-0.8902565100000001,0.340636335,-0.297057345
1764763902.9013133,-1.99906,3.78448,1.32762,-0.8902565100000001,0.340636335,-0.297057345
1764763902.9013133,-1.99906,3.78448,1.32762,-0.8902565100000001,0.340636335,-0.297057345
1764763902.9013133,-1.99906,3.78448,1.32762,-0.8902565100000001,0.340636335,-0.297057345
1764763902.9013133,-1.99906,3.78448,1.32762,-0.8902565100000001,0.340636335,-0.297057345
1764763902.9013133,-1.99906,3.78448,1.32762,-0.8902565100000001,0.340636335,-0.297057345
1764763902.947881,-1.99906,3.78448,1.32762,-0.8902565100000001,0.340636335,-0.297057345
1764763902.947881,-1.99906,3.78448,1.32762,-0.8902565100000001,0.340636335,-0.297057345
1764763902.947881,-2.47212,3.67766,0.62566,-0.889218915,0.342223245,-0.296691135
1764763902.947881,-2.47212,3.67766,0.62566,-0.889218915,0.342223245,-0.296691135
1764763902.947881,-2.47212,3.67766,0.62566,-0.889218915,0.342223245,-0.296691135
1764763902.947881,-2.47212,3.67766,0.62566,-0.889218915,0.342223245,-0.296691135
1764763902.947881,-2.47212,3.67766,0.62566,-0.889218915,0.342223245,-0.296691135
1764763902.947881,-2.47212,3.67766,0.62566,-0.889218915,0.342223245,-0.296691135
1764763902.947881,-2.47212,3.67766,0.62566,-0.889218915,0.342223245,-0.296691135
1764763902.947881,-2.47212,3.67766,0.62566,-0.889218915,0.342223245,-0.296691135
1764763902.947881,-2.47212,3.67766,0.62566,-0.889218915,0.342223245,-0.296691135
1764763902.947881,-2.47212,3.67766,0.62566,-0.889218915,0.342223245,-0.296691135
1764763902.947881,-2.60946,3.47928,0.27468,-0.88793718,0.341124615,-0.29650803
1764763902.947881,-2.60946,3.47928,0.27468,-0.88793718,0.341124615,-0.29650803
1764763902.947881,-2.60946,3.47928,0.27468,-0.88793718,0.341124615,-0.29650803
1764763902.947881,-2.60946,3.47928,0.27468,-0.88793718,0.341124615,-0.29650803
1764763902.947881,-2.60946,3.47928,0.27468,-0.88793718,0.341124615,-0.29650803
1764763902.947881,-2.60946,3.47928,0.27468,-0.88793718,0.341124615,-0.29650803
1764763902.947881,-2.60946,3.47928,0.27468,-0.88793718,0.341124615,-0.29650803
1764763902.947881,-2.60946,3.47928,0.27468,-0.88793718,0.341124615,-0.29650803
1764763902.9488957,-2.60946,3.47928,0.27468,-0.88793718,0.341124615,-0.29650803
1764763902.9488957,-2.60946,3.47928,0.27468,-0.88793718,0.341124615,-0.29650803
1764763902.9488957,-2.5942,3.99812,-0.24416,-0.887021655,0.340270125,-0.29553147
1764763902.9488957,-2.5942,3.99812,-0.24416,-0.887021655,0.340270125,-0.29553147
1764763902.995327,-2.5942,3.99812,-0.24416,-0.887021655,0.340270125,-0.29553147
1764763902.995327,-2.5942,3.99812,-0.24416,-0.887021655,0.340270125,-0.29553147
1764763902.995327,-2.5942,3.99812,-0.24416,-0.887021655,0.340270125,-0.29553147
1764763902.995327,-2.5942,3.99812,-0.24416,-0.887021655,0.340270125,-0.29553147
1764763902.995327,-2.5942,3.99812,-0.24416,-0.887021655,0.340270125,-0.29553147
1764763902.995327,-2.5942,3.99812,-0.24416,-0.887021655,0.340270125,-0.29553147
1764763902.995327,-2.5942,3.99812,-0.24416,-0.887021655,0.340270125,-0.29553147
1764763902.995327,-2.5942,3.99812,-0.24416,-0.887021655,0.340270125,-0.29553147
1764763902.995327,-2.4416,3.84552,0.41202,-0.88781511,0.33874425,-0.295592505
1764763902.995327,-2.4416,3.84552,0.41202,-0.88781511,0.33874425,-0.295592505
1764763902.995327,-2.4416,3.84552,0.41202,-0.88781511,0.33874425,-0.295592505
1764763902.995327,-2.4416,3.84552,0.41202,-0.88781511,0.33874425,-0.295592505
1764763902.995327,-2.4416,3.84552,0.41202,-0.88781511,0.33874425,-0.295592505
1764763902.995327,-2.4416,3.84552,0.41202,-0.88781511,0.33874425,-0.295592505
1764763902.995327,-2.4416,3.84552,0.41202,-0.88781511,0.33874425,-0.295592505
1764763902.995327,-2.4416,3.84552,0.41202,-0.88781511,0.33874425,-0.295592505
1764763902.995327,-2.4416,3.84552,0.41202,-0.88781511,0.33874425,-0.295592505
1764763902.995327,-2.4416,3.84552,0.41202,-0.88781511,0.33874425,-0.295592505
1764763902.995327,-2.2127,3.7387,0.6714399999999999,-0.888608565,0.33801183,-0.295836645
1764763902.995327,-2.2127,3.7387,0.6714399999999999,-0.888608565,0.33801183,-0.295836645
1764763902.995327,-2.2127,3.7387,0.6714399999999999,-0.888608565,0.33801183,-0.295836645
1764763902.995327,-2.2127,3.7387,0.6714399999999999,-0.888608565,0.33801183,-0.295836645
1764763903.0409274,-2.2127,3.7387,0.6714399999999999,-0.888608565,0.33801183,-0.295836645
1764763903.0409274,-2.2127,3.7387,0.6714399999999999,-0.888608565,0.33801183,-0.295836645
1764763903.0409274,-2.2127,3.7387,0.6714399999999999,-0.888608565,0.33801183,-0.295836645
1764763903.0409274,-2.2127,3.7387,0.6714399999999999,-0.888608565,0.33801183,-0.295836645
1764763903.0409274,-2.2127,3.7387,0.6714399999999999,-0.888608565,0.33801183,-0.295836645
1764763903.0409274,-2.2127,3.7387,0.6714399999999999,-0.888608565,0.33801183,-0.295836645
1764763903.0409274,-2.09062,3.17408,0.77826,-0.888974775,0.338561145,-0.29528733
1764763903.0409274,-2.09062,3.17408,0.77826,-0.888974775,0.338561145,-0.29528733
1764763903.0409274,-2.09062,3.17408,0.77826,-0.888974775,0.338561145,-0.29528733
1764763903.0409274,-2.09062,3.17408,0.77826,-0.888974775,0.338561145,-0.29528733
1764763903.0409274,-2.09062,3.17408,0.77826,-0.888974775,0.338561145,-0.29528733
1764763903.0409274,-2.09062,3.17408,0.77826,-0.888974775,0.338561145,-0.29528733
1764763903.0414412,-2.09062,3.17408,0.77826,-0.888974775,0.338561145,-0.29528733
1764763903.0414412,-2.09062,3.17408,0.77826,-0.888974775,0.338561145,-0.29528733
1764763903.0414412,-2.09062,3.17408,0.77826,-0.888974775,0.338561145,-0.29528733
1764763903.0414412,-2.09062,3.17408,0.77826,-0.888974775,0.338561145,-0.29528733
1764763903.0414412,-2.01432,3.44876,0.04578,-0.887998215,0.33959874,-0.295348365
1764763903.0414412,-2.01432,3.44876,0.04578,-0.887998215,0.33959874,-0.295348365
1764763903.0414412,-2.01432,3.44876,0.04578,-0.887998215,0.33959874,-0.295348365
1764763903.0414412,-2.01432,3.44876,0.04578,-0.887998215,0.33959874,-0.295348365
1764763903.0414412,-2.01432,3.44876,0.04578,-0.887998215,0.33959874,-0.295348365
1764763903.0414412,-2.01432,3.44876,0.04578,-0.887998215,0.33959874,-0.295348365
1764763903.0414412,-2.01432,3.44876,0.04578,-0.887998215,0.33959874,-0.295348365
1764763903.0414412,-2.01432,3.44876,0.04578,-0.887998215,0.33959874,-0.295348365
1764763903.087606,-2.01432,3.44876,0.04578,-0.887998215,0.33959874,-0.295348365
1764763903.087606,-2.01432,3.44876,0.04578,-0.887998215,0.33959874,-0.295348365
1764763903.087606,-2.15166,3.00622,0.13734,-0.88879167,0.339659775,-0.29455491
1764763903.087606,-2.15166,3.00622,0.13734,-0.88879167,0.339659775,-0.29455491
1764763903.087606,-2.15166,3.00622,0.13734,-0.88879167,0.339659775,-0.29455491
1764763903.087606,-2.15166,3.00622,0.13734,-0.88879167,0.339659775,-0.29455491
1764763903.087606,-2.15166,3.00622,0.13734,-0.88879167,0.339659775,-0.29455491
1764763903.0886683,-2.15166,3.00622,0.13734,-0.88879167,0.339659775,-0.29455491
1764763903.0886683,-2.15166,3.00622,0.13734,-0.88879167,0.339659775,-0.29455491
1764763903.0886683,-2.15166,3.00622,0.13734,-0.88879167,0.339659775,-0.29455491
1764763903.0886683,-2.15166,3.00622,0.13734,-0.88879167,0.339659775,-0.29455491
1764763903.0886683,-2.15166,3.00622,0.13734,-0.88879167,0.339659775,-0.29455491
1764763903.0886683,-1.70912,3.34194,0.44254,-0.889218915,0.33972081,-0.294127665
1764763903.0886683,-1.70912,3.34194,0.44254,-0.889218915,0.33972081,-0.294127665
1764763903.0886683,-1.70912,3.34194,0.44254,-0.889218915,0.33972081,-0.294127665
1764763903.0886683,-1.70912,3.34194,0.44254,-0.889218915,0.33972081,-0.294127665
1764763903.0886683,-1.70912,3.34194,0.44254,-0.889218915,0.33972081,-0.294127665
1764763903.0886683,-1.70912,3.34194,0.44254,-0.889218915,0.33972081,-0.294127665
1764763903.0886683,-1.70912,3.34194,0.44254,-0.889218915,0.33972081,-0.294127665
1764763903.0886683,-1.70912,3.34194,0.44254,-0.889218915,0.33972081,-0.294127665
1764763903.0886683,-1.70912,3.34194,0.44254,-0.889218915,0.33972081,-0.294127665
1764763903.0886683,-1.70912,3.34194,0.44254,-0.889218915,0.33972081,-0.294127665
1764763903.0886683,-2.38056,3.1283,0.06104,-0.88781511,0.339415635,-0.294860085
1764763903.0886683,-2.38056,3.1283,0.06104,-0.88781511,0.339415635,-0.294860085
1764763903.134783,-2.38056,3.1283,0.06104,-0.88781511,0.339415635,-0.294860085
1764763903.134783,-2.38056,3.1283,0.06104,-0.88781511,0.339415635,-0.294860085
1764763903.134783,-2.38056,3.1283,0.06104,-0.88781511,0.339415635,-0.294860085
1764763903.134783,-2.38056,3.1283,0.06104,-0.88781511,0.339415635,-0.294860085
1764763903.134783,-2.38056,3.1283,0.06104,-0.88781511,0.339415635,-0.294860085
1764763903.134783,-2.38056,3.1283,0.06104,-0.88781511,0.339415635,-0.294860085
1764763903.134783,-2.38056,3.1283,0.06104,-0.88781511,0.339415635,-0.294860085
1764763903.134783,-2.38056,3.1283,0.06104,-0.88781511,0.339415635,-0.294860085
1764763903.134783,-2.70102,2.94518,0.0,-0.88891374,0.339171495,-0.29492112
1764763903.134783,-2.70102,2.94518,0.0,-0.88891374,0.339171495,-0.29492112
1764763903.134783,-2.70102,2.94518,0.0,-0.88891374,0.339171495,-0.29492112
1764763903.134783,-2.70102,2.94518,0.0,-0.88891374,0.339171495,-0.29492112
1764763903.134783,-2.70102,2.94518,0.0,-0.88891374,0.339171495,-0.29492112
1764763903.134783,-2.70102,2.94518,0.0,-0.88891374,0.339171495,-0.29492112
1764763903.134783,-2.70102,2.94518,0.0,-0.88891374,0.339171495,-0.29492112
1764763903.13631,-2.70102,2.94518,0.0,-0.88891374,0.339171495,-0.29492112
1764763903.13631,-2.70102,2.94518,0.0,-0.88891374,0.339171495,-0.29492112
1764763903.13631,-2.70102,2.94518,0.0,-0.88891374,0.339171495,-0.29492112
1764763903.13631,-2.38056,3.4335,1.41918,-0.8917823850000001,0.340392195,-0.294493875
1764763903.13631,-2.38056,3.4335,1.41918,-0.8917823850000001,0.340392195,-0.294493875
1764763903.13631,-2.38056,3.4335,1.41918,-0.8917823850000001,0.340392195,-0.294493875
1764763903.13631,-2.38056,3.4335,1.41918,-0.8917823850000001,0.340392195,-0.294493875
1764763903.13631,-2.38056,3.4335,1.41918,-0.8917823850000001,0.340392195,-0.294493875
1764763903.1368296,-2.38056,3.4335,1.41918,-0.8917823850000001,0.340392195,-0.294493875
1764763903.1824872,-2.38056,3.4335,1.41918,-0.8917823850000001,0.340392195,-0.294493875
1764763903.1824872,-2.38056,3.4335,1.41918,-0.8917823850000001,0.340392195,-0.294493875
1764763903.1824872,-2.38056,3.4335,1.41918,-0.8917823850000001,0.340392195,-0.294493875
1764763903.1824872,-2.38056,3.4335,1.41918,-0.8917823850000001,0.340392195,-0.294493875
1764763903.1824872,-2.30426,3.87604,1.35814,-0.890927895,0.341979105,-0.2941887
1764763903.1824872,-2.30426,3.87604,1.35814,-0.890927895,0.341979105,-0.2941887
1764763903.1824872,-2.30426,3.87604,1.35814,-0.890927895,0.341979105,-0.2941887
1764763903.183015,-2.30426,3.87604,1.35814,-0.890927895,0.341979105,-0.2941887
1764763903.183015,-2.30426,3.87604,1.35814,-0.890927895,0.341979105,-0.2941887
1764763903.183015,-2.30426,3.87604,1.35814,-0.890927895,0.341979105,-0.2941887
1764763903.183015,-2.30426,3.87604,1.35814,-0.890927895,0.341979105,-0.2941887
1764763903.183015,-2.30426,3.87604,1.35814,-0.890927895,0.341979105,-0.2941887
1764763903.183015,-2.30426,3.87604,1.35814,-0.890927895,0.341979105,-0.2941887
1764763903.183015,-2.30426,3.87604,1.35814,-0.890927895,0.341979105,-0.2941887
1764763903.183015,-1.84646,3.55558,1.00716,-0.889096845,0.34252842,-0.294371805
1764763903.183015,-1.84646,3.55558,1.00716,-0.889096845,0.34252842,-0.294371805
1764763903.183015,-1.84646,3.55558,1.00716,-0.889096845,0.34252842,-0.294371805
1764763903.183015,-1.84646,3.55558,1.00716,-0.889096845,0.34252842,-0.294371805
1764763903.183015,-1.84646,3.55558,1.00716,-0.889096845,0.34252842,-0.294371805
1764763903.183015,-1.84646,3.55558,1.00716,-0.889096845,0.34252842,-0.294371805
1764763903.183015,-1.84646,3.55558,1.00716,-0.889096845,0.34252842,-0.294371805
1764763903.183015,-1.84646,3.55558,1.00716,-0.889096845,0.34252842,-0.294371805
1764763903.22902,-1.84646,3.55558,1.00716,-0.889096845,0.34252842,-0.294371805
1764763903.22902,-1.84646,3.55558,1.00716,-0.889096845,0.34252842,-0.294371805
1764763903.22902,-2.48738,3.5861,0.09156,-0.887143725,0.340880475,-0.294738015
1764763903.22902,-2.48738,3.5861,0.09156,-0.887143725,0.340880475,-0.294738015
1764763903.22902,-2.48738,3.5861,0.09156,-0.887143725,0.340880475,-0.294738015
1764763903.22902,-2.48738,3.5861,0.09156,-0.887143725,0.340880475,-0.294738015
1764763903.22902,-2.48738,3.5861,0.09156,-0.887143725,0.340880475,-0.294738015
1764763903.22902,-2.48738,3.5861,0.09156,-0.887143725,0.340880475,-0.294738015
1764763903.22902,-2.48738,3.5861,0.09156,-0.887143725,0.340880475,-0.294738015
1764763903.22902,-2.48738,3.5861,0.09156,-0.887143725,0.340880475,-0.294738015
1764763903.22902,-2.48738,3.5861,0.09156,-0.887143725,0.340880475,-0.294738015
1764763903.22902,-2.48738,3.5861,0.09156,-0.887143725,0.340880475,-0.294738015
1764763903.22902,-3.40298,3.44876,0.1678599999999999,-0.887509935,0.339415635,-0.294860085
1764763903.22902,-3.40298,3.44876,0.1678599999999999,-0.887509935,0.339415635,-0.294860085
1764763903.22902,-3.40298,3.44876,0.1678599999999999,-0.887509935,0.339415635,-0.294860085
1764763903.22902,-3.40298,3.44876,0.1678599999999999,-0.887509935,0.339415635,-0.294860085
1764763903.22902,-3.40298,3.44876,0.1678599999999999,-0.887509935,0.339415635,-0.294860085
1764763903.22902,-3.40298,3.44876,0.1678599999999999,-0.887509935,0.339415635,-0.294860085
1764763903.22902,-3.40298,3.44876,0.1678599999999999,-0.887509935,0.339415635,-0.294860085
1764763903.22902,-3.40298,3.44876,0.1678599999999999,-0.887509935,0.339415635,-0.294860085
1764763903.22902,-3.40298,3.44876,0.1678599999999999,-0.887509935,0.339415635,-0.294860085
1764763903.22902,-3.40298,3.44876,0.1678599999999999,-0.887509935,0.339415635,-0.294860085
1764763903.22902,-4.1965,3.26564,0.4578,-0.88757097,0.340148055,-0.294005595
1764763903.22902,-4.1965,3.26564,0.4578,-0.88757097,0.340148055,-0.294005595
1764763903.2750475,-4.1965,3.26564,0.4578,-0.88757097,0.340148055,-0.294005595
1764763903.2755554,-4.1965,3.26564,0.4578,-0.88757097,0.340148055,-0.294005595
1764763903.2755554,-4.1965,3.26564,0.4578,-0.88757097,0.340148055,-0.294005595
1764763903.2755554,-4.1965,3.26564,0.4578,-0.88757097,0.340148055,-0.294005595
1764763903.2755554,-4.1965,3.26564,0.4578,-0.88757097,0.340148055,-0.294005595
1764763903.2755554,-4.1965,3.26564,0.4578,-0.88757097,0.340148055,-0.294005595
1764763903.2755554,-4.1965,3.26564,0.4578,-0.88757097,0.340148055,-0.294005595
1764763903.2755554,-4.1965,3.26564,0.4578,-0.88757097,0.340148055,-0.294005595
1764763903.2755554,-4.21176,2.8994,0.18312,-0.887876145,0.3405753,-0.29309007
1764763903.2755554,-4.21176,2.8994,0.18312,-0.887876145,0.3405753,-0.29309007
1764763903.2755554,-4.21176,2.8994,0.18312,-0.887876145,0.3405753,-0.29309007
1764763903.2755554,-4.21176,2.8994,0.18312,-0.887876145,0.3405753,-0.29309007
1764763903.2755554,-4.21176,2.8994,0.18312,-0.887876145,0.3405753,-0.29309007
1764763903.2755554,-4.21176,2.8994,0.18312,-0.887876145,0.3405753,-0.29309007
1764763903.2755554,-4.21176,2.8994,0.18312,-0.887876145,0.3405753,-0.29309007
1764763903.2755554,-4.21176,2.8994,0.18312,-0.887876145,0.3405753,-0.29309007
1764763903.2755554,-4.21176,2.8994,0.18312,-0.887876145,0.3405753,-0.29309007
1764763903.2755554,-4.21176,2.8994,0.18312,-0.887876145,0.3405753,-0.29309007
1764763903.2755554,-3.55558,3.3572,0.04578,-0.8881202850000001,0.34045323,-0.292906965
1764763903.2755554,-3.55558,3.3572,0.04578,-0.8881202850000001,0.34045323,-0.292906965
1764763903.2755554,-3.55558,3.3572,0.04578,-0.8881202850000001,0.34045323,-0.292906965
1764763903.2755554,-3.55558,3.3572,0.04578,-0.8881202850000001,0.34045323,-0.292906965
1764763903.321732,-3.55558,3.3572,0.04578,-0.8881202850000001,0.34045323,-0.292906965
1764763903.321732,-3.55558,3.3572,0.04578,-0.8881202850000001,0.34045323,-0.292906965
1764763903.321732,-3.55558,3.3572,0.04578,-0.8881202850000001,0.34045323,-0.292906965
1764763903.321732,-3.55558,3.3572,0.04578,-0.8881202850000001,0.34045323,-0.292906965
1764763903.321732,-3.55558,3.3572,0.04578,-0.8881202850000001,0.34045323,-0.292906965
1764763903.321732,-3.55558,3.3572,0.04578,-0.8881202850000001,0.34045323,-0.292906965
1764763903.321732,-3.37246,3.06726,0.21364,-0.88940202,0.340270125,-0.293273175
1764763903.321732,-3.37246,3.06726,0.21364,-0.88940202,0.340270125,-0.293273175
1764763903.321732,-3.37246,3.06726,0.21364,-0.88940202,0.340270125,-0.293273175
1764763903.321732,-3.37246,3.06726,0.21364,-0.88940202,0.340270125,-0.293273175
1764763903.322759,-3.37246,3.06726,0.21364,-0.88940202,0.340270125,-0.293273175
1764763903.322759,-3.37246,3.06726,0.21364,-0.88940202,0.340270125,-0.293273175
1764763903.322759,-3.37246,3.06726,0.21364,-0.88940202,0.340270125,-0.293273175
1764763903.322759,-3.37246,3.06726,0.21364,-0.88940202,0.340270125,-0.293273175
1764763903.322759,-3.37246,3.06726,0.21364,-0.88940202,0.340270125,-0.293273175
1764763903.322759,-3.37246,3.06726,0.21364,-0.88940202,0.340270125,-0.293273175
1764763903.322759,-4.02864,2.18218,0.54936,-0.889096845,0.340514265,-0.293517315
1764763903.322759,-4.02864,2.18218,0.54936,-0.889096845,0.340514265,-0.293517315
1764763903.322759,-4.02864,2.18218,0.54936,-0.889096845,0.340514265,-0.293517315
1764763903.322759,-4.02864,2.18218,0.54936,-0.889096845,0.340514265,-0.293517315
1764763903.322759,-4.02864,2.18218,0.54936,-0.889096845,0.340514265,-0.293517315
1764763903.322759,-4.02864,2.18218,0.54936,-0.889096845,0.340514265,-0.293517315
1764763903.322759,-4.02864,2.18218,0.54936,-0.889096845,0.340514265,-0.293517315
1764763903.322759,-4.02864,2.18218,0.54936,-0.889096845,0.340514265,-0.293517315
1764763903.322759,-4.02864,2.18218,0.54936,-0.889096845,0.340514265,-0.293517315
1764763903.322759,-4.02864,2.18218,0.54936,-0.889096845,0.340514265,-0.293517315
1764763903.3686948,-5.00528,1.93802,0.25942,-0.887998215,0.341796,-0.294005595
1764763903.3686948,-5.00528,1.93802,0.25942,-0.887998215,0.341796,-0.294005595
1764763903.3686948,-5.00528,1.93802,0.25942,-0.887998215,0.341796,-0.294005595
1764763903.3686948,-5.00528,1.93802,0.25942,-0.887998215,0.341796,-0.294005595
1764763903.3686948,-5.00528,1.93802,0.25942,-0.887998215,0.341796,-0.294005595
1764763903.3686948,-5.00528,1.93802,0.25942,-0.887998215,0.341796,-0.294005595
1764763903.3686948,-5.00528,1.93802,0.25942,-0.887998215,0.341796,-0.294005595
1764763903.369212,-5.00528,1.93802,0.25942,-0.887998215,0.341796,-0.294005595
1764763903.369212,-5.00528,1.93802,0.25942,-0.887998215,0.341796,-0.294005595
1764763903.369212,-5.00528,1.93802,0.25942,-0.887998215,0.341796,-0.294005595
1764763903.369212,-5.17314,1.95328,-0.47306,-0.888242355,0.34277256,-0.29235765
1764763903.369212,-5.17314,1.95328,-0.47306,-0.888242355,0.34277256,-0.29235765
1764763903.369212,-5.17314,1.95328,-0.47306,-0.888242355,0.34277256,-0.29235765
1764763903.369212,-5.17314,1.95328,-0.47306,-0.888242355,0.34277256,-0.29235765
1764763903.369212,-5.17314,1.95328,-0.47306,-0.888242355,0.34277256,-0.29235765
1764763903.369212,-5.17314,1.95328,-0.47306,-0.888242355,0.34277256,-0.29235765
1764763903.369212,-5.17314,1.95328,-0.47306,-0.888242355,0.34277256,-0.29235765
1764763903.369212,-5.17314,1.95328,-0.47306,-0.888242355,0.34277256,-0.29235765
1764763903.369212,-5.17314,1.95328,-0.47306,-0.888242355,0.34277256,-0.29235765
1764763903.369212,-5.17314,1.95328,-0.47306,-0.888242355,0.34277256,-0.29235765
1764763903.369212,-4.62378,1.96854,0.10682,-0.88879167,0.34167393,-0.29077074
1764763903.369212,-4.62378,1.96854,0.10682,-0.88879167,0.34167393,-0.29077074
1764763903.415213,-4.62378,1.96854,0.10682,-0.88879167,0.34167393,-0.29077074
1764763903.415213,-4.62378,1.96854,0.10682,-0.88879167,0.34167393,-0.29077074
1764763903.415213,-4.62378,1.96854,0.10682,-0.88879167,0.34167393,-0.29077074
1764763903.415213,-4.62378,1.96854,0.10682,-0.88879167,0.34167393,-0.29077074
1764763903.415213,-4.62378,1.96854,0.10682,-0.88879167,0.34167393,-0.29077074
1764763903.415213,-4.62378,1.96854,0.10682,-0.88879167,0.34167393,-0.29077074
1764763903.415213,-4.62378,1.96854,0.10682,-0.88879167,0.34167393,-0.29077074
1764763903.415213,-4.62378,1.96854,0.10682,-0.88879167,0.34167393,-0.29077074
1764763903.4157188,-3.67766,2.76206,0.3509799999999999,-0.888974775,0.34106358,-0.2893059
1764763903.4157188,-3.67766,2.76206,0.3509799999999999,-0.888974775,0.34106358,-0.2893059
1764763903.4157188,-3.67766,2.76206,0.3509799999999999,-0.888974775,0.34106358,-0.2893059
1764763903.4157188,-3.67766,2.76206,0.3509799999999999,-0.888974775,0.34106358,-0.2893059
1764763903.4157188,-3.67766,2.76206,0.3509799999999999,-0.888974775,0.34106358,-0.2893059
1764763903.4157188,-3.67766,2.76206,0.3509799999999999,-0.888974775,0.34106358,-0.2893059
1764763903.4157188,-3.67766,2.76206,0.3509799999999999,-0.888974775,0.34106358,-0.2893059
1764763903.4157188,-3.67766,2.76206,0.3509799999999999,-0.888974775,0.34106358,-0.2893059
1764763903.4157188,-3.67766,2.76206,0.3509799999999999,-0.888974775,0.34106358,-0.2893059
1764763903.4157188,-3.67766,2.76206,0.3509799999999999,-0.888974775,0.34106358,-0.2893059
1764763903.4157188,-2.60946,3.31142,-0.03052,-0.887876145,0.34033116,-0.287780025
1764763903.4157188,-2.60946,3.31142,-0.03052,-0.887876145,0.34033116,-0.287780025
1764763903.4157188,-2.60946,3.31142,-0.03052,-0.887876145,0.34033116,-0.287780025
1764763903.4157188,-2.60946,3.31142,-0.03052,-0.887876145,0.34033116,-0.287780025
1764763903.4615543,-2.60946,3.31142,-0.03052,-0.887876145,0.34033116,-0.287780025
1764763903.4615543,-2.60946,3.31142,-0.03052,-0.887876145,0.34033116,-0.287780025
1764763903.4615543,-2.60946,3.31142,-0.03052,-0.887876145,0.34033116,-0.287780025
1764763903.4615543,-2.60946,3.31142,-0.03052,-0.887876145,0.34033116,-0.287780025
1764763903.4615543,-2.60946,3.31142,-0.03052,-0.887876145,0.34033116,-0.287780025
1764763903.4615543,-2.60946,3.31142,-0.03052,-0.887876145,0.34033116,-0.287780025
1764763903.4615543,-0.9156,3.23512,-0.50358,-0.888364425,0.33862218,-0.28857348
1764763903.4615543,-0.9156,3.23512,-0.50358,-0.888364425,0.33862218,-0.28857348
1764763903.4615543,-0.9156,3.23512,-0.50358,-0.888364425,0.33862218,-0.28857348
1764763903.4615543,-0.9156,3.23512,-0.50358,-0.888364425,0.33862218,-0.28857348
1764763903.462563,-0.9156,3.23512,-0.50358,-0.888364425,0.33862218,-0.28857348
1764763903.462563,-0.9156,3.23512,-0.50358,-0.888364425,0.33862218,-0.28857348
1764763903.462563,-0.9156,3.23512,-0.50358,-0.888364425,0.33862218,-0.28857348
1764763903.462563,-0.9156,3.23512,-0.50358,-0.888364425,0.33862218,-0.28857348
1764763903.462563,-0.9156,3.23512,-0.50358,-0.888364425,0.33862218,-0.28857348
1764763903.462563,-0.9156,3.23512,-0.50358,-0.888364425,0.33862218,-0.28857348
1764763903.462563,-1.6786,3.46402,0.25942,-0.88927995,0.339171495,-0.289489005
1764763903.462563,-1.6786,3.46402,0.25942,-0.88927995,0.339171495,-0.289489005
1764763903.462563,-1.6786,3.46402,0.25942,-0.88927995,0.339171495,-0.289489005
1764763903.462563,-1.6786,3.46402,0.25942,-0.88927995,0.339171495,-0.289489005
1764763903.462563,-1.6786,3.46402,0.25942,-0.88927995,0.339171495,-0.289489005
1764763903.462563,-1.6786,3.46402,0.25942,-0.88927995,0.339171495,-0.289489005
1764763903.462563,-1.6786,3.46402,0.25942,-0.88927995,0.339171495,-0.289489005
1764763903.462563,-1.6786,3.46402,0.25942,-0.88927995,0.339171495,-0.289489005
1764763903.5096807,-1.6786,3.46402,0.25942,-0.88927995,0.339171495,-0.289489005
1764763903.5096807,-1.6786,3.46402,0.25942,-0.88927995,0.339171495,-0.289489005
1764763903.5096807,-2.16692,3.2046,0.73248,-0.88976823,0.340636335,-0.28893969
1764763903.5096807,-2.16692,3.2046,0.73248,-0.88976823,0.340636335,-0.28893969
1764763903.5096807,-2.16692,3.2046,0.73248,-0.88976823,0.340636335,-0.28893969
1764763903.5096807,-2.16692,3.2046,0.73248,-0.88976823,0.340636335,-0.28893969
1764763903.5096807,-2.16692,3.2046,0.73248,-0.88976823,0.340636335,-0.28893969
1764763903.5096807,-2.16692,3.2046,0.73248,-0.88976823,0.340636335,-0.28893969
1764763903.5096807,-2.16692,3.2046,0.73248,-0.88976823,0.340636335,-0.28893969
1764763903.5096807,-2.16692,3.2046,0.73248,-0.88976823,0.340636335,-0.28893969
1764763903.5096807,-2.16692,3.2046,0.73248,-0.88976823,0.340636335,-0.28893969
1764763903.5096807,-2.16692,3.2046,0.73248,-0.88976823,0.340636335,-0.28893969
1764763903.5096807,-1.99906,3.29616,-0.01526,-0.88879167,0.341857035,-0.28869555
1764763903.5096807,-1.99906,3.29616,-0.01526,-0.88879167,0.341857035,-0.28869555
1764763903.5096807,-1.99906,3.29616,-0.01526,-0.88879167,0.341857035,-0.28869555
1764763903.5096807,-1.99906,3.29616,-0.01526,-0.88879167,0.341857035,-0.28869555
1764763903.5096807,-1.99906,3.29616,-0.01526,-0.88879167,0.341857035,-0.28869555
1764763903.5096807,-1.99906,3.29616,-0.01526,-0.88879167,0.341857035,-0.28869555
1764763903.5096807,-1.99906,3.29616,-0.01526,-0.88879167,0.341857035,-0.28869555
1764763903.5096807,-1.99906,3.29616,-0.01526,-0.88879167,0.341857035,-0.28869555
1764763903.5096807,-1.99906,3.29616,-0.01526,-0.88879167,0.341857035,-0.28869555
1764763903.5096807,-1.99906,3.29616,-0.01526,-0.88879167,0.341857035,-0.28869555
1764763903.5096807,-2.54842,3.55558,0.44254,-0.88830339,0.342589455,-0.28881762
1764763903.5096807,-2.54842,3.55558,0.44254,-0.88830339,0.342589455,-0.28881762
1764763903.5557363,-2.54842,3.55558,0.44254,-0.88830339,0.342589455,-0.28881762
1764763903.5557363,-2.54842,3.55558,0.44254,-0.88830339,0.342589455,-0.28881762
1764763903.5557363,-2.54842,3.55558,0.44254,-0.88830339,0.342589455,-0.28881762
1764763903.5557363,-2.54842,3.55558,0.44254,-0.88830339,0.342589455,-0.28881762
1764763903.5557363,-2.54842,3.55558,0.44254,-0.88830339,0.342589455,-0.28881762
1764763903.5557363,-2.54842,3.55558,0.44254,-0.88830339,0.342589455,-0.28881762
1764763903.5557363,-2.54842,3.55558,0.44254,-0.88830339,0.342589455,-0.28881762
1764763903.5557363,-2.54842,3.55558,0.44254,-0.88830339,0.342589455,-0.28881762
1764763903.5557363,-2.50264,3.1283,0.06104,-0.888852705,0.34155186,-0.2880852
1764763903.5557363,-2.50264,3.1283,0.06104,-0.888852705,0.34155186,-0.2880852
1764763903.5557363,-2.50264,3.1283,0.06104,-0.888852705,0.34155186,-0.2880852
1764763903.5557363,-2.50264,3.1283,0.06104,-0.888852705,0.34155186,-0.2880852
1764763903.5557363,-2.50264,3.1283,0.06104,-0.888852705,0.34155186,-0.2880852
1764763903.5557363,-2.50264,3.1283,0.06104,-0.888852705,0.34155186,-0.2880852
1764763903.5557363,-2.50264,3.1283,0.06104,-0.888852705,0.34155186,-0.2880852
1764763903.5557363,-2.50264,3.1283,0.06104,-0.888852705,0.34155186,-0.2880852
1764763903.5557363,-2.50264,3.1283,0.06104,-0.888852705,0.34155186,-0.2880852
1764763903.5557363,-2.50264,3.1283,0.06104,-0.888852705,0.34155186,-0.2880852
1764763903.5557363,-2.25848,3.11304,0.3357199999999999,-0.8886696000000001,0.341246685,-0.28832934
1764763903.5557363,-2.25848,3.11304,0.3357199999999999,-0.8886696000000001,0.341246685,-0.28832934
1764763903.5557363,-2.25848,3.11304,0.3357199999999999,-0.8886696000000001,0.341246685,-0.28832934
1764763903.5557363,-2.25848,3.11304,0.3357199999999999,-0.8886696000000001,0.341246685,-0.28832934
1764763903.6025472,-2.25848,3.11304,0.3357199999999999,-0.8886696000000001,0.341246685,-0.28832934
1764763903.6025472,-2.25848,3.11304,0.3357199999999999,-0.8886696000000001,0.341246685,-0.28832934
1764763903.6025472,-2.25848,3.11304,0.3357199999999999,-0.8886696000000001,0.341246685,-0.28832934
1764763903.6025472,-2.25848,3.11304,0.3357199999999999,-0.8886696000000001,0.341246685,-0.28832934
1764763903.6025472,-2.25848,3.11304,0.3357199999999999,-0.8886696000000001,0.341246685,-0.28832934
1764763903.6025472,-2.25848,3.11304,0.3357199999999999,-0.8886696000000001,0.341246685,-0.28832934
1764763903.6025472,-2.54842,3.49454,-0.0762999999999999,-0.8886696000000001,0.34106358,-0.288756585
1764763903.6025472,-2.54842,3.49454,-0.0762999999999999,-0.8886696000000001,0.34106358,-0.288756585
1764763903.6025472,-2.54842,3.49454,-0.0762999999999999,-0.8886696000000001,0.34106358,-0.288756585
1764763903.6025472,-2.54842,3.49454,-0.0762999999999999,-0.8886696000000001,0.34106358,-0.288756585
1764763903.6025472,-2.54842,3.49454,-0.0762999999999999,-0.8886696000000001,0.34106358,-0.288756585
1764763903.6025472,-2.54842,3.49454,-0.0762999999999999,-0.8886696000000001,0.34106358,-0.288756585
1764763903.6025472,-2.54842,3.49454,-0.0762999999999999,-0.8886696000000001,0.34106358,-0.288756585
1764763903.6025472,-2.54842,3.49454,-0.0762999999999999,-0.8886696000000001,0.34106358,-0.288756585
1764763903.6025472,-2.54842,3.49454,-0.0762999999999999,-0.8886696000000001,0.34106358,-0.288756585
1764763903.6025472,-2.54842,3.49454,-0.0762999999999999,-0.8886696000000001,0.34106358,-0.288756585
1764763903.6025472,-1.89224,3.26564,-0.2289,-0.888242355,0.340392195,-0.287291745
1764763903.6025472,-1.89224,3.26564,-0.2289,-0.888242355,0.340392195,-0.287291745
1764763903.6025472,-1.89224,3.26564,-0.2289,-0.888242355,0.340392195,-0.287291745
1764763903.6025472,-1.89224,3.26564,-0.2289,-0.888242355,0.340392195,-0.287291745
1764763903.6025472,-1.89224,3.26564,-0.2289,-0.888242355,0.340392195,-0.287291745
1764763903.6025472,-1.89224,3.26564,-0.2289,-0.888242355,0.340392195,-0.287291745
1764763903.6025472,-1.89224,3.26564,-0.2289,-0.888242355,0.340392195,-0.287291745
1764763903.6025472,-1.89224,3.26564,-0.2289,-0.888242355,0.340392195,-0.287291745
1764763903.6493747,-1.89224,3.26564,-0.2289,-0.888242355,0.340392195,-0.287291745
1764763903.6493747,-1.89224,3.26564,-0.2289,-0.888242355,0.340392195,-0.287291745
1764763903.6493747,-0.9003399999999999,3.60136,0.3051999999999999,-0.888974775,0.33984288,-0.286559325
1764763903.6493747,-0.9003399999999999,3.60136,0.3051999999999999,-0.888974775,0.33984288,-0.286559325
1764763903.6493747,-0.9003399999999999,3.60136,0.3051999999999999,-0.888974775,0.33984288,-0.286559325
1764763903.6493747,-0.9003399999999999,3.60136,0.3051999999999999,-0.888974775,0.33984288,-0.286559325
1764763903.6493747,-0.9003399999999999,3.60136,0.3051999999999999,-0.888974775,0.33984288,-0.286559325
1764763903.6493747,-0.9003399999999999,3.60136,0.3051999999999999,-0.888974775,0.33984288,-0.286559325
1764763903.6493747,-0.9003399999999999,3.60136,0.3051999999999999,-0.888974775,0.33984288,-0.286559325
1764763903.6493747,-0.9003399999999999,3.60136,0.3051999999999999,-0.888974775,0.33984288,-0.286559325
1764763903.6493747,-0.9003399999999999,3.60136,0.3051999999999999,-0.888974775,0.33984288,-0.286559325
1764763903.6493747,-0.9003399999999999,3.60136,0.3051999999999999,-0.888974775,0.33984288,-0.286559325
1764763903.6493747,0.13734,3.54032,0.48832,-0.888974775,0.33947667,-0.28625415
1764763903.6493747,0.13734,3.54032,0.48832,-0.888974775,0.33947667,-0.28625415
1764763903.6493747,0.13734,3.54032,0.48832,-0.888974775,0.33947667,-0.28625415
1764763903.6493747,0.13734,3.54032,0.48832,-0.888974775,0.33947667,-0.28625415
1764763903.6493747,0.13734,3.54032,0.48832,-0.888974775,0.33947667,-0.28625415
1764763903.6493747,0.13734,3.54032,0.48832,-0.888974775,0.33947667,-0.28625415
1764763903.6493747,0.13734,3.54032,0.48832,-0.888974775,0.33947667,-0.28625415
1764763903.6493747,0.13734,3.54032,0.48832,-0.888974775,0.33947667,-0.28625415
1764763903.6493747,0.13734,3.54032,0.48832,-0.888974775,0.33947667,-0.28625415
1764763903.6493747,0.13734,3.54032,0.48832,-0.888974775,0.33947667,-0.28625415
1764763903.6493747,0.41202,3.5098,-0.1678599999999999,-0.888974775,0.34094151,-0.28649829
1764763903.6493747,0.41202,3.5098,-0.1678599999999999,-0.888974775,0.34094151,-0.28649829
1764763903.6948426,0.41202,3.5098,-0.1678599999999999,-0.888974775,0.34094151,-0.28649829
1764763903.6948426,0.41202,3.5098,-0.1678599999999999,-0.888974775,0.34094151,-0.28649829
1764763903.6948426,0.41202,3.5098,-0.1678599999999999,-0.888974775,0.34094151,-0.28649829
1764763903.6948426,0.41202,3.5098,-0.1678599999999999,-0.888974775,0.34094151,-0.28649829
1764763903.6948426,0.41202,3.5098,-0.1678599999999999,-0.888974775,0.34094151,-0.28649829
1764763903.6948426,0.41202,3.5098,-0.1678599999999999,-0.888974775,0.34094151,-0.28649829
1764763903.6948426,0.41202,3.5098,-0.1678599999999999,-0.888974775,0.34094151,-0.28649829
1764763903.6948426,0.41202,3.5098,-0.1678599999999999,-0.888974775,0.34094151,-0.28649829
1764763903.6948426,0.8392999999999999,3.84552,0.01526,-0.888852705,0.339293565,-0.28649829
1764763903.6948426,0.8392999999999999,3.84552,0.01526,-0.888852705,0.339293565,-0.28649829
1764763903.6948426,0.8392999999999999,3.84552,0.01526,-0.888852705,0.339293565,-0.28649829
1764763903.6948426,0.8392999999999999,3.84552,0.01526,-0.888852705,0.339293565,-0.28649829
1764763903.6948426,0.8392999999999999,3.84552,0.01526,-0.888852705,0.339293565,-0.28649829
1764763903.6948426,0.8392999999999999,3.84552,0.01526,-0.888852705,0.339293565,-0.28649829
1764763903.6948426,0.8392999999999999,3.84552,0.01526,-0.888852705,0.339293565,-0.28649829
1764763903.6948426,0.8392999999999999,3.84552,0.01526,-0.888852705,0.339293565,-0.28649829
1764763903.6948426,0.8392999999999999,3.84552,0.01526,-0.888852705,0.339293565,-0.28649829
1764763903.6954012,0.8392999999999999,3.84552,0.01526,-0.888852705,0.339293565,-0.28649829
1764763903.6954012,1.72438,3.7387,1.57178,-0.892026525,0.339781845,-0.287047605
1764763903.6954012,1.72438,3.7387,1.57178,-0.892026525,0.339781845,-0.287047605
1764763903.6954012,1.72438,3.7387,1.57178,-0.892026525,0.339781845,-0.287047605
1764763903.6954012,1.72438,3.7387,1.57178,-0.892026525,0.339781845,-0.287047605
1764763903.741045,1.72438,3.7387,1.57178,-0.892026525,0.339781845,-0.287047605
1764763903.741045,1.72438,3.7387,1.57178,-0.892026525,0.339781845,-0.287047605
1764763903.741045,1.72438,3.7387,1.57178,-0.892026525,0.339781845,-0.287047605
1764763903.74218,1.72438,3.7387,1.57178,-0.892026525,0.339781845,-0.287047605
1764763903.74218,1.72438,3.7387,1.57178,-0.892026525,0.339781845,-0.287047605
1764763903.74218,1.72438,3.7387,1.57178,-0.892026525,0.339781845,-0.287047605
1764763903.74218,1.8006799999999998,3.38772,1.93802,-0.892026525,0.34081944,-0.286925535
1764763903.74218,1.8006799999999998,3.38772,1.93802,-0.892026525,0.34081944,-0.286925535
1764763903.74218,1.8006799999999998,3.38772,1.93802,-0.892026525,0.34081944,-0.286925535
1764763903.74218,1.8006799999999998,3.38772,1.93802,-0.892026525,0.34081944,-0.286925535
1764763903.74218,1.8006799999999998,3.38772,1.93802,-0.892026525,0.34081944,-0.286925535
1764763903.74218,1.8006799999999998,3.38772,1.93802,-0.892026525,0.34081944,-0.286925535
1764763903.74218,1.8006799999999998,3.38772,1.93802,-0.892026525,0.34081944,-0.286925535
1764763903.74218,1.8006799999999998,3.38772,1.93802,-0.892026525,0.34081944,-0.286925535
1764763903.74218,1.8006799999999998,3.38772,1.93802,-0.892026525,0.34081944,-0.286925535
1764763903.74218,1.8006799999999998,3.38772,1.93802,-0.892026525,0.34081944,-0.286925535
1764763903.74218,2.50264,3.34194,1.35814,-0.890927895,0.341734965,-0.287413815
1764763903.74218,2.50264,3.34194,1.35814,-0.890927895,0.341734965,-0.287413815
1764763903.74218,2.50264,3.34194,1.35814,-0.890927895,0.341734965,-0.287413815
1764763903.74218,2.50264,3.34194,1.35814,-0.890927895,0.341734965,-0.287413815
1764763903.74218,2.50264,3.34194,1.35814,-0.890927895,0.341734965,-0.287413815
1764763903.74218,2.50264,3.34194,1.35814,-0.890927895,0.341734965,-0.287413815
1764763903.74218,2.50264,3.34194,1.35814,-0.890927895,0.341734965,-0.287413815
1764763903.74218,2.50264,3.34194,1.35814,-0.890927895,0.341734965,-0.287413815
1764763903.7873683,2.50264,3.34194,1.35814,-0.890927895,0.341734965,-0.287413815
1764763903.7873683,2.50264,3.34194,1.35814,-0.890927895,0.341734965,-0.287413815
1764763903.7881343,2.63998,3.64714,0.8392999999999999,-0.887998215,0.34118565,-0.288268305
1764763903.7881343,2.63998,3.64714,0.8392999999999999,-0.887998215,0.34118565,-0.288268305
1764763903.7881343,2.63998,3.64714,0.8392999999999999,-0.887998215,0.34118565,-0.288268305
1764763903.7881343,2.63998,3.64714,0.8392999999999999,-0.887998215,0.34118565,-0.288268305
1764763903.7881343,2.63998,3.64714,0.8392999999999999,-0.887998215,0.34118565,-0.288268305
1764763903.7881343,2.63998,3.64714,0.8392999999999999,-0.887998215,0.34118565,-0.288268305
1764763903.7881343,2.63998,3.64714,0.8392999999999999,-0.887998215,0.34118565,-0.288268305
1764763903.7881343,2.63998,3.64714,0.8392999999999999,-0.887998215,0.34118565,-0.288268305
1764763903.7881343,2.63998,3.64714,0.8392999999999999,-0.887998215,0.34118565,-0.288268305
1764763903.7887087,2.63998,3.64714,0.8392999999999999,-0.887998215,0.34118565,-0.288268305
1764763903.7887087,2.3653,4.1202,1.4497,-0.887509935,0.340148055,-0.288512445
1764763903.7887087,2.3653,4.1202,1.4497,-0.887509935,0.340148055,-0.288512445
1764763903.7887087,2.3653,4.1202,1.4497,-0.887509935,0.340148055,-0.288512445
1764763903.7887087,2.3653,4.1202,1.4497,-0.887509935,0.340148055,-0.288512445
1764763903.7887087,2.3653,4.1202,1.4497,-0.887509935,0.340148055,-0.288512445
1764763903.7887087,2.3653,4.1202,1.4497,-0.887509935,0.340148055,-0.288512445
1764763903.7887087,2.3653,4.1202,1.4497,-0.887509935,0.340148055,-0.288512445
1764763903.7887087,2.3653,4.1202,1.4497,-0.887509935,0.340148055,-0.288512445
1764763903.7887087,2.3653,4.1202,1.4497,-0.887509935,0.340148055,-0.288512445
1764763903.7887087,2.3653,4.1202,1.4497,-0.887509935,0.340148055,-0.288512445
1764763903.7887087,1.69386,3.92182,1.3734,-0.88830339,0.34118565,-0.28942797
1764763903.7887087,1.69386,3.92182,1.3734,-0.88830339,0.34118565,-0.28942797
1764763903.835531,1.69386,3.92182,1.3734,-0.88830339,0.34118565,-0.28942797
1764763903.835531,1.69386,3.92182,1.3734,-0.88830339,0.34118565,-0.28942797
1764763903.835531,1.69386,3.92182,1.3734,-0.88830339,0.34118565,-0.28942797
1764763903.835531,1.69386,3.92182,1.3734,-0.88830339,0.34118565,-0.28942797
1764763903.835531,1.69386,3.92182,1.3734,-0.88830339,0.34118565,-0.28942797
1764763903.835531,1.69386,3.92182,1.3734,-0.88830339,0.34118565,-0.28942797
1764763903.835531,1.69386,3.92182,1.3734,-0.88830339,0.34118565,-0.28942797
1764763903.835531,1.69386,3.92182,1.3734,-0.88830339,0.34118565,-0.28942797
1764763903.835531,1.81594,4.97476,0.9156,-0.888364425,0.341490825,-0.289855215
1764763903.835531,1.81594,4.97476,0.9156,-0.888364425,0.341490825,-0.289855215
1764763903.835531,1.81594,4.97476,0.9156,-0.888364425,0.341490825,-0.289855215
1764763903.835531,1.81594,4.97476,0.9156,-0.888364425,0.341490825,-0.289855215
1764763903.835531,1.81594,4.97476,0.9156,-0.888364425,0.341490825,-0.289855215
1764763903.835531,1.81594,4.97476,0.9156,-0.888364425,0.341490825,-0.289855215
1764763903.835531,1.81594,4.97476,0.9156,-0.888364425,0.341490825,-0.289855215
1764763903.835531,1.81594,4.97476,0.9156,-0.888364425,0.341490825,-0.289855215
1764763903.835531,1.81594,4.97476,0.9156,-0.888364425,0.341490825,-0.289855215
1764763903.835531,1.81594,4.97476,0.9156,-0.888364425,0.341490825,-0.289855215
1764763903.835531,1.57178,4.45592,0.79352,-0.8886696000000001,0.341857035,-0.29089281
1764763903.835531,1.57178,4.45592,0.79352,-0.8886696000000001,0.341857035,-0.29089281
1764763903.835531,1.57178,4.45592,0.79352,-0.8886696000000001,0.341857035,-0.29089281
1764763903.835531,1.57178,4.45592,0.79352,-0.8886696000000001,0.341857035,-0.29089281
1764763903.8807294,1.57178,4.45592,0.79352,-0.8886696000000001,0.341857035,-0.29089281
1764763903.8807294,1.57178,4.45592,0.79352,-0.8886696000000001,0.341857035,-0.29089281
1764763903.8807294,1.57178,4.45592,0.79352,-0.8886696000000001,0.341857035,-0.29089281
1764763903.8807294,1.57178,4.45592,0.79352,-0.8886696000000001,0.341857035,-0.29089281
1764763903.8807294,1.57178,4.45592,0.79352,-0.8886696000000001,0.341857035,-0.29089281
1764763903.8807294,1.57178,4.45592,0.79352,-0.8886696000000001,0.341857035,-0.29089281
1764763903.8807294,0.56462,4.22702,1.38866,-0.8898903,0.342467385,-0.29247972
1764763903.8807294,0.56462,4.22702,1.38866,-0.8898903,0.342467385,-0.29247972
1764763903.8807294,0.56462,4.22702,1.38866,-0.8898903,0.342467385,-0.29247972
1764763903.8807294,0.56462,4.22702,1.38866,-0.8898903,0.342467385,-0.29247972
1764763903.8807294,0.56462,4.22702,1.38866,-0.8898903,0.342467385,-0.29247972
1764763903.8807294,0.56462,4.22702,1.38866,-0.8898903,0.342467385,-0.29247972
1764763903.8807294,0.56462,4.22702,1.38866,-0.8898903,0.342467385,-0.29247972
1764763903.8807294,0.56462,4.22702,1.38866,-0.8898903,0.342467385,-0.29247972
1764763903.8807294,0.56462,4.22702,1.38866,-0.8898903,0.342467385,-0.29247972
1764763903.8807294,0.56462,4.22702,1.38866,-0.8898903,0.342467385,-0.29247972
1764763903.8807294,-0.97664,3.86078,1.00716,-0.88940202,0.34204014,-0.293029035
1764763903.8807294,-0.97664,3.86078,1.00716,-0.88940202,0.34204014,-0.293029035
1764763903.8807294,-0.97664,3.86078,1.00716,-0.88940202,0.34204014,-0.293029035
1764763903.8807294,-0.97664,3.86078,1.00716,-0.88940202,0.34204014,-0.293029035
1764763903.8807294,-0.97664,3.86078,1.00716,-0.88940202,0.34204014,-0.293029035
1764763903.8807294,-0.97664,3.86078,1.00716,-0.88940202,0.34204014,-0.293029035
1764763903.8807294,-0.97664,3.86078,1.00716,-0.88940202,0.34204014,-0.293029035
1764763903.8807294,-0.97664,3.86078,1.00716,-0.88940202,0.34204014,-0.293029035
1764763903.9289138,-0.97664,3.86078,1.00716,-0.88940202,0.34204014,-0.293029035
1764763903.9289138,-0.97664,3.86078,1.00716,-0.88940202,0.34204014,-0.293029035
1764763903.9289138,-1.6633399999999998,3.7387,0.44254,-0.88793718,0.34167393,-0.292418685
1764763903.9289138,-1.6633399999999998,3.7387,0.44254,-0.88793718,0.34167393,-0.292418685
1764763903.9289138,-1.6633399999999998,3.7387,0.44254,-0.88793718,0.34167393,-0.292418685
1764763903.9289138,-1.6633399999999998,3.7387,0.44254,-0.88793718,0.34167393,-0.292418685
1764763903.9289138,-1.6633399999999998,3.7387,0.44254,-0.88793718,0.34167393,-0.292418685
1764763903.9289138,-1.6633399999999998,3.7387,0.44254,-0.88793718,0.34167393,-0.292418685
1764763903.9289138,-1.6633399999999998,3.7387,0.44254,-0.88793718,0.34167393,-0.292418685
1764763903.9289138,-1.6633399999999998,3.7387,0.44254,-0.88793718,0.34167393,-0.292418685
1764763903.9289138,-1.6633399999999998,3.7387,0.44254,-0.88793718,0.34167393,-0.292418685
1764763903.9289138,-1.6633399999999998,3.7387,0.44254,-0.88793718,0.34167393,-0.292418685
1764763903.9289138,-1.63282,3.64714,0.8087799999999999,-0.887876145,0.341002545,-0.291808335
1764763903.9289138,-1.63282,3.64714,0.8087799999999999,-0.887876145,0.341002545,-0.291808335
1764763903.9289138,-1.63282,3.64714,0.8087799999999999,-0.887876145,0.341002545,-0.291808335
1764763903.9289138,-1.63282,3.64714,0.8087799999999999,-0.887876145,0.341002545,-0.291808335
1764763903.9289138,-1.63282,3.64714,0.8087799999999999,-0.887876145,0.341002545,-0.291808335
1764763903.9289138,-1.63282,3.64714,0.8087799999999999,-0.887876145,0.341002545,-0.291808335
1764763903.9289138,-1.63282,3.64714,0.8087799999999999,-0.887876145,0.341002545,-0.291808335
1764763903.9289138,-1.63282,3.64714,0.8087799999999999,-0.887876145,0.341002545,-0.291808335
1764763903.9289138,-1.63282,3.64714,0.8087799999999999,-0.887876145,0.341002545,-0.291808335
1764763903.9289138,-1.63282,3.64714,0.8087799999999999,-0.887876145,0.341002545,-0.291808335
1764763903.9289138,-0.01526,3.86078,0.51884,-0.8886696000000001,0.340025985,-0.28918383
1764763903.9301922,-0.01526,3.86078,0.51884,-0.8886696000000001,0.340025985,-0.28918383
1764763903.976342,-0.01526,3.86078,0.51884,-0.8886696000000001,0.340025985,-0.28918383
1764763903.977412,-0.01526,3.86078,0.51884,-0.8886696000000001,0.340025985,-0.28918383
1764763903.977412,-0.01526,3.86078,0.51884,-0.8886696000000001,0.340025985,-0.28918383
1764763903.977412,-0.01526,3.86078,0.51884,-0.8886696000000001,0.340025985,-0.28918383
1764763903.977412,-0.01526,3.86078,0.51884,-0.8886696000000001,0.340025985,-0.28918383
1764763903.977412,-0.01526,3.86078,0.51884,-0.8886696000000001,0.340025985,-0.28918383
1764763903.977412,-0.01526,3.86078,0.51884,-0.8886696000000001,0.340025985,-0.28918383
1764763903.977412,-0.01526,3.86078,0.51884,-0.8886696000000001,0.340025985,-0.28918383
1764763903.977412,1.1445,4.02864,0.7019599999999999,-0.889463055,0.34008702,-0.28771899
1764763903.977412,1.1445,4.02864,0.7019599999999999,-0.889463055,0.34008702,-0.28771899
1764763903.977412,1.1445,4.02864,0.7019599999999999,-0.889463055,0.34008702,-0.28771899
1764763903.977412,1.1445,4.02864,0.7019599999999999,-0.889463055,0.34008702,-0.28771899
1764763903.977412,1.1445,4.02864,0.7019599999999999,-0.889463055,0.34008702,-0.28771899
1764763903.977412,1.1445,4.02864,0.7019599999999999,-0.889463055,0.34008702,-0.28771899
1764763903.977412,1.1445,4.02864,0.7019599999999999,-0.889463055,0.34008702,-0.28771899
1764763903.977412,1.1445,4.02864,0.7019599999999999,-0.889463055,0.34008702,-0.28771899
1764763903.977412,1.1445,4.02864,0.7019599999999999,-0.889463055,0.34008702,-0.28771899
1764763903.977412,1.1445,4.02864,0.7019599999999999,-0.889463055,0.34008702,-0.28771899
1764763903.9784217,1.86172,4.48644,0.73248,-0.88879167,0.339781845,-0.288024165
1764763903.9784217,1.86172,4.48644,0.73248,-0.88879167,0.339781845,-0.288024165
1764763903.9784217,1.86172,4.48644,0.73248,-0.88879167,0.339781845,-0.288024165
1764763903.9784217,1.86172,4.48644,0.73248,-0.88879167,0.339781845,-0.288024165
1764763904.021413,1.86172,4.48644,0.73248,-0.88879167,0.339781845,-0.288024165
1764763904.021413,1.86172,4.48644,0.73248,-0.88879167,0.339781845,-0.288024165
1764763904.021413,1.86172,4.48644,0.73248,-0.88879167,0.339781845,-0.288024165
1764763904.021413,1.86172,4.48644,0.73248,-0.88879167,0.339781845,-0.288024165
1764763904.021413,1.86172,4.48644,0.73248,-0.88879167,0.339781845,-0.288024165
1764763904.021413,1.86172,4.48644,0.73248,-0.88879167,0.339781845,-0.288024165
1764763904.021413,1.70912,3.93708,0.97664,-0.88842546,0.339415635,-0.289244865
1764763904.021413,1.70912,3.93708,0.97664,-0.88842546,0.339415635,-0.289244865
1764763904.021413,1.70912,3.93708,0.97664,-0.88842546,0.339415635,-0.289244865
1764763904.021413,1.70912,3.93708,0.97664,-0.88842546,0.339415635,-0.289244865
1764763904.021413,1.70912,3.93708,0.97664,-0.88842546,0.339415635,-0.289244865
1764763904.021413,1.70912,3.93708,0.97664,-0.88842546,0.339415635,-0.289244865
1764763904.021413,1.70912,3.93708,0.97664,-0.88842546,0.339415635,-0.289244865
1764763904.021413,1.70912,3.93708,0.97664,-0.88842546,0.339415635,-0.289244865
1764763904.021413,1.70912,3.93708,0.97664,-0.88842546,0.339415635,-0.289244865
1764763904.021413,1.70912,3.93708,0.97664,-0.88842546,0.339415635,-0.289244865
1764763904.021413,1.63282,3.64714,1.2055399999999998,-0.88940202,0.340270125,-0.29077074
1764763904.021413,1.63282,3.64714,1.2055399999999998,-0.88940202,0.340270125,-0.29077074
1764763904.021413,1.63282,3.64714,1.2055399999999998,-0.88940202,0.340270125,-0.29077074
1764763904.021413,1.63282,3.64714,1.2055399999999998,-0.88940202,0.340270125,-0.29077074
1764763904.021413,1.63282,3.64714,1.2055399999999998,-0.88940202,0.340270125,-0.29077074
1764763904.021413,1.63282,3.64714,1.2055399999999998,-0.88940202,0.340270125,-0.29077074
1764763904.0229304,1.63282,3.64714,1.2055399999999998,-0.88940202,0.340270125,-0.29077074
1764763904.0229304,1.63282,3.64714,1.2055399999999998,-0.88940202,0.340270125,-0.29077074
1764763904.0684905,1.63282,3.64714,1.2055399999999998,-0.88940202,0.340270125,-0.29077074
1764763904.0684905,1.63282,3.64714,1.2055399999999998,-0.88940202,0.340270125,-0.29077074
1764763904.0684905,1.4039199999999998,3.95234,1.05294,-0.8891578800000001,0.341124615,-0.290831775
1764763904.0684905,1.4039199999999998,3.95234,1.05294,-0.8891578800000001,0.341124615,-0.290831775
1764763904.0684905,1.4039199999999998,3.95234,1.05294,-0.8891578800000001,0.341124615,-0.290831775
1764763904.0684905,1.4039199999999998,3.95234,1.05294,-0.8891578800000001,0.341124615,-0.290831775
1764763904.0684905,1.4039199999999998,3.95234,1.05294,-0.8891578800000001,0.341124615,-0.290831775
1764763904.0684905,1.4039199999999998,3.95234,1.05294,-0.8891578800000001,0.341124615,-0.290831775
1764763904.0690043,1.4039199999999998,3.95234,1.05294,-0.8891578800000001,0.341124615,-0.290831775
1764763904.0690043,1.4039199999999998,3.95234,1.05294,-0.8891578800000001,0.341124615,-0.290831775
1764763904.0690043,1.4039199999999998,3.95234,1.05294,-0.8891578800000001,0.341124615,-0.290831775
1764763904.0690043,1.4039199999999998,3.95234,1.05294,-0.8891578800000001,0.341124615,-0.290831775
1764763904.0690043,0.9156,4.48644,1.19028,-0.88879167,0.342101175,-0.291075915
1764763904.0690043,0.9156,4.48644,1.19028,-0.88879167,0.342101175,-0.291075915
1764763904.0690043,0.9156,4.48644,1.19028,-0.88879167,0.342101175,-0.291075915
1764763904.0690043,0.9156,4.48644,1.19028,-0.88879167,0.342101175,-0.291075915
1764763904.0690043,0.9156,4.48644,1.19028,-0.88879167,0.342101175,-0.291075915
1764763904.0690043,0.9156,4.48644,1.19028,-0.88879167,0.342101175,-0.291075915
1764763904.0690043,0.9156,4.48644,1.19028,-0.88879167,0.342101175,-0.291075915
1764763904.0690043,0.9156,4.48644,1.19028,-0.88879167,0.342101175,-0.291075915
1764763904.0690043,0.9156,4.48644,1.19028,-0.88879167,0.342101175,-0.291075915
1764763904.0690043,0.9156,4.48644,1.19028,-0.88879167,0.342101175,-0.291075915
1764763904.0690043,0.65618,4.21176,1.00716,-0.88842546,0.342101175,-0.29150316
1764763904.0690043,0.65618,4.21176,1.00716,-0.88842546,0.342101175,-0.29150316
1764763904.1183448,0.65618,4.21176,1.00716,-0.88842546,0.342101175,-0.29150316
1764763904.1183448,0.65618,4.21176,1.00716,-0.88842546,0.342101175,-0.29150316
1764763904.1183448,0.65618,4.21176,1.00716,-0.88842546,0.342101175,-0.29150316
1764763904.1183448,0.65618,4.21176,1.00716,-0.88842546,0.342101175,-0.29150316
1764763904.1183448,0.65618,4.21176,1.00716,-0.88842546,0.342101175,-0.29150316
1764763904.1183448,0.65618,4.21176,1.00716,-0.88842546,0.342101175,-0.29150316
1764763904.1183448,0.65618,4.21176,1.00716,-0.88842546,0.342101175,-0.29150316
1764763904.1183448,0.65618,4.21176,1.00716,-0.88842546,0.342101175,-0.29150316
1764763904.1183448,0.6714399999999999,3.64714,1.00716,-0.888364425,0.34130772,-0.29186937
1764763904.1183448,0.6714399999999999,3.64714,1.00716,-0.888364425,0.34130772,-0.29186937
1764763904.1183448,0.6714399999999999,3.64714,1.00716,-0.888364425,0.34130772,-0.29186937
1764763904.1183448,0.6714399999999999,3.64714,1.00716,-0.888364425,0.34130772,-0.29186937
1764763904.1183448,0.6714399999999999,3.64714,1.00716,-0.888364425,0.34130772,-0.29186937
1764763904.1183448,0.6714399999999999,3.64714,1.00716,-0.888364425,0.34130772,-0.29186937
1764763904.1183448,0.6714399999999999,3.64714,1.00716,-0.888364425,0.34130772,-0.29186937
1764763904.1183448,0.6714399999999999,3.64714,1.00716,-0.888364425,0.34130772,-0.29186937
1764763904.1183448,0.6714399999999999,3.64714,1.00716,-0.888364425,0.34130772,-0.29186937
1764763904.1183448,0.6714399999999999,3.64714,1.00716,-0.888364425,0.34130772,-0.29186937
1764763904.1183448,1.05294,3.95234,0.8392999999999999,-0.88781511,0.341246685,-0.291930405
1764763904.1183448,1.05294,3.95234,0.8392999999999999,-0.88781511,0.341246685,-0.291930405
1764763904.1183448,1.05294,3.95234,0.8392999999999999,-0.88781511,0.341246685,-0.291930405
1764763904.1183448,1.05294,3.95234,0.8392999999999999,-0.88781511,0.341246685,-0.291930405
1764763904.1183448,1.05294,3.95234,0.8392999999999999,-0.88781511,0.341246685,-0.291930405
1764763904.1183448,1.05294,3.95234,0.8392999999999999,-0.88781511,0.341246685,-0.291930405
1764763904.1644914,1.05294,3.95234,0.8392999999999999,-0.88781511,0.341246685,-0.291930405
1764763904.1644914,1.05294,3.95234,0.8392999999999999,-0.88781511,0.341246685,-0.291930405
1764763904.1644914,1.05294,3.95234,0.8392999999999999,-0.88781511,0.341246685,-0.291930405
1764763904.1644914,1.05294,3.95234,0.8392999999999999,-0.88781511,0.341246685,-0.291930405
1764763904.1650095,0.97664,4.08968,0.41202,-0.88757097,0.341796,-0.29125902
1764763904.1650095,0.97664,4.08968,0.41202,-0.88757097,0.341796,-0.29125902
1764763904.1650095,0.97664,4.08968,0.41202,-0.88757097,0.341796,-0.29125902
1764763904.1650095,0.97664,4.08968,0.41202,-0.88757097,0.341796,-0.29125902
1764763904.1650095,0.97664,4.08968,0.41202,-0.88757097,0.341796,-0.29125902
1764763904.1650095,0.97664,4.08968,0.41202,-0.88757097,0.341796,-0.29125902
1764763904.1650095,0.97664,4.08968,0.41202,-0.88757097,0.341796,-0.29125902
1764763904.1650095,0.97664,4.08968,0.41202,-0.88757097,0.341796,-0.29125902
1764763904.1650095,0.97664,4.08968,0.41202,-0.88757097,0.341796,-0.29125902
1764763904.1650095,0.97664,4.08968,0.41202,-0.88757097,0.341796,-0.29125902
1764763904.1650095,0.6103999999999999,4.1202,0.54936,-0.88781511,0.342345315,-0.291808335
1764763904.1650095,0.6103999999999999,4.1202,0.54936,-0.88781511,0.342345315,-0.291808335
1764763904.1650095,0.6103999999999999,4.1202,0.54936,-0.88781511,0.342345315,-0.291808335
1764763904.1650095,0.6103999999999999,4.1202,0.54936,-0.88781511,0.342345315,-0.291808335
1764763904.1650095,0.6103999999999999,4.1202,0.54936,-0.88781511,0.342345315,-0.291808335
1764763904.1650095,0.6103999999999999,4.1202,0.54936,-0.88781511,0.342345315,-0.291808335
1764763904.1650095,0.6103999999999999,4.1202,0.54936,-0.88781511,0.342345315,-0.291808335
1764763904.1650095,0.6103999999999999,4.1202,0.54936,-0.88781511,0.342345315,-0.291808335
1764763904.1650095,0.6103999999999999,4.1202,0.54936,-0.88781511,0.342345315,-0.291808335
1764763904.1650095,0.6103999999999999,4.1202,0.54936,-0.88781511,0.342345315,-0.291808335
1764763904.2118218,0.2289,3.5098,0.79352,-0.88879167,0.341734965,-0.292052475
1764763904.2118218,0.2289,3.5098,0.79352,-0.88879167,0.341734965,-0.292052475
1764763904.2118218,0.2289,3.5098,0.79352,-0.88879167,0.341734965,-0.292052475
1764763904.2118218,0.2289,3.5098,0.79352,-0.88879167,0.341734965,-0.292052475
1764763904.2118218,0.2289,3.5098,0.79352,-0.88879167,0.341734965,-0.292052475
1764763904.212832,0.2289,3.5098,0.79352,-0.88879167,0.341734965,-0.292052475
1764763904.212832,0.2289,3.5098,0.79352,-0.88879167,0.341734965,-0.292052475
1764763904.212832,0.2289,3.5098,0.79352,-0.88879167,0.341734965,-0.292052475
1764763904.212832,0.2289,3.5098,0.79352,-0.88879167,0.341734965,-0.292052475
1764763904.212832,0.2289,3.5098,0.79352,-0.88879167,0.341734965,-0.292052475
1764763904.212832,0.8392999999999999,3.815,0.36624,-0.8881202850000001,0.341246685,-0.29138109
1764763904.212832,0.8392999999999999,3.815,0.36624,-0.8881202850000001,0.341246685,-0.29138109
1764763904.212832,0.8392999999999999,3.815,0.36624,-0.8881202850000001,0.341246685,-0.29138109
1764763904.212832,0.8392999999999999,3.815,0.36624,-0.8881202850000001,0.341246685,-0.29138109
1764763904.212832,0.8392999999999999,3.815,0.36624,-0.8881202850000001,0.341246685,-0.29138109
1764763904.212832,0.8392999999999999,3.815,0.36624,-0.8881202850000001,0.341246685,-0.29138109
1764763904.212832,0.8392999999999999,3.815,0.36624,-0.8881202850000001,0.341246685,-0.29138109
1764763904.212832,0.8392999999999999,3.815,0.36624,-0.8881202850000001,0.341246685,-0.29138109
1764763904.212832,0.8392999999999999,3.815,0.36624,-0.8881202850000001,0.341246685,-0.29138109
1764763904.212832,0.8392999999999999,3.815,0.36624,-0.8881202850000001,0.341246685,-0.29138109
1764763904.212832,-0.04578,3.25038,-1.09872,-0.88598406,0.34094151,-0.2917473
1764763904.212832,-0.04578,3.25038,-1.09872,-0.88598406,0.34094151,-0.2917473
1764763904.2583065,-0.04578,3.25038,-1.09872,-0.88598406,0.34094151,-0.2917473
1764763904.2583065,-0.04578,3.25038,-1.09872,-0.88598406,0.34094151,-0.2917473
1764763904.2583065,-0.04578,3.25038,-1.09872,-0.88598406,0.34094151,-0.2917473
1764763904.2583065,-0.04578,3.25038,-1.09872,-0.88598406,0.34094151,-0.2917473
1764763904.2583065,-0.04578,3.25038,-1.09872,-0.88598406,0.34094151,-0.2917473
1764763904.2583065,-0.04578,3.25038,-1.09872,-0.88598406,0.34094151,-0.2917473
1764763904.2583065,-0.04578,3.25038,-1.09872,-0.88598406,0.34094151,-0.2917473
1764763904.2583065,-0.04578,3.25038,-1.09872,-0.88598406,0.34094151,-0.2917473
1764763904.2583065,0.51884,3.93708,-0.3357199999999999,-0.88757097,0.3393546,-0.29260179
1764763904.2583065,0.51884,3.93708,-0.3357199999999999,-0.88757097,0.3393546,-0.29260179
1764763904.2595804,0.51884,3.93708,-0.3357199999999999,-0.88757097,0.3393546,-0.29260179
1764763904.2595804,0.51884,3.93708,-0.3357199999999999,-0.88757097,0.3393546,-0.29260179
1764763904.2595804,0.51884,3.93708,-0.3357199999999999,-0.88757097,0.3393546,-0.29260179
1764763904.2595804,0.51884,3.93708,-0.3357199999999999,-0.88757097,0.3393546,-0.29260179
1764763904.2595804,0.51884,3.93708,-0.3357199999999999,-0.88757097,0.3393546,-0.29260179
1764763904.2595804,0.51884,3.93708,-0.3357199999999999,-0.88757097,0.3393546,-0.29260179
1764763904.2595804,0.51884,3.93708,-0.3357199999999999,-0.88757097,0.3393546,-0.29260179
1764763904.2595804,0.51884,3.93708,-0.3357199999999999,-0.88757097,0.3393546,-0.29260179
1764763904.2595804,0.57988,3.60136,0.6103999999999999,-0.88976823,0.33959874,-0.29223558
1764763904.2600846,0.57988,3.60136,0.6103999999999999,-0.88976823,0.33959874,-0.29223558
1764763904.2600846,0.57988,3.60136,0.6103999999999999,-0.88976823,0.33959874,-0.29223558
1764763904.2600846,0.57988,3.60136,0.6103999999999999,-0.88976823,0.33959874,-0.29223558
1764763904.3057864,0.57988,3.60136,0.6103999999999999,-0.88976823,0.33959874,-0.29223558
1764763904.3057864,0.57988,3.60136,0.6103999999999999,-0.88976823,0.33959874,-0.29223558
1764763904.3057864,0.57988,3.60136,0.6103999999999999,-0.88976823,0.33959874,-0.29223558
1764763904.3057864,0.57988,3.60136,0.6103999999999999,-0.88976823,0.33959874,-0.29223558
1764763904.3057864,0.57988,3.60136,0.6103999999999999,-0.88976823,0.33959874,-0.29223558
1764763904.3057864,0.57988,3.60136,0.6103999999999999,-0.88976823,0.33959874,-0.29223558
1764763904.3057864,0.74774,4.02864,-0.41202,-0.88891374,0.33996495,-0.291075915
1764763904.3057864,0.74774,4.02864,-0.41202,-0.88891374,0.33996495,-0.291075915
1764763904.3057864,0.74774,4.02864,-0.41202,-0.88891374,0.33996495,-0.291075915
1764763904.3067937,0.74774,4.02864,-0.41202,-0.88891374,0.33996495,-0.291075915
1764763904.3067937,0.74774,4.02864,-0.41202,-0.88891374,0.33996495,-0.291075915
1764763904.3067937,0.74774,4.02864,-0.41202,-0.88891374,0.33996495,-0.291075915
1764763904.3067937,0.74774,4.02864,-0.41202,-0.88891374,0.33996495,-0.291075915
1764763904.3067937,0.74774,4.02864,-0.41202,-0.88891374,0.33996495,-0.291075915
1764763904.3067937,0.74774,4.02864,-0.41202,-0.88891374,0.33996495,-0.291075915
1764763904.3067937,0.74774,4.02864,-0.41202,-0.88891374,0.33996495,-0.291075915
1764763904.3067937,1.05294,3.6624,-0.94612,-0.887387865,0.34094151,-0.29211351
1764763904.3067937,1.05294,3.6624,-0.94612,-0.887387865,0.34094151,-0.29211351
1764763904.3067937,1.05294,3.6624,-0.94612,-0.887387865,0.34094151,-0.29211351
1764763904.3067937,1.05294,3.6624,-0.94612,-0.887387865,0.34094151,-0.29211351
1764763904.3078048,1.05294,3.6624,-0.94612,-0.887387865,0.34094151,-0.29211351
1764763904.3078048,1.05294,3.6624,-0.94612,-0.887387865,0.34094151,-0.29211351
1764763904.3078048,1.05294,3.6624,-0.94612,-0.887387865,0.34094151,-0.29211351
1764763904.3078048,1.05294,3.6624,-0.94612,-0.887387865,0.34094151,-0.29211351
1764763904.3078048,1.05294,3.6624,-0.94612,-0.887387865,0.34094151,-0.29211351
1764763904.308317,1.05294,3.6624,-0.94612,-0.887387865,0.34094151,-0.29211351
1764763904.3513827,0.48832,3.54032,0.44254,-0.890561685,0.339903915,-0.29382249
1764763904.3513827,0.48832,3.54032,0.44254,-0.890561685,0.339903915,-0.29382249
1764763904.3513827,0.48832,3.54032,0.44254,-0.890561685,0.339903915,-0.29382249
1764763904.3513827,0.48832,3.54032,0.44254,-0.890561685,0.339903915,-0.29382249
1764763904.3513827,0.48832,3.54032,0.44254,-0.890561685,0.339903915,-0.29382249
1764763904.3519273,0.48832,3.54032,0.44254,-0.890561685,0.339903915,-0.29382249
1764763904.3519273,0.48832,3.54032,0.44254,-0.890561685,0.339903915,-0.29382249
