Timestamp,GyroX,GyroY,GyroZ,AccX,AccY,AccZ
1764764057.404269,-4.715339999999999,0.48832,0.50358,-0.93041754,0.312316095,-0.14660607
1764764057.404269,-4.715339999999999,0.48832,0.50358,-0.93041754,0.312316095,-0.14660607
1764764057.404269,-4.715339999999999,0.48832,0.50358,-0.93041754,0.312316095,-0.14660607
1764764057.404269,-4.715339999999999,0.48832,0.50358,-0.93041754,0.312316095,-0.14660607
1764764057.404269,-4.715339999999999,0.48832,0.50358,-0.93041754,0.312316095,-0.14660607
1764764057.404269,-4.715339999999999,0.48832,0.50358,-0.93041754,0.312316095,-0.14660607
1764764057.404269,-4.715339999999999,0.48832,0.50358,-0.93041754,0.312316095,-0.14660607
1764764057.404269,-4.715339999999999,0.48832,0.50358,-0.93041754,0.312316095,-0.14660607
1764764057.404269,-4.4254,0.73248,0.21364,-0.930112365,0.31188885,-0.146789175
1764764057.404269,-4.4254,0.73248,0.21364,-0.930112365,0.31188885,-0.146789175
1764764057.404269,-4.4254,0.73248,0.21364,-0.930112365,0.31188885,-0.146789175
1764764057.4047942,-4.4254,0.73248,0.21364,-0.930112365,0.31188885,-0.146789175
1764764057.4047942,-4.4254,0.73248,0.21364,-0.930112365,0.31188885,-0.146789175
1764764057.4047942,-4.4254,0.73248,0.21364,-0.930112365,0.31188885,-0.146789175
1764764057.4047942,-4.4254,0.73248,0.21364,-0.930112365,0.31188885,-0.146789175
1764764057.4047942,-4.4254,0.73248,0.21364,-0.930112365,0.31188885,-0.146789175
1764764057.4047942,-4.4254,0.73248,0.21364,-0.930112365,0.31188885,-0.146789175
1764764057.4047942,-4.4254,0.73248,0.21364,-0.930112365,0.31188885,-0.146789175
1764764057.4047942,-4.41014,1.05294,0.01526,-0.92980719,0.311705745,-0.14697228
1764764057.4047942,-4.41014,1.05294,0.01526,-0.92980719,0.311705745,-0.14697228
1764764057.4047942,-4.41014,1.05294,0.01526,-0.92980719,0.311705745,-0.14697228
1764764057.4047942,-4.41014,1.05294,0.01526,-0.92980719,0.311705745,-0.14697228
1764764057.4047942,-4.41014,1.05294,0.01526,-0.92980719,0.311705745,-0.14697228
1764764057.4047942,-4.41014,1.05294,0.01526,-0.92980719,0.311705745,-0.14697228
1764764057.4509225,-4.41014,1.05294,0.01526,-0.92980719,0.311705745,-0.14697228
1764764057.4509225,-4.41014,1.05294,0.01526,-0.92980719,0.311705745,-0.14697228
1764764057.4516156,-4.41014,1.05294,0.01526,-0.92980719,0.311705745,-0.14697228
1764764057.4516156,-4.41014,1.05294,0.01526,-0.92980719,0.311705745,-0.14697228
1764764057.4516156,-6.07348,1.4039199999999998,-0.10682,-0.929990295,0.313292655,-0.147277455
1764764057.4516156,-6.07348,1.4039199999999998,-0.10682,-0.929990295,0.313292655,-0.147277455
1764764057.4516156,-6.07348,1.4039199999999998,-0.10682,-0.929990295,0.313292655,-0.147277455
1764764057.4516156,-6.07348,1.4039199999999998,-0.10682,-0.929990295,0.313292655,-0.147277455
1764764057.4516156,-6.07348,1.4039199999999998,-0.10682,-0.929990295,0.313292655,-0.147277455
1764764057.4516156,-6.07348,1.4039199999999998,-0.10682,-0.929990295,0.313292655,-0.147277455
1764764057.4516156,-6.07348,1.4039199999999998,-0.10682,-0.929990295,0.313292655,-0.147277455
1764764057.4516156,-6.07348,1.4039199999999998,-0.10682,-0.929990295,0.313292655,-0.147277455
1764764057.4526255,-6.07348,1.4039199999999998,-0.10682,-0.929990295,0.313292655,-0.147277455
1764764057.4526255,-6.07348,1.4039199999999998,-0.10682,-0.929990295,0.313292655,-0.147277455
1764764057.4526255,-6.47024,0.74774,0.59514,-0.93224859,0.31555095,-0.14709435
1764764057.4526255,-6.47024,0.74774,0.59514,-0.93224859,0.31555095,-0.14709435
1764764057.4526255,-6.47024,0.74774,0.59514,-0.93224859,0.31555095,-0.14709435
1764764057.4526255,-6.47024,0.74774,0.59514,-0.93224859,0.31555095,-0.14709435
1764764057.4526255,-6.47024,0.74774,0.59514,-0.93224859,0.31555095,-0.14709435
1764764057.4526255,-6.47024,0.74774,0.59514,-0.93224859,0.31555095,-0.14709435
1764764057.4526255,-6.47024,0.74774,0.59514,-0.93224859,0.31555095,-0.14709435
1764764057.4526255,-6.47024,0.74774,0.59514,-0.93224859,0.31555095,-0.14709435
1764764057.4526255,-6.47024,0.74774,0.59514,-0.93224859,0.31555095,-0.14709435
1764764057.4526255,-6.47024,0.74774,0.59514,-0.93224859,0.31555095,-0.14709435
1764764057.498839,-5.35626,0.36624,0.6409199999999999,-0.931821345,0.31555095,-0.14721642
1764764057.498839,-5.35626,0.36624,0.6409199999999999,-0.931821345,0.31555095,-0.14721642
1764764057.498839,-5.35626,0.36624,0.6409199999999999,-0.931821345,0.31555095,-0.14721642
1764764057.498839,-5.35626,0.36624,0.6409199999999999,-0.931821345,0.31555095,-0.14721642
1764764057.498839,-5.35626,0.36624,0.6409199999999999,-0.931821345,0.31555095,-0.14721642
1764764057.498839,-5.35626,0.36624,0.6409199999999999,-0.931821345,0.31555095,-0.14721642
1764764057.498839,-5.35626,0.36624,0.6409199999999999,-0.931821345,0.31555095,-0.14721642
1764764057.498839,-5.35626,0.36624,0.6409199999999999,-0.931821345,0.31555095,-0.14721642
1764764057.498839,-5.35626,0.36624,0.6409199999999999,-0.931821345,0.31555095,-0.14721642
1764764057.5003605,-5.35626,0.36624,0.6409199999999999,-0.931821345,0.31555095,-0.14721642
1764764057.5003605,-5.46308,0.8087799999999999,-0.44254,-0.930112365,0.31408611,-0.14746056
1764764057.5003605,-5.46308,0.8087799999999999,-0.44254,-0.930112365,0.31408611,-0.14746056
1764764057.5003605,-5.46308,0.8087799999999999,-0.44254,-0.930112365,0.31408611,-0.14746056
1764764057.5003605,-5.46308,0.8087799999999999,-0.44254,-0.930112365,0.31408611,-0.14746056
1764764057.5003605,-5.46308,0.8087799999999999,-0.44254,-0.930112365,0.31408611,-0.14746056
1764764057.5003605,-5.46308,0.8087799999999999,-0.44254,-0.930112365,0.31408611,-0.14746056
1764764057.5003605,-5.46308,0.8087799999999999,-0.44254,-0.930112365,0.31408611,-0.14746056
1764764057.5003605,-5.46308,0.8087799999999999,-0.44254,-0.930112365,0.31408611,-0.14746056
1764764057.5003605,-5.46308,0.8087799999999999,-0.44254,-0.930112365,0.31408611,-0.14746056
1764764057.5003605,-5.46308,0.8087799999999999,-0.44254,-0.930112365,0.31408611,-0.14746056
1764764057.5003605,-7.11116,0.6409199999999999,0.04578,-0.92968512,0.314635425,-0.14782677
1764764057.5003605,-7.11116,0.6409199999999999,0.04578,-0.92968512,0.314635425,-0.14782677
1764764057.5013683,-7.11116,0.6409199999999999,0.04578,-0.92968512,0.314635425,-0.14782677
1764764057.5013683,-7.11116,0.6409199999999999,0.04578,-0.92968512,0.314635425,-0.14782677
1764764057.5437708,-7.11116,0.6409199999999999,0.04578,-0.92968512,0.314635425,-0.14782677
1764764057.5437708,-7.11116,0.6409199999999999,0.04578,-0.92968512,0.314635425,-0.14782677
1764764057.5437708,-7.11116,0.6409199999999999,0.04578,-0.92968512,0.314635425,-0.14782677
1764764057.5437708,-7.11116,0.6409199999999999,0.04578,-0.92968512,0.314635425,-0.14782677
1764764057.5437708,-7.11116,0.6409199999999999,0.04578,-0.92968512,0.314635425,-0.14782677
1764764057.5437708,-7.11116,0.6409199999999999,0.04578,-0.92968512,0.314635425,-0.14782677
1764764057.5437708,-7.52318,0.51884,0.94612,-0.93163824,0.315611985,-0.148254015
1764764057.5437708,-7.52318,0.51884,0.94612,-0.93163824,0.315611985,-0.148254015
1764764057.5437708,-7.52318,0.51884,0.94612,-0.93163824,0.315611985,-0.148254015
1764764057.5437708,-7.52318,0.51884,0.94612,-0.93163824,0.315611985,-0.148254015
1764764057.5437708,-7.52318,0.51884,0.94612,-0.93163824,0.315611985,-0.148254015
1764764057.5437708,-7.52318,0.51884,0.94612,-0.93163824,0.315611985,-0.148254015
1764764057.5437708,-7.52318,0.51884,0.94612,-0.93163824,0.315611985,-0.148254015
1764764057.5437708,-7.52318,0.51884,0.94612,-0.93163824,0.315611985,-0.148254015
1764764057.5437708,-7.52318,0.51884,0.94612,-0.93163824,0.315611985,-0.148254015
1764764057.5437708,-7.52318,0.51884,0.94612,-0.93163824,0.315611985,-0.148254015
1764764057.5437708,-6.59232,1.02242,0.59514,-0.93359136,0.314757495,-0.147887805
1764764057.5437708,-6.59232,1.02242,0.59514,-0.93359136,0.314757495,-0.147887805
1764764057.5437708,-6.59232,1.02242,0.59514,-0.93359136,0.314757495,-0.147887805
1764764057.5437708,-6.59232,1.02242,0.59514,-0.93359136,0.314757495,-0.147887805
1764764057.5437708,-6.59232,1.02242,0.59514,-0.93359136,0.314757495,-0.147887805
1764764057.5437708,-6.59232,1.02242,0.59514,-0.93359136,0.314757495,-0.147887805
1764764057.5437708,-6.59232,1.02242,0.59514,-0.93359136,0.314757495,-0.147887805
1764764057.5437708,-6.59232,1.02242,0.59514,-0.93359136,0.314757495,-0.147887805
1764764057.590623,-6.59232,1.02242,0.59514,-0.93359136,0.314757495,-0.147887805
1764764057.590623,-6.59232,1.02242,0.59514,-0.93359136,0.314757495,-0.147887805
1764764057.590623,-5.84458,0.71722,0.25942,-0.93237066,0.31310955,-0.147033315
1764764057.590623,-5.84458,0.71722,0.25942,-0.93237066,0.31310955,-0.147033315
1764764057.590623,-5.84458,0.71722,0.25942,-0.93237066,0.31310955,-0.147033315
1764764057.590623,-5.84458,0.71722,0.25942,-0.93237066,0.31310955,-0.147033315
1764764057.590623,-5.84458,0.71722,0.25942,-0.93237066,0.31310955,-0.147033315
1764764057.590623,-5.84458,0.71722,0.25942,-0.93237066,0.31310955,-0.147033315
1764764057.590623,-5.84458,0.71722,0.25942,-0.93237066,0.31310955,-0.147033315
1764764057.590623,-5.84458,0.71722,0.25942,-0.93237066,0.31310955,-0.147033315
1764764057.590623,-5.84458,0.71722,0.25942,-0.93237066,0.31310955,-0.147033315
1764764057.590623,-5.84458,0.71722,0.25942,-0.93237066,0.31310955,-0.147033315
1764764057.590623,-5.66146,0.77826,0.3204599999999999,-0.93029547,0.31262127,-0.144958125
1764764057.590623,-5.66146,0.77826,0.3204599999999999,-0.93029547,0.31262127,-0.144958125
1764764057.590623,-5.66146,0.77826,0.3204599999999999,-0.93029547,0.31262127,-0.144958125
1764764057.590623,-5.66146,0.77826,0.3204599999999999,-0.93029547,0.31262127,-0.144958125
1764764057.590623,-5.66146,0.77826,0.3204599999999999,-0.93029547,0.31262127,-0.144958125
1764764057.590623,-5.66146,0.77826,0.3204599999999999,-0.93029547,0.31262127,-0.144958125
1764764057.590623,-5.66146,0.77826,0.3204599999999999,-0.93029547,0.31262127,-0.144958125
1764764057.590623,-5.66146,0.77826,0.3204599999999999,-0.93029547,0.31262127,-0.144958125
1764764057.590623,-5.66146,0.77826,0.3204599999999999,-0.93029547,0.31262127,-0.144958125
1764764057.590623,-5.66146,0.77826,0.3204599999999999,-0.93029547,0.31262127,-0.144958125
1764764057.6371417,-6.409199999999999,1.0682,1.4497,-0.928281315,0.31201092,-0.143859495
1764764057.6371417,-6.409199999999999,1.0682,1.4497,-0.928281315,0.31201092,-0.143859495
1764764057.6371417,-6.409199999999999,1.0682,1.4497,-0.928281315,0.31201092,-0.143859495
1764764057.6371417,-6.409199999999999,1.0682,1.4497,-0.928281315,0.31201092,-0.143859495
1764764057.6371417,-6.409199999999999,1.0682,1.4497,-0.928281315,0.31201092,-0.143859495
1764764057.6371417,-6.409199999999999,1.0682,1.4497,-0.928281315,0.31201092,-0.143859495
1764764057.6371417,-6.409199999999999,1.0682,1.4497,-0.928281315,0.31201092,-0.143859495
1764764057.6371417,-6.409199999999999,1.0682,1.4497,-0.928281315,0.31201092,-0.143859495
1764764057.6371417,-6.409199999999999,1.0682,1.4497,-0.928281315,0.31201092,-0.143859495
1764764057.6371417,-6.409199999999999,1.0682,1.4497,-0.928281315,0.31201092,-0.143859495
1764764057.6371417,-7.370579999999999,1.4497,0.763,-0.929502015,0.310362975,-0.14538537
1764764057.6371417,-7.370579999999999,1.4497,0.763,-0.929502015,0.310362975,-0.14538537
1764764057.6371417,-7.370579999999999,1.4497,0.763,-0.929502015,0.310362975,-0.14538537
1764764057.6371417,-7.370579999999999,1.4497,0.763,-0.929502015,0.310362975,-0.14538537
1764764057.6371417,-7.370579999999999,1.4497,0.763,-0.929502015,0.310362975,-0.14538537
1764764057.6371417,-7.370579999999999,1.4497,0.763,-0.929502015,0.310362975,-0.14538537
1764764057.6371417,-7.370579999999999,1.4497,0.763,-0.929502015,0.310362975,-0.14538537
1764764057.6371417,-7.370579999999999,1.4497,0.763,-0.929502015,0.310362975,-0.14538537
1764764057.6371417,-7.370579999999999,1.4497,0.763,-0.929502015,0.310362975,-0.14538537
1764764057.6371417,-7.370579999999999,1.4497,0.763,-0.929502015,0.310362975,-0.14538537
1764764057.6371417,-5.90562,1.2208,0.44254,-0.932553765,0.30956952,-0.147033315
1764764057.6371417,-5.90562,1.2208,0.44254,-0.932553765,0.30956952,-0.147033315
1764764057.6837804,-5.90562,1.2208,0.44254,-0.932553765,0.30956952,-0.147033315
1764764057.6837804,-5.90562,1.2208,0.44254,-0.932553765,0.30956952,-0.147033315
1764764057.6837804,-5.90562,1.2208,0.44254,-0.932553765,0.30956952,-0.147033315
1764764057.6837804,-5.90562,1.2208,0.44254,-0.932553765,0.30956952,-0.147033315
1764764057.6837804,-5.90562,1.2208,0.44254,-0.932553765,0.30956952,-0.147033315
1764764057.6837804,-5.90562,1.2208,0.44254,-0.932553765,0.30956952,-0.147033315
1764764057.6837804,-5.90562,1.2208,0.44254,-0.932553765,0.30956952,-0.147033315
1764764057.6837804,-5.90562,1.2208,0.44254,-0.932553765,0.30956952,-0.147033315
1764764057.6837804,-5.15788,0.77826,0.28994,-0.933286185,0.3100578,-0.14599572
1764764057.6837804,-5.15788,0.77826,0.28994,-0.933286185,0.3100578,-0.14599572
1764764057.6837804,-5.15788,0.77826,0.28994,-0.933286185,0.3100578,-0.14599572
1764764057.6837804,-5.15788,0.77826,0.28994,-0.933286185,0.3100578,-0.14599572
1764764057.6837804,-5.15788,0.77826,0.28994,-0.933286185,0.3100578,-0.14599572
1764764057.6837804,-5.15788,0.77826,0.28994,-0.933286185,0.3100578,-0.14599572
1764764057.6837804,-5.15788,0.77826,0.28994,-0.933286185,0.3100578,-0.14599572
1764764057.6837804,-5.15788,0.77826,0.28994,-0.933286185,0.3100578,-0.14599572
1764764057.6837804,-5.15788,0.77826,0.28994,-0.933286185,0.3100578,-0.14599572
1764764057.6837804,-5.15788,0.77826,0.28994,-0.933286185,0.3100578,-0.14599572
1764764057.6837804,-3.21986,0.3051999999999999,0.96138,-0.9338355,0.31225506,-0.14477502
1764764057.6837804,-3.21986,0.3051999999999999,0.96138,-0.9338355,0.31225506,-0.14477502
1764764057.6837804,-3.21986,0.3051999999999999,0.96138,-0.9338355,0.31225506,-0.14477502
1764764057.6837804,-3.21986,0.3051999999999999,0.96138,-0.9338355,0.31225506,-0.14477502
1764764057.7314606,-3.21986,0.3051999999999999,0.96138,-0.9338355,0.31225506,-0.14477502
1764764057.7314606,-3.21986,0.3051999999999999,0.96138,-0.9338355,0.31225506,-0.14477502
1764764057.7314606,-3.21986,0.3051999999999999,0.96138,-0.9338355,0.31225506,-0.14477502
1764764057.7314606,-3.21986,0.3051999999999999,0.96138,-0.9338355,0.31225506,-0.14477502
1764764057.7314606,-3.21986,0.3051999999999999,0.96138,-0.9338355,0.31225506,-0.14477502
1764764057.7314606,-3.21986,0.3051999999999999,0.96138,-0.9338355,0.31225506,-0.14477502
1764764057.7314606,-2.16692,0.7019599999999999,0.3204599999999999,-0.932675835,0.31262127,-0.14477502
1764764057.7314606,-2.16692,0.7019599999999999,0.3204599999999999,-0.932675835,0.31262127,-0.14477502
1764764057.7314606,-2.16692,0.7019599999999999,0.3204599999999999,-0.932675835,0.31262127,-0.14477502
1764764057.7314606,-2.16692,0.7019599999999999,0.3204599999999999,-0.932675835,0.31262127,-0.14477502
1764764057.7314606,-2.16692,0.7019599999999999,0.3204599999999999,-0.932675835,0.31262127,-0.14477502
1764764057.7314606,-2.16692,0.7019599999999999,0.3204599999999999,-0.932675835,0.31262127,-0.14477502
1764764057.7314606,-2.16692,0.7019599999999999,0.3204599999999999,-0.932675835,0.31262127,-0.14477502
1764764057.7314606,-2.16692,0.7019599999999999,0.3204599999999999,-0.932675835,0.31262127,-0.14477502
1764764057.7314606,-2.16692,0.7019599999999999,0.3204599999999999,-0.932675835,0.31262127,-0.14477502
1764764057.7314606,-2.16692,0.7019599999999999,0.3204599999999999,-0.932675835,0.31262127,-0.14477502
1764764057.7314606,-2.94518,0.77826,0.6714399999999999,-0.93090582,0.3137199,-0.14660607
1764764057.7314606,-2.94518,0.77826,0.6714399999999999,-0.93090582,0.3137199,-0.14660607
1764764057.7314606,-2.94518,0.77826,0.6714399999999999,-0.93090582,0.3137199,-0.14660607
1764764057.7314606,-2.94518,0.77826,0.6714399999999999,-0.93090582,0.3137199,-0.14660607
1764764057.7314606,-2.94518,0.77826,0.6714399999999999,-0.93090582,0.3137199,-0.14660607
1764764057.7314606,-2.94518,0.77826,0.6714399999999999,-0.93090582,0.3137199,-0.14660607
1764764057.7314606,-2.94518,0.77826,0.6714399999999999,-0.93090582,0.3137199,-0.14660607
1764764057.7314606,-2.94518,0.77826,0.6714399999999999,-0.93090582,0.3137199,-0.14660607
1764764057.7314606,-2.94518,0.77826,0.6714399999999999,-0.93090582,0.3137199,-0.14660607
1764764057.7314606,-2.94518,0.77826,0.6714399999999999,-0.93090582,0.3137199,-0.14660607
1764764057.7775493,-4.99002,0.9919,0.7019599999999999,-0.930722715,0.316222335,-0.14831505
1764764057.7775493,-4.99002,0.9919,0.7019599999999999,-0.930722715,0.316222335,-0.14831505
1764764057.7775493,-4.99002,0.9919,0.7019599999999999,-0.930722715,0.316222335,-0.14831505
1764764057.7775493,-4.99002,0.9919,0.7019599999999999,-0.930722715,0.316222335,-0.14831505
1764764057.7775493,-4.99002,0.9919,0.7019599999999999,-0.930722715,0.316222335,-0.14831505
1764764057.7775493,-4.99002,0.9919,0.7019599999999999,-0.930722715,0.316222335,-0.14831505
1764764057.7775493,-4.99002,0.9919,0.7019599999999999,-0.930722715,0.316222335,-0.14831505
1764764057.7775493,-4.99002,0.9919,0.7019599999999999,-0.930722715,0.316222335,-0.14831505
1764764057.7775493,-4.99002,0.9919,0.7019599999999999,-0.930722715,0.316222335,-0.14831505
1764764057.7775493,-4.99002,0.9919,0.7019599999999999,-0.930722715,0.316222335,-0.14831505
1764764057.7775493,-6.31764,0.74774,0.6103999999999999,-0.93127203,0.317382,-0.14794884
1764764057.7775493,-6.31764,0.74774,0.6103999999999999,-0.93127203,0.317382,-0.14794884
1764764057.7775493,-6.31764,0.74774,0.6103999999999999,-0.93127203,0.317382,-0.14794884
1764764057.7775493,-6.31764,0.74774,0.6103999999999999,-0.93127203,0.317382,-0.14794884
1764764057.7775493,-6.31764,0.74774,0.6103999999999999,-0.93127203,0.317382,-0.14794884
1764764057.7775493,-6.31764,0.74774,0.6103999999999999,-0.93127203,0.317382,-0.14794884
1764764057.7775493,-6.31764,0.74774,0.6103999999999999,-0.93127203,0.317382,-0.14794884
1764764057.7775493,-6.31764,0.74774,0.6103999999999999,-0.93127203,0.317382,-0.14794884
1764764057.7775493,-6.31764,0.74774,0.6103999999999999,-0.93127203,0.317382,-0.14794884
1764764057.7775493,-6.31764,0.74774,0.6103999999999999,-0.93127203,0.317382,-0.14794884
1764764057.7775493,-6.04296,0.9156,0.25942,-0.93127203,0.31652751,-0.14538537
1764764057.7775493,-6.04296,0.9156,0.25942,-0.93127203,0.31652751,-0.14538537
1764764057.8210547,-6.04296,0.9156,0.25942,-0.93127203,0.31652751,-0.14538537
1764764057.8215644,-6.04296,0.9156,0.25942,-0.93127203,0.31652751,-0.14538537
1764764057.8215644,-6.04296,0.9156,0.25942,-0.93127203,0.31652751,-0.14538537
1764764057.8215644,-6.04296,0.9156,0.25942,-0.93127203,0.31652751,-0.14538537
1764764057.8215644,-6.04296,0.9156,0.25942,-0.93127203,0.31652751,-0.14538537
1764764057.8215644,-6.04296,0.9156,0.25942,-0.93127203,0.31652751,-0.14538537
1764764057.8215644,-6.04296,0.9156,0.25942,-0.93127203,0.31652751,-0.14538537
1764764057.8215644,-6.04296,0.9156,0.25942,-0.93127203,0.31652751,-0.14538537
1764764057.8215644,-4.24228,0.18312,0.50358,-0.93163824,0.31433025,-0.14355432
1764764057.8215644,-4.24228,0.18312,0.50358,-0.93163824,0.31433025,-0.14355432
1764764057.8215644,-4.24228,0.18312,0.50358,-0.93163824,0.31433025,-0.14355432
1764764057.8215644,-4.24228,0.18312,0.50358,-0.93163824,0.31433025,-0.14355432
1764764057.8215644,-4.24228,0.18312,0.50358,-0.93163824,0.31433025,-0.14355432
1764764057.8215644,-4.24228,0.18312,0.50358,-0.93163824,0.31433025,-0.14355432
1764764057.8215644,-4.24228,0.18312,0.50358,-0.93163824,0.31433025,-0.14355432
1764764057.8215644,-4.24228,0.18312,0.50358,-0.93163824,0.31433025,-0.14355432
1764764057.8215644,-4.24228,0.18312,0.50358,-0.93163824,0.31433025,-0.14355432
1764764057.8215644,-4.24228,0.18312,0.50358,-0.93163824,0.31433025,-0.14355432
1764764057.8215644,-4.62378,0.6103999999999999,0.3509799999999999,-0.92968512,0.313170585,-0.144469845
1764764057.8215644,-4.62378,0.6103999999999999,0.3509799999999999,-0.92968512,0.313170585,-0.144469845
1764764057.8215644,-4.62378,0.6103999999999999,0.3509799999999999,-0.92968512,0.313170585,-0.144469845
1764764057.8215644,-4.62378,0.6103999999999999,0.3509799999999999,-0.92968512,0.313170585,-0.144469845
1764764057.8215644,-4.62378,0.6103999999999999,0.3509799999999999,-0.92968512,0.313170585,-0.144469845
1764764057.8215644,-4.62378,0.6103999999999999,0.3509799999999999,-0.92968512,0.313170585,-0.144469845
1764764057.872191,-4.62378,0.6103999999999999,0.3509799999999999,-0.92968512,0.313170585,-0.144469845
1764764057.872191,-4.62378,0.6103999999999999,0.3509799999999999,-0.92968512,0.313170585,-0.144469845
1764764057.8728616,-4.62378,0.6103999999999999,0.3509799999999999,-0.92968512,0.313170585,-0.144469845
1764764057.8728616,-4.62378,0.6103999999999999,0.3509799999999999,-0.92968512,0.313170585,-0.144469845
1764764057.8728616,-5.615679999999999,0.94612,0.27468,-0.929624085,0.313658865,-0.14697228
1764764057.8728616,-5.615679999999999,0.94612,0.27468,-0.929624085,0.313658865,-0.14697228
1764764057.8728616,-5.615679999999999,0.94612,0.27468,-0.929624085,0.313658865,-0.14697228
1764764057.8728616,-5.615679999999999,0.94612,0.27468,-0.929624085,0.313658865,-0.14697228
1764764057.8728616,-5.615679999999999,0.94612,0.27468,-0.929624085,0.313658865,-0.14697228
1764764057.8728616,-5.615679999999999,0.94612,0.27468,-0.929624085,0.313658865,-0.14697228
1764764057.8728616,-5.615679999999999,0.94612,0.27468,-0.929624085,0.313658865,-0.14697228
1764764057.8728616,-5.615679999999999,0.94612,0.27468,-0.929624085,0.313658865,-0.14697228
1764764057.8728616,-5.615679999999999,0.94612,0.27468,-0.929624085,0.313658865,-0.14697228
1764764057.8728616,-5.615679999999999,0.94612,0.27468,-0.929624085,0.313658865,-0.14697228
1764764057.8728616,-5.73776,0.44254,0.4578,-0.930844785,0.31347576,-0.146056755
1764764057.8728616,-5.73776,0.44254,0.4578,-0.930844785,0.31347576,-0.146056755
1764764057.8728616,-5.73776,0.44254,0.4578,-0.930844785,0.31347576,-0.146056755
1764764057.8728616,-5.73776,0.44254,0.4578,-0.930844785,0.31347576,-0.146056755
1764764057.8728616,-5.73776,0.44254,0.4578,-0.930844785,0.31347576,-0.146056755
1764764057.8728616,-5.73776,0.44254,0.4578,-0.930844785,0.31347576,-0.146056755
1764764057.8728616,-5.73776,0.44254,0.4578,-0.930844785,0.31347576,-0.146056755
1764764057.8728616,-5.73776,0.44254,0.4578,-0.930844785,0.31347576,-0.146056755
1764764057.9165075,-5.73776,0.44254,0.4578,-0.930844785,0.31347576,-0.146056755
1764764057.9165075,-5.73776,0.44254,0.4578,-0.930844785,0.31347576,-0.146056755
1764764057.9165075,-5.35626,0.0762999999999999,-0.42728,-0.931088925,0.313048515,-0.14379846
1764764057.9165075,-5.35626,0.0762999999999999,-0.42728,-0.931088925,0.313048515,-0.14379846
1764764057.9172077,-5.35626,0.0762999999999999,-0.42728,-0.931088925,0.313048515,-0.14379846
1764764057.9172077,-5.35626,0.0762999999999999,-0.42728,-0.931088925,0.313048515,-0.14379846
1764764057.9172077,-5.35626,0.0762999999999999,-0.42728,-0.931088925,0.313048515,-0.14379846
1764764057.9172077,-5.35626,0.0762999999999999,-0.42728,-0.931088925,0.313048515,-0.14379846
1764764057.9172077,-5.35626,0.0762999999999999,-0.42728,-0.931088925,0.313048515,-0.14379846
1764764057.9172077,-5.35626,0.0762999999999999,-0.42728,-0.931088925,0.313048515,-0.14379846
1764764057.9172077,-5.35626,0.0762999999999999,-0.42728,-0.931088925,0.313048515,-0.14379846
1764764057.9172077,-5.35626,0.0762999999999999,-0.42728,-0.931088925,0.313048515,-0.14379846
1764764057.9172077,-5.08158,0.59514,-0.42728,-0.93114996,0.31298748,-0.143127075
1764764057.9172077,-5.08158,0.59514,-0.42728,-0.93114996,0.31298748,-0.143127075
1764764057.9172077,-5.08158,0.59514,-0.42728,-0.93114996,0.31298748,-0.143127075
1764764057.9172077,-5.08158,0.59514,-0.42728,-0.93114996,0.31298748,-0.143127075
1764764057.9172077,-5.08158,0.59514,-0.42728,-0.93114996,0.31298748,-0.143127075
1764764057.9172077,-5.08158,0.59514,-0.42728,-0.93114996,0.31298748,-0.143127075
1764764057.9172077,-5.08158,0.59514,-0.42728,-0.93114996,0.31298748,-0.143127075
1764764057.9172077,-5.08158,0.59514,-0.42728,-0.93114996,0.31298748,-0.143127075
1764764057.9172077,-5.08158,0.59514,-0.42728,-0.93114996,0.31298748,-0.143127075
1764764057.9172077,-5.08158,0.59514,-0.42728,-0.93114996,0.31298748,-0.143127075
1764764057.9172077,-5.2647,0.50358,0.59514,-0.93212652,0.31359783,-0.1440426
1764764057.9172077,-5.2647,0.50358,0.59514,-0.93212652,0.31359783,-0.1440426
1764764057.9172077,-5.2647,0.50358,0.59514,-0.93212652,0.31359783,-0.1440426
1764764057.9172077,-5.2647,0.50358,0.59514,-0.93212652,0.31359783,-0.1440426
1764764057.9637096,-5.2647,0.50358,0.59514,-0.93212652,0.31359783,-0.1440426
1764764057.9637096,-5.2647,0.50358,0.59514,-0.93212652,0.31359783,-0.1440426
1764764057.9637096,-5.2647,0.50358,0.59514,-0.93212652,0.31359783,-0.1440426
1764764057.9637096,-5.2647,0.50358,0.59514,-0.93212652,0.31359783,-0.1440426
1764764057.9637096,-5.2647,0.50358,0.59514,-0.93212652,0.31359783,-0.1440426
1764764057.9637096,-5.2647,0.50358,0.59514,-0.93212652,0.31359783,-0.1440426
1764764057.9637096,-5.55464,0.97664,0.9919,-0.93237066,0.313292655,-0.145934685
1764764057.965247,-5.55464,0.97664,0.9919,-0.93237066,0.313292655,-0.145934685
1764764057.965247,-5.55464,0.97664,0.9919,-0.93237066,0.313292655,-0.145934685
1764764057.965247,-5.55464,0.97664,0.9919,-0.93237066,0.313292655,-0.145934685
1764764057.965247,-5.55464,0.97664,0.9919,-0.93237066,0.313292655,-0.145934685
1764764057.965247,-5.55464,0.97664,0.9919,-0.93237066,0.313292655,-0.145934685
1764764057.965247,-5.55464,0.97664,0.9919,-0.93237066,0.313292655,-0.145934685
1764764057.965247,-5.55464,0.97664,0.9919,-0.93237066,0.313292655,-0.145934685
1764764057.965247,-5.55464,0.97664,0.9919,-0.93237066,0.313292655,-0.145934685
1764764057.965247,-5.55464,0.97664,0.9919,-0.93237066,0.313292655,-0.145934685
1764764057.965247,-5.55464,0.4578,-0.04578,-0.932309625,0.31188885,-0.145446405
1764764057.965247,-5.55464,0.4578,-0.04578,-0.932309625,0.31188885,-0.145446405
1764764057.965247,-5.55464,0.4578,-0.04578,-0.932309625,0.31188885,-0.145446405
1764764057.965247,-5.55464,0.4578,-0.04578,-0.932309625,0.31188885,-0.145446405
1764764057.965247,-5.55464,0.4578,-0.04578,-0.932309625,0.31188885,-0.145446405
1764764057.965247,-5.55464,0.4578,-0.04578,-0.932309625,0.31188885,-0.145446405
1764764058.0122354,-5.55464,0.4578,-0.04578,-0.932309625,0.31188885,-0.145446405
1764764058.0122354,-5.55464,0.4578,-0.04578,-0.932309625,0.31188885,-0.145446405
1764764058.0122354,-5.55464,0.4578,-0.04578,-0.932309625,0.31188885,-0.145446405
1764764058.0122354,-5.55464,0.4578,-0.04578,-0.932309625,0.31188885,-0.145446405
1764764058.0122354,-7.0196,1.11398,-0.21364,-0.930478575,0.31274334,-0.14294397
1764764058.0122354,-7.0196,1.11398,-0.21364,-0.930478575,0.31274334,-0.14294397
1764764058.0122354,-7.0196,1.11398,-0.21364,-0.930478575,0.31274334,-0.14294397
1764764058.0122354,-7.0196,1.11398,-0.21364,-0.930478575,0.31274334,-0.14294397
1764764058.0132585,-7.0196,1.11398,-0.21364,-0.930478575,0.31274334,-0.14294397
1764764058.0132585,-7.0196,1.11398,-0.21364,-0.930478575,0.31274334,-0.14294397
1764764058.0132585,-7.0196,1.11398,-0.21364,-0.930478575,0.31274334,-0.14294397
1764764058.0132585,-7.0196,1.11398,-0.21364,-0.930478575,0.31274334,-0.14294397
1764764058.0132585,-7.0196,1.11398,-0.21364,-0.930478575,0.31274334,-0.14294397
1764764058.0132585,-7.0196,1.11398,-0.21364,-0.930478575,0.31274334,-0.14294397
1764764058.0132585,-7.309539999999999,0.28994,0.1525999999999999,-0.931455135,0.31518474,-0.14257776
1764764058.0132585,-7.309539999999999,0.28994,0.1525999999999999,-0.931455135,0.31518474,-0.14257776
1764764058.0132585,-7.309539999999999,0.28994,0.1525999999999999,-0.931455135,0.31518474,-0.14257776
1764764058.0132585,-7.309539999999999,0.28994,0.1525999999999999,-0.931455135,0.31518474,-0.14257776
1764764058.0132585,-7.309539999999999,0.28994,0.1525999999999999,-0.931455135,0.31518474,-0.14257776
1764764058.0132585,-7.309539999999999,0.28994,0.1525999999999999,-0.931455135,0.31518474,-0.14257776
1764764058.0132585,-7.309539999999999,0.28994,0.1525999999999999,-0.931455135,0.31518474,-0.14257776
1764764058.0132585,-7.309539999999999,0.28994,0.1525999999999999,-0.931455135,0.31518474,-0.14257776
1764764058.0132585,-7.309539999999999,0.28994,0.1525999999999999,-0.931455135,0.31518474,-0.14257776
1764764058.0132585,-7.309539999999999,0.28994,0.1525999999999999,-0.931455135,0.31518474,-0.14257776
1764764058.0602589,-5.096839999999999,-0.41202,0.54936,-0.9313941,0.314391285,-0.14355432
1764764058.0602589,-5.096839999999999,-0.41202,0.54936,-0.9313941,0.314391285,-0.14355432
1764764058.0602589,-5.096839999999999,-0.41202,0.54936,-0.9313941,0.314391285,-0.14355432
1764764058.0602589,-5.096839999999999,-0.41202,0.54936,-0.9313941,0.314391285,-0.14355432
1764764058.0602589,-5.096839999999999,-0.41202,0.54936,-0.9313941,0.314391285,-0.14355432
1764764058.0602589,-5.096839999999999,-0.41202,0.54936,-0.9313941,0.314391285,-0.14355432
1764764058.0602589,-5.096839999999999,-0.41202,0.54936,-0.9313941,0.314391285,-0.14355432
1764764058.0602589,-5.096839999999999,-0.41202,0.54936,-0.9313941,0.314391285,-0.14355432
1764764058.0602589,-5.096839999999999,-0.41202,0.54936,-0.9313941,0.314391285,-0.14355432
1764764058.0602589,-5.096839999999999,-0.41202,0.54936,-0.9313941,0.314391285,-0.14355432
1764764058.0602589,-4.22702,0.57988,0.2289,-0.93005133,0.312071955,-0.14465295
1764764058.0602589,-4.22702,0.57988,0.2289,-0.93005133,0.312071955,-0.14465295
1764764058.0602589,-4.22702,0.57988,0.2289,-0.93005133,0.312071955,-0.14465295
1764764058.0602589,-4.22702,0.57988,0.2289,-0.93005133,0.312071955,-0.14465295
1764764058.0602589,-4.22702,0.57988,0.2289,-0.93005133,0.312071955,-0.14465295
1764764058.0602589,-4.22702,0.57988,0.2289,-0.93005133,0.312071955,-0.14465295
1764764058.0602589,-4.22702,0.57988,0.2289,-0.93005133,0.312071955,-0.14465295
1764764058.0602589,-4.22702,0.57988,0.2289,-0.93005133,0.312071955,-0.14465295
1764764058.0602589,-4.22702,0.57988,0.2289,-0.93005133,0.312071955,-0.14465295
1764764058.0602589,-4.22702,0.57988,0.2289,-0.93005133,0.312071955,-0.14465295
1764764058.0602589,-5.5699,0.73248,0.65618,-0.92968512,0.312438165,-0.14514123
1764764058.0602589,-5.5699,0.73248,0.65618,-0.92968512,0.312438165,-0.14514123
1764764058.0602589,-5.5699,0.73248,0.65618,-0.92968512,0.312438165,-0.14514123
1764764058.0602589,-5.5699,0.73248,0.65618,-0.92968512,0.312438165,-0.14514123
1764764058.1059318,-5.5699,0.73248,0.65618,-0.92968512,0.312438165,-0.14514123
1764764058.1059318,-5.5699,0.73248,0.65618,-0.92968512,0.312438165,-0.14514123
1764764058.1059318,-5.5699,0.73248,0.65618,-0.92968512,0.312438165,-0.14514123
1764764058.1059318,-5.5699,0.73248,0.65618,-0.92968512,0.312438165,-0.14514123
1764764058.1059318,-5.5699,0.73248,0.65618,-0.92968512,0.312438165,-0.14514123
1764764058.1059318,-5.5699,0.73248,0.65618,-0.92968512,0.312438165,-0.14514123
1764764058.1059318,-7.49266,0.0,0.6714399999999999,-0.931821345,0.31530681,-0.14440881
1764764058.1059318,-7.49266,0.0,0.6714399999999999,-0.931821345,0.31530681,-0.14440881
1764764058.1059318,-7.49266,0.0,0.6714399999999999,-0.931821345,0.31530681,-0.14440881
1764764058.1059318,-7.49266,0.0,0.6714399999999999,-0.931821345,0.31530681,-0.14440881
1764764058.1059318,-7.49266,0.0,0.6714399999999999,-0.931821345,0.31530681,-0.14440881
1764764058.1059318,-7.49266,0.0,0.6714399999999999,-0.931821345,0.31530681,-0.14440881
1764764058.1059318,-7.49266,0.0,0.6714399999999999,-0.931821345,0.31530681,-0.14440881
1764764058.1059318,-7.49266,0.0,0.6714399999999999,-0.931821345,0.31530681,-0.14440881
1764764058.106955,-7.49266,0.0,0.6714399999999999,-0.931821345,0.31530681,-0.14440881
1764764058.106955,-7.49266,0.0,0.6714399999999999,-0.931821345,0.31530681,-0.14440881
1764764058.106955,-7.553699999999999,0.3051999999999999,0.13734,-0.933042045,0.31774821,-0.14184534
1764764058.106955,-7.553699999999999,0.3051999999999999,0.13734,-0.933042045,0.31774821,-0.14184534
1764764058.106955,-7.553699999999999,0.3051999999999999,0.13734,-0.933042045,0.31774821,-0.14184534
1764764058.106955,-7.553699999999999,0.3051999999999999,0.13734,-0.933042045,0.31774821,-0.14184534
1764764058.106955,-7.553699999999999,0.3051999999999999,0.13734,-0.933042045,0.31774821,-0.14184534
1764764058.106955,-7.553699999999999,0.3051999999999999,0.13734,-0.933042045,0.31774821,-0.14184534
1764764058.106955,-7.553699999999999,0.3051999999999999,0.13734,-0.933042045,0.31774821,-0.14184534
1764764058.106955,-7.553699999999999,0.3051999999999999,0.13734,-0.933042045,0.31774821,-0.14184534
1764764058.152804,-7.553699999999999,0.3051999999999999,0.13734,-0.933042045,0.31774821,-0.14184534
1764764058.152804,-7.553699999999999,0.3051999999999999,0.13734,-0.933042045,0.31774821,-0.14184534
1764764058.152804,-6.83648,-0.12208,-0.13734,-0.932431695,0.31567302,-0.14123499
1764764058.152804,-6.83648,-0.12208,-0.13734,-0.932431695,0.31567302,-0.14123499
1764764058.1533108,-6.83648,-0.12208,-0.13734,-0.932431695,0.31567302,-0.14123499
1764764058.1533108,-6.83648,-0.12208,-0.13734,-0.932431695,0.31567302,-0.14123499
1764764058.1533108,-6.83648,-0.12208,-0.13734,-0.932431695,0.31567302,-0.14123499
1764764058.1533108,-6.83648,-0.12208,-0.13734,-0.932431695,0.31567302,-0.14123499
1764764058.1533108,-6.83648,-0.12208,-0.13734,-0.932431695,0.31567302,-0.14123499
1764764058.1533108,-6.83648,-0.12208,-0.13734,-0.932431695,0.31567302,-0.14123499
1764764058.1533108,-6.83648,-0.12208,-0.13734,-0.932431695,0.31567302,-0.14123499
1764764058.1533108,-6.83648,-0.12208,-0.13734,-0.932431695,0.31567302,-0.14123499
1764764058.1533108,-5.753019999999999,-0.1678599999999999,0.42728,-0.93090582,0.31298748,-0.141784305
1764764058.1533108,-5.753019999999999,-0.1678599999999999,0.42728,-0.93090582,0.31298748,-0.141784305
1764764058.1533108,-5.753019999999999,-0.1678599999999999,0.42728,-0.93090582,0.31298748,-0.141784305
1764764058.1533108,-5.753019999999999,-0.1678599999999999,0.42728,-0.93090582,0.31298748,-0.141784305
1764764058.1533108,-5.753019999999999,-0.1678599999999999,0.42728,-0.93090582,0.31298748,-0.141784305
1764764058.1533108,-5.753019999999999,-0.1678599999999999,0.42728,-0.93090582,0.31298748,-0.141784305
1764764058.154318,-5.753019999999999,-0.1678599999999999,0.42728,-0.93090582,0.31298748,-0.141784305
1764764058.154318,-5.753019999999999,-0.1678599999999999,0.42728,-0.93090582,0.31298748,-0.141784305
1764764058.1547463,-5.753019999999999,-0.1678599999999999,0.42728,-0.93090582,0.31298748,-0.141784305
1764764058.1547463,-5.753019999999999,-0.1678599999999999,0.42728,-0.93090582,0.31298748,-0.141784305
1764764058.197174,-5.5699,1.32762,1.23606,-0.92883063,0.311461605,-0.142516725
1764764058.1977184,-5.5699,1.32762,1.23606,-0.92883063,0.311461605,-0.142516725
1764764058.1977184,-5.5699,1.32762,1.23606,-0.92883063,0.311461605,-0.142516725
1764764058.1977184,-5.5699,1.32762,1.23606,-0.92883063,0.311461605,-0.142516725
1764764058.1977184,-5.5699,1.32762,1.23606,-0.92883063,0.311461605,-0.142516725
1764764058.1977184,-5.5699,1.32762,1.23606,-0.92883063,0.311461605,-0.142516725
1764764058.1977184,-5.5699,1.32762,1.23606,-0.92883063,0.311461605,-0.142516725
1764764058.1977184,-5.5699,1.32762,1.23606,-0.92883063,0.311461605,-0.142516725
1764764058.1977184,-5.5699,1.32762,1.23606,-0.92883063,0.311461605,-0.142516725
1764764058.1977184,-5.5699,1.32762,1.23606,-0.92883063,0.311461605,-0.142516725
1764764058.1977184,-5.73776,1.1445,0.94612,-0.930112365,0.310240905,-0.142882935
1764764058.1977184,-5.73776,1.1445,0.94612,-0.930112365,0.310240905,-0.142882935
1764764058.1988077,-5.73776,1.1445,0.94612,-0.930112365,0.310240905,-0.142882935
1764764058.1988077,-5.73776,1.1445,0.94612,-0.930112365,0.310240905,-0.142882935
1764764058.1988077,-5.73776,1.1445,0.94612,-0.930112365,0.310240905,-0.142882935
1764764058.1988077,-5.73776,1.1445,0.94612,-0.930112365,0.310240905,-0.142882935
1764764058.1988077,-5.73776,1.1445,0.94612,-0.930112365,0.310240905,-0.142882935
1764764058.1988077,-5.73776,1.1445,0.94612,-0.930112365,0.310240905,-0.142882935
1764764058.1988077,-5.73776,1.1445,0.94612,-0.930112365,0.310240905,-0.142882935
1764764058.1988077,-5.73776,1.1445,0.94612,-0.930112365,0.310240905,-0.142882935
1764764058.1988077,-4.63904,0.8087799999999999,0.25942,-0.93273687,0.30944745,-0.142394655
1764764058.1988077,-4.63904,0.8087799999999999,0.25942,-0.93273687,0.30944745,-0.142394655
1764764058.1988077,-4.63904,0.8087799999999999,0.25942,-0.93273687,0.30944745,-0.142394655
1764764058.1988077,-4.63904,0.8087799999999999,0.25942,-0.93273687,0.30944745,-0.142394655
1764764058.245121,-4.63904,0.8087799999999999,0.25942,-0.93273687,0.30944745,-0.142394655
1764764058.245121,-4.63904,0.8087799999999999,0.25942,-0.93273687,0.30944745,-0.142394655
1764764058.245121,-4.63904,0.8087799999999999,0.25942,-0.93273687,0.30944745,-0.142394655
1764764058.245121,-4.63904,0.8087799999999999,0.25942,-0.93273687,0.30944745,-0.142394655
1764764058.245121,-4.63904,0.8087799999999999,0.25942,-0.93273687,0.30944745,-0.142394655
1764764058.245121,-4.63904,0.8087799999999999,0.25942,-0.93273687,0.30944745,-0.142394655
1764764058.245121,-4.24228,0.7019599999999999,0.62566,-0.933164115,0.31152264,-0.141540165
1764764058.245121,-4.24228,0.7019599999999999,0.62566,-0.933164115,0.31152264,-0.141540165
1764764058.245121,-4.24228,0.7019599999999999,0.62566,-0.933164115,0.31152264,-0.141540165
1764764058.245121,-4.24228,0.7019599999999999,0.62566,-0.933164115,0.31152264,-0.141540165
1764764058.2456388,-4.24228,0.7019599999999999,0.62566,-0.933164115,0.31152264,-0.141540165
1764764058.2456388,-4.24228,0.7019599999999999,0.62566,-0.933164115,0.31152264,-0.141540165
1764764058.2456388,-4.24228,0.7019599999999999,0.62566,-0.933164115,0.31152264,-0.141540165
1764764058.2456388,-4.24228,0.7019599999999999,0.62566,-0.933164115,0.31152264,-0.141540165
1764764058.2456388,-4.24228,0.7019599999999999,0.62566,-0.933164115,0.31152264,-0.141540165
1764764058.2456388,-4.24228,0.7019599999999999,0.62566,-0.933164115,0.31152264,-0.141540165
1764764058.2456388,-4.33384,0.9919,0.82404,-0.93359136,0.31359783,-0.14086878
1764764058.2456388,-4.33384,0.9919,0.82404,-0.93359136,0.31359783,-0.14086878
1764764058.2456388,-4.33384,0.9919,0.82404,-0.93359136,0.31359783,-0.14086878
1764764058.2456388,-4.33384,0.9919,0.82404,-0.93359136,0.31359783,-0.14086878
1764764058.2456388,-4.33384,0.9919,0.82404,-0.93359136,0.31359783,-0.14086878
1764764058.2456388,-4.33384,0.9919,0.82404,-0.93359136,0.31359783,-0.14086878
1764764058.2456388,-4.33384,0.9919,0.82404,-0.93359136,0.31359783,-0.14086878
1764764058.2456388,-4.33384,0.9919,0.82404,-0.93359136,0.31359783,-0.14086878
1764764058.2917182,-4.33384,0.9919,0.82404,-0.93359136,0.31359783,-0.14086878
1764764058.2917182,-4.33384,0.9919,0.82404,-0.93359136,0.31359783,-0.14086878
1764764058.2917182,-2.77732,0.77826,1.11398,-0.932431695,0.314757495,-0.142394655
1764764058.2917182,-2.77732,0.77826,1.11398,-0.932431695,0.314757495,-0.142394655
1764764058.2917182,-2.77732,0.77826,1.11398,-0.932431695,0.314757495,-0.142394655
1764764058.2917182,-2.77732,0.77826,1.11398,-0.932431695,0.314757495,-0.142394655
1764764058.29223,-2.77732,0.77826,1.11398,-0.932431695,0.314757495,-0.142394655
1764764058.29223,-2.77732,0.77826,1.11398,-0.932431695,0.314757495,-0.142394655
1764764058.29223,-2.77732,0.77826,1.11398,-0.932431695,0.314757495,-0.142394655
1764764058.29223,-2.77732,0.77826,1.11398,-0.932431695,0.314757495,-0.142394655
1764764058.29223,-2.77732,0.77826,1.11398,-0.932431695,0.314757495,-0.142394655
1764764058.29223,-2.77732,0.77826,1.11398,-0.932431695,0.314757495,-0.142394655
1764764058.29223,-3.69292,1.11398,0.9156,-0.92992926,0.31457439,-0.143859495
1764764058.29223,-3.69292,1.11398,0.9156,-0.92992926,0.31457439,-0.143859495
1764764058.29223,-3.69292,1.11398,0.9156,-0.92992926,0.31457439,-0.143859495
1764764058.29223,-3.69292,1.11398,0.9156,-0.92992926,0.31457439,-0.143859495
1764764058.29223,-3.69292,1.11398,0.9156,-0.92992926,0.31457439,-0.143859495
1764764058.29223,-3.69292,1.11398,0.9156,-0.92992926,0.31457439,-0.143859495
1764764058.29223,-3.69292,1.11398,0.9156,-0.92992926,0.31457439,-0.143859495
1764764058.29223,-3.69292,1.11398,0.9156,-0.92992926,0.31457439,-0.143859495
1764764058.29223,-3.69292,1.11398,0.9156,-0.92992926,0.31457439,-0.143859495
1764764058.29223,-3.69292,1.11398,0.9156,-0.92992926,0.31457439,-0.143859495
1764764058.3379755,-4.92898,1.12924,0.65618,-0.930112365,0.315489915,-0.14392053
1764764058.3379755,-4.92898,1.12924,0.65618,-0.930112365,0.315489915,-0.14392053
1764764058.3379755,-4.92898,1.12924,0.65618,-0.930112365,0.315489915,-0.14392053
1764764058.3379755,-4.92898,1.12924,0.65618,-0.930112365,0.315489915,-0.14392053
1764764058.3379755,-4.92898,1.12924,0.65618,-0.930112365,0.315489915,-0.14392053
1764764058.3379755,-4.92898,1.12924,0.65618,-0.930112365,0.315489915,-0.14392053
1764764058.3379755,-4.92898,1.12924,0.65618,-0.930112365,0.315489915,-0.14392053
1764764058.3379755,-4.92898,1.12924,0.65618,-0.930112365,0.315489915,-0.14392053
1764764058.3379755,-4.92898,1.12924,0.65618,-0.930112365,0.315489915,-0.14392053
1764764058.3379755,-4.92898,1.12924,0.65618,-0.930112365,0.315489915,-0.14392053
1764764058.3379755,-5.90562,1.54126,0.41202,-0.93053961,0.31701579,-0.14355432
1764764058.3379755,-5.90562,1.54126,0.41202,-0.93053961,0.31701579,-0.14355432
1764764058.3379755,-5.90562,1.54126,0.41202,-0.93053961,0.31701579,-0.14355432
1764764058.3379755,-5.90562,1.54126,0.41202,-0.93053961,0.31701579,-0.14355432
1764764058.3379755,-5.90562,1.54126,0.41202,-0.93053961,0.31701579,-0.14355432
1764764058.3379755,-5.90562,1.54126,0.41202,-0.93053961,0.31701579,-0.14355432
1764764058.3379755,-5.90562,1.54126,0.41202,-0.93053961,0.31701579,-0.14355432
1764764058.3379755,-5.90562,1.54126,0.41202,-0.93053961,0.31701579,-0.14355432
1764764058.3379755,-5.90562,1.54126,0.41202,-0.93053961,0.31701579,-0.14355432
1764764058.3379755,-5.90562,1.54126,0.41202,-0.93053961,0.31701579,-0.14355432
1764764058.3379755,-5.58516,1.12924,0.97664,-0.93114996,0.31530681,-0.1416012
1764764058.3379755,-5.58516,1.12924,0.97664,-0.93114996,0.31530681,-0.1416012
1764764058.3379755,-5.58516,1.12924,0.97664,-0.93114996,0.31530681,-0.1416012
1764764058.3379755,-5.58516,1.12924,0.97664,-0.93114996,0.31530681,-0.1416012
1764764058.3850946,-5.58516,1.12924,0.97664,-0.93114996,0.31530681,-0.1416012
1764764058.3850946,-5.58516,1.12924,0.97664,-0.93114996,0.31530681,-0.1416012
1764764058.3850946,-5.58516,1.12924,0.97664,-0.93114996,0.31530681,-0.1416012
1764764058.3850946,-5.58516,1.12924,0.97664,-0.93114996,0.31530681,-0.1416012
1764764058.3850946,-5.58516,1.12924,0.97664,-0.93114996,0.31530681,-0.1416012
1764764058.3850946,-5.58516,1.12924,0.97664,-0.93114996,0.31530681,-0.1416012
1764764058.3850946,-4.16598,0.74774,0.73248,-0.93151617,0.3137199,-0.140319465
1764764058.3850946,-4.16598,0.74774,0.73248,-0.93151617,0.3137199,-0.140319465
1764764058.3850946,-4.16598,0.74774,0.73248,-0.93151617,0.3137199,-0.140319465
1764764058.3850946,-4.16598,0.74774,0.73248,-0.93151617,0.3137199,-0.140319465
1764764058.3850946,-4.16598,0.74774,0.73248,-0.93151617,0.3137199,-0.140319465
1764764058.3850946,-4.16598,0.74774,0.73248,-0.93151617,0.3137199,-0.140319465
1764764058.3850946,-4.16598,0.74774,0.73248,-0.93151617,0.3137199,-0.140319465
1764764058.3850946,-4.16598,0.74774,0.73248,-0.93151617,0.3137199,-0.140319465
1764764058.3850946,-4.16598,0.74774,0.73248,-0.93151617,0.3137199,-0.140319465
1764764058.3850946,-4.16598,0.74774,0.73248,-0.93151617,0.3137199,-0.140319465
1764764058.3850946,-3.15882,0.65618,0.85456,-0.930112365,0.3112785,-0.13989222
1764764058.3850946,-3.15882,0.65618,0.85456,-0.930112365,0.3112785,-0.13989222
1764764058.3850946,-3.15882,0.65618,0.85456,-0.930112365,0.3112785,-0.13989222
1764764058.3850946,-3.15882,0.65618,0.85456,-0.930112365,0.3112785,-0.13989222
1764764058.3850946,-3.15882,0.65618,0.85456,-0.930112365,0.3112785,-0.13989222
1764764058.3850946,-3.15882,0.65618,0.85456,-0.930112365,0.3112785,-0.13989222
1764764058.4357305,-3.15882,0.65618,0.85456,-0.930112365,0.3112785,-0.13989222
1764764058.4357305,-3.15882,0.65618,0.85456,-0.930112365,0.3112785,-0.13989222
1764764058.4357305,-3.15882,0.65618,0.85456,-0.930112365,0.3112785,-0.13989222
1764764058.4357305,-3.15882,0.65618,0.85456,-0.930112365,0.3112785,-0.13989222
1764764058.4357305,-3.6624,0.88508,0.27468,-0.93029547,0.31030194,-0.14196741
1764764058.4357305,-3.6624,0.88508,0.27468,-0.93029547,0.31030194,-0.14196741
1764764058.4357305,-3.6624,0.88508,0.27468,-0.93029547,0.31030194,-0.14196741
1764764058.4357305,-3.6624,0.88508,0.27468,-0.93029547,0.31030194,-0.14196741
1764764058.4357305,-3.6624,0.88508,0.27468,-0.93029547,0.31030194,-0.14196741
1764764058.4357305,-3.6624,0.88508,0.27468,-0.93029547,0.31030194,-0.14196741
1764764058.4357305,-3.6624,0.88508,0.27468,-0.93029547,0.31030194,-0.14196741
1764764058.4357305,-3.6624,0.88508,0.27468,-0.93029547,0.31030194,-0.14196741
1764764058.4357305,-3.6624,0.88508,0.27468,-0.93029547,0.31030194,-0.14196741
1764764058.4357305,-3.6624,0.88508,0.27468,-0.93029547,0.31030194,-0.14196741
1764764058.4357305,-3.99812,0.96138,0.19838,-0.930722715,0.312316095,-0.142760865
1764764058.4357305,-3.99812,0.96138,0.19838,-0.930722715,0.312316095,-0.142760865
1764764058.4357305,-3.99812,0.96138,0.19838,-0.930722715,0.312316095,-0.142760865
1764764058.4357305,-3.99812,0.96138,0.19838,-0.930722715,0.312316095,-0.142760865
1764764058.4357305,-3.99812,0.96138,0.19838,-0.930722715,0.312316095,-0.142760865
1764764058.4357305,-3.99812,0.96138,0.19838,-0.930722715,0.312316095,-0.142760865
1764764058.4357305,-3.99812,0.96138,0.19838,-0.930722715,0.312316095,-0.142760865
1764764058.4357305,-3.99812,0.96138,0.19838,-0.930722715,0.312316095,-0.142760865
1764764058.4357305,-3.99812,0.96138,0.19838,-0.930722715,0.312316095,-0.142760865
1764764058.4357305,-3.99812,0.96138,0.19838,-0.930722715,0.312316095,-0.142760865
1764764058.4357305,-4.39488,0.9156,-0.03052,-0.931210995,0.31506267,-0.142394655
1764764058.4357305,-4.39488,0.9156,-0.03052,-0.931210995,0.31506267,-0.142394655
1764764058.4786727,-4.39488,0.9156,-0.03052,-0.931210995,0.31506267,-0.142394655
1764764058.4786727,-4.39488,0.9156,-0.03052,-0.931210995,0.31506267,-0.142394655
1764764058.4786727,-4.39488,0.9156,-0.03052,-0.931210995,0.31506267,-0.142394655
1764764058.4786727,-4.39488,0.9156,-0.03052,-0.931210995,0.31506267,-0.142394655
1764764058.4786727,-4.39488,0.9156,-0.03052,-0.931210995,0.31506267,-0.142394655
1764764058.4786727,-4.39488,0.9156,-0.03052,-0.931210995,0.31506267,-0.142394655
1764764058.4786727,-4.39488,0.9156,-0.03052,-0.931210995,0.31506267,-0.142394655
1764764058.4786727,-4.39488,0.9156,-0.03052,-0.931210995,0.31506267,-0.142394655
1764764058.4786727,-4.36436,0.28994,0.19838,-0.93224859,0.315856125,-0.141051885
1764764058.4786727,-4.36436,0.28994,0.19838,-0.93224859,0.315856125,-0.141051885
1764764058.4786727,-4.36436,0.28994,0.19838,-0.93224859,0.315856125,-0.141051885
1764764058.4786727,-4.36436,0.28994,0.19838,-0.93224859,0.315856125,-0.141051885
1764764058.4786727,-4.36436,0.28994,0.19838,-0.93224859,0.315856125,-0.141051885
1764764058.4786727,-4.36436,0.28994,0.19838,-0.93224859,0.315856125,-0.141051885
1764764058.4786727,-4.36436,0.28994,0.19838,-0.93224859,0.315856125,-0.141051885
1764764058.4786727,-4.36436,0.28994,0.19838,-0.93224859,0.315856125,-0.141051885
1764764058.4786727,-4.36436,0.28994,0.19838,-0.93224859,0.315856125,-0.141051885
1764764058.4786727,-4.36436,0.28994,0.19838,-0.93224859,0.315856125,-0.141051885
1764764058.4786727,-4.54748,0.8392999999999999,0.57988,-0.93188238,0.315245775,-0.141173955
1764764058.4786727,-4.54748,0.8392999999999999,0.57988,-0.93188238,0.315245775,-0.141173955
1764764058.4786727,-4.54748,0.8392999999999999,0.57988,-0.93188238,0.315245775,-0.141173955
1764764058.4786727,-4.54748,0.8392999999999999,0.57988,-0.93188238,0.315245775,-0.141173955
1764764058.5263467,-4.54748,0.8392999999999999,0.57988,-0.93188238,0.315245775,-0.141173955
1764764058.5263467,-4.54748,0.8392999999999999,0.57988,-0.93188238,0.315245775,-0.141173955
1764764058.5263467,-4.54748,0.8392999999999999,0.57988,-0.93188238,0.315245775,-0.141173955
1764764058.5263467,-4.54748,0.8392999999999999,0.57988,-0.93188238,0.315245775,-0.141173955
1764764058.5263467,-4.54748,0.8392999999999999,0.57988,-0.93188238,0.315245775,-0.141173955
1764764058.5263467,-4.54748,0.8392999999999999,0.57988,-0.93188238,0.315245775,-0.141173955
1764764058.5263467,-4.51696,1.15976,0.36624,-0.93102789,0.314757495,-0.1428219
1764764058.5263467,-4.51696,1.15976,0.36624,-0.93102789,0.314757495,-0.1428219
1764764058.5263467,-4.51696,1.15976,0.36624,-0.93102789,0.314757495,-0.1428219
1764764058.5263467,-4.51696,1.15976,0.36624,-0.93102789,0.314757495,-0.1428219
1764764058.5263467,-4.51696,1.15976,0.36624,-0.93102789,0.314757495,-0.1428219
1764764058.5263467,-4.51696,1.15976,0.36624,-0.93102789,0.314757495,-0.1428219
1764764058.5263467,-4.51696,1.15976,0.36624,-0.93102789,0.314757495,-0.1428219
1764764058.5263467,-4.51696,1.15976,0.36624,-0.93102789,0.314757495,-0.1428219
1764764058.5263467,-4.51696,1.15976,0.36624,-0.93102789,0.314757495,-0.1428219
1764764058.5263467,-4.51696,1.15976,0.36624,-0.93102789,0.314757495,-0.1428219
1764764058.5263467,-5.31048,0.71722,-0.41202,-0.9301734,0.31359783,-0.143249145
1764764058.5263467,-5.31048,0.71722,-0.41202,-0.9301734,0.31359783,-0.143249145
1764764058.5263467,-5.31048,0.71722,-0.41202,-0.9301734,0.31359783,-0.143249145
1764764058.5263467,-5.31048,0.71722,-0.41202,-0.9301734,0.31359783,-0.143249145
1764764058.5263467,-5.31048,0.71722,-0.41202,-0.9301734,0.31359783,-0.143249145
1764764058.5263467,-5.31048,0.71722,-0.41202,-0.9301734,0.31359783,-0.143249145
1764764058.5263467,-5.31048,0.71722,-0.41202,-0.9301734,0.31359783,-0.143249145
1764764058.5263467,-5.31048,0.71722,-0.41202,-0.9301734,0.31359783,-0.143249145
1764764058.5747418,-5.31048,0.71722,-0.41202,-0.9301734,0.31359783,-0.143249145
1764764058.5747418,-5.31048,0.71722,-0.41202,-0.9301734,0.31359783,-0.143249145
1764764058.5747418,-6.72966,0.8087799999999999,-0.62566,-0.92980719,0.313536795,-0.141296025
1764764058.5747418,-6.72966,0.8087799999999999,-0.62566,-0.92980719,0.313536795,-0.141296025
1764764058.5747418,-6.72966,0.8087799999999999,-0.62566,-0.92980719,0.313536795,-0.141296025
1764764058.5747418,-6.72966,0.8087799999999999,-0.62566,-0.92980719,0.313536795,-0.141296025
1764764058.5747418,-6.72966,0.8087799999999999,-0.62566,-0.92980719,0.313536795,-0.141296025
1764764058.5747418,-6.72966,0.8087799999999999,-0.62566,-0.92980719,0.313536795,-0.141296025
1764764058.5747418,-6.72966,0.8087799999999999,-0.62566,-0.92980719,0.313536795,-0.141296025
1764764058.5747418,-6.72966,0.8087799999999999,-0.62566,-0.92980719,0.313536795,-0.141296025
1764764058.5747418,-6.72966,0.8087799999999999,-0.62566,-0.92980719,0.313536795,-0.141296025
1764764058.5747418,-6.72966,0.8087799999999999,-0.62566,-0.92980719,0.313536795,-0.141296025
1764764058.5747418,-5.24944,-0.1678599999999999,-0.39676,-0.93127203,0.31408611,-0.14025843
1764764058.5747418,-5.24944,-0.1678599999999999,-0.39676,-0.93127203,0.31408611,-0.14025843
1764764058.5747418,-5.24944,-0.1678599999999999,-0.39676,-0.93127203,0.31408611,-0.14025843
1764764058.5747418,-5.24944,-0.1678599999999999,-0.39676,-0.93127203,0.31408611,-0.14025843
1764764058.5747418,-5.24944,-0.1678599999999999,-0.39676,-0.93127203,0.31408611,-0.14025843
1764764058.5747418,-5.24944,-0.1678599999999999,-0.39676,-0.93127203,0.31408611,-0.14025843
1764764058.5747418,-5.24944,-0.1678599999999999,-0.39676,-0.93127203,0.31408611,-0.14025843
1764764058.5747418,-5.24944,-0.1678599999999999,-0.39676,-0.93127203,0.31408611,-0.14025843
1764764058.5747418,-5.24944,-0.1678599999999999,-0.39676,-0.93127203,0.31408611,-0.14025843
1764764058.5747418,-5.24944,-0.1678599999999999,-0.39676,-0.93127203,0.31408611,-0.14025843
1764764058.622373,-3.25038,-0.7019599999999999,0.28994,-0.931088925,0.31201092,-0.141296025
1764764058.622373,-3.25038,-0.7019599999999999,0.28994,-0.931088925,0.31201092,-0.141296025
1764764058.622373,-3.25038,-0.7019599999999999,0.28994,-0.931088925,0.31201092,-0.141296025
1764764058.622373,-3.25038,-0.7019599999999999,0.28994,-0.931088925,0.31201092,-0.141296025
1764764058.622373,-3.25038,-0.7019599999999999,0.28994,-0.931088925,0.31201092,-0.141296025
1764764058.622373,-3.25038,-0.7019599999999999,0.28994,-0.931088925,0.31201092,-0.141296025
1764764058.622373,-3.25038,-0.7019599999999999,0.28994,-0.931088925,0.31201092,-0.141296025
1764764058.622373,-3.25038,-0.7019599999999999,0.28994,-0.931088925,0.31201092,-0.141296025
1764764058.622373,-3.25038,-0.7019599999999999,0.28994,-0.931088925,0.31201092,-0.141296025
1764764058.622373,-3.25038,-0.7019599999999999,0.28994,-0.931088925,0.31201092,-0.141296025
1764764058.622373,-2.54842,0.39676,-0.1525999999999999,-0.93029547,0.310607115,-0.142882935
1764764058.622373,-2.54842,0.39676,-0.1525999999999999,-0.93029547,0.310607115,-0.142882935
1764764058.622373,-2.54842,0.39676,-0.1525999999999999,-0.93029547,0.310607115,-0.142882935
1764764058.622373,-2.54842,0.39676,-0.1525999999999999,-0.93029547,0.310607115,-0.142882935
1764764058.622373,-2.54842,0.39676,-0.1525999999999999,-0.93029547,0.310607115,-0.142882935
1764764058.622373,-2.54842,0.39676,-0.1525999999999999,-0.93029547,0.310607115,-0.142882935
1764764058.622373,-2.54842,0.39676,-0.1525999999999999,-0.93029547,0.310607115,-0.142882935
1764764058.622373,-2.54842,0.39676,-0.1525999999999999,-0.93029547,0.310607115,-0.142882935
1764764058.622373,-2.54842,0.39676,-0.1525999999999999,-0.93029547,0.310607115,-0.142882935
1764764058.622373,-2.54842,0.39676,-0.1525999999999999,-0.93029547,0.310607115,-0.142882935
1764764058.622373,-4.28806,0.2289,0.21364,-0.9301734,0.312071955,-0.142760865
1764764058.622373,-4.28806,0.2289,0.21364,-0.9301734,0.312071955,-0.142760865
1764764058.622373,-4.28806,0.2289,0.21364,-0.9301734,0.312071955,-0.142760865
1764764058.622373,-4.28806,0.2289,0.21364,-0.9301734,0.312071955,-0.142760865
1764764058.6654985,-4.28806,0.2289,0.21364,-0.9301734,0.312071955,-0.142760865
1764764058.6660397,-4.28806,0.2289,0.21364,-0.9301734,0.312071955,-0.142760865
1764764058.6660397,-4.28806,0.2289,0.21364,-0.9301734,0.312071955,-0.142760865
1764764058.6660397,-4.28806,0.2289,0.21364,-0.9301734,0.312071955,-0.142760865
1764764058.6660397,-4.28806,0.2289,0.21364,-0.9301734,0.312071955,-0.142760865
1764764058.6660397,-4.28806,0.2289,0.21364,-0.9301734,0.312071955,-0.142760865
1764764058.6660397,-5.96666,0.79352,0.24416,-0.93188238,0.31518474,-0.14196741
1764764058.6660397,-5.96666,0.79352,0.24416,-0.93188238,0.31518474,-0.14196741
1764764058.6660397,-5.96666,0.79352,0.24416,-0.93188238,0.31518474,-0.14196741
1764764058.6670628,-5.96666,0.79352,0.24416,-0.93188238,0.31518474,-0.14196741
1764764058.6670628,-5.96666,0.79352,0.24416,-0.93188238,0.31518474,-0.14196741
1764764058.6670628,-5.96666,0.79352,0.24416,-0.93188238,0.31518474,-0.14196741
1764764058.6670628,-5.96666,0.79352,0.24416,-0.93188238,0.31518474,-0.14196741
1764764058.6670628,-5.96666,0.79352,0.24416,-0.93188238,0.31518474,-0.14196741
1764764058.6675615,-5.96666,0.79352,0.24416,-0.93188238,0.31518474,-0.14196741
1764764058.6675615,-5.96666,0.79352,0.24416,-0.93188238,0.31518474,-0.14196741
1764764058.6675615,-5.53938,0.71722,0.47306,-0.93359136,0.31506267,-0.14111292
1764764058.6675615,-5.53938,0.71722,0.47306,-0.93359136,0.31506267,-0.14111292
1764764058.6675615,-5.53938,0.71722,0.47306,-0.93359136,0.31506267,-0.14111292
1764764058.6675615,-5.53938,0.71722,0.47306,-0.93359136,0.31506267,-0.14111292
1764764058.6675615,-5.53938,0.71722,0.47306,-0.93359136,0.31506267,-0.14111292
1764764058.6675615,-5.53938,0.71722,0.47306,-0.93359136,0.31506267,-0.14111292
1764764058.6675615,-5.53938,0.71722,0.47306,-0.93359136,0.31506267,-0.14111292
1764764058.6675615,-5.53938,0.71722,0.47306,-0.93359136,0.31506267,-0.14111292
1764764058.7155504,-5.53938,0.71722,0.47306,-0.93359136,0.31506267,-0.14111292
1764764058.7155504,-5.53938,0.71722,0.47306,-0.93359136,0.31506267,-0.14111292
1764764058.7155504,-5.0358,0.88508,-0.77826,-0.93298101,0.3124992,-0.140319465
1764764058.7155504,-5.0358,0.88508,-0.77826,-0.93298101,0.3124992,-0.140319465
1764764058.7155504,-5.0358,0.88508,-0.77826,-0.93298101,0.3124992,-0.140319465
1764764058.7155504,-5.0358,0.88508,-0.77826,-0.93298101,0.3124992,-0.140319465
1764764058.7155504,-5.0358,0.88508,-0.77826,-0.93298101,0.3124992,-0.140319465
1764764058.7155504,-5.0358,0.88508,-0.77826,-0.93298101,0.3124992,-0.140319465
1764764058.7155504,-5.0358,0.88508,-0.77826,-0.93298101,0.3124992,-0.140319465
1764764058.7155504,-5.0358,0.88508,-0.77826,-0.93298101,0.3124992,-0.140319465
1764764058.7155504,-5.0358,0.88508,-0.77826,-0.93298101,0.3124992,-0.140319465
1764764058.7155504,-5.0358,0.88508,-0.77826,-0.93298101,0.3124992,-0.140319465
1764764058.7155504,-3.815,0.12208,-0.39676,-0.931455135,0.31140057,-0.140075325
1764764058.7155504,-3.815,0.12208,-0.39676,-0.931455135,0.31140057,-0.140075325
1764764058.7155504,-3.815,0.12208,-0.39676,-0.931455135,0.31140057,-0.140075325
1764764058.7155504,-3.815,0.12208,-0.39676,-0.931455135,0.31140057,-0.140075325
1764764058.7155504,-3.815,0.12208,-0.39676,-0.931455135,0.31140057,-0.140075325
1764764058.7155504,-3.815,0.12208,-0.39676,-0.931455135,0.31140057,-0.140075325
1764764058.7155504,-3.815,0.12208,-0.39676,-0.931455135,0.31140057,-0.140075325
1764764058.7155504,-3.815,0.12208,-0.39676,-0.931455135,0.31140057,-0.140075325
1764764058.7155504,-3.815,0.12208,-0.39676,-0.931455135,0.31140057,-0.140075325
1764764058.7155504,-3.815,0.12208,-0.39676,-0.931455135,0.31140057,-0.140075325
1764764058.7155504,-3.4335,0.54936,0.6103999999999999,-0.92992926,0.31066815,-0.140319465
1764764058.7155504,-3.4335,0.54936,0.6103999999999999,-0.92992926,0.31066815,-0.140319465
1764764058.7595496,-3.4335,0.54936,0.6103999999999999,-0.92992926,0.31066815,-0.140319465
1764764058.7595496,-3.4335,0.54936,0.6103999999999999,-0.92992926,0.31066815,-0.140319465
1764764058.7595496,-3.4335,0.54936,0.6103999999999999,-0.92992926,0.31066815,-0.140319465
1764764058.7595496,-3.4335,0.54936,0.6103999999999999,-0.92992926,0.31066815,-0.140319465
1764764058.7595496,-3.4335,0.54936,0.6103999999999999,-0.92992926,0.31066815,-0.140319465
1764764058.7595496,-3.4335,0.54936,0.6103999999999999,-0.92992926,0.31066815,-0.140319465
1764764058.7595496,-3.4335,0.54936,0.6103999999999999,-0.92992926,0.31066815,-0.140319465
1764764058.7595496,-3.4335,0.54936,0.6103999999999999,-0.92992926,0.31066815,-0.140319465
1764764058.7595496,-4.0439,0.77826,1.00716,-0.93176031,0.311461605,-0.14086878
1764764058.7595496,-4.0439,0.77826,1.00716,-0.93176031,0.311461605,-0.14086878
1764764058.760056,-4.0439,0.77826,1.00716,-0.93176031,0.311461605,-0.14086878
1764764058.760056,-4.0439,0.77826,1.00716,-0.93176031,0.311461605,-0.14086878
1764764058.760056,-4.0439,0.77826,1.00716,-0.93176031,0.311461605,-0.14086878
1764764058.760056,-4.0439,0.77826,1.00716,-0.93176031,0.311461605,-0.14086878
1764764058.760056,-4.0439,0.77826,1.00716,-0.93176031,0.311461605,-0.14086878
1764764058.760056,-4.0439,0.77826,1.00716,-0.93176031,0.311461605,-0.14086878
1764764058.760056,-4.0439,0.77826,1.00716,-0.93176031,0.311461605,-0.14086878
1764764058.760056,-4.0439,0.77826,1.00716,-0.93176031,0.311461605,-0.14086878
1764764058.760056,-4.18124,1.32762,0.65618,-0.933530325,0.31274334,-0.141051885
1764764058.760056,-4.18124,1.32762,0.65618,-0.933530325,0.31274334,-0.141051885
1764764058.761252,-4.18124,1.32762,0.65618,-0.933530325,0.31274334,-0.141051885
1764764058.761252,-4.18124,1.32762,0.65618,-0.933530325,0.31274334,-0.141051885
1764764058.8075817,-4.18124,1.32762,0.65618,-0.933530325,0.31274334,-0.141051885
1764764058.8075817,-4.18124,1.32762,0.65618,-0.933530325,0.31274334,-0.141051885
1764764058.8075817,-4.18124,1.32762,0.65618,-0.933530325,0.31274334,-0.141051885
1764764058.8075817,-4.18124,1.32762,0.65618,-0.933530325,0.31274334,-0.141051885
1764764058.8075817,-4.18124,1.32762,0.65618,-0.933530325,0.31274334,-0.141051885
1764764058.8080957,-4.18124,1.32762,0.65618,-0.933530325,0.31274334,-0.141051885
1764764058.8080957,-4.4254,1.2208,1.00716,-0.93407964,0.31433025,-0.139953255
1764764058.8080957,-4.4254,1.2208,1.00716,-0.93407964,0.31433025,-0.139953255
1764764058.8080957,-4.4254,1.2208,1.00716,-0.93407964,0.31433025,-0.139953255
1764764058.8080957,-4.4254,1.2208,1.00716,-0.93407964,0.31433025,-0.139953255
1764764058.8080957,-4.4254,1.2208,1.00716,-0.93407964,0.31433025,-0.139953255
1764764058.8080957,-4.4254,1.2208,1.00716,-0.93407964,0.31433025,-0.139953255
1764764058.8080957,-4.4254,1.2208,1.00716,-0.93407964,0.31433025,-0.139953255
1764764058.8080957,-4.4254,1.2208,1.00716,-0.93407964,0.31433025,-0.139953255
1764764058.8080957,-4.4254,1.2208,1.00716,-0.93407964,0.31433025,-0.139953255
1764764058.8080957,-4.4254,1.2208,1.00716,-0.93407964,0.31433025,-0.139953255
1764764058.8080957,-3.37246,1.02242,0.93086,-0.933774465,0.314635425,-0.13854945
1764764058.8080957,-3.37246,1.02242,0.93086,-0.933774465,0.314635425,-0.13854945
1764764058.8080957,-3.37246,1.02242,0.93086,-0.933774465,0.314635425,-0.13854945
1764764058.8080957,-3.37246,1.02242,0.93086,-0.933774465,0.314635425,-0.13854945
1764764058.8080957,-3.37246,1.02242,0.93086,-0.933774465,0.314635425,-0.13854945
1764764058.8080957,-3.37246,1.02242,0.93086,-0.933774465,0.314635425,-0.13854945
1764764058.8548083,-3.37246,1.02242,0.93086,-0.933774465,0.314635425,-0.13854945
1764764058.8548083,-3.37246,1.02242,0.93086,-0.933774465,0.314635425,-0.13854945
1764764058.8548083,-3.37246,1.02242,0.93086,-0.933774465,0.314635425,-0.13854945
1764764058.8548083,-3.37246,1.02242,0.93086,-0.933774465,0.314635425,-0.13854945
1764764058.855312,-2.8994,1.08346,0.48832,-0.93102789,0.31201092,-0.139220835
1764764058.855312,-2.8994,1.08346,0.48832,-0.93102789,0.31201092,-0.139220835
1764764058.855312,-2.8994,1.08346,0.48832,-0.93102789,0.31201092,-0.139220835
1764764058.855312,-2.8994,1.08346,0.48832,-0.93102789,0.31201092,-0.139220835
1764764058.855312,-2.8994,1.08346,0.48832,-0.93102789,0.31201092,-0.139220835
1764764058.855312,-2.8994,1.08346,0.48832,-0.93102789,0.31201092,-0.139220835
1764764058.855312,-2.8994,1.08346,0.48832,-0.93102789,0.31201092,-0.139220835
1764764058.855312,-2.8994,1.08346,0.48832,-0.93102789,0.31201092,-0.139220835
1764764058.855312,-2.8994,1.08346,0.48832,-0.93102789,0.31201092,-0.139220835
1764764058.855312,-2.8994,1.08346,0.48832,-0.93102789,0.31201092,-0.139220835
1764764058.855312,-4.959499999999999,1.1445,0.5341,-0.93005133,0.31201092,-0.140685675
1764764058.855312,-4.959499999999999,1.1445,0.5341,-0.93005133,0.31201092,-0.140685675
1764764058.855312,-4.959499999999999,1.1445,0.5341,-0.93005133,0.31201092,-0.140685675
1764764058.855312,-4.959499999999999,1.1445,0.5341,-0.93005133,0.31201092,-0.140685675
1764764058.855312,-4.959499999999999,1.1445,0.5341,-0.93005133,0.31201092,-0.140685675
1764764058.855312,-4.959499999999999,1.1445,0.5341,-0.93005133,0.31201092,-0.140685675
1764764058.855312,-4.959499999999999,1.1445,0.5341,-0.93005133,0.31201092,-0.140685675
1764764058.855312,-4.959499999999999,1.1445,0.5341,-0.93005133,0.31201092,-0.140685675
1764764058.855312,-4.959499999999999,1.1445,0.5341,-0.93005133,0.31201092,-0.140685675
1764764058.855312,-4.959499999999999,1.1445,0.5341,-0.93005133,0.31201092,-0.140685675
1764764058.855312,-5.66146,1.11398,0.50358,-0.929746155,0.313170585,-0.142150515
1764764058.855312,-5.66146,1.11398,0.50358,-0.929746155,0.313170585,-0.142150515
1764764058.9017518,-5.66146,1.11398,0.50358,-0.929746155,0.313170585,-0.142150515
1764764058.9017518,-5.66146,1.11398,0.50358,-0.929746155,0.313170585,-0.142150515
1764764058.9017518,-5.66146,1.11398,0.50358,-0.929746155,0.313170585,-0.142150515
1764764058.9017518,-5.66146,1.11398,0.50358,-0.929746155,0.313170585,-0.142150515
1764764058.9017518,-5.66146,1.11398,0.50358,-0.929746155,0.313170585,-0.142150515
1764764058.9017518,-5.66146,1.11398,0.50358,-0.929746155,0.313170585,-0.142150515
1764764058.9017518,-5.66146,1.11398,0.50358,-0.929746155,0.313170585,-0.142150515
1764764058.9017518,-5.66146,1.11398,0.50358,-0.929746155,0.313170585,-0.142150515
1764764058.9017518,-5.8751,1.19028,-0.24416,-0.928769595,0.31591716,-0.14172327
1764764058.9017518,-5.8751,1.19028,-0.24416,-0.928769595,0.31591716,-0.14172327
1764764058.902274,-5.8751,1.19028,-0.24416,-0.928769595,0.31591716,-0.14172327
1764764058.902274,-5.8751,1.19028,-0.24416,-0.928769595,0.31591716,-0.14172327
1764764058.902274,-5.8751,1.19028,-0.24416,-0.928769595,0.31591716,-0.14172327
1764764058.902274,-5.8751,1.19028,-0.24416,-0.928769595,0.31591716,-0.14172327
1764764058.902274,-5.8751,1.19028,-0.24416,-0.928769595,0.31591716,-0.14172327
1764764058.902274,-5.8751,1.19028,-0.24416,-0.928769595,0.31591716,-0.14172327
1764764058.902274,-5.8751,1.19028,-0.24416,-0.928769595,0.31591716,-0.14172327
1764764058.902274,-5.8751,1.19028,-0.24416,-0.928769595,0.31591716,-0.14172327
1764764058.902274,-5.73776,1.00716,-0.47306,-0.929746155,0.315856125,-0.141051885
1764764058.902274,-5.73776,1.00716,-0.47306,-0.929746155,0.315856125,-0.141051885
1764764058.902274,-5.73776,1.00716,-0.47306,-0.929746155,0.315856125,-0.141051885
1764764058.902274,-5.73776,1.00716,-0.47306,-0.929746155,0.315856125,-0.141051885
1764764058.902274,-5.73776,1.00716,-0.47306,-0.929746155,0.315856125,-0.141051885
1764764058.902274,-5.73776,1.00716,-0.47306,-0.929746155,0.315856125,-0.141051885
1764764058.9490268,-5.73776,1.00716,-0.47306,-0.929746155,0.315856125,-0.141051885
1764764058.9490268,-5.73776,1.00716,-0.47306,-0.929746155,0.315856125,-0.141051885
1764764058.9490268,-5.73776,1.00716,-0.47306,-0.929746155,0.315856125,-0.141051885
1764764058.9490268,-5.73776,1.00716,-0.47306,-0.929746155,0.315856125,-0.141051885
1764764058.9490268,-4.22702,0.51884,0.01526,-0.93114996,0.31359783,-0.140563605
1764764058.9490268,-4.22702,0.51884,0.01526,-0.93114996,0.31359783,-0.140563605
1764764058.9490268,-4.22702,0.51884,0.01526,-0.93114996,0.31359783,-0.140563605
1764764058.9490268,-4.22702,0.51884,0.01526,-0.93114996,0.31359783,-0.140563605
1764764058.9490268,-4.22702,0.51884,0.01526,-0.93114996,0.31359783,-0.140563605
1764764058.9490268,-4.22702,0.51884,0.01526,-0.93114996,0.31359783,-0.140563605
1764764058.9490268,-4.22702,0.51884,0.01526,-0.93114996,0.31359783,-0.140563605
1764764058.9490268,-4.22702,0.51884,0.01526,-0.93114996,0.31359783,-0.140563605
1764764058.9490268,-4.22702,0.51884,0.01526,-0.93114996,0.31359783,-0.140563605
1764764058.9490268,-4.22702,0.51884,0.01526,-0.93114996,0.31359783,-0.140563605
1764764058.9490268,-4.440659999999999,0.3509799999999999,0.3051999999999999,-0.93224859,0.31176678,-0.14025843
1764764058.9490268,-4.440659999999999,0.3509799999999999,0.3051999999999999,-0.93224859,0.31176678,-0.14025843
1764764058.9490268,-4.440659999999999,0.3509799999999999,0.3051999999999999,-0.93224859,0.31176678,-0.14025843
1764764058.9490268,-4.440659999999999,0.3509799999999999,0.3051999999999999,-0.93224859,0.31176678,-0.14025843
1764764058.9490268,-4.440659999999999,0.3509799999999999,0.3051999999999999,-0.93224859,0.31176678,-0.14025843
1764764058.9490268,-4.440659999999999,0.3509799999999999,0.3051999999999999,-0.93224859,0.31176678,-0.14025843
1764764058.9490268,-4.440659999999999,0.3509799999999999,0.3051999999999999,-0.93224859,0.31176678,-0.14025843
1764764058.9490268,-4.440659999999999,0.3509799999999999,0.3051999999999999,-0.93224859,0.31176678,-0.14025843
1764764058.997415,-4.440659999999999,0.3509799999999999,0.3051999999999999,-0.93224859,0.31176678,-0.14025843
1764764058.997415,-4.440659999999999,0.3509799999999999,0.3051999999999999,-0.93224859,0.31176678,-0.14025843
1764764058.997415,-4.1965,0.6714399999999999,-0.2289,-0.932431695,0.31017987,-0.1403805
1764764058.997415,-4.1965,0.6714399999999999,-0.2289,-0.932431695,0.31017987,-0.1403805
1764764058.997415,-4.1965,0.6714399999999999,-0.2289,-0.932431695,0.31017987,-0.1403805
1764764058.997415,-4.1965,0.6714399999999999,-0.2289,-0.932431695,0.31017987,-0.1403805
1764764058.997415,-4.1965,0.6714399999999999,-0.2289,-0.932431695,0.31017987,-0.1403805
1764764058.997415,-4.1965,0.6714399999999999,-0.2289,-0.932431695,0.31017987,-0.1403805
1764764058.997415,-4.1965,0.6714399999999999,-0.2289,-0.932431695,0.31017987,-0.1403805
1764764058.997415,-4.1965,0.6714399999999999,-0.2289,-0.932431695,0.31017987,-0.1403805
1764764058.997415,-4.1965,0.6714399999999999,-0.2289,-0.932431695,0.31017987,-0.1403805
1764764058.997415,-4.1965,0.6714399999999999,-0.2289,-0.932431695,0.31017987,-0.1403805
1764764058.997415,-4.79164,-0.01526,-0.4578,-0.93310308,0.31152264,-0.13903773
1764764058.997415,-4.79164,-0.01526,-0.4578,-0.93310308,0.31152264,-0.13903773
1764764058.997415,-4.79164,-0.01526,-0.4578,-0.93310308,0.31152264,-0.13903773
1764764058.997415,-4.79164,-0.01526,-0.4578,-0.93310308,0.31152264,-0.13903773
1764764058.997415,-4.79164,-0.01526,-0.4578,-0.93310308,0.31152264,-0.13903773
1764764058.997415,-4.79164,-0.01526,-0.4578,-0.93310308,0.31152264,-0.13903773
1764764058.997415,-4.79164,-0.01526,-0.4578,-0.93310308,0.31152264,-0.13903773
1764764058.997415,-4.79164,-0.01526,-0.4578,-0.93310308,0.31152264,-0.13903773
1764764058.997415,-4.79164,-0.01526,-0.4578,-0.93310308,0.31152264,-0.13903773
1764764058.997415,-4.79164,-0.01526,-0.4578,-0.93310308,0.31152264,-0.13903773
1764764058.997415,-4.79164,-0.0762999999999999,-0.25942,-0.93359136,0.313536795,-0.13769496
1764764058.997415,-4.79164,-0.0762999999999999,-0.25942,-0.93359136,0.313536795,-0.13769496
1764764059.04045,-4.79164,-0.0762999999999999,-0.25942,-0.93359136,0.313536795,-0.13769496
1764764059.04045,-4.79164,-0.0762999999999999,-0.25942,-0.93359136,0.313536795,-0.13769496
1764764059.04045,-4.79164,-0.0762999999999999,-0.25942,-0.93359136,0.313536795,-0.13769496
1764764059.04045,-4.79164,-0.0762999999999999,-0.25942,-0.93359136,0.313536795,-0.13769496
1764764059.04045,-4.79164,-0.0762999999999999,-0.25942,-0.93359136,0.313536795,-0.13769496
1764764059.04045,-4.79164,-0.0762999999999999,-0.25942,-0.93359136,0.313536795,-0.13769496
1764764059.04045,-4.79164,-0.0762999999999999,-0.25942,-0.93359136,0.313536795,-0.13769496
1764764059.04045,-4.79164,-0.0762999999999999,-0.25942,-0.93359136,0.313536795,-0.13769496
1764764059.04045,-4.21176,0.06104,-0.36624,-0.93212652,0.313536795,-0.138244275
1764764059.04045,-4.21176,0.06104,-0.36624,-0.93212652,0.313536795,-0.138244275
1764764059.04045,-4.21176,0.06104,-0.36624,-0.93212652,0.313536795,-0.138244275
1764764059.04045,-4.21176,0.06104,-0.36624,-0.93212652,0.313536795,-0.138244275
1764764059.04045,-4.21176,0.06104,-0.36624,-0.93212652,0.313536795,-0.138244275
1764764059.04045,-4.21176,0.06104,-0.36624,-0.93212652,0.313536795,-0.138244275
1764764059.04045,-4.21176,0.06104,-0.36624,-0.93212652,0.313536795,-0.138244275
1764764059.04045,-4.21176,0.06104,-0.36624,-0.93212652,0.313536795,-0.138244275
1764764059.04045,-4.21176,0.06104,-0.36624,-0.93212652,0.313536795,-0.138244275
1764764059.04045,-4.21176,0.06104,-0.36624,-0.93212652,0.313536795,-0.138244275
1764764059.04045,-3.98286,0.7019599999999999,-0.3509799999999999,-0.9313941,0.31274334,-0.13867152
1764764059.0414734,-3.98286,0.7019599999999999,-0.3509799999999999,-0.9313941,0.31274334,-0.13867152
1764764059.0414734,-3.98286,0.7019599999999999,-0.3509799999999999,-0.9313941,0.31274334,-0.13867152
1764764059.0414734,-3.98286,0.7019599999999999,-0.3509799999999999,-0.9313941,0.31274334,-0.13867152
1764764059.0915904,-3.98286,0.7019599999999999,-0.3509799999999999,-0.9313941,0.31274334,-0.13867152
1764764059.0915904,-3.98286,0.7019599999999999,-0.3509799999999999,-0.9313941,0.31274334,-0.13867152
1764764059.0915904,-3.98286,0.7019599999999999,-0.3509799999999999,-0.9313941,0.31274334,-0.13867152
1764764059.0915904,-3.98286,0.7019599999999999,-0.3509799999999999,-0.9313941,0.31274334,-0.13867152
1764764059.0915904,-3.98286,0.7019599999999999,-0.3509799999999999,-0.9313941,0.31274334,-0.13867152
1764764059.0915904,-3.98286,0.7019599999999999,-0.3509799999999999,-0.9313941,0.31274334,-0.13867152
1764764059.0915904,-4.02864,0.1678599999999999,0.27468,-0.93066168,0.311339535,-0.13842738
1764764059.0915904,-4.02864,0.1678599999999999,0.27468,-0.93066168,0.311339535,-0.13842738
1764764059.0915904,-4.02864,0.1678599999999999,0.27468,-0.93066168,0.311339535,-0.13842738
1764764059.0915904,-4.02864,0.1678599999999999,0.27468,-0.93066168,0.311339535,-0.13842738
1764764059.0915904,-4.02864,0.1678599999999999,0.27468,-0.93066168,0.311339535,-0.13842738
1764764059.0915904,-4.02864,0.1678599999999999,0.27468,-0.93066168,0.311339535,-0.13842738
1764764059.0915904,-4.02864,0.1678599999999999,0.27468,-0.93066168,0.311339535,-0.13842738
1764764059.0915904,-4.02864,0.1678599999999999,0.27468,-0.93066168,0.311339535,-0.13842738
1764764059.0925834,-4.02864,0.1678599999999999,0.27468,-0.93066168,0.311339535,-0.13842738
1764764059.0925834,-4.02864,0.1678599999999999,0.27468,-0.93066168,0.311339535,-0.13842738
1764764059.0925834,-5.40204,0.88508,-0.28994,-0.92968512,0.312071955,-0.13830531
1764764059.0925834,-5.40204,0.88508,-0.28994,-0.92968512,0.312071955,-0.13830531
1764764059.0925834,-5.40204,0.88508,-0.28994,-0.92968512,0.312071955,-0.13830531
1764764059.0925834,-5.40204,0.88508,-0.28994,-0.92968512,0.312071955,-0.13830531
1764764059.0925834,-5.40204,0.88508,-0.28994,-0.92968512,0.312071955,-0.13830531
1764764059.0925834,-5.40204,0.88508,-0.28994,-0.92968512,0.312071955,-0.13830531
1764764059.0925834,-5.40204,0.88508,-0.28994,-0.92968512,0.312071955,-0.13830531
1764764059.0925834,-5.40204,0.88508,-0.28994,-0.92968512,0.312071955,-0.13830531
1764764059.1366172,-5.40204,0.88508,-0.28994,-0.92968512,0.312071955,-0.13830531
1764764059.1366172,-5.40204,0.88508,-0.28994,-0.92968512,0.312071955,-0.13830531
1764764059.1366172,-5.096839999999999,0.27468,0.44254,-0.932065485,0.313658865,-0.13842738
1764764059.1366172,-5.096839999999999,0.27468,0.44254,-0.932065485,0.313658865,-0.13842738
1764764059.1366172,-5.096839999999999,0.27468,0.44254,-0.932065485,0.313658865,-0.13842738
1764764059.1366172,-5.096839999999999,0.27468,0.44254,-0.932065485,0.313658865,-0.13842738
1764764059.1366172,-5.096839999999999,0.27468,0.44254,-0.932065485,0.313658865,-0.13842738
1764764059.1366172,-5.096839999999999,0.27468,0.44254,-0.932065485,0.313658865,-0.13842738
1764764059.1366172,-5.096839999999999,0.27468,0.44254,-0.932065485,0.313658865,-0.13842738
1764764059.1366172,-5.096839999999999,0.27468,0.44254,-0.932065485,0.313658865,-0.13842738
1764764059.1366172,-5.096839999999999,0.27468,0.44254,-0.932065485,0.313658865,-0.13842738
1764764059.1376295,-5.096839999999999,0.27468,0.44254,-0.932065485,0.313658865,-0.13842738
1764764059.1376295,-3.38772,-0.01526,-0.03052,-0.93322515,0.312926445,-0.14025843
1764764059.1376295,-3.38772,-0.01526,-0.03052,-0.93322515,0.312926445,-0.14025843
1764764059.1376295,-3.38772,-0.01526,-0.03052,-0.93322515,0.312926445,-0.14025843
1764764059.1376295,-3.38772,-0.01526,-0.03052,-0.93322515,0.312926445,-0.14025843
1764764059.1376295,-3.38772,-0.01526,-0.03052,-0.93322515,0.312926445,-0.14025843
1764764059.1376295,-3.38772,-0.01526,-0.03052,-0.93322515,0.312926445,-0.14025843
1764764059.1376295,-3.38772,-0.01526,-0.03052,-0.93322515,0.312926445,-0.14025843
1764764059.1376295,-3.38772,-0.01526,-0.03052,-0.93322515,0.312926445,-0.14025843
1764764059.1376295,-3.38772,-0.01526,-0.03052,-0.93322515,0.312926445,-0.14025843
1764764059.1376295,-3.38772,-0.01526,-0.03052,-0.93322515,0.312926445,-0.14025843
1764764059.1376295,-2.71628,0.51884,-0.3357199999999999,-0.9326148,0.312682305,-0.142516725
1764764059.1376295,-2.71628,0.51884,-0.3357199999999999,-0.9326148,0.312682305,-0.142516725
1764764059.1832843,-2.71628,0.51884,-0.3357199999999999,-0.9326148,0.312682305,-0.142516725
1764764059.1832843,-2.71628,0.51884,-0.3357199999999999,-0.9326148,0.312682305,-0.142516725
1764764059.1832843,-2.71628,0.51884,-0.3357199999999999,-0.9326148,0.312682305,-0.142516725
1764764059.1832843,-2.71628,0.51884,-0.3357199999999999,-0.9326148,0.312682305,-0.142516725
1764764059.1832843,-2.71628,0.51884,-0.3357199999999999,-0.9326148,0.312682305,-0.142516725
1764764059.1832843,-2.71628,0.51884,-0.3357199999999999,-0.9326148,0.312682305,-0.142516725
1764764059.1842844,-2.71628,0.51884,-0.3357199999999999,-0.9326148,0.312682305,-0.142516725
1764764059.1842844,-2.71628,0.51884,-0.3357199999999999,-0.9326148,0.312682305,-0.142516725
1764764059.1842844,-5.615679999999999,0.74774,0.2289,-0.931821345,0.31408611,-0.142150515
1764764059.1842844,-5.615679999999999,0.74774,0.2289,-0.931821345,0.31408611,-0.142150515
1764764059.1842844,-5.615679999999999,0.74774,0.2289,-0.931821345,0.31408611,-0.142150515
1764764059.1842844,-5.615679999999999,0.74774,0.2289,-0.931821345,0.31408611,-0.142150515
1764764059.1842844,-5.615679999999999,0.74774,0.2289,-0.931821345,0.31408611,-0.142150515
1764764059.1842844,-5.615679999999999,0.74774,0.2289,-0.931821345,0.31408611,-0.142150515
1764764059.1842844,-5.615679999999999,0.74774,0.2289,-0.931821345,0.31408611,-0.142150515
1764764059.1852882,-5.615679999999999,0.74774,0.2289,-0.931821345,0.31408611,-0.142150515
1764764059.1852882,-5.615679999999999,0.74774,0.2289,-0.931821345,0.31408611,-0.142150515
1764764059.1852882,-5.615679999999999,0.74774,0.2289,-0.931821345,0.31408611,-0.142150515
1764764059.1852882,-7.9352,0.3051999999999999,0.48832,-0.93298101,0.31689372,-0.14147913
1764764059.1852882,-7.9352,0.3051999999999999,0.48832,-0.93298101,0.31689372,-0.14147913
1764764059.1852882,-7.9352,0.3051999999999999,0.48832,-0.93298101,0.31689372,-0.14147913
1764764059.1852882,-7.9352,0.3051999999999999,0.48832,-0.93298101,0.31689372,-0.14147913
1764764059.2279096,-7.9352,0.3051999999999999,0.48832,-0.93298101,0.31689372,-0.14147913
1764764059.2279096,-7.9352,0.3051999999999999,0.48832,-0.93298101,0.31689372,-0.14147913
1764764059.2279096,-7.9352,0.3051999999999999,0.48832,-0.93298101,0.31689372,-0.14147913
1764764059.2279096,-7.9352,0.3051999999999999,0.48832,-0.93298101,0.31689372,-0.14147913
1764764059.228447,-7.9352,0.3051999999999999,0.48832,-0.93298101,0.31689372,-0.14147913
1764764059.228447,-7.9352,0.3051999999999999,0.48832,-0.93298101,0.31689372,-0.14147913
1764764059.228447,-7.14168,0.18312,0.65618,-0.93346929,0.315611985,-0.13891566
1764764059.228447,-7.14168,0.18312,0.65618,-0.93346929,0.315611985,-0.13891566
1764764059.228447,-7.14168,0.18312,0.65618,-0.93346929,0.315611985,-0.13891566
1764764059.228447,-7.14168,0.18312,0.65618,-0.93346929,0.315611985,-0.13891566
1764764059.228447,-7.14168,0.18312,0.65618,-0.93346929,0.315611985,-0.13891566
1764764059.2295623,-7.14168,0.18312,0.65618,-0.93346929,0.315611985,-0.13891566
1764764059.2295623,-7.14168,0.18312,0.65618,-0.93346929,0.315611985,-0.13891566
1764764059.2295623,-7.14168,0.18312,0.65618,-0.93346929,0.315611985,-0.13891566
1764764059.2295623,-7.14168,0.18312,0.65618,-0.93346929,0.315611985,-0.13891566
1764764059.2295623,-7.14168,0.18312,0.65618,-0.93346929,0.315611985,-0.13891566
1764764059.2295623,-5.44782,-0.01526,0.3051999999999999,-0.93237066,0.3112785,-0.137633925
1764764059.2295623,-5.44782,-0.01526,0.3051999999999999,-0.93237066,0.3112785,-0.137633925
1764764059.2295623,-5.44782,-0.01526,0.3051999999999999,-0.93237066,0.3112785,-0.137633925
1764764059.2295623,-5.44782,-0.01526,0.3051999999999999,-0.93237066,0.3112785,-0.137633925
1764764059.2295623,-5.44782,-0.01526,0.3051999999999999,-0.93237066,0.3112785,-0.137633925
1764764059.2295623,-5.44782,-0.01526,0.3051999999999999,-0.93237066,0.3112785,-0.137633925
1764764059.2295623,-5.44782,-0.01526,0.3051999999999999,-0.93237066,0.3112785,-0.137633925
1764764059.2295623,-5.44782,-0.01526,0.3051999999999999,-0.93237066,0.3112785,-0.137633925
1764764059.2735708,-5.44782,-0.01526,0.3051999999999999,-0.93237066,0.3112785,-0.137633925
1764764059.2735708,-5.44782,-0.01526,0.3051999999999999,-0.93237066,0.3112785,-0.137633925
1764764059.2735708,-4.68482,-0.1678599999999999,0.28994,-0.9313941,0.30932538,-0.13806117
1764764059.2735708,-4.68482,-0.1678599999999999,0.28994,-0.9313941,0.30932538,-0.13806117
1764764059.2735708,-4.68482,-0.1678599999999999,0.28994,-0.9313941,0.30932538,-0.13806117
1764764059.2735708,-4.68482,-0.1678599999999999,0.28994,-0.9313941,0.30932538,-0.13806117
1764764059.2735708,-4.68482,-0.1678599999999999,0.28994,-0.9313941,0.30932538,-0.13806117
1764764059.2735708,-4.68482,-0.1678599999999999,0.28994,-0.9313941,0.30932538,-0.13806117
1764764059.2735708,-4.68482,-0.1678599999999999,0.28994,-0.9313941,0.30932538,-0.13806117
1764764059.2735708,-4.68482,-0.1678599999999999,0.28994,-0.9313941,0.30932538,-0.13806117
1764764059.2755785,-4.68482,-0.1678599999999999,0.28994,-0.9313941,0.30932538,-0.13806117
1764764059.2755785,-4.68482,-0.1678599999999999,0.28994,-0.9313941,0.30932538,-0.13806117
1764764059.2755785,-5.340999999999999,0.65618,1.23606,-0.93053961,0.310118835,-0.13854945
1764764059.2755785,-5.340999999999999,0.65618,1.23606,-0.93053961,0.310118835,-0.13854945
1764764059.2755785,-5.340999999999999,0.65618,1.23606,-0.93053961,0.310118835,-0.13854945
1764764059.2755785,-5.340999999999999,0.65618,1.23606,-0.93053961,0.310118835,-0.13854945
1764764059.2755785,-5.340999999999999,0.65618,1.23606,-0.93053961,0.310118835,-0.13854945
1764764059.2755785,-5.340999999999999,0.65618,1.23606,-0.93053961,0.310118835,-0.13854945
1764764059.2755785,-5.340999999999999,0.65618,1.23606,-0.93053961,0.310118835,-0.13854945
1764764059.2755785,-5.340999999999999,0.65618,1.23606,-0.93053961,0.310118835,-0.13854945
1764764059.2755785,-5.340999999999999,0.65618,1.23606,-0.93053961,0.310118835,-0.13854945
1764764059.2755785,-5.340999999999999,0.65618,1.23606,-0.93053961,0.310118835,-0.13854945
1764764059.3233492,-5.46308,1.2055399999999998,1.69386,-0.93237066,0.311339535,-0.13879359
1764764059.3233492,-5.46308,1.2055399999999998,1.69386,-0.93237066,0.311339535,-0.13879359
1764764059.3233492,-5.46308,1.2055399999999998,1.69386,-0.93237066,0.311339535,-0.13879359
1764764059.3233492,-5.46308,1.2055399999999998,1.69386,-0.93237066,0.311339535,-0.13879359
1764764059.3233492,-5.46308,1.2055399999999998,1.69386,-0.93237066,0.311339535,-0.13879359
1764764059.3233492,-5.46308,1.2055399999999998,1.69386,-0.93237066,0.311339535,-0.13879359
1764764059.3233492,-5.46308,1.2055399999999998,1.69386,-0.93237066,0.311339535,-0.13879359
1764764059.3233492,-5.46308,1.2055399999999998,1.69386,-0.93237066,0.311339535,-0.13879359
1764764059.3233492,-5.46308,1.2055399999999998,1.69386,-0.93237066,0.311339535,-0.13879359
1764764059.3233492,-5.46308,1.2055399999999998,1.69386,-0.93237066,0.311339535,-0.13879359
1764764059.3233492,-4.715339999999999,0.93086,0.94612,-0.934628955,0.310240905,-0.137755995
1764764059.3233492,-4.715339999999999,0.93086,0.94612,-0.934628955,0.310240905,-0.137755995
1764764059.3233492,-4.715339999999999,0.93086,0.94612,-0.934628955,0.310240905,-0.137755995
1764764059.3233492,-4.715339999999999,0.93086,0.94612,-0.934628955,0.310240905,-0.137755995
1764764059.3233492,-4.715339999999999,0.93086,0.94612,-0.934628955,0.310240905,-0.137755995
1764764059.3233492,-4.715339999999999,0.93086,0.94612,-0.934628955,0.310240905,-0.137755995
1764764059.3233492,-4.715339999999999,0.93086,0.94612,-0.934628955,0.310240905,-0.137755995
1764764059.3233492,-4.715339999999999,0.93086,0.94612,-0.934628955,0.310240905,-0.137755995
1764764059.3233492,-4.715339999999999,0.93086,0.94612,-0.934628955,0.310240905,-0.137755995
1764764059.3233492,-4.715339999999999,0.93086,0.94612,-0.934628955,0.310240905,-0.137755995
1764764059.3233492,-4.60852,0.6409199999999999,0.41202,-0.93432378,0.311339535,-0.13867152
1764764059.3233492,-4.60852,0.6409199999999999,0.41202,-0.93432378,0.311339535,-0.13867152
1764764059.3233492,-4.60852,0.6409199999999999,0.41202,-0.93432378,0.311339535,-0.13867152
1764764059.3233492,-4.60852,0.6409199999999999,0.41202,-0.93432378,0.311339535,-0.13867152
1764764059.3660083,-4.60852,0.6409199999999999,0.41202,-0.93432378,0.311339535,-0.13867152
1764764059.3660083,-4.60852,0.6409199999999999,0.41202,-0.93432378,0.311339535,-0.13867152
1764764059.3660083,-4.60852,0.6409199999999999,0.41202,-0.93432378,0.311339535,-0.13867152
1764764059.3660083,-4.60852,0.6409199999999999,0.41202,-0.93432378,0.311339535,-0.13867152
1764764059.3660083,-4.60852,0.6409199999999999,0.41202,-0.93432378,0.311339535,-0.13867152
1764764059.3660083,-4.60852,0.6409199999999999,0.41202,-0.93432378,0.311339535,-0.13867152
1764764059.3660083,-3.60136,-0.42728,0.0,-0.933896535,0.315001635,-0.139587045
1764764059.3660083,-3.60136,-0.42728,0.0,-0.933896535,0.315001635,-0.139587045
1764764059.3660083,-3.60136,-0.42728,0.0,-0.933896535,0.315001635,-0.139587045
1764764059.3660083,-3.60136,-0.42728,0.0,-0.933896535,0.315001635,-0.139587045
1764764059.3660083,-3.60136,-0.42728,0.0,-0.933896535,0.315001635,-0.139587045
1764764059.3660083,-3.60136,-0.42728,0.0,-0.933896535,0.315001635,-0.139587045
1764764059.3660083,-3.60136,-0.42728,0.0,-0.933896535,0.315001635,-0.139587045
1764764059.3660083,-3.60136,-0.42728,0.0,-0.933896535,0.315001635,-0.139587045
1764764059.3660083,-3.60136,-0.42728,0.0,-0.933896535,0.315001635,-0.139587045
1764764059.3660083,-3.60136,-0.42728,0.0,-0.933896535,0.315001635,-0.139587045
1764764059.3660083,-3.46402,0.21364,0.13734,-0.93224859,0.31591716,-0.139464975
1764764059.3673544,-3.46402,0.21364,0.13734,-0.93224859,0.31591716,-0.139464975
1764764059.3673544,-3.46402,0.21364,0.13734,-0.93224859,0.31591716,-0.139464975
1764764059.3673544,-3.46402,0.21364,0.13734,-0.93224859,0.31591716,-0.139464975
1764764059.3673544,-3.46402,0.21364,0.13734,-0.93224859,0.31591716,-0.139464975
1764764059.3673544,-3.46402,0.21364,0.13734,-0.93224859,0.31591716,-0.139464975
1764764059.3673544,-3.46402,0.21364,0.13734,-0.93224859,0.31591716,-0.139464975
1764764059.3673544,-3.46402,0.21364,0.13734,-0.93224859,0.31591716,-0.139464975
1764764059.4146445,-3.46402,0.21364,0.13734,-0.93224859,0.31591716,-0.139464975
1764764059.4146445,-3.46402,0.21364,0.13734,-0.93224859,0.31591716,-0.139464975
1764764059.4146445,-5.890359999999999,1.73964,1.02242,-0.930356505,0.31555095,-0.139587045
1764764059.4146445,-5.890359999999999,1.73964,1.02242,-0.930356505,0.31555095,-0.139587045
1764764059.4146445,-5.890359999999999,1.73964,1.02242,-0.930356505,0.31555095,-0.139587045
1764764059.4146445,-5.890359999999999,1.73964,1.02242,-0.930356505,0.31555095,-0.139587045
1764764059.4146445,-5.890359999999999,1.73964,1.02242,-0.930356505,0.31555095,-0.139587045
1764764059.4146445,-5.890359999999999,1.73964,1.02242,-0.930356505,0.31555095,-0.139587045
1764764059.4146445,-5.890359999999999,1.73964,1.02242,-0.930356505,0.31555095,-0.139587045
1764764059.4146445,-5.890359999999999,1.73964,1.02242,-0.930356505,0.31555095,-0.139587045
1764764059.4146445,-5.890359999999999,1.73964,1.02242,-0.930356505,0.31555095,-0.139587045
1764764059.4146445,-5.890359999999999,1.73964,1.02242,-0.930356505,0.31555095,-0.139587045
1764764059.4146445,-6.89752,1.2971,1.70912,-0.93066168,0.31518474,-0.137878065
1764764059.4146445,-6.89752,1.2971,1.70912,-0.93066168,0.31518474,-0.137878065
1764764059.4146445,-6.89752,1.2971,1.70912,-0.93066168,0.31518474,-0.137878065
1764764059.4146445,-6.89752,1.2971,1.70912,-0.93066168,0.31518474,-0.137878065
1764764059.4146445,-6.89752,1.2971,1.70912,-0.93066168,0.31518474,-0.137878065
1764764059.4146445,-6.89752,1.2971,1.70912,-0.93066168,0.31518474,-0.137878065
1764764059.4146445,-6.89752,1.2971,1.70912,-0.93066168,0.31518474,-0.137878065
1764764059.4146445,-6.89752,1.2971,1.70912,-0.93066168,0.31518474,-0.137878065
1764764059.4146445,-6.89752,1.2971,1.70912,-0.93066168,0.31518474,-0.137878065
1764764059.4146445,-6.89752,1.2971,1.70912,-0.93066168,0.31518474,-0.137878065
1764764059.4146445,-6.6381,1.6786,1.2971,-0.93237066,0.312438165,-0.13513149
1764764059.4146445,-6.6381,1.6786,1.2971,-0.93237066,0.312438165,-0.13513149
1764764059.461433,-6.6381,1.6786,1.2971,-0.93237066,0.312438165,-0.13513149
1764764059.461433,-6.6381,1.6786,1.2971,-0.93237066,0.312438165,-0.13513149
1764764059.461433,-6.6381,1.6786,1.2971,-0.93237066,0.312438165,-0.13513149
1764764059.461433,-6.6381,1.6786,1.2971,-0.93237066,0.312438165,-0.13513149
1764764059.461433,-6.6381,1.6786,1.2971,-0.93237066,0.312438165,-0.13513149
1764764059.461433,-6.6381,1.6786,1.2971,-0.93237066,0.312438165,-0.13513149
1764764059.461433,-6.6381,1.6786,1.2971,-0.93237066,0.312438165,-0.13513149
1764764059.461433,-6.6381,1.6786,1.2971,-0.93237066,0.312438165,-0.13513149
1764764059.461433,-4.54748,1.4039199999999998,0.04578,-0.932675835,0.30859296,-0.13342251
1764764059.461433,-4.54748,1.4039199999999998,0.04578,-0.932675835,0.30859296,-0.13342251
1764764059.461433,-4.54748,1.4039199999999998,0.04578,-0.932675835,0.30859296,-0.13342251
1764764059.461433,-4.54748,1.4039199999999998,0.04578,-0.932675835,0.30859296,-0.13342251
1764764059.461433,-4.54748,1.4039199999999998,0.04578,-0.932675835,0.30859296,-0.13342251
1764764059.461433,-4.54748,1.4039199999999998,0.04578,-0.932675835,0.30859296,-0.13342251
1764764059.461433,-4.54748,1.4039199999999998,0.04578,-0.932675835,0.30859296,-0.13342251
1764764059.461433,-4.54748,1.4039199999999998,0.04578,-0.932675835,0.30859296,-0.13342251
1764764059.461433,-4.54748,1.4039199999999998,0.04578,-0.932675835,0.30859296,-0.13342251
1764764059.461433,-4.54748,1.4039199999999998,0.04578,-0.932675835,0.30859296,-0.13342251
1764764059.461433,-1.77016,1.4039199999999998,0.6103999999999999,-0.932065485,0.305724315,-0.133605615
1764764059.461433,-1.77016,1.4039199999999998,0.6103999999999999,-0.932065485,0.305724315,-0.133605615
1764764059.461433,-1.77016,1.4039199999999998,0.6103999999999999,-0.932065485,0.305724315,-0.133605615
1764764059.461433,-1.77016,1.4039199999999998,0.6103999999999999,-0.932065485,0.305724315,-0.133605615
1764764059.5083213,-1.77016,1.4039199999999998,0.6103999999999999,-0.932065485,0.305724315,-0.133605615
1764764059.5083213,-1.77016,1.4039199999999998,0.6103999999999999,-0.932065485,0.305724315,-0.133605615
1764764059.5083213,-1.77016,1.4039199999999998,0.6103999999999999,-0.932065485,0.305724315,-0.133605615
1764764059.5083213,-1.77016,1.4039199999999998,0.6103999999999999,-0.932065485,0.305724315,-0.133605615
1764764059.5096087,-1.77016,1.4039199999999998,0.6103999999999999,-0.932065485,0.305724315,-0.133605615
1764764059.5096087,-1.77016,1.4039199999999998,0.6103999999999999,-0.932065485,0.305724315,-0.133605615
1764764059.5096087,-1.15976,1.11398,0.97664,-0.930966855,0.305968455,-0.134826315
1764764059.5096087,-1.15976,1.11398,0.97664,-0.930966855,0.305968455,-0.134826315
1764764059.5096087,-1.15976,1.11398,0.97664,-0.930966855,0.305968455,-0.134826315
1764764059.5096087,-1.15976,1.11398,0.97664,-0.930966855,0.305968455,-0.134826315
1764764059.5096087,-1.15976,1.11398,0.97664,-0.930966855,0.305968455,-0.134826315
1764764059.5096087,-1.15976,1.11398,0.97664,-0.930966855,0.305968455,-0.134826315
1764764059.5096087,-1.15976,1.11398,0.97664,-0.930966855,0.305968455,-0.134826315
1764764059.5096087,-1.15976,1.11398,0.97664,-0.930966855,0.305968455,-0.134826315
1764764059.5096087,-1.15976,1.11398,0.97664,-0.930966855,0.305968455,-0.134826315
1764764059.5096087,-1.15976,1.11398,0.97664,-0.930966855,0.305968455,-0.134826315
1764764059.5096087,-1.17502,0.9919,0.4578,-0.929624085,0.307555365,-0.136291155
1764764059.5096087,-1.17502,0.9919,0.4578,-0.929624085,0.307555365,-0.136291155
1764764059.5096087,-1.17502,0.9919,0.4578,-0.929624085,0.307555365,-0.136291155
1764764059.5096087,-1.17502,0.9919,0.4578,-0.929624085,0.307555365,-0.136291155
1764764059.5096087,-1.17502,0.9919,0.4578,-0.929624085,0.307555365,-0.136291155
1764764059.5096087,-1.17502,0.9919,0.4578,-0.929624085,0.307555365,-0.136291155
1764764059.5096087,-1.17502,0.9919,0.4578,-0.929624085,0.307555365,-0.136291155
1764764059.5096087,-1.17502,0.9919,0.4578,-0.929624085,0.307555365,-0.136291155
1764764059.557173,-1.17502,0.9919,0.4578,-0.929624085,0.307555365,-0.136291155
1764764059.557173,-1.17502,0.9919,0.4578,-0.929624085,0.307555365,-0.136291155
1764764059.557173,-1.54126,0.59514,-0.03052,-0.92968512,0.311949885,-0.137755995
1764764059.557173,-1.54126,0.59514,-0.03052,-0.92968512,0.311949885,-0.137755995
1764764059.557173,-1.54126,0.59514,-0.03052,-0.92968512,0.311949885,-0.137755995
1764764059.557173,-1.54126,0.59514,-0.03052,-0.92968512,0.311949885,-0.137755995
1764764059.557173,-1.54126,0.59514,-0.03052,-0.92968512,0.311949885,-0.137755995
1764764059.557173,-1.54126,0.59514,-0.03052,-0.92968512,0.311949885,-0.137755995
1764764059.557173,-1.54126,0.59514,-0.03052,-0.92968512,0.311949885,-0.137755995
1764764059.557173,-1.54126,0.59514,-0.03052,-0.92968512,0.311949885,-0.137755995
1764764059.557173,-1.54126,0.59514,-0.03052,-0.92968512,0.311949885,-0.137755995
1764764059.557173,-1.54126,0.59514,-0.03052,-0.92968512,0.311949885,-0.137755995
1764764059.557173,-3.02148,0.5341,-0.48832,-0.93005133,0.31713786,-0.13952601
1764764059.557173,-3.02148,0.5341,-0.48832,-0.93005133,0.31713786,-0.13952601
1764764059.557173,-3.02148,0.5341,-0.48832,-0.93005133,0.31713786,-0.13952601
1764764059.557173,-3.02148,0.5341,-0.48832,-0.93005133,0.31713786,-0.13952601
1764764059.557173,-3.02148,0.5341,-0.48832,-0.93005133,0.31713786,-0.13952601
1764764059.557173,-3.02148,0.5341,-0.48832,-0.93005133,0.31713786,-0.13952601
1764764059.557173,-3.02148,0.5341,-0.48832,-0.93005133,0.31713786,-0.13952601
1764764059.557173,-3.02148,0.5341,-0.48832,-0.93005133,0.31713786,-0.13952601
1764764059.557173,-3.02148,0.5341,-0.48832,-0.93005133,0.31713786,-0.13952601
1764764059.557173,-3.02148,0.5341,-0.48832,-0.93005133,0.31713786,-0.13952601
1764764059.557173,-5.14262,1.19028,0.18312,-0.93066168,0.32043375,-0.140807745
1764764059.557173,-5.14262,1.19028,0.18312,-0.93066168,0.32043375,-0.140807745
1764764059.6048317,-5.14262,1.19028,0.18312,-0.93066168,0.32043375,-0.140807745
1764764059.6048317,-5.14262,1.19028,0.18312,-0.93066168,0.32043375,-0.140807745
1764764059.6048317,-5.14262,1.19028,0.18312,-0.93066168,0.32043375,-0.140807745
1764764059.6048317,-5.14262,1.19028,0.18312,-0.93066168,0.32043375,-0.140807745
1764764059.6048317,-5.14262,1.19028,0.18312,-0.93066168,0.32043375,-0.140807745
1764764059.6048317,-5.14262,1.19028,0.18312,-0.93066168,0.32043375,-0.140807745
1764764059.6048317,-5.14262,1.19028,0.18312,-0.93066168,0.32043375,-0.140807745
1764764059.6048317,-5.14262,1.19028,0.18312,-0.93066168,0.32043375,-0.140807745
1764764059.6048317,-5.15788,1.26658,0.9919,-0.931699275,0.31933512,-0.14086878
1764764059.6048317,-5.15788,1.26658,0.9919,-0.931699275,0.31933512,-0.14086878
1764764059.6048317,-5.15788,1.26658,0.9919,-0.931699275,0.31933512,-0.14086878
1764764059.6048317,-5.15788,1.26658,0.9919,-0.931699275,0.31933512,-0.14086878
1764764059.6048317,-5.15788,1.26658,0.9919,-0.931699275,0.31933512,-0.14086878
1764764059.6048317,-5.15788,1.26658,0.9919,-0.931699275,0.31933512,-0.14086878
1764764059.6048317,-5.15788,1.26658,0.9919,-0.931699275,0.31933512,-0.14086878
1764764059.6048317,-5.15788,1.26658,0.9919,-0.931699275,0.31933512,-0.14086878
1764764059.6048317,-5.15788,1.26658,0.9919,-0.931699275,0.31933512,-0.14086878
1764764059.6048317,-5.15788,1.26658,0.9919,-0.931699275,0.31933512,-0.14086878
1764764059.6048317,-6.1803,1.77016,0.21364,-0.932187555,0.315856125,-0.138976695
1764764059.6048317,-6.1803,1.77016,0.21364,-0.932187555,0.315856125,-0.138976695
1764764059.6048317,-6.1803,1.77016,0.21364,-0.932187555,0.315856125,-0.138976695
1764764059.6048317,-6.1803,1.77016,0.21364,-0.932187555,0.315856125,-0.138976695
1764764059.6048317,-6.1803,1.77016,0.21364,-0.932187555,0.315856125,-0.138976695
1764764059.6058922,-6.1803,1.77016,0.21364,-0.932187555,0.315856125,-0.138976695
1764764059.6497824,-6.1803,1.77016,0.21364,-0.932187555,0.315856125,-0.138976695
1764764059.6497824,-6.1803,1.77016,0.21364,-0.932187555,0.315856125,-0.138976695
1764764059.6497824,-6.1803,1.77016,0.21364,-0.932187555,0.315856125,-0.138976695
1764764059.6497824,-6.1803,1.77016,0.21364,-0.932187555,0.315856125,-0.138976695
1764764059.6502907,-6.271859999999999,1.28184,-0.01526,-0.93285894,0.31408611,-0.137389785
1764764059.6502907,-6.271859999999999,1.28184,-0.01526,-0.93285894,0.31408611,-0.137389785
1764764059.6502907,-6.271859999999999,1.28184,-0.01526,-0.93285894,0.31408611,-0.137389785
1764764059.6502907,-6.271859999999999,1.28184,-0.01526,-0.93285894,0.31408611,-0.137389785
1764764059.6502907,-6.271859999999999,1.28184,-0.01526,-0.93285894,0.31408611,-0.137389785
1764764059.6502907,-6.271859999999999,1.28184,-0.01526,-0.93285894,0.31408611,-0.137389785
1764764059.6502907,-6.271859999999999,1.28184,-0.01526,-0.93285894,0.31408611,-0.137389785
1764764059.651652,-6.271859999999999,1.28184,-0.01526,-0.93285894,0.31408611,-0.137389785
1764764059.651652,-6.271859999999999,1.28184,-0.01526,-0.93285894,0.31408611,-0.137389785
1764764059.651652,-6.271859999999999,1.28184,-0.01526,-0.93285894,0.31408611,-0.137389785
1764764059.651652,-3.815,0.03052,-0.5341,-0.93127203,0.31103436,-0.137023575
1764764059.651652,-3.815,0.03052,-0.5341,-0.93127203,0.31103436,-0.137023575
1764764059.651652,-3.815,0.03052,-0.5341,-0.93127203,0.31103436,-0.137023575
1764764059.651652,-3.815,0.03052,-0.5341,-0.93127203,0.31103436,-0.137023575
1764764059.651652,-3.815,0.03052,-0.5341,-0.93127203,0.31103436,-0.137023575
1764764059.651652,-3.815,0.03052,-0.5341,-0.93127203,0.31103436,-0.137023575
1764764059.651652,-3.815,0.03052,-0.5341,-0.93127203,0.31103436,-0.137023575
1764764059.651652,-3.815,0.03052,-0.5341,-0.93127203,0.31103436,-0.137023575
1764764059.6962342,-3.815,0.03052,-0.5341,-0.93127203,0.31103436,-0.137023575
1764764059.6962342,-3.815,0.03052,-0.5341,-0.93127203,0.31103436,-0.137023575
1764764059.69725,-3.44876,0.3051999999999999,-0.62566,-0.929502015,0.30822675,-0.13854945
1764764059.69725,-3.44876,0.3051999999999999,-0.62566,-0.929502015,0.30822675,-0.13854945
1764764059.69725,-3.44876,0.3051999999999999,-0.62566,-0.929502015,0.30822675,-0.13854945
1764764059.69725,-3.44876,0.3051999999999999,-0.62566,-0.929502015,0.30822675,-0.13854945
1764764059.69725,-3.44876,0.3051999999999999,-0.62566,-0.929502015,0.30822675,-0.13854945
1764764059.69725,-3.44876,0.3051999999999999,-0.62566,-0.929502015,0.30822675,-0.13854945
1764764059.69725,-3.44876,0.3051999999999999,-0.62566,-0.929502015,0.30822675,-0.13854945
1764764059.69725,-3.44876,0.3051999999999999,-0.62566,-0.929502015,0.30822675,-0.13854945
1764764059.69725,-3.44876,0.3051999999999999,-0.62566,-0.929502015,0.30822675,-0.13854945
1764764059.69725,-3.44876,0.3051999999999999,-0.62566,-0.929502015,0.30822675,-0.13854945
1764764059.69725,-3.7387,1.03768,-0.65618,-0.929624085,0.309508485,-0.139953255
1764764059.69725,-3.7387,1.03768,-0.65618,-0.929624085,0.309508485,-0.139953255
1764764059.69725,-3.7387,1.03768,-0.65618,-0.929624085,0.309508485,-0.139953255
1764764059.69725,-3.7387,1.03768,-0.65618,-0.929624085,0.309508485,-0.139953255
1764764059.69725,-3.7387,1.03768,-0.65618,-0.929624085,0.309508485,-0.139953255
1764764059.6977625,-3.7387,1.03768,-0.65618,-0.929624085,0.309508485,-0.139953255
1764764059.6977625,-3.7387,1.03768,-0.65618,-0.929624085,0.309508485,-0.139953255
1764764059.6977625,-3.7387,1.03768,-0.65618,-0.929624085,0.309508485,-0.139953255
1764764059.6977625,-3.7387,1.03768,-0.65618,-0.929624085,0.309508485,-0.139953255
1764764059.6977625,-3.7387,1.03768,-0.65618,-0.929624085,0.309508485,-0.139953255
1764764059.6977625,-5.90562,1.08346,0.82404,-0.93127203,0.313170585,-0.139709115
1764764059.6977625,-5.90562,1.08346,0.82404,-0.93127203,0.313170585,-0.139709115
1764764059.7445526,-5.90562,1.08346,0.82404,-0.93127203,0.313170585,-0.139709115
1764764059.7445526,-5.90562,1.08346,0.82404,-0.93127203,0.313170585,-0.139709115
1764764059.7445526,-5.90562,1.08346,0.82404,-0.93127203,0.313170585,-0.139709115
1764764059.7445526,-5.90562,1.08346,0.82404,-0.93127203,0.313170585,-0.139709115
1764764059.7445526,-5.90562,1.08346,0.82404,-0.93127203,0.313170585,-0.139709115
1764764059.7445526,-5.90562,1.08346,0.82404,-0.93127203,0.313170585,-0.139709115
1764764059.7445526,-5.90562,1.08346,0.82404,-0.93127203,0.313170585,-0.139709115
1764764059.7445526,-5.90562,1.08346,0.82404,-0.93127203,0.313170585,-0.139709115
1764764059.7445526,-6.6381,0.9919,0.0762999999999999,-0.93444585,0.31799235,-0.1379391
1764764059.7445526,-6.6381,0.9919,0.0762999999999999,-0.93444585,0.31799235,-0.1379391
1764764059.7445526,-6.6381,0.9919,0.0762999999999999,-0.93444585,0.31799235,-0.1379391
1764764059.7445526,-6.6381,0.9919,0.0762999999999999,-0.93444585,0.31799235,-0.1379391
1764764059.7445526,-6.6381,0.9919,0.0762999999999999,-0.93444585,0.31799235,-0.1379391
1764764059.7445526,-6.6381,0.9919,0.0762999999999999,-0.93444585,0.31799235,-0.1379391
1764764059.7445526,-6.6381,0.9919,0.0762999999999999,-0.93444585,0.31799235,-0.1379391
1764764059.7445526,-6.6381,0.9919,0.0762999999999999,-0.93444585,0.31799235,-0.1379391
1764764059.7445526,-6.6381,0.9919,0.0762999999999999,-0.93444585,0.31799235,-0.1379391
1764764059.7445526,-6.6381,0.9919,0.0762999999999999,-0.93444585,0.31799235,-0.1379391
1764764059.7445526,-5.38678,0.7019599999999999,-0.3204599999999999,-0.9350562,0.31701579,-0.136291155
1764764059.7445526,-5.38678,0.7019599999999999,-0.3204599999999999,-0.9350562,0.31701579,-0.136291155
1764764059.7445526,-5.38678,0.7019599999999999,-0.3204599999999999,-0.9350562,0.31701579,-0.136291155
1764764059.7445526,-5.38678,0.7019599999999999,-0.3204599999999999,-0.9350562,0.31701579,-0.136291155
1764764059.7445526,-5.38678,0.7019599999999999,-0.3204599999999999,-0.9350562,0.31701579,-0.136291155
1764764059.7445526,-5.38678,0.7019599999999999,-0.3204599999999999,-0.9350562,0.31701579,-0.136291155
1764764059.791578,-5.38678,0.7019599999999999,-0.3204599999999999,-0.9350562,0.31701579,-0.136291155
1764764059.791578,-5.38678,0.7019599999999999,-0.3204599999999999,-0.9350562,0.31701579,-0.136291155
1764764059.791578,-5.38678,0.7019599999999999,-0.3204599999999999,-0.9350562,0.31701579,-0.136291155
1764764059.791578,-5.38678,0.7019599999999999,-0.3204599999999999,-0.9350562,0.31701579,-0.136291155
1764764059.791578,-4.89846,0.1678599999999999,-0.39676,-0.93273687,0.3137199,-0.137145645
1764764059.791578,-4.89846,0.1678599999999999,-0.39676,-0.93273687,0.3137199,-0.137145645
1764764059.791578,-4.89846,0.1678599999999999,-0.39676,-0.93273687,0.3137199,-0.137145645
1764764059.791578,-4.89846,0.1678599999999999,-0.39676,-0.93273687,0.3137199,-0.137145645
1764764059.7921164,-4.89846,0.1678599999999999,-0.39676,-0.93273687,0.3137199,-0.137145645
1764764059.7921164,-4.89846,0.1678599999999999,-0.39676,-0.93273687,0.3137199,-0.137145645
1764764059.7921164,-4.89846,0.1678599999999999,-0.39676,-0.93273687,0.3137199,-0.137145645
1764764059.7921164,-4.89846,0.1678599999999999,-0.39676,-0.93273687,0.3137199,-0.137145645
1764764059.7921164,-4.89846,0.1678599999999999,-0.39676,-0.93273687,0.3137199,-0.137145645
1764764059.7921164,-4.89846,0.1678599999999999,-0.39676,-0.93273687,0.3137199,-0.137145645
1764764059.7921164,-3.99812,1.03768,0.71722,-0.9313941,0.311461605,-0.138488415
1764764059.7921164,-3.99812,1.03768,0.71722,-0.9313941,0.311461605,-0.138488415
1764764059.7921164,-3.99812,1.03768,0.71722,-0.9313941,0.311461605,-0.138488415
1764764059.7921164,-3.99812,1.03768,0.71722,-0.9313941,0.311461605,-0.138488415
1764764059.7921164,-3.99812,1.03768,0.71722,-0.9313941,0.311461605,-0.138488415
1764764059.7921164,-3.99812,1.03768,0.71722,-0.9313941,0.311461605,-0.138488415
1764764059.7921164,-3.99812,1.03768,0.71722,-0.9313941,0.311461605,-0.138488415
1764764059.7921164,-3.99812,1.03768,0.71722,-0.9313941,0.311461605,-0.138488415
1764764059.840058,-3.99812,1.03768,0.71722,-0.9313941,0.311461605,-0.138488415
1764764059.840058,-3.99812,1.03768,0.71722,-0.9313941,0.311461605,-0.138488415
1764764059.840058,-4.47118,1.8006799999999998,1.2971,-0.930966855,0.30944745,-0.139098765
1764764059.840058,-4.47118,1.8006799999999998,1.2971,-0.930966855,0.30944745,-0.139098765
1764764059.840058,-4.47118,1.8006799999999998,1.2971,-0.930966855,0.30944745,-0.139098765
1764764059.840058,-4.47118,1.8006799999999998,1.2971,-0.930966855,0.30944745,-0.139098765
1764764059.840058,-4.47118,1.8006799999999998,1.2971,-0.930966855,0.30944745,-0.139098765
1764764059.840058,-4.47118,1.8006799999999998,1.2971,-0.930966855,0.30944745,-0.139098765
1764764059.840058,-4.47118,1.8006799999999998,1.2971,-0.930966855,0.30944745,-0.139098765
1764764059.840058,-4.47118,1.8006799999999998,1.2971,-0.930966855,0.30944745,-0.139098765
1764764059.840058,-4.47118,1.8006799999999998,1.2971,-0.930966855,0.30944745,-0.139098765
1764764059.840058,-4.47118,1.8006799999999998,1.2971,-0.930966855,0.30944745,-0.139098765
1764764059.840058,-4.5017,0.8698199999999999,0.71722,-0.9326148,0.30859296,-0.137267715
1764764059.840058,-4.5017,0.8698199999999999,0.71722,-0.9326148,0.30859296,-0.137267715
1764764059.840058,-4.5017,0.8698199999999999,0.71722,-0.9326148,0.30859296,-0.137267715
1764764059.840058,-4.5017,0.8698199999999999,0.71722,-0.9326148,0.30859296,-0.137267715
1764764059.840058,-4.5017,0.8698199999999999,0.71722,-0.9326148,0.30859296,-0.137267715
1764764059.840058,-4.5017,0.8698199999999999,0.71722,-0.9326148,0.30859296,-0.137267715
1764764059.840058,-4.5017,0.8698199999999999,0.71722,-0.9326148,0.30859296,-0.137267715
1764764059.840058,-4.5017,0.8698199999999999,0.71722,-0.9326148,0.30859296,-0.137267715
1764764059.840058,-4.5017,0.8698199999999999,0.71722,-0.9326148,0.30859296,-0.137267715
1764764059.840058,-4.5017,0.8698199999999999,0.71722,-0.9326148,0.30859296,-0.137267715
1764764059.840058,-3.76922,1.00716,0.0762999999999999,-0.934384815,0.30895917,-0.13476528
1764764059.840058,-3.76922,1.00716,0.0762999999999999,-0.934384815,0.30895917,-0.13476528
1764764059.886497,-3.76922,1.00716,0.0762999999999999,-0.934384815,0.30895917,-0.13476528
1764764059.886497,-3.76922,1.00716,0.0762999999999999,-0.934384815,0.30895917,-0.13476528
1764764059.886497,-3.76922,1.00716,0.0762999999999999,-0.934384815,0.30895917,-0.13476528
1764764059.886497,-3.76922,1.00716,0.0762999999999999,-0.934384815,0.30895917,-0.13476528
1764764059.886497,-3.76922,1.00716,0.0762999999999999,-0.934384815,0.30895917,-0.13476528
1764764059.886497,-3.76922,1.00716,0.0762999999999999,-0.934384815,0.30895917,-0.13476528
1764764059.886497,-3.76922,1.00716,0.0762999999999999,-0.934384815,0.30895917,-0.13476528
1764764059.886497,-3.76922,1.00716,0.0762999999999999,-0.934384815,0.30895917,-0.13476528
1764764059.886497,-2.62472,0.65618,0.28994,-0.935239305,0.31079022,-0.134826315
1764764059.886497,-2.62472,0.65618,0.28994,-0.935239305,0.31079022,-0.134826315
1764764059.886497,-2.62472,0.65618,0.28994,-0.935239305,0.31079022,-0.134826315
1764764059.886497,-2.62472,0.65618,0.28994,-0.935239305,0.31079022,-0.134826315
1764764059.886497,-2.62472,0.65618,0.28994,-0.935239305,0.31079022,-0.134826315
1764764059.886497,-2.62472,0.65618,0.28994,-0.935239305,0.31079022,-0.134826315
1764764059.886497,-2.62472,0.65618,0.28994,-0.935239305,0.31079022,-0.134826315
1764764059.886497,-2.62472,0.65618,0.28994,-0.935239305,0.31079022,-0.134826315
1764764059.886497,-2.62472,0.65618,0.28994,-0.935239305,0.31079022,-0.134826315
1764764059.886497,-2.62472,0.65618,0.28994,-0.935239305,0.31079022,-0.134826315
1764764059.886497,-1.00716,1.05294,0.47306,-0.93322515,0.31103436,-0.137633925
1764764059.886497,-1.00716,1.05294,0.47306,-0.93322515,0.31103436,-0.137633925
1764764059.886497,-1.00716,1.05294,0.47306,-0.93322515,0.31103436,-0.137633925
1764764059.886497,-1.00716,1.05294,0.47306,-0.93322515,0.31103436,-0.137633925
1764764059.886497,-1.00716,1.05294,0.47306,-0.93322515,0.31103436,-0.137633925
1764764059.886497,-1.00716,1.05294,0.47306,-0.93322515,0.31103436,-0.137633925
1764764059.886497,-1.00716,1.05294,0.47306,-0.93322515,0.31103436,-0.137633925
1764764059.886497,-1.00716,1.05294,0.47306,-0.93322515,0.31103436,-0.137633925
1764764059.930704,-1.00716,1.05294,0.47306,-0.93322515,0.31103436,-0.137633925
1764764059.930704,-1.00716,1.05294,0.47306,-0.93322515,0.31103436,-0.137633925
1764764059.9312303,-2.04484,1.55652,0.62566,-0.93151617,0.311095395,-0.141051885
1764764059.9312303,-2.04484,1.55652,0.62566,-0.93151617,0.311095395,-0.141051885
1764764059.9312303,-2.04484,1.55652,0.62566,-0.93151617,0.311095395,-0.141051885
1764764059.9312303,-2.04484,1.55652,0.62566,-0.93151617,0.311095395,-0.141051885
1764764059.9312303,-2.04484,1.55652,0.62566,-0.93151617,0.311095395,-0.141051885
1764764059.9312303,-2.04484,1.55652,0.62566,-0.93151617,0.311095395,-0.141051885
1764764059.9312303,-2.04484,1.55652,0.62566,-0.93151617,0.311095395,-0.141051885
1764764059.9312303,-2.04484,1.55652,0.62566,-0.93151617,0.311095395,-0.141051885
1764764059.9312303,-2.04484,1.55652,0.62566,-0.93151617,0.311095395,-0.141051885
1764764059.9312303,-2.04484,1.55652,0.62566,-0.93151617,0.311095395,-0.141051885
1764764059.9312303,-2.99096,1.15976,0.93086,-0.931088925,0.31262127,-0.141662235
1764764059.9312303,-2.99096,1.15976,0.93086,-0.931088925,0.31262127,-0.141662235
1764764059.9312303,-2.99096,1.15976,0.93086,-0.931088925,0.31262127,-0.141662235
1764764059.9312303,-2.99096,1.15976,0.93086,-0.931088925,0.31262127,-0.141662235
1764764059.9317875,-2.99096,1.15976,0.93086,-0.931088925,0.31262127,-0.141662235
1764764059.9317875,-2.99096,1.15976,0.93086,-0.931088925,0.31262127,-0.141662235
1764764059.9317875,-2.99096,1.15976,0.93086,-0.931088925,0.31262127,-0.141662235
1764764059.9317875,-2.99096,1.15976,0.93086,-0.931088925,0.31262127,-0.141662235
1764764059.9317875,-2.99096,1.15976,0.93086,-0.931088925,0.31262127,-0.141662235
1764764059.9317875,-2.99096,1.15976,0.93086,-0.931088925,0.31262127,-0.141662235
1764764059.9784734,-4.22702,1.49548,0.71722,-0.932431695,0.31530681,-0.141296025
1764764059.9784734,-4.22702,1.49548,0.71722,-0.932431695,0.31530681,-0.141296025
1764764059.9784734,-4.22702,1.49548,0.71722,-0.932431695,0.31530681,-0.141296025
1764764059.9784734,-4.22702,1.49548,0.71722,-0.932431695,0.31530681,-0.141296025
1764764059.9784734,-4.22702,1.49548,0.71722,-0.932431695,0.31530681,-0.141296025
1764764059.9784734,-4.22702,1.49548,0.71722,-0.932431695,0.31530681,-0.141296025
1764764059.9784734,-4.22702,1.49548,0.71722,-0.932431695,0.31530681,-0.141296025
1764764059.9784734,-4.22702,1.49548,0.71722,-0.932431695,0.31530681,-0.141296025
1764764059.9784734,-4.22702,1.49548,0.71722,-0.932431695,0.31530681,-0.141296025
1764764059.9784734,-4.22702,1.49548,0.71722,-0.932431695,0.31530681,-0.141296025
1764764059.9784734,-4.6543,1.64808,0.3815,-0.93224859,0.31677165,-0.13928187
1764764059.9784734,-4.6543,1.64808,0.3815,-0.93224859,0.31677165,-0.13928187
1764764059.9784734,-4.6543,1.64808,0.3815,-0.93224859,0.31677165,-0.13928187
1764764059.9784734,-4.6543,1.64808,0.3815,-0.93224859,0.31677165,-0.13928187
1764764059.9784734,-4.6543,1.64808,0.3815,-0.93224859,0.31677165,-0.13928187
1764764059.9784734,-4.6543,1.64808,0.3815,-0.93224859,0.31677165,-0.13928187
1764764059.9784734,-4.6543,1.64808,0.3815,-0.93224859,0.31677165,-0.13928187
1764764059.9784734,-4.6543,1.64808,0.3815,-0.93224859,0.31677165,-0.13928187
1764764059.9784734,-4.6543,1.64808,0.3815,-0.93224859,0.31677165,-0.13928187
1764764059.9784734,-4.6543,1.64808,0.3815,-0.93224859,0.31677165,-0.13928187
1764764059.9784734,-3.90656,0.94612,0.71722,-0.931699275,0.315611985,-0.1379391
1764764059.9784734,-3.90656,0.94612,0.71722,-0.931699275,0.315611985,-0.1379391
1764764060.025581,-3.90656,0.94612,0.71722,-0.931699275,0.315611985,-0.1379391
1764764060.025581,-3.90656,0.94612,0.71722,-0.931699275,0.315611985,-0.1379391
1764764060.025581,-3.90656,0.94612,0.71722,-0.931699275,0.315611985,-0.1379391
1764764060.026593,-3.90656,0.94612,0.71722,-0.931699275,0.315611985,-0.1379391
1764764060.026593,-3.90656,0.94612,0.71722,-0.931699275,0.315611985,-0.1379391
1764764060.026593,-3.90656,0.94612,0.71722,-0.931699275,0.315611985,-0.1379391
1764764060.026593,-3.90656,0.94612,0.71722,-0.931699275,0.315611985,-0.1379391
1764764060.026593,-3.90656,0.94612,0.71722,-0.931699275,0.315611985,-0.1379391
1764764060.026593,-3.37246,1.08346,0.6867,-0.930966855,0.313048515,-0.138244275
1764764060.026593,-3.37246,1.08346,0.6867,-0.930966855,0.313048515,-0.138244275
1764764060.026593,-3.37246,1.08346,0.6867,-0.930966855,0.313048515,-0.138244275
1764764060.026593,-3.37246,1.08346,0.6867,-0.930966855,0.313048515,-0.138244275
1764764060.026593,-3.37246,1.08346,0.6867,-0.930966855,0.313048515,-0.138244275
1764764060.026593,-3.37246,1.08346,0.6867,-0.930966855,0.313048515,-0.138244275
1764764060.026593,-3.37246,1.08346,0.6867,-0.930966855,0.313048515,-0.138244275
1764764060.026593,-3.37246,1.08346,0.6867,-0.930966855,0.313048515,-0.138244275
1764764060.026593,-3.37246,1.08346,0.6867,-0.930966855,0.313048515,-0.138244275
1764764060.026593,-3.37246,1.08346,0.6867,-0.930966855,0.313048515,-0.138244275
1764764060.026593,-3.86078,1.05294,0.8392999999999999,-0.93114996,0.310607115,-0.139831185
1764764060.026593,-3.86078,1.05294,0.8392999999999999,-0.93114996,0.310607115,-0.139831185
1764764060.026593,-3.86078,1.05294,0.8392999999999999,-0.93114996,0.310607115,-0.139831185
1764764060.026593,-3.86078,1.05294,0.8392999999999999,-0.93114996,0.310607115,-0.139831185
1764764060.026593,-3.86078,1.05294,0.8392999999999999,-0.93114996,0.310607115,-0.139831185
1764764060.026593,-3.86078,1.05294,0.8392999999999999,-0.93114996,0.310607115,-0.139831185
1764764060.0718048,-3.86078,1.05294,0.8392999999999999,-0.93114996,0.310607115,-0.139831185
1764764060.0718048,-3.86078,1.05294,0.8392999999999999,-0.93114996,0.310607115,-0.139831185
1764764060.0718048,-3.86078,1.05294,0.8392999999999999,-0.93114996,0.310607115,-0.139831185
1764764060.0718048,-3.86078,1.05294,0.8392999999999999,-0.93114996,0.310607115,-0.139831185
1764764060.0718048,-4.24228,0.8087799999999999,0.24416,-0.93114996,0.311461605,-0.14074671
1764764060.0718048,-4.24228,0.8087799999999999,0.24416,-0.93114996,0.311461605,-0.14074671
1764764060.0718048,-4.24228,0.8087799999999999,0.24416,-0.93114996,0.311461605,-0.14074671
1764764060.0718048,-4.24228,0.8087799999999999,0.24416,-0.93114996,0.311461605,-0.14074671
1764764060.0718048,-4.24228,0.8087799999999999,0.24416,-0.93114996,0.311461605,-0.14074671
1764764060.0718048,-4.24228,0.8087799999999999,0.24416,-0.93114996,0.311461605,-0.14074671
1764764060.0718048,-4.24228,0.8087799999999999,0.24416,-0.93114996,0.311461605,-0.14074671
1764764060.0718048,-4.24228,0.8087799999999999,0.24416,-0.93114996,0.311461605,-0.14074671
1764764060.0718048,-4.24228,0.8087799999999999,0.24416,-0.93114996,0.311461605,-0.14074671
1764764060.0718048,-4.24228,0.8087799999999999,0.24416,-0.93114996,0.311461605,-0.14074671
1764764060.0718048,-4.97476,1.03768,0.19838,-0.932431695,0.31335369,-0.140563605
1764764060.0718048,-4.97476,1.03768,0.19838,-0.932431695,0.31335369,-0.140563605
1764764060.0718048,-4.97476,1.03768,0.19838,-0.932431695,0.31335369,-0.140563605
1764764060.0718048,-4.97476,1.03768,0.19838,-0.932431695,0.31335369,-0.140563605
1764764060.0718048,-4.97476,1.03768,0.19838,-0.932431695,0.31335369,-0.140563605
1764764060.0718048,-4.97476,1.03768,0.19838,-0.932431695,0.31335369,-0.140563605
1764764060.0718048,-4.97476,1.03768,0.19838,-0.932431695,0.31335369,-0.140563605
1764764060.0728056,-4.97476,1.03768,0.19838,-0.932431695,0.31335369,-0.140563605
1764764060.1197126,-4.97476,1.03768,0.19838,-0.932431695,0.31335369,-0.140563605
1764764060.1197126,-4.97476,1.03768,0.19838,-0.932431695,0.31335369,-0.140563605
1764764060.1197126,-5.2647,0.82404,0.41202,-0.93322515,0.314391285,-0.13952601
1764764060.1197126,-5.2647,0.82404,0.41202,-0.93322515,0.314391285,-0.13952601
1764764060.1197126,-5.2647,0.82404,0.41202,-0.93322515,0.314391285,-0.13952601
1764764060.1197126,-5.2647,0.82404,0.41202,-0.93322515,0.314391285,-0.13952601
1764764060.1197126,-5.2647,0.82404,0.41202,-0.93322515,0.314391285,-0.13952601
1764764060.1197126,-5.2647,0.82404,0.41202,-0.93322515,0.314391285,-0.13952601
1764764060.1197126,-5.2647,0.82404,0.41202,-0.93322515,0.314391285,-0.13952601
1764764060.1197126,-5.2647,0.82404,0.41202,-0.93322515,0.314391285,-0.13952601
1764764060.1197126,-5.2647,0.82404,0.41202,-0.93322515,0.314391285,-0.13952601
1764764060.1197126,-5.2647,0.82404,0.41202,-0.93322515,0.314391285,-0.13952601
1764764060.1197126,-4.60852,0.2289,0.65618,-0.932797905,0.312926445,-0.13928187
1764764060.1197126,-4.60852,0.2289,0.65618,-0.932797905,0.312926445,-0.13928187
1764764060.1197126,-4.60852,0.2289,0.65618,-0.932797905,0.312926445,-0.13928187
1764764060.1197126,-4.60852,0.2289,0.65618,-0.932797905,0.312926445,-0.13928187
1764764060.1197126,-4.60852,0.2289,0.65618,-0.932797905,0.312926445,-0.13928187
1764764060.1197126,-4.60852,0.2289,0.65618,-0.932797905,0.312926445,-0.13928187
1764764060.1197126,-4.60852,0.2289,0.65618,-0.932797905,0.312926445,-0.13928187
1764764060.1197126,-4.60852,0.2289,0.65618,-0.932797905,0.312926445,-0.13928187
1764764060.1197126,-4.60852,0.2289,0.65618,-0.932797905,0.312926445,-0.13928187
1764764060.1197126,-4.60852,0.2289,0.65618,-0.932797905,0.312926445,-0.13928187
1764764060.1197126,-5.615679999999999,0.73248,0.3509799999999999,-0.931943415,0.312071955,-0.139220835
1764764060.1197126,-5.615679999999999,0.73248,0.3509799999999999,-0.931943415,0.312071955,-0.139220835
1764764060.1660316,-5.615679999999999,0.73248,0.3509799999999999,-0.931943415,0.312071955,-0.139220835
1764764060.1660316,-5.615679999999999,0.73248,0.3509799999999999,-0.931943415,0.312071955,-0.139220835
1764764060.1660316,-5.615679999999999,0.73248,0.3509799999999999,-0.931943415,0.312071955,-0.139220835
1764764060.1660316,-5.615679999999999,0.73248,0.3509799999999999,-0.931943415,0.312071955,-0.139220835
1764764060.1660316,-5.615679999999999,0.73248,0.3509799999999999,-0.931943415,0.312071955,-0.139220835
1764764060.1660316,-5.615679999999999,0.73248,0.3509799999999999,-0.931943415,0.312071955,-0.139220835
1764764060.1660316,-5.615679999999999,0.73248,0.3509799999999999,-0.931943415,0.312071955,-0.139220835
1764764060.1660316,-5.615679999999999,0.73248,0.3509799999999999,-0.931943415,0.312071955,-0.139220835
1764764060.1660316,-7.3248,0.8087799999999999,-0.09156,-0.93176031,0.312926445,-0.138732555
1764764060.1660316,-7.3248,0.8087799999999999,-0.09156,-0.93176031,0.312926445,-0.138732555
1764764060.1660316,-7.3248,0.8087799999999999,-0.09156,-0.93176031,0.312926445,-0.138732555
1764764060.1660316,-7.3248,0.8087799999999999,-0.09156,-0.93176031,0.312926445,-0.138732555
1764764060.1660316,-7.3248,0.8087799999999999,-0.09156,-0.93176031,0.312926445,-0.138732555
1764764060.1660316,-7.3248,0.8087799999999999,-0.09156,-0.93176031,0.312926445,-0.138732555
1764764060.1660316,-7.3248,0.8087799999999999,-0.09156,-0.93176031,0.312926445,-0.138732555
1764764060.1660316,-7.3248,0.8087799999999999,-0.09156,-0.93176031,0.312926445,-0.138732555
1764764060.1660316,-7.3248,0.8087799999999999,-0.09156,-0.93176031,0.312926445,-0.138732555
1764764060.1660316,-7.3248,0.8087799999999999,-0.09156,-0.93176031,0.312926445,-0.138732555
1764764060.167559,-4.99002,-0.27468,-0.01526,-0.931943415,0.31286541,-0.139220835
1764764060.167559,-4.99002,-0.27468,-0.01526,-0.931943415,0.31286541,-0.139220835
1764764060.167559,-4.99002,-0.27468,-0.01526,-0.931943415,0.31286541,-0.139220835
1764764060.167559,-4.99002,-0.27468,-0.01526,-0.931943415,0.31286541,-0.139220835
1764764060.167559,-4.99002,-0.27468,-0.01526,-0.931943415,0.31286541,-0.139220835
1764764060.167559,-4.99002,-0.27468,-0.01526,-0.931943415,0.31286541,-0.139220835
1764764060.2146616,-4.99002,-0.27468,-0.01526,-0.931943415,0.31286541,-0.139220835
1764764060.2146616,-4.99002,-0.27468,-0.01526,-0.931943415,0.31286541,-0.139220835
1764764060.2146616,-4.99002,-0.27468,-0.01526,-0.931943415,0.31286541,-0.139220835
1764764060.2146616,-4.99002,-0.27468,-0.01526,-0.931943415,0.31286541,-0.139220835
1764764060.2146616,-3.9676,0.04578,-0.21364,-0.93090582,0.31091229,-0.140807745
