Timestamp,GyroX,GyroY,GyroZ,AccX,AccY,AccZ
1764763277.7195554,-5.24944,0.85456,0.44254,0.938046915,-0.28588794,0.153625095
1764763277.7195554,-5.24944,0.85456,0.44254,0.938046915,-0.28588794,0.153625095
1764763277.7195554,-5.24944,0.85456,0.44254,0.938046915,-0.28588794,0.153625095
1764763277.7195554,-5.24944,0.85456,0.44254,0.938046915,-0.28588794,0.153625095
1764763277.7195554,-5.24944,0.85456,0.44254,0.938046915,-0.28588794,0.153625095
1764763277.7195554,-5.24944,0.85456,0.44254,0.938046915,-0.28588794,0.153625095
1764763277.7200897,-5.24944,0.85456,0.44254,0.938046915,-0.28588794,0.153625095
1764763277.7200897,-4.852679999999999,1.28184,0.3815,0.937924845,-0.285460695,0.15319785
1764763277.7200897,-4.852679999999999,1.28184,0.3815,0.937924845,-0.285460695,0.15319785
1764763277.7668817,-4.852679999999999,1.28184,0.3815,0.937924845,-0.285460695,0.15319785
1764763277.7668817,-4.852679999999999,1.28184,0.3815,0.937924845,-0.285460695,0.15319785
1764763277.7668817,-4.852679999999999,1.28184,0.3815,0.937924845,-0.285460695,0.15319785
1764763277.7668817,-4.852679999999999,1.28184,0.3815,0.937924845,-0.285460695,0.15319785
1764763277.7668817,-4.852679999999999,1.28184,0.3815,0.937924845,-0.285460695,0.15319785
1764763277.7668817,-4.852679999999999,1.28184,0.3815,0.937924845,-0.285460695,0.15319785
1764763277.7668817,-4.852679999999999,1.28184,0.3815,0.937924845,-0.285460695,0.15319785
1764763277.7668817,-4.852679999999999,1.28184,0.3815,0.937924845,-0.285460695,0.15319785
1764763277.7668817,-4.66956,1.11398,0.51884,0.93615483,-0.28662036,0.15344199
1764763277.7668817,-4.66956,1.11398,0.51884,0.93615483,-0.28662036,0.15344199
1764763277.7668817,-4.66956,1.11398,0.51884,0.93615483,-0.28662036,0.15344199
1764763277.7668817,-4.66956,1.11398,0.51884,0.93615483,-0.28662036,0.15344199
1764763277.7668817,-4.66956,1.11398,0.51884,0.93615483,-0.28662036,0.15344199
1764763277.7668817,-4.66956,1.11398,0.51884,0.93615483,-0.28662036,0.15344199
1764763277.7668817,-4.66956,1.11398,0.51884,0.93615483,-0.28662036,0.15344199
1764763277.7668817,-4.66956,1.11398,0.51884,0.93615483,-0.28662036,0.15344199
1764763277.7668817,-4.66956,1.11398,0.51884,0.93615483,-0.28662036,0.15344199
1764763277.7668817,-4.66956,1.11398,0.51884,0.93615483,-0.28662036,0.15344199
1764763277.7668817,-3.84552,1.17502,0.93086,0.935239305,-0.28759692,0.15368613
1764763277.7668817,-3.84552,1.17502,0.93086,0.935239305,-0.28759692,0.15368613
1764763277.7668817,-3.84552,1.17502,0.93086,0.935239305,-0.28759692,0.15368613
1764763277.7668817,-3.84552,1.17502,0.93086,0.935239305,-0.28759692,0.15368613
1764763277.7668817,-3.84552,1.17502,0.93086,0.935239305,-0.28759692,0.15368613
1764763277.7668817,-3.84552,1.17502,0.93086,0.935239305,-0.28759692,0.15368613
1764763277.7668817,-3.84552,1.17502,0.93086,0.935239305,-0.28759692,0.15368613
1764763277.7668817,-3.84552,1.17502,0.93086,0.935239305,-0.28759692,0.15368613
1764763277.767893,-3.84552,1.17502,0.93086,0.935239305,-0.28759692,0.15368613
1764763277.767893,-3.84552,1.17502,0.93086,0.935239305,-0.28759692,0.15368613
1764763277.767893,-3.26564,0.71722,0.9919,0.93700932,-0.28735278,0.154235445
1764763277.767893,-3.26564,0.71722,0.9919,0.93700932,-0.28735278,0.154235445
1764763277.767893,-3.26564,0.71722,0.9919,0.93700932,-0.28735278,0.154235445
1764763277.767893,-3.26564,0.71722,0.9919,0.93700932,-0.28735278,0.154235445
1764763277.767893,-3.26564,0.71722,0.9919,0.93700932,-0.28735278,0.154235445
1764763277.767893,-3.26564,0.71722,0.9919,0.93700932,-0.28735278,0.154235445
1764763277.767893,-3.26564,0.71722,0.9919,0.93700932,-0.28735278,0.154235445
1764763277.767893,-3.26564,0.71722,0.9919,0.93700932,-0.28735278,0.154235445
1764763277.767893,-3.26564,0.71722,0.9919,0.93700932,-0.28735278,0.154235445
1764763277.767893,-3.26564,0.71722,0.9919,0.93700932,-0.28735278,0.154235445
1764763277.8150926,-3.09778,0.93086,1.05294,0.937070355,-0.288390375,0.154723725
1764763277.8150926,-3.09778,0.93086,1.05294,0.937070355,-0.288390375,0.154723725
1764763277.8150926,-3.09778,0.93086,1.05294,0.937070355,-0.288390375,0.154723725
1764763277.8150926,-3.09778,0.93086,1.05294,0.937070355,-0.288390375,0.154723725
1764763277.8150926,-3.09778,0.93086,1.05294,0.937070355,-0.288390375,0.154723725
1764763277.8150926,-3.09778,0.93086,1.05294,0.937070355,-0.288390375,0.154723725
1764763277.8150926,-3.09778,0.93086,1.05294,0.937070355,-0.288390375,0.154723725
1764763277.8150926,-3.09778,0.93086,1.05294,0.937070355,-0.288390375,0.154723725
1764763277.8150926,-3.09778,0.93086,1.05294,0.937070355,-0.288390375,0.154723725
1764763277.8150926,-3.09778,0.93086,1.05294,0.937070355,-0.288390375,0.154723725
1764763277.8150926,-2.45686,1.17502,1.15976,0.936215865,-0.288024165,0.15441855
1764763277.8150926,-2.45686,1.17502,1.15976,0.936215865,-0.288024165,0.15441855
1764763277.8150926,-2.45686,1.17502,1.15976,0.936215865,-0.288024165,0.15441855
1764763277.8150926,-2.45686,1.17502,1.15976,0.936215865,-0.288024165,0.15441855
1764763277.8150926,-2.45686,1.17502,1.15976,0.936215865,-0.288024165,0.15441855
1764763277.8150926,-2.45686,1.17502,1.15976,0.936215865,-0.288024165,0.15441855
1764763277.8150926,-2.45686,1.17502,1.15976,0.936215865,-0.288024165,0.15441855
1764763277.8150926,-2.45686,1.17502,1.15976,0.936215865,-0.288024165,0.15441855
1764763277.8150926,-2.45686,1.17502,1.15976,0.936215865,-0.288024165,0.15441855
1764763277.8150926,-2.45686,1.17502,1.15976,0.936215865,-0.288024165,0.15441855
1764763277.815602,-3.08252,0.6714399999999999,1.4497,0.93578862,-0.287169675,0.15405234
1764763277.815602,-3.08252,0.6714399999999999,1.4497,0.93578862,-0.287169675,0.15405234
1764763277.858743,-3.08252,0.6714399999999999,1.4497,0.93578862,-0.287169675,0.15405234
1764763277.858743,-3.08252,0.6714399999999999,1.4497,0.93578862,-0.287169675,0.15405234
1764763277.858743,-3.08252,0.6714399999999999,1.4497,0.93578862,-0.287169675,0.15405234
1764763277.858743,-3.08252,0.6714399999999999,1.4497,0.93578862,-0.287169675,0.15405234
1764763277.858743,-3.08252,0.6714399999999999,1.4497,0.93578862,-0.287169675,0.15405234
1764763277.858743,-3.08252,0.6714399999999999,1.4497,0.93578862,-0.287169675,0.15405234
1764763277.8592756,-3.08252,0.6714399999999999,1.4497,0.93578862,-0.287169675,0.15405234
1764763277.8592756,-3.08252,0.6714399999999999,1.4497,0.93578862,-0.287169675,0.15405234
1764763277.8592756,-3.78448,0.50358,0.8392999999999999,0.93676518,-0.285216555,0.153747165
1764763277.8592756,-3.78448,0.50358,0.8392999999999999,0.93676518,-0.285216555,0.153747165
1764763277.8592756,-3.78448,0.50358,0.8392999999999999,0.93676518,-0.285216555,0.153747165
1764763277.8592756,-3.78448,0.50358,0.8392999999999999,0.93676518,-0.285216555,0.153747165
1764763277.8592756,-3.78448,0.50358,0.8392999999999999,0.93676518,-0.285216555,0.153747165
1764763277.8592756,-3.78448,0.50358,0.8392999999999999,0.93676518,-0.285216555,0.153747165
1764763277.8592756,-3.78448,0.50358,0.8392999999999999,0.93676518,-0.285216555,0.153747165
1764763277.8592756,-3.78448,0.50358,0.8392999999999999,0.93676518,-0.285216555,0.153747165
1764763277.8592756,-3.78448,0.50358,0.8392999999999999,0.93676518,-0.285216555,0.153747165
1764763277.8592756,-3.78448,0.50358,0.8392999999999999,0.93676518,-0.285216555,0.153747165
1764763277.8592756,-4.01338,1.49548,0.48832,0.938901405,-0.284972415,0.154967865
1764763277.8592756,-4.01338,1.49548,0.48832,0.938901405,-0.284972415,0.154967865
1764763277.8592756,-4.01338,1.49548,0.48832,0.938901405,-0.284972415,0.154967865
1764763277.8592756,-4.01338,1.49548,0.48832,0.938901405,-0.284972415,0.154967865
1764763277.8592756,-4.01338,1.49548,0.48832,0.938901405,-0.284972415,0.154967865
1764763277.8592756,-4.01338,1.49548,0.48832,0.938901405,-0.284972415,0.154967865
1764763277.905616,-4.01338,1.49548,0.48832,0.938901405,-0.284972415,0.154967865
1764763277.905616,-4.01338,1.49548,0.48832,0.938901405,-0.284972415,0.154967865
1764763277.905616,-4.01338,1.49548,0.48832,0.938901405,-0.284972415,0.154967865
1764763277.905616,-4.01338,1.49548,0.48832,0.938901405,-0.284972415,0.154967865
1764763277.905616,-3.87604,2.1364,0.3051999999999999,0.938779335,-0.284117925,0.15515097
1764763277.905616,-3.87604,2.1364,0.3051999999999999,0.938779335,-0.284117925,0.15515097
1764763277.905616,-3.87604,2.1364,0.3051999999999999,0.938779335,-0.284117925,0.15515097
1764763277.905616,-3.87604,2.1364,0.3051999999999999,0.938779335,-0.284117925,0.15515097
1764763277.905616,-3.87604,2.1364,0.3051999999999999,0.938779335,-0.284117925,0.15515097
1764763277.905616,-3.87604,2.1364,0.3051999999999999,0.938779335,-0.284117925,0.15515097
1764763277.905616,-3.87604,2.1364,0.3051999999999999,0.938779335,-0.284117925,0.15515097
1764763277.905616,-3.87604,2.1364,0.3051999999999999,0.938779335,-0.284117925,0.15515097
1764763277.905616,-3.87604,2.1364,0.3051999999999999,0.938779335,-0.284117925,0.15515097
1764763277.905616,-3.87604,2.1364,0.3051999999999999,0.938779335,-0.284117925,0.15515097
1764763277.905616,-3.63188,1.89224,0.8087799999999999,0.936704145,-0.283507575,0.15576132
1764763277.905616,-3.63188,1.89224,0.8087799999999999,0.936704145,-0.283507575,0.15576132
1764763277.905616,-3.63188,1.89224,0.8087799999999999,0.936704145,-0.283507575,0.15576132
1764763277.905616,-3.63188,1.89224,0.8087799999999999,0.936704145,-0.283507575,0.15576132
1764763277.905616,-3.63188,1.89224,0.8087799999999999,0.936704145,-0.283507575,0.15576132
1764763277.905616,-3.63188,1.89224,0.8087799999999999,0.936704145,-0.283507575,0.15576132
1764763277.905616,-3.63188,1.89224,0.8087799999999999,0.936704145,-0.283507575,0.15576132
1764763277.905616,-3.63188,1.89224,0.8087799999999999,0.936704145,-0.283507575,0.15576132
1764763277.905616,-3.63188,1.89224,0.8087799999999999,0.936704145,-0.283507575,0.15576132
1764763277.905616,-3.63188,1.89224,0.8087799999999999,0.936704145,-0.283507575,0.15576132
1764763277.952214,-3.76922,1.23606,1.61756,0.934995165,-0.28381275,0.15588339
1764763277.952214,-3.76922,1.23606,1.61756,0.934995165,-0.28381275,0.15588339
1764763277.952214,-3.76922,1.23606,1.61756,0.934995165,-0.28381275,0.15588339
1764763277.952214,-3.76922,1.23606,1.61756,0.934995165,-0.28381275,0.15588339
1764763277.952214,-3.76922,1.23606,1.61756,0.934995165,-0.28381275,0.15588339
1764763277.952214,-3.76922,1.23606,1.61756,0.934995165,-0.28381275,0.15588339
1764763277.952214,-3.76922,1.23606,1.61756,0.934995165,-0.28381275,0.15588339
1764763277.952214,-3.76922,1.23606,1.61756,0.934995165,-0.28381275,0.15588339
1764763277.952214,-3.76922,1.23606,1.61756,0.934995165,-0.28381275,0.15588339
1764763277.952214,-3.76922,1.23606,1.61756,0.934995165,-0.28381275,0.15588339
1764763277.952214,-3.78448,0.36624,2.04484,0.934384815,-0.284850345,0.15685995
1764763277.952214,-3.78448,0.36624,2.04484,0.934384815,-0.284850345,0.15685995
1764763277.952214,-3.78448,0.36624,2.04484,0.934384815,-0.284850345,0.15685995
1764763277.952214,-3.78448,0.36624,2.04484,0.934384815,-0.284850345,0.15685995
1764763277.952214,-3.78448,0.36624,2.04484,0.934384815,-0.284850345,0.15685995
1764763277.952214,-3.78448,0.36624,2.04484,0.934384815,-0.284850345,0.15685995
1764763277.952214,-3.78448,0.36624,2.04484,0.934384815,-0.284850345,0.15685995
1764763277.952214,-3.78448,0.36624,2.04484,0.934384815,-0.284850345,0.15685995
1764763277.952214,-3.78448,0.36624,2.04484,0.934384815,-0.284850345,0.15685995
1764763277.9537387,-3.78448,0.36624,2.04484,0.934384815,-0.284850345,0.15685995
1764763277.9537387,-3.61662,-0.21364,2.70102,0.934751025,-0.286193115,0.156676845
1764763277.9537387,-3.61662,-0.21364,2.70102,0.934751025,-0.286193115,0.156676845
1764763277.9537387,-3.61662,-0.21364,2.70102,0.934751025,-0.286193115,0.156676845
1764763277.9537387,-3.61662,-0.21364,2.70102,0.934751025,-0.286193115,0.156676845
1764763278.0031292,-3.61662,-0.21364,2.70102,0.934751025,-0.286193115,0.156676845
1764763278.0046685,-3.61662,-0.21364,2.70102,0.934751025,-0.286193115,0.156676845
1764763278.0046685,-3.61662,-0.21364,2.70102,0.934751025,-0.286193115,0.156676845
1764763278.0046685,-3.61662,-0.21364,2.70102,0.934751025,-0.286193115,0.156676845
1764763278.0046685,-3.61662,-0.21364,2.70102,0.934751025,-0.286193115,0.156676845
1764763278.0046685,-3.61662,-0.21364,2.70102,0.934751025,-0.286193115,0.156676845
1764763278.0046685,-3.99812,-0.19838,3.18934,0.936337935,-0.28710864,0.15600546
1764763278.0046685,-3.99812,-0.19838,3.18934,0.936337935,-0.28710864,0.15600546
1764763278.0046685,-3.99812,-0.19838,3.18934,0.936337935,-0.28710864,0.15600546
1764763278.0046685,-3.99812,-0.19838,3.18934,0.936337935,-0.28710864,0.15600546
1764763278.0046685,-3.99812,-0.19838,3.18934,0.936337935,-0.28710864,0.15600546
1764763278.0046685,-3.99812,-0.19838,3.18934,0.936337935,-0.28710864,0.15600546
1764763278.0046685,-3.99812,-0.19838,3.18934,0.936337935,-0.28710864,0.15600546
1764763278.0046685,-3.99812,-0.19838,3.18934,0.936337935,-0.28710864,0.15600546
1764763278.0046685,-3.99812,-0.19838,3.18934,0.936337935,-0.28710864,0.15600546
1764763278.0046685,-3.99812,-0.19838,3.18934,0.936337935,-0.28710864,0.15600546
1764763278.0046685,-4.28806,-0.0762999999999999,2.77732,0.936215865,-0.287291745,0.154479585
1764763278.0046685,-4.28806,-0.0762999999999999,2.77732,0.936215865,-0.287291745,0.154479585
1764763278.0046685,-4.28806,-0.0762999999999999,2.77732,0.936215865,-0.287291745,0.154479585
1764763278.0046685,-4.28806,-0.0762999999999999,2.77732,0.936215865,-0.287291745,0.154479585
1764763278.0046685,-4.28806,-0.0762999999999999,2.77732,0.936215865,-0.287291745,0.154479585
1764763278.0046685,-4.28806,-0.0762999999999999,2.77732,0.936215865,-0.287291745,0.154479585
1764763278.0473373,-4.28806,-0.0762999999999999,2.77732,0.936215865,-0.287291745,0.154479585
1764763278.0473373,-4.28806,-0.0762999999999999,2.77732,0.936215865,-0.287291745,0.154479585
1764763278.0473373,-4.28806,-0.0762999999999999,2.77732,0.936215865,-0.287291745,0.154479585
1764763278.0473373,-4.28806,-0.0762999999999999,2.77732,0.936215865,-0.287291745,0.154479585
1764763278.0483544,-4.33384,0.73248,3.1283,0.93798588,-0.29028246,0.15563925
1764763278.0483544,-4.33384,0.73248,3.1283,0.93798588,-0.29028246,0.15563925
1764763278.0483544,-4.33384,0.73248,3.1283,0.93798588,-0.29028246,0.15563925
1764763278.0483544,-4.33384,0.73248,3.1283,0.93798588,-0.29028246,0.15563925
1764763278.0483544,-4.33384,0.73248,3.1283,0.93798588,-0.29028246,0.15563925
1764763278.0483544,-4.33384,0.73248,3.1283,0.93798588,-0.29028246,0.15563925
1764763278.0483544,-4.33384,0.73248,3.1283,0.93798588,-0.29028246,0.15563925
1764763278.0483544,-4.33384,0.73248,3.1283,0.93798588,-0.29028246,0.15563925
1764763278.0493596,-4.33384,0.73248,3.1283,0.93798588,-0.29028246,0.15563925
1764763278.0493596,-4.33384,0.73248,3.1283,0.93798588,-0.29028246,0.15563925
1764763278.0493596,-4.08968,0.59514,2.8231,0.93554448,-0.291197985,0.154479585
1764763278.0498266,-4.08968,0.59514,2.8231,0.93554448,-0.291197985,0.154479585
1764763278.0498266,-4.08968,0.59514,2.8231,0.93554448,-0.291197985,0.154479585
1764763278.0498266,-4.08968,0.59514,2.8231,0.93554448,-0.291197985,0.154479585
1764763278.0498266,-4.08968,0.59514,2.8231,0.93554448,-0.291197985,0.154479585
1764763278.0498266,-4.08968,0.59514,2.8231,0.93554448,-0.291197985,0.154479585
1764763278.0498266,-4.08968,0.59514,2.8231,0.93554448,-0.291197985,0.154479585
1764763278.0498266,-4.08968,0.59514,2.8231,0.93554448,-0.291197985,0.154479585
1764763278.0498266,-4.08968,0.59514,2.8231,0.93554448,-0.291197985,0.154479585
1764763278.0498266,-4.08968,0.59514,2.8231,0.93554448,-0.291197985,0.154479585
1764763278.093315,-4.1965,0.13734,1.77016,0.934995165,-0.29089281,0.153503025
1764763278.093315,-4.1965,0.13734,1.77016,0.934995165,-0.29089281,0.153503025
1764763278.093315,-4.1965,0.13734,1.77016,0.934995165,-0.29089281,0.153503025
1764763278.093315,-4.1965,0.13734,1.77016,0.934995165,-0.29089281,0.153503025
1764763278.093315,-4.1965,0.13734,1.77016,0.934995165,-0.29089281,0.153503025
1764763278.093315,-4.1965,0.13734,1.77016,0.934995165,-0.29089281,0.153503025
1764763278.093315,-4.1965,0.13734,1.77016,0.934995165,-0.29089281,0.153503025
1764763278.093315,-4.1965,0.13734,1.77016,0.934995165,-0.29089281,0.153503025
1764763278.093315,-4.1965,0.13734,1.77016,0.934995165,-0.29089281,0.153503025
1764763278.093315,-4.1965,0.13734,1.77016,0.934995165,-0.29089281,0.153503025
1764763278.093315,-4.07442,0.7019599999999999,0.54936,0.936460005,-0.29064867,0.153869235
1764763278.093315,-4.07442,0.7019599999999999,0.54936,0.936460005,-0.29064867,0.153869235
1764763278.0943315,-4.07442,0.7019599999999999,0.54936,0.936460005,-0.29064867,0.153869235
1764763278.0943315,-4.07442,0.7019599999999999,0.54936,0.936460005,-0.29064867,0.153869235
1764763278.0943315,-4.07442,0.7019599999999999,0.54936,0.936460005,-0.29064867,0.153869235
1764763278.0943315,-4.07442,0.7019599999999999,0.54936,0.936460005,-0.29064867,0.153869235
1764763278.0943315,-4.07442,0.7019599999999999,0.54936,0.936460005,-0.29064867,0.153869235
1764763278.0943315,-4.07442,0.7019599999999999,0.54936,0.936460005,-0.29064867,0.153869235
1764763278.0943315,-4.07442,0.7019599999999999,0.54936,0.936460005,-0.29064867,0.153869235
1764763278.0943315,-4.07442,0.7019599999999999,0.54936,0.936460005,-0.29064867,0.153869235
1764763278.0943315,-4.22702,1.526,0.59514,0.935849655,-0.291686265,0.15356406
1764763278.0943315,-4.22702,1.526,0.59514,0.935849655,-0.291686265,0.15356406
1764763278.0943315,-4.22702,1.526,0.59514,0.935849655,-0.291686265,0.15356406
1764763278.0943315,-4.22702,1.526,0.59514,0.935849655,-0.291686265,0.15356406
1764763278.1418712,-4.22702,1.526,0.59514,0.935849655,-0.291686265,0.15356406
1764763278.1418712,-4.22702,1.526,0.59514,0.935849655,-0.291686265,0.15356406
1764763278.1418712,-4.22702,1.526,0.59514,0.935849655,-0.291686265,0.15356406
1764763278.1418712,-4.22702,1.526,0.59514,0.935849655,-0.291686265,0.15356406
1764763278.1418712,-4.22702,1.526,0.59514,0.935849655,-0.291686265,0.15356406
1764763278.1418712,-4.22702,1.526,0.59514,0.935849655,-0.291686265,0.15356406
1764763278.1418712,-4.5017,0.93086,0.62566,0.93420171,-0.291930405,0.15356406
1764763278.1418712,-4.5017,0.93086,0.62566,0.93420171,-0.291930405,0.15356406
1764763278.1418712,-4.5017,0.93086,0.62566,0.93420171,-0.291930405,0.15356406
1764763278.1418712,-4.5017,0.93086,0.62566,0.93420171,-0.291930405,0.15356406
1764763278.1418712,-4.5017,0.93086,0.62566,0.93420171,-0.291930405,0.15356406
1764763278.1418712,-4.5017,0.93086,0.62566,0.93420171,-0.291930405,0.15356406
1764763278.1418712,-4.5017,0.93086,0.62566,0.93420171,-0.291930405,0.15356406
1764763278.1418712,-4.5017,0.93086,0.62566,0.93420171,-0.291930405,0.15356406
1764763278.1434171,-4.5017,0.93086,0.62566,0.93420171,-0.291930405,0.15356406
1764763278.1434171,-4.5017,0.93086,0.62566,0.93420171,-0.291930405,0.15356406
1764763278.1434171,-4.10494,0.12208,0.9003399999999999,0.9338355,-0.292662825,0.153258885
1764763278.1434171,-4.10494,0.12208,0.9003399999999999,0.9338355,-0.292662825,0.153258885
1764763278.1434171,-4.10494,0.12208,0.9003399999999999,0.9338355,-0.292662825,0.153258885
1764763278.1434171,-4.10494,0.12208,0.9003399999999999,0.9338355,-0.292662825,0.153258885
1764763278.1434171,-4.10494,0.12208,0.9003399999999999,0.9338355,-0.292662825,0.153258885
1764763278.1434171,-4.10494,0.12208,0.9003399999999999,0.9338355,-0.292662825,0.153258885
1764763278.1434171,-4.10494,0.12208,0.9003399999999999,0.9338355,-0.292662825,0.153258885
1764763278.1434171,-4.10494,0.12208,0.9003399999999999,0.9338355,-0.292662825,0.153258885
1764763278.190343,-4.10494,0.12208,0.9003399999999999,0.9338355,-0.292662825,0.153258885
1764763278.190343,-4.10494,0.12208,0.9003399999999999,0.9338355,-0.292662825,0.153258885
1764763278.190343,-4.059159999999999,0.39676,0.65618,0.9338355,-0.293151105,0.153625095
1764763278.190343,-4.059159999999999,0.39676,0.65618,0.9338355,-0.293151105,0.153625095
1764763278.190343,-4.059159999999999,0.39676,0.65618,0.9338355,-0.293151105,0.153625095
1764763278.190343,-4.059159999999999,0.39676,0.65618,0.9338355,-0.293151105,0.153625095
1764763278.190343,-4.059159999999999,0.39676,0.65618,0.9338355,-0.293151105,0.153625095
1764763278.190343,-4.059159999999999,0.39676,0.65618,0.9338355,-0.293151105,0.153625095
1764763278.190343,-4.059159999999999,0.39676,0.65618,0.9338355,-0.293151105,0.153625095
1764763278.190343,-4.059159999999999,0.39676,0.65618,0.9338355,-0.293151105,0.153625095
1764763278.190343,-4.059159999999999,0.39676,0.65618,0.9338355,-0.293151105,0.153625095
1764763278.190343,-4.059159999999999,0.39676,0.65618,0.9338355,-0.293151105,0.153625095
1764763278.190343,-3.70818,0.57988,0.09156,0.93530034,-0.29235765,0.153014745
1764763278.190343,-3.70818,0.57988,0.09156,0.93530034,-0.29235765,0.153014745
1764763278.190343,-3.70818,0.57988,0.09156,0.93530034,-0.29235765,0.153014745
1764763278.190343,-3.70818,0.57988,0.09156,0.93530034,-0.29235765,0.153014745
1764763278.190343,-3.70818,0.57988,0.09156,0.93530034,-0.29235765,0.153014745
1764763278.190343,-3.70818,0.57988,0.09156,0.93530034,-0.29235765,0.153014745
1764763278.190343,-3.70818,0.57988,0.09156,0.93530034,-0.29235765,0.153014745
1764763278.190343,-3.70818,0.57988,0.09156,0.93530034,-0.29235765,0.153014745
1764763278.190343,-3.70818,0.57988,0.09156,0.93530034,-0.29235765,0.153014745
1764763278.190343,-3.70818,0.57988,0.09156,0.93530034,-0.29235765,0.153014745
1764763278.233802,-3.92182,0.94612,-0.19838,0.93566655,-0.290587635,0.1525875
1764763278.233802,-3.92182,0.94612,-0.19838,0.93566655,-0.290587635,0.1525875
1764763278.233802,-3.92182,0.94612,-0.19838,0.93566655,-0.290587635,0.1525875
1764763278.233802,-3.92182,0.94612,-0.19838,0.93566655,-0.290587635,0.1525875
1764763278.233802,-3.92182,0.94612,-0.19838,0.93566655,-0.290587635,0.1525875
1764763278.233802,-3.92182,0.94612,-0.19838,0.93566655,-0.290587635,0.1525875
1764763278.233802,-3.92182,0.94612,-0.19838,0.93566655,-0.290587635,0.1525875
1764763278.233802,-3.92182,0.94612,-0.19838,0.93566655,-0.290587635,0.1525875
1764763278.233802,-3.92182,0.94612,-0.19838,0.93566655,-0.290587635,0.1525875
1764763278.233802,-3.92182,0.94612,-0.19838,0.93566655,-0.290587635,0.1525875
1764763278.233802,-3.815,0.9156,0.3357199999999999,0.93603276,-0.29101488,0.152282325
1764763278.233802,-3.815,0.9156,0.3357199999999999,0.93603276,-0.29101488,0.152282325
1764763278.233802,-3.815,0.9156,0.3357199999999999,0.93603276,-0.29101488,0.152282325
1764763278.233802,-3.815,0.9156,0.3357199999999999,0.93603276,-0.29101488,0.152282325
1764763278.233802,-3.815,0.9156,0.3357199999999999,0.93603276,-0.29101488,0.152282325
1764763278.233802,-3.815,0.9156,0.3357199999999999,0.93603276,-0.29101488,0.152282325
1764763278.233802,-3.815,0.9156,0.3357199999999999,0.93603276,-0.29101488,0.152282325
1764763278.233802,-3.815,0.9156,0.3357199999999999,0.93603276,-0.29101488,0.152282325
1764763278.233802,-3.815,0.9156,0.3357199999999999,0.93603276,-0.29101488,0.152282325
1764763278.235042,-3.815,0.9156,0.3357199999999999,0.93603276,-0.29101488,0.152282325
1764763278.235042,-3.69292,1.23606,0.6867,0.93713139,-0.290221425,0.15209922
1764763278.235042,-3.69292,1.23606,0.6867,0.93713139,-0.290221425,0.15209922
1764763278.2809796,-3.69292,1.23606,0.6867,0.93713139,-0.290221425,0.15209922
1764763278.2809796,-3.69292,1.23606,0.6867,0.93713139,-0.290221425,0.15209922
1764763278.2809796,-3.69292,1.23606,0.6867,0.93713139,-0.290221425,0.15209922
1764763278.2809796,-3.69292,1.23606,0.6867,0.93713139,-0.290221425,0.15209922
1764763278.2809796,-3.69292,1.23606,0.6867,0.93713139,-0.290221425,0.15209922
1764763278.2809796,-3.69292,1.23606,0.6867,0.93713139,-0.290221425,0.15209922
1764763278.2809796,-3.69292,1.23606,0.6867,0.93713139,-0.290221425,0.15209922
1764763278.2809796,-3.69292,1.23606,0.6867,0.93713139,-0.290221425,0.15209922
1764763278.2819989,-3.69292,0.94612,1.05294,0.935849655,-0.289733145,0.152038185
1764763278.2819989,-3.69292,0.94612,1.05294,0.935849655,-0.289733145,0.152038185
1764763278.2819989,-3.69292,0.94612,1.05294,0.935849655,-0.289733145,0.152038185
1764763278.2819989,-3.69292,0.94612,1.05294,0.935849655,-0.289733145,0.152038185
1764763278.2819989,-3.69292,0.94612,1.05294,0.935849655,-0.289733145,0.152038185
1764763278.2819989,-3.69292,0.94612,1.05294,0.935849655,-0.289733145,0.152038185
1764763278.2819989,-3.69292,0.94612,1.05294,0.935849655,-0.289733145,0.152038185
1764763278.2829928,-3.69292,0.94612,1.05294,0.935849655,-0.289733145,0.152038185
1764763278.2829928,-3.69292,0.94612,1.05294,0.935849655,-0.289733145,0.152038185
1764763278.2829928,-3.69292,0.94612,1.05294,0.935849655,-0.289733145,0.152038185
1764763278.2829928,-3.47928,0.48832,0.82404,0.9362769,-0.289855215,0.152404395
1764763278.2829928,-3.47928,0.48832,0.82404,0.9362769,-0.289855215,0.152404395
1764763278.2829928,-3.47928,0.48832,0.82404,0.9362769,-0.289855215,0.152404395
1764763278.2829928,-3.47928,0.48832,0.82404,0.9362769,-0.289855215,0.152404395
1764763278.2829928,-3.47928,0.48832,0.82404,0.9362769,-0.289855215,0.152404395
1764763278.2829928,-3.47928,0.48832,0.82404,0.9362769,-0.289855215,0.152404395
1764763278.3305886,-3.47928,0.48832,0.82404,0.9362769,-0.289855215,0.152404395
1764763278.3305886,-3.47928,0.48832,0.82404,0.9362769,-0.289855215,0.152404395
1764763278.3305886,-3.47928,0.48832,0.82404,0.9362769,-0.289855215,0.152404395
1764763278.3305886,-3.47928,0.48832,0.82404,0.9362769,-0.289855215,0.152404395
1764763278.3305886,-2.80784,1.57178,0.9919,0.937070355,-0.289977285,0.152282325
1764763278.3305886,-2.80784,1.57178,0.9919,0.937070355,-0.289977285,0.152282325
1764763278.3305886,-2.80784,1.57178,0.9919,0.937070355,-0.289977285,0.152282325
1764763278.3305886,-2.80784,1.57178,0.9919,0.937070355,-0.289977285,0.152282325
1764763278.3305886,-2.80784,1.57178,0.9919,0.937070355,-0.289977285,0.152282325
1764763278.3305886,-2.80784,1.57178,0.9919,0.937070355,-0.289977285,0.152282325
1764763278.3305886,-2.80784,1.57178,0.9919,0.937070355,-0.289977285,0.152282325
1764763278.3305886,-2.80784,1.57178,0.9919,0.937070355,-0.289977285,0.152282325
1764763278.3305886,-2.80784,1.57178,0.9919,0.937070355,-0.289977285,0.152282325
1764763278.3305886,-2.80784,1.57178,0.9919,0.937070355,-0.289977285,0.152282325
1764763278.3305886,-2.41108,2.19744,1.19028,0.93615483,-0.291075915,0.15270957
1764763278.3305886,-2.41108,2.19744,1.19028,0.93615483,-0.291075915,0.15270957
1764763278.3305886,-2.41108,2.19744,1.19028,0.93615483,-0.291075915,0.15270957
1764763278.3305886,-2.41108,2.19744,1.19028,0.93615483,-0.291075915,0.15270957
1764763278.3305886,-2.41108,2.19744,1.19028,0.93615483,-0.291075915,0.15270957
1764763278.3305886,-2.41108,2.19744,1.19028,0.93615483,-0.291075915,0.15270957
1764763278.3305886,-2.41108,2.19744,1.19028,0.93615483,-0.291075915,0.15270957
1764763278.3305886,-2.41108,2.19744,1.19028,0.93615483,-0.291075915,0.15270957
1764763278.3305886,-2.41108,2.19744,1.19028,0.93615483,-0.291075915,0.15270957
1764763278.3305886,-2.41108,2.19744,1.19028,0.93615483,-0.291075915,0.15270957
1764763278.37688,-2.33478,1.61756,1.09872,0.935361375,-0.290343495,0.15246543
1764763278.37688,-2.33478,1.61756,1.09872,0.935361375,-0.290343495,0.15246543
1764763278.3781133,-2.33478,1.61756,1.09872,0.935361375,-0.290343495,0.15246543
1764763278.3781133,-2.33478,1.61756,1.09872,0.935361375,-0.290343495,0.15246543
1764763278.3781133,-2.33478,1.61756,1.09872,0.935361375,-0.290343495,0.15246543
1764763278.3781133,-2.33478,1.61756,1.09872,0.935361375,-0.290343495,0.15246543
1764763278.3781133,-2.33478,1.61756,1.09872,0.935361375,-0.290343495,0.15246543
1764763278.3781133,-2.33478,1.61756,1.09872,0.935361375,-0.290343495,0.15246543
1764763278.3781133,-2.33478,1.61756,1.09872,0.935361375,-0.290343495,0.15246543
1764763278.3781133,-2.33478,1.61756,1.09872,0.935361375,-0.290343495,0.15246543
1764763278.3781133,-1.6633399999999998,1.23606,0.94612,0.935849655,-0.291075915,0.152526465
1764763278.3781133,-1.6633399999999998,1.23606,0.94612,0.935849655,-0.291075915,0.152526465
1764763278.3781133,-1.6633399999999998,1.23606,0.94612,0.935849655,-0.291075915,0.152526465
1764763278.3781133,-1.6633399999999998,1.23606,0.94612,0.935849655,-0.291075915,0.152526465
1764763278.3781133,-1.6633399999999998,1.23606,0.94612,0.935849655,-0.291075915,0.152526465
1764763278.3781133,-1.6633399999999998,1.23606,0.94612,0.935849655,-0.291075915,0.152526465
1764763278.3781133,-1.6633399999999998,1.23606,0.94612,0.935849655,-0.291075915,0.152526465
1764763278.3781133,-1.6633399999999998,1.23606,0.94612,0.935849655,-0.291075915,0.152526465
1764763278.379109,-1.6633399999999998,1.23606,0.94612,0.935849655,-0.291075915,0.152526465
1764763278.379109,-1.6633399999999998,1.23606,0.94612,0.935849655,-0.291075915,0.152526465
1764763278.379109,-2.24322,1.08346,0.19838,0.93725346,-0.288878655,0.153136815
1764763278.379109,-2.24322,1.08346,0.19838,0.93725346,-0.288878655,0.153136815
1764763278.379109,-2.24322,1.08346,0.19838,0.93725346,-0.288878655,0.153136815
1764763278.379109,-2.24322,1.08346,0.19838,0.93725346,-0.288878655,0.153136815
1764763278.42197,-2.24322,1.08346,0.19838,0.93725346,-0.288878655,0.153136815
1764763278.42197,-2.24322,1.08346,0.19838,0.93725346,-0.288878655,0.153136815
1764763278.42197,-2.24322,1.08346,0.19838,0.93725346,-0.288878655,0.153136815
1764763278.42197,-2.24322,1.08346,0.19838,0.93725346,-0.288878655,0.153136815
1764763278.42197,-2.24322,1.08346,0.19838,0.93725346,-0.288878655,0.153136815
1764763278.42197,-2.24322,1.08346,0.19838,0.93725346,-0.288878655,0.153136815
1764763278.42197,-2.63998,2.04484,0.01526,0.93859623,-0.28759692,0.15441855
1764763278.42197,-2.63998,2.04484,0.01526,0.93859623,-0.28759692,0.15441855
1764763278.42197,-2.63998,2.04484,0.01526,0.93859623,-0.28759692,0.15441855
1764763278.42197,-2.63998,2.04484,0.01526,0.93859623,-0.28759692,0.15441855
1764763278.42197,-2.63998,2.04484,0.01526,0.93859623,-0.28759692,0.15441855
1764763278.42197,-2.63998,2.04484,0.01526,0.93859623,-0.28759692,0.15441855
1764763278.42197,-2.63998,2.04484,0.01526,0.93859623,-0.28759692,0.15441855
1764763278.42197,-2.63998,2.04484,0.01526,0.93859623,-0.28759692,0.15441855
1764763278.42197,-2.63998,2.04484,0.01526,0.93859623,-0.28759692,0.15441855
1764763278.42197,-2.63998,2.04484,0.01526,0.93859623,-0.28759692,0.15441855
1764763278.42197,-2.91466,2.54842,-0.1678599999999999,0.937924845,-0.28637622,0.155334075
1764763278.42197,-2.91466,2.54842,-0.1678599999999999,0.937924845,-0.28637622,0.155334075
1764763278.42197,-2.91466,2.54842,-0.1678599999999999,0.937924845,-0.28637622,0.155334075
1764763278.42197,-2.91466,2.54842,-0.1678599999999999,0.937924845,-0.28637622,0.155334075
1764763278.42197,-2.91466,2.54842,-0.1678599999999999,0.937924845,-0.28637622,0.155334075
1764763278.42197,-2.91466,2.54842,-0.1678599999999999,0.937924845,-0.28637622,0.155334075
1764763278.468462,-2.91466,2.54842,-0.1678599999999999,0.937924845,-0.28637622,0.155334075
1764763278.468462,-2.91466,2.54842,-0.1678599999999999,0.937924845,-0.28637622,0.155334075
1764763278.468462,-2.91466,2.54842,-0.1678599999999999,0.937924845,-0.28637622,0.155334075
1764763278.468462,-2.91466,2.54842,-0.1678599999999999,0.937924845,-0.28637622,0.155334075
1764763278.468462,-3.52506,1.92276,0.3357199999999999,0.935239305,-0.286315185,0.155944425
1764763278.468462,-3.52506,1.92276,0.3357199999999999,0.935239305,-0.286315185,0.155944425
1764763278.468462,-3.52506,1.92276,0.3357199999999999,0.935239305,-0.286315185,0.155944425
1764763278.4694731,-3.52506,1.92276,0.3357199999999999,0.935239305,-0.286315185,0.155944425
1764763278.4694731,-3.52506,1.92276,0.3357199999999999,0.935239305,-0.286315185,0.155944425
1764763278.4694731,-3.52506,1.92276,0.3357199999999999,0.935239305,-0.286315185,0.155944425
1764763278.4694731,-3.52506,1.92276,0.3357199999999999,0.935239305,-0.286315185,0.155944425
1764763278.4694731,-3.52506,1.92276,0.3357199999999999,0.935239305,-0.286315185,0.155944425
1764763278.4694731,-3.52506,1.92276,0.3357199999999999,0.935239305,-0.286315185,0.155944425
1764763278.4694731,-3.52506,1.92276,0.3357199999999999,0.935239305,-0.286315185,0.155944425
1764763278.4694731,-3.98286,0.9003399999999999,1.32762,0.93273687,-0.28759692,0.156188565
1764763278.4694731,-3.98286,0.9003399999999999,1.32762,0.93273687,-0.28759692,0.156188565
1764763278.4694731,-3.98286,0.9003399999999999,1.32762,0.93273687,-0.28759692,0.156188565
1764763278.4694731,-3.98286,0.9003399999999999,1.32762,0.93273687,-0.28759692,0.156188565
1764763278.4694731,-3.98286,0.9003399999999999,1.32762,0.93273687,-0.28759692,0.156188565
1764763278.4694731,-3.98286,0.9003399999999999,1.32762,0.93273687,-0.28759692,0.156188565
1764763278.4694731,-3.98286,0.9003399999999999,1.32762,0.93273687,-0.28759692,0.156188565
1764763278.4694731,-3.98286,0.9003399999999999,1.32762,0.93273687,-0.28759692,0.156188565
1764763278.4694731,-3.98286,0.9003399999999999,1.32762,0.93273687,-0.28759692,0.156188565
1764763278.4694731,-3.98286,0.9003399999999999,1.32762,0.93273687,-0.28759692,0.156188565
1764763278.5160222,-3.32668,0.3051999999999999,1.31236,0.93285894,-0.288512445,0.15722616
1764763278.5160222,-3.32668,0.3051999999999999,1.31236,0.93285894,-0.288512445,0.15722616
1764763278.5160222,-3.32668,0.3051999999999999,1.31236,0.93285894,-0.288512445,0.15722616
1764763278.5160222,-3.32668,0.3051999999999999,1.31236,0.93285894,-0.288512445,0.15722616
1764763278.5160222,-3.32668,0.3051999999999999,1.31236,0.93285894,-0.288512445,0.15722616
1764763278.5160222,-3.32668,0.3051999999999999,1.31236,0.93285894,-0.288512445,0.15722616
1764763278.5160222,-3.32668,0.3051999999999999,1.31236,0.93285894,-0.288512445,0.15722616
1764763278.5160222,-3.32668,0.3051999999999999,1.31236,0.93285894,-0.288512445,0.15722616
1764763278.5160222,-3.32668,0.3051999999999999,1.31236,0.93285894,-0.288512445,0.15722616
1764763278.5160222,-3.32668,0.3051999999999999,1.31236,0.93285894,-0.288512445,0.15722616
1764763278.5160222,-3.38772,0.0762999999999999,1.46496,0.93456792,-0.289733145,0.157409265
1764763278.5160222,-3.38772,0.0762999999999999,1.46496,0.93456792,-0.289733145,0.157409265
1764763278.5160222,-3.38772,0.0762999999999999,1.46496,0.93456792,-0.289733145,0.157409265
1764763278.5160222,-3.38772,0.0762999999999999,1.46496,0.93456792,-0.289733145,0.157409265
1764763278.5160222,-3.38772,0.0762999999999999,1.46496,0.93456792,-0.289733145,0.157409265
1764763278.5160222,-3.38772,0.0762999999999999,1.46496,0.93456792,-0.289733145,0.157409265
1764763278.5160222,-3.38772,0.0762999999999999,1.46496,0.93456792,-0.289733145,0.157409265
1764763278.5160222,-3.38772,0.0762999999999999,1.46496,0.93456792,-0.289733145,0.157409265
1764763278.5160222,-3.38772,0.0762999999999999,1.46496,0.93456792,-0.289733145,0.157409265
1764763278.5160222,-3.38772,0.0762999999999999,1.46496,0.93456792,-0.289733145,0.157409265
1764763278.5160222,-3.23512,0.3357199999999999,1.35814,0.936704145,-0.289122795,0.15600546
1764763278.5160222,-3.23512,0.3357199999999999,1.35814,0.936704145,-0.289122795,0.15600546
1764763278.5160222,-3.23512,0.3357199999999999,1.35814,0.936704145,-0.289122795,0.15600546
1764763278.5160222,-3.23512,0.3357199999999999,1.35814,0.936704145,-0.289122795,0.15600546
1764763278.5619671,-3.23512,0.3357199999999999,1.35814,0.936704145,-0.289122795,0.15600546
1764763278.5619671,-3.23512,0.3357199999999999,1.35814,0.936704145,-0.289122795,0.15600546
1764763278.5619671,-3.23512,0.3357199999999999,1.35814,0.936704145,-0.289122795,0.15600546
1764763278.5619671,-3.23512,0.3357199999999999,1.35814,0.936704145,-0.289122795,0.15600546
1764763278.5619671,-3.23512,0.3357199999999999,1.35814,0.936704145,-0.289122795,0.15600546
1764763278.5619671,-3.23512,0.3357199999999999,1.35814,0.936704145,-0.289122795,0.15600546
1764763278.5619671,-3.41824,0.9003399999999999,1.3734,0.936093795,-0.28979418,0.15539511
1764763278.5619671,-3.41824,0.9003399999999999,1.3734,0.936093795,-0.28979418,0.15539511
1764763278.5619671,-3.41824,0.9003399999999999,1.3734,0.936093795,-0.28979418,0.15539511
1764763278.5619671,-3.41824,0.9003399999999999,1.3734,0.936093795,-0.28979418,0.15539511
1764763278.5619671,-3.41824,0.9003399999999999,1.3734,0.936093795,-0.28979418,0.15539511
1764763278.5619671,-3.41824,0.9003399999999999,1.3734,0.936093795,-0.28979418,0.15539511
1764763278.5619671,-3.41824,0.9003399999999999,1.3734,0.936093795,-0.28979418,0.15539511
1764763278.5619671,-3.41824,0.9003399999999999,1.3734,0.936093795,-0.28979418,0.15539511
1764763278.5619671,-3.41824,0.9003399999999999,1.3734,0.936093795,-0.28979418,0.15539511
1764763278.5619671,-3.41824,0.9003399999999999,1.3734,0.936093795,-0.28979418,0.15539511
1764763278.5619671,-3.08252,1.0682,1.6786,0.93676518,-0.292174545,0.15563925
1764763278.5619671,-3.08252,1.0682,1.6786,0.93676518,-0.292174545,0.15563925
1764763278.5619671,-3.08252,1.0682,1.6786,0.93676518,-0.292174545,0.15563925
1764763278.5619671,-3.08252,1.0682,1.6786,0.93676518,-0.292174545,0.15563925
1764763278.5619671,-3.08252,1.0682,1.6786,0.93676518,-0.292174545,0.15563925
1764763278.563006,-3.08252,1.0682,1.6786,0.93676518,-0.292174545,0.15563925
1764763278.563006,-3.08252,1.0682,1.6786,0.93676518,-0.292174545,0.15563925
1764763278.563006,-3.08252,1.0682,1.6786,0.93676518,-0.292174545,0.15563925
1764763278.6099768,-3.08252,1.0682,1.6786,0.93676518,-0.292174545,0.15563925
1764763278.6099768,-3.08252,1.0682,1.6786,0.93676518,-0.292174545,0.15563925
1764763278.6099768,-3.55558,0.51884,1.15976,0.935361375,-0.290587635,0.15563925
1764763278.6099768,-3.55558,0.51884,1.15976,0.935361375,-0.290587635,0.15563925
1764763278.6099768,-3.55558,0.51884,1.15976,0.935361375,-0.290587635,0.15563925
1764763278.6099768,-3.55558,0.51884,1.15976,0.935361375,-0.290587635,0.15563925
1764763278.6099768,-3.55558,0.51884,1.15976,0.935361375,-0.290587635,0.15563925
1764763278.6099768,-3.55558,0.51884,1.15976,0.935361375,-0.290587635,0.15563925
1764763278.6110108,-3.55558,0.51884,1.15976,0.935361375,-0.290587635,0.15563925
1764763278.6110108,-3.55558,0.51884,1.15976,0.935361375,-0.290587635,0.15563925
1764763278.6110108,-3.55558,0.51884,1.15976,0.935361375,-0.290587635,0.15563925
1764763278.6110108,-3.55558,0.51884,1.15976,0.935361375,-0.290587635,0.15563925
1764763278.6110108,-3.815,0.6409199999999999,1.08346,0.934751025,-0.290343495,0.155089935
1764763278.6110108,-3.815,0.6409199999999999,1.08346,0.934751025,-0.290343495,0.155089935
1764763278.6110108,-3.815,0.6409199999999999,1.08346,0.934751025,-0.290343495,0.155089935
1764763278.6110108,-3.815,0.6409199999999999,1.08346,0.934751025,-0.290343495,0.155089935
1764763278.6110108,-3.815,0.6409199999999999,1.08346,0.934751025,-0.290343495,0.155089935
1764763278.6110108,-3.815,0.6409199999999999,1.08346,0.934751025,-0.290343495,0.155089935
1764763278.6110108,-3.815,0.6409199999999999,1.08346,0.934751025,-0.290343495,0.155089935
1764763278.6110108,-3.815,0.6409199999999999,1.08346,0.934751025,-0.290343495,0.155089935
1764763278.6110108,-3.815,0.6409199999999999,1.08346,0.934751025,-0.290343495,0.155089935
1764763278.6110108,-3.815,0.6409199999999999,1.08346,0.934751025,-0.290343495,0.155089935
1764763278.6548011,-3.3572,0.74774,0.93086,0.934751025,-0.29089281,0.15417441
1764763278.6548011,-3.3572,0.74774,0.93086,0.934751025,-0.29089281,0.15417441
1764763278.6548011,-3.3572,0.74774,0.93086,0.934751025,-0.29089281,0.15417441
1764763278.6548011,-3.3572,0.74774,0.93086,0.934751025,-0.29089281,0.15417441
1764763278.6548011,-3.3572,0.74774,0.93086,0.934751025,-0.29089281,0.15417441
1764763278.6548011,-3.3572,0.74774,0.93086,0.934751025,-0.29089281,0.15417441
1764763278.6548011,-3.3572,0.74774,0.93086,0.934751025,-0.29089281,0.15417441
1764763278.6548011,-3.3572,0.74774,0.93086,0.934751025,-0.29089281,0.15417441
1764763278.6548011,-3.3572,0.74774,0.93086,0.934751025,-0.29089281,0.15417441
1764763278.6548011,-3.3572,0.74774,0.93086,0.934751025,-0.29089281,0.15417441
1764763278.6548011,-3.47928,1.35814,0.73248,0.93456792,-0.291197985,0.15417441
1764763278.6548011,-3.47928,1.35814,0.73248,0.93456792,-0.291197985,0.15417441
1764763278.6548011,-3.47928,1.35814,0.73248,0.93456792,-0.291197985,0.15417441
1764763278.6548011,-3.47928,1.35814,0.73248,0.93456792,-0.291197985,0.15417441
1764763278.6548011,-3.47928,1.35814,0.73248,0.93456792,-0.291197985,0.15417441
1764763278.655312,-3.47928,1.35814,0.73248,0.93456792,-0.291197985,0.15417441
1764763278.655312,-3.47928,1.35814,0.73248,0.93456792,-0.291197985,0.15417441
1764763278.655312,-3.47928,1.35814,0.73248,0.93456792,-0.291197985,0.15417441
1764763278.655312,-3.47928,1.35814,0.73248,0.93456792,-0.291197985,0.15417441
1764763278.655312,-3.47928,1.35814,0.73248,0.93456792,-0.291197985,0.15417441
1764763278.655312,-3.92182,1.08346,0.6714399999999999,0.935117235,-0.29077074,0.153869235
1764763278.655312,-3.92182,1.08346,0.6714399999999999,0.935117235,-0.29077074,0.153869235
1764763278.655312,-3.92182,1.08346,0.6714399999999999,0.935117235,-0.29077074,0.153869235
1764763278.655312,-3.92182,1.08346,0.6714399999999999,0.935117235,-0.29077074,0.153869235
1764763278.7014143,-3.92182,1.08346,0.6714399999999999,0.935117235,-0.29077074,0.153869235
1764763278.7024324,-3.92182,1.08346,0.6714399999999999,0.935117235,-0.29077074,0.153869235
1764763278.7024324,-3.92182,1.08346,0.6714399999999999,0.935117235,-0.29077074,0.153869235
1764763278.7024324,-3.92182,1.08346,0.6714399999999999,0.935117235,-0.29077074,0.153869235
1764763278.7024324,-3.92182,1.08346,0.6714399999999999,0.935117235,-0.29077074,0.153869235
1764763278.7024324,-3.92182,1.08346,0.6714399999999999,0.935117235,-0.29077074,0.153869235
1764763278.7024324,-3.47928,0.8698199999999999,0.57988,0.93456792,-0.290587635,0.15368613
1764763278.7024324,-3.47928,0.8698199999999999,0.57988,0.93456792,-0.290587635,0.15368613
1764763278.7024324,-3.47928,0.8698199999999999,0.57988,0.93456792,-0.290587635,0.15368613
1764763278.7024324,-3.47928,0.8698199999999999,0.57988,0.93456792,-0.290587635,0.15368613
1764763278.7024324,-3.47928,0.8698199999999999,0.57988,0.93456792,-0.290587635,0.15368613
1764763278.703431,-3.47928,0.8698199999999999,0.57988,0.93456792,-0.290587635,0.15368613
1764763278.703431,-3.47928,0.8698199999999999,0.57988,0.93456792,-0.290587635,0.15368613
1764763278.703431,-3.47928,0.8698199999999999,0.57988,0.93456792,-0.290587635,0.15368613
1764763278.703431,-3.47928,0.8698199999999999,0.57988,0.93456792,-0.290587635,0.15368613
1764763278.703431,-3.47928,0.8698199999999999,0.57988,0.93456792,-0.290587635,0.15368613
1764763278.703431,-3.47928,1.11398,0.5341,0.93542241,-0.291197985,0.15417441
1764763278.703431,-3.47928,1.11398,0.5341,0.93542241,-0.291197985,0.15417441
1764763278.703431,-3.47928,1.11398,0.5341,0.93542241,-0.291197985,0.15417441
1764763278.703431,-3.47928,1.11398,0.5341,0.93542241,-0.291197985,0.15417441
1764763278.703431,-3.47928,1.11398,0.5341,0.93542241,-0.291197985,0.15417441
1764763278.703431,-3.47928,1.11398,0.5341,0.93542241,-0.291197985,0.15417441
1764763278.750721,-3.47928,1.11398,0.5341,0.93542241,-0.291197985,0.15417441
1764763278.750721,-3.47928,1.11398,0.5341,0.93542241,-0.291197985,0.15417441
1764763278.750721,-3.47928,1.11398,0.5341,0.93542241,-0.291197985,0.15417441
1764763278.750721,-3.47928,1.11398,0.5341,0.93542241,-0.291197985,0.15417441
1764763278.750721,-3.31142,0.74774,0.3815,0.934873095,-0.29101488,0.154601655
1764763278.750721,-3.31142,0.74774,0.3815,0.934873095,-0.29101488,0.154601655
1764763278.750721,-3.31142,0.74774,0.3815,0.934873095,-0.29101488,0.154601655
1764763278.750721,-3.31142,0.74774,0.3815,0.934873095,-0.29101488,0.154601655
1764763278.7519207,-3.31142,0.74774,0.3815,0.934873095,-0.29101488,0.154601655
1764763278.7519207,-3.31142,0.74774,0.3815,0.934873095,-0.29101488,0.154601655
1764763278.7519207,-3.31142,0.74774,0.3815,0.934873095,-0.29101488,0.154601655
1764763278.7519207,-3.31142,0.74774,0.3815,0.934873095,-0.29101488,0.154601655
1764763278.7519207,-3.31142,0.74774,0.3815,0.934873095,-0.29101488,0.154601655
1764763278.7519207,-3.31142,0.74774,0.3815,0.934873095,-0.29101488,0.154601655
1764763278.7519207,-3.37246,0.74774,0.3509799999999999,0.93554448,-0.29077074,0.15478476
1764763278.7519207,-3.37246,0.74774,0.3509799999999999,0.93554448,-0.29077074,0.15478476
1764763278.7519207,-3.37246,0.74774,0.3509799999999999,0.93554448,-0.29077074,0.15478476
1764763278.7524254,-3.37246,0.74774,0.3509799999999999,0.93554448,-0.29077074,0.15478476
1764763278.7524254,-3.37246,0.74774,0.3509799999999999,0.93554448,-0.29077074,0.15478476
1764763278.7524254,-3.37246,0.74774,0.3509799999999999,0.93554448,-0.29077074,0.15478476
1764763278.7524254,-3.37246,0.74774,0.3509799999999999,0.93554448,-0.29077074,0.15478476
1764763278.7524254,-3.37246,0.74774,0.3509799999999999,0.93554448,-0.29077074,0.15478476
1764763278.7524254,-3.37246,0.74774,0.3509799999999999,0.93554448,-0.29077074,0.15478476
1764763278.7527394,-3.37246,0.74774,0.3509799999999999,0.93554448,-0.29077074,0.15478476
1764763278.79627,-3.72344,0.96138,0.39676,0.93615483,-0.29003832,0.154723725
1764763278.79627,-3.72344,0.96138,0.39676,0.93615483,-0.29003832,0.154723725
1764763278.79627,-3.72344,0.96138,0.39676,0.93615483,-0.29003832,0.154723725
1764763278.79627,-3.72344,0.96138,0.39676,0.93615483,-0.29003832,0.154723725
1764763278.79627,-3.72344,0.96138,0.39676,0.93615483,-0.29003832,0.154723725
1764763278.79627,-3.72344,0.96138,0.39676,0.93615483,-0.29003832,0.154723725
1764763278.79627,-3.72344,0.96138,0.39676,0.93615483,-0.29003832,0.154723725
1764763278.79627,-3.72344,0.96138,0.39676,0.93615483,-0.29003832,0.154723725
1764763278.79627,-3.72344,0.96138,0.39676,0.93615483,-0.29003832,0.154723725
1764763278.79627,-3.72344,0.96138,0.39676,0.93615483,-0.29003832,0.154723725
1764763278.79627,-4.2728,0.93086,0.7019599999999999,0.93554448,-0.289244865,0.1538082
1764763278.79627,-4.2728,0.93086,0.7019599999999999,0.93554448,-0.289244865,0.1538082
1764763278.79627,-4.2728,0.93086,0.7019599999999999,0.93554448,-0.289244865,0.1538082
1764763278.79627,-4.2728,0.93086,0.7019599999999999,0.93554448,-0.289244865,0.1538082
1764763278.79627,-4.2728,0.93086,0.7019599999999999,0.93554448,-0.289244865,0.1538082
1764763278.79627,-4.2728,0.93086,0.7019599999999999,0.93554448,-0.289244865,0.1538082
1764763278.79627,-4.2728,0.93086,0.7019599999999999,0.93554448,-0.289244865,0.1538082
1764763278.79627,-4.2728,0.93086,0.7019599999999999,0.93554448,-0.289244865,0.1538082
1764763278.79627,-4.2728,0.93086,0.7019599999999999,0.93554448,-0.289244865,0.1538082
1764763278.79627,-4.2728,0.93086,0.7019599999999999,0.93554448,-0.289244865,0.1538082
1764763278.79627,-4.33384,0.9156,0.77826,0.934995165,-0.288634515,0.153625095
1764763278.79627,-4.33384,0.9156,0.77826,0.934995165,-0.288634515,0.153625095
1764763278.7972684,-4.33384,0.9156,0.77826,0.934995165,-0.288634515,0.153625095
1764763278.7972684,-4.33384,0.9156,0.77826,0.934995165,-0.288634515,0.153625095
1764763278.841345,-4.33384,0.9156,0.77826,0.934995165,-0.288634515,0.153625095
1764763278.841345,-4.33384,0.9156,0.77826,0.934995165,-0.288634515,0.153625095
1764763278.841345,-4.33384,0.9156,0.77826,0.934995165,-0.288634515,0.153625095
1764763278.841345,-4.33384,0.9156,0.77826,0.934995165,-0.288634515,0.153625095
1764763278.841345,-4.33384,0.9156,0.77826,0.934995165,-0.288634515,0.153625095
1764763278.841345,-4.33384,0.9156,0.77826,0.934995165,-0.288634515,0.153625095
1764763278.841345,-4.2728,1.17502,-0.12208,0.93578862,-0.28967211,0.153380955
1764763278.841345,-4.2728,1.17502,-0.12208,0.93578862,-0.28967211,0.153380955
1764763278.841345,-4.2728,1.17502,-0.12208,0.93578862,-0.28967211,0.153380955
1764763278.841345,-4.2728,1.17502,-0.12208,0.93578862,-0.28967211,0.153380955
1764763278.841345,-4.2728,1.17502,-0.12208,0.93578862,-0.28967211,0.153380955
1764763278.841345,-4.2728,1.17502,-0.12208,0.93578862,-0.28967211,0.153380955
1764763278.841345,-4.2728,1.17502,-0.12208,0.93578862,-0.28967211,0.153380955
1764763278.841345,-4.2728,1.17502,-0.12208,0.93578862,-0.28967211,0.153380955
1764763278.841345,-4.2728,1.17502,-0.12208,0.93578862,-0.28967211,0.153380955
1764763278.841345,-4.2728,1.17502,-0.12208,0.93578862,-0.28967211,0.153380955
1764763278.841345,-3.3572,1.31236,0.2289,0.936826215,-0.290221425,0.154235445
1764763278.841345,-3.3572,1.31236,0.2289,0.936826215,-0.290221425,0.154235445
1764763278.842884,-3.3572,1.31236,0.2289,0.936826215,-0.290221425,0.154235445
1764763278.842884,-3.3572,1.31236,0.2289,0.936826215,-0.290221425,0.154235445
1764763278.842884,-3.3572,1.31236,0.2289,0.936826215,-0.290221425,0.154235445
1764763278.842884,-3.3572,1.31236,0.2289,0.936826215,-0.290221425,0.154235445
1764763278.8889458,-3.3572,1.31236,0.2289,0.936826215,-0.290221425,0.154235445
1764763278.8889458,-3.3572,1.31236,0.2289,0.936826215,-0.290221425,0.154235445
1764763278.8889458,-3.3572,1.31236,0.2289,0.936826215,-0.290221425,0.154235445
1764763278.8889458,-3.3572,1.31236,0.2289,0.936826215,-0.290221425,0.154235445
1764763278.8889458,-2.70102,1.54126,0.763,0.93493413,-0.29077074,0.153991305
1764763278.8889458,-2.70102,1.54126,0.763,0.93493413,-0.29077074,0.153991305
1764763278.8889458,-2.70102,1.54126,0.763,0.93493413,-0.29077074,0.153991305
1764763278.8889458,-2.70102,1.54126,0.763,0.93493413,-0.29077074,0.153991305
1764763278.8889458,-2.70102,1.54126,0.763,0.93493413,-0.29077074,0.153991305
1764763278.8889458,-2.70102,1.54126,0.763,0.93493413,-0.29077074,0.153991305
1764763278.8889458,-2.70102,1.54126,0.763,0.93493413,-0.29077074,0.153991305
1764763278.8889458,-2.70102,1.54126,0.763,0.93493413,-0.29077074,0.153991305
1764763278.8889458,-2.70102,1.54126,0.763,0.93493413,-0.29077074,0.153991305
1764763278.8889458,-2.70102,1.54126,0.763,0.93493413,-0.29077074,0.153991305
1764763278.8889458,-2.45686,1.19028,0.8392999999999999,0.93566655,-0.29077074,0.153747165
1764763278.8889458,-2.45686,1.19028,0.8392999999999999,0.93566655,-0.29077074,0.153747165
1764763278.8889458,-2.45686,1.19028,0.8392999999999999,0.93566655,-0.29077074,0.153747165
1764763278.8889458,-2.45686,1.19028,0.8392999999999999,0.93566655,-0.29077074,0.153747165
1764763278.8889458,-2.45686,1.19028,0.8392999999999999,0.93566655,-0.29077074,0.153747165
1764763278.8889458,-2.45686,1.19028,0.8392999999999999,0.93566655,-0.29077074,0.153747165
1764763278.8889458,-2.45686,1.19028,0.8392999999999999,0.93566655,-0.29077074,0.153747165
1764763278.8889458,-2.45686,1.19028,0.8392999999999999,0.93566655,-0.29077074,0.153747165
1764763278.8889458,-2.45686,1.19028,0.8392999999999999,0.93566655,-0.29077074,0.153747165
1764763278.8889458,-2.45686,1.19028,0.8392999999999999,0.93566655,-0.29077074,0.153747165
1764763278.9363656,-3.17408,0.6409199999999999,0.21364,0.936215865,-0.289244865,0.153503025
1764763278.9363656,-3.17408,0.6409199999999999,0.21364,0.936215865,-0.289244865,0.153503025
1764763278.9363656,-3.17408,0.6409199999999999,0.21364,0.936215865,-0.289244865,0.153503025
1764763278.9363656,-3.17408,0.6409199999999999,0.21364,0.936215865,-0.289244865,0.153503025
1764763278.9363656,-3.17408,0.6409199999999999,0.21364,0.936215865,-0.289244865,0.153503025
1764763278.9363656,-3.17408,0.6409199999999999,0.21364,0.936215865,-0.289244865,0.153503025
1764763278.937377,-3.17408,0.6409199999999999,0.21364,0.936215865,-0.289244865,0.153503025
1764763278.937377,-3.17408,0.6409199999999999,0.21364,0.936215865,-0.289244865,0.153503025
1764763278.937377,-3.17408,0.6409199999999999,0.21364,0.936215865,-0.289244865,0.153503025
1764763278.937377,-3.17408,0.6409199999999999,0.21364,0.936215865,-0.289244865,0.153503025
1764763278.937377,-3.6624,0.9003399999999999,-0.28994,0.93700932,-0.288512445,0.15429648
1764763278.937377,-3.6624,0.9003399999999999,-0.28994,0.93700932,-0.288512445,0.15429648
1764763278.937377,-3.6624,0.9003399999999999,-0.28994,0.93700932,-0.288512445,0.15429648
1764763278.937377,-3.6624,0.9003399999999999,-0.28994,0.93700932,-0.288512445,0.15429648
1764763278.937377,-3.6624,0.9003399999999999,-0.28994,0.93700932,-0.288512445,0.15429648
1764763278.937377,-3.6624,0.9003399999999999,-0.28994,0.93700932,-0.288512445,0.15429648
1764763278.937377,-3.6624,0.9003399999999999,-0.28994,0.93700932,-0.288512445,0.15429648
1764763278.937377,-3.6624,0.9003399999999999,-0.28994,0.93700932,-0.288512445,0.15429648
1764763278.937377,-3.6624,0.9003399999999999,-0.28994,0.93700932,-0.288512445,0.15429648
1764763278.937377,-3.6624,0.9003399999999999,-0.28994,0.93700932,-0.288512445,0.15429648
1764763278.937377,-3.00622,1.8006799999999998,0.27468,0.93823002,-0.2893059,0.15563925
1764763278.937377,-3.00622,1.8006799999999998,0.27468,0.93823002,-0.2893059,0.15563925
1764763278.937377,-3.00622,1.8006799999999998,0.27468,0.93823002,-0.2893059,0.15563925
1764763278.937377,-3.00622,1.8006799999999998,0.27468,0.93823002,-0.2893059,0.15563925
1764763278.9835331,-3.00622,1.8006799999999998,0.27468,0.93823002,-0.2893059,0.15563925
1764763278.9835331,-3.00622,1.8006799999999998,0.27468,0.93823002,-0.2893059,0.15563925
1764763278.9835331,-3.00622,1.8006799999999998,0.27468,0.93823002,-0.2893059,0.15563925
1764763278.9835331,-3.00622,1.8006799999999998,0.27468,0.93823002,-0.2893059,0.15563925
1764763278.9835331,-3.00622,1.8006799999999998,0.27468,0.93823002,-0.2893059,0.15563925
1764763278.9835331,-3.00622,1.8006799999999998,0.27468,0.93823002,-0.2893059,0.15563925
1764763278.9835331,-3.2046,2.33478,0.19838,0.93700932,-0.288146235,0.155700285
1764763278.9835331,-3.2046,2.33478,0.19838,0.93700932,-0.288146235,0.155700285
1764763278.9835331,-3.2046,2.33478,0.19838,0.93700932,-0.288146235,0.155700285
1764763278.9835331,-3.2046,2.33478,0.19838,0.93700932,-0.288146235,0.155700285
1764763278.9835331,-3.2046,2.33478,0.19838,0.93700932,-0.288146235,0.155700285
1764763278.9835331,-3.2046,2.33478,0.19838,0.93700932,-0.288146235,0.155700285
1764763278.9835331,-3.2046,2.33478,0.19838,0.93700932,-0.288146235,0.155700285
1764763278.9835331,-3.2046,2.33478,0.19838,0.93700932,-0.288146235,0.155700285
1764763278.9835331,-3.2046,2.33478,0.19838,0.93700932,-0.288146235,0.155700285
1764763278.9835331,-3.2046,2.33478,0.19838,0.93700932,-0.288146235,0.155700285
1764763278.9835331,-3.15882,1.70912,0.4578,0.935361375,-0.28637622,0.156066495
1764763278.9835331,-3.15882,1.70912,0.4578,0.935361375,-0.28637622,0.156066495
1764763278.9835331,-3.15882,1.70912,0.4578,0.935361375,-0.28637622,0.156066495
1764763278.9835331,-3.15882,1.70912,0.4578,0.935361375,-0.28637622,0.156066495
1764763278.9835331,-3.15882,1.70912,0.4578,0.935361375,-0.28637622,0.156066495
1764763278.9835331,-3.15882,1.70912,0.4578,0.935361375,-0.28637622,0.156066495
1764763279.027191,-3.15882,1.70912,0.4578,0.935361375,-0.28637622,0.156066495
1764763279.027191,-3.15882,1.70912,0.4578,0.935361375,-0.28637622,0.156066495
1764763279.027191,-3.15882,1.70912,0.4578,0.935361375,-0.28637622,0.156066495
1764763279.027191,-3.15882,1.70912,0.4578,0.935361375,-0.28637622,0.156066495
1764763279.027191,-3.09778,0.77826,0.6867,0.93432378,-0.28637622,0.155822355
1764763279.027191,-3.09778,0.77826,0.6867,0.93432378,-0.28637622,0.155822355
1764763279.027191,-3.09778,0.77826,0.6867,0.93432378,-0.28637622,0.155822355
1764763279.027191,-3.09778,0.77826,0.6867,0.93432378,-0.28637622,0.155822355
1764763279.027191,-3.09778,0.77826,0.6867,0.93432378,-0.28637622,0.155822355
1764763279.027191,-3.09778,0.77826,0.6867,0.93432378,-0.28637622,0.155822355
1764763279.027191,-3.09778,0.77826,0.6867,0.93432378,-0.28637622,0.155822355
1764763279.027191,-3.09778,0.77826,0.6867,0.93432378,-0.28637622,0.155822355
1764763279.027191,-3.09778,0.77826,0.6867,0.93432378,-0.28637622,0.155822355
1764763279.027191,-3.09778,0.77826,0.6867,0.93432378,-0.28637622,0.155822355
1764763279.027191,-3.34194,0.36624,1.1445,0.93395757,-0.287413815,0.155944425
1764763279.027191,-3.34194,0.36624,1.1445,0.93395757,-0.287413815,0.155944425
1764763279.027191,-3.34194,0.36624,1.1445,0.93395757,-0.287413815,0.155944425
1764763279.027191,-3.34194,0.36624,1.1445,0.93395757,-0.287413815,0.155944425
1764763279.027191,-3.34194,0.36624,1.1445,0.93395757,-0.287413815,0.155944425
1764763279.027191,-3.34194,0.36624,1.1445,0.93395757,-0.287413815,0.155944425
1764763279.0282056,-3.34194,0.36624,1.1445,0.93395757,-0.287413815,0.155944425
1764763279.0282056,-3.34194,0.36624,1.1445,0.93395757,-0.287413815,0.155944425
1764763279.1235986,-3.34194,0.36624,1.1445,0.93395757,-0.287413815,0.155944425
1764763279.1235986,-3.34194,0.36624,1.1445,0.93395757,-0.287413815,0.155944425
1764763279.1235986,-3.052,0.47306,1.6786,0.93517827,-0.288756585,0.156066495
1764763279.1235986,-3.052,0.47306,1.6786,0.93517827,-0.288756585,0.156066495
1764763279.1235986,-3.052,0.47306,1.6786,0.93517827,-0.288756585,0.156066495
1764763279.1235986,-3.052,0.47306,1.6786,0.93517827,-0.288756585,0.156066495
1764763279.1235986,-3.052,0.47306,1.6786,0.93517827,-0.288756585,0.156066495
1764763279.1235986,-3.052,0.47306,1.6786,0.93517827,-0.288756585,0.156066495
1764763279.1235986,-3.052,0.47306,1.6786,0.93517827,-0.288756585,0.156066495
1764763279.1235986,-3.052,0.47306,1.6786,0.93517827,-0.288756585,0.156066495
1764763279.1235986,-3.052,0.47306,1.6786,0.93517827,-0.288756585,0.156066495
1764763279.1235986,-3.052,0.47306,1.6786,0.93517827,-0.288756585,0.156066495
1764763279.1235986,-3.34194,0.44254,1.46496,0.93725346,-0.28759692,0.15539511
1764763279.1235986,-3.34194,0.44254,1.46496,0.93725346,-0.28759692,0.15539511
1764763279.1235986,-3.34194,0.44254,1.46496,0.93725346,-0.28759692,0.15539511
1764763279.1235986,-3.34194,0.44254,1.46496,0.93725346,-0.28759692,0.15539511
1764763279.124607,-3.34194,0.44254,1.46496,0.93725346,-0.28759692,0.15539511
1764763279.124607,-3.34194,0.44254,1.46496,0.93725346,-0.28759692,0.15539511
1764763279.124607,-3.34194,0.44254,1.46496,0.93725346,-0.28759692,0.15539511
1764763279.124607,-3.34194,0.44254,1.46496,0.93725346,-0.28759692,0.15539511
1764763279.124607,-3.34194,0.44254,1.46496,0.93725346,-0.28759692,0.15539511
1764763279.124607,-3.34194,0.44254,1.46496,0.93725346,-0.28759692,0.15539511
1764763279.124607,-3.90656,0.6714399999999999,1.84646,0.93737553,-0.28796313,0.154967865
1764763279.124607,-3.90656,0.6714399999999999,1.84646,0.93737553,-0.28796313,0.154967865
1764763279.124607,-3.90656,0.6714399999999999,1.84646,0.93737553,-0.28796313,0.154967865
1764763279.124607,-3.90656,0.6714399999999999,1.84646,0.93737553,-0.28796313,0.154967865
1764763279.124607,-3.90656,0.6714399999999999,1.84646,0.93737553,-0.28796313,0.154967865
1764763279.124607,-3.90656,0.6714399999999999,1.84646,0.93737553,-0.28796313,0.154967865
1764763279.124607,-3.90656,0.6714399999999999,1.84646,0.93737553,-0.28796313,0.154967865
1764763279.124607,-3.90656,0.6714399999999999,1.84646,0.93737553,-0.28796313,0.154967865
1764763279.124607,-3.90656,0.6714399999999999,1.84646,0.93737553,-0.28796313,0.154967865
1764763279.124607,-3.90656,0.6714399999999999,1.84646,0.93737553,-0.28796313,0.154967865
1764763279.124607,-4.0439,1.28184,2.63998,0.937070355,-0.288878655,0.155212005
1764763279.124607,-4.0439,1.28184,2.63998,0.937070355,-0.288878655,0.155212005
1764763279.124607,-4.0439,1.28184,2.63998,0.937070355,-0.288878655,0.155212005
1764763279.124607,-4.0439,1.28184,2.63998,0.937070355,-0.288878655,0.155212005
1764763279.124607,-4.0439,1.28184,2.63998,0.937070355,-0.288878655,0.155212005
1764763279.124607,-4.0439,1.28184,2.63998,0.937070355,-0.288878655,0.155212005
1764763279.124607,-4.0439,1.28184,2.63998,0.937070355,-0.288878655,0.155212005
1764763279.125113,-4.0439,1.28184,2.63998,0.937070355,-0.288878655,0.155212005
1764763279.125113,-4.0439,1.28184,2.63998,0.937070355,-0.288878655,0.155212005
1764763279.125113,-4.0439,1.28184,2.63998,0.937070355,-0.288878655,0.155212005
1764763279.125113,-5.63094,1.87698,1.9838,0.93639897,-0.286559325,0.15490683
1764763279.125113,-5.63094,1.87698,1.9838,0.93639897,-0.286559325,0.15490683
1764763279.125113,-5.63094,1.87698,1.9838,0.93639897,-0.286559325,0.15490683
1764763279.125113,-5.63094,1.87698,1.9838,0.93639897,-0.286559325,0.15490683
1764763279.125113,-5.63094,1.87698,1.9838,0.93639897,-0.286559325,0.15490683
1764763279.125113,-5.63094,1.87698,1.9838,0.93639897,-0.286559325,0.15490683
1764763279.125113,-5.63094,1.87698,1.9838,0.93639897,-0.286559325,0.15490683
1764763279.125113,-5.63094,1.87698,1.9838,0.93639897,-0.286559325,0.15490683
1764763279.1669295,-5.63094,1.87698,1.9838,0.93639897,-0.286559325,0.15490683
1764763279.1669295,-5.63094,1.87698,1.9838,0.93639897,-0.286559325,0.15490683
1764763279.1669295,-7.034859999999999,2.50264,0.6409199999999999,0.937680705,-0.28405689,0.15515097
1764763279.1669295,-7.034859999999999,2.50264,0.6409199999999999,0.937680705,-0.28405689,0.15515097
1764763279.1669295,-7.034859999999999,2.50264,0.6409199999999999,0.937680705,-0.28405689,0.15515097
1764763279.1669295,-7.034859999999999,2.50264,0.6409199999999999,0.937680705,-0.28405689,0.15515097
1764763279.1669295,-7.034859999999999,2.50264,0.6409199999999999,0.937680705,-0.28405689,0.15515097
1764763279.1669295,-7.034859999999999,2.50264,0.6409199999999999,0.937680705,-0.28405689,0.15515097
1764763279.1669295,-7.034859999999999,2.50264,0.6409199999999999,0.937680705,-0.28405689,0.15515097
1764763279.1669295,-7.034859999999999,2.50264,0.6409199999999999,0.937680705,-0.28405689,0.15515097
1764763279.1669295,-7.034859999999999,2.50264,0.6409199999999999,0.937680705,-0.28405689,0.15515097
1764763279.1669295,-7.034859999999999,2.50264,0.6409199999999999,0.937680705,-0.28405689,0.15515097
1764763279.1679492,-8.1641,3.57084,-0.09156,0.938168985,-0.28430103,0.15576132
1764763279.1679492,-8.1641,3.57084,-0.09156,0.938168985,-0.28430103,0.15576132
1764763279.1679492,-8.1641,3.57084,-0.09156,0.938168985,-0.28430103,0.15576132
1764763279.1679492,-8.1641,3.57084,-0.09156,0.938168985,-0.28430103,0.15576132
1764763279.1679492,-8.1641,3.57084,-0.09156,0.938168985,-0.28430103,0.15576132
1764763279.1679492,-8.1641,3.57084,-0.09156,0.938168985,-0.28430103,0.15576132
1764763279.1679492,-8.1641,3.57084,-0.09156,0.938168985,-0.28430103,0.15576132
1764763279.1679492,-8.1641,3.57084,-0.09156,0.938168985,-0.28430103,0.15576132
1764763279.1679492,-8.1641,3.57084,-0.09156,0.938168985,-0.28430103,0.15576132
1764763279.1679492,-8.1641,3.57084,-0.09156,0.938168985,-0.28430103,0.15576132
1764763279.2144103,-9.09496,3.5098,0.0762999999999999,0.935361375,-0.286193115,0.155944425
1764763279.2144103,-9.09496,3.5098,0.0762999999999999,0.935361375,-0.286193115,0.155944425
1764763279.2144103,-9.09496,3.5098,0.0762999999999999,0.935361375,-0.286193115,0.155944425
1764763279.2144103,-9.09496,3.5098,0.0762999999999999,0.935361375,-0.286193115,0.155944425
1764763279.2144103,-9.09496,3.5098,0.0762999999999999,0.935361375,-0.286193115,0.155944425
1764763279.2144103,-9.09496,3.5098,0.0762999999999999,0.935361375,-0.286193115,0.155944425
1764763279.2144103,-9.09496,3.5098,0.0762999999999999,0.935361375,-0.286193115,0.155944425
1764763279.2144103,-9.09496,3.5098,0.0762999999999999,0.935361375,-0.286193115,0.155944425
1764763279.214915,-9.09496,3.5098,0.0762999999999999,0.935361375,-0.286193115,0.155944425
1764763279.214915,-9.09496,3.5098,0.0762999999999999,0.935361375,-0.286193115,0.155944425
1764763279.214915,-8.6219,2.57894,1.02242,0.93298101,-0.289489005,0.156676845
1764763279.214915,-8.6219,2.57894,1.02242,0.93298101,-0.289489005,0.156676845
1764763279.214915,-8.6219,2.57894,1.02242,0.93298101,-0.289489005,0.156676845
1764763279.214915,-8.6219,2.57894,1.02242,0.93298101,-0.289489005,0.156676845
1764763279.214915,-8.6219,2.57894,1.02242,0.93298101,-0.289489005,0.156676845
1764763279.214915,-8.6219,2.57894,1.02242,0.93298101,-0.289489005,0.156676845
1764763279.214915,-8.6219,2.57894,1.02242,0.93298101,-0.289489005,0.156676845
1764763279.214915,-8.6219,2.57894,1.02242,0.93298101,-0.289489005,0.156676845
1764763279.214915,-8.6219,2.57894,1.02242,0.93298101,-0.289489005,0.156676845
1764763279.214915,-8.6219,2.57894,1.02242,0.93298101,-0.289489005,0.156676845
1764763279.214915,-5.44782,1.2208,1.12924,0.931577205,-0.293883525,0.158507895
1764763279.214915,-5.44782,1.2208,1.12924,0.931577205,-0.293883525,0.158507895
1764763279.214915,-5.44782,1.2208,1.12924,0.931577205,-0.293883525,0.158507895
1764763279.214915,-5.44782,1.2208,1.12924,0.931577205,-0.293883525,0.158507895
1764763279.2607918,-5.44782,1.2208,1.12924,0.931577205,-0.293883525,0.158507895
1764763279.2607918,-5.44782,1.2208,1.12924,0.931577205,-0.293883525,0.158507895
1764763279.2607918,-5.44782,1.2208,1.12924,0.931577205,-0.293883525,0.158507895
1764763279.2607918,-5.44782,1.2208,1.12924,0.931577205,-0.293883525,0.158507895
1764763279.2607918,-5.44782,1.2208,1.12924,0.931577205,-0.293883525,0.158507895
1764763279.2607918,-5.44782,1.2208,1.12924,0.931577205,-0.293883525,0.158507895
1764763279.2607918,-1.69386,-1.17502,1.8006799999999998,0.930722715,-0.29894943,0.15844686
1764763279.2607918,-1.69386,-1.17502,1.8006799999999998,0.930722715,-0.29894943,0.15844686
1764763279.2607918,-1.69386,-1.17502,1.8006799999999998,0.930722715,-0.29894943,0.15844686
1764763279.2607918,-1.69386,-1.17502,1.8006799999999998,0.930722715,-0.29894943,0.15844686
1764763279.2607918,-1.69386,-1.17502,1.8006799999999998,0.930722715,-0.29894943,0.15844686
1764763279.2618108,-1.69386,-1.17502,1.8006799999999998,0.930722715,-0.29894943,0.15844686
1764763279.2618108,-1.69386,-1.17502,1.8006799999999998,0.930722715,-0.29894943,0.15844686
1764763279.2618108,-1.69386,-1.17502,1.8006799999999998,0.930722715,-0.29894943,0.15844686
1764763279.2618108,-1.69386,-1.17502,1.8006799999999998,0.930722715,-0.29894943,0.15844686
1764763279.2618108,-1.69386,-1.17502,1.8006799999999998,0.930722715,-0.29894943,0.15844686
1764763279.2618108,2.41108,-3.08252,3.32668,0.929990295,-0.300231165,0.157653405
1764763279.2618108,2.41108,-3.08252,3.32668,0.929990295,-0.300231165,0.157653405
1764763279.2618108,2.41108,-3.08252,3.32668,0.929990295,-0.300231165,0.157653405
1764763279.2618108,2.41108,-3.08252,3.32668,0.929990295,-0.300231165,0.157653405
1764763279.2618108,2.41108,-3.08252,3.32668,0.929990295,-0.300231165,0.157653405
1764763279.2618108,2.41108,-3.08252,3.32668,0.929990295,-0.300231165,0.157653405
1764763279.30938,2.41108,-3.08252,3.32668,0.929990295,-0.300231165,0.157653405
1764763279.30938,2.41108,-3.08252,3.32668,0.929990295,-0.300231165,0.157653405
1764763279.30938,2.41108,-3.08252,3.32668,0.929990295,-0.300231165,0.157653405
1764763279.30938,2.41108,-3.08252,3.32668,0.929990295,-0.300231165,0.157653405
1764763279.30938,5.478339999999999,-3.46402,5.478339999999999,0.931210995,-0.29980392,0.1562496
1764763279.30938,5.478339999999999,-3.46402,5.478339999999999,0.931210995,-0.29980392,0.1562496
1764763279.30938,5.478339999999999,-3.46402,5.478339999999999,0.931210995,-0.29980392,0.1562496
1764763279.30938,5.478339999999999,-3.46402,5.478339999999999,0.931210995,-0.29980392,0.1562496
1764763279.30938,5.478339999999999,-3.46402,5.478339999999999,0.931210995,-0.29980392,0.1562496
1764763279.30938,5.478339999999999,-3.46402,5.478339999999999,0.931210995,-0.29980392,0.1562496
1764763279.30938,5.478339999999999,-3.46402,5.478339999999999,0.931210995,-0.29980392,0.1562496
1764763279.30938,5.478339999999999,-3.46402,5.478339999999999,0.931210995,-0.29980392,0.1562496
1764763279.30938,5.478339999999999,-3.46402,5.478339999999999,0.931210995,-0.29980392,0.1562496
1764763279.310397,5.478339999999999,-3.46402,5.478339999999999,0.931210995,-0.29980392,0.1562496
1764763279.310397,6.50076,-2.4416,6.36342,0.934506885,-0.296324925,0.15417441
1764763279.310397,6.50076,-2.4416,6.36342,0.934506885,-0.296324925,0.15417441
1764763279.310397,6.50076,-2.4416,6.36342,0.934506885,-0.296324925,0.15417441
1764763279.310397,6.50076,-2.4416,6.36342,0.934506885,-0.296324925,0.15417441
1764763279.310397,6.50076,-2.4416,6.36342,0.934506885,-0.296324925,0.15417441
1764763279.310397,6.50076,-2.4416,6.36342,0.934506885,-0.296324925,0.15417441
1764763279.310397,6.50076,-2.4416,6.36342,0.934506885,-0.296324925,0.15417441
1764763279.310397,6.50076,-2.4416,6.36342,0.934506885,-0.296324925,0.15417441
1764763279.3567436,6.50076,-2.4416,6.36342,0.934506885,-0.296324925,0.15417441
1764763279.3567436,6.50076,-2.4416,6.36342,0.934506885,-0.296324925,0.15417441
1764763279.3567436,5.17314,-0.82404,6.22608,0.937802775,-0.290465565,0.15185508
1764763279.3567436,5.17314,-0.82404,6.22608,0.937802775,-0.290465565,0.15185508
1764763279.3567436,5.17314,-0.82404,6.22608,0.937802775,-0.290465565,0.15185508
1764763279.3567436,5.17314,-0.82404,6.22608,0.937802775,-0.290465565,0.15185508
1764763279.3567436,5.17314,-0.82404,6.22608,0.937802775,-0.290465565,0.15185508
1764763279.3567436,5.17314,-0.82404,6.22608,0.937802775,-0.290465565,0.15185508
1764763279.3567436,5.17314,-0.82404,6.22608,0.937802775,-0.290465565,0.15185508
1764763279.3567436,5.17314,-0.82404,6.22608,0.937802775,-0.290465565,0.15185508
1764763279.3567436,5.17314,-0.82404,6.22608,0.937802775,-0.290465565,0.15185508
1764763279.3567436,5.17314,-0.82404,6.22608,0.937802775,-0.290465565,0.15185508
1764763279.3577435,2.35004,0.9156,5.05106,0.93859623,-0.284728275,0.14941368
1764763279.3577435,2.35004,0.9156,5.05106,0.93859623,-0.284728275,0.14941368
1764763279.3577435,2.35004,0.9156,5.05106,0.93859623,-0.284728275,0.14941368
1764763279.3577435,2.35004,0.9156,5.05106,0.93859623,-0.284728275,0.14941368
1764763279.3577435,2.35004,0.9156,5.05106,0.93859623,-0.284728275,0.14941368
1764763279.3577435,2.35004,0.9156,5.05106,0.93859623,-0.284728275,0.14941368
1764763279.3577435,2.35004,0.9156,5.05106,0.93859623,-0.284728275,0.14941368
1764763279.3577435,2.35004,0.9156,5.05106,0.93859623,-0.284728275,0.14941368
1764763279.3577435,2.35004,0.9156,5.05106,0.93859623,-0.284728275,0.14941368
1764763279.3577435,2.35004,0.9156,5.05106,0.93859623,-0.284728275,0.14941368
1764763279.3577435,-0.93086,2.22796,4.01338,0.940366245,-0.282042735,0.14868126
1764763279.3577435,-0.93086,2.22796,4.01338,0.940366245,-0.282042735,0.14868126
1764763279.4011204,-0.93086,2.22796,4.01338,0.940366245,-0.282042735,0.14868126
1764763279.4011204,-0.93086,2.22796,4.01338,0.940366245,-0.282042735,0.14868126
1764763279.4011204,-0.93086,2.22796,4.01338,0.940366245,-0.282042735,0.14868126
1764763279.4011204,-0.93086,2.22796,4.01338,0.940366245,-0.282042735,0.14868126
1764763279.4011204,-0.93086,2.22796,4.01338,0.940366245,-0.282042735,0.14868126
1764763279.4011204,-0.93086,2.22796,4.01338,0.940366245,-0.282042735,0.14868126
1764763279.4011204,-0.93086,2.22796,4.01338,0.940366245,-0.282042735,0.14868126
1764763279.4011204,-0.93086,2.22796,4.01338,0.940366245,-0.282042735,0.14868126
1764763279.4011204,-3.41824,3.63188,3.37246,0.94042728,-0.283263435,0.14868126
1764763279.4011204,-3.41824,3.63188,3.37246,0.94042728,-0.283263435,0.14868126
1764763279.4011204,-3.41824,3.63188,3.37246,0.94042728,-0.283263435,0.14868126
1764763279.4011204,-3.41824,3.63188,3.37246,0.94042728,-0.283263435,0.14868126
1764763279.4011204,-3.41824,3.63188,3.37246,0.94042728,-0.283263435,0.14868126
1764763279.4011204,-3.41824,3.63188,3.37246,0.94042728,-0.283263435,0.14868126
1764763279.4011204,-3.41824,3.63188,3.37246,0.94042728,-0.283263435,0.14868126
1764763279.4011204,-3.41824,3.63188,3.37246,0.94042728,-0.283263435,0.14868126
1764763279.4011204,-3.41824,3.63188,3.37246,0.94042728,-0.283263435,0.14868126
1764763279.4011204,-3.41824,3.63188,3.37246,0.94042728,-0.283263435,0.14868126
1764763279.4011204,-3.83026,3.6624,3.8913,0.936826215,-0.2880852,0.150207135
1764763279.4011204,-3.83026,3.6624,3.8913,0.936826215,-0.2880852,0.150207135
1764763279.4011204,-3.83026,3.6624,3.8913,0.936826215,-0.2880852,0.150207135
1764763279.4026608,-3.83026,3.6624,3.8913,0.936826215,-0.2880852,0.150207135
1764763279.4026608,-3.83026,3.6624,3.8913,0.936826215,-0.2880852,0.150207135
1764763279.4026608,-3.83026,3.6624,3.8913,0.936826215,-0.2880852,0.150207135
1764763279.445398,-3.83026,3.6624,3.8913,0.936826215,-0.2880852,0.150207135
1764763279.445398,-3.83026,3.6624,3.8913,0.936826215,-0.2880852,0.150207135
1764763279.445398,-3.83026,3.6624,3.8913,0.936826215,-0.2880852,0.150207135
1764763279.445398,-3.83026,3.6624,3.8913,0.936826215,-0.2880852,0.150207135
1764763279.445398,-3.2809,2.73154,3.25038,0.93517827,-0.29370042,0.15234336
1764763279.445398,-3.2809,2.73154,3.25038,0.93517827,-0.29370042,0.15234336
1764763279.445398,-3.2809,2.73154,3.25038,0.93517827,-0.29370042,0.15234336
1764763279.445398,-3.2809,2.73154,3.25038,0.93517827,-0.29370042,0.15234336
1764763279.445398,-3.2809,2.73154,3.25038,0.93517827,-0.29370042,0.15234336
1764763279.445398,-3.2809,2.73154,3.25038,0.93517827,-0.29370042,0.15234336
1764763279.4464135,-3.2809,2.73154,3.25038,0.93517827,-0.29370042,0.15234336
1764763279.4464135,-3.2809,2.73154,3.25038,0.93517827,-0.29370042,0.15234336
1764763279.4464135,-3.2809,2.73154,3.25038,0.93517827,-0.29370042,0.15234336
1764763279.4464135,-3.2809,2.73154,3.25038,0.93517827,-0.29370042,0.15234336
1764763279.4464135,-2.5179,1.51074,2.33478,0.932553765,-0.29589768,0.153258885
1764763279.4464135,-2.5179,1.51074,2.33478,0.932553765,-0.29589768,0.153258885
1764763279.4464135,-2.5179,1.51074,2.33478,0.932553765,-0.29589768,0.153258885
1764763279.4464135,-2.5179,1.51074,2.33478,0.932553765,-0.29589768,0.153258885
1764763279.4464135,-2.5179,1.51074,2.33478,0.932553765,-0.29589768,0.153258885
1764763279.4464135,-2.5179,1.51074,2.33478,0.932553765,-0.29589768,0.153258885
1764763279.4464135,-2.5179,1.51074,2.33478,0.932553765,-0.29589768,0.153258885
1764763279.4464135,-2.5179,1.51074,2.33478,0.932553765,-0.29589768,0.153258885
1764763279.4940228,-2.5179,1.51074,2.33478,0.932553765,-0.29589768,0.153258885
1764763279.4940228,-2.5179,1.51074,2.33478,0.932553765,-0.29589768,0.153258885
1764763279.4940228,-1.4497,0.57988,1.51074,0.93371343,-0.29650803,0.154235445
1764763279.4940228,-1.4497,0.57988,1.51074,0.93371343,-0.29650803,0.154235445
1764763279.4949658,-1.4497,0.57988,1.51074,0.93371343,-0.29650803,0.154235445
1764763279.4949658,-1.4497,0.57988,1.51074,0.93371343,-0.29650803,0.154235445
1764763279.4949658,-1.4497,0.57988,1.51074,0.93371343,-0.29650803,0.154235445
1764763279.4949658,-1.4497,0.57988,1.51074,0.93371343,-0.29650803,0.154235445
1764763279.4949658,-1.4497,0.57988,1.51074,0.93371343,-0.29650803,0.154235445
1764763279.4949658,-1.4497,0.57988,1.51074,0.93371343,-0.29650803,0.154235445
1764763279.4949658,-1.4497,0.57988,1.51074,0.93371343,-0.29650803,0.154235445
1764763279.4949658,-1.4497,0.57988,1.51074,0.93371343,-0.29650803,0.154235445
1764763279.4949658,-0.57988,1.55652,2.12114,0.93530034,-0.297179415,0.155822355
1764763279.4949658,-0.57988,1.55652,2.12114,0.93530034,-0.297179415,0.155822355
1764763279.4949658,-0.57988,1.55652,2.12114,0.93530034,-0.297179415,0.155822355
1764763279.4949658,-0.57988,1.55652,2.12114,0.93530034,-0.297179415,0.155822355
1764763279.4949658,-0.57988,1.55652,2.12114,0.93530034,-0.297179415,0.155822355
1764763279.4949658,-0.57988,1.55652,2.12114,0.93530034,-0.297179415,0.155822355
1764763279.4949658,-0.57988,1.55652,2.12114,0.93530034,-0.297179415,0.155822355
1764763279.4949658,-0.57988,1.55652,2.12114,0.93530034,-0.297179415,0.155822355
1764763279.4949658,-0.57988,1.55652,2.12114,0.93530034,-0.297179415,0.155822355
1764763279.4949658,-0.57988,1.55652,2.12114,0.93530034,-0.297179415,0.155822355
1764763279.4949658,-0.9003399999999999,2.10588,2.4416,0.934018605,-0.295714575,0.15637167
1764763279.4949658,-0.9003399999999999,2.10588,2.4416,0.934018605,-0.295714575,0.15637167
1764763279.5414464,-0.9003399999999999,2.10588,2.4416,0.934018605,-0.295714575,0.15637167
1764763279.5414464,-0.9003399999999999,2.10588,2.4416,0.934018605,-0.295714575,0.15637167
1764763279.5414464,-0.9003399999999999,2.10588,2.4416,0.934018605,-0.295714575,0.15637167
1764763279.5414464,-0.9003399999999999,2.10588,2.4416,0.934018605,-0.295714575,0.15637167
1764763279.5419571,-0.9003399999999999,2.10588,2.4416,0.934018605,-0.295714575,0.15637167
1764763279.5419571,-0.9003399999999999,2.10588,2.4416,0.934018605,-0.295714575,0.15637167
1764763279.5419571,-0.9003399999999999,2.10588,2.4416,0.934018605,-0.295714575,0.15637167
1764763279.5419571,-0.9003399999999999,2.10588,2.4416,0.934018605,-0.295714575,0.15637167
1764763279.5419571,-1.81594,1.9075,2.33478,0.932797905,-0.294005595,0.156432705
1764763279.5419571,-1.81594,1.9075,2.33478,0.932797905,-0.294005595,0.156432705
1764763279.5419571,-1.81594,1.9075,2.33478,0.932797905,-0.294005595,0.156432705
1764763279.5419571,-1.81594,1.9075,2.33478,0.932797905,-0.294005595,0.156432705
1764763279.5419571,-1.81594,1.9075,2.33478,0.932797905,-0.294005595,0.156432705
1764763279.5419571,-1.81594,1.9075,2.33478,0.932797905,-0.294005595,0.156432705
1764763279.5419571,-1.81594,1.9075,2.33478,0.932797905,-0.294005595,0.156432705
1764763279.5419571,-1.81594,1.9075,2.33478,0.932797905,-0.294005595,0.156432705
1764763279.5419571,-1.81594,1.9075,2.33478,0.932797905,-0.294005595,0.156432705
1764763279.5419571,-1.81594,1.9075,2.33478,0.932797905,-0.294005595,0.156432705
1764763279.5419571,-1.95328,1.03768,2.53316,0.93151617,-0.29443284,0.157409265
1764763279.5419571,-1.95328,1.03768,2.53316,0.93151617,-0.29443284,0.157409265
1764763279.5419571,-1.95328,1.03768,2.53316,0.93151617,-0.29443284,0.157409265
1764763279.5419571,-1.95328,1.03768,2.53316,0.93151617,-0.29443284,0.157409265
1764763279.5419571,-1.95328,1.03768,2.53316,0.93151617,-0.29443284,0.157409265
1764763279.5419571,-1.95328,1.03768,2.53316,0.93151617,-0.29443284,0.157409265
1764763279.5879407,-1.95328,1.03768,2.53316,0.93151617,-0.29443284,0.157409265
1764763279.5879407,-1.95328,1.03768,2.53316,0.93151617,-0.29443284,0.157409265
1764763279.5879407,-1.95328,1.03768,2.53316,0.93151617,-0.29443284,0.157409265
1764763279.5879407,-1.95328,1.03768,2.53316,0.93151617,-0.29443284,0.157409265
1764763279.5879407,-2.5179,0.5341,3.14356,0.929868225,-0.29565354,0.15832479
1764763279.5879407,-2.5179,0.5341,3.14356,0.929868225,-0.29565354,0.15832479
1764763279.5879407,-2.5179,0.5341,3.14356,0.929868225,-0.29565354,0.15832479
1764763279.5879407,-2.5179,0.5341,3.14356,0.929868225,-0.29565354,0.15832479
1764763279.5879407,-2.5179,0.5341,3.14356,0.929868225,-0.29565354,0.15832479
1764763279.5879407,-2.5179,0.5341,3.14356,0.929868225,-0.29565354,0.15832479
1764763279.5879407,-2.5179,0.5341,3.14356,0.929868225,-0.29565354,0.15832479
1764763279.5879407,-2.5179,0.5341,3.14356,0.929868225,-0.29565354,0.15832479
1764763279.5879407,-2.5179,0.5341,3.14356,0.929868225,-0.29565354,0.15832479
1764763279.5879407,-2.5179,0.5341,3.14356,0.929868225,-0.29565354,0.15832479
1764763279.5879407,-2.45686,0.93086,3.49454,0.930844785,-0.296446995,0.159118245
1764763279.5879407,-2.45686,0.93086,3.49454,0.930844785,-0.296446995,0.159118245
1764763279.5879407,-2.45686,0.93086,3.49454,0.930844785,-0.296446995,0.159118245
1764763279.5879407,-2.45686,0.93086,3.49454,0.930844785,-0.296446995,0.159118245
1764763279.5879407,-2.45686,0.93086,3.49454,0.930844785,-0.296446995,0.159118245
1764763279.5879407,-2.45686,0.93086,3.49454,0.930844785,-0.296446995,0.159118245
1764763279.5879407,-2.45686,0.93086,3.49454,0.930844785,-0.296446995,0.159118245
1764763279.5879407,-2.45686,0.93086,3.49454,0.930844785,-0.296446995,0.159118245
1764763279.6349516,-2.45686,0.93086,3.49454,0.930844785,-0.296446995,0.159118245
1764763279.6349516,-2.45686,0.93086,3.49454,0.930844785,-0.296446995,0.159118245
1764763279.6349516,-3.40298,1.09872,2.56368,0.93310308,-0.295836645,0.159118245
1764763279.6349516,-3.40298,1.09872,2.56368,0.93310308,-0.295836645,0.159118245
1764763279.6349516,-3.40298,1.09872,2.56368,0.93310308,-0.295836645,0.159118245
1764763279.6349516,-3.40298,1.09872,2.56368,0.93310308,-0.295836645,0.159118245
1764763279.6349516,-3.40298,1.09872,2.56368,0.93310308,-0.295836645,0.159118245
1764763279.6349516,-3.40298,1.09872,2.56368,0.93310308,-0.295836645,0.159118245
1764763279.6349516,-3.40298,1.09872,2.56368,0.93310308,-0.295836645,0.159118245
1764763279.6349516,-3.40298,1.09872,2.56368,0.93310308,-0.295836645,0.159118245
1764763279.6349516,-3.40298,1.09872,2.56368,0.93310308,-0.295836645,0.159118245
1764763279.6349516,-3.40298,1.09872,2.56368,0.93310308,-0.295836645,0.159118245
1764763279.6349516,-3.9676,1.17502,1.70912,0.934018605,-0.29687424,0.159362385
1764763279.6349516,-3.9676,1.17502,1.70912,0.934018605,-0.29687424,0.159362385
1764763279.6349516,-3.9676,1.17502,1.70912,0.934018605,-0.29687424,0.159362385
1764763279.6349516,-3.9676,1.17502,1.70912,0.934018605,-0.29687424,0.159362385
1764763279.6349516,-3.9676,1.17502,1.70912,0.934018605,-0.29687424,0.159362385
1764763279.6349516,-3.9676,1.17502,1.70912,0.934018605,-0.29687424,0.159362385
1764763279.6349516,-3.9676,1.17502,1.70912,0.934018605,-0.29687424,0.159362385
1764763279.635467,-3.9676,1.17502,1.70912,0.934018605,-0.29687424,0.159362385
1764763279.635467,-3.9676,1.17502,1.70912,0.934018605,-0.29687424,0.159362385
1764763279.635467,-3.9676,1.17502,1.70912,0.934018605,-0.29687424,0.159362385
1764763279.635467,-4.01338,1.4497,2.01432,0.933042045,-0.298278045,0.15930135
1764763279.635467,-4.01338,1.4497,2.01432,0.933042045,-0.298278045,0.15930135
1764763279.681706,-4.01338,1.4497,2.01432,0.933042045,-0.298278045,0.15930135
1764763279.681706,-4.01338,1.4497,2.01432,0.933042045,-0.298278045,0.15930135
1764763279.682711,-4.01338,1.4497,2.01432,0.933042045,-0.298278045,0.15930135
1764763279.682711,-4.01338,1.4497,2.01432,0.933042045,-0.298278045,0.15930135
1764763279.682711,-4.01338,1.4497,2.01432,0.933042045,-0.298278045,0.15930135
1764763279.682711,-4.01338,1.4497,2.01432,0.933042045,-0.298278045,0.15930135
1764763279.682711,-4.01338,1.4497,2.01432,0.933042045,-0.298278045,0.15930135
1764763279.682711,-4.01338,1.4497,2.01432,0.933042045,-0.298278045,0.15930135
1764763279.682711,-4.48644,0.48832,1.69386,0.930112365,-0.298278045,0.15942342
1764763279.682711,-4.48644,0.48832,1.69386,0.930112365,-0.298278045,0.15942342
1764763279.682711,-4.48644,0.48832,1.69386,0.930112365,-0.298278045,0.15942342
1764763279.682711,-4.48644,0.48832,1.69386,0.930112365,-0.298278045,0.15942342
1764763279.682711,-4.48644,0.48832,1.69386,0.930112365,-0.298278045,0.15942342
1764763279.682711,-4.48644,0.48832,1.69386,0.930112365,-0.298278045,0.15942342
1764763279.682711,-4.48644,0.48832,1.69386,0.930112365,-0.298278045,0.15942342
1764763279.682711,-4.48644,0.48832,1.69386,0.930112365,-0.298278045,0.15942342
1764763279.682711,-4.48644,0.48832,1.69386,0.930112365,-0.298278045,0.15942342
1764763279.682711,-4.48644,0.48832,1.69386,0.930112365,-0.298278045,0.15942342
1764763279.682711,-4.16598,0.3357199999999999,0.8087799999999999,0.930600645,-0.29858322,0.16003377
1764763279.682711,-4.16598,0.3357199999999999,0.8087799999999999,0.930600645,-0.29858322,0.16003377
1764763279.682711,-4.16598,0.3357199999999999,0.8087799999999999,0.930600645,-0.29858322,0.16003377
1764763279.682711,-4.16598,0.3357199999999999,0.8087799999999999,0.930600645,-0.29858322,0.16003377
1764763279.682711,-4.16598,0.3357199999999999,0.8087799999999999,0.930600645,-0.29858322,0.16003377
1764763279.682711,-4.16598,0.3357199999999999,0.8087799999999999,0.930600645,-0.29858322,0.16003377
1764763279.682711,-4.16598,0.3357199999999999,0.8087799999999999,0.930600645,-0.29858322,0.16003377
1764763279.682711,-4.16598,0.3357199999999999,0.8087799999999999,0.930600645,-0.29858322,0.16003377
1764763279.7283297,-4.16598,0.3357199999999999,0.8087799999999999,0.930600645,-0.29858322,0.16003377
1764763279.7283297,-4.16598,0.3357199999999999,0.8087799999999999,0.930600645,-0.29858322,0.16003377
1764763279.7283297,-4.715339999999999,0.39676,0.10682,0.931455135,-0.298400115,0.159850665
1764763279.7283297,-4.715339999999999,0.39676,0.10682,0.931455135,-0.298400115,0.159850665
1764763279.7283297,-4.715339999999999,0.39676,0.10682,0.931455135,-0.298400115,0.159850665
1764763279.7283297,-4.715339999999999,0.39676,0.10682,0.931455135,-0.298400115,0.159850665
1764763279.7283297,-4.715339999999999,0.39676,0.10682,0.931455135,-0.298400115,0.159850665
1764763279.7283297,-4.715339999999999,0.39676,0.10682,0.931455135,-0.298400115,0.159850665
1764763279.7283297,-4.715339999999999,0.39676,0.10682,0.931455135,-0.298400115,0.159850665
1764763279.7283297,-4.715339999999999,0.39676,0.10682,0.931455135,-0.298400115,0.159850665
1764763279.7301118,-4.715339999999999,0.39676,0.10682,0.931455135,-0.298400115,0.159850665
1764763279.7301118,-4.715339999999999,0.39676,0.10682,0.931455135,-0.298400115,0.159850665
1764763279.7301118,-5.371519999999999,0.54936,-0.7019599999999999,0.930966855,-0.297301485,0.159240315
1764763279.7301118,-5.371519999999999,0.54936,-0.7019599999999999,0.930966855,-0.297301485,0.159240315
1764763279.7301118,-5.371519999999999,0.54936,-0.7019599999999999,0.930966855,-0.297301485,0.159240315
1764763279.7301118,-5.371519999999999,0.54936,-0.7019599999999999,0.930966855,-0.297301485,0.159240315
1764763279.7301118,-5.371519999999999,0.54936,-0.7019599999999999,0.930966855,-0.297301485,0.159240315
1764763279.7301118,-5.371519999999999,0.54936,-0.7019599999999999,0.930966855,-0.297301485,0.159240315
1764763279.7301118,-5.371519999999999,0.54936,-0.7019599999999999,0.930966855,-0.297301485,0.159240315
1764763279.7301118,-5.371519999999999,0.54936,-0.7019599999999999,0.930966855,-0.297301485,0.159240315
1764763279.7301118,-5.371519999999999,0.54936,-0.7019599999999999,0.930966855,-0.297301485,0.159240315
1764763279.7301118,-5.371519999999999,0.54936,-0.7019599999999999,0.930966855,-0.297301485,0.159240315
1764763279.776298,-6.76018,-0.10682,-0.6409199999999999,0.931333065,-0.29724045,0.15844686
1764763279.776298,-6.76018,-0.10682,-0.6409199999999999,0.931333065,-0.29724045,0.15844686
1764763279.776298,-6.76018,-0.10682,-0.6409199999999999,0.931333065,-0.29724045,0.15844686
1764763279.776298,-6.76018,-0.10682,-0.6409199999999999,0.931333065,-0.29724045,0.15844686
1764763279.7768235,-6.76018,-0.10682,-0.6409199999999999,0.931333065,-0.29724045,0.15844686
1764763279.7768235,-6.76018,-0.10682,-0.6409199999999999,0.931333065,-0.29724045,0.15844686
1764763279.7768235,-6.76018,-0.10682,-0.6409199999999999,0.931333065,-0.29724045,0.15844686
1764763279.7768235,-6.76018,-0.10682,-0.6409199999999999,0.931333065,-0.29724045,0.15844686
1764763279.7768235,-6.76018,-0.10682,-0.6409199999999999,0.931333065,-0.29724045,0.15844686
1764763279.7768235,-6.76018,-0.10682,-0.6409199999999999,0.931333065,-0.29724045,0.15844686
1764763279.7768235,-7.14168,-0.3051999999999999,-0.57988,0.93163824,-0.2978508,0.157531335
1764763279.7768235,-7.14168,-0.3051999999999999,-0.57988,0.93163824,-0.2978508,0.157531335
1764763279.7768235,-7.14168,-0.3051999999999999,-0.57988,0.93163824,-0.2978508,0.157531335
1764763279.7768235,-7.14168,-0.3051999999999999,-0.57988,0.93163824,-0.2978508,0.157531335
1764763279.7768235,-7.14168,-0.3051999999999999,-0.57988,0.93163824,-0.2978508,0.157531335
1764763279.7768235,-7.14168,-0.3051999999999999,-0.57988,0.93163824,-0.2978508,0.157531335
1764763279.7768235,-7.14168,-0.3051999999999999,-0.57988,0.93163824,-0.2978508,0.157531335
1764763279.7768235,-7.14168,-0.3051999999999999,-0.57988,0.93163824,-0.2978508,0.157531335
1764763279.7768235,-7.14168,-0.3051999999999999,-0.57988,0.93163824,-0.2978508,0.157531335
1764763279.7768235,-7.14168,-0.3051999999999999,-0.57988,0.93163824,-0.2978508,0.157531335
1764763279.7768235,-6.80596,-0.27468,-0.7019599999999999,0.93224859,-0.29858322,0.15649374
1764763279.7768235,-6.80596,-0.27468,-0.7019599999999999,0.93224859,-0.29858322,0.15649374
1764763279.8229718,-6.80596,-0.27468,-0.7019599999999999,0.93224859,-0.29858322,0.15649374
1764763279.8229718,-6.80596,-0.27468,-0.7019599999999999,0.93224859,-0.29858322,0.15649374
1764763279.8229718,-6.80596,-0.27468,-0.7019599999999999,0.93224859,-0.29858322,0.15649374
1764763279.8229718,-6.80596,-0.27468,-0.7019599999999999,0.93224859,-0.29858322,0.15649374
1764763279.8229718,-6.80596,-0.27468,-0.7019599999999999,0.93224859,-0.29858322,0.15649374
1764763279.8229718,-6.80596,-0.27468,-0.7019599999999999,0.93224859,-0.29858322,0.15649374
1764763279.8229718,-6.80596,-0.27468,-0.7019599999999999,0.93224859,-0.29858322,0.15649374
1764763279.8229718,-6.80596,-0.27468,-0.7019599999999999,0.93224859,-0.29858322,0.15649374
1764763279.8229718,-6.89752,0.06104,-1.2971,0.93285894,-0.298766325,0.15649374
1764763279.8229718,-6.89752,0.06104,-1.2971,0.93285894,-0.298766325,0.15649374
1764763279.8229718,-6.89752,0.06104,-1.2971,0.93285894,-0.298766325,0.15649374
1764763279.8229718,-6.89752,0.06104,-1.2971,0.93285894,-0.298766325,0.15649374
1764763279.8229718,-6.89752,0.06104,-1.2971,0.93285894,-0.298766325,0.15649374
1764763279.8229718,-6.89752,0.06104,-1.2971,0.93285894,-0.298766325,0.15649374
1764763279.8229718,-6.89752,0.06104,-1.2971,0.93285894,-0.298766325,0.15649374
1764763279.8229718,-6.89752,0.06104,-1.2971,0.93285894,-0.298766325,0.15649374
1764763279.8229718,-6.89752,0.06104,-1.2971,0.93285894,-0.298766325,0.15649374
1764763279.8229718,-6.89752,0.06104,-1.2971,0.93285894,-0.298766325,0.15649374
1764763279.8229718,-6.59232,-0.01526,-1.6633399999999998,0.933286185,-0.298400115,0.155089935
1764763279.8229718,-6.59232,-0.01526,-1.6633399999999998,0.933286185,-0.298400115,0.155089935
1764763279.8229718,-6.59232,-0.01526,-1.6633399999999998,0.933286185,-0.298400115,0.155089935
1764763279.8229718,-6.59232,-0.01526,-1.6633399999999998,0.933286185,-0.298400115,0.155089935
1764763279.8229718,-6.59232,-0.01526,-1.6633399999999998,0.933286185,-0.298400115,0.155089935
1764763279.82349,-6.59232,-0.01526,-1.6633399999999998,0.933286185,-0.298400115,0.155089935
1764763279.872341,-6.59232,-0.01526,-1.6633399999999998,0.933286185,-0.298400115,0.155089935
1764763279.8728502,-6.59232,-0.01526,-1.6633399999999998,0.933286185,-0.298400115,0.155089935
1764763279.8728502,-6.59232,-0.01526,-1.6633399999999998,0.933286185,-0.298400115,0.155089935
1764763279.8728502,-6.59232,-0.01526,-1.6633399999999998,0.933286185,-0.298400115,0.155089935
1764763279.8728502,-6.36342,0.36624,-1.55652,0.933896535,-0.297911835,0.15429648
1764763279.8733356,-6.36342,0.36624,-1.55652,0.933896535,-0.297911835,0.15429648
1764763279.8733356,-6.36342,0.36624,-1.55652,0.933896535,-0.297911835,0.15429648
1764763279.8733356,-6.36342,0.36624,-1.55652,0.933896535,-0.297911835,0.15429648
1764763279.8733356,-6.36342,0.36624,-1.55652,0.933896535,-0.297911835,0.15429648
1764763279.8733356,-6.36342,0.36624,-1.55652,0.933896535,-0.297911835,0.15429648
1764763279.8733356,-6.36342,0.36624,-1.55652,0.933896535,-0.297911835,0.15429648
1764763279.8733356,-6.36342,0.36624,-1.55652,0.933896535,-0.297911835,0.15429648
1764763279.8733356,-6.36342,0.36624,-1.55652,0.933896535,-0.297911835,0.15429648
1764763279.8738508,-6.36342,0.36624,-1.55652,0.933896535,-0.297911835,0.15429648
1764763279.8738508,-6.4855,0.10682,-0.94612,0.93237066,-0.297545625,0.15295371
1764763279.8738508,-6.4855,0.10682,-0.94612,0.93237066,-0.297545625,0.15295371
1764763279.8738508,-6.4855,0.10682,-0.94612,0.93237066,-0.297545625,0.15295371
1764763279.8738508,-6.4855,0.10682,-0.94612,0.93237066,-0.297545625,0.15295371
1764763279.8738508,-6.4855,0.10682,-0.94612,0.93237066,-0.297545625,0.15295371
1764763279.8738508,-6.4855,0.10682,-0.94612,0.93237066,-0.297545625,0.15295371
1764763279.8738508,-6.4855,0.10682,-0.94612,0.93237066,-0.297545625,0.15295371
1764763279.8738508,-6.4855,0.10682,-0.94612,0.93237066,-0.297545625,0.15295371
1764763279.8738508,-6.4855,0.10682,-0.94612,0.93237066,-0.297545625,0.15295371
1764763279.8738508,-6.4855,0.10682,-0.94612,0.93237066,-0.297545625,0.15295371
1764763279.91619,-5.7988,-0.0762999999999999,-0.79352,0.931821345,-0.29711838,0.15283164
1764763279.9167027,-5.7988,-0.0762999999999999,-0.79352,0.931821345,-0.29711838,0.15283164
1764763279.9167027,-5.7988,-0.0762999999999999,-0.79352,0.931821345,-0.29711838,0.15283164
1764763279.9167027,-5.7988,-0.0762999999999999,-0.79352,0.931821345,-0.29711838,0.15283164
1764763279.9167027,-5.7988,-0.0762999999999999,-0.79352,0.931821345,-0.29711838,0.15283164
1764763279.9167027,-5.7988,-0.0762999999999999,-0.79352,0.931821345,-0.29711838,0.15283164
1764763279.9167027,-5.7988,-0.0762999999999999,-0.79352,0.931821345,-0.29711838,0.15283164
1764763279.9167027,-5.7988,-0.0762999999999999,-0.79352,0.931821345,-0.29711838,0.15283164
1764763279.9167027,-5.7988,-0.0762999999999999,-0.79352,0.931821345,-0.29711838,0.15283164
1764763279.9167027,-5.7988,-0.0762999999999999,-0.79352,0.931821345,-0.29711838,0.15283164
1764763279.9167027,-5.27996,-0.1525999999999999,-1.00716,0.933530325,-0.296569065,0.152526465
1764763279.9167027,-5.27996,-0.1525999999999999,-1.00716,0.933530325,-0.296569065,0.152526465
1764763279.9167027,-5.27996,-0.1525999999999999,-1.00716,0.933530325,-0.296569065,0.152526465
1764763279.9167027,-5.27996,-0.1525999999999999,-1.00716,0.933530325,-0.296569065,0.152526465
1764763279.9167027,-5.27996,-0.1525999999999999,-1.00716,0.933530325,-0.296569065,0.152526465
1764763279.9167027,-5.27996,-0.1525999999999999,-1.00716,0.933530325,-0.296569065,0.152526465
1764763279.9167027,-5.27996,-0.1525999999999999,-1.00716,0.933530325,-0.296569065,0.152526465
1764763279.9167027,-5.27996,-0.1525999999999999,-1.00716,0.933530325,-0.296569065,0.152526465
1764763279.9167027,-5.27996,-0.1525999999999999,-1.00716,0.933530325,-0.296569065,0.152526465
1764763279.9167027,-5.27996,-0.1525999999999999,-1.00716,0.933530325,-0.296569065,0.152526465
1764763279.9177203,-5.08158,0.62566,-0.82404,0.935117235,-0.29601975,0.15185508
1764763279.9177203,-5.08158,0.62566,-0.82404,0.935117235,-0.29601975,0.15185508
1764763279.9177203,-5.08158,0.62566,-0.82404,0.935117235,-0.29601975,0.15185508
1764763279.9177203,-5.08158,0.62566,-0.82404,0.935117235,-0.29601975,0.15185508
1764763279.9649675,-5.08158,0.62566,-0.82404,0.935117235,-0.29601975,0.15185508
1764763279.9649675,-5.08158,0.62566,-0.82404,0.935117235,-0.29601975,0.15185508
1764763279.9649675,-5.08158,0.62566,-0.82404,0.935117235,-0.29601975,0.15185508
1764763279.9649675,-5.08158,0.62566,-0.82404,0.935117235,-0.29601975,0.15185508
1764763279.9649675,-5.08158,0.62566,-0.82404,0.935117235,-0.29601975,0.15185508
1764763279.9649675,-5.08158,0.62566,-0.82404,0.935117235,-0.29601975,0.15185508
1764763279.9649675,-4.47118,1.55652,-0.18312,0.935483445,-0.296569065,0.151549905
1764763279.965973,-4.47118,1.55652,-0.18312,0.935483445,-0.296569065,0.151549905
1764763279.965973,-4.47118,1.55652,-0.18312,0.935483445,-0.296569065,0.151549905
1764763279.965973,-4.47118,1.55652,-0.18312,0.935483445,-0.296569065,0.151549905
1764763279.965973,-4.47118,1.55652,-0.18312,0.935483445,-0.296569065,0.151549905
1764763279.965973,-4.47118,1.55652,-0.18312,0.935483445,-0.296569065,0.151549905
1764763279.965973,-4.47118,1.55652,-0.18312,0.935483445,-0.296569065,0.151549905
1764763279.965973,-4.47118,1.55652,-0.18312,0.935483445,-0.296569065,0.151549905
1764763279.965973,-4.47118,1.55652,-0.18312,0.935483445,-0.296569065,0.151549905
1764763279.965973,-4.47118,1.55652,-0.18312,0.935483445,-0.296569065,0.151549905
1764763279.965973,-4.45592,1.02242,0.62566,0.935361375,-0.295958715,0.15161094
1764763279.965973,-4.45592,1.02242,0.62566,0.935361375,-0.295958715,0.15161094
1764763279.965973,-4.45592,1.02242,0.62566,0.935361375,-0.295958715,0.15161094
1764763279.965973,-4.45592,1.02242,0.62566,0.935361375,-0.295958715,0.15161094
1764763279.965973,-4.45592,1.02242,0.62566,0.935361375,-0.295958715,0.15161094
1764763279.965973,-4.45592,1.02242,0.62566,0.935361375,-0.295958715,0.15161094
1764763280.0097582,-4.45592,1.02242,0.62566,0.935361375,-0.295958715,0.15161094
1764763280.0097582,-4.45592,1.02242,0.62566,0.935361375,-0.295958715,0.15161094
1764763280.0097582,-4.45592,1.02242,0.62566,0.935361375,-0.295958715,0.15161094
1764763280.0097582,-4.45592,1.02242,0.62566,0.935361375,-0.295958715,0.15161094
1764763280.0097582,-4.94424,0.3815,0.3204599999999999,0.93468999,-0.29553147,0.150939555
1764763280.0097582,-4.94424,0.3815,0.3204599999999999,0.93468999,-0.29553147,0.150939555
1764763280.0097582,-4.94424,0.3815,0.3204599999999999,0.93468999,-0.29553147,0.150939555
1764763280.0107722,-4.94424,0.3815,0.3204599999999999,0.93468999,-0.29553147,0.150939555
1764763280.0107722,-4.94424,0.3815,0.3204599999999999,0.93468999,-0.29553147,0.150939555
1764763280.0107722,-4.94424,0.3815,0.3204599999999999,0.93468999,-0.29553147,0.150939555
1764763280.0107722,-4.94424,0.3815,0.3204599999999999,0.93468999,-0.29553147,0.150939555
1764763280.0107722,-4.94424,0.3815,0.3204599999999999,0.93468999,-0.29553147,0.150939555
1764763280.0107722,-4.94424,0.3815,0.3204599999999999,0.93468999,-0.29553147,0.150939555
1764763280.0107722,-4.94424,0.3815,0.3204599999999999,0.93468999,-0.29553147,0.150939555
1764763280.0107722,-4.822159999999999,0.44254,-0.41202,0.936460005,-0.29394456,0.151916115
1764763280.0117767,-4.822159999999999,0.44254,-0.41202,0.936460005,-0.29394456,0.151916115
1764763280.0117767,-4.822159999999999,0.44254,-0.41202,0.936460005,-0.29394456,0.151916115
1764763280.0117767,-4.822159999999999,0.44254,-0.41202,0.936460005,-0.29394456,0.151916115
1764763280.0117767,-4.822159999999999,0.44254,-0.41202,0.936460005,-0.29394456,0.151916115
1764763280.0117767,-4.822159999999999,0.44254,-0.41202,0.936460005,-0.29394456,0.151916115
1764763280.0117767,-4.822159999999999,0.44254,-0.41202,0.936460005,-0.29394456,0.151916115
1764763280.0117767,-4.822159999999999,0.44254,-0.41202,0.936460005,-0.29394456,0.151916115
1764763280.0117767,-4.822159999999999,0.44254,-0.41202,0.936460005,-0.29394456,0.151916115
1764763280.0117767,-4.822159999999999,0.44254,-0.41202,0.936460005,-0.29394456,0.151916115
1764763280.0585182,-4.47118,1.25132,-0.2289,0.93713139,-0.294005595,0.15307578
1764763280.0585182,-4.47118,1.25132,-0.2289,0.93713139,-0.294005595,0.15307578
1764763280.0585182,-4.47118,1.25132,-0.2289,0.93713139,-0.294005595,0.15307578
1764763280.0585182,-4.47118,1.25132,-0.2289,0.93713139,-0.294005595,0.15307578
1764763280.0585182,-4.47118,1.25132,-0.2289,0.93713139,-0.294005595,0.15307578
1764763280.0585182,-4.47118,1.25132,-0.2289,0.93713139,-0.294005595,0.15307578
1764763280.0585182,-4.47118,1.25132,-0.2289,0.93713139,-0.294005595,0.15307578
1764763280.0585182,-4.47118,1.25132,-0.2289,0.93713139,-0.294005595,0.15307578
1764763280.0585182,-4.47118,1.25132,-0.2289,0.93713139,-0.294005595,0.15307578
1764763280.0585182,-4.47118,1.25132,-0.2289,0.93713139,-0.294005595,0.15307578
1764763280.0585182,-4.28806,1.73964,0.27468,0.935361375,-0.29321214,0.153503025
1764763280.0585182,-4.28806,1.73964,0.27468,0.935361375,-0.29321214,0.153503025
1764763280.0585182,-4.28806,1.73964,0.27468,0.935361375,-0.29321214,0.153503025
1764763280.0585182,-4.28806,1.73964,0.27468,0.935361375,-0.29321214,0.153503025
1764763280.0585182,-4.28806,1.73964,0.27468,0.935361375,-0.29321214,0.153503025
1764763280.0585182,-4.28806,1.73964,0.27468,0.935361375,-0.29321214,0.153503025
1764763280.0585182,-4.28806,1.73964,0.27468,0.935361375,-0.29321214,0.153503025
1764763280.0585182,-4.28806,1.73964,0.27468,0.935361375,-0.29321214,0.153503025
1764763280.0585182,-4.28806,1.73964,0.27468,0.935361375,-0.29321214,0.153503025
1764763280.0585182,-4.28806,1.73964,0.27468,0.935361375,-0.29321214,0.153503025
1764763280.0585182,-3.72344,0.96138,1.05294,0.93310308,-0.29309007,0.1525875
1764763280.0585182,-3.72344,0.96138,1.05294,0.93310308,-0.29309007,0.1525875
1764763280.0585182,-3.72344,0.96138,1.05294,0.93310308,-0.29309007,0.1525875
1764763280.0585182,-3.72344,0.96138,1.05294,0.93310308,-0.29309007,0.1525875
1764763280.1021008,-3.72344,0.96138,1.05294,0.93310308,-0.29309007,0.1525875
1764763280.1021008,-3.72344,0.96138,1.05294,0.93310308,-0.29309007,0.1525875
1764763280.1021008,-3.72344,0.96138,1.05294,0.93310308,-0.29309007,0.1525875
1764763280.1021008,-3.72344,0.96138,1.05294,0.93310308,-0.29309007,0.1525875
1764763280.1021008,-3.72344,0.96138,1.05294,0.93310308,-0.29309007,0.1525875
1764763280.1021008,-3.72344,0.96138,1.05294,0.93310308,-0.29309007,0.1525875
1764763280.1021008,-3.46402,-0.27468,1.2055399999999998,0.93163824,-0.29309007,0.15209922
1764763280.1021008,-3.46402,-0.27468,1.2055399999999998,0.93163824,-0.29309007,0.15209922
1764763280.1021008,-3.46402,-0.27468,1.2055399999999998,0.93163824,-0.29309007,0.15209922
1764763280.1021008,-3.46402,-0.27468,1.2055399999999998,0.93163824,-0.29309007,0.15209922
1764763280.1021008,-3.46402,-0.27468,1.2055399999999998,0.93163824,-0.29309007,0.15209922
1764763280.1021008,-3.46402,-0.27468,1.2055399999999998,0.93163824,-0.29309007,0.15209922
1764763280.103162,-3.46402,-0.27468,1.2055399999999998,0.93163824,-0.29309007,0.15209922
1764763280.103162,-3.46402,-0.27468,1.2055399999999998,0.93163824,-0.29309007,0.15209922
1764763280.103162,-3.46402,-0.27468,1.2055399999999998,0.93163824,-0.29309007,0.15209922
1764763280.103162,-3.46402,-0.27468,1.2055399999999998,0.93163824,-0.29309007,0.15209922
1764763280.103162,-3.60136,-1.2208,1.58704,0.930478575,-0.294127665,0.151671975
1764763280.103162,-3.60136,-1.2208,1.58704,0.930478575,-0.294127665,0.151671975
1764763280.103162,-3.60136,-1.2208,1.58704,0.930478575,-0.294127665,0.151671975
1764763280.103162,-3.60136,-1.2208,1.58704,0.930478575,-0.294127665,0.151671975
1764763280.103162,-3.60136,-1.2208,1.58704,0.930478575,-0.294127665,0.151671975
1764763280.103162,-3.60136,-1.2208,1.58704,0.930478575,-0.294127665,0.151671975
1764763280.15056,-3.60136,-1.2208,1.58704,0.930478575,-0.294127665,0.151671975
1764763280.15056,-3.60136,-1.2208,1.58704,0.930478575,-0.294127665,0.151671975
1764763280.15056,-3.60136,-1.2208,1.58704,0.930478575,-0.294127665,0.151671975
1764763280.15056,-3.60136,-1.2208,1.58704,0.930478575,-0.294127665,0.151671975
1764763280.15056,-2.289,-0.25942,2.31952,0.93346929,-0.296202855,0.15234336
1764763280.15056,-2.289,-0.25942,2.31952,0.93346929,-0.296202855,0.15234336
1764763280.15056,-2.289,-0.25942,2.31952,0.93346929,-0.296202855,0.15234336
1764763280.1515906,-2.289,-0.25942,2.31952,0.93346929,-0.296202855,0.15234336
1764763280.1515906,-2.289,-0.25942,2.31952,0.93346929,-0.296202855,0.15234336
1764763280.1515906,-2.289,-0.25942,2.31952,0.93346929,-0.296202855,0.15234336
1764763280.1515906,-2.289,-0.25942,2.31952,0.93346929,-0.296202855,0.15234336
1764763280.1515906,-2.289,-0.25942,2.31952,0.93346929,-0.296202855,0.15234336
1764763280.1515906,-2.289,-0.25942,2.31952,0.93346929,-0.296202855,0.15234336
1764763280.1515906,-2.289,-0.25942,2.31952,0.93346929,-0.296202855,0.15234336
1764763280.1515906,-3.57084,1.6022999999999998,3.2809,0.93847416,-0.294615945,0.1525875
1764763280.1515906,-3.57084,1.6022999999999998,3.2809,0.93847416,-0.294615945,0.1525875
1764763280.1515906,-3.57084,1.6022999999999998,3.2809,0.93847416,-0.294615945,0.1525875
1764763280.1515906,-3.57084,1.6022999999999998,3.2809,0.93847416,-0.294615945,0.1525875
1764763280.1515906,-3.57084,1.6022999999999998,3.2809,0.93847416,-0.294615945,0.1525875
1764763280.1526115,-3.57084,1.6022999999999998,3.2809,0.93847416,-0.294615945,0.1525875
1764763280.1526115,-3.57084,1.6022999999999998,3.2809,0.93847416,-0.294615945,0.1525875
1764763280.1526115,-3.57084,1.6022999999999998,3.2809,0.93847416,-0.294615945,0.1525875
1764763280.1526115,-3.57084,1.6022999999999998,3.2809,0.93847416,-0.294615945,0.1525875
1764763280.1526115,-3.57084,1.6022999999999998,3.2809,0.93847416,-0.294615945,0.1525875
1764763280.1959493,-6.24134,1.9838,3.44876,0.93737553,-0.291808335,0.15197715
1764763280.1959493,-6.24134,1.9838,3.44876,0.93737553,-0.291808335,0.15197715
1764763280.1959493,-6.24134,1.9838,3.44876,0.93737553,-0.291808335,0.15197715
1764763280.1959493,-6.24134,1.9838,3.44876,0.93737553,-0.291808335,0.15197715
1764763280.1959493,-6.24134,1.9838,3.44876,0.93737553,-0.291808335,0.15197715
1764763280.1964676,-6.24134,1.9838,3.44876,0.93737553,-0.291808335,0.15197715
1764763280.1964676,-6.24134,1.9838,3.44876,0.93737553,-0.291808335,0.15197715
1764763280.1964676,-6.24134,1.9838,3.44876,0.93737553,-0.291808335,0.15197715
1764763280.1964676,-6.24134,1.9838,3.44876,0.93737553,-0.291808335,0.15197715
1764763280.1964676,-6.24134,1.9838,3.44876,0.93737553,-0.291808335,0.15197715
1764763280.1964676,-7.446879999999999,0.6867,4.22702,0.93395757,-0.293883525,0.153014745
1764763280.1964676,-7.446879999999999,0.6867,4.22702,0.93395757,-0.293883525,0.153014745
1764763280.1964676,-7.446879999999999,0.6867,4.22702,0.93395757,-0.293883525,0.153014745
1764763280.1964676,-7.446879999999999,0.6867,4.22702,0.93395757,-0.293883525,0.153014745
1764763280.1964676,-7.446879999999999,0.6867,4.22702,0.93395757,-0.293883525,0.153014745
1764763280.1964676,-7.446879999999999,0.6867,4.22702,0.93395757,-0.293883525,0.153014745
1764763280.1964676,-7.446879999999999,0.6867,4.22702,0.93395757,-0.293883525,0.153014745
1764763280.1964676,-7.446879999999999,0.6867,4.22702,0.93395757,-0.293883525,0.153014745
1764763280.1974957,-7.446879999999999,0.6867,4.22702,0.93395757,-0.293883525,0.153014745
1764763280.1974957,-7.446879999999999,0.6867,4.22702,0.93395757,-0.293883525,0.153014745
1764763280.1974957,-7.202719999999999,-2.27374,4.22702,0.92931891,-0.29601975,0.15405234
1764763280.1974957,-7.202719999999999,-2.27374,4.22702,0.92931891,-0.29601975,0.15405234
1764763280.1974957,-7.202719999999999,-2.27374,4.22702,0.92931891,-0.29601975,0.15405234
1764763280.1974957,-7.202719999999999,-2.27374,4.22702,0.92931891,-0.29601975,0.15405234
1764763280.240927,-7.202719999999999,-2.27374,4.22702,0.92931891,-0.29601975,0.15405234
1764763280.240927,-7.202719999999999,-2.27374,4.22702,0.92931891,-0.29601975,0.15405234
1764763280.240927,-7.202719999999999,-2.27374,4.22702,0.92931891,-0.29601975,0.15405234
1764763280.240927,-7.202719999999999,-2.27374,4.22702,0.92931891,-0.29601975,0.15405234
1764763280.240927,-7.202719999999999,-2.27374,4.22702,0.92931891,-0.29601975,0.15405234
1764763280.240927,-7.202719999999999,-2.27374,4.22702,0.92931891,-0.29601975,0.15405234
1764763280.240927,-7.49266,-4.45592,3.87604,0.92785407,-0.298155975,0.154723725
1764763280.240927,-7.49266,-4.45592,3.87604,0.92785407,-0.298155975,0.154723725
1764763280.240927,-7.49266,-4.45592,3.87604,0.92785407,-0.298155975,0.154723725
1764763280.240927,-7.49266,-4.45592,3.87604,0.92785407,-0.298155975,0.154723725
1764763280.240927,-7.49266,-4.45592,3.87604,0.92785407,-0.298155975,0.154723725
1764763280.240927,-7.49266,-4.45592,3.87604,0.92785407,-0.298155975,0.154723725
1764763280.240927,-7.49266,-4.45592,3.87604,0.92785407,-0.298155975,0.154723725
1764763280.240927,-7.49266,-4.45592,3.87604,0.92785407,-0.298155975,0.154723725
1764763280.240927,-7.49266,-4.45592,3.87604,0.92785407,-0.298155975,0.154723725
1764763280.240927,-7.49266,-4.45592,3.87604,0.92785407,-0.298155975,0.154723725
1764763280.240927,-6.80596,-5.340999999999999,4.1202,0.929013735,-0.299620815,0.156066495
1764763280.240927,-6.80596,-5.340999999999999,4.1202,0.929013735,-0.299620815,0.156066495
1764763280.240927,-6.80596,-5.340999999999999,4.1202,0.929013735,-0.299620815,0.156066495
1764763280.240927,-6.80596,-5.340999999999999,4.1202,0.929013735,-0.299620815,0.156066495
1764763280.240927,-6.80596,-5.340999999999999,4.1202,0.929013735,-0.299620815,0.156066495
1764763280.240927,-6.80596,-5.340999999999999,4.1202,0.929013735,-0.299620815,0.156066495
1764763280.2876706,-6.80596,-5.340999999999999,4.1202,0.929013735,-0.299620815,0.156066495
1764763280.2876706,-6.80596,-5.340999999999999,4.1202,0.929013735,-0.299620815,0.156066495
1764763280.2876706,-6.80596,-5.340999999999999,4.1202,0.929013735,-0.299620815,0.156066495
1764763280.2876706,-6.80596,-5.340999999999999,4.1202,0.929013735,-0.299620815,0.156066495
1764763280.2876706,-7.08064,-6.134519999999999,4.21176,0.928891665,-0.300841515,0.15612753
1764763280.2876706,-7.08064,-6.134519999999999,4.21176,0.928891665,-0.300841515,0.15612753
1764763280.2876706,-7.08064,-6.134519999999999,4.21176,0.928891665,-0.300841515,0.15612753
1764763280.2876706,-7.08064,-6.134519999999999,4.21176,0.928891665,-0.300841515,0.15612753
1764763280.2886982,-7.08064,-6.134519999999999,4.21176,0.928891665,-0.300841515,0.15612753
1764763280.2886982,-7.08064,-6.134519999999999,4.21176,0.928891665,-0.300841515,0.15612753
1764763280.2886982,-7.08064,-6.134519999999999,4.21176,0.928891665,-0.300841515,0.15612753
1764763280.2886982,-7.08064,-6.134519999999999,4.21176,0.928891665,-0.300841515,0.15612753
1764763280.2886982,-7.08064,-6.134519999999999,4.21176,0.928891665,-0.300841515,0.15612753
1764763280.2886982,-7.08064,-6.134519999999999,4.21176,0.928891665,-0.300841515,0.15612753
1764763280.2886982,-6.653359999999999,-6.958559999999999,4.16598,0.93078375,-0.301085655,0.15527304
1764763280.2886982,-6.653359999999999,-6.958559999999999,4.16598,0.93078375,-0.301085655,0.15527304
1764763280.2886982,-6.653359999999999,-6.958559999999999,4.16598,0.93078375,-0.301085655,0.15527304
1764763280.2892046,-6.653359999999999,-6.958559999999999,4.16598,0.93078375,-0.301085655,0.15527304
1764763280.2892046,-6.653359999999999,-6.958559999999999,4.16598,0.93078375,-0.301085655,0.15527304
1764763280.2892046,-6.653359999999999,-6.958559999999999,4.16598,0.93078375,-0.301085655,0.15527304
1764763280.2892046,-6.653359999999999,-6.958559999999999,4.16598,0.93078375,-0.301085655,0.15527304
1764763280.2892046,-6.653359999999999,-6.958559999999999,4.16598,0.93078375,-0.301085655,0.15527304
1764763280.2892046,-6.653359999999999,-6.958559999999999,4.16598,0.93078375,-0.301085655,0.15527304
1764763280.2892046,-6.653359999999999,-6.958559999999999,4.16598,0.93078375,-0.301085655,0.15527304
1764763280.3344774,-8.255659999999999,-7.965719999999999,3.34194,0.931577205,-0.300353235,0.153380955
1764763280.3344774,-8.255659999999999,-7.965719999999999,3.34194,0.931577205,-0.300353235,0.153380955
1764763280.3344774,-8.255659999999999,-7.965719999999999,3.34194,0.931577205,-0.300353235,0.153380955
1764763280.3350112,-8.255659999999999,-7.965719999999999,3.34194,0.931577205,-0.300353235,0.153380955
1764763280.3350112,-8.255659999999999,-7.965719999999999,3.34194,0.931577205,-0.300353235,0.153380955
1764763280.3350112,-8.255659999999999,-7.965719999999999,3.34194,0.931577205,-0.300353235,0.153380955
1764763280.3350112,-8.255659999999999,-7.965719999999999,3.34194,0.931577205,-0.300353235,0.153380955
1764763280.3350112,-8.255659999999999,-7.965719999999999,3.34194,0.931577205,-0.300353235,0.153380955
1764763280.3360288,-8.255659999999999,-7.965719999999999,3.34194,0.931577205,-0.300353235,0.153380955
1764763280.3360288,-8.255659999999999,-7.965719999999999,3.34194,0.931577205,-0.300353235,0.153380955
1764763280.3360288,-9.75114,-8.30144,2.92992,0.9313941,-0.29968185,0.15112266
1764763280.3360288,-9.75114,-8.30144,2.92992,0.9313941,-0.29968185,0.15112266
1764763280.3360288,-9.75114,-8.30144,2.92992,0.9313941,-0.29968185,0.15112266
1764763280.3360288,-9.75114,-8.30144,2.92992,0.9313941,-0.29968185,0.15112266
1764763280.3360288,-9.75114,-8.30144,2.92992,0.9313941,-0.29968185,0.15112266
1764763280.3360288,-9.75114,-8.30144,2.92992,0.9313941,-0.29968185,0.15112266
1764763280.3360288,-9.75114,-8.30144,2.92992,0.9313941,-0.29968185,0.15112266
1764763280.3360288,-9.75114,-8.30144,2.92992,0.9313941,-0.29968185,0.15112266
1764763280.3360288,-9.75114,-8.30144,2.92992,0.9313941,-0.29968185,0.15112266
1764763280.3360288,-9.75114,-8.30144,2.92992,0.9313941,-0.29968185,0.15112266
1764763280.3360288,-11.88754,-8.14884,3.052,0.93114996,-0.299376675,0.148742295
1764763280.3360288,-11.88754,-8.14884,3.052,0.93114996,-0.299376675,0.148742295
1764763280.3815477,-11.88754,-8.14884,3.052,0.93114996,-0.299376675,0.148742295
1764763280.3815477,-11.88754,-8.14884,3.052,0.93114996,-0.299376675,0.148742295
1764763280.3815477,-11.88754,-8.14884,3.052,0.93114996,-0.299376675,0.148742295
1764763280.3815477,-11.88754,-8.14884,3.052,0.93114996,-0.299376675,0.148742295
1764763280.3815477,-11.88754,-8.14884,3.052,0.93114996,-0.299376675,0.148742295
1764763280.3815477,-11.88754,-8.14884,3.052,0.93114996,-0.299376675,0.148742295
1764763280.3815477,-11.88754,-8.14884,3.052,0.93114996,-0.299376675,0.148742295
1764763280.3815477,-11.88754,-8.14884,3.052,0.93114996,-0.299376675,0.148742295
1764763280.3815477,-13.13886,-8.42352,3.54032,0.932187555,-0.299254605,0.14587365
1764763280.3815477,-13.13886,-8.42352,3.54032,0.932187555,-0.299254605,0.14587365
1764763280.3815477,-13.13886,-8.42352,3.54032,0.932187555,-0.299254605,0.14587365
1764763280.3815477,-13.13886,-8.42352,3.54032,0.932187555,-0.299254605,0.14587365
1764763280.3815477,-13.13886,-8.42352,3.54032,0.932187555,-0.299254605,0.14587365
1764763280.3815477,-13.13886,-8.42352,3.54032,0.932187555,-0.299254605,0.14587365
1764763280.3815477,-13.13886,-8.42352,3.54032,0.932187555,-0.299254605,0.14587365
1764763280.3815477,-13.13886,-8.42352,3.54032,0.932187555,-0.299254605,0.14587365
1764763280.3825607,-13.13886,-8.42352,3.54032,0.932187555,-0.299254605,0.14587365
1764763280.3825607,-13.13886,-8.42352,3.54032,0.932187555,-0.299254605,0.14587365
1764763280.3825607,-14.5733,-9.11022,3.79974,0.93237066,-0.297545625,0.142760865
1764763280.3825607,-14.5733,-9.11022,3.79974,0.93237066,-0.297545625,0.142760865
1764763280.3825607,-14.5733,-9.11022,3.79974,0.93237066,-0.297545625,0.142760865
1764763280.3825607,-14.5733,-9.11022,3.79974,0.93237066,-0.297545625,0.142760865
1764763280.3825607,-14.5733,-9.11022,3.79974,0.93237066,-0.297545625,0.142760865
1764763280.3825607,-14.5733,-9.11022,3.79974,0.93237066,-0.297545625,0.142760865
1764763280.4283829,-14.5733,-9.11022,3.79974,0.93237066,-0.297545625,0.142760865
1764763280.4283829,-14.5733,-9.11022,3.79974,0.93237066,-0.297545625,0.142760865
1764763280.4283829,-14.5733,-9.11022,3.79974,0.93237066,-0.297545625,0.142760865
1764763280.4283829,-14.5733,-9.11022,3.79974,0.93237066,-0.297545625,0.142760865
1764763280.4283829,-15.96196,-9.49172,4.577999999999999,0.93298101,-0.29821701,0.13989222
1764763280.4283829,-15.96196,-9.49172,4.577999999999999,0.93298101,-0.29821701,0.13989222
1764763280.4283829,-15.96196,-9.49172,4.577999999999999,0.93298101,-0.29821701,0.13989222
1764763280.4283829,-15.96196,-9.49172,4.577999999999999,0.93298101,-0.29821701,0.13989222
1764763280.4283829,-15.96196,-9.49172,4.577999999999999,0.93298101,-0.29821701,0.13989222
1764763280.4283829,-15.96196,-9.49172,4.577999999999999,0.93298101,-0.29821701,0.13989222
1764763280.4283829,-15.96196,-9.49172,4.577999999999999,0.93298101,-0.29821701,0.13989222
1764763280.4283829,-15.96196,-9.49172,4.577999999999999,0.93298101,-0.29821701,0.13989222
1764763280.4283829,-15.96196,-9.49172,4.577999999999999,0.93298101,-0.29821701,0.13989222
1764763280.4283829,-15.96196,-9.49172,4.577999999999999,0.93298101,-0.29821701,0.13989222
1764763280.4283829,-16.160339999999998,-9.5375,4.37962,0.932553765,-0.29980392,0.137511855
1764763280.4283829,-16.160339999999998,-9.5375,4.37962,0.932553765,-0.29980392,0.137511855
1764763280.4283829,-16.160339999999998,-9.5375,4.37962,0.932553765,-0.29980392,0.137511855
1764763280.4283829,-16.160339999999998,-9.5375,4.37962,0.932553765,-0.29980392,0.137511855
1764763280.4283829,-16.160339999999998,-9.5375,4.37962,0.932553765,-0.29980392,0.137511855
1764763280.4283829,-16.160339999999998,-9.5375,4.37962,0.932553765,-0.29980392,0.137511855
1764763280.4283829,-16.160339999999998,-9.5375,4.37962,0.932553765,-0.29980392,0.137511855
1764763280.4283829,-16.160339999999998,-9.5375,4.37962,0.932553765,-0.29980392,0.137511855
1764763280.480015,-16.160339999999998,-9.5375,4.37962,0.932553765,-0.29980392,0.137511855
1764763280.480015,-16.160339999999998,-9.5375,4.37962,0.932553765,-0.29980392,0.137511855
1764763280.480015,-15.931439999999998,-9.14074,4.39488,0.935239305,-0.30297774,0.135192525
1764763280.480015,-15.931439999999998,-9.14074,4.39488,0.935239305,-0.30297774,0.135192525
1764763280.480015,-15.931439999999998,-9.14074,4.39488,0.935239305,-0.30297774,0.135192525
1764763280.480015,-15.931439999999998,-9.14074,4.39488,0.935239305,-0.30297774,0.135192525
1764763280.480015,-15.931439999999998,-9.14074,4.39488,0.935239305,-0.30297774,0.135192525
1764763280.480015,-15.931439999999998,-9.14074,4.39488,0.935239305,-0.30297774,0.135192525
1764763280.480015,-15.931439999999998,-9.14074,4.39488,0.935239305,-0.30297774,0.135192525
1764763280.480015,-15.931439999999998,-9.14074,4.39488,0.935239305,-0.30297774,0.135192525
1764763280.480015,-15.931439999999998,-9.14074,4.39488,0.935239305,-0.30297774,0.135192525
1764763280.480015,-15.931439999999998,-9.14074,4.39488,0.935239305,-0.30297774,0.135192525
1764763280.480015,-15.4126,-8.37774,3.63188,0.93713139,-0.30554121,0.133483545
1764763280.480015,-15.4126,-8.37774,3.63188,0.93713139,-0.30554121,0.133483545
1764763280.480015,-15.4126,-8.37774,3.63188,0.93713139,-0.30554121,0.133483545
1764763280.480015,-15.4126,-8.37774,3.63188,0.93713139,-0.30554121,0.133483545
1764763280.480015,-15.4126,-8.37774,3.63188,0.93713139,-0.30554121,0.133483545
1764763280.480015,-15.4126,-8.37774,3.63188,0.93713139,-0.30554121,0.133483545
1764763280.480015,-15.4126,-8.37774,3.63188,0.93713139,-0.30554121,0.133483545
1764763280.480015,-15.4126,-8.37774,3.63188,0.93713139,-0.30554121,0.133483545
1764763280.480015,-15.4126,-8.37774,3.63188,0.93713139,-0.30554121,0.133483545
1764763280.480015,-15.4126,-8.37774,3.63188,0.93713139,-0.30554121,0.133483545
1764763280.480015,-14.1918,-7.828379999999999,3.34194,0.934873095,-0.308653995,0.13098111
1764763280.480015,-14.1918,-7.828379999999999,3.34194,0.934873095,-0.308653995,0.13098111
1764763280.480015,-14.1918,-7.828379999999999,3.34194,0.934873095,-0.308653995,0.13098111
1764763280.480015,-14.1918,-7.828379999999999,3.34194,0.934873095,-0.308653995,0.13098111
1764763280.5235698,-14.1918,-7.828379999999999,3.34194,0.934873095,-0.308653995,0.13098111
1764763280.5294273,-14.1918,-7.828379999999999,3.34194,0.934873095,-0.308653995,0.13098111
1764763280.5304277,-14.1918,-7.828379999999999,3.34194,0.934873095,-0.308653995,0.13098111
1764763280.5304277,-14.1918,-7.828379999999999,3.34194,0.934873095,-0.308653995,0.13098111
1764763280.5304277,-14.1918,-7.828379999999999,3.34194,0.934873095,-0.308653995,0.13098111
1764763280.5304277,-14.1918,-7.828379999999999,3.34194,0.934873095,-0.308653995,0.13098111
1764763280.5304277,-13.21516,-7.59948,3.54032,0.937070355,-0.31188885,0.128844885
1764763280.5304277,-13.21516,-7.59948,3.54032,0.937070355,-0.31188885,0.128844885
1764763280.5304277,-13.21516,-7.59948,3.54032,0.937070355,-0.31188885,0.128844885
1764763280.5314102,-13.21516,-7.59948,3.54032,0.937070355,-0.31188885,0.128844885
1764763280.5314102,-13.21516,-7.59948,3.54032,0.937070355,-0.31188885,0.128844885
1764763280.5314102,-13.21516,-7.59948,3.54032,0.937070355,-0.31188885,0.128844885
1764763280.5314102,-13.21516,-7.59948,3.54032,0.937070355,-0.31188885,0.128844885
1764763280.5314102,-13.21516,-7.59948,3.54032,0.937070355,-0.31188885,0.128844885
1764763280.5314102,-13.21516,-7.59948,3.54032,0.937070355,-0.31188885,0.128844885
1764763280.5314102,-13.21516,-7.59948,3.54032,0.937070355,-0.31188885,0.128844885
1764763280.5314102,-13.26094,-7.81312,2.92992,0.93774174,-0.312194025,0.125182785
1764763280.5314102,-13.26094,-7.81312,2.92992,0.93774174,-0.312194025,0.125182785
1764763280.5314102,-13.26094,-7.81312,2.92992,0.93774174,-0.312194025,0.125182785
1764763280.5314102,-13.26094,-7.81312,2.92992,0.93774174,-0.312194025,0.125182785
1764763280.5314102,-13.26094,-7.81312,2.92992,0.93774174,-0.312194025,0.125182785
1764763280.5324266,-13.26094,-7.81312,2.92992,0.93774174,-0.312194025,0.125182785
1764763280.5709877,-13.26094,-7.81312,2.92992,0.93774174,-0.312194025,0.125182785
1764763280.5709877,-13.26094,-7.81312,2.92992,0.93774174,-0.312194025,0.125182785
1764763280.5709877,-13.26094,-7.81312,2.92992,0.93774174,-0.312194025,0.125182785
1764763280.5709877,-13.26094,-7.81312,2.92992,0.93774174,-0.312194025,0.125182785
1764763280.5709877,-14.08498,-8.392999999999999,0.9919,0.93664311,-0.309752625,0.12109344
1764763280.5709877,-14.08498,-8.392999999999999,0.9919,0.93664311,-0.309752625,0.12109344
1764763280.5709877,-14.08498,-8.392999999999999,0.9919,0.93664311,-0.309752625,0.12109344
1764763280.5709877,-14.08498,-8.392999999999999,0.9919,0.93664311,-0.309752625,0.12109344
1764763280.5709877,-14.08498,-8.392999999999999,0.9919,0.93664311,-0.309752625,0.12109344
