Timestamp,GyroX,GyroY,GyroZ,AccX,AccY,AccZ
1764763823.5003562,-16.0993,-0.24416,0.13734,0.957333975,-0.221862225,-0.209411085
1764763823.5003562,-16.0993,-0.24416,0.13734,0.957333975,-0.221862225,-0.209411085
1764763823.5003562,-16.0993,-0.24416,0.13734,0.957333975,-0.221862225,-0.209411085
1764763823.5003562,-16.0993,-0.24416,0.13734,0.957333975,-0.221862225,-0.209411085
1764763823.5003562,-18.86136,-0.56462,0.93086,0.955991205,-0.22363224,-0.210753855
1764763823.5003562,-18.86136,-0.56462,0.93086,0.955991205,-0.22363224,-0.210753855
1764763823.5003562,-18.86136,-0.56462,0.93086,0.955991205,-0.22363224,-0.210753855
1764763823.5003562,-18.86136,-0.56462,0.93086,0.955991205,-0.22363224,-0.210753855
1764763823.5003562,-18.86136,-0.56462,0.93086,0.955991205,-0.22363224,-0.210753855
1764763823.5003562,-18.86136,-0.56462,0.93086,0.955991205,-0.22363224,-0.210753855
1764763823.5003562,-18.86136,-0.56462,0.93086,0.955991205,-0.22363224,-0.210753855
1764763823.5003562,-18.86136,-0.56462,0.93086,0.955991205,-0.22363224,-0.210753855
1764763823.5003562,-18.86136,-0.56462,0.93086,0.955991205,-0.22363224,-0.210753855
1764763823.5013683,-18.86136,-0.56462,0.93086,0.955991205,-0.22363224,-0.210753855
1764763823.5013683,-20.76886,-1.95328,2.3653,0.95397705,-0.226867095,-0.211608345
1764763823.5013683,-20.76886,-1.95328,2.3653,0.95397705,-0.226867095,-0.211608345
1764763823.5013683,-20.76886,-1.95328,2.3653,0.95397705,-0.226867095,-0.211608345
1764763823.5013683,-20.76886,-1.95328,2.3653,0.95397705,-0.226867095,-0.211608345
1764763823.5013683,-20.76886,-1.95328,2.3653,0.95397705,-0.226867095,-0.211608345
1764763823.5013683,-20.76886,-1.95328,2.3653,0.95397705,-0.226867095,-0.211608345
1764763823.5472133,-20.76886,-1.95328,2.3653,0.95397705,-0.226867095,-0.211608345
1764763823.5472133,-20.76886,-1.95328,2.3653,0.95397705,-0.226867095,-0.211608345
1764763823.5472133,-20.76886,-1.95328,2.3653,0.95397705,-0.226867095,-0.211608345
1764763823.5472133,-20.76886,-1.95328,2.3653,0.95397705,-0.226867095,-0.211608345
1764763823.5472133,-20.69256,-2.31952,2.53316,0.95409912,-0.229796775,-0.21276801
1764763823.5472133,-20.69256,-2.31952,2.53316,0.95409912,-0.229796775,-0.21276801
1764763823.5472133,-20.69256,-2.31952,2.53316,0.95409912,-0.229796775,-0.21276801
1764763823.5472133,-20.69256,-2.31952,2.53316,0.95409912,-0.229796775,-0.21276801
1764763823.5472133,-20.69256,-2.31952,2.53316,0.95409912,-0.229796775,-0.21276801
1764763823.5472133,-20.69256,-2.31952,2.53316,0.95409912,-0.229796775,-0.21276801
1764763823.5472133,-20.69256,-2.31952,2.53316,0.95409912,-0.229796775,-0.21276801
1764763823.5472133,-20.69256,-2.31952,2.53316,0.95409912,-0.229796775,-0.21276801
1764763823.5472133,-20.69256,-2.31952,2.53316,0.95409912,-0.229796775,-0.21276801
1764763823.5472133,-20.69256,-2.31952,2.53316,0.95409912,-0.229796775,-0.21276801
1764763823.5472133,-18.11362,-1.6022999999999998,1.9075,0.95873778,-0.233825085,-0.21337836
1764763823.5472133,-18.11362,-1.6022999999999998,1.9075,0.95873778,-0.233825085,-0.21337836
1764763823.5472133,-18.11362,-1.6022999999999998,1.9075,0.95873778,-0.233825085,-0.21337836
1764763823.5472133,-18.11362,-1.6022999999999998,1.9075,0.95873778,-0.233825085,-0.21337836
1764763823.5472133,-18.11362,-1.6022999999999998,1.9075,0.95873778,-0.233825085,-0.21337836
1764763823.5472133,-18.11362,-1.6022999999999998,1.9075,0.95873778,-0.233825085,-0.21337836
1764763823.5472133,-18.11362,-1.6022999999999998,1.9075,0.95873778,-0.233825085,-0.21337836
1764763823.5472133,-18.11362,-1.6022999999999998,1.9075,0.95873778,-0.233825085,-0.21337836
1764763823.5482194,-18.11362,-1.6022999999999998,1.9075,0.95873778,-0.233825085,-0.21337836
1764763823.5482194,-18.11362,-1.6022999999999998,1.9075,0.95873778,-0.233825085,-0.21337836
1764763823.5482194,-13.74926,-0.24416,1.6022999999999998,0.96105711,-0.237853395,-0.21398871
1764763823.5482194,-13.74926,-0.24416,1.6022999999999998,0.96105711,-0.237853395,-0.21398871
1764763823.5909655,-13.74926,-0.24416,1.6022999999999998,0.96105711,-0.237853395,-0.21398871
1764763823.5909655,-13.74926,-0.24416,1.6022999999999998,0.96105711,-0.237853395,-0.21398871
1764763823.5909655,-13.74926,-0.24416,1.6022999999999998,0.96105711,-0.237853395,-0.21398871
1764763823.5909655,-13.74926,-0.24416,1.6022999999999998,0.96105711,-0.237853395,-0.21398871
1764763823.5909655,-13.74926,-0.24416,1.6022999999999998,0.96105711,-0.237853395,-0.21398871
1764763823.5909655,-13.74926,-0.24416,1.6022999999999998,0.96105711,-0.237853395,-0.21398871
1764763823.5909655,-13.74926,-0.24416,1.6022999999999998,0.96105711,-0.237853395,-0.21398871
1764763823.5914922,-13.74926,-0.24416,1.6022999999999998,0.96105711,-0.237853395,-0.21398871
1764763823.5914922,-10.0716,0.41202,2.42634,0.96130125,-0.24206481,-0.215880795
1764763823.5914922,-10.0716,0.41202,2.42634,0.96130125,-0.24206481,-0.215880795
1764763823.5914922,-10.0716,0.41202,2.42634,0.96130125,-0.24206481,-0.215880795
1764763823.5914922,-10.0716,0.41202,2.42634,0.96130125,-0.24206481,-0.215880795
1764763823.5914922,-10.0716,0.41202,2.42634,0.96130125,-0.24206481,-0.215880795
1764763823.5914922,-10.0716,0.41202,2.42634,0.96130125,-0.24206481,-0.215880795
1764763823.5914922,-10.0716,0.41202,2.42634,0.96130125,-0.24206481,-0.215880795
1764763823.5914922,-10.0716,0.41202,2.42634,0.96130125,-0.24206481,-0.215880795
1764763823.5914922,-10.0716,0.41202,2.42634,0.96130125,-0.24206481,-0.215880795
1764763823.5914922,-10.0716,0.41202,2.42634,0.96130125,-0.24206481,-0.215880795
1764763823.5914922,-6.6381,0.42728,3.2046,0.96105711,-0.24401793,-0.21752874
1764763823.5914922,-6.6381,0.42728,3.2046,0.96105711,-0.24401793,-0.21752874
1764763823.5914922,-6.6381,0.42728,3.2046,0.96105711,-0.24401793,-0.21752874
1764763823.5914922,-6.6381,0.42728,3.2046,0.96105711,-0.24401793,-0.21752874
1764763823.638069,-6.6381,0.42728,3.2046,0.96105711,-0.24401793,-0.21752874
1764763823.638069,-6.6381,0.42728,3.2046,0.96105711,-0.24401793,-0.21752874
1764763823.638069,-6.6381,0.42728,3.2046,0.96105711,-0.24401793,-0.21752874
1764763823.638069,-6.6381,0.42728,3.2046,0.96105711,-0.24401793,-0.21752874
1764763823.638069,-6.6381,0.42728,3.2046,0.96105711,-0.24401793,-0.21752874
1764763823.638069,-6.6381,0.42728,3.2046,0.96105711,-0.24401793,-0.21752874
1764763823.638069,-3.86078,0.9003399999999999,3.61662,0.95971434,-0.24414,-0.217467705
1764763823.638069,-3.86078,0.9003399999999999,3.61662,0.95971434,-0.24414,-0.217467705
1764763823.638069,-3.86078,0.9003399999999999,3.61662,0.95971434,-0.24414,-0.217467705
1764763823.638069,-3.86078,0.9003399999999999,3.61662,0.95971434,-0.24414,-0.217467705
1764763823.638591,-3.86078,0.9003399999999999,3.61662,0.95971434,-0.24414,-0.217467705
1764763823.638591,-3.86078,0.9003399999999999,3.61662,0.95971434,-0.24414,-0.217467705
1764763823.638591,-3.86078,0.9003399999999999,3.61662,0.95971434,-0.24414,-0.217467705
1764763823.638591,-3.86078,0.9003399999999999,3.61662,0.95971434,-0.24414,-0.217467705
1764763823.638591,-3.86078,0.9003399999999999,3.61662,0.95971434,-0.24414,-0.217467705
1764763823.638591,-3.86078,0.9003399999999999,3.61662,0.95971434,-0.24414,-0.217467705
1764763823.638591,-2.33478,0.44254,3.25038,0.956235345,-0.24023376,-0.21765081
1764763823.638591,-2.33478,0.44254,3.25038,0.956235345,-0.24023376,-0.21765081
1764763823.638591,-2.33478,0.44254,3.25038,0.956235345,-0.24023376,-0.21765081
1764763823.638591,-2.33478,0.44254,3.25038,0.956235345,-0.24023376,-0.21765081
1764763823.638591,-2.33478,0.44254,3.25038,0.956235345,-0.24023376,-0.21765081
1764763823.638591,-2.33478,0.44254,3.25038,0.956235345,-0.24023376,-0.21765081
1764763823.638591,-2.33478,0.44254,3.25038,0.956235345,-0.24023376,-0.21765081
1764763823.638591,-2.33478,0.44254,3.25038,0.956235345,-0.24023376,-0.21765081
1764763823.6854866,-2.33478,0.44254,3.25038,0.956235345,-0.24023376,-0.21765081
1764763823.6854866,-2.33478,0.44254,3.25038,0.956235345,-0.24023376,-0.21765081
1764763823.6854866,-2.16692,0.1525999999999999,1.64808,0.95556396,-0.23547303,-0.218322195
1764763823.6854866,-2.16692,0.1525999999999999,1.64808,0.95556396,-0.23547303,-0.218322195
1764763823.6854866,-2.16692,0.1525999999999999,1.64808,0.95556396,-0.23547303,-0.218322195
1764763823.6854866,-2.16692,0.1525999999999999,1.64808,0.95556396,-0.23547303,-0.218322195
1764763823.6854866,-2.16692,0.1525999999999999,1.64808,0.95556396,-0.23547303,-0.218322195
1764763823.6854866,-2.16692,0.1525999999999999,1.64808,0.95556396,-0.23547303,-0.218322195
1764763823.6854866,-2.16692,0.1525999999999999,1.64808,0.95556396,-0.23547303,-0.218322195
1764763823.6854866,-2.16692,0.1525999999999999,1.64808,0.95556396,-0.23547303,-0.218322195
1764763823.6854866,-2.16692,0.1525999999999999,1.64808,0.95556396,-0.23547303,-0.218322195
1764763823.6854866,-2.16692,0.1525999999999999,1.64808,0.95556396,-0.23547303,-0.218322195
1764763823.6870046,-2.39582,0.09156,-0.9919,0.957211905,-0.231017475,-0.2185053
1764763823.6870046,-2.39582,0.09156,-0.9919,0.957211905,-0.231017475,-0.2185053
1764763823.6870046,-2.39582,0.09156,-0.9919,0.957211905,-0.231017475,-0.2185053
1764763823.6870046,-2.39582,0.09156,-0.9919,0.957211905,-0.231017475,-0.2185053
1764763823.6870046,-2.39582,0.09156,-0.9919,0.957211905,-0.231017475,-0.2185053
1764763823.6870046,-2.39582,0.09156,-0.9919,0.957211905,-0.231017475,-0.2185053
1764763823.6870046,-2.39582,0.09156,-0.9919,0.957211905,-0.231017475,-0.2185053
1764763823.6870046,-2.39582,0.09156,-0.9919,0.957211905,-0.231017475,-0.2185053
1764763823.6870046,-2.39582,0.09156,-0.9919,0.957211905,-0.231017475,-0.2185053
1764763823.6870046,-2.39582,0.09156,-0.9919,0.957211905,-0.231017475,-0.2185053
1764763823.6870046,-2.6705,0.6867,-2.0601,0.96117918,-0.23034609,-0.21752874
1764763823.6870046,-2.6705,0.6867,-2.0601,0.96117918,-0.23034609,-0.21752874
1764763823.7335627,-2.6705,0.6867,-2.0601,0.96117918,-0.23034609,-0.21752874
1764763823.7335627,-2.6705,0.6867,-2.0601,0.96117918,-0.23034609,-0.21752874
1764763823.7335627,-2.6705,0.6867,-2.0601,0.96117918,-0.23034609,-0.21752874
1764763823.7335627,-2.6705,0.6867,-2.0601,0.96117918,-0.23034609,-0.21752874
1764763823.7335627,-2.6705,0.6867,-2.0601,0.96117918,-0.23034609,-0.21752874
1764763823.7335627,-2.6705,0.6867,-2.0601,0.96117918,-0.23034609,-0.21752874
1764763823.7335627,-2.6705,0.6867,-2.0601,0.96117918,-0.23034609,-0.21752874
1764763823.7335627,-2.6705,0.6867,-2.0601,0.96117918,-0.23034609,-0.21752874
1764763823.7335627,-2.38056,2.38056,-1.92276,0.962827125,-0.231261615,-0.21716253
1764763823.7335627,-2.38056,2.38056,-1.92276,0.962827125,-0.231261615,-0.21716253
1764763823.7335627,-2.38056,2.38056,-1.92276,0.962827125,-0.231261615,-0.21716253
1764763823.7335627,-2.38056,2.38056,-1.92276,0.962827125,-0.231261615,-0.21716253
1764763823.7335627,-2.38056,2.38056,-1.92276,0.962827125,-0.231261615,-0.21716253
1764763823.7335627,-2.38056,2.38056,-1.92276,0.962827125,-0.231261615,-0.21716253
1764763823.7335627,-2.38056,2.38056,-1.92276,0.962827125,-0.231261615,-0.21716253
1764763823.7335627,-2.38056,2.38056,-1.92276,0.962827125,-0.231261615,-0.21716253
1764763823.7335627,-2.38056,2.38056,-1.92276,0.962827125,-0.231261615,-0.21716253
1764763823.7335627,-2.38056,2.38056,-1.92276,0.962827125,-0.231261615,-0.21716253
1764763823.7335627,-3.08252,1.99906,-1.09872,0.95995848,-0.228331935,-0.21704046
1764763823.7335627,-3.08252,1.99906,-1.09872,0.95995848,-0.228331935,-0.21704046
1764763823.7335627,-3.08252,1.99906,-1.09872,0.95995848,-0.228331935,-0.21704046
1764763823.7335627,-3.08252,1.99906,-1.09872,0.95995848,-0.228331935,-0.21704046
1764763823.7770224,-3.08252,1.99906,-1.09872,0.95995848,-0.228331935,-0.21704046
1764763823.7770224,-3.08252,1.99906,-1.09872,0.95995848,-0.228331935,-0.21704046
1764763823.7770224,-3.08252,1.99906,-1.09872,0.95995848,-0.228331935,-0.21704046
1764763823.7770224,-3.08252,1.99906,-1.09872,0.95995848,-0.228331935,-0.21704046
1764763823.7770224,-3.08252,1.99906,-1.09872,0.95995848,-0.228331935,-0.21704046
1764763823.7770224,-3.08252,1.99906,-1.09872,0.95995848,-0.228331935,-0.21704046
1764763823.7770224,-4.7306,1.70912,-0.79352,0.9582495,-0.22534122,-0.21667425
1764763823.7770224,-4.7306,1.70912,-0.79352,0.9582495,-0.22534122,-0.21667425
1764763823.7770224,-4.7306,1.70912,-0.79352,0.9582495,-0.22534122,-0.21667425
1764763823.7770224,-4.7306,1.70912,-0.79352,0.9582495,-0.22534122,-0.21667425
1764763823.7770224,-4.7306,1.70912,-0.79352,0.9582495,-0.22534122,-0.21667425
1764763823.7770224,-4.7306,1.70912,-0.79352,0.9582495,-0.22534122,-0.21667425
1764763823.7770224,-4.7306,1.70912,-0.79352,0.9582495,-0.22534122,-0.21667425
1764763823.7770224,-4.7306,1.70912,-0.79352,0.9582495,-0.22534122,-0.21667425
1764763823.7770224,-4.7306,1.70912,-0.79352,0.9582495,-0.22534122,-0.21667425
1764763823.7770224,-4.7306,1.70912,-0.79352,0.9582495,-0.22534122,-0.21667425
1764763823.7770224,-5.0358,0.8698199999999999,-0.21364,0.955869135,-0.22534122,-0.21435492
1764763823.7770224,-5.0358,0.8698199999999999,-0.21364,0.955869135,-0.22534122,-0.21435492
1764763823.7770224,-5.0358,0.8698199999999999,-0.21364,0.955869135,-0.22534122,-0.21435492
1764763823.7770224,-5.0358,0.8698199999999999,-0.21364,0.955869135,-0.22534122,-0.21435492
1764763823.7770224,-5.0358,0.8698199999999999,-0.21364,0.955869135,-0.22534122,-0.21435492
1764763823.7770224,-5.0358,0.8698199999999999,-0.21364,0.955869135,-0.22534122,-0.21435492
1764763823.7770224,-5.0358,0.8698199999999999,-0.21364,0.955869135,-0.22534122,-0.21435492
1764763823.7770224,-5.0358,0.8698199999999999,-0.21364,0.955869135,-0.22534122,-0.21435492
1764763823.8228433,-5.0358,0.8698199999999999,-0.21364,0.955869135,-0.22534122,-0.21435492
1764763823.8228433,-5.0358,0.8698199999999999,-0.21364,0.955869135,-0.22534122,-0.21435492
1764763823.8228433,-5.90562,-0.6103999999999999,0.56462,0.953549805,-0.225158115,-0.21386664
1764763823.8228433,-5.90562,-0.6103999999999999,0.56462,0.953549805,-0.225158115,-0.21386664
1764763823.8228433,-5.90562,-0.6103999999999999,0.56462,0.953549805,-0.225158115,-0.21386664
1764763823.8228433,-5.90562,-0.6103999999999999,0.56462,0.953549805,-0.225158115,-0.21386664
1764763823.8228433,-5.90562,-0.6103999999999999,0.56462,0.953549805,-0.225158115,-0.21386664
1764763823.8228433,-5.90562,-0.6103999999999999,0.56462,0.953549805,-0.225158115,-0.21386664
1764763823.8228433,-5.90562,-0.6103999999999999,0.56462,0.953549805,-0.225158115,-0.21386664
1764763823.8228433,-5.90562,-0.6103999999999999,0.56462,0.953549805,-0.225158115,-0.21386664
1764763823.8228433,-5.90562,-0.6103999999999999,0.56462,0.953549805,-0.225158115,-0.21386664
1764763823.8228433,-5.90562,-0.6103999999999999,0.56462,0.953549805,-0.225158115,-0.21386664
1764763823.8228433,-7.14168,-2.8231,1.526,0.95287842,-0.224669835,-0.21411078
1764763823.8228433,-7.14168,-2.8231,1.526,0.95287842,-0.224669835,-0.21411078
1764763823.8243823,-7.14168,-2.8231,1.526,0.95287842,-0.224669835,-0.21411078
1764763823.8243823,-7.14168,-2.8231,1.526,0.95287842,-0.224669835,-0.21411078
1764763823.8243823,-7.14168,-2.8231,1.526,0.95287842,-0.224669835,-0.21411078
1764763823.8243823,-7.14168,-2.8231,1.526,0.95287842,-0.224669835,-0.21411078
1764763823.8243823,-7.14168,-2.8231,1.526,0.95287842,-0.224669835,-0.21411078
1764763823.8243823,-7.14168,-2.8231,1.526,0.95287842,-0.224669835,-0.21411078
1764763823.8243823,-7.14168,-2.8231,1.526,0.95287842,-0.224669835,-0.21411078
1764763823.8243823,-7.14168,-2.8231,1.526,0.95287842,-0.224669835,-0.21411078
1764763823.8707995,-9.4612,-3.18934,2.2127,0.95190186,-0.222960855,-0.21447699
1764763823.8707995,-9.4612,-3.18934,2.2127,0.95190186,-0.222960855,-0.21447699
1764763823.8707995,-9.4612,-3.18934,2.2127,0.95190186,-0.222960855,-0.21447699
1764763823.8707995,-9.4612,-3.18934,2.2127,0.95190186,-0.222960855,-0.21447699
1764763823.8707995,-9.4612,-3.18934,2.2127,0.95190186,-0.222960855,-0.21447699
1764763823.8707995,-9.4612,-3.18934,2.2127,0.95190186,-0.222960855,-0.21447699
1764763823.8707995,-9.4612,-3.18934,2.2127,0.95190186,-0.222960855,-0.21447699
1764763823.8707995,-9.4612,-3.18934,2.2127,0.95190186,-0.222960855,-0.21447699
1764763823.8707995,-9.4612,-3.18934,2.2127,0.95190186,-0.222960855,-0.21447699
1764763823.8707995,-9.4612,-3.18934,2.2127,0.95190186,-0.222960855,-0.21447699
1764763823.917408,-12.14696,-3.44876,2.47212,0.95312256,-0.221373945,-0.2160639
1764763823.917408,-12.14696,-3.44876,2.47212,0.95312256,-0.221373945,-0.2160639
1764763823.917408,-12.14696,-3.44876,2.47212,0.95312256,-0.221373945,-0.2160639
1764763823.917408,-12.14696,-3.44876,2.47212,0.95312256,-0.221373945,-0.2160639
1764763823.917924,-12.14696,-3.44876,2.47212,0.95312256,-0.221373945,-0.2160639
1764763823.917924,-12.14696,-3.44876,2.47212,0.95312256,-0.221373945,-0.2160639
1764763823.917924,-12.14696,-3.44876,2.47212,0.95312256,-0.221373945,-0.2160639
1764763823.917924,-12.14696,-3.44876,2.47212,0.95312256,-0.221373945,-0.2160639
1764763823.917924,-12.14696,-3.44876,2.47212,0.95312256,-0.221373945,-0.2160639
1764763823.917924,-12.14696,-3.44876,2.47212,0.95312256,-0.221373945,-0.2160639
1764763823.917924,-14.78694,-4.25754,3.21986,0.954404295,-0.22204533,-0.21826116
1764763823.917924,-14.78694,-4.25754,3.21986,0.954404295,-0.22204533,-0.21826116
1764763823.917924,-14.78694,-4.25754,3.21986,0.954404295,-0.22204533,-0.21826116
1764763823.917924,-14.78694,-4.25754,3.21986,0.954404295,-0.22204533,-0.21826116
1764763823.917924,-14.78694,-4.25754,3.21986,0.954404295,-0.22204533,-0.21826116
1764763823.917924,-14.78694,-4.25754,3.21986,0.954404295,-0.22204533,-0.21826116
1764763823.917924,-14.78694,-4.25754,3.21986,0.954404295,-0.22204533,-0.21826116
1764763823.917924,-14.78694,-4.25754,3.21986,0.954404295,-0.22204533,-0.21826116
1764763823.917924,-14.78694,-4.25754,3.21986,0.954404295,-0.22204533,-0.21826116
1764763823.917924,-14.78694,-4.25754,3.21986,0.954404295,-0.22204533,-0.21826116
1764763823.917924,-15.91618,-4.60852,3.02148,0.956235345,-0.22375431,-0.219542895
1764763823.917924,-15.91618,-4.60852,3.02148,0.956235345,-0.22375431,-0.219542895
1764763823.917924,-15.91618,-4.60852,3.02148,0.956235345,-0.22375431,-0.219542895
1764763823.917924,-15.91618,-4.60852,3.02148,0.956235345,-0.22375431,-0.219542895
1764763823.917924,-15.91618,-4.60852,3.02148,0.956235345,-0.22375431,-0.219542895
1764763823.917924,-15.91618,-4.60852,3.02148,0.956235345,-0.22375431,-0.219542895
1764763823.917924,-15.91618,-4.60852,3.02148,0.956235345,-0.22375431,-0.219542895
1764763823.917924,-15.91618,-4.60852,3.02148,0.956235345,-0.22375431,-0.219542895
1764763823.917924,-15.91618,-4.60852,3.02148,0.956235345,-0.22375431,-0.219542895
1764763823.917924,-15.91618,-4.60852,3.02148,0.956235345,-0.22375431,-0.219542895
1764763823.917924,-16.0993,-4.440659999999999,2.92992,0.95751708,-0.2258295,-0.219298755
1764763823.917924,-16.0993,-4.440659999999999,2.92992,0.95751708,-0.2258295,-0.219298755
1764763823.917924,-16.0993,-4.440659999999999,2.92992,0.95751708,-0.2258295,-0.219298755
1764763823.917924,-16.0993,-4.440659999999999,2.92992,0.95751708,-0.2258295,-0.219298755
1764763823.917924,-16.0993,-4.440659999999999,2.92992,0.95751708,-0.2258295,-0.219298755
1764763823.917924,-16.0993,-4.440659999999999,2.92992,0.95751708,-0.2258295,-0.219298755
1764763823.917924,-16.0993,-4.440659999999999,2.92992,0.95751708,-0.2258295,-0.219298755
1764763823.917924,-16.0993,-4.440659999999999,2.92992,0.95751708,-0.2258295,-0.219298755
1764763823.9641902,-16.0993,-4.440659999999999,2.92992,0.95751708,-0.2258295,-0.219298755
1764763823.9641902,-16.0993,-4.440659999999999,2.92992,0.95751708,-0.2258295,-0.219298755
1764763823.9641902,-15.27526,-4.66956,3.70818,0.9558081,-0.22900332,-0.22045842
1764763823.9641902,-15.27526,-4.66956,3.70818,0.9558081,-0.22900332,-0.22045842
1764763823.9641902,-15.27526,-4.66956,3.70818,0.9558081,-0.22900332,-0.22045842
1764763823.9641902,-15.27526,-4.66956,3.70818,0.9558081,-0.22900332,-0.22045842
1764763823.9641902,-15.27526,-4.66956,3.70818,0.9558081,-0.22900332,-0.22045842
1764763823.9641902,-15.27526,-4.66956,3.70818,0.9558081,-0.22900332,-0.22045842
1764763823.9641902,-15.27526,-4.66956,3.70818,0.9558081,-0.22900332,-0.22045842
1764763823.9641902,-15.27526,-4.66956,3.70818,0.9558081,-0.22900332,-0.22045842
1764763823.9641902,-15.27526,-4.66956,3.70818,0.9558081,-0.22900332,-0.22045842
1764763823.9641902,-15.27526,-4.66956,3.70818,0.9558081,-0.22900332,-0.22045842
1764763823.9647076,-15.16844,-5.27996,4.440659999999999,0.953427735,-0.23010195,-0.223449135
1764763823.9647076,-15.16844,-5.27996,4.440659999999999,0.953427735,-0.23010195,-0.223449135
1764763823.9647076,-15.16844,-5.27996,4.440659999999999,0.953427735,-0.23010195,-0.223449135
1764763823.9647076,-15.16844,-5.27996,4.440659999999999,0.953427735,-0.23010195,-0.223449135
1764763823.9647076,-15.16844,-5.27996,4.440659999999999,0.953427735,-0.23010195,-0.223449135
1764763823.9647076,-15.16844,-5.27996,4.440659999999999,0.953427735,-0.23010195,-0.223449135
1764763823.9647076,-15.16844,-5.27996,4.440659999999999,0.953427735,-0.23010195,-0.223449135
1764763823.9647076,-15.16844,-5.27996,4.440659999999999,0.953427735,-0.23010195,-0.223449135
1764763823.9647076,-15.16844,-5.27996,4.440659999999999,0.953427735,-0.23010195,-0.223449135
1764763823.9647076,-15.16844,-5.27996,4.440659999999999,0.953427735,-0.23010195,-0.223449135
1764763823.9647076,-14.97006,-6.14978,3.52506,0.95263428,-0.22985781,-0.22546329
1764763823.9647076,-14.97006,-6.14978,3.52506,0.95263428,-0.22985781,-0.22546329
1764763824.0107346,-14.97006,-6.14978,3.52506,0.95263428,-0.22985781,-0.22546329
1764763824.0107346,-14.97006,-6.14978,3.52506,0.95263428,-0.22985781,-0.22546329
1764763824.0107346,-14.97006,-6.14978,3.52506,0.95263428,-0.22985781,-0.22546329
1764763824.0107346,-14.97006,-6.14978,3.52506,0.95263428,-0.22985781,-0.22546329
1764763824.0107346,-14.97006,-6.14978,3.52506,0.95263428,-0.22985781,-0.22546329
1764763824.0107346,-14.97006,-6.14978,3.52506,0.95263428,-0.22985781,-0.22546329
1764763824.0107346,-14.97006,-6.14978,3.52506,0.95263428,-0.22985781,-0.22546329
1764763824.0107346,-14.97006,-6.14978,3.52506,0.95263428,-0.22985781,-0.22546329
1764763824.0107346,-14.14602,-6.39394,2.70102,0.95519775,-0.230162985,-0.226989165
1764763824.0107346,-14.14602,-6.39394,2.70102,0.95519775,-0.230162985,-0.226989165
1764763824.0107346,-14.14602,-6.39394,2.70102,0.95519775,-0.230162985,-0.226989165
1764763824.0107346,-14.14602,-6.39394,2.70102,0.95519775,-0.230162985,-0.226989165
1764763824.0107346,-14.14602,-6.39394,2.70102,0.95519775,-0.230162985,-0.226989165
1764763824.0107346,-14.14602,-6.39394,2.70102,0.95519775,-0.230162985,-0.226989165
1764763824.0107346,-14.14602,-6.39394,2.70102,0.95519775,-0.230162985,-0.226989165
1764763824.0107346,-14.14602,-6.39394,2.70102,0.95519775,-0.230162985,-0.226989165
1764763824.0107346,-14.14602,-6.39394,2.70102,0.95519775,-0.230162985,-0.226989165
1764763824.0107346,-14.14602,-6.39394,2.70102,0.95519775,-0.230162985,-0.226989165
1764763824.0117435,-12.971,-5.52412,1.84646,0.959531235,-0.231139545,-0.227355375
1764763824.0117435,-12.971,-5.52412,1.84646,0.959531235,-0.231139545,-0.227355375
1764763824.0117435,-12.971,-5.52412,1.84646,0.959531235,-0.231139545,-0.227355375
1764763824.0117435,-12.971,-5.52412,1.84646,0.959531235,-0.231139545,-0.227355375
1764763824.058838,-12.971,-5.52412,1.84646,0.959531235,-0.231139545,-0.227355375
1764763824.058838,-12.971,-5.52412,1.84646,0.959531235,-0.231139545,-0.227355375
1764763824.058838,-12.971,-5.52412,1.84646,0.959531235,-0.231139545,-0.227355375
1764763824.058838,-12.971,-5.52412,1.84646,0.959531235,-0.231139545,-0.227355375
1764763824.058838,-12.971,-5.52412,1.84646,0.959531235,-0.231139545,-0.227355375
1764763824.058838,-12.971,-5.52412,1.84646,0.959531235,-0.231139545,-0.227355375
1764763824.058838,-11.09402,-3.76922,0.763,0.96178953,-0.231505755,-0.228209865
1764763824.058838,-11.09402,-3.76922,0.763,0.96178953,-0.231505755,-0.228209865
1764763824.058838,-11.09402,-3.76922,0.763,0.96178953,-0.231505755,-0.228209865
1764763824.058838,-11.09402,-3.76922,0.763,0.96178953,-0.231505755,-0.228209865
1764763824.058838,-11.09402,-3.76922,0.763,0.96178953,-0.231505755,-0.228209865
1764763824.059842,-11.09402,-3.76922,0.763,0.96178953,-0.231505755,-0.228209865
1764763824.059842,-11.09402,-3.76922,0.763,0.96178953,-0.231505755,-0.228209865
1764763824.059842,-11.09402,-3.76922,0.763,0.96178953,-0.231505755,-0.228209865
1764763824.059842,-11.09402,-3.76922,0.763,0.96178953,-0.231505755,-0.228209865
1764763824.059842,-11.09402,-3.76922,0.763,0.96178953,-0.231505755,-0.228209865
1764763824.059842,-8.0878,-2.96044,0.28994,0.960507795,-0.23217714,-0.22997988
1764763824.059842,-8.0878,-2.96044,0.28994,0.960507795,-0.23217714,-0.22997988
1764763824.059842,-8.0878,-2.96044,0.28994,0.960507795,-0.23217714,-0.22997988
1764763824.059842,-8.0878,-2.96044,0.28994,0.960507795,-0.23217714,-0.22997988
1764763824.060856,-8.0878,-2.96044,0.28994,0.960507795,-0.23217714,-0.22997988
1764763824.060856,-8.0878,-2.96044,0.28994,0.960507795,-0.23217714,-0.22997988
1764763824.1032972,-8.0878,-2.96044,0.28994,0.960507795,-0.23217714,-0.22997988
1764763824.1032972,-8.0878,-2.96044,0.28994,0.960507795,-0.23217714,-0.22997988
1764763824.1032972,-8.0878,-2.96044,0.28994,0.960507795,-0.23217714,-0.22997988
1764763824.1032972,-8.0878,-2.96044,0.28994,0.960507795,-0.23217714,-0.22997988
1764763824.1038027,-5.1884,-2.5179,0.54936,0.95885985,-0.23364198,-0.231627825
1764763824.1038027,-5.1884,-2.5179,0.54936,0.95885985,-0.23364198,-0.231627825
1764763824.1038027,-5.1884,-2.5179,0.54936,0.95885985,-0.23364198,-0.231627825
1764763824.1038027,-5.1884,-2.5179,0.54936,0.95885985,-0.23364198,-0.231627825
1764763824.1038027,-5.1884,-2.5179,0.54936,0.95885985,-0.23364198,-0.231627825
1764763824.1038027,-5.1884,-2.5179,0.54936,0.95885985,-0.23364198,-0.231627825
1764763824.1038027,-5.1884,-2.5179,0.54936,0.95885985,-0.23364198,-0.231627825
1764763824.1038027,-5.1884,-2.5179,0.54936,0.95885985,-0.23364198,-0.231627825
1764763824.1038027,-5.1884,-2.5179,0.54936,0.95885985,-0.23364198,-0.231627825
1764763824.1038027,-5.1884,-2.5179,0.54936,0.95885985,-0.23364198,-0.231627825
1764763824.1038027,-2.63998,-1.95328,0.50358,0.961118145,-0.236022345,-0.232238175
1764763824.1038027,-2.63998,-1.95328,0.50358,0.961118145,-0.236022345,-0.232238175
1764763824.1038027,-2.63998,-1.95328,0.50358,0.961118145,-0.236022345,-0.232238175
1764763824.1038027,-2.63998,-1.95328,0.50358,0.961118145,-0.236022345,-0.232238175
1764763824.1038027,-2.63998,-1.95328,0.50358,0.961118145,-0.236022345,-0.232238175
1764763824.1038027,-2.63998,-1.95328,0.50358,0.961118145,-0.236022345,-0.232238175
1764763824.1038027,-2.63998,-1.95328,0.50358,0.961118145,-0.236022345,-0.232238175
1764763824.1038027,-2.63998,-1.95328,0.50358,0.961118145,-0.236022345,-0.232238175
1764763824.1038027,-2.63998,-1.95328,0.50358,0.961118145,-0.236022345,-0.232238175
1764763824.1038027,-2.63998,-1.95328,0.50358,0.961118145,-0.236022345,-0.232238175
1764763824.1038027,0.54936,-0.42728,-0.19838,0.963803685,-0.235411995,-0.23132265
1764763824.1038027,0.54936,-0.42728,-0.19838,0.963803685,-0.235411995,-0.23132265
1764763824.152701,0.54936,-0.42728,-0.19838,0.963803685,-0.235411995,-0.23132265
1764763824.152701,0.54936,-0.42728,-0.19838,0.963803685,-0.235411995,-0.23132265
1764763824.152701,0.54936,-0.42728,-0.19838,0.963803685,-0.235411995,-0.23132265
1764763824.152701,0.54936,-0.42728,-0.19838,0.963803685,-0.235411995,-0.23132265
1764763824.152701,0.54936,-0.42728,-0.19838,0.963803685,-0.235411995,-0.23132265
1764763824.152701,0.54936,-0.42728,-0.19838,0.963803685,-0.235411995,-0.23132265
1764763824.152701,0.54936,-0.42728,-0.19838,0.963803685,-0.235411995,-0.23132265
1764763824.152701,0.54936,-0.42728,-0.19838,0.963803685,-0.235411995,-0.23132265
1764763824.152701,3.14356,0.59514,-0.8087799999999999,0.962338845,-0.233703015,-0.22961367
1764763824.152701,3.14356,0.59514,-0.8087799999999999,0.962338845,-0.233703015,-0.22961367
1764763824.152701,3.14356,0.59514,-0.8087799999999999,0.962338845,-0.233703015,-0.22961367
1764763824.152701,3.14356,0.59514,-0.8087799999999999,0.962338845,-0.233703015,-0.22961367
1764763824.152701,3.14356,0.59514,-0.8087799999999999,0.962338845,-0.233703015,-0.22961367
1764763824.152701,3.14356,0.59514,-0.8087799999999999,0.962338845,-0.233703015,-0.22961367
1764763824.152701,3.14356,0.59514,-0.8087799999999999,0.962338845,-0.233703015,-0.22961367
1764763824.152701,3.14356,0.59514,-0.8087799999999999,0.962338845,-0.233703015,-0.22961367
1764763824.152701,3.14356,0.59514,-0.8087799999999999,0.962338845,-0.233703015,-0.22961367
1764763824.152701,3.14356,0.59514,-0.8087799999999999,0.962338845,-0.233703015,-0.22961367
1764763824.152701,4.5017,-0.27468,-0.42728,0.95617431,-0.23022402,-0.229918845
1764763824.152701,4.5017,-0.27468,-0.42728,0.95617431,-0.23022402,-0.229918845
1764763824.1973686,4.5017,-0.27468,-0.42728,0.95617431,-0.23022402,-0.229918845
1764763824.1973686,4.5017,-0.27468,-0.42728,0.95617431,-0.23022402,-0.229918845
1764763824.1973686,4.5017,-0.27468,-0.42728,0.95617431,-0.23022402,-0.229918845
1764763824.1978712,4.5017,-0.27468,-0.42728,0.95617431,-0.23022402,-0.229918845
1764763824.1978712,4.5017,-0.27468,-0.42728,0.95617431,-0.23022402,-0.229918845
1764763824.1978712,4.5017,-0.27468,-0.42728,0.95617431,-0.23022402,-0.229918845
1764763824.1978712,4.5017,-0.27468,-0.42728,0.95617431,-0.23022402,-0.229918845
1764763824.1978712,4.5017,-0.27468,-0.42728,0.95617431,-0.23022402,-0.229918845
1764763824.1978712,3.86078,-1.93802,1.34288,0.95263428,-0.227355375,-0.231933
1764763824.1978712,3.86078,-1.93802,1.34288,0.95263428,-0.227355375,-0.231933
1764763824.1978712,3.86078,-1.93802,1.34288,0.95263428,-0.227355375,-0.231933
1764763824.1978712,3.86078,-1.93802,1.34288,0.95263428,-0.227355375,-0.231933
1764763824.1978712,3.86078,-1.93802,1.34288,0.95263428,-0.227355375,-0.231933
1764763824.1978712,3.86078,-1.93802,1.34288,0.95263428,-0.227355375,-0.231933
1764763824.1978712,3.86078,-1.93802,1.34288,0.95263428,-0.227355375,-0.231933
1764763824.1996665,3.86078,-1.93802,1.34288,0.95263428,-0.227355375,-0.231933
1764763824.1996665,3.86078,-1.93802,1.34288,0.95263428,-0.227355375,-0.231933
1764763824.1996665,3.86078,-1.93802,1.34288,0.95263428,-0.227355375,-0.231933
1764763824.1996665,1.43444,-3.00622,3.2809,0.952939455,-0.22228947,-0.234191295
1764763824.1996665,1.43444,-3.00622,3.2809,0.952939455,-0.22228947,-0.234191295
1764763824.1996665,1.43444,-3.00622,3.2809,0.952939455,-0.22228947,-0.234191295
1764763824.1996665,1.43444,-3.00622,3.2809,0.952939455,-0.22228947,-0.234191295
1764763824.1996665,1.43444,-3.00622,3.2809,0.952939455,-0.22228947,-0.234191295
1764763824.1996665,1.43444,-3.00622,3.2809,0.952939455,-0.22228947,-0.234191295
1764763824.1996665,1.43444,-3.00622,3.2809,0.952939455,-0.22228947,-0.234191295
1764763824.1996665,1.43444,-3.00622,3.2809,0.952939455,-0.22228947,-0.234191295
1764763824.246838,1.43444,-3.00622,3.2809,0.952939455,-0.22228947,-0.234191295
1764763824.246838,1.43444,-3.00622,3.2809,0.952939455,-0.22228947,-0.234191295
1764763824.246838,-1.84646,-2.07536,5.63094,0.956113275,-0.219176685,-0.23571717
1764763824.246838,-1.84646,-2.07536,5.63094,0.956113275,-0.219176685,-0.23571717
1764763824.246838,-1.84646,-2.07536,5.63094,0.956113275,-0.219176685,-0.23571717
1764763824.246838,-1.84646,-2.07536,5.63094,0.956113275,-0.219176685,-0.23571717
1764763824.246838,-1.84646,-2.07536,5.63094,0.956113275,-0.219176685,-0.23571717
1764763824.246838,-1.84646,-2.07536,5.63094,0.956113275,-0.219176685,-0.23571717
1764763824.246838,-1.84646,-2.07536,5.63094,0.956113275,-0.219176685,-0.23571717
1764763824.246838,-1.84646,-2.07536,5.63094,0.956113275,-0.219176685,-0.23571717
1764763824.246838,-1.84646,-2.07536,5.63094,0.956113275,-0.219176685,-0.23571717
1764763824.246838,-1.84646,-2.07536,5.63094,0.956113275,-0.219176685,-0.23571717
1764763824.246838,-4.39488,-0.82404,7.73682,0.95812743,-0.219176685,-0.23571717
1764763824.246838,-4.39488,-0.82404,7.73682,0.95812743,-0.219176685,-0.23571717
1764763824.246838,-4.39488,-0.82404,7.73682,0.95812743,-0.219176685,-0.23571717
1764763824.246838,-4.39488,-0.82404,7.73682,0.95812743,-0.219176685,-0.23571717
1764763824.246838,-4.39488,-0.82404,7.73682,0.95812743,-0.219176685,-0.23571717
1764763824.246838,-4.39488,-0.82404,7.73682,0.95812743,-0.219176685,-0.23571717
1764763824.246838,-4.39488,-0.82404,7.73682,0.95812743,-0.219176685,-0.23571717
1764763824.246838,-4.39488,-0.82404,7.73682,0.95812743,-0.219176685,-0.23571717
1764763824.246838,-4.39488,-0.82404,7.73682,0.95812743,-0.219176685,-0.23571717
1764763824.246838,-4.39488,-0.82404,7.73682,0.95812743,-0.219176685,-0.23571717
1764763824.246838,-5.02054,0.54936,8.89658,0.95763915,-0.221496015,-0.23547303
1764763824.246838,-5.02054,0.54936,8.89658,0.95763915,-0.221496015,-0.23547303
1764763824.2895014,-5.02054,0.54936,8.89658,0.95763915,-0.221496015,-0.23547303
1764763824.2895014,-5.02054,0.54936,8.89658,0.95763915,-0.221496015,-0.23547303
1764763824.2900405,-5.02054,0.54936,8.89658,0.95763915,-0.221496015,-0.23547303
1764763824.2900405,-5.02054,0.54936,8.89658,0.95763915,-0.221496015,-0.23547303
1764763824.2900405,-5.02054,0.54936,8.89658,0.95763915,-0.221496015,-0.23547303
1764763824.2900405,-5.02054,0.54936,8.89658,0.95763915,-0.221496015,-0.23547303
1764763824.2900405,-5.02054,0.54936,8.89658,0.95763915,-0.221496015,-0.23547303
1764763824.2900405,-5.02054,0.54936,8.89658,0.95763915,-0.221496015,-0.23547303
1764763824.2900405,-5.29522,0.3357199999999999,9.4612,0.954770505,-0.22448673,-0.2355951
1764763824.2900405,-5.29522,0.3357199999999999,9.4612,0.954770505,-0.22448673,-0.2355951
1764763824.2900405,-5.29522,0.3357199999999999,9.4612,0.954770505,-0.22448673,-0.2355951
1764763824.2900405,-5.29522,0.3357199999999999,9.4612,0.954770505,-0.22448673,-0.2355951
1764763824.2900405,-5.29522,0.3357199999999999,9.4612,0.954770505,-0.22448673,-0.2355951
1764763824.2900405,-5.29522,0.3357199999999999,9.4612,0.954770505,-0.22448673,-0.2355951
1764763824.2900405,-5.29522,0.3357199999999999,9.4612,0.954770505,-0.22448673,-0.2355951
1764763824.2900405,-5.29522,0.3357199999999999,9.4612,0.954770505,-0.22448673,-0.2355951
1764763824.2900405,-5.29522,0.3357199999999999,9.4612,0.954770505,-0.22448673,-0.2355951
1764763824.2900405,-5.29522,0.3357199999999999,9.4612,0.954770505,-0.22448673,-0.2355951
1764763824.2900405,-4.37962,-0.10682,9.85796,0.951230475,-0.22839297,-0.23571717
1764763824.2900405,-4.37962,-0.10682,9.85796,0.951230475,-0.22839297,-0.23571717
1764763824.2900405,-4.37962,-0.10682,9.85796,0.951230475,-0.22839297,-0.23571717
1764763824.291288,-4.37962,-0.10682,9.85796,0.951230475,-0.22839297,-0.23571717
1764763824.3387036,-4.37962,-0.10682,9.85796,0.951230475,-0.22839297,-0.23571717
1764763824.3387036,-4.37962,-0.10682,9.85796,0.951230475,-0.22839297,-0.23571717
1764763824.339208,-4.37962,-0.10682,9.85796,0.951230475,-0.22839297,-0.23571717
1764763824.339208,-4.37962,-0.10682,9.85796,0.951230475,-0.22839297,-0.23571717
1764763824.339208,-4.37962,-0.10682,9.85796,0.951230475,-0.22839297,-0.23571717
1764763824.339208,-4.37962,-0.10682,9.85796,0.951230475,-0.22839297,-0.23571717
1764763824.339208,-4.2728,-1.09872,9.67484,0.950253915,-0.23205507,-0.23620545
1764763824.3397243,-4.2728,-1.09872,9.67484,0.950253915,-0.23205507,-0.23620545
1764763824.3397243,-4.2728,-1.09872,9.67484,0.950253915,-0.23205507,-0.23620545
1764763824.3397243,-4.2728,-1.09872,9.67484,0.950253915,-0.23205507,-0.23620545
1764763824.3397243,-4.2728,-1.09872,9.67484,0.950253915,-0.23205507,-0.23620545
1764763824.3397243,-4.2728,-1.09872,9.67484,0.950253915,-0.23205507,-0.23620545
1764763824.3397243,-4.2728,-1.09872,9.67484,0.950253915,-0.23205507,-0.23620545
1764763824.3397243,-4.2728,-1.09872,9.67484,0.950253915,-0.23205507,-0.23620545
1764763824.3397243,-4.2728,-1.09872,9.67484,0.950253915,-0.23205507,-0.23620545
1764763824.3397243,-4.2728,-1.09872,9.67484,0.950253915,-0.23205507,-0.23620545
1764763824.3397243,-3.25038,-2.70102,9.32386,0.949887705,-0.23486268,-0.23620545
1764763824.3397243,-3.25038,-2.70102,9.32386,0.949887705,-0.23486268,-0.23620545
1764763824.3397243,-3.25038,-2.70102,9.32386,0.949887705,-0.23486268,-0.23620545
1764763824.3407297,-3.25038,-2.70102,9.32386,0.949887705,-0.23486268,-0.23620545
1764763824.3407297,-3.25038,-2.70102,9.32386,0.949887705,-0.23486268,-0.23620545
1764763824.3407297,-3.25038,-2.70102,9.32386,0.949887705,-0.23486268,-0.23620545
1764763824.3407297,-3.25038,-2.70102,9.32386,0.949887705,-0.23486268,-0.23620545
1764763824.3407297,-3.25038,-2.70102,9.32386,0.949887705,-0.23486268,-0.23620545
1764763824.3874648,-3.25038,-2.70102,9.32386,0.949887705,-0.23486268,-0.23620545
1764763824.3874648,-3.25038,-2.70102,9.32386,0.949887705,-0.23486268,-0.23620545
1764763824.3874648,-3.31142,-4.5017,9.40016,0.94750734,-0.236998905,-0.2368158
1764763824.3884702,-3.31142,-4.5017,9.40016,0.94750734,-0.236998905,-0.2368158
1764763824.3884702,-3.31142,-4.5017,9.40016,0.94750734,-0.236998905,-0.2368158
1764763824.3884702,-3.31142,-4.5017,9.40016,0.94750734,-0.236998905,-0.2368158
1764763824.3884702,-3.31142,-4.5017,9.40016,0.94750734,-0.236998905,-0.2368158
1764763824.3884702,-3.31142,-4.5017,9.40016,0.94750734,-0.236998905,-0.2368158
1764763824.3884702,-3.31142,-4.5017,9.40016,0.94750734,-0.236998905,-0.2368158
1764763824.3884702,-3.31142,-4.5017,9.40016,0.94750734,-0.236998905,-0.2368158
1764763824.3884702,-3.31142,-4.5017,9.40016,0.94750734,-0.236998905,-0.2368158
1764763824.3884702,-3.31142,-4.5017,9.40016,0.94750734,-0.236998905,-0.2368158
1764763824.3884702,-3.61662,-5.14262,10.72778,0.947446305,-0.238952025,-0.23767029
1764763824.3884702,-3.61662,-5.14262,10.72778,0.947446305,-0.238952025,-0.23767029
1764763824.3884702,-3.61662,-5.14262,10.72778,0.947446305,-0.238952025,-0.23767029
1764763824.3884702,-3.61662,-5.14262,10.72778,0.947446305,-0.238952025,-0.23767029
1764763824.3884702,-3.61662,-5.14262,10.72778,0.947446305,-0.238952025,-0.23767029
1764763824.3884702,-3.61662,-5.14262,10.72778,0.947446305,-0.238952025,-0.23767029
1764763824.3884702,-3.61662,-5.14262,10.72778,0.947446305,-0.238952025,-0.23767029
1764763824.3884702,-3.61662,-5.14262,10.72778,0.947446305,-0.238952025,-0.23767029
1764763824.3884702,-3.61662,-5.14262,10.72778,0.947446305,-0.238952025,-0.23767029
1764763824.3884702,-3.61662,-5.14262,10.72778,0.947446305,-0.238952025,-0.23767029
1764763824.3884702,-4.22702,-5.4936,10.49888,0.9484839,-0.240172725,-0.23876892
1764763824.3884702,-4.22702,-5.4936,10.49888,0.9484839,-0.240172725,-0.23876892
1764763824.4340122,-4.22702,-5.4936,10.49888,0.9484839,-0.240172725,-0.23876892
1764763824.4340122,-4.22702,-5.4936,10.49888,0.9484839,-0.240172725,-0.23876892
1764763824.4340122,-4.22702,-5.4936,10.49888,0.9484839,-0.240172725,-0.23876892
1764763824.4345975,-4.22702,-5.4936,10.49888,0.9484839,-0.240172725,-0.23876892
1764763824.4345975,-4.22702,-5.4936,10.49888,0.9484839,-0.240172725,-0.23876892
1764763824.4345975,-4.22702,-5.4936,10.49888,0.9484839,-0.240172725,-0.23876892
1764763824.435018,-4.22702,-5.4936,10.49888,0.9484839,-0.240172725,-0.23876892
1764763824.435018,-4.22702,-5.4936,10.49888,0.9484839,-0.240172725,-0.23876892
1764763824.435018,-5.52412,-5.17314,10.62096,0.94909425,-0.23950134,-0.24011169
1764763824.435018,-5.52412,-5.17314,10.62096,0.94909425,-0.23950134,-0.24011169
1764763824.435018,-5.52412,-5.17314,10.62096,0.94909425,-0.23950134,-0.24011169
1764763824.435018,-5.52412,-5.17314,10.62096,0.94909425,-0.23950134,-0.24011169
1764763824.435018,-5.52412,-5.17314,10.62096,0.94909425,-0.23950134,-0.24011169
1764763824.435018,-5.52412,-5.17314,10.62096,0.94909425,-0.23950134,-0.24011169
1764763824.435018,-5.52412,-5.17314,10.62096,0.94909425,-0.23950134,-0.24011169
1764763824.435018,-5.52412,-5.17314,10.62096,0.94909425,-0.23950134,-0.24011169
1764763824.435018,-5.52412,-5.17314,10.62096,0.94909425,-0.23950134,-0.24011169
1764763824.435018,-5.52412,-5.17314,10.62096,0.94909425,-0.23950134,-0.24011169
1764763824.435018,-6.9433,-4.822159999999999,9.81218,0.94933839,-0.239684445,-0.24145446
1764763824.435018,-6.9433,-4.822159999999999,9.81218,0.94933839,-0.239684445,-0.24145446
1764763824.435018,-6.9433,-4.822159999999999,9.81218,0.94933839,-0.239684445,-0.24145446
1764763824.435018,-6.9433,-4.822159999999999,9.81218,0.94933839,-0.239684445,-0.24145446
1764763824.436015,-6.9433,-4.822159999999999,9.81218,0.94933839,-0.239684445,-0.24145446
1764763824.436015,-6.9433,-4.822159999999999,9.81218,0.94933839,-0.239684445,-0.24145446
1764763824.4825523,-6.9433,-4.822159999999999,9.81218,0.94933839,-0.239684445,-0.24145446
1764763824.4825523,-6.9433,-4.822159999999999,9.81218,0.94933839,-0.239684445,-0.24145446
1764763824.4825523,-6.9433,-4.822159999999999,9.81218,0.94933839,-0.239684445,-0.24145446
1764763824.4825523,-6.9433,-4.822159999999999,9.81218,0.94933839,-0.239684445,-0.24145446
1764763824.4825523,-7.81312,-4.15072,8.97288,0.94958253,-0.24108825,-0.242492055
1764763824.4825523,-7.81312,-4.15072,8.97288,0.94958253,-0.24108825,-0.242492055
1764763824.4825523,-7.81312,-4.15072,8.97288,0.94958253,-0.24108825,-0.242492055
1764763824.4825523,-7.81312,-4.15072,8.97288,0.94958253,-0.24108825,-0.242492055
1764763824.4825523,-7.81312,-4.15072,8.97288,0.94958253,-0.24108825,-0.242492055
1764763824.4825523,-7.81312,-4.15072,8.97288,0.94958253,-0.24108825,-0.242492055
1764763824.4825523,-7.81312,-4.15072,8.97288,0.94958253,-0.24108825,-0.242492055
1764763824.4825523,-7.81312,-4.15072,8.97288,0.94958253,-0.24108825,-0.242492055
1764763824.4825523,-7.81312,-4.15072,8.97288,0.94958253,-0.24108825,-0.242492055
1764763824.4825523,-7.81312,-4.15072,8.97288,0.94958253,-0.24108825,-0.242492055
1764763824.4825523,-9.06444,-3.46402,7.98098,0.9484839,-0.243712755,-0.244567245
1764763824.4825523,-9.06444,-3.46402,7.98098,0.9484839,-0.243712755,-0.244567245
1764763824.4825523,-9.06444,-3.46402,7.98098,0.9484839,-0.243712755,-0.244567245
1764763824.4825523,-9.06444,-3.46402,7.98098,0.9484839,-0.243712755,-0.244567245
1764763824.4825523,-9.06444,-3.46402,7.98098,0.9484839,-0.243712755,-0.244567245
1764763824.4825523,-9.06444,-3.46402,7.98098,0.9484839,-0.243712755,-0.244567245
1764763824.4825523,-9.06444,-3.46402,7.98098,0.9484839,-0.243712755,-0.244567245
1764763824.4825523,-9.06444,-3.46402,7.98098,0.9484839,-0.243712755,-0.244567245
1764763824.5259988,-9.06444,-3.46402,7.98098,0.9484839,-0.243712755,-0.244567245
1764763824.5259988,-9.06444,-3.46402,7.98098,0.9484839,-0.243712755,-0.244567245
1764763824.5259988,-9.04918,-3.21986,7.370579999999999,0.948422865,-0.247496925,-0.24645933
1764763824.5259988,-9.04918,-3.21986,7.370579999999999,0.948422865,-0.247496925,-0.24645933
1764763824.5259988,-9.04918,-3.21986,7.370579999999999,0.948422865,-0.247496925,-0.24645933
1764763824.5259988,-9.04918,-3.21986,7.370579999999999,0.948422865,-0.247496925,-0.24645933
1764763824.5259988,-9.04918,-3.21986,7.370579999999999,0.948422865,-0.247496925,-0.24645933
1764763824.5259988,-9.04918,-3.21986,7.370579999999999,0.948422865,-0.247496925,-0.24645933
1764763824.5259988,-9.04918,-3.21986,7.370579999999999,0.948422865,-0.247496925,-0.24645933
1764763824.5259988,-9.04918,-3.21986,7.370579999999999,0.948422865,-0.247496925,-0.24645933
1764763824.5259988,-9.04918,-3.21986,7.370579999999999,0.948422865,-0.247496925,-0.24645933
1764763824.5259988,-9.04918,-3.21986,7.370579999999999,0.948422865,-0.247496925,-0.24645933
1764763824.5259988,-7.00434,-2.4416,6.9433,0.95055909,-0.253356285,-0.24706968
1764763824.5259988,-7.00434,-2.4416,6.9433,0.95055909,-0.253356285,-0.24706968
1764763824.5259988,-7.00434,-2.4416,6.9433,0.95055909,-0.253356285,-0.24706968
1764763824.5259988,-7.00434,-2.4416,6.9433,0.95055909,-0.253356285,-0.24706968
1764763824.5259988,-7.00434,-2.4416,6.9433,0.95055909,-0.253356285,-0.24706968
1764763824.5259988,-7.00434,-2.4416,6.9433,0.95055909,-0.253356285,-0.24706968
1764763824.5259988,-7.00434,-2.4416,6.9433,0.95055909,-0.253356285,-0.24706968
1764763824.5259988,-7.00434,-2.4416,6.9433,0.95055909,-0.253356285,-0.24706968
1764763824.5259988,-7.00434,-2.4416,6.9433,0.95055909,-0.253356285,-0.24706968
1764763824.5259988,-7.00434,-2.4416,6.9433,0.95055909,-0.253356285,-0.24706968
1764763824.5259988,-4.13546,-0.96138,6.19556,0.9533667,-0.25830012,-0.247741065
1764763824.5259988,-4.13546,-0.96138,6.19556,0.9533667,-0.25830012,-0.247741065
1764763824.5735607,-4.13546,-0.96138,6.19556,0.9533667,-0.25830012,-0.247741065
1764763824.5735607,-4.13546,-0.96138,6.19556,0.9533667,-0.25830012,-0.247741065
1764763824.5735607,-4.13546,-0.96138,6.19556,0.9533667,-0.25830012,-0.247741065
1764763824.5735607,-4.13546,-0.96138,6.19556,0.9533667,-0.25830012,-0.247741065
1764763824.5745668,-4.13546,-0.96138,6.19556,0.9533667,-0.25830012,-0.247741065
1764763824.5745668,-4.13546,-0.96138,6.19556,0.9533667,-0.25830012,-0.247741065
1764763824.5745668,-4.13546,-0.96138,6.19556,0.9533667,-0.25830012,-0.247741065
1764763824.5749073,-4.13546,-0.96138,6.19556,0.9533667,-0.25830012,-0.247741065
1764763824.5749073,-1.4497,0.65618,5.20366,0.953061525,-0.261168765,-0.248351415
1764763824.5749073,-1.4497,0.65618,5.20366,0.953061525,-0.261168765,-0.248351415
1764763824.5749073,-1.4497,0.65618,5.20366,0.953061525,-0.261168765,-0.248351415
1764763824.5749073,-1.4497,0.65618,5.20366,0.953061525,-0.261168765,-0.248351415
1764763824.5749073,-1.4497,0.65618,5.20366,0.953061525,-0.261168765,-0.248351415
1764763824.5749073,-1.4497,0.65618,5.20366,0.953061525,-0.261168765,-0.248351415
1764763824.5749073,-1.4497,0.65618,5.20366,0.953061525,-0.261168765,-0.248351415
1764763824.5749073,-1.4497,0.65618,5.20366,0.953061525,-0.261168765,-0.248351415
1764763824.5749073,-1.4497,0.65618,5.20366,0.953061525,-0.261168765,-0.248351415
1764763824.5749073,-1.4497,0.65618,5.20366,0.953061525,-0.261168765,-0.248351415
1764763824.5749073,0.48832,1.4497,4.21176,0.95043702,-0.261779115,-0.24853452
1764763824.5749073,0.48832,1.4497,4.21176,0.95043702,-0.261779115,-0.24853452
1764763824.5749073,0.48832,1.4497,4.21176,0.95043702,-0.261779115,-0.24853452
1764763824.5749073,0.48832,1.4497,4.21176,0.95043702,-0.261779115,-0.24853452
1764763824.6210246,0.48832,1.4497,4.21176,0.95043702,-0.261779115,-0.24853452
1764763824.6210246,0.48832,1.4497,4.21176,0.95043702,-0.261779115,-0.24853452
1764763824.6210246,0.48832,1.4497,4.21176,0.95043702,-0.261779115,-0.24853452
1764763824.6210246,0.48832,1.4497,4.21176,0.95043702,-0.261779115,-0.24853452
1764763824.6210246,0.48832,1.4497,4.21176,0.95043702,-0.261779115,-0.24853452
1764763824.6210246,0.48832,1.4497,4.21176,0.95043702,-0.261779115,-0.24853452
1764763824.6210246,1.1445,2.15166,3.21986,0.94823976,-0.26061945,-0.24926694
1764763824.6210246,1.1445,2.15166,3.21986,0.94823976,-0.26061945,-0.24926694
1764763824.6210246,1.1445,2.15166,3.21986,0.94823976,-0.26061945,-0.24926694
1764763824.6210246,1.1445,2.15166,3.21986,0.94823976,-0.26061945,-0.24926694
1764763824.6210246,1.1445,2.15166,3.21986,0.94823976,-0.26061945,-0.24926694
1764763824.6210246,1.1445,2.15166,3.21986,0.94823976,-0.26061945,-0.24926694
1764763824.6210246,1.1445,2.15166,3.21986,0.94823976,-0.26061945,-0.24926694
1764763824.6210246,1.1445,2.15166,3.21986,0.94823976,-0.26061945,-0.24926694
1764763824.6210246,1.1445,2.15166,3.21986,0.94823976,-0.26061945,-0.24926694
1764763824.6210246,1.1445,2.15166,3.21986,0.94823976,-0.26061945,-0.24926694
1764763824.6210246,1.11398,2.12114,2.6705,0.9472632,-0.258361155,-0.249816255
1764763824.6210246,1.11398,2.12114,2.6705,0.9472632,-0.258361155,-0.249816255
1764763824.6210246,1.11398,2.12114,2.6705,0.9472632,-0.258361155,-0.249816255
1764763824.6210246,1.11398,2.12114,2.6705,0.9472632,-0.258361155,-0.249816255
1764763824.6210246,1.11398,2.12114,2.6705,0.9472632,-0.258361155,-0.249816255
1764763824.6210246,1.11398,2.12114,2.6705,0.9472632,-0.258361155,-0.249816255
1764763824.6210246,1.11398,2.12114,2.6705,0.9472632,-0.258361155,-0.249816255
1764763824.6210246,1.11398,2.12114,2.6705,0.9472632,-0.258361155,-0.249816255
1764763824.6644242,1.11398,2.12114,2.6705,0.9472632,-0.258361155,-0.249816255
1764763824.6644242,1.11398,2.12114,2.6705,0.9472632,-0.258361155,-0.249816255
1764763824.6644242,0.8087799999999999,3.31142,1.6633399999999998,0.94762941,-0.256896315,-0.24926694
1764763824.6644242,0.8087799999999999,3.31142,1.6633399999999998,0.94762941,-0.256896315,-0.24926694
1764763824.6644242,0.8087799999999999,3.31142,1.6633399999999998,0.94762941,-0.256896315,-0.24926694
1764763824.6644242,0.8087799999999999,3.31142,1.6633399999999998,0.94762941,-0.256896315,-0.24926694
1764763824.6644242,0.8087799999999999,3.31142,1.6633399999999998,0.94762941,-0.256896315,-0.24926694
1764763824.6644242,0.8087799999999999,3.31142,1.6633399999999998,0.94762941,-0.256896315,-0.24926694
1764763824.6644242,0.8087799999999999,3.31142,1.6633399999999998,0.94762941,-0.256896315,-0.24926694
1764763824.6644242,0.8087799999999999,3.31142,1.6633399999999998,0.94762941,-0.256896315,-0.24926694
1764763824.6644242,0.8087799999999999,3.31142,1.6633399999999998,0.94762941,-0.256896315,-0.24926694
1764763824.6656554,0.8087799999999999,3.31142,1.6633399999999998,0.94762941,-0.256896315,-0.24926694
1764763824.6656554,0.8087799999999999,4.13546,1.2208,0.94738527,-0.2575677,-0.24731382
1764763824.6656554,0.8087799999999999,4.13546,1.2208,0.94738527,-0.2575677,-0.24731382
1764763824.6656554,0.8087799999999999,4.13546,1.2208,0.94738527,-0.2575677,-0.24731382
1764763824.6656554,0.8087799999999999,4.13546,1.2208,0.94738527,-0.2575677,-0.24731382
1764763824.6656554,0.8087799999999999,4.13546,1.2208,0.94738527,-0.2575677,-0.24731382
1764763824.6656554,0.8087799999999999,4.13546,1.2208,0.94738527,-0.2575677,-0.24731382
1764763824.6656554,0.8087799999999999,4.13546,1.2208,0.94738527,-0.2575677,-0.24731382
1764763824.6656554,0.8087799999999999,4.13546,1.2208,0.94738527,-0.2575677,-0.24731382
1764763824.6656554,0.8087799999999999,4.13546,1.2208,0.94738527,-0.2575677,-0.24731382
1764763824.6656554,0.8087799999999999,4.13546,1.2208,0.94738527,-0.2575677,-0.24731382
1764763824.7123437,-0.12208,3.2809,0.21364,0.945981465,-0.25683528,-0.246764505
1764763824.7128465,-0.12208,3.2809,0.21364,0.945981465,-0.25683528,-0.246764505
1764763824.7128465,-0.12208,3.2809,0.21364,0.945981465,-0.25683528,-0.246764505
1764763824.7128465,-0.12208,3.2809,0.21364,0.945981465,-0.25683528,-0.246764505
1764763824.7128465,-0.12208,3.2809,0.21364,0.945981465,-0.25683528,-0.246764505
1764763824.7128465,-0.12208,3.2809,0.21364,0.945981465,-0.25683528,-0.246764505
1764763824.7128465,-0.12208,3.2809,0.21364,0.945981465,-0.25683528,-0.246764505
1764763824.7128465,-0.12208,3.2809,0.21364,0.945981465,-0.25683528,-0.246764505
1764763824.7128465,-0.12208,3.2809,0.21364,0.945981465,-0.25683528,-0.246764505
1764763824.7128465,-0.12208,3.2809,0.21364,0.945981465,-0.25683528,-0.246764505
1764763824.7128465,-1.46496,2.16692,-0.74774,0.9436011,-0.25549251,-0.24682554
1764763824.7128465,-1.46496,2.16692,-0.74774,0.9436011,-0.25549251,-0.24682554
1764763824.7128465,-1.46496,2.16692,-0.74774,0.9436011,-0.25549251,-0.24682554
1764763824.7128465,-1.46496,2.16692,-0.74774,0.9436011,-0.25549251,-0.24682554
1764763824.7133598,-1.46496,2.16692,-0.74774,0.9436011,-0.25549251,-0.24682554
1764763824.7133598,-1.46496,2.16692,-0.74774,0.9436011,-0.25549251,-0.24682554
1764763824.7133598,-1.46496,2.16692,-0.74774,0.9436011,-0.25549251,-0.24682554
1764763824.7133598,-1.46496,2.16692,-0.74774,0.9436011,-0.25549251,-0.24682554
1764763824.7133598,-1.46496,2.16692,-0.74774,0.9436011,-0.25549251,-0.24682554
1764763824.7133598,-1.46496,2.16692,-0.74774,0.9436011,-0.25549251,-0.24682554
1764763824.7133598,-2.19744,2.09062,-0.8087799999999999,0.945371115,-0.25488216,-0.24523863
1764763824.7133598,-2.19744,2.09062,-0.8087799999999999,0.945371115,-0.25488216,-0.24523863
1764763824.7133598,-2.19744,2.09062,-0.8087799999999999,0.945371115,-0.25488216,-0.24523863
1764763824.7133598,-2.19744,2.09062,-0.8087799999999999,0.945371115,-0.25488216,-0.24523863
1764763824.7600796,-2.19744,2.09062,-0.8087799999999999,0.945371115,-0.25488216,-0.24523863
1764763824.7600796,-2.19744,2.09062,-0.8087799999999999,0.945371115,-0.25488216,-0.24523863
1764763824.7600796,-2.19744,2.09062,-0.8087799999999999,0.945371115,-0.25488216,-0.24523863
1764763824.7606149,-2.19744,2.09062,-0.8087799999999999,0.945371115,-0.25488216,-0.24523863
1764763824.7606149,-2.19744,2.09062,-0.8087799999999999,0.945371115,-0.25488216,-0.24523863
1764763824.7606149,-2.19744,2.09062,-0.8087799999999999,0.945371115,-0.25488216,-0.24523863
1764763824.7606149,-1.78542,3.11304,-0.62566,0.94836183,-0.256041825,-0.243590685
1764763824.7606149,-1.78542,3.11304,-0.62566,0.94836183,-0.256041825,-0.243590685
1764763824.7606149,-1.78542,3.11304,-0.62566,0.94836183,-0.256041825,-0.243590685
1764763824.7606149,-1.78542,3.11304,-0.62566,0.94836183,-0.256041825,-0.243590685
1764763824.7606149,-1.78542,3.11304,-0.62566,0.94836183,-0.256041825,-0.243590685
1764763824.7606149,-1.78542,3.11304,-0.62566,0.94836183,-0.256041825,-0.243590685
1764763824.7606149,-1.78542,3.11304,-0.62566,0.94836183,-0.256041825,-0.243590685
1764763824.7606149,-1.78542,3.11304,-0.62566,0.94836183,-0.256041825,-0.243590685
1764763824.7606149,-1.78542,3.11304,-0.62566,0.94836183,-0.256041825,-0.243590685
1764763824.7606149,-1.78542,3.11304,-0.62566,0.94836183,-0.256041825,-0.243590685
1764763824.7606149,-1.9838,4.28806,-0.65618,0.949887705,-0.255309405,-0.24182067
1764763824.7606149,-1.9838,4.28806,-0.65618,0.949887705,-0.255309405,-0.24182067
1764763824.7606149,-1.9838,4.28806,-0.65618,0.949887705,-0.255309405,-0.24182067
1764763824.7606149,-1.9838,4.28806,-0.65618,0.949887705,-0.255309405,-0.24182067
1764763824.7606149,-1.9838,4.28806,-0.65618,0.949887705,-0.255309405,-0.24182067
1764763824.7606149,-1.9838,4.28806,-0.65618,0.949887705,-0.255309405,-0.24182067
1764763824.7606149,-1.9838,4.28806,-0.65618,0.949887705,-0.255309405,-0.24182067
1764763824.7606149,-1.9838,4.28806,-0.65618,0.949887705,-0.255309405,-0.24182067
1764763824.8068364,-1.9838,4.28806,-0.65618,0.949887705,-0.255309405,-0.24182067
1764763824.8068364,-1.9838,4.28806,-0.65618,0.949887705,-0.255309405,-0.24182067
1764763824.8068364,-1.17502,4.28806,-1.55652,0.94921632,-0.254943195,-0.240050655
1764763824.8068364,-1.17502,4.28806,-1.55652,0.94921632,-0.254943195,-0.240050655
1764763824.8068364,-1.17502,4.28806,-1.55652,0.94921632,-0.254943195,-0.240050655
1764763824.8068364,-1.17502,4.28806,-1.55652,0.94921632,-0.254943195,-0.240050655
1764763824.8068364,-1.17502,4.28806,-1.55652,0.94921632,-0.254943195,-0.240050655
1764763824.8068364,-1.17502,4.28806,-1.55652,0.94921632,-0.254943195,-0.240050655
1764763824.8068364,-1.17502,4.28806,-1.55652,0.94921632,-0.254943195,-0.240050655
1764763824.8068364,-1.17502,4.28806,-1.55652,0.94921632,-0.254943195,-0.240050655
1764763824.8068364,-1.17502,4.28806,-1.55652,0.94921632,-0.254943195,-0.240050655
1764763824.8068364,-1.17502,4.28806,-1.55652,0.94921632,-0.254943195,-0.240050655
1764763824.8068364,-1.12924,3.5098,-1.84646,0.94653078,-0.25427181,-0.238952025
1764763824.8068364,-1.12924,3.5098,-1.84646,0.94653078,-0.25427181,-0.238952025
1764763824.8068364,-1.12924,3.5098,-1.84646,0.94653078,-0.25427181,-0.238952025
1764763824.8068364,-1.12924,3.5098,-1.84646,0.94653078,-0.25427181,-0.238952025
1764763824.8068364,-1.12924,3.5098,-1.84646,0.94653078,-0.25427181,-0.238952025
1764763824.8068364,-1.12924,3.5098,-1.84646,0.94653078,-0.25427181,-0.238952025
1764763824.8068364,-1.12924,3.5098,-1.84646,0.94653078,-0.25427181,-0.238952025
1764763824.8068364,-1.12924,3.5098,-1.84646,0.94653078,-0.25427181,-0.238952025
1764763824.8068364,-1.12924,3.5098,-1.84646,0.94653078,-0.25427181,-0.238952025
1764763824.8068364,-1.12924,3.5098,-1.84646,0.94653078,-0.25427181,-0.238952025
1764763824.853496,-0.93086,2.70102,-1.84646,0.946713885,-0.253356285,-0.2380365
1764763824.853496,-0.93086,2.70102,-1.84646,0.946713885,-0.253356285,-0.2380365
1764763824.853496,-0.93086,2.70102,-1.84646,0.946713885,-0.253356285,-0.2380365
1764763824.853496,-0.93086,2.70102,-1.84646,0.946713885,-0.253356285,-0.2380365
1764763824.853496,-0.93086,2.70102,-1.84646,0.946713885,-0.253356285,-0.2380365
1764763824.853496,-0.93086,2.70102,-1.84646,0.946713885,-0.253356285,-0.2380365
1764763824.853496,-0.93086,2.70102,-1.84646,0.946713885,-0.253356285,-0.2380365
1764763824.853496,-0.93086,2.70102,-1.84646,0.946713885,-0.253356285,-0.2380365
1764763824.853496,-0.93086,2.70102,-1.84646,0.946713885,-0.253356285,-0.2380365
1764763824.853496,-0.93086,2.70102,-1.84646,0.946713885,-0.253356285,-0.2380365
1764763824.853496,-1.1445,2.88414,-2.35004,0.94799562,-0.2526849,-0.2380365
1764763824.853496,-1.1445,2.88414,-2.35004,0.94799562,-0.2526849,-0.2380365
1764763824.853496,-1.1445,2.88414,-2.35004,0.94799562,-0.2526849,-0.2380365
1764763824.853496,-1.1445,2.88414,-2.35004,0.94799562,-0.2526849,-0.2380365
1764763824.853496,-1.1445,2.88414,-2.35004,0.94799562,-0.2526849,-0.2380365
1764763824.853496,-1.1445,2.88414,-2.35004,0.94799562,-0.2526849,-0.2380365
1764763824.853496,-1.1445,2.88414,-2.35004,0.94799562,-0.2526849,-0.2380365
1764763824.853496,-1.1445,2.88414,-2.35004,0.94799562,-0.2526849,-0.2380365
1764763824.853496,-1.1445,2.88414,-2.35004,0.94799562,-0.2526849,-0.2380365
1764763824.853496,-1.1445,2.88414,-2.35004,0.94799562,-0.2526849,-0.2380365
1764763824.853496,-2.01432,2.6705,-1.9075,0.94933839,-0.25109799,-0.23767029
1764763824.853496,-2.01432,2.6705,-1.9075,0.94933839,-0.25109799,-0.23767029
1764763824.853496,-2.01432,2.6705,-1.9075,0.94933839,-0.25109799,-0.23767029
1764763824.853496,-2.01432,2.6705,-1.9075,0.94933839,-0.25109799,-0.23767029
1764763824.9003203,-2.01432,2.6705,-1.9075,0.94933839,-0.25109799,-0.23767029
1764763824.9003203,-2.01432,2.6705,-1.9075,0.94933839,-0.25109799,-0.23767029
1764763824.9003203,-2.01432,2.6705,-1.9075,0.94933839,-0.25109799,-0.23767029
1764763824.9003203,-2.01432,2.6705,-1.9075,0.94933839,-0.25109799,-0.23767029
1764763824.9003203,-2.01432,2.6705,-1.9075,0.94933839,-0.25109799,-0.23767029
1764763824.9003203,-2.01432,2.6705,-1.9075,0.94933839,-0.25109799,-0.23767029
1764763824.9003203,-3.14356,2.24322,-1.63282,0.9484839,-0.249083835,-0.238097535
1764763824.9003203,-3.14356,2.24322,-1.63282,0.9484839,-0.249083835,-0.238097535
1764763824.9003203,-3.14356,2.24322,-1.63282,0.9484839,-0.249083835,-0.238097535
1764763824.9003203,-3.14356,2.24322,-1.63282,0.9484839,-0.249083835,-0.238097535
1764763824.9003203,-3.14356,2.24322,-1.63282,0.9484839,-0.249083835,-0.238097535
1764763824.9021108,-3.14356,2.24322,-1.63282,0.9484839,-0.249083835,-0.238097535
1764763824.9021108,-3.14356,2.24322,-1.63282,0.9484839,-0.249083835,-0.238097535
1764763824.9021108,-3.14356,2.24322,-1.63282,0.9484839,-0.249083835,-0.238097535
1764763824.9021108,-3.14356,2.24322,-1.63282,0.9484839,-0.249083835,-0.238097535
1764763824.9021108,-3.14356,2.24322,-1.63282,0.9484839,-0.249083835,-0.238097535
1764763824.9021108,-4.53222,1.77016,-0.50358,0.94836183,-0.249205905,-0.237365115
1764763824.9021108,-4.53222,1.77016,-0.50358,0.94836183,-0.249205905,-0.237365115
1764763824.9021108,-4.53222,1.77016,-0.50358,0.94836183,-0.249205905,-0.237365115
1764763824.9021108,-4.53222,1.77016,-0.50358,0.94836183,-0.249205905,-0.237365115
1764763824.9021108,-4.53222,1.77016,-0.50358,0.94836183,-0.249205905,-0.237365115
1764763824.9021108,-4.53222,1.77016,-0.50358,0.94836183,-0.249205905,-0.237365115
1764763824.9021108,-4.53222,1.77016,-0.50358,0.94836183,-0.249205905,-0.237365115
1764763824.9021108,-4.53222,1.77016,-0.50358,0.94836183,-0.249205905,-0.237365115
1764763824.9478092,-4.53222,1.77016,-0.50358,0.94836183,-0.249205905,-0.237365115
1764763824.9478092,-4.53222,1.77016,-0.50358,0.94836183,-0.249205905,-0.237365115
1764763824.9478092,-5.05106,1.77016,0.36624,0.94811769,-0.248961765,-0.23718201
1764763824.9478092,-5.05106,1.77016,0.36624,0.94811769,-0.248961765,-0.23718201
1764763824.9478092,-5.05106,1.77016,0.36624,0.94811769,-0.248961765,-0.23718201
1764763824.9478092,-5.05106,1.77016,0.36624,0.94811769,-0.248961765,-0.23718201
1764763824.9478092,-5.05106,1.77016,0.36624,0.94811769,-0.248961765,-0.23718201
1764763824.9478092,-5.05106,1.77016,0.36624,0.94811769,-0.248961765,-0.23718201
1764763824.9478092,-5.05106,1.77016,0.36624,0.94811769,-0.248961765,-0.23718201
1764763824.9478092,-5.05106,1.77016,0.36624,0.94811769,-0.248961765,-0.23718201
1764763824.9478092,-5.05106,1.77016,0.36624,0.94811769,-0.248961765,-0.23718201
1764763824.9478092,-5.05106,1.77016,0.36624,0.94811769,-0.248961765,-0.23718201
1764763824.9478092,-5.40204,1.25132,0.51884,0.94836183,-0.249816255,-0.23718201
1764763824.9478092,-5.40204,1.25132,0.51884,0.94836183,-0.249816255,-0.23718201
1764763824.9478092,-5.40204,1.25132,0.51884,0.94836183,-0.249816255,-0.23718201
1764763824.9478092,-5.40204,1.25132,0.51884,0.94836183,-0.249816255,-0.23718201
1764763824.9478092,-5.40204,1.25132,0.51884,0.94836183,-0.249816255,-0.23718201
1764763824.9478092,-5.40204,1.25132,0.51884,0.94836183,-0.249816255,-0.23718201
1764763824.9478092,-5.40204,1.25132,0.51884,0.94836183,-0.249816255,-0.23718201
1764763824.9478092,-5.40204,1.25132,0.51884,0.94836183,-0.249816255,-0.23718201
1764763824.9478092,-5.40204,1.25132,0.51884,0.94836183,-0.249816255,-0.23718201
1764763824.9478092,-5.40204,1.25132,0.51884,0.94836183,-0.249816255,-0.23718201
1764763824.9478092,-4.54748,1.11398,0.01526,0.94860597,-0.251159025,-0.23620545
1764763824.9478092,-4.54748,1.11398,0.01526,0.94860597,-0.251159025,-0.23620545
1764763824.9907346,-4.54748,1.11398,0.01526,0.94860597,-0.251159025,-0.23620545
1764763824.9907346,-4.54748,1.11398,0.01526,0.94860597,-0.251159025,-0.23620545
1764763824.9907346,-4.54748,1.11398,0.01526,0.94860597,-0.251159025,-0.23620545
1764763824.9907346,-4.54748,1.11398,0.01526,0.94860597,-0.251159025,-0.23620545
1764763824.9907346,-4.54748,1.11398,0.01526,0.94860597,-0.251159025,-0.23620545
1764763824.9907346,-4.54748,1.11398,0.01526,0.94860597,-0.251159025,-0.23620545
1764763824.9907346,-4.54748,1.11398,0.01526,0.94860597,-0.251159025,-0.23620545
1764763824.9907346,-4.54748,1.11398,0.01526,0.94860597,-0.251159025,-0.23620545
1764763824.9907346,-3.9676,0.9003399999999999,0.27468,0.94836183,-0.251281095,-0.236388555
1764763824.9907346,-3.9676,0.9003399999999999,0.27468,0.94836183,-0.251281095,-0.236388555
1764763824.9907346,-3.9676,0.9003399999999999,0.27468,0.94836183,-0.251281095,-0.236388555
1764763824.9907346,-3.9676,0.9003399999999999,0.27468,0.94836183,-0.251281095,-0.236388555
1764763824.9907346,-3.9676,0.9003399999999999,0.27468,0.94836183,-0.251281095,-0.236388555
1764763824.9907346,-3.9676,0.9003399999999999,0.27468,0.94836183,-0.251281095,-0.236388555
1764763824.9907346,-3.9676,0.9003399999999999,0.27468,0.94836183,-0.251281095,-0.236388555
1764763824.9907346,-3.9676,0.9003399999999999,0.27468,0.94836183,-0.251281095,-0.236388555
1764763824.9907346,-3.9676,0.9003399999999999,0.27468,0.94836183,-0.251281095,-0.236388555
1764763824.9907346,-3.9676,0.9003399999999999,0.27468,0.94836183,-0.251281095,-0.236388555
1764763824.9907346,-3.52506,0.25942,0.77826,0.947812515,-0.251403165,-0.236998905
1764763824.9907346,-3.52506,0.25942,0.77826,0.947812515,-0.251403165,-0.236998905
1764763824.9907346,-3.52506,0.25942,0.77826,0.947812515,-0.251403165,-0.236998905
1764763824.9907346,-3.52506,0.25942,0.77826,0.947812515,-0.251403165,-0.236998905
1764763825.0408049,-3.52506,0.25942,0.77826,0.947812515,-0.251403165,-0.236998905
1764763825.0408049,-3.52506,0.25942,0.77826,0.947812515,-0.251403165,-0.236998905
1764763825.0408049,-3.52506,0.25942,0.77826,0.947812515,-0.251403165,-0.236998905
1764763825.0408049,-3.52506,0.25942,0.77826,0.947812515,-0.251403165,-0.236998905
1764763825.0408049,-3.52506,0.25942,0.77826,0.947812515,-0.251403165,-0.236998905
1764763825.0408049,-3.52506,0.25942,0.77826,0.947812515,-0.251403165,-0.236998905
1764763825.0408049,-3.5098,-0.24416,0.42728,0.948422865,-0.25134213,-0.237487185
1764763825.0408049,-3.5098,-0.24416,0.42728,0.948422865,-0.25134213,-0.237487185
1764763825.0408049,-3.5098,-0.24416,0.42728,0.948422865,-0.25134213,-0.237487185
1764763825.0408049,-3.5098,-0.24416,0.42728,0.948422865,-0.25134213,-0.237487185
1764763825.0419393,-3.5098,-0.24416,0.42728,0.948422865,-0.25134213,-0.237487185
1764763825.0419393,-3.5098,-0.24416,0.42728,0.948422865,-0.25134213,-0.237487185
1764763825.0419393,-3.5098,-0.24416,0.42728,0.948422865,-0.25134213,-0.237487185
1764763825.0419393,-3.5098,-0.24416,0.42728,0.948422865,-0.25134213,-0.237487185
1764763825.0419393,-3.5098,-0.24416,0.42728,0.948422865,-0.25134213,-0.237487185
1764763825.0419393,-3.5098,-0.24416,0.42728,0.948422865,-0.25134213,-0.237487185
1764763825.0419393,-3.9676,0.50358,0.3509799999999999,0.949643565,-0.250548675,-0.23779236
1764763825.0419393,-3.9676,0.50358,0.3509799999999999,0.949643565,-0.250548675,-0.23779236
1764763825.0876808,-3.9676,0.50358,0.3509799999999999,0.949643565,-0.250548675,-0.23779236
1764763825.0876808,-3.9676,0.50358,0.3509799999999999,0.949643565,-0.250548675,-0.23779236
1764763825.0876808,-3.9676,0.50358,0.3509799999999999,0.949643565,-0.250548675,-0.23779236
1764763825.0876808,-3.9676,0.50358,0.3509799999999999,0.949643565,-0.250548675,-0.23779236
1764763825.0876808,-3.9676,0.50358,0.3509799999999999,0.949643565,-0.250548675,-0.23779236
1764763825.0876808,-3.9676,0.50358,0.3509799999999999,0.949643565,-0.250548675,-0.23779236
1764763825.0876808,-3.9676,0.50358,0.3509799999999999,0.949643565,-0.250548675,-0.23779236
1764763825.0876808,-3.9676,0.50358,0.3509799999999999,0.949643565,-0.250548675,-0.23779236
1764763825.0876808,-4.577999999999999,0.3509799999999999,0.28994,0.94994874,-0.249816255,-0.238341675
1764763825.0876808,-4.577999999999999,0.3509799999999999,0.28994,0.94994874,-0.249816255,-0.238341675
1764763825.0876808,-4.577999999999999,0.3509799999999999,0.28994,0.94994874,-0.249816255,-0.238341675
1764763825.0876808,-4.577999999999999,0.3509799999999999,0.28994,0.94994874,-0.249816255,-0.238341675
1764763825.0876808,-4.577999999999999,0.3509799999999999,0.28994,0.94994874,-0.249816255,-0.238341675
1764763825.0876808,-4.577999999999999,0.3509799999999999,0.28994,0.94994874,-0.249816255,-0.238341675
1764763825.0876808,-4.577999999999999,0.3509799999999999,0.28994,0.94994874,-0.249816255,-0.238341675
1764763825.0876808,-4.577999999999999,0.3509799999999999,0.28994,0.94994874,-0.249816255,-0.238341675
1764763825.0876808,-4.577999999999999,0.3509799999999999,0.28994,0.94994874,-0.249816255,-0.238341675
1764763825.0876808,-4.577999999999999,0.3509799999999999,0.28994,0.94994874,-0.249816255,-0.238341675
1764763825.0876808,-5.29522,0.73248,-0.19838,0.950009775,-0.24926694,-0.238585815
1764763825.0876808,-5.29522,0.73248,-0.19838,0.950009775,-0.24926694,-0.238585815
1764763825.0876808,-5.29522,0.73248,-0.19838,0.950009775,-0.24926694,-0.238585815
1764763825.0876808,-5.29522,0.73248,-0.19838,0.950009775,-0.24926694,-0.238585815
1764763825.0876808,-5.29522,0.73248,-0.19838,0.950009775,-0.24926694,-0.238585815
1764763825.0876808,-5.29522,0.73248,-0.19838,0.950009775,-0.24926694,-0.238585815
1764763825.0876808,-5.29522,0.73248,-0.19838,0.950009775,-0.24926694,-0.238585815
1764763825.0886984,-5.29522,0.73248,-0.19838,0.950009775,-0.24926694,-0.238585815
1764763825.0886984,-5.29522,0.73248,-0.19838,0.950009775,-0.24926694,-0.238585815
1764763825.0886984,-5.29522,0.73248,-0.19838,0.950009775,-0.24926694,-0.238585815
1764763825.131242,-5.55464,0.77826,-0.3204599999999999,0.94982667,-0.24890073,-0.23937927
1764763825.131242,-5.55464,0.77826,-0.3204599999999999,0.94982667,-0.24890073,-0.23937927
1764763825.131242,-5.55464,0.77826,-0.3204599999999999,0.94982667,-0.24890073,-0.23937927
1764763825.131242,-5.55464,0.77826,-0.3204599999999999,0.94982667,-0.24890073,-0.23937927
1764763825.131242,-5.55464,0.77826,-0.3204599999999999,0.94982667,-0.24890073,-0.23937927
1764763825.131242,-5.55464,0.77826,-0.3204599999999999,0.94982667,-0.24890073,-0.23937927
1764763825.131242,-5.55464,0.77826,-0.3204599999999999,0.94982667,-0.24890073,-0.23937927
1764763825.131242,-5.55464,0.77826,-0.3204599999999999,0.94982667,-0.24890073,-0.23937927
1764763825.132254,-5.55464,0.77826,-0.3204599999999999,0.94982667,-0.24890073,-0.23937927
1764763825.132254,-5.55464,0.77826,-0.3204599999999999,0.94982667,-0.24890073,-0.23937927
1764763825.132254,-5.73776,0.93086,-0.28994,0.948667005,-0.249083835,-0.239440305
1764763825.132254,-5.73776,0.93086,-0.28994,0.948667005,-0.249083835,-0.239440305
1764763825.132254,-5.73776,0.93086,-0.28994,0.948667005,-0.249083835,-0.239440305
1764763825.132254,-5.73776,0.93086,-0.28994,0.948667005,-0.249083835,-0.239440305
1764763825.132978,-5.73776,0.93086,-0.28994,0.948667005,-0.249083835,-0.239440305
1764763825.132978,-5.73776,0.93086,-0.28994,0.948667005,-0.249083835,-0.239440305
1764763825.132978,-5.73776,0.93086,-0.28994,0.948667005,-0.249083835,-0.239440305
1764763825.132978,-5.73776,0.93086,-0.28994,0.948667005,-0.249083835,-0.239440305
1764763825.132978,-5.73776,0.93086,-0.28994,0.948667005,-0.249083835,-0.239440305
1764763825.132978,-5.73776,0.93086,-0.28994,0.948667005,-0.249083835,-0.239440305
1764763825.132978,-5.84458,0.9003399999999999,0.01526,0.948422865,-0.24841245,-0.2404779
1764763825.132978,-5.84458,0.9003399999999999,0.01526,0.948422865,-0.24841245,-0.2404779
1764763825.132978,-5.84458,0.9003399999999999,0.01526,0.948422865,-0.24841245,-0.2404779
1764763825.132978,-5.84458,0.9003399999999999,0.01526,0.948422865,-0.24841245,-0.2404779
1764763825.180282,-5.84458,0.9003399999999999,0.01526,0.948422865,-0.24841245,-0.2404779
1764763825.180282,-5.84458,0.9003399999999999,0.01526,0.948422865,-0.24841245,-0.2404779
1764763825.180282,-5.84458,0.9003399999999999,0.01526,0.948422865,-0.24841245,-0.2404779
1764763825.180282,-5.84458,0.9003399999999999,0.01526,0.948422865,-0.24841245,-0.2404779
1764763825.180282,-5.84458,0.9003399999999999,0.01526,0.948422865,-0.24841245,-0.2404779
1764763825.180282,-5.84458,0.9003399999999999,0.01526,0.948422865,-0.24841245,-0.2404779
1764763825.180282,-5.60042,0.9156,-0.28994,0.94994874,-0.24963315,-0.240050655
1764763825.180282,-5.60042,0.9156,-0.28994,0.94994874,-0.24963315,-0.240050655
1764763825.180282,-5.60042,0.9156,-0.28994,0.94994874,-0.24963315,-0.240050655
1764763825.180282,-5.60042,0.9156,-0.28994,0.94994874,-0.24963315,-0.240050655
1764763825.180282,-5.60042,0.9156,-0.28994,0.94994874,-0.24963315,-0.240050655
1764763825.180282,-5.60042,0.9156,-0.28994,0.94994874,-0.24963315,-0.240050655
1764763825.180282,-5.60042,0.9156,-0.28994,0.94994874,-0.24963315,-0.240050655
1764763825.180282,-5.60042,0.9156,-0.28994,0.94994874,-0.24963315,-0.240050655
1764763825.180282,-5.60042,0.9156,-0.28994,0.94994874,-0.24963315,-0.240050655
1764763825.180282,-5.60042,0.9156,-0.28994,0.94994874,-0.24963315,-0.240050655
1764763825.180282,-5.1884,1.26658,0.3204599999999999,0.950131845,-0.250914885,-0.24023376
1764763825.180282,-5.1884,1.26658,0.3204599999999999,0.950131845,-0.250914885,-0.24023376
1764763825.180282,-5.1884,1.26658,0.3204599999999999,0.950131845,-0.250914885,-0.24023376
1764763825.180282,-5.1884,1.26658,0.3204599999999999,0.950131845,-0.250914885,-0.24023376
1764763825.180282,-5.1884,1.26658,0.3204599999999999,0.950131845,-0.250914885,-0.24023376
1764763825.180282,-5.1884,1.26658,0.3204599999999999,0.950131845,-0.250914885,-0.24023376
1764763825.180282,-5.1884,1.26658,0.3204599999999999,0.950131845,-0.250914885,-0.24023376
1764763825.180282,-5.1884,1.26658,0.3204599999999999,0.950131845,-0.250914885,-0.24023376
1764763825.2276614,-5.1884,1.26658,0.3204599999999999,0.950131845,-0.250914885,-0.24023376
1764763825.2276614,-5.1884,1.26658,0.3204599999999999,0.950131845,-0.250914885,-0.24023376
1764763825.2276614,-5.02054,0.5341,-0.09156,0.949033215,-0.250426605,-0.241027215
1764763825.2276614,-5.02054,0.5341,-0.09156,0.949033215,-0.250426605,-0.241027215
1764763825.2276614,-5.02054,0.5341,-0.09156,0.949033215,-0.250426605,-0.241027215
1764763825.2276614,-5.02054,0.5341,-0.09156,0.949033215,-0.250426605,-0.241027215
1764763825.2289565,-5.02054,0.5341,-0.09156,0.949033215,-0.250426605,-0.241027215
1764763825.2289565,-5.02054,0.5341,-0.09156,0.949033215,-0.250426605,-0.241027215
1764763825.2289565,-5.02054,0.5341,-0.09156,0.949033215,-0.250426605,-0.241027215
1764763825.2289565,-5.02054,0.5341,-0.09156,0.949033215,-0.250426605,-0.241027215
1764763825.2289565,-5.02054,0.5341,-0.09156,0.949033215,-0.250426605,-0.241027215
1764763825.2289565,-5.02054,0.5341,-0.09156,0.949033215,-0.250426605,-0.241027215
1764763825.2289565,-4.89846,-0.19838,-0.59514,0.94860597,-0.24975522,-0.242003775
1764763825.2289565,-4.89846,-0.19838,-0.59514,0.94860597,-0.24975522,-0.242003775
1764763825.2289565,-4.89846,-0.19838,-0.59514,0.94860597,-0.24975522,-0.242003775
1764763825.2289565,-4.89846,-0.19838,-0.59514,0.94860597,-0.24975522,-0.242003775
1764763825.2289565,-4.89846,-0.19838,-0.59514,0.94860597,-0.24975522,-0.242003775
1764763825.2289565,-4.89846,-0.19838,-0.59514,0.94860597,-0.24975522,-0.242003775
1764763825.2289565,-4.89846,-0.19838,-0.59514,0.94860597,-0.24975522,-0.242003775
1764763825.2289565,-4.89846,-0.19838,-0.59514,0.94860597,-0.24975522,-0.242003775
1764763825.2289565,-4.89846,-0.19838,-0.59514,0.94860597,-0.24975522,-0.242003775
1764763825.2289565,-4.89846,-0.19838,-0.59514,0.94860597,-0.24975522,-0.242003775
1764763825.2289565,-3.86078,0.763,-0.3815,0.95068116,-0.25134213,-0.241027215
1764763825.2289565,-3.86078,0.763,-0.3815,0.95068116,-0.25134213,-0.241027215
1764763825.2726872,-3.86078,0.763,-0.3815,0.95068116,-0.25134213,-0.241027215
1764763825.2726872,-3.86078,0.763,-0.3815,0.95068116,-0.25134213,-0.241027215
1764763825.2726872,-3.86078,0.763,-0.3815,0.95068116,-0.25134213,-0.241027215
1764763825.2726872,-3.86078,0.763,-0.3815,0.95068116,-0.25134213,-0.241027215
1764763825.2726872,-3.86078,0.763,-0.3815,0.95068116,-0.25134213,-0.241027215
1764763825.2726872,-3.86078,0.763,-0.3815,0.95068116,-0.25134213,-0.241027215
1764763825.2726872,-3.86078,0.763,-0.3815,0.95068116,-0.25134213,-0.241027215
1764763825.2726872,-3.86078,0.763,-0.3815,0.95068116,-0.25134213,-0.241027215
1764763825.2726872,-2.2127,1.93802,0.77826,0.95385498,-0.25219662,-0.24011169
1764763825.2726872,-2.2127,1.93802,0.77826,0.95385498,-0.25219662,-0.24011169
1764763825.2726872,-2.2127,1.93802,0.77826,0.95385498,-0.25219662,-0.24011169
1764763825.2726872,-2.2127,1.93802,0.77826,0.95385498,-0.25219662,-0.24011169
1764763825.2726872,-2.2127,1.93802,0.77826,0.95385498,-0.25219662,-0.24011169
1764763825.2726872,-2.2127,1.93802,0.77826,0.95385498,-0.25219662,-0.24011169
1764763825.2726872,-2.2127,1.93802,0.77826,0.95385498,-0.25219662,-0.24011169
1764763825.2726872,-2.2127,1.93802,0.77826,0.95385498,-0.25219662,-0.24011169
1764763825.2726872,-2.2127,1.93802,0.77826,0.95385498,-0.25219662,-0.24011169
1764763825.2726872,-2.2127,1.93802,0.77826,0.95385498,-0.25219662,-0.24011169
1764763825.2726872,-1.58704,2.6705,0.94612,0.952817385,-0.249327975,-0.240294795
1764763825.2726872,-1.58704,2.6705,0.94612,0.952817385,-0.249327975,-0.240294795
1764763825.2726872,-1.58704,2.6705,0.94612,0.952817385,-0.249327975,-0.240294795
1764763825.2726872,-1.58704,2.6705,0.94612,0.952817385,-0.249327975,-0.240294795
1764763825.2726872,-1.58704,2.6705,0.94612,0.952817385,-0.249327975,-0.240294795
1764763825.2726872,-1.58704,2.6705,0.94612,0.952817385,-0.249327975,-0.240294795
1764763825.3168888,-1.58704,2.6705,0.94612,0.952817385,-0.249327975,-0.240294795
1764763825.3168888,-1.58704,2.6705,0.94612,0.952817385,-0.249327975,-0.240294795
1764763825.3168888,-1.58704,2.6705,0.94612,0.952817385,-0.249327975,-0.240294795
1764763825.3168888,-1.58704,2.6705,0.94612,0.952817385,-0.249327975,-0.240294795
1764763825.3168888,-1.6786,2.6705,0.6714399999999999,0.951474615,-0.24743589,-0.24072204
1764763825.3168888,-1.6786,2.6705,0.6714399999999999,0.951474615,-0.24743589,-0.24072204
1764763825.3173933,-1.6786,2.6705,0.6714399999999999,0.951474615,-0.24743589,-0.24072204
1764763825.3173933,-1.6786,2.6705,0.6714399999999999,0.951474615,-0.24743589,-0.24072204
1764763825.3173933,-1.6786,2.6705,0.6714399999999999,0.951474615,-0.24743589,-0.24072204
1764763825.3173933,-1.6786,2.6705,0.6714399999999999,0.951474615,-0.24743589,-0.24072204
1764763825.3173933,-1.6786,2.6705,0.6714399999999999,0.951474615,-0.24743589,-0.24072204
1764763825.3173933,-1.6786,2.6705,0.6714399999999999,0.951474615,-0.24743589,-0.24072204
1764763825.3173933,-1.6786,2.6705,0.6714399999999999,0.951474615,-0.24743589,-0.24072204
1764763825.3173933,-1.6786,2.6705,0.6714399999999999,0.951474615,-0.24743589,-0.24072204
1764763825.3173933,-1.4497,2.289,0.77826,0.948667005,-0.247008645,-0.23974548
1764763825.3173933,-1.4497,2.289,0.77826,0.948667005,-0.247008645,-0.23974548
1764763825.3173933,-1.4497,2.289,0.77826,0.948667005,-0.247008645,-0.23974548
1764763825.3173933,-1.4497,2.289,0.77826,0.948667005,-0.247008645,-0.23974548
1764763825.317903,-1.4497,2.289,0.77826,0.948667005,-0.247008645,-0.23974548
1764763825.317903,-1.4497,2.289,0.77826,0.948667005,-0.247008645,-0.23974548
1764763825.317903,-1.4497,2.289,0.77826,0.948667005,-0.247008645,-0.23974548
1764763825.317903,-1.4497,2.289,0.77826,0.948667005,-0.247008645,-0.23974548
1764763825.3643088,-1.4497,2.289,0.77826,0.948667005,-0.247008645,-0.23974548
1764763825.3643088,-1.4497,2.289,0.77826,0.948667005,-0.247008645,-0.23974548
1764763825.3643088,-1.15976,1.93802,1.19028,0.94665285,-0.247496925,-0.238829955
1764763825.3643088,-1.15976,1.93802,1.19028,0.94665285,-0.247496925,-0.238829955
1764763825.3643088,-1.15976,1.93802,1.19028,0.94665285,-0.247496925,-0.238829955
1764763825.3643088,-1.15976,1.93802,1.19028,0.94665285,-0.247496925,-0.238829955
1764763825.3643088,-1.15976,1.93802,1.19028,0.94665285,-0.247496925,-0.238829955
1764763825.3643088,-1.15976,1.93802,1.19028,0.94665285,-0.247496925,-0.238829955
1764763825.3643088,-1.15976,1.93802,1.19028,0.94665285,-0.247496925,-0.238829955
1764763825.3643088,-1.15976,1.93802,1.19028,0.94665285,-0.247496925,-0.238829955
1764763825.3643088,-1.15976,1.93802,1.19028,0.94665285,-0.247496925,-0.238829955
1764763825.3643088,-1.15976,1.93802,1.19028,0.94665285,-0.247496925,-0.238829955
1764763825.3643088,-1.46496,1.00716,1.03768,0.946713885,-0.24743589,-0.239196165
1764763825.3643088,-1.46496,1.00716,1.03768,0.946713885,-0.24743589,-0.239196165
1764763825.3643088,-1.46496,1.00716,1.03768,0.946713885,-0.24743589,-0.239196165
1764763825.3643088,-1.46496,1.00716,1.03768,0.946713885,-0.24743589,-0.239196165
1764763825.3643088,-1.46496,1.00716,1.03768,0.946713885,-0.24743589,-0.239196165
1764763825.3643088,-1.46496,1.00716,1.03768,0.946713885,-0.24743589,-0.239196165
1764763825.3643088,-1.46496,1.00716,1.03768,0.946713885,-0.24743589,-0.239196165
1764763825.3643088,-1.46496,1.00716,1.03768,0.946713885,-0.24743589,-0.239196165
1764763825.3643088,-1.46496,1.00716,1.03768,0.946713885,-0.24743589,-0.239196165
1764763825.3643088,-1.46496,1.00716,1.03768,0.946713885,-0.24743589,-0.239196165
1764763825.409951,-2.63998,0.79352,0.77826,0.947812515,-0.24572691,-0.239806515
1764763825.409951,-2.63998,0.79352,0.77826,0.947812515,-0.24572691,-0.239806515
1764763825.409951,-2.63998,0.79352,0.77826,0.947812515,-0.24572691,-0.239806515
1764763825.409951,-2.63998,0.79352,0.77826,0.947812515,-0.24572691,-0.239806515
1764763825.409951,-2.63998,0.79352,0.77826,0.947812515,-0.24572691,-0.239806515
1764763825.409951,-2.63998,0.79352,0.77826,0.947812515,-0.24572691,-0.239806515
1764763825.409951,-2.63998,0.79352,0.77826,0.947812515,-0.24572691,-0.239806515
1764763825.409951,-2.63998,0.79352,0.77826,0.947812515,-0.24572691,-0.239806515
1764763825.409951,-2.63998,0.79352,0.77826,0.947812515,-0.24572691,-0.239806515
1764763825.409951,-2.63998,0.79352,0.77826,0.947812515,-0.24572691,-0.239806515
1764763825.409951,-3.70818,-3.8913,1.09872,0.948789075,-0.245787945,-0.240172725
1764763825.409951,-3.70818,-3.8913,1.09872,0.948789075,-0.245787945,-0.240172725
1764763825.409951,-3.70818,-3.8913,1.09872,0.948789075,-0.245787945,-0.240172725
1764763825.409951,-3.70818,-3.8913,1.09872,0.948789075,-0.245787945,-0.240172725
1764763825.409951,-3.70818,-3.8913,1.09872,0.948789075,-0.245787945,-0.240172725
1764763825.409951,-3.70818,-3.8913,1.09872,0.948789075,-0.245787945,-0.240172725
1764763825.409951,-3.70818,-3.8913,1.09872,0.948789075,-0.245787945,-0.240172725
1764763825.409951,-3.70818,-3.8913,1.09872,0.948789075,-0.245787945,-0.240172725
1764763825.409951,-3.70818,-3.8913,1.09872,0.948789075,-0.245787945,-0.240172725
1764763825.409951,-3.70818,-3.8913,1.09872,0.948789075,-0.245787945,-0.240172725
1764763825.409951,-3.5861,0.04578,2.07536,0.947812515,-0.24816831,-0.240294795
1764763825.409951,-3.5861,0.04578,2.07536,0.947812515,-0.24816831,-0.240294795
1764763825.409951,-3.5861,0.04578,2.07536,0.947812515,-0.24816831,-0.240294795
1764763825.409951,-3.5861,0.04578,2.07536,0.947812515,-0.24816831,-0.240294795
1764763825.457208,-3.5861,0.04578,2.07536,0.947812515,-0.24816831,-0.240294795
1764763825.457208,-3.5861,0.04578,2.07536,0.947812515,-0.24816831,-0.240294795
1764763825.4578354,-3.5861,0.04578,2.07536,0.947812515,-0.24816831,-0.240294795
1764763825.4578354,-3.5861,0.04578,2.07536,0.947812515,-0.24816831,-0.240294795
1764763825.4578354,-3.5861,0.04578,2.07536,0.947812515,-0.24816831,-0.240294795
1764763825.4578354,-3.5861,0.04578,2.07536,0.947812515,-0.24816831,-0.240294795
1764763825.4578354,-4.08968,-0.06104,1.69386,0.94701906,-0.24853452,-0.241515495
1764763825.4578354,-4.08968,-0.06104,1.69386,0.94701906,-0.24853452,-0.241515495
1764763825.4578354,-4.08968,-0.06104,1.69386,0.94701906,-0.24853452,-0.241515495
1764763825.4578354,-4.08968,-0.06104,1.69386,0.94701906,-0.24853452,-0.241515495
1764763825.4578354,-4.08968,-0.06104,1.69386,0.94701906,-0.24853452,-0.241515495
1764763825.4578354,-4.08968,-0.06104,1.69386,0.94701906,-0.24853452,-0.241515495
1764763825.4578354,-4.08968,-0.06104,1.69386,0.94701906,-0.24853452,-0.241515495
1764763825.4578354,-4.08968,-0.06104,1.69386,0.94701906,-0.24853452,-0.241515495
1764763825.4578354,-4.08968,-0.06104,1.69386,0.94701906,-0.24853452,-0.241515495
1764763825.4578354,-4.08968,-0.06104,1.69386,0.94701906,-0.24853452,-0.241515495
1764763825.4578354,-4.303319999999999,0.59514,1.526,0.94909425,-0.249327975,-0.24084411
1764763825.4578354,-4.303319999999999,0.59514,1.526,0.94909425,-0.249327975,-0.24084411
1764763825.4578354,-4.303319999999999,0.59514,1.526,0.94909425,-0.249327975,-0.24084411
1764763825.4578354,-4.303319999999999,0.59514,1.526,0.94909425,-0.249327975,-0.24084411
1764763825.4578354,-4.303319999999999,0.59514,1.526,0.94909425,-0.249327975,-0.24084411
1764763825.4578354,-4.303319999999999,0.59514,1.526,0.94909425,-0.249327975,-0.24084411
1764763825.4578354,-4.303319999999999,0.59514,1.526,0.94909425,-0.249327975,-0.24084411
1764763825.4578354,-4.303319999999999,0.59514,1.526,0.94909425,-0.249327975,-0.24084411
1764763825.505322,-4.303319999999999,0.59514,1.526,0.94909425,-0.249327975,-0.24084411
1764763825.5063434,-4.303319999999999,0.59514,1.526,0.94909425,-0.249327975,-0.24084411
1764763825.5063434,-4.3491,1.73964,1.02242,0.952146,-0.247863135,-0.239806515
1764763825.5063434,-4.3491,1.73964,1.02242,0.952146,-0.247863135,-0.239806515
1764763825.5063434,-4.3491,1.73964,1.02242,0.952146,-0.247863135,-0.239806515
1764763825.5063434,-4.3491,1.73964,1.02242,0.952146,-0.247863135,-0.239806515
1764763825.5063434,-4.3491,1.73964,1.02242,0.952146,-0.247863135,-0.239806515
1764763825.5063434,-4.3491,1.73964,1.02242,0.952146,-0.247863135,-0.239806515
1764763825.5063434,-4.3491,1.73964,1.02242,0.952146,-0.247863135,-0.239806515
1764763825.5063434,-4.3491,1.73964,1.02242,0.952146,-0.247863135,-0.239806515
1764763825.5063434,-4.3491,1.73964,1.02242,0.952146,-0.247863135,-0.239806515
1764763825.5063434,-4.3491,1.73964,1.02242,0.952146,-0.247863135,-0.239806515
1764763825.5063434,-4.54748,2.09062,0.3815,0.95116944,-0.24829038,-0.24059997
1764763825.5063434,-4.54748,2.09062,0.3815,0.95116944,-0.24829038,-0.24059997
1764763825.5063434,-4.54748,2.09062,0.3815,0.95116944,-0.24829038,-0.24059997
1764763825.5063434,-4.54748,2.09062,0.3815,0.95116944,-0.24829038,-0.24059997
1764763825.5063434,-4.54748,2.09062,0.3815,0.95116944,-0.24829038,-0.24059997
1764763825.5063434,-4.54748,2.09062,0.3815,0.95116944,-0.24829038,-0.24059997
1764763825.5063434,-4.54748,2.09062,0.3815,0.95116944,-0.24829038,-0.24059997
1764763825.507339,-4.54748,2.09062,0.3815,0.95116944,-0.24829038,-0.24059997
1764763825.507339,-4.54748,2.09062,0.3815,0.95116944,-0.24829038,-0.24059997
1764763825.507339,-4.54748,2.09062,0.3815,0.95116944,-0.24829038,-0.24059997
1764763825.507339,-4.15072,1.77016,0.24416,0.94897218,-0.250426605,-0.23998962
1764763825.507339,-4.15072,1.77016,0.24416,0.94897218,-0.250426605,-0.23998962
1764763825.554446,-4.15072,1.77016,0.24416,0.94897218,-0.250426605,-0.23998962
1764763825.554446,-4.15072,1.77016,0.24416,0.94897218,-0.250426605,-0.23998962
1764763825.554446,-4.15072,1.77016,0.24416,0.94897218,-0.250426605,-0.23998962
1764763825.554446,-4.15072,1.77016,0.24416,0.94897218,-0.250426605,-0.23998962
1764763825.554446,-4.15072,1.77016,0.24416,0.94897218,-0.250426605,-0.23998962
1764763825.554446,-4.15072,1.77016,0.24416,0.94897218,-0.250426605,-0.23998962
1764763825.5554664,-4.15072,1.77016,0.24416,0.94897218,-0.250426605,-0.23998962
1764763825.5554664,-4.15072,1.77016,0.24416,0.94897218,-0.250426605,-0.23998962
1764763825.5554664,-2.9757,1.23606,0.8087799999999999,0.9472632,-0.25207455,-0.239074095
1764763825.5554664,-2.9757,1.23606,0.8087799999999999,0.9472632,-0.25207455,-0.239074095
1764763825.5554664,-2.9757,1.23606,0.8087799999999999,0.9472632,-0.25207455,-0.239074095
1764763825.5554664,-2.9757,1.23606,0.8087799999999999,0.9472632,-0.25207455,-0.239074095
1764763825.5554664,-2.9757,1.23606,0.8087799999999999,0.9472632,-0.25207455,-0.239074095
1764763825.5554664,-2.9757,1.23606,0.8087799999999999,0.9472632,-0.25207455,-0.239074095
1764763825.5554664,-2.9757,1.23606,0.8087799999999999,0.9472632,-0.25207455,-0.239074095
1764763825.5554664,-2.9757,1.23606,0.8087799999999999,0.9472632,-0.25207455,-0.239074095
1764763825.5554664,-2.9757,1.23606,0.8087799999999999,0.9472632,-0.25207455,-0.239074095
1764763825.5564885,-2.9757,1.23606,0.8087799999999999,0.9472632,-0.25207455,-0.239074095
1764763825.5564885,-1.8006799999999998,0.6867,0.73248,0.947202165,-0.252990075,-0.23840271
1764763825.5564885,-1.8006799999999998,0.6867,0.73248,0.947202165,-0.252990075,-0.23840271
1764763825.5564885,-1.8006799999999998,0.6867,0.73248,0.947202165,-0.252990075,-0.23840271
1764763825.5564885,-1.8006799999999998,0.6867,0.73248,0.947202165,-0.252990075,-0.23840271
1764763825.5564885,-1.8006799999999998,0.6867,0.73248,0.947202165,-0.252990075,-0.23840271
1764763825.5564885,-1.8006799999999998,0.6867,0.73248,0.947202165,-0.252990075,-0.23840271
1764763825.5998297,-1.8006799999999998,0.6867,0.73248,0.947202165,-0.252990075,-0.23840271
1764763825.5998297,-1.8006799999999998,0.6867,0.73248,0.947202165,-0.252990075,-0.23840271
1764763825.5998297,-1.8006799999999998,0.6867,0.73248,0.947202165,-0.252990075,-0.23840271
1764763825.5998297,-1.8006799999999998,0.6867,0.73248,0.947202165,-0.252990075,-0.23840271
1764763825.5998297,-1.6633399999999998,0.56462,0.8392999999999999,0.94738527,-0.251281095,-0.23876892
1764763825.5998297,-1.6633399999999998,0.56462,0.8392999999999999,0.94738527,-0.251281095,-0.23876892
1764763825.5998297,-1.6633399999999998,0.56462,0.8392999999999999,0.94738527,-0.251281095,-0.23876892
1764763825.5998297,-1.6633399999999998,0.56462,0.8392999999999999,0.94738527,-0.251281095,-0.23876892
1764763825.5998297,-1.6633399999999998,0.56462,0.8392999999999999,0.94738527,-0.251281095,-0.23876892
1764763825.5998297,-1.6633399999999998,0.56462,0.8392999999999999,0.94738527,-0.251281095,-0.23876892
1764763825.5998297,-1.6633399999999998,0.56462,0.8392999999999999,0.94738527,-0.251281095,-0.23876892
1764763825.5998297,-1.6633399999999998,0.56462,0.8392999999999999,0.94738527,-0.251281095,-0.23876892
1764763825.5998297,-1.6633399999999998,0.56462,0.8392999999999999,0.94738527,-0.251281095,-0.23876892
1764763825.5998297,-1.6633399999999998,0.56462,0.8392999999999999,0.94738527,-0.251281095,-0.23876892
1764763825.5998297,-1.81594,0.9919,0.28994,0.949033215,-0.250426605,-0.239684445
1764763825.5998297,-1.81594,0.9919,0.28994,0.949033215,-0.250426605,-0.239684445
1764763825.5998297,-1.81594,0.9919,0.28994,0.949033215,-0.250426605,-0.239684445
1764763825.5998297,-1.81594,0.9919,0.28994,0.949033215,-0.250426605,-0.239684445
1764763825.5998297,-1.81594,0.9919,0.28994,0.949033215,-0.250426605,-0.239684445
1764763825.5998297,-1.81594,0.9919,0.28994,0.949033215,-0.250426605,-0.239684445
1764763825.5998297,-1.81594,0.9919,0.28994,0.949033215,-0.250426605,-0.239684445
1764763825.5998297,-1.81594,0.9919,0.28994,0.949033215,-0.250426605,-0.239684445
1764763825.5998297,-1.81594,0.9919,0.28994,0.949033215,-0.250426605,-0.239684445
1764763825.5998297,-1.81594,0.9919,0.28994,0.949033215,-0.250426605,-0.239684445
1764763825.646781,-0.94612,0.79352,0.9919,0.95007081,-0.2514642,-0.239074095
1764763825.646781,-0.94612,0.79352,0.9919,0.95007081,-0.2514642,-0.239074095
1764763825.646781,-0.94612,0.79352,0.9919,0.95007081,-0.2514642,-0.239074095
1764763825.646781,-0.94612,0.79352,0.9919,0.95007081,-0.2514642,-0.239074095
1764763825.646781,-0.94612,0.79352,0.9919,0.95007081,-0.2514642,-0.239074095
1764763825.646781,-0.94612,0.79352,0.9919,0.95007081,-0.2514642,-0.239074095
1764763825.646781,-0.94612,0.79352,0.9919,0.95007081,-0.2514642,-0.239074095
1764763825.6474526,-0.94612,0.79352,0.9919,0.95007081,-0.2514642,-0.239074095
1764763825.6474526,-0.94612,0.79352,0.9919,0.95007081,-0.2514642,-0.239074095
1764763825.6474526,-0.94612,0.79352,0.9919,0.95007081,-0.2514642,-0.239074095
1764763825.6474526,0.0,0.88508,2.33478,0.94885011,-0.252379725,-0.23889099
1764763825.6474526,0.0,0.88508,2.33478,0.94885011,-0.252379725,-0.23889099
1764763825.6474526,0.0,0.88508,2.33478,0.94885011,-0.252379725,-0.23889099
1764763825.6474526,0.0,0.88508,2.33478,0.94885011,-0.252379725,-0.23889099
1764763825.6474526,0.0,0.88508,2.33478,0.94885011,-0.252379725,-0.23889099
1764763825.6474526,0.0,0.88508,2.33478,0.94885011,-0.252379725,-0.23889099
1764763825.6474526,0.0,0.88508,2.33478,0.94885011,-0.252379725,-0.23889099
1764763825.6474526,0.0,0.88508,2.33478,0.94885011,-0.252379725,-0.23889099
1764763825.6474526,0.0,0.88508,2.33478,0.94885011,-0.252379725,-0.23889099
1764763825.6474526,0.0,0.88508,2.33478,0.94885011,-0.252379725,-0.23889099
1764763825.693756,0.3815,0.44254,3.5861,0.94653078,-0.251891445,-0.23998962
1764763825.693756,0.3815,0.44254,3.5861,0.94653078,-0.251891445,-0.23998962
1764763825.693756,0.3815,0.44254,3.5861,0.94653078,-0.251891445,-0.23998962
1764763825.693756,0.3815,0.44254,3.5861,0.94653078,-0.251891445,-0.23998962
1764763825.693756,0.3815,0.44254,3.5861,0.94653078,-0.251891445,-0.23998962
1764763825.693756,0.3815,0.44254,3.5861,0.94653078,-0.251891445,-0.23998962
1764763825.693756,0.3815,0.44254,3.5861,0.94653078,-0.251891445,-0.23998962
1764763825.693756,0.3815,0.44254,3.5861,0.94653078,-0.251891445,-0.23998962
1764763825.693756,0.3815,0.44254,3.5861,0.94653078,-0.251891445,-0.23998962
1764763825.693756,0.3815,0.44254,3.5861,0.94653078,-0.251891445,-0.23998962
1764763825.693756,-0.6714399999999999,0.59514,4.36436,0.946103535,-0.25073178,-0.24096618
1764763825.693756,-0.6714399999999999,0.59514,4.36436,0.946103535,-0.25073178,-0.24096618
1764763825.693756,-0.6714399999999999,0.59514,4.36436,0.946103535,-0.25073178,-0.24096618
1764763825.693756,-0.6714399999999999,0.59514,4.36436,0.946103535,-0.25073178,-0.24096618
1764763825.693756,-0.6714399999999999,0.59514,4.36436,0.946103535,-0.25073178,-0.24096618
1764763825.693756,-0.6714399999999999,0.59514,4.36436,0.946103535,-0.25073178,-0.24096618
1764763825.693756,-0.6714399999999999,0.59514,4.36436,0.946103535,-0.25073178,-0.24096618
1764763825.693756,-0.6714399999999999,0.59514,4.36436,0.946103535,-0.25073178,-0.24096618
1764763825.693756,-0.6714399999999999,0.59514,4.36436,0.946103535,-0.25073178,-0.24096618
1764763825.693756,-0.6714399999999999,0.59514,4.36436,0.946103535,-0.25073178,-0.24096618
1764763825.693756,-1.95328,1.99906,5.234179999999999,0.948056655,-0.251281095,-0.241393425
1764763825.693756,-1.95328,1.99906,5.234179999999999,0.948056655,-0.251281095,-0.241393425
1764763825.693756,-1.95328,1.99906,5.234179999999999,0.948056655,-0.251281095,-0.241393425
1764763825.693756,-1.95328,1.99906,5.234179999999999,0.948056655,-0.251281095,-0.241393425
1764763825.7408714,-1.95328,1.99906,5.234179999999999,0.948056655,-0.251281095,-0.241393425
1764763825.7408714,-1.95328,1.99906,5.234179999999999,0.948056655,-0.251281095,-0.241393425
1764763825.7408714,-1.95328,1.99906,5.234179999999999,0.948056655,-0.251281095,-0.241393425
1764763825.7413757,-1.95328,1.99906,5.234179999999999,0.948056655,-0.251281095,-0.241393425
1764763825.7413757,-1.95328,1.99906,5.234179999999999,0.948056655,-0.251281095,-0.241393425
1764763825.7413757,-1.95328,1.99906,5.234179999999999,0.948056655,-0.251281095,-0.241393425
1764763825.7413757,-3.86078,2.53316,5.35626,0.949033215,-0.25122006,-0.241271355
1764763825.7413757,-3.86078,2.53316,5.35626,0.949033215,-0.25122006,-0.241271355
1764763825.7413757,-3.86078,2.53316,5.35626,0.949033215,-0.25122006,-0.241271355
1764763825.7413757,-3.86078,2.53316,5.35626,0.949033215,-0.25122006,-0.241271355
1764763825.7413757,-3.86078,2.53316,5.35626,0.949033215,-0.25122006,-0.241271355
1764763825.7413757,-3.86078,2.53316,5.35626,0.949033215,-0.25122006,-0.241271355
1764763825.7413757,-3.86078,2.53316,5.35626,0.949033215,-0.25122006,-0.241271355
1764763825.7413757,-3.86078,2.53316,5.35626,0.949033215,-0.25122006,-0.241271355
1764763825.7413757,-3.86078,2.53316,5.35626,0.949033215,-0.25122006,-0.241271355
1764763825.7413757,-3.86078,2.53316,5.35626,0.949033215,-0.25122006,-0.241271355
1764763825.7413757,-6.77544,2.42634,3.37246,0.947934585,-0.24938901,-0.241881705
1764763825.7413757,-6.77544,2.42634,3.37246,0.947934585,-0.24938901,-0.241881705
1764763825.7413757,-6.77544,2.42634,3.37246,0.947934585,-0.24938901,-0.241881705
1764763825.7413757,-6.77544,2.42634,3.37246,0.947934585,-0.24938901,-0.241881705
1764763825.7413757,-6.77544,2.42634,3.37246,0.947934585,-0.24938901,-0.241881705
1764763825.7413757,-6.77544,2.42634,3.37246,0.947934585,-0.24938901,-0.241881705
1764763825.7413757,-6.77544,2.42634,3.37246,0.947934585,-0.24938901,-0.241881705
1764763825.7413757,-6.77544,2.42634,3.37246,0.947934585,-0.24938901,-0.241881705
1764763825.7849696,-6.77544,2.42634,3.37246,0.947934585,-0.24938901,-0.241881705
1764763825.7849696,-6.77544,2.42634,3.37246,0.947934585,-0.24938901,-0.241881705
1764763825.7849696,-8.51508,2.35004,0.8698199999999999,0.949277355,-0.24999936,-0.241271355
1764763825.7849696,-8.51508,2.35004,0.8698199999999999,0.949277355,-0.24999936,-0.241271355
1764763825.7849696,-8.51508,2.35004,0.8698199999999999,0.949277355,-0.24999936,-0.241271355
1764763825.7849696,-8.51508,2.35004,0.8698199999999999,0.949277355,-0.24999936,-0.241271355
1764763825.7849696,-8.51508,2.35004,0.8698199999999999,0.949277355,-0.24999936,-0.241271355
1764763825.7849696,-8.51508,2.35004,0.8698199999999999,0.949277355,-0.24999936,-0.241271355
1764763825.7849696,-8.51508,2.35004,0.8698199999999999,0.949277355,-0.24999936,-0.241271355
1764763825.7849696,-8.51508,2.35004,0.8698199999999999,0.949277355,-0.24999936,-0.241271355
1764763825.7859845,-8.51508,2.35004,0.8698199999999999,0.949277355,-0.24999936,-0.241271355
1764763825.7859845,-8.51508,2.35004,0.8698199999999999,0.949277355,-0.24999936,-0.241271355
1764763825.7859845,-8.042019999999999,3.76922,-0.3509799999999999,0.95263428,-0.254454915,-0.23950134
1764763825.7859845,-8.042019999999999,3.76922,-0.3509799999999999,0.95263428,-0.254454915,-0.23950134
1764763825.7859845,-8.042019999999999,3.76922,-0.3509799999999999,0.95263428,-0.254454915,-0.23950134
1764763825.7859845,-8.042019999999999,3.76922,-0.3509799999999999,0.95263428,-0.254454915,-0.23950134
1764763825.7859845,-8.042019999999999,3.76922,-0.3509799999999999,0.95263428,-0.254454915,-0.23950134
1764763825.7859845,-8.042019999999999,3.76922,-0.3509799999999999,0.95263428,-0.254454915,-0.23950134
1764763825.7869806,-8.042019999999999,3.76922,-0.3509799999999999,0.95263428,-0.254454915,-0.23950134
1764763825.7869806,-8.042019999999999,3.76922,-0.3509799999999999,0.95263428,-0.254454915,-0.23950134
1764763825.7869806,-8.042019999999999,3.76922,-0.3509799999999999,0.95263428,-0.254454915,-0.23950134
1764763825.7872827,-8.042019999999999,3.76922,-0.3509799999999999,0.95263428,-0.254454915,-0.23950134
1764763825.7872827,-6.11926,3.98286,-1.31236,0.952573245,-0.25817805,-0.23754822
1764763825.7872827,-6.11926,3.98286,-1.31236,0.952573245,-0.25817805,-0.23754822
1764763825.8352454,-6.11926,3.98286,-1.31236,0.952573245,-0.25817805,-0.23754822
1764763825.8352454,-6.11926,3.98286,-1.31236,0.952573245,-0.25817805,-0.23754822
1764763825.8352454,-6.11926,3.98286,-1.31236,0.952573245,-0.25817805,-0.23754822
1764763825.8352454,-6.11926,3.98286,-1.31236,0.952573245,-0.25817805,-0.23754822
1764763825.8352454,-6.11926,3.98286,-1.31236,0.952573245,-0.25817805,-0.23754822
1764763825.8352454,-6.11926,3.98286,-1.31236,0.952573245,-0.25817805,-0.23754822
1764763825.8352454,-6.11926,3.98286,-1.31236,0.952573245,-0.25817805,-0.23754822
1764763825.8352454,-6.11926,3.98286,-1.31236,0.952573245,-0.25817805,-0.23754822
1764763825.8352454,-4.1965,3.76922,-1.7549,0.950131845,-0.25854426,-0.23730408
1764763825.8352454,-4.1965,3.76922,-1.7549,0.950131845,-0.25854426,-0.23730408
1764763825.8352454,-4.1965,3.76922,-1.7549,0.950131845,-0.25854426,-0.23730408
1764763825.8352454,-4.1965,3.76922,-1.7549,0.950131845,-0.25854426,-0.23730408
1764763825.8352454,-4.1965,3.76922,-1.7549,0.950131845,-0.25854426,-0.23730408
1764763825.8352454,-4.1965,3.76922,-1.7549,0.950131845,-0.25854426,-0.23730408
1764763825.8352454,-4.1965,3.76922,-1.7549,0.950131845,-0.25854426,-0.23730408
1764763825.8352454,-4.1965,3.76922,-1.7549,0.950131845,-0.25854426,-0.23730408
1764763825.8352454,-4.1965,3.76922,-1.7549,0.950131845,-0.25854426,-0.23730408
1764763825.8352454,-4.1965,3.76922,-1.7549,0.950131845,-0.25854426,-0.23730408
1764763825.8352454,-2.92992,2.85362,-2.71628,0.94775148,-0.25732356,-0.236876835
1764763825.8352454,-2.92992,2.85362,-2.71628,0.94775148,-0.25732356,-0.236876835
1764763825.8352454,-2.92992,2.85362,-2.71628,0.94775148,-0.25732356,-0.236876835
1764763825.8352454,-2.92992,2.85362,-2.71628,0.94775148,-0.25732356,-0.236876835
1764763825.8352454,-2.92992,2.85362,-2.71628,0.94775148,-0.25732356,-0.236876835
1764763825.8352454,-2.92992,2.85362,-2.71628,0.94775148,-0.25732356,-0.236876835
1764763825.8828974,-2.92992,2.85362,-2.71628,0.94775148,-0.25732356,-0.236876835
1764763825.8828974,-2.92992,2.85362,-2.71628,0.94775148,-0.25732356,-0.236876835
1764763825.8828974,-2.92992,2.85362,-2.71628,0.94775148,-0.25732356,-0.236876835
1764763825.8828974,-2.92992,2.85362,-2.71628,0.94775148,-0.25732356,-0.236876835
1764763825.8828974,-1.4497,2.18218,-2.99096,0.947690445,-0.256408035,-0.236388555
1764763825.8828974,-1.4497,2.18218,-2.99096,0.947690445,-0.256408035,-0.236388555
1764763825.8828974,-1.4497,2.18218,-2.99096,0.947690445,-0.256408035,-0.236388555
1764763825.8828974,-1.4497,2.18218,-2.99096,0.947690445,-0.256408035,-0.236388555
1764763825.8828974,-1.4497,2.18218,-2.99096,0.947690445,-0.256408035,-0.236388555
1764763825.8828974,-1.4497,2.18218,-2.99096,0.947690445,-0.256408035,-0.236388555
1764763825.8828974,-1.4497,2.18218,-2.99096,0.947690445,-0.256408035,-0.236388555
1764763825.8828974,-1.4497,2.18218,-2.99096,0.947690445,-0.256408035,-0.236388555
1764763825.8828974,-1.4497,2.18218,-2.99096,0.947690445,-0.256408035,-0.236388555
1764763825.8828974,-1.4497,2.18218,-2.99096,0.947690445,-0.256408035,-0.236388555
1764763825.8828974,-0.3509799999999999,1.69386,-2.92992,0.94787355,-0.25549251,-0.235534065
1764763825.8828974,-0.3509799999999999,1.69386,-2.92992,0.94787355,-0.25549251,-0.235534065
1764763825.8828974,-0.3509799999999999,1.69386,-2.92992,0.94787355,-0.25549251,-0.235534065
1764763825.8828974,-0.3509799999999999,1.69386,-2.92992,0.94787355,-0.25549251,-0.235534065
1764763825.8828974,-0.3509799999999999,1.69386,-2.92992,0.94787355,-0.25549251,-0.235534065
1764763825.8828974,-0.3509799999999999,1.69386,-2.92992,0.94787355,-0.25549251,-0.235534065
1764763825.8828974,-0.3509799999999999,1.69386,-2.92992,0.94787355,-0.25549251,-0.235534065
1764763825.8828974,-0.3509799999999999,1.69386,-2.92992,0.94787355,-0.25549251,-0.235534065
1764763825.8828974,-0.3509799999999999,1.69386,-2.92992,0.94787355,-0.25549251,-0.235534065
1764763825.8828974,-0.3509799999999999,1.69386,-2.92992,0.94787355,-0.25549251,-0.235534065
1764763825.9257996,-0.6714399999999999,1.9075,-2.76206,0.949277355,-0.25219662,-0.23608338
1764763825.9257996,-0.6714399999999999,1.9075,-2.76206,0.949277355,-0.25219662,-0.23608338
1764763825.9257996,-0.6714399999999999,1.9075,-2.76206,0.949277355,-0.25219662,-0.23608338
1764763825.9257996,-0.6714399999999999,1.9075,-2.76206,0.949277355,-0.25219662,-0.23608338
1764763825.9257996,-0.6714399999999999,1.9075,-2.76206,0.949277355,-0.25219662,-0.23608338
1764763825.926927,-0.6714399999999999,1.9075,-2.76206,0.949277355,-0.25219662,-0.23608338
1764763825.926927,-0.6714399999999999,1.9075,-2.76206,0.949277355,-0.25219662,-0.23608338
1764763825.926927,-0.6714399999999999,1.9075,-2.76206,0.949277355,-0.25219662,-0.23608338
1764763825.926927,-0.6714399999999999,1.9075,-2.76206,0.949277355,-0.25219662,-0.23608338
1764763825.926927,-0.6714399999999999,1.9075,-2.76206,0.949277355,-0.25219662,-0.23608338
1764763825.926927,-0.763,1.4497,-2.24322,0.95031495,-0.249938325,-0.23657166
1764763825.9275928,-0.763,1.4497,-2.24322,0.95031495,-0.249938325,-0.23657166
1764763825.9275928,-0.763,1.4497,-2.24322,0.95031495,-0.249938325,-0.23657166
1764763825.9275928,-0.763,1.4497,-2.24322,0.95031495,-0.249938325,-0.23657166
1764763825.9275928,-0.763,1.4497,-2.24322,0.95031495,-0.249938325,-0.23657166
1764763825.9275928,-0.763,1.4497,-2.24322,0.95031495,-0.249938325,-0.23657166
1764763825.9275928,-0.763,1.4497,-2.24322,0.95031495,-0.249938325,-0.23657166
1764763825.9279332,-0.763,1.4497,-2.24322,0.95031495,-0.249938325,-0.23657166
1764763825.9279332,-0.763,1.4497,-2.24322,0.95031495,-0.249938325,-0.23657166
1764763825.9279332,-0.763,1.4497,-2.24322,0.95031495,-0.249938325,-0.23657166
1764763825.9279332,-1.55652,2.10588,-0.3509799999999999,0.951230475,-0.249083835,-0.23718201
1764763825.9279332,-1.55652,2.10588,-0.3509799999999999,0.951230475,-0.249083835,-0.23718201
1764763825.9753356,-1.55652,2.10588,-0.3509799999999999,0.951230475,-0.249083835,-0.23718201
1764763825.9753356,-1.55652,2.10588,-0.3509799999999999,0.951230475,-0.249083835,-0.23718201
1764763825.9753356,-1.55652,2.10588,-0.3509799999999999,0.951230475,-0.249083835,-0.23718201
1764763825.9753356,-1.55652,2.10588,-0.3509799999999999,0.951230475,-0.249083835,-0.23718201
1764763825.9753356,-1.55652,2.10588,-0.3509799999999999,0.951230475,-0.249083835,-0.23718201
1764763825.9753356,-1.55652,2.10588,-0.3509799999999999,0.951230475,-0.249083835,-0.23718201
1764763825.9753356,-1.55652,2.10588,-0.3509799999999999,0.951230475,-0.249083835,-0.23718201
1764763825.9753356,-1.55652,2.10588,-0.3509799999999999,0.951230475,-0.249083835,-0.23718201
1764763825.9753356,-2.24322,1.54126,0.56462,0.95019288,-0.24621519,-0.23779236
1764763825.9753356,-2.24322,1.54126,0.56462,0.95019288,-0.24621519,-0.23779236
1764763825.9753356,-2.24322,1.54126,0.56462,0.95019288,-0.24621519,-0.23779236
1764763825.9753356,-2.24322,1.54126,0.56462,0.95019288,-0.24621519,-0.23779236
1764763825.9753356,-2.24322,1.54126,0.56462,0.95019288,-0.24621519,-0.23779236
1764763825.9753356,-2.24322,1.54126,0.56462,0.95019288,-0.24621519,-0.23779236
1764763825.9753356,-2.24322,1.54126,0.56462,0.95019288,-0.24621519,-0.23779236
1764763825.9753356,-2.24322,1.54126,0.56462,0.95019288,-0.24621519,-0.23779236
1764763825.9753356,-2.24322,1.54126,0.56462,0.95019288,-0.24621519,-0.23779236
1764763825.9753356,-2.24322,1.54126,0.56462,0.95019288,-0.24621519,-0.23779236
1764763825.9753356,-3.09778,1.72438,1.00716,0.94933839,-0.24426207,-0.2380365
1764763825.9753356,-3.09778,1.72438,1.00716,0.94933839,-0.24426207,-0.2380365
1764763825.9753356,-3.09778,1.72438,1.00716,0.94933839,-0.24426207,-0.2380365
1764763825.9753356,-3.09778,1.72438,1.00716,0.94933839,-0.24426207,-0.2380365
1764763826.0196836,-3.09778,1.72438,1.00716,0.94933839,-0.24426207,-0.2380365
1764763826.0196836,-3.09778,1.72438,1.00716,0.94933839,-0.24426207,-0.2380365
1764763826.0196836,-3.09778,1.72438,1.00716,0.94933839,-0.24426207,-0.2380365
1764763826.0196836,-3.09778,1.72438,1.00716,0.94933839,-0.24426207,-0.2380365
1764763826.0196836,-3.09778,1.72438,1.00716,0.94933839,-0.24426207,-0.2380365
1764763826.020206,-3.09778,1.72438,1.00716,0.94933839,-0.24426207,-0.2380365
1764763826.020206,-3.70818,1.92276,1.51074,0.950986335,-0.244445175,-0.237120975
1764763826.020206,-3.70818,1.92276,1.51074,0.950986335,-0.244445175,-0.237120975
1764763826.020206,-3.70818,1.92276,1.51074,0.950986335,-0.244445175,-0.237120975
1764763826.020206,-3.70818,1.92276,1.51074,0.950986335,-0.244445175,-0.237120975
1764763826.020731,-3.70818,1.92276,1.51074,0.950986335,-0.244445175,-0.237120975
1764763826.020731,-3.70818,1.92276,1.51074,0.950986335,-0.244445175,-0.237120975
1764763826.020731,-3.70818,1.92276,1.51074,0.950986335,-0.244445175,-0.237120975
1764763826.020731,-3.70818,1.92276,1.51074,0.950986335,-0.244445175,-0.237120975
1764763826.020731,-3.70818,1.92276,1.51074,0.950986335,-0.244445175,-0.237120975
1764763826.020731,-3.70818,1.92276,1.51074,0.950986335,-0.244445175,-0.237120975
1764763826.020731,-4.08968,1.8006799999999998,1.57178,0.949765635,-0.244933455,-0.23632752
1764763826.020731,-4.08968,1.8006799999999998,1.57178,0.949765635,-0.244933455,-0.23632752
1764763826.020731,-4.08968,1.8006799999999998,1.57178,0.949765635,-0.244933455,-0.23632752
1764763826.021842,-4.08968,1.8006799999999998,1.57178,0.949765635,-0.244933455,-0.23632752
1764763826.021842,-4.08968,1.8006799999999998,1.57178,0.949765635,-0.244933455,-0.23632752
1764763826.021842,-4.08968,1.8006799999999998,1.57178,0.949765635,-0.244933455,-0.23632752
1764763826.021842,-4.08968,1.8006799999999998,1.57178,0.949765635,-0.244933455,-0.23632752
1764763826.021842,-4.08968,1.8006799999999998,1.57178,0.949765635,-0.244933455,-0.23632752
1764763826.0683458,-4.08968,1.8006799999999998,1.57178,0.949765635,-0.244933455,-0.23632752
1764763826.0683458,-4.08968,1.8006799999999998,1.57178,0.949765635,-0.244933455,-0.23632752
1764763826.0683458,-4.13546,1.25132,1.64808,0.948422865,-0.246276225,-0.236388555
1764763826.0683458,-4.13546,1.25132,1.64808,0.948422865,-0.246276225,-0.236388555
1764763826.0683458,-4.13546,1.25132,1.64808,0.948422865,-0.246276225,-0.236388555
1764763826.0683458,-4.13546,1.25132,1.64808,0.948422865,-0.246276225,-0.236388555
1764763826.0683458,-4.13546,1.25132,1.64808,0.948422865,-0.246276225,-0.236388555
1764763826.0683458,-4.13546,1.25132,1.64808,0.948422865,-0.246276225,-0.236388555
1764763826.0683458,-4.13546,1.25132,1.64808,0.948422865,-0.246276225,-0.236388555
1764763826.0683458,-4.13546,1.25132,1.64808,0.948422865,-0.246276225,-0.236388555
1764763826.0683458,-4.13546,1.25132,1.64808,0.948422865,-0.246276225,-0.236388555
1764763826.0683458,-4.13546,1.25132,1.64808,0.948422865,-0.246276225,-0.236388555
1764763826.0683458,-3.26564,1.08346,0.9003399999999999,0.94823976,-0.24829038,-0.23620545
1764763826.0683458,-3.26564,1.08346,0.9003399999999999,0.94823976,-0.24829038,-0.23620545
1764763826.0683458,-3.26564,1.08346,0.9003399999999999,0.94823976,-0.24829038,-0.23620545
1764763826.0683458,-3.26564,1.08346,0.9003399999999999,0.94823976,-0.24829038,-0.23620545
1764763826.0683458,-3.26564,1.08346,0.9003399999999999,0.94823976,-0.24829038,-0.23620545
1764763826.0683458,-3.26564,1.08346,0.9003399999999999,0.94823976,-0.24829038,-0.23620545
1764763826.0683458,-3.26564,1.08346,0.9003399999999999,0.94823976,-0.24829038,-0.23620545
1764763826.0683458,-3.26564,1.08346,0.9003399999999999,0.94823976,-0.24829038,-0.23620545
1764763826.0683458,-3.26564,1.08346,0.9003399999999999,0.94823976,-0.24829038,-0.23620545
1764763826.0683458,-3.26564,1.08346,0.9003399999999999,0.94823976,-0.24829038,-0.23620545
1764763826.0683458,-2.15166,0.6867,0.59514,0.94982667,-0.249816255,-0.235656135
1764763826.069535,-2.15166,0.6867,0.59514,0.94982667,-0.249816255,-0.235656135
1764763826.115207,-2.15166,0.6867,0.59514,0.94982667,-0.249816255,-0.235656135
1764763826.115207,-2.15166,0.6867,0.59514,0.94982667,-0.249816255,-0.235656135
1764763826.115207,-2.15166,0.6867,0.59514,0.94982667,-0.249816255,-0.235656135
1764763826.115207,-2.15166,0.6867,0.59514,0.94982667,-0.249816255,-0.235656135
1764763826.115207,-2.15166,0.6867,0.59514,0.94982667,-0.249816255,-0.235656135
1764763826.115207,-2.15166,0.6867,0.59514,0.94982667,-0.249816255,-0.235656135
1764763826.115207,-2.15166,0.6867,0.59514,0.94982667,-0.249816255,-0.235656135
1764763826.115207,-2.15166,0.6867,0.59514,0.94982667,-0.249816255,-0.235656135
1764763826.115207,-1.00716,0.79352,0.48832,0.950009775,-0.2502435,-0.23583924
1764763826.115207,-1.00716,0.79352,0.48832,0.950009775,-0.2502435,-0.23583924
1764763826.115207,-1.00716,0.79352,0.48832,0.950009775,-0.2502435,-0.23583924
1764763826.115207,-1.00716,0.79352,0.48832,0.950009775,-0.2502435,-0.23583924
1764763826.115207,-1.00716,0.79352,0.48832,0.950009775,-0.2502435,-0.23583924
1764763826.115207,-1.00716,0.79352,0.48832,0.950009775,-0.2502435,-0.23583924
1764763826.115207,-1.00716,0.79352,0.48832,0.950009775,-0.2502435,-0.23583924
1764763826.115207,-1.00716,0.79352,0.48832,0.950009775,-0.2502435,-0.23583924
1764763826.115207,-1.00716,0.79352,0.48832,0.950009775,-0.2502435,-0.23583924
1764763826.115207,-1.00716,0.79352,0.48832,0.950009775,-0.2502435,-0.23583924
1764763826.115207,-0.763,1.03768,0.6409199999999999,0.95141358,-0.24987729,-0.237120975
1764763826.115207,-0.763,1.03768,0.6409199999999999,0.95141358,-0.24987729,-0.237120975
1764763826.115207,-0.763,1.03768,0.6409199999999999,0.95141358,-0.24987729,-0.237120975
1764763826.115207,-0.763,1.03768,0.6409199999999999,0.95141358,-0.24987729,-0.237120975
1764763826.115207,-0.763,1.03768,0.6409199999999999,0.95141358,-0.24987729,-0.237120975
1764763826.115207,-0.763,1.03768,0.6409199999999999,0.95141358,-0.24987729,-0.237120975
1764763826.1619632,-0.763,1.03768,0.6409199999999999,0.95141358,-0.24987729,-0.237120975
1764763826.1619632,-0.763,1.03768,0.6409199999999999,0.95141358,-0.24987729,-0.237120975
1764763826.1619632,-0.763,1.03768,0.6409199999999999,0.95141358,-0.24987729,-0.237120975
1764763826.1619632,-0.763,1.03768,0.6409199999999999,0.95141358,-0.24987729,-0.237120975
1764763826.1619632,-1.08346,1.09872,1.11398,0.951962895,-0.24975522,-0.237365115
1764763826.1619632,-1.08346,1.09872,1.11398,0.951962895,-0.24975522,-0.237365115
1764763826.1619632,-1.08346,1.09872,1.11398,0.951962895,-0.24975522,-0.237365115
1764763826.1619632,-1.08346,1.09872,1.11398,0.951962895,-0.24975522,-0.237365115
1764763826.1619632,-1.08346,1.09872,1.11398,0.951962895,-0.24975522,-0.237365115
1764763826.1619632,-1.08346,1.09872,1.11398,0.951962895,-0.24975522,-0.237365115
1764763826.1619632,-1.08346,1.09872,1.11398,0.951962895,-0.24975522,-0.237365115
1764763826.1619632,-1.08346,1.09872,1.11398,0.951962895,-0.24975522,-0.237365115
1764763826.1619632,-1.08346,1.09872,1.11398,0.951962895,-0.24975522,-0.237365115
1764763826.1619632,-1.08346,1.09872,1.11398,0.951962895,-0.24975522,-0.237365115
1764763826.1619632,-1.48022,1.46496,1.87698,0.95104737,-0.24890073,-0.237365115
1764763826.1619632,-1.48022,1.46496,1.87698,0.95104737,-0.24890073,-0.237365115
1764763826.1619632,-1.48022,1.46496,1.87698,0.95104737,-0.24890073,-0.237365115
1764763826.1619632,-1.48022,1.46496,1.87698,0.95104737,-0.24890073,-0.237365115
1764763826.1619632,-1.48022,1.46496,1.87698,0.95104737,-0.24890073,-0.237365115
1764763826.1619632,-1.48022,1.46496,1.87698,0.95104737,-0.24890073,-0.237365115
1764763826.1619632,-1.48022,1.46496,1.87698,0.95104737,-0.24890073,-0.237365115
1764763826.1619632,-1.48022,1.46496,1.87698,0.95104737,-0.24890073,-0.237365115
1764763826.1619632,-1.48022,1.46496,1.87698,0.95104737,-0.24890073,-0.237365115
1764763826.1619632,-1.48022,1.46496,1.87698,0.95104737,-0.24890073,-0.237365115
1764763826.2086382,-2.1364,1.96854,2.3653,0.94933839,-0.249816255,-0.237243045
1764763826.2086382,-2.1364,1.96854,2.3653,0.94933839,-0.249816255,-0.237243045
1764763826.2086382,-2.1364,1.96854,2.3653,0.94933839,-0.249816255,-0.237243045
1764763826.2086382,-2.1364,1.96854,2.3653,0.94933839,-0.249816255,-0.237243045
1764763826.2086382,-2.1364,1.96854,2.3653,0.94933839,-0.249816255,-0.237243045
1764763826.2086382,-2.1364,1.96854,2.3653,0.94933839,-0.249816255,-0.237243045
1764763826.2086382,-2.1364,1.96854,2.3653,0.94933839,-0.249816255,-0.237243045
1764763826.2086382,-2.1364,1.96854,2.3653,0.94933839,-0.249816255,-0.237243045
1764763826.2086382,-2.1364,1.96854,2.3653,0.94933839,-0.249816255,-0.237243045
1764763826.2086382,-2.1364,1.96854,2.3653,0.94933839,-0.249816255,-0.237243045
1764763826.2086382,-2.48738,1.8006799999999998,2.18218,0.948911145,-0.24975522,-0.236998905
1764763826.2086382,-2.48738,1.8006799999999998,2.18218,0.948911145,-0.24975522,-0.236998905
1764763826.2086382,-2.48738,1.8006799999999998,2.18218,0.948911145,-0.24975522,-0.236998905
1764763826.2086382,-2.48738,1.8006799999999998,2.18218,0.948911145,-0.24975522,-0.236998905
1764763826.2086382,-2.48738,1.8006799999999998,2.18218,0.948911145,-0.24975522,-0.236998905
1764763826.2086382,-2.48738,1.8006799999999998,2.18218,0.948911145,-0.24975522,-0.236998905
1764763826.2086382,-2.48738,1.8006799999999998,2.18218,0.948911145,-0.24975522,-0.236998905
1764763826.2086382,-2.48738,1.8006799999999998,2.18218,0.948911145,-0.24975522,-0.236998905
1764763826.2086382,-2.48738,1.8006799999999998,2.18218,0.948911145,-0.24975522,-0.236998905
1764763826.2086382,-2.48738,1.8006799999999998,2.18218,0.948911145,-0.24975522,-0.236998905
1764763826.2086382,-2.25848,2.88414,1.63282,0.949643565,-0.250914885,-0.23620545
1764763826.2086382,-2.25848,2.88414,1.63282,0.949643565,-0.250914885,-0.23620545
1764763826.254767,-2.25848,2.88414,1.63282,0.949643565,-0.250914885,-0.23620545
1764763826.254767,-2.25848,2.88414,1.63282,0.949643565,-0.250914885,-0.23620545
1764763826.254767,-2.25848,2.88414,1.63282,0.949643565,-0.250914885,-0.23620545
1764763826.254767,-2.25848,2.88414,1.63282,0.949643565,-0.250914885,-0.23620545
1764763826.254767,-2.25848,2.88414,1.63282,0.949643565,-0.250914885,-0.23620545
1764763826.254767,-2.25848,2.88414,1.63282,0.949643565,-0.250914885,-0.23620545
1764763826.254767,-2.25848,2.88414,1.63282,0.949643565,-0.250914885,-0.23620545
1764763826.254767,-2.25848,2.88414,1.63282,0.949643565,-0.250914885,-0.23620545
1764763826.2557852,-1.89224,2.12114,1.54126,0.9484839,-0.253112145,-0.235167855
1764763826.2557852,-1.89224,2.12114,1.54126,0.9484839,-0.253112145,-0.235167855
1764763826.2557852,-1.89224,2.12114,1.54126,0.9484839,-0.253112145,-0.235167855
1764763826.2557852,-1.89224,2.12114,1.54126,0.9484839,-0.253112145,-0.235167855
1764763826.2557852,-1.89224,2.12114,1.54126,0.9484839,-0.253112145,-0.235167855
1764763826.2557852,-1.89224,2.12114,1.54126,0.9484839,-0.253112145,-0.235167855
1764763826.2557852,-1.89224,2.12114,1.54126,0.9484839,-0.253112145,-0.235167855
1764763826.2557852,-1.89224,2.12114,1.54126,0.9484839,-0.253112145,-0.235167855
1764763826.2557852,-1.89224,2.12114,1.54126,0.9484839,-0.253112145,-0.235167855
1764763826.2557852,-1.89224,2.12114,1.54126,0.9484839,-0.253112145,-0.235167855
1764763826.2557852,-1.96854,1.6786,0.57988,0.94836183,-0.253844565,-0.235045785
1764763826.2557852,-1.96854,1.6786,0.57988,0.94836183,-0.253844565,-0.235045785
1764763826.2557852,-1.96854,1.6786,0.57988,0.94836183,-0.253844565,-0.235045785
1764763826.2557852,-1.96854,1.6786,0.57988,0.94836183,-0.253844565,-0.235045785
1764763826.2557852,-1.96854,1.6786,0.57988,0.94836183,-0.253844565,-0.235045785
1764763826.2557852,-1.96854,1.6786,0.57988,0.94836183,-0.253844565,-0.235045785
1764763826.3033264,-1.96854,1.6786,0.57988,0.94836183,-0.253844565,-0.235045785
1764763826.3033264,-1.96854,1.6786,0.57988,0.94836183,-0.253844565,-0.235045785
1764763826.3033264,-1.96854,1.6786,0.57988,0.94836183,-0.253844565,-0.235045785
1764763826.3033264,-1.96854,1.6786,0.57988,0.94836183,-0.253844565,-0.235045785
1764763826.3033264,-2.5179,1.05294,-0.4578,0.94799562,-0.252868005,-0.234679575
1764763826.3033264,-2.5179,1.05294,-0.4578,0.94799562,-0.252868005,-0.234679575
1764763826.3033264,-2.5179,1.05294,-0.4578,0.94799562,-0.252868005,-0.234679575
1764763826.3033264,-2.5179,1.05294,-0.4578,0.94799562,-0.252868005,-0.234679575
1764763826.3033264,-2.5179,1.05294,-0.4578,0.94799562,-0.252868005,-0.234679575
1764763826.3033264,-2.5179,1.05294,-0.4578,0.94799562,-0.252868005,-0.234679575
1764763826.3033264,-2.5179,1.05294,-0.4578,0.94799562,-0.252868005,-0.234679575
1764763826.3033264,-2.5179,1.05294,-0.4578,0.94799562,-0.252868005,-0.234679575
1764763826.3033264,-2.5179,1.05294,-0.4578,0.94799562,-0.252868005,-0.234679575
1764763826.3033264,-2.5179,1.05294,-0.4578,0.94799562,-0.252868005,-0.234679575
1764763826.3033264,-2.48738,1.25132,-0.9003399999999999,0.950009775,-0.25341732,-0.234069225
1764763826.3033264,-2.48738,1.25132,-0.9003399999999999,0.950009775,-0.25341732,-0.234069225
1764763826.3033264,-2.48738,1.25132,-0.9003399999999999,0.950009775,-0.25341732,-0.234069225
1764763826.3033264,-2.48738,1.25132,-0.9003399999999999,0.950009775,-0.25341732,-0.234069225
1764763826.3033264,-2.48738,1.25132,-0.9003399999999999,0.950009775,-0.25341732,-0.234069225
1764763826.3033264,-2.48738,1.25132,-0.9003399999999999,0.950009775,-0.25341732,-0.234069225
1764763826.3033264,-2.48738,1.25132,-0.9003399999999999,0.950009775,-0.25341732,-0.234069225
1764763826.3033264,-2.48738,1.25132,-0.9003399999999999,0.950009775,-0.25341732,-0.234069225
1764763826.3033264,-2.48738,1.25132,-0.9003399999999999,0.950009775,-0.25341732,-0.234069225
1764763826.3033264,-2.48738,1.25132,-0.9003399999999999,0.950009775,-0.25341732,-0.234069225
1764763826.346167,-1.8312,2.71628,-0.3509799999999999,0.952146,-0.253722495,-0.23266542
1764763826.346167,-1.8312,2.71628,-0.3509799999999999,0.952146,-0.253722495,-0.23266542
1764763826.346167,-1.8312,2.71628,-0.3509799999999999,0.952146,-0.253722495,-0.23266542
1764763826.346167,-1.8312,2.71628,-0.3509799999999999,0.952146,-0.253722495,-0.23266542
1764763826.346167,-1.8312,2.71628,-0.3509799999999999,0.952146,-0.253722495,-0.23266542
1764763826.346167,-1.8312,2.71628,-0.3509799999999999,0.952146,-0.253722495,-0.23266542
1764763826.346167,-1.8312,2.71628,-0.3509799999999999,0.952146,-0.253722495,-0.23266542
1764763826.346167,-1.8312,2.71628,-0.3509799999999999,0.952146,-0.253722495,-0.23266542
1764763826.346167,-1.8312,2.71628,-0.3509799999999999,0.952146,-0.253722495,-0.23266542
1764763826.346167,-1.8312,2.71628,-0.3509799999999999,0.952146,-0.253722495,-0.23266542
1764763826.346167,-1.11398,2.96044,0.13734,0.951840825,-0.25366146,-0.232360245
1764763826.346167,-1.11398,2.96044,0.13734,0.951840825,-0.25366146,-0.232360245
1764763826.346167,-1.11398,2.96044,0.13734,0.951840825,-0.25366146,-0.232360245
1764763826.346167,-1.11398,2.96044,0.13734,0.951840825,-0.25366146,-0.232360245
1764763826.3471844,-1.11398,2.96044,0.13734,0.951840825,-0.25366146,-0.232360245
1764763826.3471844,-1.11398,2.96044,0.13734,0.951840825,-0.25366146,-0.232360245
1764763826.3471844,-1.11398,2.96044,0.13734,0.951840825,-0.25366146,-0.232360245
1764763826.3471844,-1.11398,2.96044,0.13734,0.951840825,-0.25366146,-0.232360245
