Timestamp,GyroX,GyroY,GyroZ,AccX,AccY,AccZ
1764764291.1857395,-3.15882,0.0,-0.36624,-0.930234435,0.31713786,-0.13561977
1764764291.1857395,-3.15882,0.0,-0.36624,-0.930234435,0.31713786,-0.13561977
1764764291.1857395,-3.76922,0.10682,-0.41202,-0.92956305,0.31725993,-0.137023575
1764764291.1857395,-3.76922,0.10682,-0.41202,-0.92956305,0.31725993,-0.137023575
1764764291.1857395,-3.76922,0.10682,-0.41202,-0.92956305,0.31725993,-0.137023575
1764764291.1857395,-3.76922,0.10682,-0.41202,-0.92956305,0.31725993,-0.137023575
1764764291.1857395,-3.76922,0.10682,-0.41202,-0.92956305,0.31725993,-0.137023575
1764764291.1857395,-3.76922,0.10682,-0.41202,-0.92956305,0.31725993,-0.137023575
1764764291.1857395,-3.76922,0.10682,-0.41202,-0.92956305,0.31725993,-0.137023575
1764764291.1857395,-3.76922,0.10682,-0.41202,-0.92956305,0.31725993,-0.137023575
1764764291.1857395,-3.76922,0.10682,-0.41202,-0.92956305,0.31725993,-0.137023575
1764764291.1857395,-3.76922,0.10682,-0.41202,-0.92956305,0.31725993,-0.137023575
1764764291.1857395,-6.19556,0.36624,0.42728,-0.929746155,0.32214273,-0.13708461
1764764291.1857395,-6.19556,0.36624,0.42728,-0.929746155,0.32214273,-0.13708461
1764764291.1857395,-6.19556,0.36624,0.42728,-0.929746155,0.32214273,-0.13708461
1764764291.1857395,-6.19556,0.36624,0.42728,-0.929746155,0.32214273,-0.13708461
1764764291.1857395,-6.19556,0.36624,0.42728,-0.929746155,0.32214273,-0.13708461
1764764291.1857395,-6.19556,0.36624,0.42728,-0.929746155,0.32214273,-0.13708461
1764764291.1857395,-6.19556,0.36624,0.42728,-0.929746155,0.32214273,-0.13708461
1764764291.1857395,-6.19556,0.36624,0.42728,-0.929746155,0.32214273,-0.13708461
1764764291.1857395,-6.19556,0.36624,0.42728,-0.929746155,0.32214273,-0.13708461
1764764291.1857395,-6.19556,0.36624,0.42728,-0.929746155,0.32214273,-0.13708461
1764764291.2319012,-6.546539999999999,-0.01526,0.44254,-0.931821345,0.32397378,-0.13720668
1764764291.2319012,-6.546539999999999,-0.01526,0.44254,-0.931821345,0.32397378,-0.13720668
1764764291.2319012,-6.546539999999999,-0.01526,0.44254,-0.931821345,0.32397378,-0.13720668
1764764291.2319012,-6.546539999999999,-0.01526,0.44254,-0.931821345,0.32397378,-0.13720668
1764764291.2319012,-6.546539999999999,-0.01526,0.44254,-0.931821345,0.32397378,-0.13720668
1764764291.2319012,-6.546539999999999,-0.01526,0.44254,-0.931821345,0.32397378,-0.13720668
1764764291.2319012,-6.546539999999999,-0.01526,0.44254,-0.931821345,0.32397378,-0.13720668
1764764291.2319012,-6.546539999999999,-0.01526,0.44254,-0.931821345,0.32397378,-0.13720668
1764764291.2319012,-6.546539999999999,-0.01526,0.44254,-0.931821345,0.32397378,-0.13720668
1764764291.2319012,-6.546539999999999,-0.01526,0.44254,-0.931821345,0.32397378,-0.13720668
1764764291.2319012,-5.66146,0.47306,0.6714399999999999,-0.93188238,0.321227205,-0.13684047
1764764291.2319012,-5.66146,0.47306,0.6714399999999999,-0.93188238,0.321227205,-0.13684047
1764764291.2319012,-5.66146,0.47306,0.6714399999999999,-0.93188238,0.321227205,-0.13684047
1764764291.2319012,-5.66146,0.47306,0.6714399999999999,-0.93188238,0.321227205,-0.13684047
1764764291.2319012,-5.66146,0.47306,0.6714399999999999,-0.93188238,0.321227205,-0.13684047
1764764291.2319012,-5.66146,0.47306,0.6714399999999999,-0.93188238,0.321227205,-0.13684047
1764764291.2319012,-5.66146,0.47306,0.6714399999999999,-0.93188238,0.321227205,-0.13684047
1764764291.2319012,-5.66146,0.47306,0.6714399999999999,-0.93188238,0.321227205,-0.13684047
1764764291.2319012,-5.66146,0.47306,0.6714399999999999,-0.93188238,0.321227205,-0.13684047
1764764291.2319012,-5.66146,0.47306,0.6714399999999999,-0.93188238,0.321227205,-0.13684047
1764764291.232956,-5.096839999999999,0.01526,0.50358,-0.931577205,0.316832685,-0.13574184
1764764291.232956,-5.096839999999999,0.01526,0.50358,-0.931577205,0.316832685,-0.13574184
1764764291.232956,-5.096839999999999,0.01526,0.50358,-0.931577205,0.316832685,-0.13574184
1764764291.232956,-5.096839999999999,0.01526,0.50358,-0.931577205,0.316832685,-0.13574184
1764764291.2751305,-5.096839999999999,0.01526,0.50358,-0.931577205,0.316832685,-0.13574184
1764764291.2751305,-5.096839999999999,0.01526,0.50358,-0.931577205,0.316832685,-0.13574184
1764764291.2751305,-5.096839999999999,0.01526,0.50358,-0.931577205,0.316832685,-0.13574184
1764764291.2751305,-5.096839999999999,0.01526,0.50358,-0.931577205,0.316832685,-0.13574184
1764764291.2751305,-5.096839999999999,0.01526,0.50358,-0.931577205,0.316832685,-0.13574184
1764764291.2751305,-5.096839999999999,0.01526,0.50358,-0.931577205,0.316832685,-0.13574184
1764764291.2751305,-4.28806,0.88508,0.12208,-0.9289527,0.31689372,-0.13586391
1764764291.2751305,-4.28806,0.88508,0.12208,-0.9289527,0.31689372,-0.13586391
1764764291.2751305,-4.28806,0.88508,0.12208,-0.9289527,0.31689372,-0.13586391
1764764291.2751305,-4.28806,0.88508,0.12208,-0.9289527,0.31689372,-0.13586391
1764764291.2751305,-4.28806,0.88508,0.12208,-0.9289527,0.31689372,-0.13586391
1764764291.2751305,-4.28806,0.88508,0.12208,-0.9289527,0.31689372,-0.13586391
1764764291.2751305,-4.28806,0.88508,0.12208,-0.9289527,0.31689372,-0.13586391
1764764291.2751305,-4.28806,0.88508,0.12208,-0.9289527,0.31689372,-0.13586391
1764764291.2751305,-4.28806,0.88508,0.12208,-0.9289527,0.31689372,-0.13586391
1764764291.2751305,-4.28806,0.88508,0.12208,-0.9289527,0.31689372,-0.13586391
1764764291.2751305,-5.40204,1.46496,0.24416,-0.926816475,0.318785805,-0.136291155
1764764291.2751305,-5.40204,1.46496,0.24416,-0.926816475,0.318785805,-0.136291155
1764764291.2751305,-5.40204,1.46496,0.24416,-0.926816475,0.318785805,-0.136291155
1764764291.2751305,-5.40204,1.46496,0.24416,-0.926816475,0.318785805,-0.136291155
1764764291.2751305,-5.40204,1.46496,0.24416,-0.926816475,0.318785805,-0.136291155
1764764291.2751305,-5.40204,1.46496,0.24416,-0.926816475,0.318785805,-0.136291155
1764764291.2751305,-5.40204,1.46496,0.24416,-0.926816475,0.318785805,-0.136291155
1764764291.2751305,-5.40204,1.46496,0.24416,-0.926816475,0.318785805,-0.136291155
1764764291.3251357,-5.40204,1.46496,0.24416,-0.926816475,0.318785805,-0.136291155
1764764291.3256507,-5.40204,1.46496,0.24416,-0.926816475,0.318785805,-0.136291155
1764764291.3256507,-5.40204,1.54126,0.47306,-0.927548895,0.318785805,-0.13488735
1764764291.3256507,-5.40204,1.54126,0.47306,-0.927548895,0.318785805,-0.13488735
1764764291.3256507,-5.40204,1.54126,0.47306,-0.927548895,0.318785805,-0.13488735
1764764291.3256507,-5.40204,1.54126,0.47306,-0.927548895,0.318785805,-0.13488735
1764764291.3256507,-5.40204,1.54126,0.47306,-0.927548895,0.318785805,-0.13488735
1764764291.3256507,-5.40204,1.54126,0.47306,-0.927548895,0.318785805,-0.13488735
1764764291.3256507,-5.40204,1.54126,0.47306,-0.927548895,0.318785805,-0.13488735
1764764291.3256507,-5.40204,1.54126,0.47306,-0.927548895,0.318785805,-0.13488735
1764764291.3256507,-5.40204,1.54126,0.47306,-0.927548895,0.318785805,-0.13488735
1764764291.3256507,-5.40204,1.54126,0.47306,-0.927548895,0.318785805,-0.13488735
1764764291.3256507,-4.4254,1.78542,0.8392999999999999,-0.928647525,0.318053385,-0.1330563
1764764291.3256507,-4.4254,1.78542,0.8392999999999999,-0.928647525,0.318053385,-0.1330563
1764764291.3256507,-4.4254,1.78542,0.8392999999999999,-0.928647525,0.318053385,-0.1330563
1764764291.3256507,-4.4254,1.78542,0.8392999999999999,-0.928647525,0.318053385,-0.1330563
1764764291.3256507,-4.4254,1.78542,0.8392999999999999,-0.928647525,0.318053385,-0.1330563
1764764291.3256507,-4.4254,1.78542,0.8392999999999999,-0.928647525,0.318053385,-0.1330563
1764764291.3256507,-4.4254,1.78542,0.8392999999999999,-0.928647525,0.318053385,-0.1330563
1764764291.3256507,-4.4254,1.78542,0.8392999999999999,-0.928647525,0.318053385,-0.1330563
1764764291.3256507,-4.4254,1.78542,0.8392999999999999,-0.928647525,0.318053385,-0.1330563
1764764291.3256507,-4.4254,1.78542,0.8392999999999999,-0.928647525,0.318053385,-0.1330563
1764764291.3256507,-3.60136,1.2971,1.23606,-0.931210995,0.317809245,-0.1318356
1764764291.3256507,-3.60136,1.2971,1.23606,-0.931210995,0.317809245,-0.1318356
1764764291.3721244,-3.60136,1.2971,1.23606,-0.931210995,0.317809245,-0.1318356
1764764291.3721244,-3.60136,1.2971,1.23606,-0.931210995,0.317809245,-0.1318356
1764764291.3721244,-3.60136,1.2971,1.23606,-0.931210995,0.317809245,-0.1318356
1764764291.3721244,-3.60136,1.2971,1.23606,-0.931210995,0.317809245,-0.1318356
1764764291.3721244,-3.60136,1.2971,1.23606,-0.931210995,0.317809245,-0.1318356
1764764291.3721244,-3.60136,1.2971,1.23606,-0.931210995,0.317809245,-0.1318356
1764764291.3721244,-3.60136,1.2971,1.23606,-0.931210995,0.317809245,-0.1318356
1764764291.3721244,-3.60136,1.2971,1.23606,-0.931210995,0.317809245,-0.1318356
1764764291.3721244,-2.68576,0.51884,0.2289,-0.93310308,0.31713786,-0.133117335
1764764291.3721244,-2.68576,0.51884,0.2289,-0.93310308,0.31713786,-0.133117335
1764764291.3721244,-2.68576,0.51884,0.2289,-0.93310308,0.31713786,-0.133117335
1764764291.3721244,-2.68576,0.51884,0.2289,-0.93310308,0.31713786,-0.133117335
1764764291.3721244,-2.68576,0.51884,0.2289,-0.93310308,0.31713786,-0.133117335
1764764291.3721244,-2.68576,0.51884,0.2289,-0.93310308,0.31713786,-0.133117335
1764764291.3721244,-2.68576,0.51884,0.2289,-0.93310308,0.31713786,-0.133117335
1764764291.3721244,-2.68576,0.51884,0.2289,-0.93310308,0.31713786,-0.133117335
1764764291.3721244,-2.68576,0.51884,0.2289,-0.93310308,0.31713786,-0.133117335
1764764291.3721244,-2.68576,0.51884,0.2289,-0.93310308,0.31713786,-0.133117335
1764764291.3721244,-3.79974,1.2055399999999998,-0.56462,-0.928647525,0.318175455,-0.136047015
1764764291.3721244,-3.79974,1.2055399999999998,-0.56462,-0.928647525,0.318175455,-0.136047015
1764764291.3721244,-3.79974,1.2055399999999998,-0.56462,-0.928647525,0.318175455,-0.136047015
1764764291.3721244,-3.79974,1.2055399999999998,-0.56462,-0.928647525,0.318175455,-0.136047015
1764764291.415223,-3.79974,1.2055399999999998,-0.56462,-0.928647525,0.318175455,-0.136047015
1764764291.415223,-3.79974,1.2055399999999998,-0.56462,-0.928647525,0.318175455,-0.136047015
1764764291.415223,-3.79974,1.2055399999999998,-0.56462,-0.928647525,0.318175455,-0.136047015
1764764291.415223,-3.79974,1.2055399999999998,-0.56462,-0.928647525,0.318175455,-0.136047015
1764764291.415223,-3.79974,1.2055399999999998,-0.56462,-0.928647525,0.318175455,-0.136047015
1764764291.415223,-3.79974,1.2055399999999998,-0.56462,-0.928647525,0.318175455,-0.136047015
1764764291.415223,-4.66956,1.69386,0.24416,-0.927670965,0.32079996,-0.136291155
1764764291.415223,-4.66956,1.69386,0.24416,-0.927670965,0.32079996,-0.136291155
1764764291.415223,-4.66956,1.69386,0.24416,-0.927670965,0.32079996,-0.136291155
1764764291.415223,-4.66956,1.69386,0.24416,-0.927670965,0.32079996,-0.136291155
1764764291.415223,-4.66956,1.69386,0.24416,-0.927670965,0.32079996,-0.136291155
1764764291.415223,-4.66956,1.69386,0.24416,-0.927670965,0.32079996,-0.136291155
1764764291.415223,-4.66956,1.69386,0.24416,-0.927670965,0.32079996,-0.136291155
1764764291.415223,-4.66956,1.69386,0.24416,-0.927670965,0.32079996,-0.136291155
1764764291.4162705,-4.66956,1.69386,0.24416,-0.927670965,0.32079996,-0.136291155
1764764291.4162705,-4.66956,1.69386,0.24416,-0.927670965,0.32079996,-0.136291155
1764764291.4162705,-5.0358,1.51074,0.25942,-0.928037175,0.32128824,-0.13500942
1764764291.4162705,-5.0358,1.51074,0.25942,-0.928037175,0.32128824,-0.13500942
1764764291.4162705,-5.0358,1.51074,0.25942,-0.928037175,0.32128824,-0.13500942
1764764291.4162705,-5.0358,1.51074,0.25942,-0.928037175,0.32128824,-0.13500942
1764764291.4162705,-5.0358,1.51074,0.25942,-0.928037175,0.32128824,-0.13500942
1764764291.4162705,-5.0358,1.51074,0.25942,-0.928037175,0.32128824,-0.13500942
1764764291.4162705,-5.0358,1.51074,0.25942,-0.928037175,0.32128824,-0.13500942
1764764291.4162705,-5.0358,1.51074,0.25942,-0.928037175,0.32128824,-0.13500942
1764764291.4631653,-5.0358,1.51074,0.25942,-0.928037175,0.32128824,-0.13500942
1764764291.4631653,-5.0358,1.51074,0.25942,-0.928037175,0.32128824,-0.13500942
1764764291.4631653,-4.74586,1.41918,0.09156,-0.92956305,0.32018961,-0.134093895
1764764291.4631653,-4.74586,1.41918,0.09156,-0.92956305,0.32018961,-0.134093895
1764764291.4631653,-4.74586,1.41918,0.09156,-0.92956305,0.32018961,-0.134093895
1764764291.4631653,-4.74586,1.41918,0.09156,-0.92956305,0.32018961,-0.134093895
1764764291.4631653,-4.74586,1.41918,0.09156,-0.92956305,0.32018961,-0.134093895
1764764291.4631653,-4.74586,1.41918,0.09156,-0.92956305,0.32018961,-0.134093895
1764764291.4631653,-4.74586,1.41918,0.09156,-0.92956305,0.32018961,-0.134093895
1764764291.4631653,-4.74586,1.41918,0.09156,-0.92956305,0.32018961,-0.134093895
1764764291.4631653,-4.74586,1.41918,0.09156,-0.92956305,0.32018961,-0.134093895
1764764291.4631653,-4.74586,1.41918,0.09156,-0.92956305,0.32018961,-0.134093895
1764764291.4631653,-3.57084,0.71722,0.24416,-0.93078375,0.317565105,-0.13366665
1764764291.4631653,-3.57084,0.71722,0.24416,-0.93078375,0.317565105,-0.13366665
1764764291.4631653,-3.57084,0.71722,0.24416,-0.93078375,0.317565105,-0.13366665
1764764291.4631653,-3.57084,0.71722,0.24416,-0.93078375,0.317565105,-0.13366665
1764764291.4631653,-3.57084,0.71722,0.24416,-0.93078375,0.317565105,-0.13366665
1764764291.4631653,-3.57084,0.71722,0.24416,-0.93078375,0.317565105,-0.13366665
1764764291.4631653,-3.57084,0.71722,0.24416,-0.93078375,0.317565105,-0.13366665
1764764291.4631653,-3.57084,0.71722,0.24416,-0.93078375,0.317565105,-0.13366665
1764764291.4631653,-3.57084,0.71722,0.24416,-0.93078375,0.317565105,-0.13366665
1764764291.4631653,-3.57084,0.71722,0.24416,-0.93078375,0.317565105,-0.13366665
1764764291.5126605,-3.79974,0.56462,-0.3509799999999999,-0.931210995,0.316222335,-0.13439907
1764764291.5126605,-3.79974,0.56462,-0.3509799999999999,-0.931210995,0.316222335,-0.13439907
1764764291.5126605,-3.79974,0.56462,-0.3509799999999999,-0.931210995,0.316222335,-0.13439907
1764764291.5126605,-3.79974,0.56462,-0.3509799999999999,-0.931210995,0.316222335,-0.13439907
1764764291.5126605,-3.79974,0.56462,-0.3509799999999999,-0.931210995,0.316222335,-0.13439907
1764764291.5126605,-3.79974,0.56462,-0.3509799999999999,-0.931210995,0.316222335,-0.13439907
1764764291.5126605,-3.79974,0.56462,-0.3509799999999999,-0.931210995,0.316222335,-0.13439907
1764764291.5126605,-3.79974,0.56462,-0.3509799999999999,-0.931210995,0.316222335,-0.13439907
1764764291.5126605,-3.79974,0.56462,-0.3509799999999999,-0.931210995,0.316222335,-0.13439907
1764764291.5126605,-3.79974,0.56462,-0.3509799999999999,-0.931210995,0.316222335,-0.13439907
1764764291.5126605,-4.3491,1.05294,-0.12208,-0.93066168,0.315611985,-0.13610805
1764764291.5126605,-4.3491,1.05294,-0.12208,-0.93066168,0.315611985,-0.13610805
1764764291.5126605,-4.3491,1.05294,-0.12208,-0.93066168,0.315611985,-0.13610805
1764764291.5126605,-4.3491,1.05294,-0.12208,-0.93066168,0.315611985,-0.13610805
1764764291.5126605,-4.3491,1.05294,-0.12208,-0.93066168,0.315611985,-0.13610805
1764764291.5126605,-4.3491,1.05294,-0.12208,-0.93066168,0.315611985,-0.13610805
1764764291.5126605,-4.3491,1.05294,-0.12208,-0.93066168,0.315611985,-0.13610805
1764764291.5126605,-4.3491,1.05294,-0.12208,-0.93066168,0.315611985,-0.13610805
1764764291.5126605,-4.3491,1.05294,-0.12208,-0.93066168,0.315611985,-0.13610805
1764764291.5126605,-4.3491,1.05294,-0.12208,-0.93066168,0.315611985,-0.13610805
1764764291.5126605,-4.4254,1.48022,0.3509799999999999,-0.930356505,0.316832685,-0.135680805
1764764291.5126605,-4.4254,1.48022,0.3509799999999999,-0.930356505,0.316832685,-0.135680805
1764764291.5126605,-4.4254,1.48022,0.3509799999999999,-0.930356505,0.316832685,-0.135680805
1764764291.5126605,-4.4254,1.48022,0.3509799999999999,-0.930356505,0.316832685,-0.135680805
1764764291.5595355,-4.4254,1.48022,0.3509799999999999,-0.930356505,0.316832685,-0.135680805
1764764291.5595355,-4.4254,1.48022,0.3509799999999999,-0.930356505,0.316832685,-0.135680805
1764764291.5595355,-4.4254,1.48022,0.3509799999999999,-0.930356505,0.316832685,-0.135680805
1764764291.5595355,-4.4254,1.48022,0.3509799999999999,-0.930356505,0.316832685,-0.135680805
1764764291.5595355,-4.4254,1.48022,0.3509799999999999,-0.930356505,0.316832685,-0.135680805
1764764291.5595355,-4.4254,1.48022,0.3509799999999999,-0.930356505,0.316832685,-0.135680805
1764764291.5595355,-4.18124,0.79352,0.13734,-0.9313941,0.316954755,-0.13500942
1764764291.5595355,-4.18124,0.79352,0.13734,-0.9313941,0.316954755,-0.13500942
1764764291.5595355,-4.18124,0.79352,0.13734,-0.9313941,0.316954755,-0.13500942
1764764291.5595355,-4.18124,0.79352,0.13734,-0.9313941,0.316954755,-0.13500942
1764764291.5595355,-4.18124,0.79352,0.13734,-0.9313941,0.316954755,-0.13500942
1764764291.5595355,-4.18124,0.79352,0.13734,-0.9313941,0.316954755,-0.13500942
1764764291.5595355,-4.18124,0.79352,0.13734,-0.9313941,0.316954755,-0.13500942
1764764291.5605514,-4.18124,0.79352,0.13734,-0.9313941,0.316954755,-0.13500942
1764764291.5605514,-4.18124,0.79352,0.13734,-0.9313941,0.316954755,-0.13500942
1764764291.5605514,-4.18124,0.79352,0.13734,-0.9313941,0.316954755,-0.13500942
1764764291.5605514,-4.31858,0.24416,0.1525999999999999,-0.931821345,0.3186027,-0.135680805
1764764291.5605514,-4.31858,0.24416,0.1525999999999999,-0.931821345,0.3186027,-0.135680805
1764764291.5605514,-4.31858,0.24416,0.1525999999999999,-0.931821345,0.3186027,-0.135680805
1764764291.5605514,-4.31858,0.24416,0.1525999999999999,-0.931821345,0.3186027,-0.135680805
1764764291.5605514,-4.31858,0.24416,0.1525999999999999,-0.931821345,0.3186027,-0.135680805
1764764291.5605514,-4.31858,0.24416,0.1525999999999999,-0.931821345,0.3186027,-0.135680805
1764764291.5605514,-4.31858,0.24416,0.1525999999999999,-0.931821345,0.3186027,-0.135680805
1764764291.5605514,-4.31858,0.24416,0.1525999999999999,-0.931821345,0.3186027,-0.135680805
1764764291.6033316,-4.31858,0.24416,0.1525999999999999,-0.931821345,0.3186027,-0.135680805
1764764291.6033316,-4.31858,0.24416,0.1525999999999999,-0.931821345,0.3186027,-0.135680805
1764764291.6033316,-4.89846,0.59514,0.24416,-0.93176031,0.319640295,-0.13598598
1764764291.6033316,-4.89846,0.59514,0.24416,-0.93176031,0.319640295,-0.13598598
1764764291.6033316,-4.89846,0.59514,0.24416,-0.93176031,0.319640295,-0.13598598
1764764291.6033316,-4.89846,0.59514,0.24416,-0.93176031,0.319640295,-0.13598598
1764764291.6033316,-4.89846,0.59514,0.24416,-0.93176031,0.319640295,-0.13598598
1764764291.6033316,-4.89846,0.59514,0.24416,-0.93176031,0.319640295,-0.13598598
1764764291.6033316,-4.89846,0.59514,0.24416,-0.93176031,0.319640295,-0.13598598
1764764291.6033316,-4.89846,0.59514,0.24416,-0.93176031,0.319640295,-0.13598598
1764764291.6033316,-4.89846,0.59514,0.24416,-0.93176031,0.319640295,-0.13598598
1764764291.6033316,-4.89846,0.59514,0.24416,-0.93176031,0.319640295,-0.13598598
1764764291.6033316,-5.32574,1.09872,0.19838,-0.93102789,0.319762365,-0.13513149
1764764291.6033316,-5.32574,1.09872,0.19838,-0.93102789,0.319762365,-0.13513149
1764764291.6033316,-5.32574,1.09872,0.19838,-0.93102789,0.319762365,-0.13513149
1764764291.6033316,-5.32574,1.09872,0.19838,-0.93102789,0.319762365,-0.13513149
1764764291.6033316,-5.32574,1.09872,0.19838,-0.93102789,0.319762365,-0.13513149
1764764291.6033316,-5.32574,1.09872,0.19838,-0.93102789,0.319762365,-0.13513149
1764764291.6043391,-5.32574,1.09872,0.19838,-0.93102789,0.319762365,-0.13513149
1764764291.6043391,-5.32574,1.09872,0.19838,-0.93102789,0.319762365,-0.13513149
1764764291.6043391,-5.32574,1.09872,0.19838,-0.93102789,0.319762365,-0.13513149
1764764291.6043391,-5.32574,1.09872,0.19838,-0.93102789,0.319762365,-0.13513149
1764764291.6503685,-5.08158,0.96138,0.3357199999999999,-0.93066168,0.31872477,-0.134582175
1764764291.6503685,-5.08158,0.96138,0.3357199999999999,-0.93066168,0.31872477,-0.134582175
1764764291.6503685,-5.08158,0.96138,0.3357199999999999,-0.93066168,0.31872477,-0.134582175
1764764291.650873,-5.08158,0.96138,0.3357199999999999,-0.93066168,0.31872477,-0.134582175
1764764291.650873,-5.08158,0.96138,0.3357199999999999,-0.93066168,0.31872477,-0.134582175
1764764291.650873,-5.08158,0.96138,0.3357199999999999,-0.93066168,0.31872477,-0.134582175
1764764291.650873,-5.08158,0.96138,0.3357199999999999,-0.93066168,0.31872477,-0.134582175
1764764291.650873,-5.08158,0.96138,0.3357199999999999,-0.93066168,0.31872477,-0.134582175
1764764291.650873,-5.08158,0.96138,0.3357199999999999,-0.93066168,0.31872477,-0.134582175
1764764291.650873,-5.08158,0.96138,0.3357199999999999,-0.93066168,0.31872477,-0.134582175
1764764291.650873,-6.36342,1.0682,0.71722,-0.92980719,0.31896891,-0.133971825
1764764291.650873,-6.36342,1.0682,0.71722,-0.92980719,0.31896891,-0.133971825
1764764291.650873,-6.36342,1.0682,0.71722,-0.92980719,0.31896891,-0.133971825
1764764291.650873,-6.36342,1.0682,0.71722,-0.92980719,0.31896891,-0.133971825
1764764291.650873,-6.36342,1.0682,0.71722,-0.92980719,0.31896891,-0.133971825
1764764291.650873,-6.36342,1.0682,0.71722,-0.92980719,0.31896891,-0.133971825
1764764291.650873,-6.36342,1.0682,0.71722,-0.92980719,0.31896891,-0.133971825
1764764291.650873,-6.36342,1.0682,0.71722,-0.92980719,0.31896891,-0.133971825
1764764291.6518793,-6.36342,1.0682,0.71722,-0.92980719,0.31896891,-0.133971825
1764764291.6518793,-6.36342,1.0682,0.71722,-0.92980719,0.31896891,-0.133971825
1764764291.6518793,-6.07348,0.4578,0.71722,-0.9313941,0.31970133,-0.133361475
1764764291.6518793,-6.07348,0.4578,0.71722,-0.9313941,0.31970133,-0.133361475
1764764291.6518793,-6.07348,0.4578,0.71722,-0.9313941,0.31970133,-0.133361475
1764764291.6518793,-6.07348,0.4578,0.71722,-0.9313941,0.31970133,-0.133361475
1764764291.6981893,-6.07348,0.4578,0.71722,-0.9313941,0.31970133,-0.133361475
1764764291.6981893,-6.07348,0.4578,0.71722,-0.9313941,0.31970133,-0.133361475
1764764291.6981893,-6.07348,0.4578,0.71722,-0.9313941,0.31970133,-0.133361475
1764764291.6981893,-6.07348,0.4578,0.71722,-0.9313941,0.31970133,-0.133361475
1764764291.6981893,-6.07348,0.4578,0.71722,-0.9313941,0.31970133,-0.133361475
1764764291.6981893,-6.07348,0.4578,0.71722,-0.9313941,0.31970133,-0.133361475
1764764291.6981893,-4.51696,0.3357199999999999,0.18312,-0.93066168,0.317565105,-0.13500942
1764764291.6981893,-4.51696,0.3357199999999999,0.18312,-0.93066168,0.317565105,-0.13500942
1764764291.6981893,-4.51696,0.3357199999999999,0.18312,-0.93066168,0.317565105,-0.13500942
1764764291.6981893,-4.51696,0.3357199999999999,0.18312,-0.93066168,0.317565105,-0.13500942
1764764291.6981893,-4.51696,0.3357199999999999,0.18312,-0.93066168,0.317565105,-0.13500942
1764764291.6981893,-4.51696,0.3357199999999999,0.18312,-0.93066168,0.317565105,-0.13500942
1764764291.6981893,-4.51696,0.3357199999999999,0.18312,-0.93066168,0.317565105,-0.13500942
1764764291.6981893,-4.51696,0.3357199999999999,0.18312,-0.93066168,0.317565105,-0.13500942
1764764291.6981893,-4.51696,0.3357199999999999,0.18312,-0.93066168,0.317565105,-0.13500942
1764764291.6981893,-4.51696,0.3357199999999999,0.18312,-0.93066168,0.317565105,-0.13500942
1764764291.6997092,-5.12736,0.9156,-0.24416,-0.928647525,0.316466475,-0.135680805
1764764291.6997092,-5.12736,0.9156,-0.24416,-0.928647525,0.316466475,-0.135680805
1764764291.6997092,-5.12736,0.9156,-0.24416,-0.928647525,0.316466475,-0.135680805
1764764291.6997092,-5.12736,0.9156,-0.24416,-0.928647525,0.316466475,-0.135680805
1764764291.6997092,-5.12736,0.9156,-0.24416,-0.928647525,0.316466475,-0.135680805
1764764291.6997092,-5.12736,0.9156,-0.24416,-0.928647525,0.316466475,-0.135680805
1764764291.742902,-5.12736,0.9156,-0.24416,-0.928647525,0.316466475,-0.135680805
1764764291.742902,-5.12736,0.9156,-0.24416,-0.928647525,0.316466475,-0.135680805
1764764291.742902,-5.12736,0.9156,-0.24416,-0.928647525,0.316466475,-0.135680805
1764764291.742902,-5.12736,0.9156,-0.24416,-0.928647525,0.316466475,-0.135680805
1764764291.742902,-6.80596,1.11398,0.3509799999999999,-0.929502015,0.318663735,-0.134826315
1764764291.742902,-6.80596,1.11398,0.3509799999999999,-0.929502015,0.318663735,-0.134826315
1764764291.742902,-6.80596,1.11398,0.3509799999999999,-0.929502015,0.318663735,-0.134826315
1764764291.742902,-6.80596,1.11398,0.3509799999999999,-0.929502015,0.318663735,-0.134826315
1764764291.742902,-6.80596,1.11398,0.3509799999999999,-0.929502015,0.318663735,-0.134826315
1764764291.742902,-6.80596,1.11398,0.3509799999999999,-0.929502015,0.318663735,-0.134826315
1764764291.742902,-6.80596,1.11398,0.3509799999999999,-0.929502015,0.318663735,-0.134826315
1764764291.742902,-6.80596,1.11398,0.3509799999999999,-0.929502015,0.318663735,-0.134826315
1764764291.742902,-6.80596,1.11398,0.3509799999999999,-0.929502015,0.318663735,-0.134826315
1764764291.742902,-6.80596,1.11398,0.3509799999999999,-0.929502015,0.318663735,-0.134826315
1764764291.742902,-6.72966,0.42728,0.65618,-0.932919975,0.32031168,-0.133971825
1764764291.742902,-6.72966,0.42728,0.65618,-0.932919975,0.32031168,-0.133971825
1764764291.742902,-6.72966,0.42728,0.65618,-0.932919975,0.32031168,-0.133971825
1764764291.742902,-6.72966,0.42728,0.65618,-0.932919975,0.32031168,-0.133971825
1764764291.744503,-6.72966,0.42728,0.65618,-0.932919975,0.32031168,-0.133971825
1764764291.744503,-6.72966,0.42728,0.65618,-0.932919975,0.32031168,-0.133971825
1764764291.744503,-6.72966,0.42728,0.65618,-0.932919975,0.32031168,-0.133971825
1764764291.744503,-6.72966,0.42728,0.65618,-0.932919975,0.32031168,-0.133971825
1764764291.744503,-6.72966,0.42728,0.65618,-0.932919975,0.32031168,-0.133971825
1764764291.744503,-6.72966,0.42728,0.65618,-0.932919975,0.32031168,-0.133971825
1764764291.790936,-6.271859999999999,0.54936,0.3509799999999999,-0.932675835,0.318663735,-0.13366665
1764764291.790936,-6.271859999999999,0.54936,0.3509799999999999,-0.932675835,0.318663735,-0.13366665
1764764291.790936,-6.271859999999999,0.54936,0.3509799999999999,-0.932675835,0.318663735,-0.13366665
1764764291.790936,-6.271859999999999,0.54936,0.3509799999999999,-0.932675835,0.318663735,-0.13366665
1764764291.790936,-6.271859999999999,0.54936,0.3509799999999999,-0.932675835,0.318663735,-0.13366665
1764764291.790936,-6.271859999999999,0.54936,0.3509799999999999,-0.932675835,0.318663735,-0.13366665
1764764291.7914443,-6.271859999999999,0.54936,0.3509799999999999,-0.932675835,0.318663735,-0.13366665
1764764291.7914443,-6.271859999999999,0.54936,0.3509799999999999,-0.932675835,0.318663735,-0.13366665
1764764291.7914443,-6.271859999999999,0.54936,0.3509799999999999,-0.932675835,0.318663735,-0.13366665
1764764291.7914443,-6.271859999999999,0.54936,0.3509799999999999,-0.932675835,0.318663735,-0.13366665
1764764291.7914443,-5.55464,0.48832,0.3815,-0.93176031,0.31591716,-0.132629055
1764764291.7914443,-5.55464,0.48832,0.3815,-0.93176031,0.31591716,-0.132629055
1764764291.7914443,-5.55464,0.48832,0.3815,-0.93176031,0.31591716,-0.132629055
1764764291.7914443,-5.55464,0.48832,0.3815,-0.93176031,0.31591716,-0.132629055
1764764291.7914443,-5.55464,0.48832,0.3815,-0.93176031,0.31591716,-0.132629055
1764764291.7914443,-5.55464,0.48832,0.3815,-0.93176031,0.31591716,-0.132629055
1764764291.792107,-5.55464,0.48832,0.3815,-0.93176031,0.31591716,-0.132629055
1764764291.792107,-5.55464,0.48832,0.3815,-0.93176031,0.31591716,-0.132629055
1764764291.792107,-5.55464,0.48832,0.3815,-0.93176031,0.31591716,-0.132629055
1764764291.792453,-5.55464,0.48832,0.3815,-0.93176031,0.31591716,-0.132629055
1764764291.792453,-4.3491,1.02242,0.6714399999999999,-0.9289527,0.31408611,-0.13256802
1764764291.792453,-4.3491,1.02242,0.6714399999999999,-0.9289527,0.31408611,-0.13256802
1764764291.835254,-4.3491,1.02242,0.6714399999999999,-0.9289527,0.31408611,-0.13256802
1764764291.836266,-4.3491,1.02242,0.6714399999999999,-0.9289527,0.31408611,-0.13256802
1764764291.836266,-4.3491,1.02242,0.6714399999999999,-0.9289527,0.31408611,-0.13256802
1764764291.836266,-4.3491,1.02242,0.6714399999999999,-0.9289527,0.31408611,-0.13256802
1764764291.836266,-4.3491,1.02242,0.6714399999999999,-0.9289527,0.31408611,-0.13256802
1764764291.836266,-4.3491,1.02242,0.6714399999999999,-0.9289527,0.31408611,-0.13256802
1764764291.836266,-4.3491,1.02242,0.6714399999999999,-0.9289527,0.31408611,-0.13256802
1764764291.836266,-4.3491,1.02242,0.6714399999999999,-0.9289527,0.31408611,-0.13256802
1764764291.836266,-4.47118,1.72438,1.09872,-0.92822028,0.314879565,-0.133239405
1764764291.836266,-4.47118,1.72438,1.09872,-0.92822028,0.314879565,-0.133239405
1764764291.836266,-4.47118,1.72438,1.09872,-0.92822028,0.314879565,-0.133239405
1764764291.836266,-4.47118,1.72438,1.09872,-0.92822028,0.314879565,-0.133239405
1764764291.836266,-4.47118,1.72438,1.09872,-0.92822028,0.314879565,-0.133239405
1764764291.836266,-4.47118,1.72438,1.09872,-0.92822028,0.314879565,-0.133239405
1764764291.836266,-4.47118,1.72438,1.09872,-0.92822028,0.314879565,-0.133239405
1764764291.836266,-4.47118,1.72438,1.09872,-0.92822028,0.314879565,-0.133239405
1764764291.836266,-4.47118,1.72438,1.09872,-0.92822028,0.314879565,-0.133239405
1764764291.836266,-4.47118,1.72438,1.09872,-0.92822028,0.314879565,-0.133239405
1764764291.836266,-4.21176,0.82404,0.44254,-0.9301734,0.316588545,-0.13244595
1764764291.836266,-4.21176,0.82404,0.44254,-0.9301734,0.316588545,-0.13244595
1764764291.836266,-4.21176,0.82404,0.44254,-0.9301734,0.316588545,-0.13244595
1764764291.836266,-4.21176,0.82404,0.44254,-0.9301734,0.316588545,-0.13244595
1764764291.836266,-4.21176,0.82404,0.44254,-0.9301734,0.316588545,-0.13244595
1764764291.836266,-4.21176,0.82404,0.44254,-0.9301734,0.316588545,-0.13244595
1764764291.836266,-4.21176,0.82404,0.44254,-0.9301734,0.316588545,-0.13244595
1764764291.8372636,-4.21176,0.82404,0.44254,-0.9301734,0.316588545,-0.13244595
1764764291.883637,-4.21176,0.82404,0.44254,-0.9301734,0.316588545,-0.13244595
1764764291.883637,-4.21176,0.82404,0.44254,-0.9301734,0.316588545,-0.13244595
1764764291.884178,-3.41824,0.41202,-0.1678599999999999,-0.931210995,0.318053385,-0.132140775
1764764291.884178,-3.41824,0.41202,-0.1678599999999999,-0.931210995,0.318053385,-0.132140775
1764764291.9339116,-3.41824,0.41202,-0.1678599999999999,-0.931210995,0.318053385,-0.132140775
1764764291.9339116,-3.41824,0.41202,-0.1678599999999999,-0.931210995,0.318053385,-0.132140775
1764764291.9339116,-3.41824,0.41202,-0.1678599999999999,-0.931210995,0.318053385,-0.132140775
1764764291.9339116,-3.41824,0.41202,-0.1678599999999999,-0.931210995,0.318053385,-0.132140775
1764764291.9339116,-3.41824,0.41202,-0.1678599999999999,-0.931210995,0.318053385,-0.132140775
1764764291.9339116,-3.41824,0.41202,-0.1678599999999999,-0.931210995,0.318053385,-0.132140775
1764764291.9339116,-3.41824,0.41202,-0.1678599999999999,-0.931210995,0.318053385,-0.132140775
1764764291.9339116,-3.41824,0.41202,-0.1678599999999999,-0.931210995,0.318053385,-0.132140775
1764764291.9339116,-4.2728,0.65618,0.27468,-0.93188238,0.319396155,-0.1330563
1764764291.9339116,-4.2728,0.65618,0.27468,-0.93188238,0.319396155,-0.1330563
1764764291.9339116,-4.2728,0.65618,0.27468,-0.93188238,0.319396155,-0.1330563
1764764291.9339116,-4.2728,0.65618,0.27468,-0.93188238,0.319396155,-0.1330563
1764764291.9339116,-4.2728,0.65618,0.27468,-0.93188238,0.319396155,-0.1330563
1764764291.9339116,-4.2728,0.65618,0.27468,-0.93188238,0.319396155,-0.1330563
1764764291.9339116,-4.2728,0.65618,0.27468,-0.93188238,0.319396155,-0.1330563
1764764291.9339116,-4.2728,0.65618,0.27468,-0.93188238,0.319396155,-0.1330563
1764764291.9339116,-4.2728,0.65618,0.27468,-0.93188238,0.319396155,-0.1330563
1764764291.9339116,-4.2728,0.65618,0.27468,-0.93188238,0.319396155,-0.1330563
1764764291.9339116,-3.03674,0.54936,0.41202,-0.93127203,0.320128575,-0.135192525
1764764291.9339116,-3.03674,0.54936,0.41202,-0.93127203,0.320128575,-0.135192525
1764764291.9339116,-3.03674,0.54936,0.41202,-0.93127203,0.320128575,-0.135192525
1764764291.9339116,-3.03674,0.54936,0.41202,-0.93127203,0.320128575,-0.135192525
1764764291.9339116,-3.03674,0.54936,0.41202,-0.93127203,0.320128575,-0.135192525
1764764291.9339116,-3.03674,0.54936,0.41202,-0.93127203,0.320128575,-0.135192525
1764764291.9339116,-3.03674,0.54936,0.41202,-0.93127203,0.320128575,-0.135192525
1764764291.9339116,-3.03674,0.54936,0.41202,-0.93127203,0.320128575,-0.135192525
1764764291.9339116,-3.03674,0.54936,0.41202,-0.93127203,0.320128575,-0.135192525
1764764291.9349208,-3.03674,0.54936,0.41202,-0.93127203,0.320128575,-0.135192525
1764764291.9349208,-4.56274,1.26658,-0.3357199999999999,-0.92907477,0.319152015,-0.136779435
1764764291.9349208,-4.56274,1.26658,-0.3357199999999999,-0.92907477,0.319152015,-0.136779435
1764764291.9349208,-4.56274,1.26658,-0.3357199999999999,-0.92907477,0.319152015,-0.136779435
1764764291.9349208,-4.56274,1.26658,-0.3357199999999999,-0.92907477,0.319152015,-0.136779435
1764764291.9349208,-4.56274,1.26658,-0.3357199999999999,-0.92907477,0.319152015,-0.136779435
1764764291.9349208,-4.56274,1.26658,-0.3357199999999999,-0.92907477,0.319152015,-0.136779435
1764764291.9349208,-4.56274,1.26658,-0.3357199999999999,-0.92907477,0.319152015,-0.136779435
1764764291.9349208,-4.56274,1.26658,-0.3357199999999999,-0.92907477,0.319152015,-0.136779435
1764764291.9349208,-4.56274,1.26658,-0.3357199999999999,-0.92907477,0.319152015,-0.136779435
1764764291.9349208,-4.56274,1.26658,-0.3357199999999999,-0.92907477,0.319152015,-0.136779435
1764764291.9349208,-4.74586,1.4497,0.18312,-0.92980719,0.320250645,-0.134948385
1764764291.9359229,-4.74586,1.4497,0.18312,-0.92980719,0.320250645,-0.134948385
1764764291.9359229,-4.74586,1.4497,0.18312,-0.92980719,0.320250645,-0.134948385
1764764291.9359229,-4.74586,1.4497,0.18312,-0.92980719,0.320250645,-0.134948385
1764764291.9778657,-4.74586,1.4497,0.18312,-0.92980719,0.320250645,-0.134948385
1764764291.9778657,-4.74586,1.4497,0.18312,-0.92980719,0.320250645,-0.134948385
1764764291.9778657,-4.74586,1.4497,0.18312,-0.92980719,0.320250645,-0.134948385
1764764291.9778657,-4.74586,1.4497,0.18312,-0.92980719,0.320250645,-0.134948385
1764764291.9778657,-4.74586,1.4497,0.18312,-0.92980719,0.320250645,-0.134948385
1764764291.9778657,-4.74586,1.4497,0.18312,-0.92980719,0.320250645,-0.134948385
1764764291.9778657,-4.56274,1.12924,0.3051999999999999,-0.9301734,0.320006505,-0.132629055
1764764291.9778657,-4.56274,1.12924,0.3051999999999999,-0.9301734,0.320006505,-0.132629055
1764764291.9778657,-4.56274,1.12924,0.3051999999999999,-0.9301734,0.320006505,-0.132629055
1764764291.9778657,-4.56274,1.12924,0.3051999999999999,-0.9301734,0.320006505,-0.132629055
1764764291.9778657,-4.56274,1.12924,0.3051999999999999,-0.9301734,0.320006505,-0.132629055
1764764291.9778657,-4.56274,1.12924,0.3051999999999999,-0.9301734,0.320006505,-0.132629055
1764764291.9778657,-4.56274,1.12924,0.3051999999999999,-0.9301734,0.320006505,-0.132629055
1764764291.9778657,-4.56274,1.12924,0.3051999999999999,-0.9301734,0.320006505,-0.132629055
1764764291.9778657,-4.56274,1.12924,0.3051999999999999,-0.9301734,0.320006505,-0.132629055
1764764291.9778657,-4.56274,1.12924,0.3051999999999999,-0.9301734,0.320006505,-0.132629055
1764764292.0254145,-4.1202,1.2971,0.24416,-0.9313941,0.31823649,-0.132140775
1764764292.0254145,-4.1202,1.2971,0.24416,-0.9313941,0.31823649,-0.132140775
1764764292.0254145,-4.1202,1.2971,0.24416,-0.9313941,0.31823649,-0.132140775
1764764292.0254145,-4.1202,1.2971,0.24416,-0.9313941,0.31823649,-0.132140775
1764764292.0254145,-4.1202,1.2971,0.24416,-0.9313941,0.31823649,-0.132140775
1764764292.0254145,-4.1202,1.2971,0.24416,-0.9313941,0.31823649,-0.132140775
1764764292.0254145,-4.1202,1.2971,0.24416,-0.9313941,0.31823649,-0.132140775
1764764292.0254145,-4.1202,1.2971,0.24416,-0.9313941,0.31823649,-0.132140775
1764764292.0254145,-4.1202,1.2971,0.24416,-0.9313941,0.31823649,-0.132140775
1764764292.0254145,-4.1202,1.2971,0.24416,-0.9313941,0.31823649,-0.132140775
1764764292.0254145,-3.67766,0.82404,0.3204599999999999,-0.93127203,0.31591716,-0.132140775
1764764292.0254145,-3.67766,0.82404,0.3204599999999999,-0.93127203,0.31591716,-0.132140775
1764764292.0254145,-3.67766,0.82404,0.3204599999999999,-0.93127203,0.31591716,-0.132140775
1764764292.0264242,-3.67766,0.82404,0.3204599999999999,-0.93127203,0.31591716,-0.132140775
1764764292.0264242,-3.67766,0.82404,0.3204599999999999,-0.93127203,0.31591716,-0.132140775
1764764292.0264242,-3.67766,0.82404,0.3204599999999999,-0.93127203,0.31591716,-0.132140775
1764764292.0264242,-3.67766,0.82404,0.3204599999999999,-0.93127203,0.31591716,-0.132140775
1764764292.0264242,-3.67766,0.82404,0.3204599999999999,-0.93127203,0.31591716,-0.132140775
1764764292.0264242,-3.67766,0.82404,0.3204599999999999,-0.93127203,0.31591716,-0.132140775
1764764292.0264242,-3.67766,0.82404,0.3204599999999999,-0.93127203,0.31591716,-0.132140775
1764764292.0264242,-3.18934,0.79352,-0.12208,-0.930112365,0.315489915,-0.1330563
1764764292.0264242,-3.18934,0.79352,-0.12208,-0.930112365,0.315489915,-0.1330563
1764764292.0264242,-3.18934,0.79352,-0.12208,-0.930112365,0.315489915,-0.1330563
1764764292.0264242,-3.18934,0.79352,-0.12208,-0.930112365,0.315489915,-0.1330563
1764764292.027775,-3.18934,0.79352,-0.12208,-0.930112365,0.315489915,-0.1330563
1764764292.027775,-3.18934,0.79352,-0.12208,-0.930112365,0.315489915,-0.1330563
1764764292.027775,-3.18934,0.79352,-0.12208,-0.930112365,0.315489915,-0.1330563
1764764292.027775,-3.18934,0.79352,-0.12208,-0.930112365,0.315489915,-0.1330563
1764764292.027775,-3.18934,0.79352,-0.12208,-0.930112365,0.315489915,-0.1330563
1764764292.027775,-3.18934,0.79352,-0.12208,-0.930112365,0.315489915,-0.1330563
1764764292.0740843,-3.4335,1.43444,-0.19838,-0.93005133,0.31628337,-0.13476528
1764764292.0740843,-3.4335,1.43444,-0.19838,-0.93005133,0.31628337,-0.13476528
1764764292.0740843,-3.4335,1.43444,-0.19838,-0.93005133,0.31628337,-0.13476528
1764764292.0740843,-3.4335,1.43444,-0.19838,-0.93005133,0.31628337,-0.13476528
1764764292.0740843,-3.4335,1.43444,-0.19838,-0.93005133,0.31628337,-0.13476528
1764764292.0740843,-3.4335,1.43444,-0.19838,-0.93005133,0.31628337,-0.13476528
1764764292.0740843,-3.4335,1.43444,-0.19838,-0.93005133,0.31628337,-0.13476528
1764764292.0740843,-3.4335,1.43444,-0.19838,-0.93005133,0.31628337,-0.13476528
1764764292.0740843,-3.4335,1.43444,-0.19838,-0.93005133,0.31628337,-0.13476528
1764764292.0740843,-3.4335,1.43444,-0.19838,-0.93005133,0.31628337,-0.13476528
1764764292.0740843,-3.98286,0.85456,0.10682,-0.930844785,0.317931315,-0.13488735
1764764292.0740843,-3.98286,0.85456,0.10682,-0.930844785,0.317931315,-0.13488735
1764764292.0740843,-3.98286,0.85456,0.10682,-0.930844785,0.317931315,-0.13488735
1764764292.0740843,-3.98286,0.85456,0.10682,-0.930844785,0.317931315,-0.13488735
1764764292.0740843,-3.98286,0.85456,0.10682,-0.930844785,0.317931315,-0.13488735
1764764292.0740843,-3.98286,0.85456,0.10682,-0.930844785,0.317931315,-0.13488735
1764764292.0740843,-3.98286,0.85456,0.10682,-0.930844785,0.317931315,-0.13488735
1764764292.0740843,-3.98286,0.85456,0.10682,-0.930844785,0.317931315,-0.13488735
1764764292.0740843,-3.98286,0.85456,0.10682,-0.930844785,0.317931315,-0.13488735
1764764292.0740843,-3.98286,0.85456,0.10682,-0.930844785,0.317931315,-0.13488735
1764764292.0740843,-4.37962,0.9919,0.5341,-0.931699275,0.31896891,-0.134704245
1764764292.0740843,-4.37962,0.9919,0.5341,-0.931699275,0.31896891,-0.134704245
1764764292.120897,-4.37962,0.9919,0.5341,-0.931699275,0.31896891,-0.134704245
1764764292.120897,-4.37962,0.9919,0.5341,-0.931699275,0.31896891,-0.134704245
1764764292.120897,-4.37962,0.9919,0.5341,-0.931699275,0.31896891,-0.134704245
1764764292.120897,-4.37962,0.9919,0.5341,-0.931699275,0.31896891,-0.134704245
1764764292.120897,-4.37962,0.9919,0.5341,-0.931699275,0.31896891,-0.134704245
1764764292.120897,-4.37962,0.9919,0.5341,-0.931699275,0.31896891,-0.134704245
1764764292.120897,-4.37962,0.9919,0.5341,-0.931699275,0.31896891,-0.134704245
1764764292.120897,-4.37962,0.9919,0.5341,-0.931699275,0.31896891,-0.134704245
1764764292.120897,-4.33384,0.9156,0.39676,-0.932431695,0.319029945,-0.13525356
1764764292.120897,-4.33384,0.9156,0.39676,-0.932431695,0.319029945,-0.13525356
1764764292.120897,-4.33384,0.9156,0.39676,-0.932431695,0.319029945,-0.13525356
1764764292.120897,-4.33384,0.9156,0.39676,-0.932431695,0.319029945,-0.13525356
1764764292.120897,-4.33384,0.9156,0.39676,-0.932431695,0.319029945,-0.13525356
1764764292.120897,-4.33384,0.9156,0.39676,-0.932431695,0.319029945,-0.13525356
1764764292.120897,-4.33384,0.9156,0.39676,-0.932431695,0.319029945,-0.13525356
1764764292.120897,-4.33384,0.9156,0.39676,-0.932431695,0.319029945,-0.13525356
1764764292.120897,-4.33384,0.9156,0.39676,-0.932431695,0.319029945,-0.13525356
1764764292.120897,-4.33384,0.9156,0.39676,-0.932431695,0.319029945,-0.13525356
1764764292.1650064,-4.60852,1.03768,0.27468,-0.931821345,0.317931315,-0.13500942
1764764292.1650064,-4.60852,1.03768,0.27468,-0.931821345,0.317931315,-0.13500942
1764764292.1650064,-4.60852,1.03768,0.27468,-0.931821345,0.317931315,-0.13500942
1764764292.1650064,-4.60852,1.03768,0.27468,-0.931821345,0.317931315,-0.13500942
1764764292.1650064,-4.60852,1.03768,0.27468,-0.931821345,0.317931315,-0.13500942
1764764292.1650064,-4.60852,1.03768,0.27468,-0.931821345,0.317931315,-0.13500942
1764764292.1650064,-4.60852,1.03768,0.27468,-0.931821345,0.317931315,-0.13500942
1764764292.1650064,-4.60852,1.03768,0.27468,-0.931821345,0.317931315,-0.13500942
1764764292.1650064,-4.60852,1.03768,0.27468,-0.931821345,0.317931315,-0.13500942
1764764292.1650064,-4.60852,1.03768,0.27468,-0.931821345,0.317931315,-0.13500942
1764764292.1650064,-4.1965,1.19028,0.18312,-0.93151617,0.31640544,-0.134582175
1764764292.1650064,-4.1965,1.19028,0.18312,-0.93151617,0.31640544,-0.134582175
1764764292.1650064,-4.1965,1.19028,0.18312,-0.93151617,0.31640544,-0.134582175
1764764292.1650064,-4.1965,1.19028,0.18312,-0.93151617,0.31640544,-0.134582175
1764764292.1650064,-4.1965,1.19028,0.18312,-0.93151617,0.31640544,-0.134582175
1764764292.1650064,-4.1965,1.19028,0.18312,-0.93151617,0.31640544,-0.134582175
1764764292.1650064,-4.1965,1.19028,0.18312,-0.93151617,0.31640544,-0.134582175
1764764292.1650064,-4.1965,1.19028,0.18312,-0.93151617,0.31640544,-0.134582175
1764764292.1650064,-4.1965,1.19028,0.18312,-0.93151617,0.31640544,-0.134582175
1764764292.1650064,-4.1965,1.19028,0.18312,-0.93151617,0.31640544,-0.134582175
1764764292.166015,-4.1965,1.23606,0.25942,-0.93090582,0.3161613,-0.13354458
1764764292.166015,-4.1965,1.23606,0.25942,-0.93090582,0.3161613,-0.13354458
1764764292.166015,-4.1965,1.23606,0.25942,-0.93090582,0.3161613,-0.13354458
1764764292.166015,-4.1965,1.23606,0.25942,-0.93090582,0.3161613,-0.13354458
1764764292.166015,-4.1965,1.23606,0.25942,-0.93090582,0.3161613,-0.13354458
1764764292.166015,-4.1965,1.23606,0.25942,-0.93090582,0.3161613,-0.13354458
1764764292.166015,-4.1965,1.23606,0.25942,-0.93090582,0.3161613,-0.13354458
1764764292.166015,-4.1965,1.23606,0.25942,-0.93090582,0.3161613,-0.13354458
1764764292.166015,-4.1965,1.23606,0.25942,-0.93090582,0.3161613,-0.13354458
1764764292.166015,-4.1965,1.23606,0.25942,-0.93090582,0.3161613,-0.13354458
1764764292.166015,-5.29522,1.12924,0.41202,-0.93041754,0.31762614,-0.133361475
1764764292.166015,-5.29522,1.12924,0.41202,-0.93041754,0.31762614,-0.133361475
1764764292.2130978,-5.29522,1.12924,0.41202,-0.93041754,0.31762614,-0.133361475
1764764292.2130978,-5.29522,1.12924,0.41202,-0.93041754,0.31762614,-0.133361475
1764764292.2130978,-5.29522,1.12924,0.41202,-0.93041754,0.31762614,-0.133361475
1764764292.2130978,-5.29522,1.12924,0.41202,-0.93041754,0.31762614,-0.133361475
1764764292.2130978,-5.29522,1.12924,0.41202,-0.93041754,0.31762614,-0.133361475
1764764292.2130978,-5.29522,1.12924,0.41202,-0.93041754,0.31762614,-0.133361475
1764764292.2130978,-5.29522,1.12924,0.41202,-0.93041754,0.31762614,-0.133361475
1764764292.2130978,-5.29522,1.12924,0.41202,-0.93041754,0.31762614,-0.133361475
1764764292.2130978,-5.17314,1.11398,0.9156,-0.931699275,0.31811442,-0.1330563
1764764292.2130978,-5.17314,1.11398,0.9156,-0.931699275,0.31811442,-0.1330563
1764764292.2130978,-5.17314,1.11398,0.9156,-0.931699275,0.31811442,-0.1330563
1764764292.2130978,-5.17314,1.11398,0.9156,-0.931699275,0.31811442,-0.1330563
1764764292.2130978,-5.17314,1.11398,0.9156,-0.931699275,0.31811442,-0.1330563
1764764292.2130978,-5.17314,1.11398,0.9156,-0.931699275,0.31811442,-0.1330563
1764764292.260403,-5.17314,1.11398,0.9156,-0.931699275,0.31811442,-0.1330563
1764764292.260403,-5.17314,1.11398,0.9156,-0.931699275,0.31811442,-0.1330563
1764764292.260403,-5.17314,1.11398,0.9156,-0.931699275,0.31811442,-0.1330563
1764764292.260403,-5.17314,1.11398,0.9156,-0.931699275,0.31811442,-0.1330563
1764764292.260403,-2.85362,0.18312,0.1525999999999999,-0.93151617,0.31530681,-0.13366665
1764764292.260403,-2.85362,0.18312,0.1525999999999999,-0.93151617,0.31530681,-0.13366665
1764764292.260403,-2.85362,0.18312,0.1525999999999999,-0.93151617,0.31530681,-0.13366665
1764764292.260403,-2.85362,0.18312,0.1525999999999999,-0.93151617,0.31530681,-0.13366665
1764764292.260403,-2.85362,0.18312,0.1525999999999999,-0.93151617,0.31530681,-0.13366665
1764764292.260403,-2.85362,0.18312,0.1525999999999999,-0.93151617,0.31530681,-0.13366665
1764764292.260403,-2.85362,0.18312,0.1525999999999999,-0.93151617,0.31530681,-0.13366665
1764764292.260403,-2.85362,0.18312,0.1525999999999999,-0.93151617,0.31530681,-0.13366665
1764764292.260403,-2.85362,0.18312,0.1525999999999999,-0.93151617,0.31530681,-0.13366665
1764764292.260403,-2.85362,0.18312,0.1525999999999999,-0.93151617,0.31530681,-0.13366665
1764764292.260403,-3.17408,0.93086,-0.44254,-0.929990295,0.315245775,-0.13500942
1764764292.260403,-3.17408,0.93086,-0.44254,-0.929990295,0.315245775,-0.13500942
1764764292.260403,-3.17408,0.93086,-0.44254,-0.929990295,0.315245775,-0.13500942
1764764292.260403,-3.17408,0.93086,-0.44254,-0.929990295,0.315245775,-0.13500942
1764764292.260403,-3.17408,0.93086,-0.44254,-0.929990295,0.315245775,-0.13500942
1764764292.260403,-3.17408,0.93086,-0.44254,-0.929990295,0.315245775,-0.13500942
1764764292.260403,-3.17408,0.93086,-0.44254,-0.929990295,0.315245775,-0.13500942
1764764292.260403,-3.17408,0.93086,-0.44254,-0.929990295,0.315245775,-0.13500942
1764764292.260403,-3.17408,0.93086,-0.44254,-0.929990295,0.315245775,-0.13500942
1764764292.260403,-3.17408,0.93086,-0.44254,-0.929990295,0.315245775,-0.13500942
1764764292.260403,-4.28806,1.0682,0.3051999999999999,-0.92944098,0.31823649,-0.13464321
1764764292.260403,-4.28806,1.0682,0.3051999999999999,-0.92944098,0.31823649,-0.13464321
1764764292.260403,-4.28806,1.0682,0.3051999999999999,-0.92944098,0.31823649,-0.13464321
1764764292.260403,-4.28806,1.0682,0.3051999999999999,-0.92944098,0.31823649,-0.13464321
1764764292.260403,-4.28806,1.0682,0.3051999999999999,-0.92944098,0.31823649,-0.13464321
1764764292.260403,-4.28806,1.0682,0.3051999999999999,-0.92944098,0.31823649,-0.13464321
1764764292.3085487,-4.28806,1.0682,0.3051999999999999,-0.92944098,0.31823649,-0.13464321
1764764292.3085487,-4.28806,1.0682,0.3051999999999999,-0.92944098,0.31823649,-0.13464321
1764764292.3085487,-4.28806,1.0682,0.3051999999999999,-0.92944098,0.31823649,-0.13464321
1764764292.3085487,-4.28806,1.0682,0.3051999999999999,-0.92944098,0.31823649,-0.13464321
1764764292.3085487,-5.1121,0.96138,1.2208,-0.93176031,0.322203765,-0.134338035
1764764292.3085487,-5.1121,0.96138,1.2208,-0.93176031,0.322203765,-0.134338035
1764764292.3085487,-5.1121,0.96138,1.2208,-0.93176031,0.322203765,-0.134338035
1764764292.3085487,-5.1121,0.96138,1.2208,-0.93176031,0.322203765,-0.134338035
1764764292.3085487,-5.1121,0.96138,1.2208,-0.93176031,0.322203765,-0.134338035
1764764292.3085487,-5.1121,0.96138,1.2208,-0.93176031,0.322203765,-0.134338035
1764764292.3085487,-5.1121,0.96138,1.2208,-0.93176031,0.322203765,-0.134338035
1764764292.3085487,-5.1121,0.96138,1.2208,-0.93176031,0.322203765,-0.134338035
1764764292.3085487,-5.1121,0.96138,1.2208,-0.93176031,0.322203765,-0.134338035
1764764292.3085487,-5.1121,0.96138,1.2208,-0.93176031,0.322203765,-0.134338035
1764764292.3085487,-3.76922,0.24416,0.77826,-0.93298101,0.32055582,-0.133971825
1764764292.3085487,-3.76922,0.24416,0.77826,-0.93298101,0.32055582,-0.133971825
1764764292.3085487,-3.76922,0.24416,0.77826,-0.93298101,0.32055582,-0.133971825
1764764292.3085487,-3.76922,0.24416,0.77826,-0.93298101,0.32055582,-0.133971825
1764764292.3085487,-3.76922,0.24416,0.77826,-0.93298101,0.32055582,-0.133971825
1764764292.3085487,-3.76922,0.24416,0.77826,-0.93298101,0.32055582,-0.133971825
1764764292.3085487,-3.76922,0.24416,0.77826,-0.93298101,0.32055582,-0.133971825
1764764292.3085487,-3.76922,0.24416,0.77826,-0.93298101,0.32055582,-0.133971825
1764764292.3085487,-3.76922,0.24416,0.77826,-0.93298101,0.32055582,-0.133971825
1764764292.3085487,-3.76922,0.24416,0.77826,-0.93298101,0.32055582,-0.133971825
1764764292.3548405,-3.41824,0.6714399999999999,0.85456,-0.93188238,0.316588545,-0.132873195
1764764292.3548405,-3.41824,0.6714399999999999,0.85456,-0.93188238,0.316588545,-0.132873195
1764764292.3548405,-3.41824,0.6714399999999999,0.85456,-0.93188238,0.316588545,-0.132873195
1764764292.3548405,-3.41824,0.6714399999999999,0.85456,-0.93188238,0.316588545,-0.132873195
1764764292.3548405,-3.41824,0.6714399999999999,0.85456,-0.93188238,0.316588545,-0.132873195
1764764292.3548405,-3.41824,0.6714399999999999,0.85456,-0.93188238,0.316588545,-0.132873195
1764764292.3548405,-3.41824,0.6714399999999999,0.85456,-0.93188238,0.316588545,-0.132873195
1764764292.3548405,-3.41824,0.6714399999999999,0.85456,-0.93188238,0.316588545,-0.132873195
1764764292.3548405,-3.41824,0.6714399999999999,0.85456,-0.93188238,0.316588545,-0.132873195
1764764292.3548405,-3.41824,0.6714399999999999,0.85456,-0.93188238,0.316588545,-0.132873195
1764764292.3548405,-2.73154,0.93086,0.6103999999999999,-0.929624085,0.31506267,-0.132384915
1764764292.3548405,-2.73154,0.93086,0.6103999999999999,-0.929624085,0.31506267,-0.132384915
1764764292.3548405,-2.73154,0.93086,0.6103999999999999,-0.929624085,0.31506267,-0.132384915
1764764292.3548405,-2.73154,0.93086,0.6103999999999999,-0.929624085,0.31506267,-0.132384915
1764764292.3548405,-2.73154,0.93086,0.6103999999999999,-0.929624085,0.31506267,-0.132384915
1764764292.3548405,-2.73154,0.93086,0.6103999999999999,-0.929624085,0.31506267,-0.132384915
1764764292.3548405,-2.73154,0.93086,0.6103999999999999,-0.929624085,0.31506267,-0.132384915
1764764292.3548405,-2.73154,0.93086,0.6103999999999999,-0.929624085,0.31506267,-0.132384915
1764764292.3548405,-2.73154,0.93086,0.6103999999999999,-0.929624085,0.31506267,-0.132384915
1764764292.3548405,-2.73154,0.93086,0.6103999999999999,-0.929624085,0.31506267,-0.132384915
1764764292.35586,-2.6705,1.6022999999999998,0.42728,-0.92907477,0.31579509,-0.132140775
1764764292.35586,-2.6705,1.6022999999999998,0.42728,-0.92907477,0.31579509,-0.132140775
1764764292.35586,-2.6705,1.6022999999999998,0.42728,-0.92907477,0.31579509,-0.132140775
1764764292.35586,-2.6705,1.6022999999999998,0.42728,-0.92907477,0.31579509,-0.132140775
1764764292.3981254,-2.6705,1.6022999999999998,0.42728,-0.92907477,0.31579509,-0.132140775
1764764292.3981254,-2.6705,1.6022999999999998,0.42728,-0.92907477,0.31579509,-0.132140775
1764764292.3981254,-2.6705,1.6022999999999998,0.42728,-0.92907477,0.31579509,-0.132140775
1764764292.3981254,-2.6705,1.6022999999999998,0.42728,-0.92907477,0.31579509,-0.132140775
1764764292.3981254,-2.6705,1.6022999999999998,0.42728,-0.92907477,0.31579509,-0.132140775
1764764292.3981254,-2.6705,1.6022999999999998,0.42728,-0.92907477,0.31579509,-0.132140775
1764764292.3981254,-3.09778,1.72438,0.19838,-0.930234435,0.316954755,-0.132384915
1764764292.3981254,-3.09778,1.72438,0.19838,-0.930234435,0.316954755,-0.132384915
1764764292.3981254,-3.09778,1.72438,0.19838,-0.930234435,0.316954755,-0.132384915
1764764292.3981254,-3.09778,1.72438,0.19838,-0.930234435,0.316954755,-0.132384915
1764764292.3981254,-3.09778,1.72438,0.19838,-0.930234435,0.316954755,-0.132384915
1764764292.3981254,-3.09778,1.72438,0.19838,-0.930234435,0.316954755,-0.132384915
1764764292.3986397,-3.09778,1.72438,0.19838,-0.930234435,0.316954755,-0.132384915
1764764292.3986397,-3.09778,1.72438,0.19838,-0.930234435,0.316954755,-0.132384915
1764764292.3986397,-3.09778,1.72438,0.19838,-0.930234435,0.316954755,-0.132384915
1764764292.3986397,-3.09778,1.72438,0.19838,-0.930234435,0.316954755,-0.132384915
1764764292.3986397,-3.26564,1.41918,0.10682,-0.93127203,0.318053385,-0.13281216
1764764292.3986397,-3.26564,1.41918,0.10682,-0.93127203,0.318053385,-0.13281216
1764764292.3986397,-3.26564,1.41918,0.10682,-0.93127203,0.318053385,-0.13281216
1764764292.3986397,-3.26564,1.41918,0.10682,-0.93127203,0.318053385,-0.13281216
1764764292.3986397,-3.26564,1.41918,0.10682,-0.93127203,0.318053385,-0.13281216
1764764292.3986397,-3.26564,1.41918,0.10682,-0.93127203,0.318053385,-0.13281216
1764764292.3986397,-3.26564,1.41918,0.10682,-0.93127203,0.318053385,-0.13281216
1764764292.3986397,-3.26564,1.41918,0.10682,-0.93127203,0.318053385,-0.13281216
1764764292.4476893,-3.26564,1.41918,0.10682,-0.93127203,0.318053385,-0.13281216
1764764292.4476893,-3.26564,1.41918,0.10682,-0.93127203,0.318053385,-0.13281216
1764764292.4476893,-3.15882,1.26658,0.18312,-0.931943415,0.31909098,-0.134093895
1764764292.4476893,-3.15882,1.26658,0.18312,-0.931943415,0.31909098,-0.134093895
1764764292.4476893,-3.15882,1.26658,0.18312,-0.931943415,0.31909098,-0.134093895
1764764292.4476893,-3.15882,1.26658,0.18312,-0.931943415,0.31909098,-0.134093895
1764764292.4476893,-3.15882,1.26658,0.18312,-0.931943415,0.31909098,-0.134093895
1764764292.4476893,-3.15882,1.26658,0.18312,-0.931943415,0.31909098,-0.134093895
1764764292.4476893,-3.15882,1.26658,0.18312,-0.931943415,0.31909098,-0.134093895
1764764292.4476893,-3.15882,1.26658,0.18312,-0.931943415,0.31909098,-0.134093895
1764764292.4476893,-3.15882,1.26658,0.18312,-0.931943415,0.31909098,-0.134093895
1764764292.4476893,-3.15882,1.26658,0.18312,-0.931943415,0.31909098,-0.134093895
1764764292.4476893,-2.77732,1.41918,0.6103999999999999,-0.932309625,0.318907875,-0.1354977
1764764292.4476893,-2.77732,1.41918,0.6103999999999999,-0.932309625,0.318907875,-0.1354977
1764764292.4476893,-2.77732,1.41918,0.6103999999999999,-0.932309625,0.318907875,-0.1354977
1764764292.4476893,-2.77732,1.41918,0.6103999999999999,-0.932309625,0.318907875,-0.1354977
1764764292.4476893,-2.77732,1.41918,0.6103999999999999,-0.932309625,0.318907875,-0.1354977
1764764292.4476893,-2.77732,1.41918,0.6103999999999999,-0.932309625,0.318907875,-0.1354977
1764764292.4476893,-2.77732,1.41918,0.6103999999999999,-0.932309625,0.318907875,-0.1354977
1764764292.4476893,-2.77732,1.41918,0.6103999999999999,-0.932309625,0.318907875,-0.1354977
1764764292.4476893,-2.77732,1.41918,0.6103999999999999,-0.932309625,0.318907875,-0.1354977
1764764292.4476893,-2.77732,1.41918,0.6103999999999999,-0.932309625,0.318907875,-0.1354977
1764764292.4476893,-2.73154,1.63282,0.1525999999999999,-0.93029547,0.318175455,-0.136169085
1764764292.4476893,-2.73154,1.63282,0.1525999999999999,-0.93029547,0.318175455,-0.136169085
1764764292.4915514,-2.73154,1.63282,0.1525999999999999,-0.93029547,0.318175455,-0.136169085
1764764292.4915514,-2.73154,1.63282,0.1525999999999999,-0.93029547,0.318175455,-0.136169085
1764764292.4915514,-2.73154,1.63282,0.1525999999999999,-0.93029547,0.318175455,-0.136169085
1764764292.4915514,-2.73154,1.63282,0.1525999999999999,-0.93029547,0.318175455,-0.136169085
1764764292.4915514,-2.73154,1.63282,0.1525999999999999,-0.93029547,0.318175455,-0.136169085
1764764292.4915514,-2.73154,1.63282,0.1525999999999999,-0.93029547,0.318175455,-0.136169085
1764764292.4915514,-2.73154,1.63282,0.1525999999999999,-0.93029547,0.318175455,-0.136169085
1764764292.4915514,-2.73154,1.63282,0.1525999999999999,-0.93029547,0.318175455,-0.136169085
1764764292.4915514,-3.09778,1.63282,0.4578,-0.93066168,0.31750407,-0.134948385
1764764292.4915514,-3.09778,1.63282,0.4578,-0.93066168,0.31750407,-0.134948385
1764764292.4920628,-3.09778,1.63282,0.4578,-0.93066168,0.31750407,-0.134948385
1764764292.4920628,-3.09778,1.63282,0.4578,-0.93066168,0.31750407,-0.134948385
1764764292.4920628,-3.09778,1.63282,0.4578,-0.93066168,0.31750407,-0.134948385
1764764292.4920628,-3.09778,1.63282,0.4578,-0.93066168,0.31750407,-0.134948385
1764764292.4920628,-3.09778,1.63282,0.4578,-0.93066168,0.31750407,-0.134948385
1764764292.4920628,-3.09778,1.63282,0.4578,-0.93066168,0.31750407,-0.134948385
1764764292.4920628,-3.09778,1.63282,0.4578,-0.93066168,0.31750407,-0.134948385
1764764292.4920628,-3.09778,1.63282,0.4578,-0.93066168,0.31750407,-0.134948385
1764764292.4920628,-2.35004,1.25132,0.74774,-0.932187555,0.317687175,-0.133971825
1764764292.4920628,-2.35004,1.25132,0.74774,-0.932187555,0.317687175,-0.133971825
1764764292.4920628,-2.35004,1.25132,0.74774,-0.932187555,0.317687175,-0.133971825
1764764292.4920628,-2.35004,1.25132,0.74774,-0.932187555,0.317687175,-0.133971825
1764764292.537876,-2.35004,1.25132,0.74774,-0.932187555,0.317687175,-0.133971825
1764764292.537876,-2.35004,1.25132,0.74774,-0.932187555,0.317687175,-0.133971825
1764764292.537876,-2.35004,1.25132,0.74774,-0.932187555,0.317687175,-0.133971825
1764764292.537876,-2.35004,1.25132,0.74774,-0.932187555,0.317687175,-0.133971825
1764764292.537876,-2.35004,1.25132,0.74774,-0.932187555,0.317687175,-0.133971825
1764764292.537876,-2.35004,1.25132,0.74774,-0.932187555,0.317687175,-0.133971825
1764764292.537876,-2.27374,1.15976,0.13734,-0.931577205,0.31689372,-0.133605615
1764764292.537876,-2.27374,1.15976,0.13734,-0.931577205,0.31689372,-0.133605615
1764764292.537876,-2.27374,1.15976,0.13734,-0.931577205,0.31689372,-0.133605615
1764764292.537876,-2.27374,1.15976,0.13734,-0.931577205,0.31689372,-0.133605615
1764764292.537876,-2.27374,1.15976,0.13734,-0.931577205,0.31689372,-0.133605615
1764764292.537876,-2.27374,1.15976,0.13734,-0.931577205,0.31689372,-0.133605615
1764764292.537876,-2.27374,1.15976,0.13734,-0.931577205,0.31689372,-0.133605615
1764764292.537876,-2.27374,1.15976,0.13734,-0.931577205,0.31689372,-0.133605615
1764764292.537876,-2.27374,1.15976,0.13734,-0.931577205,0.31689372,-0.133605615
1764764292.537876,-2.27374,1.15976,0.13734,-0.931577205,0.31689372,-0.133605615
1764764292.537876,-1.38866,1.31236,0.3509799999999999,-0.9301734,0.3149406,-0.13317837
1764764292.537876,-1.38866,1.31236,0.3509799999999999,-0.9301734,0.3149406,-0.13317837
1764764292.537876,-1.38866,1.31236,0.3509799999999999,-0.9301734,0.3149406,-0.13317837
1764764292.537876,-1.38866,1.31236,0.3509799999999999,-0.9301734,0.3149406,-0.13317837
1764764292.537876,-1.38866,1.31236,0.3509799999999999,-0.9301734,0.3149406,-0.13317837
1764764292.537876,-1.38866,1.31236,0.3509799999999999,-0.9301734,0.3149406,-0.13317837
1764764292.537876,-1.38866,1.31236,0.3509799999999999,-0.9301734,0.3149406,-0.13317837
1764764292.537876,-1.38866,1.31236,0.3509799999999999,-0.9301734,0.3149406,-0.13317837
1764764292.5848343,-1.38866,1.31236,0.3509799999999999,-0.9301734,0.3149406,-0.13317837
1764764292.5848343,-1.38866,1.31236,0.3509799999999999,-0.9301734,0.3149406,-0.13317837
1764764292.5848343,-1.2971,1.02242,-0.25942,-0.929990295,0.31384197,-0.134338035
1764764292.5848343,-1.2971,1.02242,-0.25942,-0.929990295,0.31384197,-0.134338035
1764764292.5848343,-1.2971,1.02242,-0.25942,-0.929990295,0.31384197,-0.134338035
1764764292.5848343,-1.2971,1.02242,-0.25942,-0.929990295,0.31384197,-0.134338035
1764764292.5848343,-1.2971,1.02242,-0.25942,-0.929990295,0.31384197,-0.134338035
1764764292.5848343,-1.2971,1.02242,-0.25942,-0.929990295,0.31384197,-0.134338035
1764764292.5848343,-1.2971,1.02242,-0.25942,-0.929990295,0.31384197,-0.134338035
1764764292.5848343,-1.2971,1.02242,-0.25942,-0.929990295,0.31384197,-0.134338035
1764764292.5848343,-1.2971,1.02242,-0.25942,-0.929990295,0.31384197,-0.134338035
1764764292.5848343,-1.2971,1.02242,-0.25942,-0.929990295,0.31384197,-0.134338035
1764764292.5853405,-1.99906,1.35814,-0.04578,-0.929868225,0.3149406,-0.13476528
1764764292.5853405,-1.99906,1.35814,-0.04578,-0.929868225,0.3149406,-0.13476528
1764764292.5853405,-1.99906,1.35814,-0.04578,-0.929868225,0.3149406,-0.13476528
1764764292.5853405,-1.99906,1.35814,-0.04578,-0.929868225,0.3149406,-0.13476528
1764764292.5853405,-1.99906,1.35814,-0.04578,-0.929868225,0.3149406,-0.13476528
1764764292.5853405,-1.99906,1.35814,-0.04578,-0.929868225,0.3149406,-0.13476528
1764764292.5853405,-1.99906,1.35814,-0.04578,-0.929868225,0.3149406,-0.13476528
1764764292.5853405,-1.99906,1.35814,-0.04578,-0.929868225,0.3149406,-0.13476528
1764764292.5853405,-1.99906,1.35814,-0.04578,-0.929868225,0.3149406,-0.13476528
1764764292.5853405,-1.99906,1.35814,-0.04578,-0.929868225,0.3149406,-0.13476528
1764764292.5853405,-2.63998,1.23606,0.19838,-0.93102789,0.31774821,-0.136535295
1764764292.5853405,-2.63998,1.23606,0.19838,-0.93102789,0.31774821,-0.136535295
1764764292.6316204,-2.63998,1.23606,0.19838,-0.93102789,0.31774821,-0.136535295
1764764292.6316204,-2.63998,1.23606,0.19838,-0.93102789,0.31774821,-0.136535295
1764764292.6316204,-2.63998,1.23606,0.19838,-0.93102789,0.31774821,-0.136535295
1764764292.6316204,-2.63998,1.23606,0.19838,-0.93102789,0.31774821,-0.136535295
1764764292.6316204,-2.63998,1.23606,0.19838,-0.93102789,0.31774821,-0.136535295
1764764292.6316204,-2.63998,1.23606,0.19838,-0.93102789,0.31774821,-0.136535295
1764764292.6316204,-2.63998,1.23606,0.19838,-0.93102789,0.31774821,-0.136535295
1764764292.6316204,-2.63998,1.23606,0.19838,-0.93102789,0.31774821,-0.136535295
1764764292.6316204,-2.80784,1.0682,-0.2289,-0.93151617,0.31957926,-0.136535295
1764764292.6316204,-2.80784,1.0682,-0.2289,-0.93151617,0.31957926,-0.136535295
1764764292.6316204,-2.80784,1.0682,-0.2289,-0.93151617,0.31957926,-0.136535295
1764764292.6316204,-2.80784,1.0682,-0.2289,-0.93151617,0.31957926,-0.136535295
1764764292.6316204,-2.80784,1.0682,-0.2289,-0.93151617,0.31957926,-0.136535295
1764764292.6316204,-2.80784,1.0682,-0.2289,-0.93151617,0.31957926,-0.136535295
1764764292.6316204,-2.80784,1.0682,-0.2289,-0.93151617,0.31957926,-0.136535295
1764764292.6316204,-2.80784,1.0682,-0.2289,-0.93151617,0.31957926,-0.136535295
1764764292.6316204,-2.80784,1.0682,-0.2289,-0.93151617,0.31957926,-0.136535295
1764764292.6316204,-2.80784,1.0682,-0.2289,-0.93151617,0.31957926,-0.136535295
1764764292.6316204,-3.08252,1.32762,0.06104,-0.93176031,0.319396155,-0.136901505
1764764292.6316204,-3.08252,1.32762,0.06104,-0.93176031,0.319396155,-0.136901505
1764764292.6321323,-3.08252,1.32762,0.06104,-0.93176031,0.319396155,-0.136901505
1764764292.6321323,-3.08252,1.32762,0.06104,-0.93176031,0.319396155,-0.136901505
1764764292.678735,-3.08252,1.32762,0.06104,-0.93176031,0.319396155,-0.136901505
1764764292.678735,-3.08252,1.32762,0.06104,-0.93176031,0.319396155,-0.136901505
1764764292.678735,-3.08252,1.32762,0.06104,-0.93176031,0.319396155,-0.136901505
1764764292.678735,-3.08252,1.32762,0.06104,-0.93176031,0.319396155,-0.136901505
1764764292.678735,-3.08252,1.32762,0.06104,-0.93176031,0.319396155,-0.136901505
1764764292.678735,-3.08252,1.32762,0.06104,-0.93176031,0.319396155,-0.136901505
1764764292.678735,-3.08252,1.12924,0.3051999999999999,-0.931577205,0.31811442,-0.136535295
1764764292.678735,-3.08252,1.12924,0.3051999999999999,-0.931577205,0.31811442,-0.136535295
1764764292.678735,-3.08252,1.12924,0.3051999999999999,-0.931577205,0.31811442,-0.136535295
1764764292.678735,-3.08252,1.12924,0.3051999999999999,-0.931577205,0.31811442,-0.136535295
1764764292.678735,-3.08252,1.12924,0.3051999999999999,-0.931577205,0.31811442,-0.136535295
1764764292.678735,-3.08252,1.12924,0.3051999999999999,-0.931577205,0.31811442,-0.136535295
1764764292.678735,-3.08252,1.12924,0.3051999999999999,-0.931577205,0.31811442,-0.136535295
1764764292.678735,-3.08252,1.12924,0.3051999999999999,-0.931577205,0.31811442,-0.136535295
1764764292.678735,-3.08252,1.12924,0.3051999999999999,-0.931577205,0.31811442,-0.136535295
1764764292.678735,-3.08252,1.12924,0.3051999999999999,-0.931577205,0.31811442,-0.136535295
1764764292.678735,-3.02148,0.763,-0.1525999999999999,-0.930844785,0.316344405,-0.13610805
1764764292.678735,-3.02148,0.763,-0.1525999999999999,-0.930844785,0.316344405,-0.13610805
1764764292.6797438,-3.02148,0.763,-0.1525999999999999,-0.930844785,0.316344405,-0.13610805
1764764292.6797438,-3.02148,0.763,-0.1525999999999999,-0.930844785,0.316344405,-0.13610805
1764764292.6797438,-3.02148,0.763,-0.1525999999999999,-0.930844785,0.316344405,-0.13610805
1764764292.6797438,-3.02148,0.763,-0.1525999999999999,-0.930844785,0.316344405,-0.13610805
1764764292.6797438,-3.02148,0.763,-0.1525999999999999,-0.930844785,0.316344405,-0.13610805
1764764292.6797438,-3.02148,0.763,-0.1525999999999999,-0.930844785,0.316344405,-0.13610805
1764764292.7264516,-3.02148,0.763,-0.1525999999999999,-0.930844785,0.316344405,-0.13610805
1764764292.7264516,-3.02148,0.763,-0.1525999999999999,-0.930844785,0.316344405,-0.13610805
1764764292.7264516,-2.07536,1.03768,-0.3815,-0.93029547,0.314513355,-0.13525356
1764764292.7264516,-2.07536,1.03768,-0.3815,-0.93029547,0.314513355,-0.13525356
1764764292.7264516,-2.07536,1.03768,-0.3815,-0.93029547,0.314513355,-0.13525356
1764764292.7264516,-2.07536,1.03768,-0.3815,-0.93029547,0.314513355,-0.13525356
1764764292.72696,-2.07536,1.03768,-0.3815,-0.93029547,0.314513355,-0.13525356
1764764292.72696,-2.07536,1.03768,-0.3815,-0.93029547,0.314513355,-0.13525356
1764764292.72696,-2.07536,1.03768,-0.3815,-0.93029547,0.314513355,-0.13525356
1764764292.72696,-2.07536,1.03768,-0.3815,-0.93029547,0.314513355,-0.13525356
1764764292.72696,-2.07536,1.03768,-0.3815,-0.93029547,0.314513355,-0.13525356
1764764292.72696,-2.07536,1.03768,-0.3815,-0.93029547,0.314513355,-0.13525356
1764764292.72696,-2.68576,0.8698199999999999,-0.62566,-0.930600645,0.31555095,-0.13488735
1764764292.72696,-2.68576,0.8698199999999999,-0.62566,-0.930600645,0.31555095,-0.13488735
1764764292.7281113,-2.68576,0.8698199999999999,-0.62566,-0.930600645,0.31555095,-0.13488735
1764764292.7281113,-2.68576,0.8698199999999999,-0.62566,-0.930600645,0.31555095,-0.13488735
1764764292.7281113,-2.68576,0.8698199999999999,-0.62566,-0.930600645,0.31555095,-0.13488735
1764764292.7281113,-2.68576,0.8698199999999999,-0.62566,-0.930600645,0.31555095,-0.13488735
1764764292.7281113,-2.68576,0.8698199999999999,-0.62566,-0.930600645,0.31555095,-0.13488735
1764764292.7281113,-2.68576,0.8698199999999999,-0.62566,-0.930600645,0.31555095,-0.13488735
1764764292.7281113,-2.68576,0.8698199999999999,-0.62566,-0.930600645,0.31555095,-0.13488735
1764764292.7281113,-2.68576,0.8698199999999999,-0.62566,-0.930600645,0.31555095,-0.13488735
1764764292.7722604,-3.31142,0.79352,0.09156,-0.93151617,0.317198895,-0.13452114
1764764292.7722604,-3.31142,0.79352,0.09156,-0.93151617,0.317198895,-0.13452114
1764764292.7722604,-3.31142,0.79352,0.09156,-0.93151617,0.317198895,-0.13452114
1764764292.7722604,-3.31142,0.79352,0.09156,-0.93151617,0.317198895,-0.13452114
1764764292.7722604,-3.31142,0.79352,0.09156,-0.93151617,0.317198895,-0.13452114
1764764292.7722604,-3.31142,0.79352,0.09156,-0.93151617,0.317198895,-0.13452114
1764764292.7722604,-3.31142,0.79352,0.09156,-0.93151617,0.317198895,-0.13452114
1764764292.7722604,-3.31142,0.79352,0.09156,-0.93151617,0.317198895,-0.13452114
1764764292.7722604,-3.31142,0.79352,0.09156,-0.93151617,0.317198895,-0.13452114
1764764292.7722604,-3.31142,0.79352,0.09156,-0.93151617,0.317198895,-0.13452114
1764764292.7722604,-2.5942,0.1525999999999999,-0.54936,-0.932065485,0.31677165,-0.13586391
1764764292.7722604,-2.5942,0.1525999999999999,-0.54936,-0.932065485,0.31677165,-0.13586391
1764764292.7722604,-2.5942,0.1525999999999999,-0.54936,-0.932065485,0.31677165,-0.13586391
1764764292.7722604,-2.5942,0.1525999999999999,-0.54936,-0.932065485,0.31677165,-0.13586391
1764764292.7722604,-2.5942,0.1525999999999999,-0.54936,-0.932065485,0.31677165,-0.13586391
1764764292.7722604,-2.5942,0.1525999999999999,-0.54936,-0.932065485,0.31677165,-0.13586391
1764764292.7722604,-2.5942,0.1525999999999999,-0.54936,-0.932065485,0.31677165,-0.13586391
1764764292.7722604,-2.5942,0.1525999999999999,-0.54936,-0.932065485,0.31677165,-0.13586391
1764764292.7722604,-2.5942,0.1525999999999999,-0.54936,-0.932065485,0.31677165,-0.13586391
1764764292.7722604,-2.5942,0.1525999999999999,-0.54936,-0.932065485,0.31677165,-0.13586391
1764764292.7722604,-2.86888,0.44254,-0.94612,-0.930966855,0.315123705,-0.136657365
1764764292.7722604,-2.86888,0.44254,-0.94612,-0.930966855,0.315123705,-0.136657365
1764764292.7722604,-2.86888,0.44254,-0.94612,-0.930966855,0.315123705,-0.136657365
1764764292.7722604,-2.86888,0.44254,-0.94612,-0.930966855,0.315123705,-0.136657365
1764764292.8193548,-2.86888,0.44254,-0.94612,-0.930966855,0.315123705,-0.136657365
1764764292.8193548,-2.86888,0.44254,-0.94612,-0.930966855,0.315123705,-0.136657365
1764764292.8193548,-2.86888,0.44254,-0.94612,-0.930966855,0.315123705,-0.136657365
1764764292.8193548,-2.86888,0.44254,-0.94612,-0.930966855,0.315123705,-0.136657365
1764764292.8193548,-2.86888,0.44254,-0.94612,-0.930966855,0.315123705,-0.136657365
1764764292.8193548,-2.86888,0.44254,-0.94612,-0.930966855,0.315123705,-0.136657365
1764764292.8193548,-4.01338,0.09156,-0.4578,-0.930478575,0.315123705,-0.136657365
1764764292.8193548,-4.01338,0.09156,-0.4578,-0.930478575,0.315123705,-0.136657365
1764764292.8198636,-4.01338,0.09156,-0.4578,-0.930478575,0.315123705,-0.136657365
1764764292.8198636,-4.01338,0.09156,-0.4578,-0.930478575,0.315123705,-0.136657365
1764764292.8198636,-4.01338,0.09156,-0.4578,-0.930478575,0.315123705,-0.136657365
1764764292.8198636,-4.01338,0.09156,-0.4578,-0.930478575,0.315123705,-0.136657365
1764764292.8198636,-4.01338,0.09156,-0.4578,-0.930478575,0.315123705,-0.136657365
1764764292.8198636,-4.01338,0.09156,-0.4578,-0.930478575,0.315123705,-0.136657365
1764764292.8198636,-4.01338,0.09156,-0.4578,-0.930478575,0.315123705,-0.136657365
1764764292.8198636,-4.01338,0.09156,-0.4578,-0.930478575,0.315123705,-0.136657365
1764764292.8198636,-4.440659999999999,0.2289,0.5341,-0.93237066,0.316954755,-0.13757289
1764764292.8198636,-4.440659999999999,0.2289,0.5341,-0.93237066,0.316954755,-0.13757289
1764764292.8198636,-4.440659999999999,0.2289,0.5341,-0.93237066,0.316954755,-0.13757289
1764764292.8198636,-4.440659999999999,0.2289,0.5341,-0.93237066,0.316954755,-0.13757289
1764764292.8198636,-4.440659999999999,0.2289,0.5341,-0.93237066,0.316954755,-0.13757289
1764764292.8198636,-4.440659999999999,0.2289,0.5341,-0.93237066,0.316954755,-0.13757289
1764764292.8198636,-4.440659999999999,0.2289,0.5341,-0.93237066,0.316954755,-0.13757289
1764764292.8198636,-4.440659999999999,0.2289,0.5341,-0.93237066,0.316954755,-0.13757289
1764764292.8659012,-4.440659999999999,0.2289,0.5341,-0.93237066,0.316954755,-0.13757289
1764764292.8659012,-4.440659999999999,0.2289,0.5341,-0.93237066,0.316954755,-0.13757289
1764764292.8659012,-1.78542,0.48832,0.1525999999999999,-0.93407964,0.315001635,-0.137755995
1764764292.8659012,-1.78542,0.48832,0.1525999999999999,-0.93407964,0.315001635,-0.137755995
1764764292.8659012,-1.78542,0.48832,0.1525999999999999,-0.93407964,0.315001635,-0.137755995
1764764292.8659012,-1.78542,0.48832,0.1525999999999999,-0.93407964,0.315001635,-0.137755995
1764764292.8659012,-1.78542,0.48832,0.1525999999999999,-0.93407964,0.315001635,-0.137755995
1764764292.8659012,-1.78542,0.48832,0.1525999999999999,-0.93407964,0.315001635,-0.137755995
1764764292.8659012,-1.78542,0.48832,0.1525999999999999,-0.93407964,0.315001635,-0.137755995
1764764292.8659012,-1.78542,0.48832,0.1525999999999999,-0.93407964,0.315001635,-0.137755995
1764764292.8659012,-1.78542,0.48832,0.1525999999999999,-0.93407964,0.315001635,-0.137755995
1764764292.8659012,-1.78542,0.48832,0.1525999999999999,-0.93407964,0.315001635,-0.137755995
1764764292.8659012,0.18312,0.13734,0.09156,-0.93456792,0.311827815,-0.13513149
1764764292.8659012,0.18312,0.13734,0.09156,-0.93456792,0.311827815,-0.13513149
1764764292.8659012,0.18312,0.13734,0.09156,-0.93456792,0.311827815,-0.13513149
1764764292.8659012,0.18312,0.13734,0.09156,-0.93456792,0.311827815,-0.13513149
1764764292.8659012,0.18312,0.13734,0.09156,-0.93456792,0.311827815,-0.13513149
1764764292.8659012,0.18312,0.13734,0.09156,-0.93456792,0.311827815,-0.13513149
1764764292.8659012,0.18312,0.13734,0.09156,-0.93456792,0.311827815,-0.13513149
1764764292.8659012,0.18312,0.13734,0.09156,-0.93456792,0.311827815,-0.13513149
1764764292.8659012,0.18312,0.13734,0.09156,-0.93456792,0.311827815,-0.13513149
1764764292.8659012,0.18312,0.13734,0.09156,-0.93456792,0.311827815,-0.13513149
1764764292.9120784,-0.65618,0.10682,0.06104,-0.933042045,0.311705745,-0.13452114
1764764292.9120784,-0.65618,0.10682,0.06104,-0.933042045,0.311705745,-0.13452114
1764764292.9120784,-0.65618,0.10682,0.06104,-0.933042045,0.311705745,-0.13452114
1764764292.9120784,-0.65618,0.10682,0.06104,-0.933042045,0.311705745,-0.13452114
1764764292.9120784,-0.65618,0.10682,0.06104,-0.933042045,0.311705745,-0.13452114
1764764292.9120784,-0.65618,0.10682,0.06104,-0.933042045,0.311705745,-0.13452114
1764764292.9120784,-0.65618,0.10682,0.06104,-0.933042045,0.311705745,-0.13452114
1764764292.9120784,-0.65618,0.10682,0.06104,-0.933042045,0.311705745,-0.13452114
1764764292.9120784,-0.65618,0.10682,0.06104,-0.933042045,0.311705745,-0.13452114
1764764292.9120784,-0.65618,0.10682,0.06104,-0.933042045,0.311705745,-0.13452114
1764764292.9120784,-2.79258,0.9156,-0.12208,-0.93090582,0.313536795,-0.13610805
1764764292.9120784,-2.79258,0.9156,-0.12208,-0.93090582,0.313536795,-0.13610805
1764764292.9120784,-2.79258,0.9156,-0.12208,-0.93090582,0.313536795,-0.13610805
1764764292.9120784,-2.79258,0.9156,-0.12208,-0.93090582,0.313536795,-0.13610805
1764764292.9120784,-2.79258,0.9156,-0.12208,-0.93090582,0.313536795,-0.13610805
1764764292.9120784,-2.79258,0.9156,-0.12208,-0.93090582,0.313536795,-0.13610805
1764764292.9120784,-2.79258,0.9156,-0.12208,-0.93090582,0.313536795,-0.13610805
1764764292.9120784,-2.79258,0.9156,-0.12208,-0.93090582,0.313536795,-0.13610805
1764764292.9120784,-2.79258,0.9156,-0.12208,-0.93090582,0.313536795,-0.13610805
1764764292.9120784,-2.79258,0.9156,-0.12208,-0.93090582,0.313536795,-0.13610805
1764764292.9120784,-4.08968,1.89224,0.25942,-0.928647525,0.316100265,-0.136413225
1764764292.9120784,-4.08968,1.89224,0.25942,-0.928647525,0.316100265,-0.136413225
1764764292.9120784,-4.08968,1.89224,0.25942,-0.928647525,0.316100265,-0.136413225
1764764292.9120784,-4.08968,1.89224,0.25942,-0.928647525,0.316100265,-0.136413225
1764764292.958455,-4.08968,1.89224,0.25942,-0.928647525,0.316100265,-0.136413225
1764764292.958455,-4.08968,1.89224,0.25942,-0.928647525,0.316100265,-0.136413225
1764764292.958455,-4.08968,1.89224,0.25942,-0.928647525,0.316100265,-0.136413225
1764764292.958455,-4.08968,1.89224,0.25942,-0.928647525,0.316100265,-0.136413225
1764764292.958455,-4.08968,1.89224,0.25942,-0.928647525,0.316100265,-0.136413225
1764764292.958455,-4.08968,1.89224,0.25942,-0.928647525,0.316100265,-0.136413225
1764764292.958455,-3.26564,2.25848,0.54936,-0.928403385,0.31579509,-0.136413225
1764764292.958455,-3.26564,2.25848,0.54936,-0.928403385,0.31579509,-0.136413225
1764764292.958455,-3.26564,2.25848,0.54936,-0.928403385,0.31579509,-0.136413225
1764764292.958455,-3.26564,2.25848,0.54936,-0.928403385,0.31579509,-0.136413225
1764764292.958455,-3.26564,2.25848,0.54936,-0.928403385,0.31579509,-0.136413225
1764764292.958455,-3.26564,2.25848,0.54936,-0.928403385,0.31579509,-0.136413225
1764764292.958455,-3.26564,2.25848,0.54936,-0.928403385,0.31579509,-0.136413225
1764764292.958455,-3.26564,2.25848,0.54936,-0.928403385,0.31579509,-0.136413225
1764764292.958455,-3.26564,2.25848,0.54936,-0.928403385,0.31579509,-0.136413225
1764764292.958455,-3.26564,2.25848,0.54936,-0.928403385,0.31579509,-0.136413225
1764764292.958455,-3.98286,1.6022999999999998,0.3051999999999999,-0.93053961,0.31579509,-0.13610805
1764764292.958455,-3.98286,1.6022999999999998,0.3051999999999999,-0.93053961,0.31579509,-0.13610805
1764764292.958455,-3.98286,1.6022999999999998,0.3051999999999999,-0.93053961,0.31579509,-0.13610805
1764764292.958455,-3.98286,1.6022999999999998,0.3051999999999999,-0.93053961,0.31579509,-0.13610805
1764764292.958455,-3.98286,1.6022999999999998,0.3051999999999999,-0.93053961,0.31579509,-0.13610805
1764764292.958455,-3.98286,1.6022999999999998,0.3051999999999999,-0.93053961,0.31579509,-0.13610805
1764764293.0063434,-3.98286,1.6022999999999998,0.3051999999999999,-0.93053961,0.31579509,-0.13610805
1764764293.0063434,-3.98286,1.6022999999999998,0.3051999999999999,-0.93053961,0.31579509,-0.13610805
1764764293.0063434,-3.98286,1.6022999999999998,0.3051999999999999,-0.93053961,0.31579509,-0.13610805
1764764293.0063434,-3.98286,1.6022999999999998,0.3051999999999999,-0.93053961,0.31579509,-0.13610805
1764764293.0063434,-3.75396,1.25132,-0.01526,-0.93322515,0.315856125,-0.136779435
1764764293.0063434,-3.75396,1.25132,-0.01526,-0.93322515,0.315856125,-0.136779435
1764764293.0063434,-3.75396,1.25132,-0.01526,-0.93322515,0.315856125,-0.136779435
1764764293.0063434,-3.75396,1.25132,-0.01526,-0.93322515,0.315856125,-0.136779435
1764764293.0063434,-3.75396,1.25132,-0.01526,-0.93322515,0.315856125,-0.136779435
1764764293.0063434,-3.75396,1.25132,-0.01526,-0.93322515,0.315856125,-0.136779435
1764764293.0063434,-3.75396,1.25132,-0.01526,-0.93322515,0.315856125,-0.136779435
1764764293.0063434,-3.75396,1.25132,-0.01526,-0.93322515,0.315856125,-0.136779435
1764764293.0063434,-3.75396,1.25132,-0.01526,-0.93322515,0.315856125,-0.136779435
1764764293.0063434,-3.75396,1.25132,-0.01526,-0.93322515,0.315856125,-0.136779435
1764764293.0063434,-4.63904,1.28184,0.03052,-0.931943415,0.31579509,-0.137267715
1764764293.0063434,-4.63904,1.28184,0.03052,-0.931943415,0.31579509,-0.137267715
1764764293.0063434,-4.63904,1.28184,0.03052,-0.931943415,0.31579509,-0.137267715
1764764293.0063434,-4.63904,1.28184,0.03052,-0.931943415,0.31579509,-0.137267715
1764764293.0063434,-4.63904,1.28184,0.03052,-0.931943415,0.31579509,-0.137267715
1764764293.0063434,-4.63904,1.28184,0.03052,-0.931943415,0.31579509,-0.137267715
1764764293.0063434,-4.63904,1.28184,0.03052,-0.931943415,0.31579509,-0.137267715
1764764293.007551,-4.63904,1.28184,0.03052,-0.931943415,0.31579509,-0.137267715
1764764293.007551,-4.63904,1.28184,0.03052,-0.931943415,0.31579509,-0.137267715
1764764293.007551,-4.63904,1.28184,0.03052,-0.931943415,0.31579509,-0.137267715
1764764293.0537353,-5.2647,2.15166,0.62566,-0.930722715,0.316466475,-0.13732875
1764764293.0537353,-5.2647,2.15166,0.62566,-0.930722715,0.316466475,-0.13732875
1764764293.0537353,-5.2647,2.15166,0.62566,-0.930722715,0.316466475,-0.13732875
1764764293.0537353,-5.2647,2.15166,0.62566,-0.930722715,0.316466475,-0.13732875
1764764293.0537353,-5.2647,2.15166,0.62566,-0.930722715,0.316466475,-0.13732875
1764764293.0537353,-5.2647,2.15166,0.62566,-0.930722715,0.316466475,-0.13732875
1764764293.0537353,-5.2647,2.15166,0.62566,-0.930722715,0.316466475,-0.13732875
1764764293.0537353,-5.2647,2.15166,0.62566,-0.930722715,0.316466475,-0.13732875
1764764293.0537353,-5.2647,2.15166,0.62566,-0.930722715,0.316466475,-0.13732875
1764764293.0542405,-5.2647,2.15166,0.62566,-0.930722715,0.316466475,-0.13732875
1764764293.0542405,-6.11926,2.25848,0.2289,-0.93102789,0.316222335,-0.136657365
1764764293.0542405,-6.11926,2.25848,0.2289,-0.93102789,0.316222335,-0.136657365
1764764293.0542405,-6.11926,2.25848,0.2289,-0.93102789,0.316222335,-0.136657365
1764764293.0542405,-6.11926,2.25848,0.2289,-0.93102789,0.316222335,-0.136657365
1764764293.0542405,-6.11926,2.25848,0.2289,-0.93102789,0.316222335,-0.136657365
1764764293.0542405,-6.11926,2.25848,0.2289,-0.93102789,0.316222335,-0.136657365
1764764293.0542405,-6.11926,2.25848,0.2289,-0.93102789,0.316222335,-0.136657365
1764764293.0542405,-6.11926,2.25848,0.2289,-0.93102789,0.316222335,-0.136657365
1764764293.0542405,-6.11926,2.25848,0.2289,-0.93102789,0.316222335,-0.136657365
1764764293.0542405,-6.11926,2.25848,0.2289,-0.93102789,0.316222335,-0.136657365
1764764293.0542405,-5.40204,1.69386,0.77826,-0.93151617,0.3149406,-0.135680805
1764764293.0542405,-5.40204,1.69386,0.77826,-0.93151617,0.3149406,-0.135680805
1764764293.0542405,-5.40204,1.69386,0.77826,-0.93151617,0.3149406,-0.135680805
1764764293.0542405,-5.40204,1.69386,0.77826,-0.93151617,0.3149406,-0.135680805
1764764293.0542405,-5.40204,1.69386,0.77826,-0.93151617,0.3149406,-0.135680805
1764764293.0542405,-5.40204,1.69386,0.77826,-0.93151617,0.3149406,-0.135680805
1764764293.1000128,-5.40204,1.69386,0.77826,-0.93151617,0.3149406,-0.135680805
1764764293.1000128,-5.40204,1.69386,0.77826,-0.93151617,0.3149406,-0.135680805
1764764293.1000128,-5.40204,1.69386,0.77826,-0.93151617,0.3149406,-0.135680805
1764764293.1000128,-5.40204,1.69386,0.77826,-0.93151617,0.3149406,-0.135680805
1764764293.1000128,-5.31048,1.41918,0.82404,-0.93224859,0.313170585,-0.134948385
1764764293.1000128,-5.31048,1.41918,0.82404,-0.93224859,0.313170585,-0.134948385
1764764293.1000128,-5.31048,1.41918,0.82404,-0.93224859,0.313170585,-0.134948385
1764764293.1000128,-5.31048,1.41918,0.82404,-0.93224859,0.313170585,-0.134948385
1764764293.1000128,-5.31048,1.41918,0.82404,-0.93224859,0.313170585,-0.134948385
1764764293.1000128,-5.31048,1.41918,0.82404,-0.93224859,0.313170585,-0.134948385
1764764293.1000128,-5.31048,1.41918,0.82404,-0.93224859,0.313170585,-0.134948385
1764764293.1000128,-5.31048,1.41918,0.82404,-0.93224859,0.313170585,-0.134948385
1764764293.1000128,-5.31048,1.41918,0.82404,-0.93224859,0.313170585,-0.134948385
1764764293.1000128,-5.31048,1.41918,0.82404,-0.93224859,0.313170585,-0.134948385
1764764293.1000128,-4.89846,0.8698199999999999,0.36624,-0.93151617,0.31188885,-0.135802875
1764764293.1000128,-4.89846,0.8698199999999999,0.36624,-0.93151617,0.31188885,-0.135802875
1764764293.1000128,-4.89846,0.8698199999999999,0.36624,-0.93151617,0.31188885,-0.135802875
1764764293.1000128,-4.89846,0.8698199999999999,0.36624,-0.93151617,0.31188885,-0.135802875
1764764293.1000128,-4.89846,0.8698199999999999,0.36624,-0.93151617,0.31188885,-0.135802875
1764764293.1000128,-4.89846,0.8698199999999999,0.36624,-0.93151617,0.31188885,-0.135802875
1764764293.1000128,-4.89846,0.8698199999999999,0.36624,-0.93151617,0.31188885,-0.135802875
1764764293.1000128,-4.89846,0.8698199999999999,0.36624,-0.93151617,0.31188885,-0.135802875
1764764293.146036,-4.89846,0.8698199999999999,0.36624,-0.93151617,0.31188885,-0.135802875
1764764293.146036,-4.89846,0.8698199999999999,0.36624,-0.93151617,0.31188885,-0.135802875
1764764293.146036,-5.9514,1.09872,0.36624,-0.93212652,0.312804375,-0.13732875
1764764293.146036,-5.9514,1.09872,0.36624,-0.93212652,0.312804375,-0.13732875
1764764293.146036,-5.9514,1.09872,0.36624,-0.93212652,0.312804375,-0.13732875
1764764293.146036,-5.9514,1.09872,0.36624,-0.93212652,0.312804375,-0.13732875
1764764293.146036,-5.9514,1.09872,0.36624,-0.93212652,0.312804375,-0.13732875
1764764293.146036,-5.9514,1.09872,0.36624,-0.93212652,0.312804375,-0.13732875
1764764293.146036,-5.9514,1.09872,0.36624,-0.93212652,0.312804375,-0.13732875
1764764293.146036,-5.9514,1.09872,0.36624,-0.93212652,0.312804375,-0.13732875
1764764293.1472664,-5.9514,1.09872,0.36624,-0.93212652,0.312804375,-0.13732875
1764764293.1472664,-5.9514,1.09872,0.36624,-0.93212652,0.312804375,-0.13732875
1764764293.1472664,-6.04296,0.77826,0.25942,-0.932309625,0.314147145,-0.13732875
1764764293.1472664,-6.04296,0.77826,0.25942,-0.932309625,0.314147145,-0.13732875
1764764293.1472664,-6.04296,0.77826,0.25942,-0.932309625,0.314147145,-0.13732875
1764764293.1472664,-6.04296,0.77826,0.25942,-0.932309625,0.314147145,-0.13732875
1764764293.1472664,-6.04296,0.77826,0.25942,-0.932309625,0.314147145,-0.13732875
1764764293.1472664,-6.04296,0.77826,0.25942,-0.932309625,0.314147145,-0.13732875
1764764293.1472664,-6.04296,0.77826,0.25942,-0.932309625,0.314147145,-0.13732875
1764764293.1472664,-6.04296,0.77826,0.25942,-0.932309625,0.314147145,-0.13732875
1764764293.1472664,-6.04296,0.77826,0.25942,-0.932309625,0.314147145,-0.13732875
1764764293.1472664,-6.04296,0.77826,0.25942,-0.932309625,0.314147145,-0.13732875
1764764293.1472664,-5.92088,0.93086,-0.06104,-0.93200445,0.315123705,-0.137267715
1764764293.1472664,-5.92088,0.93086,-0.06104,-0.93200445,0.315123705,-0.137267715
1764764293.1936953,-5.92088,0.93086,-0.06104,-0.93200445,0.315123705,-0.137267715
1764764293.1936953,-5.92088,0.93086,-0.06104,-0.93200445,0.315123705,-0.137267715
1764764293.1936953,-5.92088,0.93086,-0.06104,-0.93200445,0.315123705,-0.137267715
1764764293.1936953,-5.92088,0.93086,-0.06104,-0.93200445,0.315123705,-0.137267715
1764764293.1936953,-5.92088,0.93086,-0.06104,-0.93200445,0.315123705,-0.137267715
1764764293.1936953,-5.92088,0.93086,-0.06104,-0.93200445,0.315123705,-0.137267715
1764764293.1936953,-5.92088,0.93086,-0.06104,-0.93200445,0.315123705,-0.137267715
1764764293.1936953,-5.92088,0.93086,-0.06104,-0.93200445,0.315123705,-0.137267715
1764764293.1936953,-5.96666,0.77826,0.48832,-0.931210995,0.315856125,-0.137511855
1764764293.1936953,-5.96666,0.77826,0.48832,-0.931210995,0.315856125,-0.137511855
1764764293.1936953,-5.96666,0.77826,0.48832,-0.931210995,0.315856125,-0.137511855
1764764293.1936953,-5.96666,0.77826,0.48832,-0.931210995,0.315856125,-0.137511855
1764764293.1936953,-5.96666,0.77826,0.48832,-0.931210995,0.315856125,-0.137511855
1764764293.1936953,-5.96666,0.77826,0.48832,-0.931210995,0.315856125,-0.137511855
1764764293.1936953,-5.96666,0.77826,0.48832,-0.931210995,0.315856125,-0.137511855
1764764293.1936953,-5.96666,0.77826,0.48832,-0.931210995,0.315856125,-0.137511855
1764764293.1936953,-5.96666,0.77826,0.48832,-0.931210995,0.315856125,-0.137511855
1764764293.1936953,-5.96666,0.77826,0.48832,-0.931210995,0.315856125,-0.137511855
1764764293.1936953,-5.997179999999999,1.05294,0.65618,-0.932187555,0.315734055,-0.13720668
1764764293.1936953,-5.997179999999999,1.05294,0.65618,-0.932187555,0.315734055,-0.13720668
1764764293.1936953,-5.997179999999999,1.05294,0.65618,-0.932187555,0.315734055,-0.13720668
1764764293.1936953,-5.997179999999999,1.05294,0.65618,-0.932187555,0.315734055,-0.13720668
1764764293.240064,-5.997179999999999,1.05294,0.65618,-0.932187555,0.315734055,-0.13720668
1764764293.240064,-5.997179999999999,1.05294,0.65618,-0.932187555,0.315734055,-0.13720668
1764764293.240064,-5.997179999999999,1.05294,0.65618,-0.932187555,0.315734055,-0.13720668
1764764293.240064,-5.997179999999999,1.05294,0.65618,-0.932187555,0.315734055,-0.13720668
1764764293.240064,-5.997179999999999,1.05294,0.65618,-0.932187555,0.315734055,-0.13720668
1764764293.240064,-5.997179999999999,1.05294,0.65618,-0.932187555,0.315734055,-0.13720668
1764764293.240064,-5.646199999999999,0.88508,0.7019599999999999,-0.93237066,0.31396404,-0.1367184
1764764293.240064,-5.646199999999999,0.88508,0.7019599999999999,-0.93237066,0.31396404,-0.1367184
1764764293.240064,-5.646199999999999,0.88508,0.7019599999999999,-0.93237066,0.31396404,-0.1367184
1764764293.240064,-5.646199999999999,0.88508,0.7019599999999999,-0.93237066,0.31396404,-0.1367184
1764764293.240064,-5.646199999999999,0.88508,0.7019599999999999,-0.93237066,0.31396404,-0.1367184
1764764293.240064,-5.646199999999999,0.88508,0.7019599999999999,-0.93237066,0.31396404,-0.1367184
1764764293.2411065,-5.646199999999999,0.88508,0.7019599999999999,-0.93237066,0.31396404,-0.1367184
1764764293.2411065,-5.646199999999999,0.88508,0.7019599999999999,-0.93237066,0.31396404,-0.1367184
1764764293.2411065,-5.646199999999999,0.88508,0.7019599999999999,-0.93237066,0.31396404,-0.1367184
1764764293.2411065,-5.646199999999999,0.88508,0.7019599999999999,-0.93237066,0.31396404,-0.1367184
1764764293.2411065,-5.4173,0.6103999999999999,-0.12208,-0.93237066,0.313170585,-0.135314595
1764764293.2411065,-5.4173,0.6103999999999999,-0.12208,-0.93237066,0.313170585,-0.135314595
1764764293.2411065,-5.4173,0.6103999999999999,-0.12208,-0.93237066,0.313170585,-0.135314595
1764764293.2411065,-5.4173,0.6103999999999999,-0.12208,-0.93237066,0.313170585,-0.135314595
1764764293.2411065,-5.4173,0.6103999999999999,-0.12208,-0.93237066,0.313170585,-0.135314595
1764764293.2411065,-5.4173,0.6103999999999999,-0.12208,-0.93237066,0.313170585,-0.135314595
1764764293.2411065,-5.4173,0.6103999999999999,-0.12208,-0.93237066,0.313170585,-0.135314595
1764764293.2411065,-5.4173,0.6103999999999999,-0.12208,-0.93237066,0.313170585,-0.135314595
1764764293.2880714,-5.4173,0.6103999999999999,-0.12208,-0.93237066,0.313170585,-0.135314595
1764764293.2880714,-5.4173,0.6103999999999999,-0.12208,-0.93237066,0.313170585,-0.135314595
1764764293.2880714,-5.2647,0.73248,-0.19838,-0.930722715,0.31359783,-0.1330563
1764764293.2880714,-5.2647,0.73248,-0.19838,-0.930722715,0.31359783,-0.1330563
1764764293.2880714,-5.2647,0.73248,-0.19838,-0.930722715,0.31359783,-0.1330563
1764764293.2880714,-5.2647,0.73248,-0.19838,-0.930722715,0.31359783,-0.1330563
1764764293.2880714,-5.2647,0.73248,-0.19838,-0.930722715,0.31359783,-0.1330563
1764764293.2880714,-5.2647,0.73248,-0.19838,-0.930722715,0.31359783,-0.1330563
1764764293.2880714,-5.2647,0.73248,-0.19838,-0.930722715,0.31359783,-0.1330563
1764764293.2880714,-5.2647,0.73248,-0.19838,-0.930722715,0.31359783,-0.1330563
1764764293.2880714,-5.2647,0.73248,-0.19838,-0.930722715,0.31359783,-0.1330563
1764764293.2880714,-5.2647,0.73248,-0.19838,-0.930722715,0.31359783,-0.1330563
1764764293.2880714,-4.059159999999999,0.10682,0.06104,-0.930722715,0.313903005,-0.133239405
1764764293.2880714,-4.059159999999999,0.10682,0.06104,-0.930722715,0.313903005,-0.133239405
1764764293.2880714,-4.059159999999999,0.10682,0.06104,-0.930722715,0.313903005,-0.133239405
1764764293.2880714,-4.059159999999999,0.10682,0.06104,-0.930722715,0.313903005,-0.133239405
1764764293.2880714,-4.059159999999999,0.10682,0.06104,-0.930722715,0.313903005,-0.133239405
1764764293.2880714,-4.059159999999999,0.10682,0.06104,-0.930722715,0.313903005,-0.133239405
1764764293.2880714,-4.059159999999999,0.10682,0.06104,-0.930722715,0.313903005,-0.133239405
1764764293.2880714,-4.059159999999999,0.10682,0.06104,-0.930722715,0.313903005,-0.133239405
1764764293.2880714,-4.059159999999999,0.10682,0.06104,-0.930722715,0.313903005,-0.133239405
1764764293.2880714,-4.059159999999999,0.10682,0.06104,-0.930722715,0.313903005,-0.133239405
1764764293.2880714,-3.08252,-0.06104,-0.03052,-0.93041754,0.31176678,-0.133849755
1764764293.289616,-3.08252,-0.06104,-0.03052,-0.93041754,0.31176678,-0.133849755
1764764293.333172,-3.08252,-0.06104,-0.03052,-0.93041754,0.31176678,-0.133849755
1764764293.3361802,-3.08252,-0.06104,-0.03052,-0.93041754,0.31176678,-0.133849755
1764764293.3361802,-3.08252,-0.06104,-0.03052,-0.93041754,0.31176678,-0.133849755
1764764293.3361802,-3.08252,-0.06104,-0.03052,-0.93041754,0.31176678,-0.133849755
1764764293.3361802,-3.08252,-0.06104,-0.03052,-0.93041754,0.31176678,-0.133849755
1764764293.3361802,-3.08252,-0.06104,-0.03052,-0.93041754,0.31176678,-0.133849755
1764764293.3361802,-3.08252,-0.06104,-0.03052,-0.93041754,0.31176678,-0.133849755
1764764293.337181,-3.08252,-0.06104,-0.03052,-0.93041754,0.31176678,-0.133849755
1764764293.337181,-3.79974,0.3357199999999999,-0.1525999999999999,-0.930356505,0.312804375,-0.13525356
1764764293.337181,-3.79974,0.3357199999999999,-0.1525999999999999,-0.930356505,0.312804375,-0.13525356
1764764293.337181,-3.79974,0.3357199999999999,-0.1525999999999999,-0.930356505,0.312804375,-0.13525356
1764764293.337181,-3.79974,0.3357199999999999,-0.1525999999999999,-0.930356505,0.312804375,-0.13525356
1764764293.337181,-3.79974,0.3357199999999999,-0.1525999999999999,-0.930356505,0.312804375,-0.13525356
1764764293.337181,-3.79974,0.3357199999999999,-0.1525999999999999,-0.930356505,0.312804375,-0.13525356
1764764293.337181,-3.79974,0.3357199999999999,-0.1525999999999999,-0.930356505,0.312804375,-0.13525356
1764764293.337181,-3.79974,0.3357199999999999,-0.1525999999999999,-0.930356505,0.312804375,-0.13525356
1764764293.337181,-3.79974,0.3357199999999999,-0.1525999999999999,-0.930356505,0.312804375,-0.13525356
1764764293.337181,-3.79974,0.3357199999999999,-0.1525999999999999,-0.930356505,0.312804375,-0.13525356
1764764293.337181,-6.37868,0.28994,0.77826,-0.93151617,0.317076825,-0.137389785
1764764293.3381827,-6.37868,0.28994,0.77826,-0.93151617,0.317076825,-0.137389785
1764764293.3381827,-6.37868,0.28994,0.77826,-0.93151617,0.317076825,-0.137389785
1764764293.3381827,-6.37868,0.28994,0.77826,-0.93151617,0.317076825,-0.137389785
1764764293.3807302,-6.37868,0.28994,0.77826,-0.93151617,0.317076825,-0.137389785
1764764293.3807302,-6.37868,0.28994,0.77826,-0.93151617,0.317076825,-0.137389785
1764764293.3807302,-6.37868,0.28994,0.77826,-0.93151617,0.317076825,-0.137389785
1764764293.3807302,-6.37868,0.28994,0.77826,-0.93151617,0.317076825,-0.137389785
1764764293.3807302,-6.37868,0.28994,0.77826,-0.93151617,0.317076825,-0.137389785
1764764293.3807302,-6.37868,0.28994,0.77826,-0.93151617,0.317076825,-0.137389785
1764764293.3817372,-5.7988,1.05294,1.12924,-0.93334722,0.32006754,-0.13830531
1764764293.3817372,-5.7988,1.05294,1.12924,-0.93334722,0.32006754,-0.13830531
1764764293.3817372,-5.7988,1.05294,1.12924,-0.93334722,0.32006754,-0.13830531
1764764293.3817372,-5.7988,1.05294,1.12924,-0.93334722,0.32006754,-0.13830531
1764764293.3817372,-5.7988,1.05294,1.12924,-0.93334722,0.32006754,-0.13830531
1764764293.3817372,-5.7988,1.05294,1.12924,-0.93334722,0.32006754,-0.13830531
1764764293.3817372,-5.7988,1.05294,1.12924,-0.93334722,0.32006754,-0.13830531
1764764293.3817372,-5.7988,1.05294,1.12924,-0.93334722,0.32006754,-0.13830531
1764764293.3817372,-5.7988,1.05294,1.12924,-0.93334722,0.32006754,-0.13830531
1764764293.3817372,-5.7988,1.05294,1.12924,-0.93334722,0.32006754,-0.13830531
1764764293.3817372,-4.37962,0.8698199999999999,0.94612,-0.934262745,0.318663735,-0.13684047
1764764293.3817372,-4.37962,0.8698199999999999,0.94612,-0.934262745,0.318663735,-0.13684047
1764764293.3817372,-4.37962,0.8698199999999999,0.94612,-0.934262745,0.318663735,-0.13684047
1764764293.3817372,-4.37962,0.8698199999999999,0.94612,-0.934262745,0.318663735,-0.13684047
1764764293.3817372,-4.37962,0.8698199999999999,0.94612,-0.934262745,0.318663735,-0.13684047
1764764293.3817372,-4.37962,0.8698199999999999,0.94612,-0.934262745,0.318663735,-0.13684047
1764764293.3817372,-4.37962,0.8698199999999999,0.94612,-0.934262745,0.318663735,-0.13684047
1764764293.3827405,-4.37962,0.8698199999999999,0.94612,-0.934262745,0.318663735,-0.13684047
1764764293.4285223,-4.37962,0.8698199999999999,0.94612,-0.934262745,0.318663735,-0.13684047
1764764293.4285223,-4.37962,0.8698199999999999,0.94612,-0.934262745,0.318663735,-0.13684047
1764764293.42954,-5.43256,0.3815,0.85456,-0.933286185,0.315734055,-0.13561977
1764764293.42954,-5.43256,0.3815,0.85456,-0.933286185,0.315734055,-0.13561977
1764764293.42954,-5.43256,0.3815,0.85456,-0.933286185,0.315734055,-0.13561977
1764764293.42954,-5.43256,0.3815,0.85456,-0.933286185,0.315734055,-0.13561977
1764764293.42954,-5.43256,0.3815,0.85456,-0.933286185,0.315734055,-0.13561977
1764764293.42954,-5.43256,0.3815,0.85456,-0.933286185,0.315734055,-0.13561977
1764764293.42954,-5.43256,0.3815,0.85456,-0.933286185,0.315734055,-0.13561977
1764764293.42954,-5.43256,0.3815,0.85456,-0.933286185,0.315734055,-0.13561977
1764764293.42954,-5.43256,0.3815,0.85456,-0.933286185,0.315734055,-0.13561977
1764764293.42954,-5.43256,0.3815,0.85456,-0.933286185,0.315734055,-0.13561977
1764764293.42954,-6.271859999999999,0.62566,0.3051999999999999,-0.93078375,0.31579509,-0.13659633
1764764293.42954,-6.271859999999999,0.62566,0.3051999999999999,-0.93078375,0.31579509,-0.13659633
1764764293.42954,-6.271859999999999,0.62566,0.3051999999999999,-0.93078375,0.31579509,-0.13659633
1764764293.42954,-6.271859999999999,0.62566,0.3051999999999999,-0.93078375,0.31579509,-0.13659633
1764764293.42954,-6.271859999999999,0.62566,0.3051999999999999,-0.93078375,0.31579509,-0.13659633
1764764293.42954,-6.271859999999999,0.62566,0.3051999999999999,-0.93078375,0.31579509,-0.13659633
1764764293.42954,-6.271859999999999,0.62566,0.3051999999999999,-0.93078375,0.31579509,-0.13659633
1764764293.42954,-6.271859999999999,0.62566,0.3051999999999999,-0.93078375,0.31579509,-0.13659633
1764764293.42954,-6.271859999999999,0.62566,0.3051999999999999,-0.93078375,0.31579509,-0.13659633
1764764293.42954,-6.271859999999999,0.62566,0.3051999999999999,-0.93078375,0.31579509,-0.13659633
1764764293.4761436,-7.49266,1.34288,-0.0762999999999999,-0.929502015,0.316588545,-0.137145645
1764764293.4761436,-7.49266,1.34288,-0.0762999999999999,-0.929502015,0.316588545,-0.137145645
1764764293.4761436,-7.49266,1.34288,-0.0762999999999999,-0.929502015,0.316588545,-0.137145645
1764764293.4761436,-7.49266,1.34288,-0.0762999999999999,-0.929502015,0.316588545,-0.137145645
1764764293.4761436,-7.49266,1.34288,-0.0762999999999999,-0.929502015,0.316588545,-0.137145645
1764764293.4761436,-7.49266,1.34288,-0.0762999999999999,-0.929502015,0.316588545,-0.137145645
1764764293.4761436,-7.49266,1.34288,-0.0762999999999999,-0.929502015,0.316588545,-0.137145645
1764764293.4761436,-7.49266,1.34288,-0.0762999999999999,-0.929502015,0.316588545,-0.137145645
1764764293.4761436,-7.49266,1.34288,-0.0762999999999999,-0.929502015,0.316588545,-0.137145645
1764764293.4761436,-7.49266,1.34288,-0.0762999999999999,-0.929502015,0.316588545,-0.137145645
1764764293.4761436,-7.14168,1.51074,-0.13734,-0.929746155,0.315489915,-0.136535295
1764764293.4761436,-7.14168,1.51074,-0.13734,-0.929746155,0.315489915,-0.136535295
1764764293.4761436,-7.14168,1.51074,-0.13734,-0.929746155,0.315489915,-0.136535295
1764764293.4761436,-7.14168,1.51074,-0.13734,-0.929746155,0.315489915,-0.136535295
1764764293.4761436,-7.14168,1.51074,-0.13734,-0.929746155,0.315489915,-0.136535295
1764764293.4761436,-7.14168,1.51074,-0.13734,-0.929746155,0.315489915,-0.136535295
1764764293.4761436,-7.14168,1.51074,-0.13734,-0.929746155,0.315489915,-0.136535295
1764764293.4761436,-7.14168,1.51074,-0.13734,-0.929746155,0.315489915,-0.136535295
1764764293.4761436,-7.14168,1.51074,-0.13734,-0.929746155,0.315489915,-0.136535295
1764764293.4761436,-7.14168,1.51074,-0.13734,-0.929746155,0.315489915,-0.136535295
1764764293.4761436,-6.57706,0.39676,0.1678599999999999,-0.930966855,0.315245775,-0.135802875
1764764293.4761436,-6.57706,0.39676,0.1678599999999999,-0.930966855,0.315245775,-0.135802875
1764764293.4761436,-6.57706,0.39676,0.1678599999999999,-0.930966855,0.315245775,-0.135802875
1764764293.4761436,-6.57706,0.39676,0.1678599999999999,-0.930966855,0.315245775,-0.135802875
1764764293.518581,-6.57706,0.39676,0.1678599999999999,-0.930966855,0.315245775,-0.135802875
1764764293.518581,-6.57706,0.39676,0.1678599999999999,-0.930966855,0.315245775,-0.135802875
1764764293.51959,-6.57706,0.39676,0.1678599999999999,-0.930966855,0.315245775,-0.135802875
1764764293.51959,-6.57706,0.39676,0.1678599999999999,-0.930966855,0.315245775,-0.135802875
1764764293.51959,-6.57706,0.39676,0.1678599999999999,-0.930966855,0.315245775,-0.135802875
1764764293.51959,-6.57706,0.39676,0.1678599999999999,-0.930966855,0.315245775,-0.135802875
1764764293.51959,-6.04296,0.51884,0.36624,-0.93285894,0.315123705,-0.13452114
1764764293.51959,-6.04296,0.51884,0.36624,-0.93285894,0.315123705,-0.13452114
1764764293.51959,-6.04296,0.51884,0.36624,-0.93285894,0.315123705,-0.13452114
1764764293.51959,-6.04296,0.51884,0.36624,-0.93285894,0.315123705,-0.13452114
1764764293.51959,-6.04296,0.51884,0.36624,-0.93285894,0.315123705,-0.13452114
1764764293.51959,-6.04296,0.51884,0.36624,-0.93285894,0.315123705,-0.13452114
1764764293.51959,-6.04296,0.51884,0.36624,-0.93285894,0.315123705,-0.13452114
1764764293.51959,-6.04296,0.51884,0.36624,-0.93285894,0.315123705,-0.13452114
1764764293.51959,-6.04296,0.51884,0.36624,-0.93285894,0.315123705,-0.13452114
1764764293.51959,-6.04296,0.51884,0.36624,-0.93285894,0.315123705,-0.13452114
1764764293.51959,-4.8832,0.3357199999999999,0.3815,-0.93432378,0.31457439,-0.13464321
1764764293.51959,-4.8832,0.3357199999999999,0.3815,-0.93432378,0.31457439,-0.13464321
1764764293.51959,-4.8832,0.3357199999999999,0.3815,-0.93432378,0.31457439,-0.13464321
1764764293.51959,-4.8832,0.3357199999999999,0.3815,-0.93432378,0.31457439,-0.13464321
1764764293.51959,-4.8832,0.3357199999999999,0.3815,-0.93432378,0.31457439,-0.13464321
1764764293.51959,-4.8832,0.3357199999999999,0.3815,-0.93432378,0.31457439,-0.13464321
1764764293.51959,-4.8832,0.3357199999999999,0.3815,-0.93432378,0.31457439,-0.13464321
1764764293.51959,-4.8832,0.3357199999999999,0.3815,-0.93432378,0.31457439,-0.13464321
1764764293.5675576,-4.8832,0.3357199999999999,0.3815,-0.93432378,0.31457439,-0.13464321
1764764293.5675576,-4.8832,0.3357199999999999,0.3815,-0.93432378,0.31457439,-0.13464321
1764764293.5675576,-5.5699,0.74774,0.12208,-0.93249273,0.31469646,-0.13513149
1764764293.5675576,-5.5699,0.74774,0.12208,-0.93249273,0.31469646,-0.13513149
1764764293.5675576,-5.5699,0.74774,0.12208,-0.93249273,0.31469646,-0.13513149
1764764293.5675576,-5.5699,0.74774,0.12208,-0.93249273,0.31469646,-0.13513149
1764764293.5675576,-5.5699,0.74774,0.12208,-0.93249273,0.31469646,-0.13513149
1764764293.5675576,-5.5699,0.74774,0.12208,-0.93249273,0.31469646,-0.13513149
1764764293.5675576,-5.5699,0.74774,0.12208,-0.93249273,0.31469646,-0.13513149
1764764293.5685651,-5.5699,0.74774,0.12208,-0.93249273,0.31469646,-0.13513149
1764764293.5685651,-5.5699,0.74774,0.12208,-0.93249273,0.31469646,-0.13513149
1764764293.5685651,-5.5699,0.74774,0.12208,-0.93249273,0.31469646,-0.13513149
1764764293.5685651,-5.32574,0.50358,0.50358,-0.93237066,0.31481853,-0.133361475
1764764293.5685651,-5.32574,0.50358,0.50358,-0.93237066,0.31481853,-0.133361475
1764764293.5685651,-5.32574,0.50358,0.50358,-0.93237066,0.31481853,-0.133361475
1764764293.5685651,-5.32574,0.50358,0.50358,-0.93237066,0.31481853,-0.133361475
1764764293.5685651,-5.32574,0.50358,0.50358,-0.93237066,0.31481853,-0.133361475
1764764293.5685651,-5.32574,0.50358,0.50358,-0.93237066,0.31481853,-0.133361475
1764764293.5685651,-5.32574,0.50358,0.50358,-0.93237066,0.31481853,-0.133361475
1764764293.5685651,-5.32574,0.50358,0.50358,-0.93237066,0.31481853,-0.133361475
1764764293.5695643,-5.32574,0.50358,0.50358,-0.93237066,0.31481853,-0.133361475
1764764293.5695643,-5.32574,0.50358,0.50358,-0.93237066,0.31481853,-0.133361475
1764764293.5695643,-6.05822,0.8392999999999999,0.77826,-0.932065485,0.31591716,-0.131774565
1764764293.5695643,-6.05822,0.8392999999999999,0.77826,-0.932065485,0.31591716,-0.131774565
1764764293.6134737,-6.05822,0.8392999999999999,0.77826,-0.932065485,0.31591716,-0.131774565
1764764293.6134737,-6.05822,0.8392999999999999,0.77826,-0.932065485,0.31591716,-0.131774565
1764764293.6134737,-6.05822,0.8392999999999999,0.77826,-0.932065485,0.31591716,-0.131774565
1764764293.6134737,-6.05822,0.8392999999999999,0.77826,-0.932065485,0.31591716,-0.131774565
1764764293.6134737,-6.05822,0.8392999999999999,0.77826,-0.932065485,0.31591716,-0.131774565
1764764293.6134737,-6.05822,0.8392999999999999,0.77826,-0.932065485,0.31591716,-0.131774565
1764764293.6134737,-6.05822,0.8392999999999999,0.77826,-0.932065485,0.31591716,-0.131774565
1764764293.6134737,-6.05822,0.8392999999999999,0.77826,-0.932065485,0.31591716,-0.131774565
1764764293.614231,-6.867,0.19838,1.84646,-0.93444585,0.317198895,-0.13134732
1764764293.614231,-6.867,0.19838,1.84646,-0.93444585,0.317198895,-0.13134732
1764764293.614231,-6.867,0.19838,1.84646,-0.93444585,0.317198895,-0.13134732
1764764293.614231,-6.867,0.19838,1.84646,-0.93444585,0.317198895,-0.13134732
1764764293.614231,-6.867,0.19838,1.84646,-0.93444585,0.317198895,-0.13134732
1764764293.614231,-6.867,0.19838,1.84646,-0.93444585,0.317198895,-0.13134732
1764764293.614231,-6.867,0.19838,1.84646,-0.93444585,0.317198895,-0.13134732
1764764293.614231,-6.867,0.19838,1.84646,-0.93444585,0.317198895,-0.13134732
1764764293.614231,-6.867,0.19838,1.84646,-0.93444585,0.317198895,-0.13134732
1764764293.614231,-6.867,0.19838,1.84646,-0.93444585,0.317198895,-0.13134732
1764764293.614231,-8.2404,0.1525999999999999,1.12924,-0.933042045,0.317382,-0.13195767
1764764293.614231,-8.2404,0.1525999999999999,1.12924,-0.933042045,0.317382,-0.13195767
1764764293.6621246,-8.2404,0.1525999999999999,1.12924,-0.933042045,0.317382,-0.13195767
1764764293.6621246,-8.2404,0.1525999999999999,1.12924,-0.933042045,0.317382,-0.13195767
1764764293.6621246,-8.2404,0.1525999999999999,1.12924,-0.933042045,0.317382,-0.13195767
1764764293.6621246,-8.2404,0.1525999999999999,1.12924,-0.933042045,0.317382,-0.13195767
1764764293.6621246,-8.2404,0.1525999999999999,1.12924,-0.933042045,0.317382,-0.13195767
1764764293.6621246,-8.2404,0.1525999999999999,1.12924,-0.933042045,0.317382,-0.13195767
1764764293.6621246,-8.2404,0.1525999999999999,1.12924,-0.933042045,0.317382,-0.13195767
1764764293.6621246,-8.2404,0.1525999999999999,1.12924,-0.933042045,0.317382,-0.13195767
1764764293.6621246,-8.5456,0.7019599999999999,0.03052,-0.93005133,0.31567302,-0.13281216
1764764293.6621246,-8.5456,0.7019599999999999,0.03052,-0.93005133,0.31567302,-0.13281216
1764764293.6621246,-8.5456,0.7019599999999999,0.03052,-0.93005133,0.31567302,-0.13281216
1764764293.6621246,-8.5456,0.7019599999999999,0.03052,-0.93005133,0.31567302,-0.13281216
1764764293.6621246,-8.5456,0.7019599999999999,0.03052,-0.93005133,0.31567302,-0.13281216
1764764293.6621246,-8.5456,0.7019599999999999,0.03052,-0.93005133,0.31567302,-0.13281216
1764764293.6621246,-8.5456,0.7019599999999999,0.03052,-0.93005133,0.31567302,-0.13281216
1764764293.6621246,-8.5456,0.7019599999999999,0.03052,-0.93005133,0.31567302,-0.13281216
1764764293.6621246,-8.5456,0.7019599999999999,0.03052,-0.93005133,0.31567302,-0.13281216
1764764293.6621246,-8.5456,0.7019599999999999,0.03052,-0.93005133,0.31567302,-0.13281216
1764764293.6621246,-8.7745,0.57988,0.09156,-0.928769595,0.315001635,-0.1330563
1764764293.6621246,-8.7745,0.57988,0.09156,-0.928769595,0.315001635,-0.1330563
1764764293.6621246,-8.7745,0.57988,0.09156,-0.928769595,0.315001635,-0.1330563
1764764293.6621246,-8.7745,0.57988,0.09156,-0.928769595,0.315001635,-0.1330563
1764764293.6621246,-8.7745,0.57988,0.09156,-0.928769595,0.315001635,-0.1330563
1764764293.6621246,-8.7745,0.57988,0.09156,-0.928769595,0.315001635,-0.1330563
1764764293.705068,-8.7745,0.57988,0.09156,-0.928769595,0.315001635,-0.1330563
1764764293.705068,-8.7745,0.57988,0.09156,-0.928769595,0.315001635,-0.1330563
1764764293.705068,-8.7745,0.57988,0.09156,-0.928769595,0.315001635,-0.1330563
1764764293.705068,-8.7745,0.57988,0.09156,-0.928769595,0.315001635,-0.1330563
1764764293.705068,-6.88226,0.39676,0.19838,-0.93078375,0.315978195,-0.132995265
1764764293.705068,-6.88226,0.39676,0.19838,-0.93078375,0.315978195,-0.132995265
1764764293.706591,-6.88226,0.39676,0.19838,-0.93078375,0.315978195,-0.132995265
1764764293.706591,-6.88226,0.39676,0.19838,-0.93078375,0.315978195,-0.132995265
1764764293.706591,-6.88226,0.39676,0.19838,-0.93078375,0.315978195,-0.132995265
1764764293.706591,-6.88226,0.39676,0.19838,-0.93078375,0.315978195,-0.132995265
1764764293.706591,-6.88226,0.39676,0.19838,-0.93078375,0.315978195,-0.132995265
1764764293.706591,-6.88226,0.39676,0.19838,-0.93078375,0.315978195,-0.132995265
1764764293.706591,-6.88226,0.39676,0.19838,-0.93078375,0.315978195,-0.132995265
1764764293.706591,-6.88226,0.39676,0.19838,-0.93078375,0.315978195,-0.132995265
1764764293.706591,-6.07348,-0.59514,-0.3357199999999999,-0.93334722,0.316710615,-0.133971825
1764764293.706591,-6.07348,-0.59514,-0.3357199999999999,-0.93334722,0.316710615,-0.133971825
1764764293.706591,-6.07348,-0.59514,-0.3357199999999999,-0.93334722,0.316710615,-0.133971825
1764764293.706591,-6.07348,-0.59514,-0.3357199999999999,-0.93334722,0.316710615,-0.133971825
1764764293.706591,-6.07348,-0.59514,-0.3357199999999999,-0.93334722,0.316710615,-0.133971825
1764764293.706591,-6.07348,-0.59514,-0.3357199999999999,-0.93334722,0.316710615,-0.133971825
1764764293.706591,-6.07348,-0.59514,-0.3357199999999999,-0.93334722,0.316710615,-0.133971825
1764764293.706591,-6.07348,-0.59514,-0.3357199999999999,-0.93334722,0.316710615,-0.133971825
1764764293.706591,-6.07348,-0.59514,-0.3357199999999999,-0.93334722,0.316710615,-0.133971825
1764764293.706591,-6.07348,-0.59514,-0.3357199999999999,-0.93334722,0.316710615,-0.133971825
1764764293.7532065,-6.3329,-0.03052,0.2289,-0.93322515,0.318663735,-0.134826315
1764764293.7532065,-6.3329,-0.03052,0.2289,-0.93322515,0.318663735,-0.134826315
1764764293.7532065,-6.3329,-0.03052,0.2289,-0.93322515,0.318663735,-0.134826315
1764764293.7532065,-6.3329,-0.03052,0.2289,-0.93322515,0.318663735,-0.134826315
1764764293.7532065,-6.3329,-0.03052,0.2289,-0.93322515,0.318663735,-0.134826315
1764764293.7532065,-6.3329,-0.03052,0.2289,-0.93322515,0.318663735,-0.134826315
1764764293.7532065,-6.3329,-0.03052,0.2289,-0.93322515,0.318663735,-0.134826315
1764764293.7532065,-6.3329,-0.03052,0.2289,-0.93322515,0.318663735,-0.134826315
1764764293.7532065,-6.3329,-0.03052,0.2289,-0.93322515,0.318663735,-0.134826315
1764764293.7532065,-6.3329,-0.03052,0.2289,-0.93322515,0.318663735,-0.134826315
1764764293.7532065,-6.91278,0.54936,0.71722,-0.93188238,0.319029945,-0.13378872
1764764293.7545033,-6.91278,0.54936,0.71722,-0.93188238,0.319029945,-0.13378872
1764764293.7545033,-6.91278,0.54936,0.71722,-0.93188238,0.319029945,-0.13378872
1764764293.7545033,-6.91278,0.54936,0.71722,-0.93188238,0.319029945,-0.13378872
1764764293.7545033,-6.91278,0.54936,0.71722,-0.93188238,0.319029945,-0.13378872
1764764293.7545033,-6.91278,0.54936,0.71722,-0.93188238,0.319029945,-0.13378872
1764764293.7545033,-6.91278,0.54936,0.71722,-0.93188238,0.319029945,-0.13378872
1764764293.7545033,-6.91278,0.54936,0.71722,-0.93188238,0.319029945,-0.13378872
1764764293.7545033,-6.91278,0.54936,0.71722,-0.93188238,0.319029945,-0.13378872
1764764293.7552934,-6.91278,0.54936,0.71722,-0.93188238,0.319029945,-0.13378872
1764764293.7552934,-6.34816,0.50358,-0.01526,-0.93090582,0.316222335,-0.131774565
1764764293.7552934,-6.34816,0.50358,-0.01526,-0.93090582,0.316222335,-0.131774565
1764764293.7552934,-6.34816,0.50358,-0.01526,-0.93090582,0.316222335,-0.131774565
1764764293.7552934,-6.34816,0.50358,-0.01526,-0.93090582,0.316222335,-0.131774565
1764764293.8014247,-6.34816,0.50358,-0.01526,-0.93090582,0.316222335,-0.131774565
1764764293.8014247,-6.34816,0.50358,-0.01526,-0.93090582,0.316222335,-0.131774565
1764764293.8014247,-6.34816,0.50358,-0.01526,-0.93090582,0.316222335,-0.131774565
1764764293.8014247,-6.34816,0.50358,-0.01526,-0.93090582,0.316222335,-0.131774565
1764764293.8024302,-6.34816,0.50358,-0.01526,-0.93090582,0.316222335,-0.131774565
1764764293.8024302,-6.34816,0.50358,-0.01526,-0.93090582,0.316222335,-0.131774565
1764764293.8024302,-6.22608,0.36624,-0.21364,-0.93090582,0.31347576,-0.130553865
1764764293.8024302,-6.22608,0.36624,-0.21364,-0.93090582,0.31347576,-0.130553865
1764764293.8024302,-6.22608,0.36624,-0.21364,-0.93090582,0.31347576,-0.130553865
1764764293.8024302,-6.22608,0.36624,-0.21364,-0.93090582,0.31347576,-0.130553865
1764764293.8024302,-6.22608,0.36624,-0.21364,-0.93090582,0.31347576,-0.130553865
1764764293.8024302,-6.22608,0.36624,-0.21364,-0.93090582,0.31347576,-0.130553865
1764764293.8024302,-6.22608,0.36624,-0.21364,-0.93090582,0.31347576,-0.130553865
1764764293.8024302,-6.22608,0.36624,-0.21364,-0.93090582,0.31347576,-0.130553865
1764764293.8034296,-6.22608,0.36624,-0.21364,-0.93090582,0.31347576,-0.130553865
1764764293.8034296,-6.22608,0.36624,-0.21364,-0.93090582,0.31347576,-0.130553865
1764764293.8034296,-7.477399999999999,1.02242,0.47306,-0.932065485,0.314879565,-0.13110318
1764764293.8034296,-7.477399999999999,1.02242,0.47306,-0.932065485,0.314879565,-0.13110318
1764764293.8034296,-7.477399999999999,1.02242,0.47306,-0.932065485,0.314879565,-0.13110318
1764764293.8034296,-7.477399999999999,1.02242,0.47306,-0.932065485,0.314879565,-0.13110318
1764764293.8034296,-7.477399999999999,1.02242,0.47306,-0.932065485,0.314879565,-0.13110318
1764764293.8034296,-7.477399999999999,1.02242,0.47306,-0.932065485,0.314879565,-0.13110318
1764764293.8034296,-7.477399999999999,1.02242,0.47306,-0.932065485,0.314879565,-0.13110318
1764764293.8034296,-7.477399999999999,1.02242,0.47306,-0.932065485,0.314879565,-0.13110318
1764764293.8468711,-7.477399999999999,1.02242,0.47306,-0.932065485,0.314879565,-0.13110318
1764764293.8473952,-7.477399999999999,1.02242,0.47306,-0.932065485,0.314879565,-0.13110318
1764764293.8473952,-7.0196,0.47306,0.4578,-0.931821345,0.31701579,-0.131042145
1764764293.8473952,-7.0196,0.47306,0.4578,-0.931821345,0.31701579,-0.131042145
1764764293.8473952,-7.0196,0.47306,0.4578,-0.931821345,0.31701579,-0.131042145
1764764293.8473952,-7.0196,0.47306,0.4578,-0.931821345,0.31701579,-0.131042145
1764764293.8473952,-7.0196,0.47306,0.4578,-0.931821345,0.31701579,-0.131042145
1764764293.8473952,-7.0196,0.47306,0.4578,-0.931821345,0.31701579,-0.131042145
1764764293.8473952,-7.0196,0.47306,0.4578,-0.931821345,0.31701579,-0.131042145
1764764293.8473952,-7.0196,0.47306,0.4578,-0.931821345,0.31701579,-0.131042145
1764764293.8473952,-7.0196,0.47306,0.4578,-0.931821345,0.31701579,-0.131042145
1764764293.8473952,-7.0196,0.47306,0.4578,-0.931821345,0.31701579,-0.131042145
1764764293.8473952,-5.76828,1.09872,0.21364,-0.92980719,0.315001635,-0.131408355
1764764293.8473952,-5.76828,1.09872,0.21364,-0.92980719,0.315001635,-0.131408355
1764764293.8473952,-5.76828,1.09872,0.21364,-0.92980719,0.315001635,-0.131408355
1764764293.8473952,-5.76828,1.09872,0.21364,-0.92980719,0.315001635,-0.131408355
1764764293.8473952,-5.76828,1.09872,0.21364,-0.92980719,0.315001635,-0.131408355
1764764293.8473952,-5.76828,1.09872,0.21364,-0.92980719,0.315001635,-0.131408355
1764764293.8473952,-5.76828,1.09872,0.21364,-0.92980719,0.315001635,-0.131408355
1764764293.8473952,-5.76828,1.09872,0.21364,-0.92980719,0.315001635,-0.131408355
1764764293.8473952,-5.76828,1.09872,0.21364,-0.92980719,0.315001635,-0.131408355
1764764293.8473952,-5.76828,1.09872,0.21364,-0.92980719,0.315001635,-0.131408355
1764764293.8473952,-7.18746,1.41918,0.3204599999999999,-0.92944098,0.314757495,-0.13037076
1764764293.8473952,-7.18746,1.41918,0.3204599999999999,-0.92944098,0.314757495,-0.13037076
1764764293.8951178,-7.18746,1.41918,0.3204599999999999,-0.92944098,0.314757495,-0.13037076
1764764293.8951178,-7.18746,1.41918,0.3204599999999999,-0.92944098,0.314757495,-0.13037076
1764764293.8951178,-7.18746,1.41918,0.3204599999999999,-0.92944098,0.314757495,-0.13037076
1764764293.8951178,-7.18746,1.41918,0.3204599999999999,-0.92944098,0.314757495,-0.13037076
1764764293.8951178,-7.18746,1.41918,0.3204599999999999,-0.92944098,0.314757495,-0.13037076
1764764293.8951178,-7.18746,1.41918,0.3204599999999999,-0.92944098,0.314757495,-0.13037076
1764764293.8951178,-7.18746,1.41918,0.3204599999999999,-0.92944098,0.314757495,-0.13037076
1764764293.8951178,-7.18746,1.41918,0.3204599999999999,-0.92944098,0.314757495,-0.13037076
1764764293.8951178,-7.7063,1.1445,1.0682,-0.932431695,0.31725993,-0.129699375
1764764293.8951178,-7.7063,1.1445,1.0682,-0.932431695,0.31725993,-0.129699375
1764764293.8951178,-7.7063,1.1445,1.0682,-0.932431695,0.31725993,-0.129699375
1764764293.8951178,-7.7063,1.1445,1.0682,-0.932431695,0.31725993,-0.129699375
1764764293.8951178,-7.7063,1.1445,1.0682,-0.932431695,0.31725993,-0.129699375
1764764293.8951178,-7.7063,1.1445,1.0682,-0.932431695,0.31725993,-0.129699375
1764764293.8951178,-7.7063,1.1445,1.0682,-0.932431695,0.31725993,-0.129699375
1764764293.8951178,-7.7063,1.1445,1.0682,-0.932431695,0.31725993,-0.129699375
1764764293.8961153,-7.7063,1.1445,1.0682,-0.932431695,0.31725993,-0.129699375
1764764293.8961153,-7.7063,1.1445,1.0682,-0.932431695,0.31725993,-0.129699375
1764764293.8961153,-7.27902,0.94612,0.6409199999999999,-0.93420171,0.319029945,-0.13073697
1764764293.8961153,-7.27902,0.94612,0.6409199999999999,-0.93420171,0.319029945,-0.13073697
1764764293.8961153,-7.27902,0.94612,0.6409199999999999,-0.93420171,0.319029945,-0.13073697
1764764293.8961153,-7.27902,0.94612,0.6409199999999999,-0.93420171,0.319029945,-0.13073697
1764764293.8961153,-7.27902,0.94612,0.6409199999999999,-0.93420171,0.319029945,-0.13073697
1764764293.8961153,-7.27902,0.94612,0.6409199999999999,-0.93420171,0.319029945,-0.13073697
1764764293.9398444,-7.27902,0.94612,0.6409199999999999,-0.93420171,0.319029945,-0.13073697
1764764293.9398444,-7.27902,0.94612,0.6409199999999999,-0.93420171,0.319029945,-0.13073697
1764764293.9398444,-7.27902,0.94612,0.6409199999999999,-0.93420171,0.319029945,-0.13073697
1764764293.9398444,-7.27902,0.94612,0.6409199999999999,-0.93420171,0.319029945,-0.13073697
1764764293.940376,-5.60042,0.6409199999999999,0.41202,-0.93432378,0.3161613,-0.130309725
1764764293.940376,-5.60042,0.6409199999999999,0.41202,-0.93432378,0.3161613,-0.130309725
1764764293.940376,-5.60042,0.6409199999999999,0.41202,-0.93432378,0.3161613,-0.130309725
1764764293.940376,-5.60042,0.6409199999999999,0.41202,-0.93432378,0.3161613,-0.130309725
1764764293.940376,-5.60042,0.6409199999999999,0.41202,-0.93432378,0.3161613,-0.130309725
1764764293.940376,-5.60042,0.6409199999999999,0.41202,-0.93432378,0.3161613,-0.130309725
1764764293.940376,-5.60042,0.6409199999999999,0.41202,-0.93432378,0.3161613,-0.130309725
1764764293.940376,-5.60042,0.6409199999999999,0.41202,-0.93432378,0.3161613,-0.130309725
1764764293.940376,-5.60042,0.6409199999999999,0.41202,-0.93432378,0.3161613,-0.130309725
1764764293.940376,-5.60042,0.6409199999999999,0.41202,-0.93432378,0.3161613,-0.130309725
1764764293.940376,-5.0358,0.88508,0.8392999999999999,-0.932187555,0.315123705,-0.128722815
1764764293.940376,-5.0358,0.88508,0.8392999999999999,-0.932187555,0.315123705,-0.128722815
1764764293.940376,-5.0358,0.88508,0.8392999999999999,-0.932187555,0.315123705,-0.128722815
1764764293.940376,-5.0358,0.88508,0.8392999999999999,-0.932187555,0.315123705,-0.128722815
1764764293.940376,-5.0358,0.88508,0.8392999999999999,-0.932187555,0.315123705,-0.128722815
1764764293.940376,-5.0358,0.88508,0.8392999999999999,-0.932187555,0.315123705,-0.128722815
1764764293.941383,-5.0358,0.88508,0.8392999999999999,-0.932187555,0.315123705,-0.128722815
1764764293.941383,-5.0358,0.88508,0.8392999999999999,-0.932187555,0.315123705,-0.128722815
1764764293.9879704,-5.0358,0.88508,0.8392999999999999,-0.932187555,0.315123705,-0.128722815
1764764293.988495,-5.0358,0.88508,0.8392999999999999,-0.932187555,0.315123705,-0.128722815
1764764293.988495,-5.32574,1.9075,1.26658,-0.92980719,0.31518474,-0.12927213
1764764293.988495,-5.32574,1.9075,1.26658,-0.92980719,0.31518474,-0.12927213
1764764293.988495,-5.32574,1.9075,1.26658,-0.92980719,0.31518474,-0.12927213
1764764293.988495,-5.32574,1.9075,1.26658,-0.92980719,0.31518474,-0.12927213
1764764293.988495,-5.32574,1.9075,1.26658,-0.92980719,0.31518474,-0.12927213
1764764293.988495,-5.32574,1.9075,1.26658,-0.92980719,0.31518474,-0.12927213
1764764293.988495,-5.32574,1.9075,1.26658,-0.92980719,0.31518474,-0.12927213
1764764293.988495,-5.32574,1.9075,1.26658,-0.92980719,0.31518474,-0.12927213
1764764293.988495,-5.32574,1.9075,1.26658,-0.92980719,0.31518474,-0.12927213
1764764293.988495,-5.32574,1.9075,1.26658,-0.92980719,0.31518474,-0.12927213
1764764293.988495,-6.72966,2.45686,0.77826,-0.928159245,0.316466475,-0.13024869
1764764293.988495,-6.72966,2.45686,0.77826,-0.928159245,0.316466475,-0.13024869
1764764293.988495,-6.72966,2.45686,0.77826,-0.928159245,0.316466475,-0.13024869
1764764293.9890244,-6.72966,2.45686,0.77826,-0.928159245,0.316466475,-0.13024869
1764764293.9890244,-6.72966,2.45686,0.77826,-0.928159245,0.316466475,-0.13024869
1764764293.9890244,-6.72966,2.45686,0.77826,-0.928159245,0.316466475,-0.13024869
1764764293.9890244,-6.72966,2.45686,0.77826,-0.928159245,0.316466475,-0.13024869
1764764293.9890244,-6.72966,2.45686,0.77826,-0.928159245,0.316466475,-0.13024869
1764764293.9890244,-6.72966,2.45686,0.77826,-0.928159245,0.316466475,-0.13024869
1764764293.9890244,-6.72966,2.45686,0.77826,-0.928159245,0.316466475,-0.13024869
1764764294.035215,-6.6381,2.12114,0.48832,-0.92870856,0.316466475,-0.129821445
1764764294.035215,-6.6381,2.12114,0.48832,-0.92870856,0.316466475,-0.129821445
