Timestamp,GyroX,GyroY,GyroZ,AccX,AccY,AccZ
1764763277.7211025,-2.71628,3.72344,0.04578,-0.88757097,0.380064945,-0.23571717
1764763277.7211025,-2.71628,3.72344,0.04578,-0.88757097,0.380064945,-0.23571717
1764763277.7211025,-2.71628,3.72344,0.04578,-0.88757097,0.380064945,-0.23571717
1764763277.7211025,-2.71628,3.72344,0.04578,-0.88757097,0.380064945,-0.23571717
1764763277.7211025,-2.71628,3.72344,0.04578,-0.88757097,0.380064945,-0.23571717
1764763277.7211025,-2.71628,3.72344,0.04578,-0.88757097,0.380064945,-0.23571717
1764763277.7211025,-2.71628,3.72344,0.04578,-0.88757097,0.380064945,-0.23571717
1764763277.7211025,-2.71628,3.72344,0.04578,-0.88757097,0.380064945,-0.23571717
1764763277.7211025,-2.71628,3.72344,0.04578,-0.88757097,0.380064945,-0.23571717
1764763277.7211025,-2.71628,3.72344,0.04578,-0.88757097,0.380064945,-0.23571717
1764763277.7211025,-2.2127,3.55558,0.3204599999999999,-0.88830339,0.379698735,-0.234679575
1764763277.7211025,-2.2127,3.55558,0.3204599999999999,-0.88830339,0.379698735,-0.234679575
1764763277.7211025,-2.2127,3.55558,0.3204599999999999,-0.88830339,0.379698735,-0.234679575
1764763277.7211025,-2.2127,3.55558,0.3204599999999999,-0.88830339,0.379698735,-0.234679575
1764763277.7211025,-2.2127,3.55558,0.3204599999999999,-0.88830339,0.379698735,-0.234679575
1764763277.7211025,-2.2127,3.55558,0.3204599999999999,-0.88830339,0.379698735,-0.234679575
1764763277.7211025,-2.2127,3.55558,0.3204599999999999,-0.88830339,0.379698735,-0.234679575
1764763277.7211025,-2.2127,3.55558,0.3204599999999999,-0.88830339,0.379698735,-0.234679575
1764763277.7211025,-2.2127,3.55558,0.3204599999999999,-0.88830339,0.379698735,-0.234679575
1764763277.7211025,-2.2127,3.55558,0.3204599999999999,-0.88830339,0.379698735,-0.234679575
1764763277.7211025,-1.58704,3.31142,0.6103999999999999,-0.88842546,0.38000391,-0.23413026
1764763277.7211025,-1.58704,3.31142,0.6103999999999999,-0.88842546,0.38000391,-0.23413026
1764763277.7694132,-1.58704,3.31142,0.6103999999999999,-0.88842546,0.38000391,-0.23413026
1764763277.7694132,-1.58704,3.31142,0.6103999999999999,-0.88842546,0.38000391,-0.23413026
1764763277.7694132,-1.58704,3.31142,0.6103999999999999,-0.88842546,0.38000391,-0.23413026
1764763277.7694132,-1.58704,3.31142,0.6103999999999999,-0.88842546,0.38000391,-0.23413026
1764763277.7694132,-1.58704,3.31142,0.6103999999999999,-0.88842546,0.38000391,-0.23413026
1764763277.7694132,-1.58704,3.31142,0.6103999999999999,-0.88842546,0.38000391,-0.23413026
1764763277.7694132,-1.58704,3.31142,0.6103999999999999,-0.88842546,0.38000391,-0.23413026
1764763277.7694132,-1.58704,3.31142,0.6103999999999999,-0.88842546,0.38000391,-0.23413026
1764763277.7694132,-1.02242,3.41824,0.47306,-0.88818132,0.379454595,-0.23388612
1764763277.7694132,-1.02242,3.41824,0.47306,-0.88818132,0.379454595,-0.23388612
1764763277.7694132,-1.02242,3.41824,0.47306,-0.88818132,0.379454595,-0.23388612
1764763277.7694132,-1.02242,3.41824,0.47306,-0.88818132,0.379454595,-0.23388612
1764763277.7694132,-1.02242,3.41824,0.47306,-0.88818132,0.379454595,-0.23388612
1764763277.7694132,-1.02242,3.41824,0.47306,-0.88818132,0.379454595,-0.23388612
1764763277.7694132,-1.02242,3.41824,0.47306,-0.88818132,0.379454595,-0.23388612
1764763277.7694132,-1.02242,3.41824,0.47306,-0.88818132,0.379454595,-0.23388612
1764763277.7694132,-1.02242,3.41824,0.47306,-0.88818132,0.379454595,-0.23388612
1764763277.7694132,-1.02242,3.41824,0.47306,-0.88818132,0.379454595,-0.23388612
1764763277.7694132,-0.54936,3.31142,0.10682,-0.888364425,0.37890528,-0.23327577
1764763277.7694132,-0.54936,3.31142,0.10682,-0.888364425,0.37890528,-0.23327577
1764763277.7694132,-0.54936,3.31142,0.10682,-0.888364425,0.37890528,-0.23327577
1764763277.7694132,-0.54936,3.31142,0.10682,-0.888364425,0.37890528,-0.23327577
1764763277.7694132,-0.54936,3.31142,0.10682,-0.888364425,0.37890528,-0.23327577
1764763277.7694132,-0.54936,3.31142,0.10682,-0.888364425,0.37890528,-0.23327577
1764763277.7694132,-0.54936,3.31142,0.10682,-0.888364425,0.37890528,-0.23327577
1764763277.7694132,-0.54936,3.31142,0.10682,-0.888364425,0.37890528,-0.23327577
1764763277.814395,-0.54936,3.31142,0.10682,-0.888364425,0.37890528,-0.23327577
1764763277.814395,-0.54936,3.31142,0.10682,-0.888364425,0.37890528,-0.23327577
1764763277.814395,0.04578,3.55558,0.28994,-0.8881202850000001,0.37853907,-0.2331537
1764763277.814395,0.04578,3.55558,0.28994,-0.8881202850000001,0.37853907,-0.2331537
1764763277.814395,0.04578,3.55558,0.28994,-0.8881202850000001,0.37853907,-0.2331537
1764763277.814395,0.04578,3.55558,0.28994,-0.8881202850000001,0.37853907,-0.2331537
1764763277.814395,0.04578,3.55558,0.28994,-0.8881202850000001,0.37853907,-0.2331537
1764763277.814395,0.04578,3.55558,0.28994,-0.8881202850000001,0.37853907,-0.2331537
1764763277.814395,0.04578,3.55558,0.28994,-0.8881202850000001,0.37853907,-0.2331537
1764763277.814395,0.04578,3.55558,0.28994,-0.8881202850000001,0.37853907,-0.2331537
1764763277.814395,0.04578,3.55558,0.28994,-0.8881202850000001,0.37853907,-0.2331537
1764763277.814395,0.04578,3.55558,0.28994,-0.8881202850000001,0.37853907,-0.2331537
1764763277.814395,0.71722,2.88414,-0.3815,-0.88769304,0.37829493,-0.23461854
1764763277.814395,0.71722,2.88414,-0.3815,-0.88769304,0.37829493,-0.23461854
1764763277.814395,0.71722,2.88414,-0.3815,-0.88769304,0.37829493,-0.23461854
1764763277.814395,0.71722,2.88414,-0.3815,-0.88769304,0.37829493,-0.23461854
1764763277.814395,0.71722,2.88414,-0.3815,-0.88769304,0.37829493,-0.23461854
1764763277.814395,0.71722,2.88414,-0.3815,-0.88769304,0.37829493,-0.23461854
1764763277.814395,0.71722,2.88414,-0.3815,-0.88769304,0.37829493,-0.23461854
1764763277.814395,0.71722,2.88414,-0.3815,-0.88769304,0.37829493,-0.23461854
1764763277.814395,0.71722,2.88414,-0.3815,-0.88769304,0.37829493,-0.23461854
1764763277.814395,0.71722,2.88414,-0.3815,-0.88769304,0.37829493,-0.23461854
1764763277.8613205,-0.13734,3.44876,-0.3509799999999999,-0.88830339,0.37878321,-0.236144415
1764763277.8613205,-0.13734,3.44876,-0.3509799999999999,-0.88830339,0.37878321,-0.236144415
1764763277.8613205,-0.13734,3.44876,-0.3509799999999999,-0.88830339,0.37878321,-0.236144415
1764763277.8613205,-0.13734,3.44876,-0.3509799999999999,-0.88830339,0.37878321,-0.236144415
1764763277.8613205,-0.13734,3.44876,-0.3509799999999999,-0.88830339,0.37878321,-0.236144415
1764763277.8613205,-0.13734,3.44876,-0.3509799999999999,-0.88830339,0.37878321,-0.236144415
1764763277.8613205,-0.13734,3.44876,-0.3509799999999999,-0.88830339,0.37878321,-0.236144415
1764763277.8613205,-0.13734,3.44876,-0.3509799999999999,-0.88830339,0.37878321,-0.236144415
1764763277.8613205,-0.13734,3.44876,-0.3509799999999999,-0.88830339,0.37878321,-0.236144415
1764763277.8613205,-0.13734,3.44876,-0.3509799999999999,-0.88830339,0.37878321,-0.236144415
1764763277.8613205,-0.36624,3.57084,0.73248,-0.89135514,0.3796377,-0.23705994
1764763277.8613205,-0.36624,3.57084,0.73248,-0.89135514,0.3796377,-0.23705994
1764763277.8613205,-0.36624,3.57084,0.73248,-0.89135514,0.3796377,-0.23705994
1764763277.8613205,-0.36624,3.57084,0.73248,-0.89135514,0.3796377,-0.23705994
1764763277.8613205,-0.36624,3.57084,0.73248,-0.89135514,0.3796377,-0.23705994
1764763277.8613205,-0.36624,3.57084,0.73248,-0.89135514,0.3796377,-0.23705994
1764763277.8613205,-0.36624,3.57084,0.73248,-0.89135514,0.3796377,-0.23705994
1764763277.8613205,-0.36624,3.57084,0.73248,-0.89135514,0.3796377,-0.23705994
1764763277.8613205,-0.36624,3.57084,0.73248,-0.89135514,0.3796377,-0.23705994
1764763277.8613205,-0.36624,3.57084,0.73248,-0.89135514,0.3796377,-0.23705994
1764763277.8613205,-0.85456,3.44876,1.00716,-0.89184342,0.381163575,-0.236754765
1764763277.8613205,-0.85456,3.44876,1.00716,-0.89184342,0.381163575,-0.236754765
1764763277.8613205,-0.85456,3.44876,1.00716,-0.89184342,0.381163575,-0.236754765
1764763277.8613205,-0.85456,3.44876,1.00716,-0.89184342,0.381163575,-0.236754765
1764763277.9050655,-0.85456,3.44876,1.00716,-0.89184342,0.381163575,-0.236754765
1764763277.905616,-0.85456,3.44876,1.00716,-0.89184342,0.381163575,-0.236754765
1764763277.905616,-0.85456,3.44876,1.00716,-0.89184342,0.381163575,-0.236754765
1764763277.905616,-0.85456,3.44876,1.00716,-0.89184342,0.381163575,-0.236754765
1764763277.9066763,-0.85456,3.44876,1.00716,-0.89184342,0.381163575,-0.236754765
1764763277.9066763,-0.85456,3.44876,1.00716,-0.89184342,0.381163575,-0.236754765
1764763277.9066763,-0.21364,2.8994,0.39676,-0.889951335,0.38256738,-0.23620545
1764763277.9066763,-0.21364,2.8994,0.39676,-0.889951335,0.38256738,-0.23620545
1764763277.9066763,-0.21364,2.8994,0.39676,-0.889951335,0.38256738,-0.23620545
1764763277.9066763,-0.21364,2.8994,0.39676,-0.889951335,0.38256738,-0.23620545
1764763277.9066763,-0.21364,2.8994,0.39676,-0.889951335,0.38256738,-0.23620545
1764763277.9066763,-0.21364,2.8994,0.39676,-0.889951335,0.38256738,-0.23620545
1764763277.9066763,-0.21364,2.8994,0.39676,-0.889951335,0.38256738,-0.23620545
1764763277.9066763,-0.21364,2.8994,0.39676,-0.889951335,0.38256738,-0.23620545
1764763277.9066763,-0.21364,2.8994,0.39676,-0.889951335,0.38256738,-0.23620545
1764763277.9066763,-0.21364,2.8994,0.39676,-0.889951335,0.38256738,-0.23620545
1764763277.9066763,-1.17502,3.5098,0.5341,-0.88769304,0.381285645,-0.237243045
1764763277.9066763,-1.17502,3.5098,0.5341,-0.88769304,0.381285645,-0.237243045
1764763277.907085,-1.17502,3.5098,0.5341,-0.88769304,0.381285645,-0.237243045
1764763277.907085,-1.17502,3.5098,0.5341,-0.88769304,0.381285645,-0.237243045
1764763277.907085,-1.17502,3.5098,0.5341,-0.88769304,0.381285645,-0.237243045
1764763277.907085,-1.17502,3.5098,0.5341,-0.88769304,0.381285645,-0.237243045
1764763277.954192,-1.17502,3.5098,0.5341,-0.88769304,0.381285645,-0.237243045
1764763277.954192,-1.17502,3.5098,0.5341,-0.88769304,0.381285645,-0.237243045
1764763277.954192,-1.17502,3.5098,0.5341,-0.88769304,0.381285645,-0.237243045
1764763277.954192,-1.17502,3.5098,0.5341,-0.88769304,0.381285645,-0.237243045
1764763277.954192,-2.92992,2.99096,0.04578,-0.888242355,0.38122461,-0.23828064
1764763277.954192,-2.92992,2.99096,0.04578,-0.888242355,0.38122461,-0.23828064
1764763277.954192,-2.92992,2.99096,0.04578,-0.888242355,0.38122461,-0.23828064
1764763277.954192,-2.92992,2.99096,0.04578,-0.888242355,0.38122461,-0.23828064
1764763277.954192,-2.92992,2.99096,0.04578,-0.888242355,0.38122461,-0.23828064
1764763277.954192,-2.92992,2.99096,0.04578,-0.888242355,0.38122461,-0.23828064
1764763277.954192,-2.92992,2.99096,0.04578,-0.888242355,0.38122461,-0.23828064
1764763277.954192,-2.92992,2.99096,0.04578,-0.888242355,0.38122461,-0.23828064
1764763277.954192,-2.92992,2.99096,0.04578,-0.888242355,0.38122461,-0.23828064
1764763277.954192,-2.92992,2.99096,0.04578,-0.888242355,0.38122461,-0.23828064
1764763277.954192,-4.62378,3.14356,0.01526,-0.88830339,0.381529785,-0.23742615
1764763277.954192,-4.62378,3.14356,0.01526,-0.88830339,0.381529785,-0.23742615
1764763277.954192,-4.62378,3.14356,0.01526,-0.88830339,0.381529785,-0.23742615
1764763277.954192,-4.62378,3.14356,0.01526,-0.88830339,0.381529785,-0.23742615
1764763277.954192,-4.62378,3.14356,0.01526,-0.88830339,0.381529785,-0.23742615
1764763277.954192,-4.62378,3.14356,0.01526,-0.88830339,0.381529785,-0.23742615
1764763277.954192,-4.62378,3.14356,0.01526,-0.88830339,0.381529785,-0.23742615
1764763277.954192,-4.62378,3.14356,0.01526,-0.88830339,0.381529785,-0.23742615
1764763277.954192,-4.62378,3.14356,0.01526,-0.88830339,0.381529785,-0.23742615
1764763277.954192,-4.62378,3.14356,0.01526,-0.88830339,0.381529785,-0.23742615
1764763278.0031292,-4.577999999999999,3.31142,-0.13734,-0.887754075,0.380919435,-0.235045785
1764763278.0031292,-4.577999999999999,3.31142,-0.13734,-0.887754075,0.380919435,-0.235045785
1764763278.0031292,-4.577999999999999,3.31142,-0.13734,-0.887754075,0.380919435,-0.235045785
1764763278.0031292,-4.577999999999999,3.31142,-0.13734,-0.887754075,0.380919435,-0.235045785
1764763278.0031292,-4.577999999999999,3.31142,-0.13734,-0.887754075,0.380919435,-0.235045785
1764763278.0031292,-4.577999999999999,3.31142,-0.13734,-0.887754075,0.380919435,-0.235045785
1764763278.0031292,-4.577999999999999,3.31142,-0.13734,-0.887754075,0.380919435,-0.235045785
1764763278.0031292,-4.577999999999999,3.31142,-0.13734,-0.887754075,0.380919435,-0.235045785
1764763278.0031292,-4.577999999999999,3.31142,-0.13734,-0.887754075,0.380919435,-0.235045785
1764763278.0031292,-4.577999999999999,3.31142,-0.13734,-0.887754075,0.380919435,-0.235045785
1764763278.0031292,-3.5861,3.83026,-0.74774,-0.888364425,0.37951563,-0.234069225
1764763278.0031292,-3.5861,3.83026,-0.74774,-0.888364425,0.37951563,-0.234069225
1764763278.0031292,-3.5861,3.83026,-0.74774,-0.888364425,0.37951563,-0.234069225
1764763278.0031292,-3.5861,3.83026,-0.74774,-0.888364425,0.37951563,-0.234069225
1764763278.0031292,-3.5861,3.83026,-0.74774,-0.888364425,0.37951563,-0.234069225
1764763278.0031292,-3.5861,3.83026,-0.74774,-0.888364425,0.37951563,-0.234069225
1764763278.0031292,-3.5861,3.83026,-0.74774,-0.888364425,0.37951563,-0.234069225
1764763278.0031292,-3.5861,3.83026,-0.74774,-0.888364425,0.37951563,-0.234069225
1764763278.0031292,-3.5861,3.83026,-0.74774,-0.888364425,0.37951563,-0.234069225
1764763278.0031292,-3.5861,3.83026,-0.74774,-0.888364425,0.37951563,-0.234069225
1764763278.0031292,-2.80784,3.09778,0.4578,-0.890195475,0.37988184,-0.233458875
1764763278.0031292,-2.80784,3.09778,0.4578,-0.890195475,0.37988184,-0.233458875
1764763278.0031292,-2.80784,3.09778,0.4578,-0.890195475,0.37988184,-0.233458875
1764763278.0031292,-2.80784,3.09778,0.4578,-0.890195475,0.37988184,-0.233458875
1764763278.0473373,-2.80784,3.09778,0.4578,-0.890195475,0.37988184,-0.233458875
1764763278.0473373,-2.80784,3.09778,0.4578,-0.890195475,0.37988184,-0.233458875
1764763278.0473373,-2.80784,3.09778,0.4578,-0.890195475,0.37988184,-0.233458875
1764763278.0473373,-2.80784,3.09778,0.4578,-0.890195475,0.37988184,-0.233458875
1764763278.0473373,-2.80784,3.09778,0.4578,-0.890195475,0.37988184,-0.233458875
1764763278.0473373,-2.80784,3.09778,0.4578,-0.890195475,0.37988184,-0.233458875
1764763278.0473373,-3.44876,3.18934,0.47306,-0.8912941050000001,0.38073633,-0.23449647
1764763278.0473373,-3.44876,3.18934,0.47306,-0.8912941050000001,0.38073633,-0.23449647
1764763278.0483544,-3.44876,3.18934,0.47306,-0.8912941050000001,0.38073633,-0.23449647
1764763278.0483544,-3.44876,3.18934,0.47306,-0.8912941050000001,0.38073633,-0.23449647
1764763278.0483544,-3.44876,3.18934,0.47306,-0.8912941050000001,0.38073633,-0.23449647
1764763278.0483544,-3.44876,3.18934,0.47306,-0.8912941050000001,0.38073633,-0.23449647
1764763278.0483544,-3.44876,3.18934,0.47306,-0.8912941050000001,0.38073633,-0.23449647
1764763278.0483544,-3.44876,3.18934,0.47306,-0.8912941050000001,0.38073633,-0.23449647
1764763278.0483544,-3.44876,3.18934,0.47306,-0.8912941050000001,0.38073633,-0.23449647
1764763278.0483544,-3.44876,3.18934,0.47306,-0.8912941050000001,0.38073633,-0.23449647
1764763278.0493596,-4.303319999999999,2.92992,-0.13734,-0.890195475,0.38146875,-0.234801645
1764763278.0493596,-4.303319999999999,2.92992,-0.13734,-0.890195475,0.38146875,-0.234801645
1764763278.0498266,-4.303319999999999,2.92992,-0.13734,-0.890195475,0.38146875,-0.234801645
1764763278.0498266,-4.303319999999999,2.92992,-0.13734,-0.890195475,0.38146875,-0.234801645
1764763278.0498266,-4.303319999999999,2.92992,-0.13734,-0.890195475,0.38146875,-0.234801645
1764763278.0498266,-4.303319999999999,2.92992,-0.13734,-0.890195475,0.38146875,-0.234801645
1764763278.0498266,-4.303319999999999,2.92992,-0.13734,-0.890195475,0.38146875,-0.234801645
1764763278.0503514,-4.303319999999999,2.92992,-0.13734,-0.890195475,0.38146875,-0.234801645
1764763278.0968692,-4.303319999999999,2.92992,-0.13734,-0.890195475,0.38146875,-0.234801645
1764763278.0968692,-4.303319999999999,2.92992,-0.13734,-0.890195475,0.38146875,-0.234801645
1764763278.0968692,-4.99002,2.8231,-0.01526,-0.891111,0.38159082,-0.23400819
1764763278.0968692,-4.99002,2.8231,-0.01526,-0.891111,0.38159082,-0.23400819
1764763278.0968692,-4.99002,2.8231,-0.01526,-0.891111,0.38159082,-0.23400819
1764763278.0968692,-4.99002,2.8231,-0.01526,-0.891111,0.38159082,-0.23400819
1764763278.0968692,-4.99002,2.8231,-0.01526,-0.891111,0.38159082,-0.23400819
1764763278.0968692,-4.99002,2.8231,-0.01526,-0.891111,0.38159082,-0.23400819
1764763278.0968692,-4.99002,2.8231,-0.01526,-0.891111,0.38159082,-0.23400819
1764763278.0968692,-4.99002,2.8231,-0.01526,-0.891111,0.38159082,-0.23400819
1764763278.0968692,-4.99002,2.8231,-0.01526,-0.891111,0.38159082,-0.23400819
1764763278.0968692,-4.99002,2.8231,-0.01526,-0.891111,0.38159082,-0.23400819
1764763278.0968692,-3.8913,3.00622,-0.1525999999999999,-0.888730635,0.380309085,-0.232116105
1764763278.0968692,-3.8913,3.00622,-0.1525999999999999,-0.888730635,0.380309085,-0.232116105
1764763278.0968692,-3.8913,3.00622,-0.1525999999999999,-0.888730635,0.380309085,-0.232116105
1764763278.0968692,-3.8913,3.00622,-0.1525999999999999,-0.888730635,0.380309085,-0.232116105
1764763278.0968692,-3.8913,3.00622,-0.1525999999999999,-0.888730635,0.380309085,-0.232116105
1764763278.0968692,-3.8913,3.00622,-0.1525999999999999,-0.888730635,0.380309085,-0.232116105
1764763278.0968692,-3.8913,3.00622,-0.1525999999999999,-0.888730635,0.380309085,-0.232116105
1764763278.0968692,-3.8913,3.00622,-0.1525999999999999,-0.888730635,0.380309085,-0.232116105
1764763278.0968692,-3.8913,3.00622,-0.1525999999999999,-0.888730635,0.380309085,-0.232116105
1764763278.0968692,-3.8913,3.00622,-0.1525999999999999,-0.888730635,0.380309085,-0.232116105
1764763278.0968692,-1.87698,3.5098,0.01526,-0.8876320050000001,0.378478035,-0.230040915
1764763278.0968692,-1.87698,3.5098,0.01526,-0.8876320050000001,0.378478035,-0.230040915
1764763278.1418712,-1.87698,3.5098,0.01526,-0.8876320050000001,0.378478035,-0.230040915
1764763278.1418712,-1.87698,3.5098,0.01526,-0.8876320050000001,0.378478035,-0.230040915
1764763278.1418712,-1.87698,3.5098,0.01526,-0.8876320050000001,0.378478035,-0.230040915
1764763278.1418712,-1.87698,3.5098,0.01526,-0.8876320050000001,0.378478035,-0.230040915
1764763278.1418712,-1.87698,3.5098,0.01526,-0.8876320050000001,0.378478035,-0.230040915
1764763278.1418712,-1.87698,3.5098,0.01526,-0.8876320050000001,0.378478035,-0.230040915
1764763278.1418712,-1.87698,3.5098,0.01526,-0.8876320050000001,0.378478035,-0.230040915
1764763278.1418712,-1.87698,3.5098,0.01526,-0.8876320050000001,0.378478035,-0.230040915
1764763278.1418712,-0.6867,3.52506,0.04578,-0.888852705,0.376524915,-0.230895405
1764763278.1418712,-0.6867,3.52506,0.04578,-0.888852705,0.376524915,-0.230895405
1764763278.1418712,-0.6867,3.52506,0.04578,-0.888852705,0.376524915,-0.230895405
1764763278.1434171,-0.6867,3.52506,0.04578,-0.888852705,0.376524915,-0.230895405
1764763278.1434171,-0.6867,3.52506,0.04578,-0.888852705,0.376524915,-0.230895405
1764763278.1434171,-0.6867,3.52506,0.04578,-0.888852705,0.376524915,-0.230895405
1764763278.1434171,-0.6867,3.52506,0.04578,-0.888852705,0.376524915,-0.230895405
1764763278.1434171,-0.6867,3.52506,0.04578,-0.888852705,0.376524915,-0.230895405
1764763278.1434171,-0.6867,3.52506,0.04578,-0.888852705,0.376524915,-0.230895405
1764763278.1434171,-0.6867,3.52506,0.04578,-0.888852705,0.376524915,-0.230895405
1764763278.1434171,-0.74774,3.5098,0.1525999999999999,-0.889951335,0.377623545,-0.23242128
1764763278.1434171,-0.74774,3.5098,0.1525999999999999,-0.889951335,0.377623545,-0.23242128
1764763278.1434171,-0.74774,3.5098,0.1525999999999999,-0.889951335,0.377623545,-0.23242128
1764763278.1434171,-0.74774,3.5098,0.1525999999999999,-0.889951335,0.377623545,-0.23242128
1764763278.1434171,-0.74774,3.5098,0.1525999999999999,-0.889951335,0.377623545,-0.23242128
1764763278.1434171,-0.74774,3.5098,0.1525999999999999,-0.889951335,0.377623545,-0.23242128
1764763278.1916306,-0.74774,3.5098,0.1525999999999999,-0.889951335,0.377623545,-0.23242128
1764763278.1916306,-0.74774,3.5098,0.1525999999999999,-0.889951335,0.377623545,-0.23242128
1764763278.1916306,-0.74774,3.5098,0.1525999999999999,-0.889951335,0.377623545,-0.23242128
1764763278.1916306,-0.74774,3.5098,0.1525999999999999,-0.889951335,0.377623545,-0.23242128
1764763278.1916306,-0.8698199999999999,3.31142,0.42728,-0.89050065,0.379698735,-0.23205507
1764763278.1926258,-0.8698199999999999,3.31142,0.42728,-0.89050065,0.379698735,-0.23205507
1764763278.1926258,-0.8698199999999999,3.31142,0.42728,-0.89050065,0.379698735,-0.23205507
1764763278.1926258,-0.8698199999999999,3.31142,0.42728,-0.89050065,0.379698735,-0.23205507
1764763278.1926258,-0.8698199999999999,3.31142,0.42728,-0.89050065,0.379698735,-0.23205507
1764763278.1926258,-0.8698199999999999,3.31142,0.42728,-0.89050065,0.379698735,-0.23205507
1764763278.1926258,-0.8698199999999999,3.31142,0.42728,-0.89050065,0.379698735,-0.23205507
1764763278.1926258,-0.8698199999999999,3.31142,0.42728,-0.89050065,0.379698735,-0.23205507
1764763278.1926258,-0.8698199999999999,3.31142,0.42728,-0.89050065,0.379698735,-0.23205507
1764763278.1926258,-0.8698199999999999,3.31142,0.42728,-0.89050065,0.379698735,-0.23205507
1764763278.1926258,-0.88508,2.96044,0.28994,-0.88952409,0.38012598,-0.23168886
1764763278.1926258,-0.88508,2.96044,0.28994,-0.88952409,0.38012598,-0.23168886
1764763278.1926258,-0.88508,2.96044,0.28994,-0.88952409,0.38012598,-0.23168886
1764763278.1926258,-0.88508,2.96044,0.28994,-0.88952409,0.38012598,-0.23168886
1764763278.1926258,-0.88508,2.96044,0.28994,-0.88952409,0.38012598,-0.23168886
1764763278.1926258,-0.88508,2.96044,0.28994,-0.88952409,0.38012598,-0.23168886
1764763278.1926258,-0.88508,2.96044,0.28994,-0.88952409,0.38012598,-0.23168886
1764763278.1926258,-0.88508,2.96044,0.28994,-0.88952409,0.38012598,-0.23168886
1764763278.2378268,-0.88508,2.96044,0.28994,-0.88952409,0.38012598,-0.23168886
1764763278.2378268,-0.88508,2.96044,0.28994,-0.88952409,0.38012598,-0.23168886
1764763278.2378268,-0.3509799999999999,3.64714,0.50358,-0.889463055,0.380553225,-0.231383685
1764763278.2378268,-0.3509799999999999,3.64714,0.50358,-0.889463055,0.380553225,-0.231383685
1764763278.2378268,-0.3509799999999999,3.64714,0.50358,-0.889463055,0.380553225,-0.231383685
1764763278.2378268,-0.3509799999999999,3.64714,0.50358,-0.889463055,0.380553225,-0.231383685
1764763278.2378268,-0.3509799999999999,3.64714,0.50358,-0.889463055,0.380553225,-0.231383685
1764763278.2378268,-0.3509799999999999,3.64714,0.50358,-0.889463055,0.380553225,-0.231383685
1764763278.2378268,-0.3509799999999999,3.64714,0.50358,-0.889463055,0.380553225,-0.231383685
1764763278.2378268,-0.3509799999999999,3.64714,0.50358,-0.889463055,0.380553225,-0.231383685
1764763278.2378268,-0.3509799999999999,3.64714,0.50358,-0.889463055,0.380553225,-0.231383685
1764763278.2378268,-0.3509799999999999,3.64714,0.50358,-0.889463055,0.380553225,-0.231383685
1764763278.2378268,-0.74774,3.47928,0.3051999999999999,-0.889463055,0.38134668,-0.231933
1764763278.2378268,-0.74774,3.47928,0.3051999999999999,-0.889463055,0.38134668,-0.231933
1764763278.2378268,-0.74774,3.47928,0.3051999999999999,-0.889463055,0.38134668,-0.231933
1764763278.2378268,-0.74774,3.47928,0.3051999999999999,-0.889463055,0.38134668,-0.231933
1764763278.2383366,-0.74774,3.47928,0.3051999999999999,-0.889463055,0.38134668,-0.231933
1764763278.2383366,-0.74774,3.47928,0.3051999999999999,-0.889463055,0.38134668,-0.231933
1764763278.2383366,-0.74774,3.47928,0.3051999999999999,-0.889463055,0.38134668,-0.231933
1764763278.2383366,-0.74774,3.47928,0.3051999999999999,-0.889463055,0.38134668,-0.231933
1764763278.2383366,-0.74774,3.47928,0.3051999999999999,-0.889463055,0.38134668,-0.231933
1764763278.2383366,-0.74774,3.47928,0.3051999999999999,-0.889463055,0.38134668,-0.231933
1764763278.2809796,-0.8698199999999999,3.6624,0.3357199999999999,-0.88927995,0.380064945,-0.232116105
1764763278.2809796,-0.8698199999999999,3.6624,0.3357199999999999,-0.88927995,0.380064945,-0.232116105
1764763278.2809796,-0.8698199999999999,3.6624,0.3357199999999999,-0.88927995,0.380064945,-0.232116105
1764763278.2809796,-0.8698199999999999,3.6624,0.3357199999999999,-0.88927995,0.380064945,-0.232116105
1764763278.2809796,-0.8698199999999999,3.6624,0.3357199999999999,-0.88927995,0.380064945,-0.232116105
1764763278.2809796,-0.8698199999999999,3.6624,0.3357199999999999,-0.88927995,0.380064945,-0.232116105
1764763278.2819989,-0.8698199999999999,3.6624,0.3357199999999999,-0.88927995,0.380064945,-0.232116105
1764763278.2819989,-0.8698199999999999,3.6624,0.3357199999999999,-0.88927995,0.380064945,-0.232116105
1764763278.2819989,-0.8698199999999999,3.6624,0.3357199999999999,-0.88927995,0.380064945,-0.232116105
1764763278.2819989,-0.8698199999999999,3.6624,0.3357199999999999,-0.88927995,0.380064945,-0.232116105
1764763278.2819989,-1.02242,3.41824,0.47306,-0.88927995,0.380064945,-0.23181093
1764763278.2819989,-1.02242,3.41824,0.47306,-0.88927995,0.380064945,-0.23181093
1764763278.2819989,-1.02242,3.41824,0.47306,-0.88927995,0.380064945,-0.23181093
1764763278.2819989,-1.02242,3.41824,0.47306,-0.88927995,0.380064945,-0.23181093
1764763278.2819989,-1.02242,3.41824,0.47306,-0.88927995,0.380064945,-0.23181093
1764763278.2819989,-1.02242,3.41824,0.47306,-0.88927995,0.380064945,-0.23181093
1764763278.2819989,-1.02242,3.41824,0.47306,-0.88927995,0.380064945,-0.23181093
1764763278.2819989,-1.02242,3.41824,0.47306,-0.88927995,0.380064945,-0.23181093
1764763278.2819989,-1.02242,3.41824,0.47306,-0.88927995,0.380064945,-0.23181093
1764763278.2819989,-1.02242,3.41824,0.47306,-0.88927995,0.380064945,-0.23181093
1764763278.2819989,-1.84646,4.24228,0.5341,-0.8891578800000001,0.380675295,-0.231505755
1764763278.2819989,-1.84646,4.24228,0.5341,-0.8891578800000001,0.380675295,-0.231505755
1764763278.2819989,-1.84646,4.24228,0.5341,-0.8891578800000001,0.380675295,-0.231505755
1764763278.2819989,-1.84646,4.24228,0.5341,-0.8891578800000001,0.380675295,-0.231505755
1764763278.3312292,-1.84646,4.24228,0.5341,-0.8891578800000001,0.380675295,-0.231505755
1764763278.3312292,-1.84646,4.24228,0.5341,-0.8891578800000001,0.380675295,-0.231505755
1764763278.3312292,-1.84646,4.24228,0.5341,-0.8891578800000001,0.380675295,-0.231505755
1764763278.3312292,-1.84646,4.24228,0.5341,-0.8891578800000001,0.380675295,-0.231505755
1764763278.3312292,-1.84646,4.24228,0.5341,-0.8891578800000001,0.380675295,-0.231505755
1764763278.3312292,-1.84646,4.24228,0.5341,-0.8891578800000001,0.380675295,-0.231505755
1764763278.3312292,-1.4039199999999998,3.75396,0.6714399999999999,-0.890439615,0.380675295,-0.23046816
1764763278.3312292,-1.4039199999999998,3.75396,0.6714399999999999,-0.890439615,0.380675295,-0.23046816
1764763278.3312292,-1.4039199999999998,3.75396,0.6714399999999999,-0.890439615,0.380675295,-0.23046816
1764763278.3312292,-1.4039199999999998,3.75396,0.6714399999999999,-0.890439615,0.380675295,-0.23046816
1764763278.3312292,-1.4039199999999998,3.75396,0.6714399999999999,-0.890439615,0.380675295,-0.23046816
1764763278.331596,-1.4039199999999998,3.75396,0.6714399999999999,-0.890439615,0.380675295,-0.23046816
1764763278.331596,-1.4039199999999998,3.75396,0.6714399999999999,-0.890439615,0.380675295,-0.23046816
1764763278.331596,-1.4039199999999998,3.75396,0.6714399999999999,-0.890439615,0.380675295,-0.23046816
1764763278.331596,-1.4039199999999998,3.75396,0.6714399999999999,-0.890439615,0.380675295,-0.23046816
1764763278.331596,-1.4039199999999998,3.75396,0.6714399999999999,-0.890439615,0.380675295,-0.23046816
1764763278.331596,-0.12208,4.2728,0.7019599999999999,-0.88903581,0.379454595,-0.229308495
1764763278.331596,-0.12208,4.2728,0.7019599999999999,-0.88903581,0.379454595,-0.229308495
1764763278.331596,-0.12208,4.2728,0.7019599999999999,-0.88903581,0.379454595,-0.229308495
1764763278.331596,-0.12208,4.2728,0.7019599999999999,-0.88903581,0.379454595,-0.229308495
1764763278.331596,-0.12208,4.2728,0.7019599999999999,-0.88903581,0.379454595,-0.229308495
1764763278.331596,-0.12208,4.2728,0.7019599999999999,-0.88903581,0.379454595,-0.229308495
1764763278.331596,-0.12208,4.2728,0.7019599999999999,-0.88903581,0.379454595,-0.229308495
1764763278.331596,-0.12208,4.2728,0.7019599999999999,-0.88903581,0.379454595,-0.229308495
1764763278.3748603,-0.12208,4.2728,0.7019599999999999,-0.88903581,0.379454595,-0.229308495
1764763278.3748603,-0.12208,4.2728,0.7019599999999999,-0.88903581,0.379454595,-0.229308495
1764763278.3748603,0.57988,3.32668,0.19838,-0.8886696000000001,0.37744044,-0.230773335
1764763278.3748603,0.57988,3.32668,0.19838,-0.8886696000000001,0.37744044,-0.230773335
1764763278.3748603,0.57988,3.32668,0.19838,-0.8886696000000001,0.37744044,-0.230773335
1764763278.3748603,0.57988,3.32668,0.19838,-0.8886696000000001,0.37744044,-0.230773335
1764763278.3748603,0.57988,3.32668,0.19838,-0.8886696000000001,0.37744044,-0.230773335
1764763278.3748603,0.57988,3.32668,0.19838,-0.8886696000000001,0.37744044,-0.230773335
1764763278.3758748,0.57988,3.32668,0.19838,-0.8886696000000001,0.37744044,-0.230773335
1764763278.3758748,0.57988,3.32668,0.19838,-0.8886696000000001,0.37744044,-0.230773335
1764763278.3758748,0.57988,3.32668,0.19838,-0.8886696000000001,0.37744044,-0.230773335
1764763278.3758748,0.57988,3.32668,0.19838,-0.8886696000000001,0.37744044,-0.230773335
1764763278.3758748,1.0682,3.79974,0.9003399999999999,-0.890439615,0.376891125,-0.23242128
1764763278.3758748,1.0682,3.79974,0.9003399999999999,-0.890439615,0.376891125,-0.23242128
1764763278.3758748,1.0682,3.79974,0.9003399999999999,-0.890439615,0.376891125,-0.23242128
1764763278.3758748,1.0682,3.79974,0.9003399999999999,-0.890439615,0.376891125,-0.23242128
1764763278.3758748,1.0682,3.79974,0.9003399999999999,-0.890439615,0.376891125,-0.23242128
1764763278.3758748,1.0682,3.79974,0.9003399999999999,-0.890439615,0.376891125,-0.23242128
1764763278.3758748,1.0682,3.79974,0.9003399999999999,-0.890439615,0.376891125,-0.23242128
1764763278.3758748,1.0682,3.79974,0.9003399999999999,-0.890439615,0.376891125,-0.23242128
1764763278.3758748,1.0682,3.79974,0.9003399999999999,-0.890439615,0.376891125,-0.23242128
1764763278.37688,1.0682,3.79974,0.9003399999999999,-0.890439615,0.376891125,-0.23242128
1764763278.37688,0.9003399999999999,3.41824,2.27374,-0.89269791,0.378417,-0.23229921
1764763278.37688,0.9003399999999999,3.41824,2.27374,-0.89269791,0.378417,-0.23229921
1764763278.4208963,0.9003399999999999,3.41824,2.27374,-0.89269791,0.378417,-0.23229921
1764763278.4208963,0.9003399999999999,3.41824,2.27374,-0.89269791,0.378417,-0.23229921
1764763278.4208963,0.9003399999999999,3.41824,2.27374,-0.89269791,0.378417,-0.23229921
1764763278.4208963,0.9003399999999999,3.41824,2.27374,-0.89269791,0.378417,-0.23229921
1764763278.4208963,0.9003399999999999,3.41824,2.27374,-0.89269791,0.378417,-0.23229921
1764763278.4208963,0.9003399999999999,3.41824,2.27374,-0.89269791,0.378417,-0.23229921
1764763278.4208963,0.9003399999999999,3.41824,2.27374,-0.89269791,0.378417,-0.23229921
1764763278.4208963,0.9003399999999999,3.41824,2.27374,-0.89269791,0.378417,-0.23229921
1764763278.4208963,1.6022999999999998,3.02148,0.88508,-0.89159928,0.3808584,-0.231261615
1764763278.4208963,1.6022999999999998,3.02148,0.88508,-0.89159928,0.3808584,-0.231261615
1764763278.4208963,1.6022999999999998,3.02148,0.88508,-0.89159928,0.3808584,-0.231261615
1764763278.4208963,1.6022999999999998,3.02148,0.88508,-0.89159928,0.3808584,-0.231261615
1764763278.4208963,1.6022999999999998,3.02148,0.88508,-0.89159928,0.3808584,-0.231261615
1764763278.4208963,1.6022999999999998,3.02148,0.88508,-0.89159928,0.3808584,-0.231261615
1764763278.4208963,1.6022999999999998,3.02148,0.88508,-0.89159928,0.3808584,-0.231261615
1764763278.4208963,1.6022999999999998,3.02148,0.88508,-0.89159928,0.3808584,-0.231261615
1764763278.4208963,1.6022999999999998,3.02148,0.88508,-0.89159928,0.3808584,-0.231261615
1764763278.4208963,1.6022999999999998,3.02148,0.88508,-0.89159928,0.3808584,-0.231261615
1764763278.4208963,2.0601,3.47928,1.2055399999999998,-0.889951335,0.3808584,-0.231871965
1764763278.4208963,2.0601,3.47928,1.2055399999999998,-0.889951335,0.3808584,-0.231871965
1764763278.4208963,2.0601,3.47928,1.2055399999999998,-0.889951335,0.3808584,-0.231871965
1764763278.4208963,2.0601,3.47928,1.2055399999999998,-0.889951335,0.3808584,-0.231871965
1764763278.4704723,2.0601,3.47928,1.2055399999999998,-0.889951335,0.3808584,-0.231871965
1764763278.4704723,2.0601,3.47928,1.2055399999999998,-0.889951335,0.3808584,-0.231871965
1764763278.4704723,2.0601,3.47928,1.2055399999999998,-0.889951335,0.3808584,-0.231871965
1764763278.4704723,2.0601,3.47928,1.2055399999999998,-0.889951335,0.3808584,-0.231871965
1764763278.4704723,2.0601,3.47928,1.2055399999999998,-0.889951335,0.3808584,-0.231871965
1764763278.4704723,2.0601,3.47928,1.2055399999999998,-0.889951335,0.3808584,-0.231871965
1764763278.4704723,1.35814,3.41824,1.1445,-0.8891578800000001,0.37988184,-0.23351991
1764763278.4704723,1.35814,3.41824,1.1445,-0.8891578800000001,0.37988184,-0.23351991
1764763278.4704723,1.35814,3.41824,1.1445,-0.8891578800000001,0.37988184,-0.23351991
1764763278.4704723,1.35814,3.41824,1.1445,-0.8891578800000001,0.37988184,-0.23351991
1764763278.4709778,1.35814,3.41824,1.1445,-0.8891578800000001,0.37988184,-0.23351991
1764763278.4709778,1.35814,3.41824,1.1445,-0.8891578800000001,0.37988184,-0.23351991
1764763278.4709778,1.35814,3.41824,1.1445,-0.8891578800000001,0.37988184,-0.23351991
1764763278.4709778,1.35814,3.41824,1.1445,-0.8891578800000001,0.37988184,-0.23351991
1764763278.4709778,1.35814,3.41824,1.1445,-0.8891578800000001,0.37988184,-0.23351991
1764763278.4709778,1.35814,3.41824,1.1445,-0.8891578800000001,0.37988184,-0.23351991
1764763278.4709778,0.42728,3.38772,1.2055399999999998,-0.8886696000000001,0.380309085,-0.23351991
1764763278.4709778,0.42728,3.38772,1.2055399999999998,-0.8886696000000001,0.380309085,-0.23351991
1764763278.4709778,0.42728,3.38772,1.2055399999999998,-0.8886696000000001,0.380309085,-0.23351991
1764763278.4709778,0.42728,3.38772,1.2055399999999998,-0.8886696000000001,0.380309085,-0.23351991
1764763278.4709778,0.42728,3.38772,1.2055399999999998,-0.8886696000000001,0.380309085,-0.23351991
1764763278.4709778,0.42728,3.38772,1.2055399999999998,-0.8886696000000001,0.380309085,-0.23351991
1764763278.4709778,0.42728,3.38772,1.2055399999999998,-0.8886696000000001,0.380309085,-0.23351991
1764763278.4709778,0.42728,3.38772,1.2055399999999998,-0.8886696000000001,0.380309085,-0.23351991
1764763278.5170362,0.42728,3.38772,1.2055399999999998,-0.8886696000000001,0.380309085,-0.23351991
1764763278.5170362,0.42728,3.38772,1.2055399999999998,-0.8886696000000001,0.380309085,-0.23351991
1764763278.5170362,3.8913,3.54032,0.3204599999999999,-0.887876145,0.380431155,-0.23266542
1764763278.5170362,3.8913,3.54032,0.3204599999999999,-0.887876145,0.380431155,-0.23266542
1764763278.5170362,3.8913,3.54032,0.3204599999999999,-0.887876145,0.380431155,-0.23266542
1764763278.5170362,3.8913,3.54032,0.3204599999999999,-0.887876145,0.380431155,-0.23266542
1764763278.5170362,3.8913,3.54032,0.3204599999999999,-0.887876145,0.380431155,-0.23266542
1764763278.5170362,3.8913,3.54032,0.3204599999999999,-0.887876145,0.380431155,-0.23266542
1764763278.5170362,3.8913,3.54032,0.3204599999999999,-0.887876145,0.380431155,-0.23266542
1764763278.5170362,3.8913,3.54032,0.3204599999999999,-0.887876145,0.380431155,-0.23266542
1764763278.5170362,3.8913,3.54032,0.3204599999999999,-0.887876145,0.380431155,-0.23266542
1764763278.5170362,3.8913,3.54032,0.3204599999999999,-0.887876145,0.380431155,-0.23266542
1764763278.5170362,0.01526,3.67766,0.47306,-0.88757097,0.380431155,-0.2331537
1764763278.5170362,0.01526,3.67766,0.47306,-0.88757097,0.380431155,-0.2331537
1764763278.5170362,0.01526,3.67766,0.47306,-0.88757097,0.380431155,-0.2331537
1764763278.5170362,0.01526,3.67766,0.47306,-0.88757097,0.380431155,-0.2331537
1764763278.5170362,0.01526,3.67766,0.47306,-0.88757097,0.380431155,-0.2331537
1764763278.5170362,0.01526,3.67766,0.47306,-0.88757097,0.380431155,-0.2331537
1764763278.5170362,0.01526,3.67766,0.47306,-0.88757097,0.380431155,-0.2331537
1764763278.5170362,0.01526,3.67766,0.47306,-0.88757097,0.380431155,-0.2331537
1764763278.5170362,0.01526,3.67766,0.47306,-0.88757097,0.380431155,-0.2331537
1764763278.5180385,0.01526,3.67766,0.47306,-0.88757097,0.380431155,-0.2331537
1764763278.563006,0.0762999999999999,4.18124,0.6867,-0.89001237,0.380797365,-0.23400819
1764763278.563006,0.0762999999999999,4.18124,0.6867,-0.89001237,0.380797365,-0.23400819
1764763278.563006,0.0762999999999999,4.18124,0.6867,-0.89001237,0.380797365,-0.23400819
1764763278.563006,0.0762999999999999,4.18124,0.6867,-0.89001237,0.380797365,-0.23400819
1764763278.563006,0.0762999999999999,4.18124,0.6867,-0.89001237,0.380797365,-0.23400819
1764763278.563006,0.0762999999999999,4.18124,0.6867,-0.89001237,0.380797365,-0.23400819
1764763278.563006,0.0762999999999999,4.18124,0.6867,-0.89001237,0.380797365,-0.23400819
1764763278.563006,0.0762999999999999,4.18124,0.6867,-0.89001237,0.380797365,-0.23400819
1764763278.563006,0.0762999999999999,4.18124,0.6867,-0.89001237,0.380797365,-0.23400819
1764763278.563006,0.0762999999999999,4.18124,0.6867,-0.89001237,0.380797365,-0.23400819
1764763278.563006,-0.44254,3.52506,1.38866,-0.8907447900000001,0.381285645,-0.23400819
1764763278.563006,-0.44254,3.52506,1.38866,-0.8907447900000001,0.381285645,-0.23400819
1764763278.563006,-0.44254,3.52506,1.38866,-0.8907447900000001,0.381285645,-0.23400819
1764763278.563006,-0.44254,3.52506,1.38866,-0.8907447900000001,0.381285645,-0.23400819
1764763278.563006,-0.44254,3.52506,1.38866,-0.8907447900000001,0.381285645,-0.23400819
1764763278.563006,-0.44254,3.52506,1.38866,-0.8907447900000001,0.381285645,-0.23400819
1764763278.563006,-0.44254,3.52506,1.38866,-0.8907447900000001,0.381285645,-0.23400819
1764763278.563006,-0.44254,3.52506,1.38866,-0.8907447900000001,0.381285645,-0.23400819
1764763278.563006,-0.44254,3.52506,1.38866,-0.8907447900000001,0.381285645,-0.23400819
1764763278.563006,-0.44254,3.52506,1.38866,-0.8907447900000001,0.381285645,-0.23400819
1764763278.563006,-0.763,3.76922,0.9156,-0.889218915,0.38122461,-0.23351991
1764763278.563006,-0.763,3.76922,0.9156,-0.889218915,0.38122461,-0.23351991
1764763278.563006,-0.763,3.76922,0.9156,-0.889218915,0.38122461,-0.23351991
1764763278.563006,-0.763,3.76922,0.9156,-0.889218915,0.38122461,-0.23351991
1764763278.6099768,-0.763,3.76922,0.9156,-0.889218915,0.38122461,-0.23351991
1764763278.6099768,-0.763,3.76922,0.9156,-0.889218915,0.38122461,-0.23351991
1764763278.6099768,-0.763,3.76922,0.9156,-0.889218915,0.38122461,-0.23351991
1764763278.6099768,-0.763,3.76922,0.9156,-0.889218915,0.38122461,-0.23351991
1764763278.6099768,-0.763,3.76922,0.9156,-0.889218915,0.38122461,-0.23351991
1764763278.6099768,-0.763,3.76922,0.9156,-0.889218915,0.38122461,-0.23351991
1764763278.6099768,-1.526,3.1283,0.6409199999999999,-0.888608565,0.38098047,-0.233825085
1764763278.6099768,-1.526,3.1283,0.6409199999999999,-0.888608565,0.38098047,-0.233825085
1764763278.6099768,-1.526,3.1283,0.6409199999999999,-0.888608565,0.38098047,-0.233825085
1764763278.6110108,-1.526,3.1283,0.6409199999999999,-0.888608565,0.38098047,-0.233825085
1764763278.6110108,-1.526,3.1283,0.6409199999999999,-0.888608565,0.38098047,-0.233825085
1764763278.6110108,-1.526,3.1283,0.6409199999999999,-0.888608565,0.38098047,-0.233825085
1764763278.6110108,-1.526,3.1283,0.6409199999999999,-0.888608565,0.38098047,-0.233825085
1764763278.6110108,-1.526,3.1283,0.6409199999999999,-0.888608565,0.38098047,-0.233825085
1764763278.6110108,-1.526,3.1283,0.6409199999999999,-0.888608565,0.38098047,-0.233825085
1764763278.6110108,-1.526,3.1283,0.6409199999999999,-0.888608565,0.38098047,-0.233825085
1764763278.6110108,-0.97664,3.17408,0.62566,-0.888730635,0.380675295,-0.23278749
1764763278.6110108,-0.97664,3.17408,0.62566,-0.888730635,0.380675295,-0.23278749
1764763278.6110108,-0.97664,3.17408,0.62566,-0.888730635,0.380675295,-0.23278749
1764763278.6110108,-0.97664,3.17408,0.62566,-0.888730635,0.380675295,-0.23278749
1764763278.6110108,-0.97664,3.17408,0.62566,-0.888730635,0.380675295,-0.23278749
1764763278.6110108,-0.97664,3.17408,0.62566,-0.888730635,0.380675295,-0.23278749
1764763278.6110108,-0.97664,3.17408,0.62566,-0.888730635,0.380675295,-0.23278749
1764763278.6110108,-0.97664,3.17408,0.62566,-0.888730635,0.380675295,-0.23278749
1764763278.6558452,-0.97664,3.17408,0.62566,-0.888730635,0.380675295,-0.23278749
1764763278.6558452,-0.97664,3.17408,0.62566,-0.888730635,0.380675295,-0.23278749
1764763278.6558452,-0.6867,3.15882,0.57988,-0.888730635,0.3808584,-0.232726455
1764763278.6558452,-0.6867,3.15882,0.57988,-0.888730635,0.3808584,-0.232726455
1764763278.6558452,-0.6867,3.15882,0.57988,-0.888730635,0.3808584,-0.232726455
1764763278.6558452,-0.6867,3.15882,0.57988,-0.888730635,0.3808584,-0.232726455
1764763278.6558452,-0.6867,3.15882,0.57988,-0.888730635,0.3808584,-0.232726455
1764763278.6558452,-0.6867,3.15882,0.57988,-0.888730635,0.3808584,-0.232726455
1764763278.6558452,-0.6867,3.15882,0.57988,-0.888730635,0.3808584,-0.232726455
1764763278.6558452,-0.6867,3.15882,0.57988,-0.888730635,0.3808584,-0.232726455
1764763278.6558452,-0.6867,3.15882,0.57988,-0.888730635,0.3808584,-0.232726455
1764763278.6558452,-0.6867,3.15882,0.57988,-0.888730635,0.3808584,-0.232726455
1764763278.6558452,-0.50358,3.38772,0.6867,-0.8897071950000001,0.37975977,-0.23229921
1764763278.6558452,-0.50358,3.38772,0.6867,-0.8897071950000001,0.37975977,-0.23229921
1764763278.6558452,-0.50358,3.38772,0.6867,-0.8897071950000001,0.37975977,-0.23229921
1764763278.6558452,-0.50358,3.38772,0.6867,-0.8897071950000001,0.37975977,-0.23229921
1764763278.6558452,-0.50358,3.38772,0.6867,-0.8897071950000001,0.37975977,-0.23229921
1764763278.6558452,-0.50358,3.38772,0.6867,-0.8897071950000001,0.37975977,-0.23229921
1764763278.6558452,-0.50358,3.38772,0.6867,-0.8897071950000001,0.37975977,-0.23229921
1764763278.6558452,-0.50358,3.38772,0.6867,-0.8897071950000001,0.37975977,-0.23229921
1764763278.6558452,-0.50358,3.38772,0.6867,-0.8897071950000001,0.37975977,-0.23229921
1764763278.6558452,-0.50358,3.38772,0.6867,-0.8897071950000001,0.37975977,-0.23229921
1764763278.7014143,0.19838,4.21176,0.62566,-0.88927995,0.378417,-0.232238175
1764763278.7014143,0.19838,4.21176,0.62566,-0.88927995,0.378417,-0.232238175
1764763278.7014143,0.19838,4.21176,0.62566,-0.88927995,0.378417,-0.232238175
1764763278.7014143,0.19838,4.21176,0.62566,-0.88927995,0.378417,-0.232238175
1764763278.7014143,0.19838,4.21176,0.62566,-0.88927995,0.378417,-0.232238175
1764763278.7014143,0.19838,4.21176,0.62566,-0.88927995,0.378417,-0.232238175
1764763278.7014143,0.19838,4.21176,0.62566,-0.88927995,0.378417,-0.232238175
1764763278.7014143,0.19838,4.21176,0.62566,-0.88927995,0.378417,-0.232238175
1764763278.7014143,0.19838,4.21176,0.62566,-0.88927995,0.378417,-0.232238175
1764763278.7014143,0.19838,4.21176,0.62566,-0.88927995,0.378417,-0.232238175
1764763278.7014143,0.5341,3.93708,0.77826,-0.8902565100000001,0.378722175,-0.23168886
1764763278.7014143,0.5341,3.93708,0.77826,-0.8902565100000001,0.378722175,-0.23168886
1764763278.7014143,0.5341,3.93708,0.77826,-0.8902565100000001,0.378722175,-0.23168886
1764763278.7014143,0.5341,3.93708,0.77826,-0.8902565100000001,0.378722175,-0.23168886
1764763278.7014143,0.5341,3.93708,0.77826,-0.8902565100000001,0.378722175,-0.23168886
1764763278.7024324,0.5341,3.93708,0.77826,-0.8902565100000001,0.378722175,-0.23168886
1764763278.7024324,0.5341,3.93708,0.77826,-0.8902565100000001,0.378722175,-0.23168886
1764763278.7024324,0.5341,3.93708,0.77826,-0.8902565100000001,0.378722175,-0.23168886
1764763278.7024324,0.5341,3.93708,0.77826,-0.8902565100000001,0.378722175,-0.23168886
1764763278.7024324,0.5341,3.93708,0.77826,-0.8902565100000001,0.378722175,-0.23168886
1764763278.7024324,1.03768,3.44876,0.5341,-0.88940202,0.378417,-0.23290956
1764763278.7024324,1.03768,3.44876,0.5341,-0.88940202,0.378417,-0.23290956
1764763278.7024324,1.03768,3.44876,0.5341,-0.88940202,0.378417,-0.23290956
1764763278.7024324,1.03768,3.44876,0.5341,-0.88940202,0.378417,-0.23290956
1764763278.7487166,1.03768,3.44876,0.5341,-0.88940202,0.378417,-0.23290956
1764763278.7487166,1.03768,3.44876,0.5341,-0.88940202,0.378417,-0.23290956
1764763278.7487166,1.03768,3.44876,0.5341,-0.88940202,0.378417,-0.23290956
1764763278.7487166,1.03768,3.44876,0.5341,-0.88940202,0.378417,-0.23290956
1764763278.7487166,1.03768,3.44876,0.5341,-0.88940202,0.378417,-0.23290956
1764763278.7487166,1.03768,3.44876,0.5341,-0.88940202,0.378417,-0.23290956
1764763278.7487166,-0.04578,3.52506,1.00716,-0.889951335,0.38024805,-0.234435435
1764763278.7487166,-0.04578,3.52506,1.00716,-0.889951335,0.38024805,-0.234435435
1764763278.7487166,-0.04578,3.52506,1.00716,-0.889951335,0.38024805,-0.234435435
1764763278.7487166,-0.04578,3.52506,1.00716,-0.889951335,0.38024805,-0.234435435
1764763278.7487166,-0.04578,3.52506,1.00716,-0.889951335,0.38024805,-0.234435435
1764763278.7487166,-0.04578,3.52506,1.00716,-0.889951335,0.38024805,-0.234435435
1764763278.7487166,-0.04578,3.52506,1.00716,-0.889951335,0.38024805,-0.234435435
1764763278.7487166,-0.04578,3.52506,1.00716,-0.889951335,0.38024805,-0.234435435
1764763278.7487166,-0.04578,3.52506,1.00716,-0.889951335,0.38024805,-0.234435435
1764763278.7487166,-0.04578,3.52506,1.00716,-0.889951335,0.38024805,-0.234435435
1764763278.7487166,-1.19028,3.14356,0.6867,-0.89001237,0.382262205,-0.234313365
1764763278.7487166,-1.19028,3.14356,0.6867,-0.89001237,0.382262205,-0.234313365
1764763278.7487166,-1.19028,3.14356,0.6867,-0.89001237,0.382262205,-0.234313365
1764763278.7487166,-1.19028,3.14356,0.6867,-0.89001237,0.382262205,-0.234313365
1764763278.7487166,-1.19028,3.14356,0.6867,-0.89001237,0.382262205,-0.234313365
1764763278.7487166,-1.19028,3.14356,0.6867,-0.89001237,0.382262205,-0.234313365
1764763278.7952557,-1.19028,3.14356,0.6867,-0.89001237,0.382262205,-0.234313365
1764763278.7952557,-1.19028,3.14356,0.6867,-0.89001237,0.382262205,-0.234313365
1764763278.7952557,-1.19028,3.14356,0.6867,-0.89001237,0.382262205,-0.234313365
1764763278.7952557,-1.19028,3.14356,0.6867,-0.89001237,0.382262205,-0.234313365
1764763278.7952557,-1.58704,3.7387,0.6409199999999999,-0.88927995,0.38220117,-0.2343744
1764763278.7952557,-1.58704,3.7387,0.6409199999999999,-0.88927995,0.38220117,-0.2343744
1764763278.7952557,-1.58704,3.7387,0.6409199999999999,-0.88927995,0.38220117,-0.2343744
1764763278.7952557,-1.58704,3.7387,0.6409199999999999,-0.88927995,0.38220117,-0.2343744
1764763278.7952557,-1.58704,3.7387,0.6409199999999999,-0.88927995,0.38220117,-0.2343744
1764763278.7952557,-1.58704,3.7387,0.6409199999999999,-0.88927995,0.38220117,-0.2343744
1764763278.79627,-1.58704,3.7387,0.6409199999999999,-0.88927995,0.38220117,-0.2343744
1764763278.79627,-1.58704,3.7387,0.6409199999999999,-0.88927995,0.38220117,-0.2343744
1764763278.79627,-1.58704,3.7387,0.6409199999999999,-0.88927995,0.38220117,-0.2343744
1764763278.79627,-1.58704,3.7387,0.6409199999999999,-0.88927995,0.38220117,-0.2343744
1764763278.79627,-1.25132,3.2046,0.56462,-0.889218915,0.380431155,-0.23303163
1764763278.79627,-1.25132,3.2046,0.56462,-0.889218915,0.380431155,-0.23303163
1764763278.79627,-1.25132,3.2046,0.56462,-0.889218915,0.380431155,-0.23303163
1764763278.7972684,-1.25132,3.2046,0.56462,-0.889218915,0.380431155,-0.23303163
1764763278.7972684,-1.25132,3.2046,0.56462,-0.889218915,0.380431155,-0.23303163
1764763278.7972684,-1.25132,3.2046,0.56462,-0.889218915,0.380431155,-0.23303163
1764763278.7972684,-1.25132,3.2046,0.56462,-0.889218915,0.380431155,-0.23303163
1764763278.7972684,-1.25132,3.2046,0.56462,-0.889218915,0.380431155,-0.23303163
1764763278.7972684,-1.25132,3.2046,0.56462,-0.889218915,0.380431155,-0.23303163
1764763278.7972684,-1.25132,3.2046,0.56462,-0.889218915,0.380431155,-0.23303163
1764763278.841345,-1.03768,3.72344,0.47306,-0.88854753,0.379576665,-0.232482315
1764763278.841345,-1.03768,3.72344,0.47306,-0.88854753,0.379576665,-0.232482315
1764763278.841345,-1.03768,3.72344,0.47306,-0.88854753,0.379576665,-0.232482315
1764763278.841345,-1.03768,3.72344,0.47306,-0.88854753,0.379576665,-0.232482315
1764763278.841345,-1.03768,3.72344,0.47306,-0.88854753,0.379576665,-0.232482315
1764763278.841345,-1.03768,3.72344,0.47306,-0.88854753,0.379576665,-0.232482315
1764763278.841345,-1.03768,3.72344,0.47306,-0.88854753,0.379576665,-0.232482315
1764763278.841345,-1.03768,3.72344,0.47306,-0.88854753,0.379576665,-0.232482315
1764763278.841345,-1.03768,3.72344,0.47306,-0.88854753,0.379576665,-0.232482315
1764763278.841345,-1.03768,3.72344,0.47306,-0.88854753,0.379576665,-0.232482315
1764763278.841345,-0.50358,3.69292,0.57988,-0.88940202,0.3796377,-0.232360245
1764763278.841345,-0.50358,3.69292,0.57988,-0.88940202,0.3796377,-0.232360245
1764763278.842884,-0.50358,3.69292,0.57988,-0.88940202,0.3796377,-0.232360245
1764763278.842884,-0.50358,3.69292,0.57988,-0.88940202,0.3796377,-0.232360245
1764763278.842884,-0.50358,3.69292,0.57988,-0.88940202,0.3796377,-0.232360245
1764763278.842884,-0.50358,3.69292,0.57988,-0.88940202,0.3796377,-0.232360245
1764763278.842884,-0.50358,3.69292,0.57988,-0.88940202,0.3796377,-0.232360245
1764763278.842884,-0.50358,3.69292,0.57988,-0.88940202,0.3796377,-0.232360245
1764763278.842884,-0.50358,3.69292,0.57988,-0.88940202,0.3796377,-0.232360245
1764763278.842884,-0.50358,3.69292,0.57988,-0.88940202,0.3796377,-0.232360245
1764763278.8904593,-0.21364,3.52506,1.34288,-0.8902565100000001,0.380431155,-0.233336805
1764763278.8904593,-0.21364,3.52506,1.34288,-0.8902565100000001,0.380431155,-0.233336805
1764763278.8904593,-0.21364,3.52506,1.34288,-0.8902565100000001,0.380431155,-0.233336805
1764763278.8904593,-0.21364,3.52506,1.34288,-0.8902565100000001,0.380431155,-0.233336805
1764763278.8904593,-0.21364,3.52506,1.34288,-0.8902565100000001,0.380431155,-0.233336805
1764763278.8904593,-0.21364,3.52506,1.34288,-0.8902565100000001,0.380431155,-0.233336805
1764763278.8904593,-0.21364,3.52506,1.34288,-0.8902565100000001,0.380431155,-0.233336805
1764763278.8904593,-0.21364,3.52506,1.34288,-0.8902565100000001,0.380431155,-0.233336805
1764763278.8904593,-0.21364,3.52506,1.34288,-0.8902565100000001,0.380431155,-0.233336805
1764763278.8904593,-0.21364,3.52506,1.34288,-0.8902565100000001,0.380431155,-0.233336805
1764763278.8904593,-0.6867,3.61662,0.73248,-0.8897071950000001,0.38122461,-0.23278749
1764763278.8904593,-0.6867,3.61662,0.73248,-0.8897071950000001,0.38122461,-0.23278749
1764763278.8904593,-0.6867,3.61662,0.73248,-0.8897071950000001,0.38122461,-0.23278749
1764763278.8914616,-0.6867,3.61662,0.73248,-0.8897071950000001,0.38122461,-0.23278749
1764763278.8914616,-0.6867,3.61662,0.73248,-0.8897071950000001,0.38122461,-0.23278749
1764763278.8914616,-0.6867,3.61662,0.73248,-0.8897071950000001,0.38122461,-0.23278749
1764763278.8914616,-0.6867,3.61662,0.73248,-0.8897071950000001,0.38122461,-0.23278749
1764763278.8914616,-0.6867,3.61662,0.73248,-0.8897071950000001,0.38122461,-0.23278749
1764763278.8914616,-0.6867,3.61662,0.73248,-0.8897071950000001,0.38122461,-0.23278749
1764763278.8914616,-0.6867,3.61662,0.73248,-0.8897071950000001,0.38122461,-0.23278749
1764763278.8914616,-0.51884,3.23512,0.0762999999999999,-0.887754075,0.38012598,-0.23303163
1764763278.8914616,-0.51884,3.23512,0.0762999999999999,-0.887754075,0.38012598,-0.23303163
1764763278.8914616,-0.51884,3.23512,0.0762999999999999,-0.887754075,0.38012598,-0.23303163
1764763278.8914616,-0.51884,3.23512,0.0762999999999999,-0.887754075,0.38012598,-0.23303163
1764763278.8914616,-0.51884,3.23512,0.0762999999999999,-0.887754075,0.38012598,-0.23303163
1764763278.8914616,-0.51884,3.23512,0.0762999999999999,-0.887754075,0.38012598,-0.23303163
1764763278.8914616,-0.51884,3.23512,0.0762999999999999,-0.887754075,0.38012598,-0.23303163
1764763278.8914616,-0.51884,3.23512,0.0762999999999999,-0.887754075,0.38012598,-0.23303163
1764763278.93511,-0.51884,3.23512,0.0762999999999999,-0.887754075,0.38012598,-0.23303163
1764763278.93511,-0.51884,3.23512,0.0762999999999999,-0.887754075,0.38012598,-0.23303163
1764763278.93511,0.3815,3.63188,0.79352,-0.888730635,0.37817286,-0.23339784
1764763278.93511,0.3815,3.63188,0.79352,-0.888730635,0.37817286,-0.23339784
1764763278.93511,0.3815,3.63188,0.79352,-0.888730635,0.37817286,-0.23339784
1764763278.93511,0.3815,3.63188,0.79352,-0.888730635,0.37817286,-0.23339784
1764763278.93511,0.3815,3.63188,0.79352,-0.888730635,0.37817286,-0.23339784
1764763278.93511,0.3815,3.63188,0.79352,-0.888730635,0.37817286,-0.23339784
1764763278.93511,0.3815,3.63188,0.79352,-0.888730635,0.37817286,-0.23339784
1764763278.93511,0.3815,3.63188,0.79352,-0.888730635,0.37817286,-0.23339784
1764763278.93511,0.3815,3.63188,0.79352,-0.888730635,0.37817286,-0.23339784
1764763278.93511,0.3815,3.63188,0.79352,-0.888730635,0.37817286,-0.23339784
1764763278.9363656,0.62566,3.21986,1.69386,-0.89245377,0.37890528,-0.23327577
1764763278.9363656,0.62566,3.21986,1.69386,-0.89245377,0.37890528,-0.23327577
1764763278.9363656,0.62566,3.21986,1.69386,-0.89245377,0.37890528,-0.23327577
1764763278.9363656,0.62566,3.21986,1.69386,-0.89245377,0.37890528,-0.23327577
1764763278.9363656,0.62566,3.21986,1.69386,-0.89245377,0.37890528,-0.23327577
1764763278.9363656,0.62566,3.21986,1.69386,-0.89245377,0.37890528,-0.23327577
1764763278.9363656,0.62566,3.21986,1.69386,-0.89245377,0.37890528,-0.23327577
1764763278.9363656,0.62566,3.21986,1.69386,-0.89245377,0.37890528,-0.23327577
1764763278.9363656,0.62566,3.21986,1.69386,-0.89245377,0.37890528,-0.23327577
1764763278.9363656,0.62566,3.21986,1.69386,-0.89245377,0.37890528,-0.23327577
1764763278.9363656,0.5341,3.72344,1.77016,-0.891416175,0.38159082,-0.23425233
1764763278.9363656,0.5341,3.72344,1.77016,-0.891416175,0.38159082,-0.23425233
1764763278.984545,0.5341,3.72344,1.77016,-0.891416175,0.38159082,-0.23425233
1764763278.984545,0.5341,3.72344,1.77016,-0.891416175,0.38159082,-0.23425233
1764763278.984545,0.5341,3.72344,1.77016,-0.891416175,0.38159082,-0.23425233
1764763278.984545,0.5341,3.72344,1.77016,-0.891416175,0.38159082,-0.23425233
1764763278.984545,0.5341,3.72344,1.77016,-0.891416175,0.38159082,-0.23425233
1764763278.984545,0.5341,3.72344,1.77016,-0.891416175,0.38159082,-0.23425233
1764763278.984545,0.5341,3.72344,1.77016,-0.891416175,0.38159082,-0.23425233
1764763278.984545,0.5341,3.72344,1.77016,-0.891416175,0.38159082,-0.23425233
1764763278.984545,-0.54936,3.2809,0.57988,-0.889585125,0.38305566,-0.234191295
1764763278.984545,-0.54936,3.2809,0.57988,-0.889585125,0.38305566,-0.234191295
1764763278.984545,-0.54936,3.2809,0.57988,-0.889585125,0.38305566,-0.234191295
1764763278.9850502,-0.54936,3.2809,0.57988,-0.889585125,0.38305566,-0.234191295
1764763278.9850502,-0.54936,3.2809,0.57988,-0.889585125,0.38305566,-0.234191295
1764763278.9850502,-0.54936,3.2809,0.57988,-0.889585125,0.38305566,-0.234191295
1764763278.9850502,-0.54936,3.2809,0.57988,-0.889585125,0.38305566,-0.234191295
1764763278.9850502,-0.54936,3.2809,0.57988,-0.889585125,0.38305566,-0.234191295
1764763278.9850502,-0.54936,3.2809,0.57988,-0.889585125,0.38305566,-0.234191295
1764763278.9850502,-0.54936,3.2809,0.57988,-0.889585125,0.38305566,-0.234191295
1764763278.9850502,-0.79352,3.46402,0.763,-0.887265795,0.38134668,-0.23303163
1764763278.9850502,-0.79352,3.46402,0.763,-0.887265795,0.38134668,-0.23303163
1764763279.031805,-0.79352,3.46402,0.763,-0.887265795,0.38134668,-0.23303163
1764763279.031805,-0.79352,3.46402,0.763,-0.887265795,0.38134668,-0.23303163
1764763279.031805,-0.79352,3.46402,0.763,-0.887265795,0.38134668,-0.23303163
1764763279.031805,-0.79352,3.46402,0.763,-0.887265795,0.38134668,-0.23303163
1764763279.031805,-0.79352,3.46402,0.763,-0.887265795,0.38134668,-0.23303163
1764763279.031805,-0.79352,3.46402,0.763,-0.887265795,0.38134668,-0.23303163
1764763279.0738432,-0.79352,3.46402,0.763,-0.887265795,0.38134668,-0.23303163
1764763279.0738432,-0.79352,3.46402,0.763,-0.887265795,0.38134668,-0.23303163
1764763279.0738432,0.3204599999999999,3.40298,0.51884,-0.886655445,0.378844245,-0.232970595
1764763279.0738432,0.3204599999999999,3.40298,0.51884,-0.886655445,0.378844245,-0.232970595
1764763279.0738432,0.3204599999999999,3.40298,0.51884,-0.886655445,0.378844245,-0.232970595
1764763279.0738432,0.3204599999999999,3.40298,0.51884,-0.886655445,0.378844245,-0.232970595
1764763279.0738432,0.3204599999999999,3.40298,0.51884,-0.886655445,0.378844245,-0.232970595
1764763279.0738432,0.3204599999999999,3.40298,0.51884,-0.886655445,0.378844245,-0.232970595
1764763279.0738432,0.3204599999999999,3.40298,0.51884,-0.886655445,0.378844245,-0.232970595
1764763279.0738432,0.3204599999999999,3.40298,0.51884,-0.886655445,0.378844245,-0.232970595
1764763279.0738432,0.3204599999999999,3.40298,0.51884,-0.886655445,0.378844245,-0.232970595
1764763279.0738432,0.3204599999999999,3.40298,0.51884,-0.886655445,0.378844245,-0.232970595
1764763279.0738432,0.59514,3.78448,1.15976,-0.888364425,0.378355965,-0.233092665
1764763279.0738432,0.59514,3.78448,1.15976,-0.888364425,0.378355965,-0.233092665
1764763279.0738432,0.59514,3.78448,1.15976,-0.888364425,0.378355965,-0.233092665
1764763279.0738432,0.59514,3.78448,1.15976,-0.888364425,0.378355965,-0.233092665
1764763279.0738432,0.59514,3.78448,1.15976,-0.888364425,0.378355965,-0.233092665
1764763279.0738432,0.59514,3.78448,1.15976,-0.888364425,0.378355965,-0.233092665
1764763279.0738432,0.59514,3.78448,1.15976,-0.888364425,0.378355965,-0.233092665
1764763279.0738432,0.59514,3.78448,1.15976,-0.888364425,0.378355965,-0.233092665
1764763279.0738432,0.59514,3.78448,1.15976,-0.888364425,0.378355965,-0.233092665
1764763279.0738432,0.59514,3.78448,1.15976,-0.888364425,0.378355965,-0.233092665
1764763279.0738432,1.46496,4.0439,1.15976,-0.888364425,0.379210455,-0.231505755
1764763279.0738432,1.46496,4.0439,1.15976,-0.888364425,0.379210455,-0.231505755
1764763279.0738432,1.46496,4.0439,1.15976,-0.888364425,0.379210455,-0.231505755
1764763279.0738432,1.46496,4.0439,1.15976,-0.888364425,0.379210455,-0.231505755
1764763279.0738432,1.46496,4.0439,1.15976,-0.888364425,0.379210455,-0.231505755
1764763279.0738432,1.46496,4.0439,1.15976,-0.888364425,0.379210455,-0.231505755
1764763279.0738432,1.46496,4.0439,1.15976,-0.888364425,0.379210455,-0.231505755
1764763279.0738432,1.46496,4.0439,1.15976,-0.888364425,0.379210455,-0.231505755
1764763279.0738432,1.46496,4.0439,1.15976,-0.888364425,0.379210455,-0.231505755
1764763279.0738432,1.46496,4.0439,1.15976,-0.888364425,0.379210455,-0.231505755
1764763279.0738432,3.2809,4.47118,1.0682,-0.88903581,0.37853907,-0.23156679
1764763279.0738432,3.2809,4.47118,1.0682,-0.88903581,0.37853907,-0.23156679
1764763279.0738432,3.2809,4.47118,1.0682,-0.88903581,0.37853907,-0.23156679
1764763279.0738432,3.2809,4.47118,1.0682,-0.88903581,0.37853907,-0.23156679
1764763279.0738432,3.2809,4.47118,1.0682,-0.88903581,0.37853907,-0.23156679
1764763279.0738432,3.2809,4.47118,1.0682,-0.88903581,0.37853907,-0.23156679
1764763279.0738432,3.2809,4.47118,1.0682,-0.88903581,0.37853907,-0.23156679
1764763279.0738432,3.2809,4.47118,1.0682,-0.88903581,0.37853907,-0.23156679
1764763279.0738432,3.2809,4.47118,1.0682,-0.88903581,0.37853907,-0.23156679
1764763279.0738432,3.2809,4.47118,1.0682,-0.88903581,0.37853907,-0.23156679
1764763279.125578,4.21176,3.87604,2.18218,-0.891049965,0.376524915,-0.23388612
1764763279.125578,4.21176,3.87604,2.18218,-0.891049965,0.376524915,-0.23388612
1764763279.125578,4.21176,3.87604,2.18218,-0.891049965,0.376524915,-0.23388612
1764763279.125578,4.21176,3.87604,2.18218,-0.891049965,0.376524915,-0.23388612
1764763279.125578,4.21176,3.87604,2.18218,-0.891049965,0.376524915,-0.23388612
1764763279.125578,4.21176,3.87604,2.18218,-0.891049965,0.376524915,-0.23388612
1764763279.125578,4.21176,3.87604,2.18218,-0.891049965,0.376524915,-0.23388612
1764763279.125578,4.21176,3.87604,2.18218,-0.891049965,0.376524915,-0.23388612
1764763279.125578,4.21176,3.87604,2.18218,-0.891049965,0.376524915,-0.23388612
1764763279.125578,4.21176,3.87604,2.18218,-0.891049965,0.376524915,-0.23388612
1764763279.125578,3.4335,3.815,4.1965,-0.89257584,0.377989755,-0.236876835
1764763279.125578,3.4335,3.815,4.1965,-0.89257584,0.377989755,-0.236876835
1764763279.125578,3.4335,3.815,4.1965,-0.89257584,0.377989755,-0.236876835
1764763279.125578,3.4335,3.815,4.1965,-0.89257584,0.377989755,-0.236876835
1764763279.125578,3.4335,3.815,4.1965,-0.89257584,0.377989755,-0.236876835
1764763279.125578,3.4335,3.815,4.1965,-0.89257584,0.377989755,-0.236876835
1764763279.125578,3.4335,3.815,4.1965,-0.89257584,0.377989755,-0.236876835
1764763279.125578,3.4335,3.815,4.1965,-0.89257584,0.377989755,-0.236876835
1764763279.125578,3.4335,3.815,4.1965,-0.89257584,0.377989755,-0.236876835
1764763279.125578,3.4335,3.815,4.1965,-0.89257584,0.377989755,-0.236876835
1764763279.125578,2.41108,3.21986,3.815,-0.89306412,0.38037012,-0.23742615
1764763279.125578,2.41108,3.21986,3.815,-0.89306412,0.38037012,-0.23742615
1764763279.125578,2.41108,3.21986,3.815,-0.89306412,0.38037012,-0.23742615
1764763279.125578,2.41108,3.21986,3.815,-0.89306412,0.38037012,-0.23742615
1764763279.1700912,2.41108,3.21986,3.815,-0.89306412,0.38037012,-0.23742615
1764763279.1700912,2.41108,3.21986,3.815,-0.89306412,0.38037012,-0.23742615
1764763279.1700912,2.41108,3.21986,3.815,-0.89306412,0.38037012,-0.23742615
1764763279.1700912,2.41108,3.21986,3.815,-0.89306412,0.38037012,-0.23742615
1764763279.1700912,2.41108,3.21986,3.815,-0.89306412,0.38037012,-0.23742615
1764763279.1700912,2.41108,3.21986,3.815,-0.89306412,0.38037012,-0.23742615
1764763279.1700912,2.80784,4.07442,3.21986,-0.890561685,0.380797365,-0.236754765
1764763279.1700912,2.80784,4.07442,3.21986,-0.890561685,0.380797365,-0.236754765
1764763279.1700912,2.80784,4.07442,3.21986,-0.890561685,0.380797365,-0.236754765
1764763279.1700912,2.80784,4.07442,3.21986,-0.890561685,0.380797365,-0.236754765
1764763279.1700912,2.80784,4.07442,3.21986,-0.890561685,0.380797365,-0.236754765
1764763279.1700912,2.80784,4.07442,3.21986,-0.890561685,0.380797365,-0.236754765
1764763279.1700912,2.80784,4.07442,3.21986,-0.890561685,0.380797365,-0.236754765
1764763279.1700912,2.80784,4.07442,3.21986,-0.890561685,0.380797365,-0.236754765
1764763279.1700912,2.80784,4.07442,3.21986,-0.890561685,0.380797365,-0.236754765
1764763279.1700912,2.80784,4.07442,3.21986,-0.890561685,0.380797365,-0.236754765
1764763279.1700912,2.30426,4.39488,2.91466,-0.889096845,0.38244531,-0.23632752
1764763279.1700912,2.30426,4.39488,2.91466,-0.889096845,0.38244531,-0.23632752
1764763279.1700912,2.30426,4.39488,2.91466,-0.889096845,0.38244531,-0.23632752
1764763279.17163,2.30426,4.39488,2.91466,-0.889096845,0.38244531,-0.23632752
1764763279.17163,2.30426,4.39488,2.91466,-0.889096845,0.38244531,-0.23632752
1764763279.17163,2.30426,4.39488,2.91466,-0.889096845,0.38244531,-0.23632752
1764763279.17163,2.30426,4.39488,2.91466,-0.889096845,0.38244531,-0.23632752
1764763279.17163,2.30426,4.39488,2.91466,-0.889096845,0.38244531,-0.23632752
1764763279.2157538,2.30426,4.39488,2.91466,-0.889096845,0.38244531,-0.23632752
1764763279.2157538,2.30426,4.39488,2.91466,-0.889096845,0.38244531,-0.23632752
1764763279.2157538,-0.0762999999999999,4.62378,2.57894,-0.889951335,0.385558095,-0.237853395
1764763279.2157538,-0.0762999999999999,4.62378,2.57894,-0.889951335,0.385558095,-0.237853395
1764763279.2157538,-0.0762999999999999,4.62378,2.57894,-0.889951335,0.385558095,-0.237853395
1764763279.2157538,-0.0762999999999999,4.62378,2.57894,-0.889951335,0.385558095,-0.237853395
1764763279.2157538,-0.0762999999999999,4.62378,2.57894,-0.889951335,0.385558095,-0.237853395
1764763279.2157538,-0.0762999999999999,4.62378,2.57894,-0.889951335,0.385558095,-0.237853395
1764763279.2157538,-0.0762999999999999,4.62378,2.57894,-0.889951335,0.385558095,-0.237853395
1764763279.2157538,-0.0762999999999999,4.62378,2.57894,-0.889951335,0.385558095,-0.237853395
1764763279.2157538,-0.0762999999999999,4.62378,2.57894,-0.889951335,0.385558095,-0.237853395
1764763279.2157538,-0.0762999999999999,4.62378,2.57894,-0.889951335,0.385558095,-0.237853395
1764763279.2169492,-2.56368,3.64714,1.73964,-0.887754075,0.387633285,-0.238829955
1764763279.2169492,-2.56368,3.64714,1.73964,-0.887754075,0.387633285,-0.238829955
1764763279.2169492,-2.56368,3.64714,1.73964,-0.887754075,0.387633285,-0.238829955
1764763279.2169492,-2.56368,3.64714,1.73964,-0.887754075,0.387633285,-0.238829955
1764763279.2169492,-2.56368,3.64714,1.73964,-0.887754075,0.387633285,-0.238829955
1764763279.2169492,-2.56368,3.64714,1.73964,-0.887754075,0.387633285,-0.238829955
1764763279.2169492,-2.56368,3.64714,1.73964,-0.887754075,0.387633285,-0.238829955
1764763279.2169492,-2.56368,3.64714,1.73964,-0.887754075,0.387633285,-0.238829955
1764763279.2169492,-2.56368,3.64714,1.73964,-0.887754075,0.387633285,-0.238829955
1764763279.2169492,-2.56368,3.64714,1.73964,-0.887754075,0.387633285,-0.238829955
1764763279.2638035,-2.8994,4.60852,0.51884,-0.881162295,0.385191885,-0.237609255
1764763279.2638035,-2.8994,4.60852,0.51884,-0.881162295,0.385191885,-0.237609255
1764763279.2638035,-2.8994,4.60852,0.51884,-0.881162295,0.385191885,-0.237609255
1764763279.2638035,-2.8994,4.60852,0.51884,-0.881162295,0.385191885,-0.237609255
1764763279.3084824,-2.8994,4.60852,0.51884,-0.881162295,0.385191885,-0.237609255
1764763279.3084824,-2.8994,4.60852,0.51884,-0.881162295,0.385191885,-0.237609255
1764763279.3084824,-2.8994,4.60852,0.51884,-0.881162295,0.385191885,-0.237609255
1764763279.3084824,-2.8994,4.60852,0.51884,-0.881162295,0.385191885,-0.237609255
1764763279.3084824,-2.8994,4.60852,0.51884,-0.881162295,0.385191885,-0.237609255
1764763279.3084824,-2.8994,4.60852,0.51884,-0.881162295,0.385191885,-0.237609255
1764763279.3084824,-1.77016,3.8913,-2.7468,-0.8776833,0.382018065,-0.236632695
1764763279.3084824,-1.77016,3.8913,-2.7468,-0.8776833,0.382018065,-0.236632695
1764763279.3084824,-1.77016,3.8913,-2.7468,-0.8776833,0.382018065,-0.236632695
1764763279.3084824,-1.77016,3.8913,-2.7468,-0.8776833,0.382018065,-0.236632695
1764763279.3084824,-1.77016,3.8913,-2.7468,-0.8776833,0.382018065,-0.236632695
1764763279.3084824,-1.77016,3.8913,-2.7468,-0.8776833,0.382018065,-0.236632695
1764763279.3084824,-1.77016,3.8913,-2.7468,-0.8776833,0.382018065,-0.236632695
1764763279.3084824,-1.77016,3.8913,-2.7468,-0.8776833,0.382018065,-0.236632695
1764763279.30938,-1.77016,3.8913,-2.7468,-0.8776833,0.382018065,-0.236632695
1764763279.30938,-1.77016,3.8913,-2.7468,-0.8776833,0.382018065,-0.236632695
1764763279.30938,-2.25848,3.815,-2.24322,-0.877744335,0.382506345,-0.23705994
1764763279.30938,-2.25848,3.815,-2.24322,-0.877744335,0.382506345,-0.23705994
1764763279.30938,-2.25848,3.815,-2.24322,-0.877744335,0.382506345,-0.23705994
1764763279.30938,-2.25848,3.815,-2.24322,-0.877744335,0.382506345,-0.23705994
1764763279.30938,-2.25848,3.815,-2.24322,-0.877744335,0.382506345,-0.23705994
1764763279.30938,-2.25848,3.815,-2.24322,-0.877744335,0.382506345,-0.23705994
1764763279.30938,-2.25848,3.815,-2.24322,-0.877744335,0.382506345,-0.23705994
1764763279.30938,-2.25848,3.815,-2.24322,-0.877744335,0.382506345,-0.23705994
1764763279.30938,-2.25848,3.815,-2.24322,-0.877744335,0.382506345,-0.23705994
1764763279.30938,-2.25848,3.815,-2.24322,-0.877744335,0.382506345,-0.23705994
1764763279.30938,-4.79164,2.5179,-2.07536,-0.88561785,0.38500878,-0.238829955
1764763279.30938,-4.79164,2.5179,-2.07536,-0.88561785,0.38500878,-0.238829955
1764763279.30938,-4.79164,2.5179,-2.07536,-0.88561785,0.38500878,-0.238829955
1764763279.30938,-4.79164,2.5179,-2.07536,-0.88561785,0.38500878,-0.238829955
1764763279.30938,-4.79164,2.5179,-2.07536,-0.88561785,0.38500878,-0.238829955
1764763279.30938,-4.79164,2.5179,-2.07536,-0.88561785,0.38500878,-0.238829955
1764763279.30938,-4.79164,2.5179,-2.07536,-0.88561785,0.38500878,-0.238829955
1764763279.30938,-4.79164,2.5179,-2.07536,-0.88561785,0.38500878,-0.238829955
1764763279.30938,-4.79164,2.5179,-2.07536,-0.88561785,0.38500878,-0.238829955
1764763279.30938,-4.79164,2.5179,-2.07536,-0.88561785,0.38500878,-0.238829955
1764763279.30938,-6.790699999999999,1.89224,-1.6786,-0.891538245,0.386900865,-0.238829955
1764763279.30938,-6.790699999999999,1.89224,-1.6786,-0.891538245,0.386900865,-0.238829955
1764763279.30938,-6.790699999999999,1.89224,-1.6786,-0.891538245,0.386900865,-0.238829955
1764763279.30938,-6.790699999999999,1.89224,-1.6786,-0.891538245,0.386900865,-0.238829955
1764763279.30938,-6.790699999999999,1.89224,-1.6786,-0.891538245,0.386900865,-0.238829955
1764763279.30938,-6.790699999999999,1.89224,-1.6786,-0.891538245,0.386900865,-0.238829955
1764763279.355734,-6.790699999999999,1.89224,-1.6786,-0.891538245,0.386900865,-0.238829955
1764763279.355734,-6.790699999999999,1.89224,-1.6786,-0.891538245,0.386900865,-0.238829955
1764763279.355734,-6.790699999999999,1.89224,-1.6786,-0.891538245,0.386900865,-0.238829955
1764763279.355734,-6.790699999999999,1.89224,-1.6786,-0.891538245,0.386900865,-0.238829955
1764763279.355734,-6.22608,2.77732,-2.0601,-0.8917823850000001,0.384459465,-0.23718201
1764763279.355734,-6.22608,2.77732,-2.0601,-0.8917823850000001,0.384459465,-0.23718201
1764763279.355734,-6.22608,2.77732,-2.0601,-0.8917823850000001,0.384459465,-0.23718201
1764763279.355734,-6.22608,2.77732,-2.0601,-0.8917823850000001,0.384459465,-0.23718201
1764763279.355734,-6.22608,2.77732,-2.0601,-0.8917823850000001,0.384459465,-0.23718201
1764763279.355734,-6.22608,2.77732,-2.0601,-0.8917823850000001,0.384459465,-0.23718201
1764763279.3567436,-6.22608,2.77732,-2.0601,-0.8917823850000001,0.384459465,-0.23718201
1764763279.3567436,-6.22608,2.77732,-2.0601,-0.8917823850000001,0.384459465,-0.23718201
1764763279.3567436,-6.22608,2.77732,-2.0601,-0.8917823850000001,0.384459465,-0.23718201
1764763279.3567436,-6.22608,2.77732,-2.0601,-0.8917823850000001,0.384459465,-0.23718201
1764763279.3567436,-4.47118,3.76922,-1.2055399999999998,-0.89245377,0.3796377,-0.23327577
1764763279.3567436,-4.47118,3.76922,-1.2055399999999998,-0.89245377,0.3796377,-0.23327577
1764763279.3567436,-4.47118,3.76922,-1.2055399999999998,-0.89245377,0.3796377,-0.23327577
1764763279.3567436,-4.47118,3.76922,-1.2055399999999998,-0.89245377,0.3796377,-0.23327577
1764763279.3567436,-4.47118,3.76922,-1.2055399999999998,-0.89245377,0.3796377,-0.23327577
1764763279.3567436,-4.47118,3.76922,-1.2055399999999998,-0.89245377,0.3796377,-0.23327577
1764763279.3567436,-4.47118,3.76922,-1.2055399999999998,-0.89245377,0.3796377,-0.23327577
1764763279.3577435,-4.47118,3.76922,-1.2055399999999998,-0.89245377,0.3796377,-0.23327577
1764763279.3577435,-4.47118,3.76922,-1.2055399999999998,-0.89245377,0.3796377,-0.23327577
1764763279.3577435,-4.47118,3.76922,-1.2055399999999998,-0.89245377,0.3796377,-0.23327577
1764763279.4011204,-1.84646,4.47118,-0.13734,-0.89245377,0.37634181,-0.229552635
1764763279.4011204,-1.84646,4.47118,-0.13734,-0.89245377,0.37634181,-0.229552635
1764763279.4011204,-1.84646,4.47118,-0.13734,-0.89245377,0.37634181,-0.229552635
1764763279.4011204,-1.84646,4.47118,-0.13734,-0.89245377,0.37634181,-0.229552635
1764763279.4011204,-1.84646,4.47118,-0.13734,-0.89245377,0.37634181,-0.229552635
1764763279.4011204,-1.84646,4.47118,-0.13734,-0.89245377,0.37634181,-0.229552635
1764763279.4011204,-1.84646,4.47118,-0.13734,-0.89245377,0.37634181,-0.229552635
1764763279.4011204,-1.84646,4.47118,-0.13734,-0.89245377,0.37634181,-0.229552635
1764763279.4011204,-1.84646,4.47118,-0.13734,-0.89245377,0.37634181,-0.229552635
1764763279.4011204,-1.84646,4.47118,-0.13734,-0.89245377,0.37634181,-0.229552635
1764763279.4011204,0.44254,5.1884,0.73248,-0.892026525,0.37573146,-0.22888125
1764763279.4026608,0.44254,5.1884,0.73248,-0.892026525,0.37573146,-0.22888125
1764763279.4026608,0.44254,5.1884,0.73248,-0.892026525,0.37573146,-0.22888125
1764763279.4026608,0.44254,5.1884,0.73248,-0.892026525,0.37573146,-0.22888125
1764763279.4026608,0.44254,5.1884,0.73248,-0.892026525,0.37573146,-0.22888125
1764763279.4026608,0.44254,5.1884,0.73248,-0.892026525,0.37573146,-0.22888125
1764763279.4026608,0.44254,5.1884,0.73248,-0.892026525,0.37573146,-0.22888125
1764763279.4026608,0.44254,5.1884,0.73248,-0.892026525,0.37573146,-0.22888125
1764763279.403731,0.44254,5.1884,0.73248,-0.892026525,0.37573146,-0.22888125
1764763279.403731,0.44254,5.1884,0.73248,-0.892026525,0.37573146,-0.22888125
1764763279.4486053,1.49548,4.60852,1.46496,-0.89098893,0.376646985,-0.230407125
1764763279.4486053,1.49548,4.60852,1.46496,-0.89098893,0.376646985,-0.230407125
1764763279.4486053,1.49548,4.60852,1.46496,-0.89098893,0.376646985,-0.230407125
1764763279.4486053,1.49548,4.60852,1.46496,-0.89098893,0.376646985,-0.230407125
1764763279.4486053,1.49548,4.60852,1.46496,-0.89098893,0.376646985,-0.230407125
1764763279.4486053,1.49548,4.60852,1.46496,-0.89098893,0.376646985,-0.230407125
1764763279.4486053,1.49548,4.60852,1.46496,-0.89098893,0.376646985,-0.230407125
1764763279.449617,1.49548,4.60852,1.46496,-0.89098893,0.376646985,-0.230407125
1764763279.449617,1.49548,4.60852,1.46496,-0.89098893,0.376646985,-0.230407125
1764763279.449617,1.49548,4.60852,1.46496,-0.89098893,0.376646985,-0.230407125
1764763279.449617,0.85456,3.69292,0.763,-0.8897071950000001,0.37780665,-0.23376405
1764763279.449617,0.85456,3.69292,0.763,-0.8897071950000001,0.37780665,-0.23376405
1764763279.449617,0.85456,3.69292,0.763,-0.8897071950000001,0.37780665,-0.23376405
1764763279.449617,0.85456,3.69292,0.763,-0.8897071950000001,0.37780665,-0.23376405
1764763279.449617,0.85456,3.69292,0.763,-0.8897071950000001,0.37780665,-0.23376405
1764763279.449617,0.85456,3.69292,0.763,-0.8897071950000001,0.37780665,-0.23376405
1764763279.449617,0.85456,3.69292,0.763,-0.8897071950000001,0.37780665,-0.23376405
1764763279.449617,0.85456,3.69292,0.763,-0.8897071950000001,0.37780665,-0.23376405
1764763279.449617,0.85456,3.69292,0.763,-0.8897071950000001,0.37780665,-0.23376405
1764763279.449617,0.85456,3.69292,0.763,-0.8897071950000001,0.37780665,-0.23376405
1764763279.449617,-0.5341,3.31142,1.4497,-0.891172035,0.380064945,-0.23596131
1764763279.449617,-0.5341,3.31142,1.4497,-0.891172035,0.380064945,-0.23596131
1764763279.449617,-0.5341,3.31142,1.4497,-0.891172035,0.380064945,-0.23596131
1764763279.449617,-0.5341,3.31142,1.4497,-0.891172035,0.380064945,-0.23596131
1764763279.449617,-0.5341,3.31142,1.4497,-0.891172035,0.380064945,-0.23596131
1764763279.449617,-0.5341,3.31142,1.4497,-0.891172035,0.380064945,-0.23596131
1764763279.492987,-0.5341,3.31142,1.4497,-0.891172035,0.380064945,-0.23596131
1764763279.492987,-0.5341,3.31142,1.4497,-0.891172035,0.380064945,-0.23596131
1764763279.492987,-0.5341,3.31142,1.4497,-0.891172035,0.380064945,-0.23596131
1764763279.492987,-0.5341,3.31142,1.4497,-0.891172035,0.380064945,-0.23596131
1764763279.492987,-0.79352,2.85362,1.84646,-0.892148595,0.382140135,-0.235411995
1764763279.492987,-0.79352,2.85362,1.84646,-0.892148595,0.382140135,-0.235411995
1764763279.492987,-0.79352,2.85362,1.84646,-0.892148595,0.382140135,-0.235411995
1764763279.492987,-0.79352,2.85362,1.84646,-0.892148595,0.382140135,-0.235411995
1764763279.492987,-0.79352,2.85362,1.84646,-0.892148595,0.382140135,-0.235411995
1764763279.492987,-0.79352,2.85362,1.84646,-0.892148595,0.382140135,-0.235411995
1764763279.492987,-0.79352,2.85362,1.84646,-0.892148595,0.382140135,-0.235411995
1764763279.492987,-0.79352,2.85362,1.84646,-0.892148595,0.382140135,-0.235411995
1764763279.492987,-0.79352,2.85362,1.84646,-0.892148595,0.382140135,-0.235411995
1764763279.492987,-0.79352,2.85362,1.84646,-0.892148595,0.382140135,-0.235411995
1764763279.4940228,-0.6867,2.50264,0.44254,-0.891111,0.38232324,-0.23474061
1764763279.4940228,-0.6867,2.50264,0.44254,-0.891111,0.38232324,-0.23474061
1764763279.4940228,-0.6867,2.50264,0.44254,-0.891111,0.38232324,-0.23474061
1764763279.4940228,-0.6867,2.50264,0.44254,-0.891111,0.38232324,-0.23474061
1764763279.4940228,-0.6867,2.50264,0.44254,-0.891111,0.38232324,-0.23474061
1764763279.4940228,-0.6867,2.50264,0.44254,-0.891111,0.38232324,-0.23474061
1764763279.4940228,-0.6867,2.50264,0.44254,-0.891111,0.38232324,-0.23474061
1764763279.4940228,-0.6867,2.50264,0.44254,-0.891111,0.38232324,-0.23474061
1764763279.4940228,-0.6867,2.50264,0.44254,-0.891111,0.38232324,-0.23474061
1764763279.4940228,-0.6867,2.50264,0.44254,-0.891111,0.38232324,-0.23474061
1764763279.539904,-1.19028,2.12114,-0.12208,-0.8891578800000001,0.38220117,-0.235411995
1764763279.539904,-1.19028,2.12114,-0.12208,-0.8891578800000001,0.38220117,-0.235411995
1764763279.539904,-1.19028,2.12114,-0.12208,-0.8891578800000001,0.38220117,-0.235411995
1764763279.539904,-1.19028,2.12114,-0.12208,-0.8891578800000001,0.38220117,-0.235411995
1764763279.539904,-1.19028,2.12114,-0.12208,-0.8891578800000001,0.38220117,-0.235411995
1764763279.5404298,-1.19028,2.12114,-0.12208,-0.8891578800000001,0.38220117,-0.235411995
1764763279.5404298,-1.19028,2.12114,-0.12208,-0.8891578800000001,0.38220117,-0.235411995
1764763279.5404298,-1.19028,2.12114,-0.12208,-0.8891578800000001,0.38220117,-0.235411995
1764763279.5404298,-1.19028,2.12114,-0.12208,-0.8891578800000001,0.38220117,-0.235411995
1764763279.5404298,-1.19028,2.12114,-0.12208,-0.8891578800000001,0.38220117,-0.235411995
1764763279.5404298,-1.87698,2.6705,0.18312,-0.88793718,0.381895995,-0.235411995
1764763279.5404298,-1.87698,2.6705,0.18312,-0.88793718,0.381895995,-0.235411995
1764763279.5404298,-1.87698,2.6705,0.18312,-0.88793718,0.381895995,-0.235411995
1764763279.5404298,-1.87698,2.6705,0.18312,-0.88793718,0.381895995,-0.235411995
1764763279.5404298,-1.87698,2.6705,0.18312,-0.88793718,0.381895995,-0.235411995
1764763279.5404298,-1.87698,2.6705,0.18312,-0.88793718,0.381895995,-0.235411995
1764763279.5404298,-1.87698,2.6705,0.18312,-0.88793718,0.381895995,-0.235411995
1764763279.5404298,-1.87698,2.6705,0.18312,-0.88793718,0.381895995,-0.235411995
1764763279.5404298,-1.87698,2.6705,0.18312,-0.88793718,0.381895995,-0.235411995
1764763279.5404298,-1.87698,2.6705,0.18312,-0.88793718,0.381895995,-0.235411995
1764763279.5404298,-2.04484,2.86888,0.12208,-0.888242355,0.381163575,-0.23474061
1764763279.5404298,-2.04484,2.86888,0.12208,-0.888242355,0.381163575,-0.23474061
1764763279.5869014,-2.04484,2.86888,0.12208,-0.888242355,0.381163575,-0.23474061
1764763279.5869014,-2.04484,2.86888,0.12208,-0.888242355,0.381163575,-0.23474061
1764763279.5869014,-2.04484,2.86888,0.12208,-0.888242355,0.381163575,-0.23474061
1764763279.5869014,-2.04484,2.86888,0.12208,-0.888242355,0.381163575,-0.23474061
1764763279.5869014,-2.04484,2.86888,0.12208,-0.888242355,0.381163575,-0.23474061
1764763279.5869014,-2.04484,2.86888,0.12208,-0.888242355,0.381163575,-0.23474061
1764763279.5869014,-2.04484,2.86888,0.12208,-0.888242355,0.381163575,-0.23474061
1764763279.5869014,-2.04484,2.86888,0.12208,-0.888242355,0.381163575,-0.23474061
1764763279.5869014,-2.01432,3.41824,0.41202,-0.88793718,0.38098047,-0.23364198
1764763279.5869014,-2.01432,3.41824,0.41202,-0.88793718,0.38098047,-0.23364198
1764763279.5869014,-2.01432,3.41824,0.41202,-0.88793718,0.38098047,-0.23364198
1764763279.5869014,-2.01432,3.41824,0.41202,-0.88793718,0.38098047,-0.23364198
1764763279.5879407,-2.01432,3.41824,0.41202,-0.88793718,0.38098047,-0.23364198
1764763279.5879407,-2.01432,3.41824,0.41202,-0.88793718,0.38098047,-0.23364198
1764763279.5879407,-2.01432,3.41824,0.41202,-0.88793718,0.38098047,-0.23364198
1764763279.5879407,-2.01432,3.41824,0.41202,-0.88793718,0.38098047,-0.23364198
1764763279.5879407,-2.01432,3.41824,0.41202,-0.88793718,0.38098047,-0.23364198
1764763279.5879407,-2.01432,3.41824,0.41202,-0.88793718,0.38098047,-0.23364198
1764763279.5879407,-1.02242,4.18124,0.1678599999999999,-0.887143725,0.3808584,-0.23205507
1764763279.5879407,-1.02242,4.18124,0.1678599999999999,-0.887143725,0.3808584,-0.23205507
1764763279.5879407,-1.02242,4.18124,0.1678599999999999,-0.887143725,0.3808584,-0.23205507
1764763279.5879407,-1.02242,4.18124,0.1678599999999999,-0.887143725,0.3808584,-0.23205507
1764763279.5879407,-1.02242,4.18124,0.1678599999999999,-0.887143725,0.3808584,-0.23205507
1764763279.5879407,-1.02242,4.18124,0.1678599999999999,-0.887143725,0.3808584,-0.23205507
1764763279.635467,-1.02242,4.18124,0.1678599999999999,-0.887143725,0.3808584,-0.23205507
1764763279.635467,-1.02242,4.18124,0.1678599999999999,-0.887143725,0.3808584,-0.23205507
1764763279.635467,-1.02242,4.18124,0.1678599999999999,-0.887143725,0.3808584,-0.23205507
1764763279.635467,-1.02242,4.18124,0.1678599999999999,-0.887143725,0.3808584,-0.23205507
1764763279.635467,-0.13734,4.5017,0.36624,-0.887509935,0.380919435,-0.23168886
1764763279.635467,-0.13734,4.5017,0.36624,-0.887509935,0.380919435,-0.23168886
1764763279.635467,-0.13734,4.5017,0.36624,-0.887509935,0.380919435,-0.23168886
1764763279.635467,-0.13734,4.5017,0.36624,-0.887509935,0.380919435,-0.23168886
1764763279.635467,-0.13734,4.5017,0.36624,-0.887509935,0.380919435,-0.23168886
1764763279.635467,-0.13734,4.5017,0.36624,-0.887509935,0.380919435,-0.23168886
1764763279.635467,-0.13734,4.5017,0.36624,-0.887509935,0.380919435,-0.23168886
1764763279.635467,-0.13734,4.5017,0.36624,-0.887509935,0.380919435,-0.23168886
1764763279.635467,-0.13734,4.5017,0.36624,-0.887509935,0.380919435,-0.23168886
1764763279.635467,-0.13734,4.5017,0.36624,-0.887509935,0.380919435,-0.23168886
1764763279.6359768,1.26658,4.15072,0.763,-0.888852705,0.38012598,-0.23205507
1764763279.6359768,1.26658,4.15072,0.763,-0.888852705,0.38012598,-0.23205507
1764763279.6359768,1.26658,4.15072,0.763,-0.888852705,0.38012598,-0.23205507
1764763279.6359768,1.26658,4.15072,0.763,-0.888852705,0.38012598,-0.23205507
1764763279.6359768,1.26658,4.15072,0.763,-0.888852705,0.38012598,-0.23205507
1764763279.6359768,1.26658,4.15072,0.763,-0.888852705,0.38012598,-0.23205507
1764763279.6359768,1.26658,4.15072,0.763,-0.888852705,0.38012598,-0.23205507
1764763279.6359768,1.26658,4.15072,0.763,-0.888852705,0.38012598,-0.23205507
1764763279.6359768,1.26658,4.15072,0.763,-0.888852705,0.38012598,-0.23205507
1764763279.6359768,1.26658,4.15072,0.763,-0.888852705,0.38012598,-0.23205507
1764763279.6811826,0.5341,3.90656,-0.19838,-0.8881202850000001,0.379942875,-0.2343744
1764763279.6811826,0.5341,3.90656,-0.19838,-0.8881202850000001,0.379942875,-0.2343744
1764763279.6811826,0.5341,3.90656,-0.19838,-0.8881202850000001,0.379942875,-0.2343744
1764763279.6811826,0.5341,3.90656,-0.19838,-0.8881202850000001,0.379942875,-0.2343744
1764763279.6811826,0.5341,3.90656,-0.19838,-0.8881202850000001,0.379942875,-0.2343744
1764763279.6811826,0.5341,3.90656,-0.19838,-0.8881202850000001,0.379942875,-0.2343744
1764763279.6811826,0.5341,3.90656,-0.19838,-0.8881202850000001,0.379942875,-0.2343744
1764763279.6811826,0.5341,3.90656,-0.19838,-0.8881202850000001,0.379942875,-0.2343744
1764763279.6811826,0.5341,3.90656,-0.19838,-0.8881202850000001,0.379942875,-0.2343744
1764763279.681706,0.5341,3.90656,-0.19838,-0.8881202850000001,0.379942875,-0.2343744
1764763279.681706,-1.38866,3.02148,0.12208,-0.8898903,0.381285645,-0.23583924
1764763279.681706,-1.38866,3.02148,0.12208,-0.8898903,0.381285645,-0.23583924
1764763279.681706,-1.38866,3.02148,0.12208,-0.8898903,0.381285645,-0.23583924
1764763279.681706,-1.38866,3.02148,0.12208,-0.8898903,0.381285645,-0.23583924
1764763279.681706,-1.38866,3.02148,0.12208,-0.8898903,0.381285645,-0.23583924
1764763279.681706,-1.38866,3.02148,0.12208,-0.8898903,0.381285645,-0.23583924
1764763279.681706,-1.38866,3.02148,0.12208,-0.8898903,0.381285645,-0.23583924
1764763279.681706,-1.38866,3.02148,0.12208,-0.8898903,0.381285645,-0.23583924
1764763279.681706,-1.38866,3.02148,0.12208,-0.8898903,0.381285645,-0.23583924
1764763279.681706,-1.38866,3.02148,0.12208,-0.8898903,0.381285645,-0.23583924
1764763279.681706,-2.62472,2.5942,0.0,-0.8907447900000001,0.38110254,-0.235656135
1764763279.681706,-2.62472,2.5942,0.0,-0.8907447900000001,0.38110254,-0.235656135
1764763279.681706,-2.62472,2.5942,0.0,-0.8907447900000001,0.38110254,-0.235656135
1764763279.681706,-2.62472,2.5942,0.0,-0.8907447900000001,0.38110254,-0.235656135
1764763279.7311394,-2.62472,2.5942,0.0,-0.8907447900000001,0.38110254,-0.235656135
1764763279.7311394,-2.62472,2.5942,0.0,-0.8907447900000001,0.38110254,-0.235656135
1764763279.7311394,-2.62472,2.5942,0.0,-0.8907447900000001,0.38110254,-0.235656135
1764763279.7311394,-2.62472,2.5942,0.0,-0.8907447900000001,0.38110254,-0.235656135
1764763279.7311394,-2.62472,2.5942,0.0,-0.8907447900000001,0.38110254,-0.235656135
1764763279.7311394,-2.62472,2.5942,0.0,-0.8907447900000001,0.38110254,-0.235656135
1764763279.7311394,-2.16692,2.94518,-0.03052,-0.88952409,0.37975977,-0.23413026
1764763279.7311394,-2.16692,2.94518,-0.03052,-0.88952409,0.37975977,-0.23413026
1764763279.7311394,-2.16692,2.94518,-0.03052,-0.88952409,0.37975977,-0.23413026
1764763279.7311394,-2.16692,2.94518,-0.03052,-0.88952409,0.37975977,-0.23413026
1764763279.7311394,-2.16692,2.94518,-0.03052,-0.88952409,0.37975977,-0.23413026
1764763279.7311394,-2.16692,2.94518,-0.03052,-0.88952409,0.37975977,-0.23413026
1764763279.7311394,-2.16692,2.94518,-0.03052,-0.88952409,0.37975977,-0.23413026
1764763279.7311394,-2.16692,2.94518,-0.03052,-0.88952409,0.37975977,-0.23413026
1764763279.7311394,-2.16692,2.94518,-0.03052,-0.88952409,0.37975977,-0.23413026
1764763279.7311394,-2.16692,2.94518,-0.03052,-0.88952409,0.37975977,-0.23413026
1764763279.7311394,-0.03052,3.52506,-0.3357199999999999,-0.8891578800000001,0.37805079,-0.233092665
1764763279.7311394,-0.03052,3.52506,-0.3357199999999999,-0.8891578800000001,0.37805079,-0.233092665
1764763279.7311394,-0.03052,3.52506,-0.3357199999999999,-0.8891578800000001,0.37805079,-0.233092665
1764763279.7311394,-0.03052,3.52506,-0.3357199999999999,-0.8891578800000001,0.37805079,-0.233092665
1764763279.7311394,-0.03052,3.52506,-0.3357199999999999,-0.8891578800000001,0.37805079,-0.233092665
1764763279.7311394,-0.03052,3.52506,-0.3357199999999999,-0.8891578800000001,0.37805079,-0.233092665
1764763279.7311394,-0.03052,3.52506,-0.3357199999999999,-0.8891578800000001,0.37805079,-0.233092665
1764763279.7311394,-0.03052,3.52506,-0.3357199999999999,-0.8891578800000001,0.37805079,-0.233092665
1764763279.777346,-0.03052,3.52506,-0.3357199999999999,-0.8891578800000001,0.37805079,-0.233092665
1764763279.7783608,-0.03052,3.52506,-0.3357199999999999,-0.8891578800000001,0.37805079,-0.233092665
1764763279.7783608,0.5341,3.29616,0.09156,-0.88903581,0.37792872,-0.23266542
1764763279.7783608,0.5341,3.29616,0.09156,-0.88903581,0.37792872,-0.23266542
1764763279.7783608,0.5341,3.29616,0.09156,-0.88903581,0.37792872,-0.23266542
1764763279.7783608,0.5341,3.29616,0.09156,-0.88903581,0.37792872,-0.23266542
1764763279.7783608,0.5341,3.29616,0.09156,-0.88903581,0.37792872,-0.23266542
1764763279.7783608,0.5341,3.29616,0.09156,-0.88903581,0.37792872,-0.23266542
1764763279.7783608,0.5341,3.29616,0.09156,-0.88903581,0.37792872,-0.23266542
1764763279.7783608,0.5341,3.29616,0.09156,-0.88903581,0.37792872,-0.23266542
1764763279.7783608,0.5341,3.29616,0.09156,-0.88903581,0.37792872,-0.23266542
1764763279.7783608,0.5341,3.29616,0.09156,-0.88903581,0.37792872,-0.23266542
1764763279.7783608,1.2208,3.57084,-0.03052,-0.8902565100000001,0.37805079,-0.232604385
1764763279.7783608,1.2208,3.57084,-0.03052,-0.8902565100000001,0.37805079,-0.232604385
1764763279.7783608,1.2208,3.57084,-0.03052,-0.8902565100000001,0.37805079,-0.232604385
1764763279.7783608,1.2208,3.57084,-0.03052,-0.8902565100000001,0.37805079,-0.232604385
1764763279.7783608,1.2208,3.57084,-0.03052,-0.8902565100000001,0.37805079,-0.232604385
1764763279.7783608,1.2208,3.57084,-0.03052,-0.8902565100000001,0.37805079,-0.232604385
1764763279.7783608,1.2208,3.57084,-0.03052,-0.8902565100000001,0.37805079,-0.232604385
1764763279.7783608,1.2208,3.57084,-0.03052,-0.8902565100000001,0.37805079,-0.232604385
1764763279.7783608,1.2208,3.57084,-0.03052,-0.8902565100000001,0.37805079,-0.232604385
1764763279.7783608,1.2208,3.57084,-0.03052,-0.8902565100000001,0.37805079,-0.232604385
1764763279.821452,0.8392999999999999,3.15882,0.0762999999999999,-0.89013444,0.380309085,-0.23376405
1764763279.821452,0.8392999999999999,3.15882,0.0762999999999999,-0.89013444,0.380309085,-0.23376405
1764763279.821452,0.8392999999999999,3.15882,0.0762999999999999,-0.89013444,0.380309085,-0.23376405
1764763279.821452,0.8392999999999999,3.15882,0.0762999999999999,-0.89013444,0.380309085,-0.23376405
1764763279.821452,0.8392999999999999,3.15882,0.0762999999999999,-0.89013444,0.380309085,-0.23376405
1764763279.821452,0.8392999999999999,3.15882,0.0762999999999999,-0.89013444,0.380309085,-0.23376405
1764763279.821452,0.8392999999999999,3.15882,0.0762999999999999,-0.89013444,0.380309085,-0.23376405
1764763279.821452,0.8392999999999999,3.15882,0.0762999999999999,-0.89013444,0.380309085,-0.23376405
1764763279.821452,0.8392999999999999,3.15882,0.0762999999999999,-0.89013444,0.380309085,-0.23376405
1764763279.821452,0.8392999999999999,3.15882,0.0762999999999999,-0.89013444,0.380309085,-0.23376405
1764763279.821452,-0.27468,3.61662,-0.3204599999999999,-0.889585125,0.381163575,-0.234679575
1764763279.821452,-0.27468,3.61662,-0.3204599999999999,-0.889585125,0.381163575,-0.234679575
1764763279.821452,-0.27468,3.61662,-0.3204599999999999,-0.889585125,0.381163575,-0.234679575
1764763279.821452,-0.27468,3.61662,-0.3204599999999999,-0.889585125,0.381163575,-0.234679575
1764763279.821452,-0.27468,3.61662,-0.3204599999999999,-0.889585125,0.381163575,-0.234679575
1764763279.821452,-0.27468,3.61662,-0.3204599999999999,-0.889585125,0.381163575,-0.234679575
1764763279.821452,-0.27468,3.61662,-0.3204599999999999,-0.889585125,0.381163575,-0.234679575
1764763279.821452,-0.27468,3.61662,-0.3204599999999999,-0.889585125,0.381163575,-0.234679575
1764763279.821452,-0.27468,3.61662,-0.3204599999999999,-0.889585125,0.381163575,-0.234679575
1764763279.821452,-0.27468,3.61662,-0.3204599999999999,-0.889585125,0.381163575,-0.234679575
1764763279.821452,-0.42728,3.41824,0.1525999999999999,-0.8891578800000001,0.38232324,-0.23474061
1764763279.821452,-0.42728,3.41824,0.1525999999999999,-0.8891578800000001,0.38232324,-0.23474061
1764763279.821452,-0.42728,3.41824,0.1525999999999999,-0.8891578800000001,0.38232324,-0.23474061
1764763279.821452,-0.42728,3.41824,0.1525999999999999,-0.8891578800000001,0.38232324,-0.23474061
1764763279.8713334,-0.42728,3.41824,0.1525999999999999,-0.8891578800000001,0.38232324,-0.23474061
1764763279.8713334,-0.42728,3.41824,0.1525999999999999,-0.8891578800000001,0.38232324,-0.23474061
1764763279.8713334,-0.42728,3.41824,0.1525999999999999,-0.8891578800000001,0.38232324,-0.23474061
1764763279.8713334,-0.42728,3.41824,0.1525999999999999,-0.8891578800000001,0.38232324,-0.23474061
1764763279.8713334,-0.42728,3.41824,0.1525999999999999,-0.8891578800000001,0.38232324,-0.23474061
1764763279.8713334,-0.42728,3.41824,0.1525999999999999,-0.8891578800000001,0.38232324,-0.23474061
1764763279.8713334,-1.8006799999999998,3.2809,-0.28994,-0.889218915,0.38195703,-0.234557505
1764763279.8713334,-1.8006799999999998,3.2809,-0.28994,-0.889218915,0.38195703,-0.234557505
1764763279.8713334,-1.8006799999999998,3.2809,-0.28994,-0.889218915,0.38195703,-0.234557505
1764763279.8713334,-1.8006799999999998,3.2809,-0.28994,-0.889218915,0.38195703,-0.234557505
1764763279.8713334,-1.8006799999999998,3.2809,-0.28994,-0.889218915,0.38195703,-0.234557505
1764763279.8713334,-1.8006799999999998,3.2809,-0.28994,-0.889218915,0.38195703,-0.234557505
1764763279.8713334,-1.8006799999999998,3.2809,-0.28994,-0.889218915,0.38195703,-0.234557505
1764763279.8713334,-1.8006799999999998,3.2809,-0.28994,-0.889218915,0.38195703,-0.234557505
1764763279.8713334,-1.8006799999999998,3.2809,-0.28994,-0.889218915,0.38195703,-0.234557505
1764763279.8713334,-1.8006799999999998,3.2809,-0.28994,-0.889218915,0.38195703,-0.234557505
1764763279.872341,-2.50264,3.55558,-0.47306,-0.88879167,0.381285645,-0.23413026
1764763279.872341,-2.50264,3.55558,-0.47306,-0.88879167,0.381285645,-0.23413026
1764763279.872341,-2.50264,3.55558,-0.47306,-0.88879167,0.381285645,-0.23413026
1764763279.872341,-2.50264,3.55558,-0.47306,-0.88879167,0.381285645,-0.23413026
1764763279.872341,-2.50264,3.55558,-0.47306,-0.88879167,0.381285645,-0.23413026
1764763279.8728502,-2.50264,3.55558,-0.47306,-0.88879167,0.381285645,-0.23413026
1764763279.91872,-2.50264,3.55558,-0.47306,-0.88879167,0.381285645,-0.23413026
1764763279.91872,-2.50264,3.55558,-0.47306,-0.88879167,0.381285645,-0.23413026
1764763279.91872,-2.50264,3.55558,-0.47306,-0.88879167,0.381285645,-0.23413026
1764763279.9192305,-2.50264,3.55558,-0.47306,-0.88879167,0.381285645,-0.23413026
1764763279.9192305,-3.08252,3.38772,-0.3204599999999999,-0.88854753,0.38024805,-0.23388612
1764763279.9192305,-3.08252,3.38772,-0.3204599999999999,-0.88854753,0.38024805,-0.23388612
1764763279.9192305,-3.08252,3.38772,-0.3204599999999999,-0.88854753,0.38024805,-0.23388612
1764763279.9192305,-3.08252,3.38772,-0.3204599999999999,-0.88854753,0.38024805,-0.23388612
1764763279.9192305,-3.08252,3.38772,-0.3204599999999999,-0.88854753,0.38024805,-0.23388612
1764763279.9192305,-3.08252,3.38772,-0.3204599999999999,-0.88854753,0.38024805,-0.23388612
1764763279.9192305,-3.08252,3.38772,-0.3204599999999999,-0.88854753,0.38024805,-0.23388612
1764763279.9192305,-3.08252,3.38772,-0.3204599999999999,-0.88854753,0.38024805,-0.23388612
1764763279.9192305,-3.08252,3.38772,-0.3204599999999999,-0.88854753,0.38024805,-0.23388612
1764763279.9192305,-3.08252,3.38772,-0.3204599999999999,-0.88854753,0.38024805,-0.23388612
1764763279.9192305,-2.09062,3.61662,-0.39676,-0.88879167,0.377989755,-0.23376405
1764763279.9192305,-2.09062,3.61662,-0.39676,-0.88879167,0.377989755,-0.23376405
1764763279.9192305,-2.09062,3.61662,-0.39676,-0.88879167,0.377989755,-0.23376405
1764763279.9192305,-2.09062,3.61662,-0.39676,-0.88879167,0.377989755,-0.23376405
1764763279.9192305,-2.09062,3.61662,-0.39676,-0.88879167,0.377989755,-0.23376405
1764763279.9197366,-2.09062,3.61662,-0.39676,-0.88879167,0.377989755,-0.23376405
1764763279.9197366,-2.09062,3.61662,-0.39676,-0.88879167,0.377989755,-0.23376405
1764763279.9197366,-2.09062,3.61662,-0.39676,-0.88879167,0.377989755,-0.23376405
1764763279.9197366,-2.09062,3.61662,-0.39676,-0.88879167,0.377989755,-0.23376405
1764763279.9197366,-2.09062,3.61662,-0.39676,-0.88879167,0.377989755,-0.23376405
1764763279.9197366,-1.2208,3.09778,-0.3204599999999999,-0.891416175,0.37695216,-0.23376405
1764763279.9197366,-1.2208,3.09778,-0.3204599999999999,-0.891416175,0.37695216,-0.23376405
1764763279.962452,-1.2208,3.09778,-0.3204599999999999,-0.891416175,0.37695216,-0.23376405
1764763279.962452,-1.2208,3.09778,-0.3204599999999999,-0.891416175,0.37695216,-0.23376405
1764763279.962452,-1.2208,3.09778,-0.3204599999999999,-0.891416175,0.37695216,-0.23376405
1764763279.962452,-1.2208,3.09778,-0.3204599999999999,-0.891416175,0.37695216,-0.23376405
1764763279.962452,-1.2208,3.09778,-0.3204599999999999,-0.891416175,0.37695216,-0.23376405
1764763279.962452,-1.2208,3.09778,-0.3204599999999999,-0.891416175,0.37695216,-0.23376405
1764763279.962452,-1.2208,3.09778,-0.3204599999999999,-0.891416175,0.37695216,-0.23376405
1764763279.962452,-1.2208,3.09778,-0.3204599999999999,-0.891416175,0.37695216,-0.23376405
1764763279.962452,-0.8698199999999999,3.03674,0.0,-0.89147721,0.379088385,-0.233092665
1764763279.962452,-0.8698199999999999,3.03674,0.0,-0.89147721,0.379088385,-0.233092665
1764763279.962452,-0.8698199999999999,3.03674,0.0,-0.89147721,0.379088385,-0.233092665
1764763279.962452,-0.8698199999999999,3.03674,0.0,-0.89147721,0.379088385,-0.233092665
1764763279.962452,-0.8698199999999999,3.03674,0.0,-0.89147721,0.379088385,-0.233092665
1764763279.962452,-0.8698199999999999,3.03674,0.0,-0.89147721,0.379088385,-0.233092665
1764763279.962452,-0.8698199999999999,3.03674,0.0,-0.89147721,0.379088385,-0.233092665
1764763279.962452,-0.8698199999999999,3.03674,0.0,-0.89147721,0.379088385,-0.233092665
1764763279.962452,-0.8698199999999999,3.03674,0.0,-0.89147721,0.379088385,-0.233092665
1764763279.962452,-0.8698199999999999,3.03674,0.0,-0.89147721,0.379088385,-0.233092665
1764763279.962452,-1.9838,3.55558,-0.5341,-0.8897071950000001,0.38061426,-0.23168886
1764763279.962452,-1.9838,3.55558,-0.5341,-0.8897071950000001,0.38061426,-0.23168886
1764763279.962452,-1.9838,3.55558,-0.5341,-0.8897071950000001,0.38061426,-0.23168886
1764763279.962452,-1.9838,3.55558,-0.5341,-0.8897071950000001,0.38061426,-0.23168886
1764763280.0097582,-1.9838,3.55558,-0.5341,-0.8897071950000001,0.38061426,-0.23168886
1764763280.0097582,-1.9838,3.55558,-0.5341,-0.8897071950000001,0.38061426,-0.23168886
1764763280.0097582,-1.9838,3.55558,-0.5341,-0.8897071950000001,0.38061426,-0.23168886
1764763280.0097582,-1.9838,3.55558,-0.5341,-0.8897071950000001,0.38061426,-0.23168886
1764763280.0097582,-1.9838,3.55558,-0.5341,-0.8897071950000001,0.38061426,-0.23168886
1764763280.0097582,-1.9838,3.55558,-0.5341,-0.8897071950000001,0.38061426,-0.23168886
1764763280.0107722,-0.9003399999999999,3.21986,-0.5341,-0.890561685,0.379454595,-0.23205507
1764763280.0107722,-0.9003399999999999,3.21986,-0.5341,-0.890561685,0.379454595,-0.23205507
1764763280.0107722,-0.9003399999999999,3.21986,-0.5341,-0.890561685,0.379454595,-0.23205507
1764763280.0107722,-0.9003399999999999,3.21986,-0.5341,-0.890561685,0.379454595,-0.23205507
1764763280.0107722,-0.9003399999999999,3.21986,-0.5341,-0.890561685,0.379454595,-0.23205507
1764763280.0107722,-0.9003399999999999,3.21986,-0.5341,-0.890561685,0.379454595,-0.23205507
1764763280.0107722,-0.9003399999999999,3.21986,-0.5341,-0.890561685,0.379454595,-0.23205507
1764763280.0107722,-0.9003399999999999,3.21986,-0.5341,-0.890561685,0.379454595,-0.23205507
1764763280.0107722,-0.9003399999999999,3.21986,-0.5341,-0.890561685,0.379454595,-0.23205507
1764763280.0107722,-0.9003399999999999,3.21986,-0.5341,-0.890561685,0.379454595,-0.23205507
1764763280.0117767,-0.8698199999999999,3.00622,0.82404,-0.893979645,0.379088385,-0.23254335
1764763280.0117767,-0.8698199999999999,3.00622,0.82404,-0.893979645,0.379088385,-0.23254335
1764763280.0117767,-0.8698199999999999,3.00622,0.82404,-0.893979645,0.379088385,-0.23254335
1764763280.0117767,-0.8698199999999999,3.00622,0.82404,-0.893979645,0.379088385,-0.23254335
1764763280.0117767,-0.8698199999999999,3.00622,0.82404,-0.893979645,0.379088385,-0.23254335
1764763280.0117767,-0.8698199999999999,3.00622,0.82404,-0.893979645,0.379088385,-0.23254335
1764763280.0117767,-0.8698199999999999,3.00622,0.82404,-0.893979645,0.379088385,-0.23254335
1764763280.0117767,-0.8698199999999999,3.00622,0.82404,-0.893979645,0.379088385,-0.23254335
1764763280.058009,-0.8698199999999999,3.00622,0.82404,-0.893979645,0.379088385,-0.23254335
1764763280.0585182,-0.8698199999999999,3.00622,0.82404,-0.893979645,0.379088385,-0.23254335
1764763280.0585182,-0.79352,2.80784,0.21364,-0.893247225,0.379576665,-0.232604385
1764763280.0585182,-0.79352,2.80784,0.21364,-0.893247225,0.379576665,-0.232604385
1764763280.0585182,-0.79352,2.80784,0.21364,-0.893247225,0.379576665,-0.232604385
1764763280.0585182,-0.79352,2.80784,0.21364,-0.893247225,0.379576665,-0.232604385
1764763280.0585182,-0.79352,2.80784,0.21364,-0.893247225,0.379576665,-0.232604385
1764763280.0585182,-0.79352,2.80784,0.21364,-0.893247225,0.379576665,-0.232604385
1764763280.0585182,-0.79352,2.80784,0.21364,-0.893247225,0.379576665,-0.232604385
1764763280.0585182,-0.79352,2.80784,0.21364,-0.893247225,0.379576665,-0.232604385
1764763280.0585182,-0.79352,2.80784,0.21364,-0.893247225,0.379576665,-0.232604385
1764763280.0585182,-0.79352,2.80784,0.21364,-0.893247225,0.379576665,-0.232604385
1764763280.0585182,-1.15976,3.31142,0.21364,-0.890927895,0.38012598,-0.231994035
1764763280.0585182,-1.15976,3.31142,0.21364,-0.890927895,0.38012598,-0.231994035
1764763280.0585182,-1.15976,3.31142,0.21364,-0.890927895,0.38012598,-0.231994035
1764763280.0585182,-1.15976,3.31142,0.21364,-0.890927895,0.38012598,-0.231994035
1764763280.0585182,-1.15976,3.31142,0.21364,-0.890927895,0.38012598,-0.231994035
1764763280.0585182,-1.15976,3.31142,0.21364,-0.890927895,0.38012598,-0.231994035
1764763280.0585182,-1.15976,3.31142,0.21364,-0.890927895,0.38012598,-0.231994035
1764763280.0585182,-1.15976,3.31142,0.21364,-0.890927895,0.38012598,-0.231994035
1764763280.0585182,-1.15976,3.31142,0.21364,-0.890927895,0.38012598,-0.231994035
1764763280.0585182,-1.15976,3.31142,0.21364,-0.890927895,0.38012598,-0.231994035
1764763280.0585182,-1.87698,3.34194,0.0762999999999999,-0.8876320050000001,0.37988184,-0.23168886
1764763280.0585182,-1.87698,3.34194,0.0762999999999999,-0.8876320050000001,0.37988184,-0.23168886
1764763280.1046736,-1.87698,3.34194,0.0762999999999999,-0.8876320050000001,0.37988184,-0.23168886
1764763280.1046736,-1.87698,3.34194,0.0762999999999999,-0.8876320050000001,0.37988184,-0.23168886
1764763280.1046736,-1.87698,3.34194,0.0762999999999999,-0.8876320050000001,0.37988184,-0.23168886
1764763280.1046736,-1.87698,3.34194,0.0762999999999999,-0.8876320050000001,0.37988184,-0.23168886
1764763280.1046736,-1.87698,3.34194,0.0762999999999999,-0.8876320050000001,0.37988184,-0.23168886
1764763280.1046736,-1.87698,3.34194,0.0762999999999999,-0.8876320050000001,0.37988184,-0.23168886
1764763280.1046736,-1.87698,3.34194,0.0762999999999999,-0.8876320050000001,0.37988184,-0.23168886
1764763280.1046736,-1.87698,3.34194,0.0762999999999999,-0.8876320050000001,0.37988184,-0.23168886
1764763280.1046736,-1.6022999999999998,3.83026,-0.763,-0.887754075,0.37866114,-0.23168886
1764763280.1046736,-1.6022999999999998,3.83026,-0.763,-0.887754075,0.37866114,-0.23168886
1764763280.1046736,-1.6022999999999998,3.83026,-0.763,-0.887754075,0.37866114,-0.23168886
1764763280.1046736,-1.6022999999999998,3.83026,-0.763,-0.887754075,0.37866114,-0.23168886
1764763280.1046736,-1.6022999999999998,3.83026,-0.763,-0.887754075,0.37866114,-0.23168886
1764763280.1046736,-1.6022999999999998,3.83026,-0.763,-0.887754075,0.37866114,-0.23168886
1764763280.105682,-1.6022999999999998,3.83026,-0.763,-0.887754075,0.37866114,-0.23168886
1764763280.105682,-1.6022999999999998,3.83026,-0.763,-0.887754075,0.37866114,-0.23168886
1764763280.105682,-1.6022999999999998,3.83026,-0.763,-0.887754075,0.37866114,-0.23168886
1764763280.105682,-1.6022999999999998,3.83026,-0.763,-0.887754075,0.37866114,-0.23168886
1764763280.105682,-2.47212,3.87604,-0.62566,-0.889829265,0.37890528,-0.23254335
1764763280.105682,-2.47212,3.87604,-0.62566,-0.889829265,0.37890528,-0.23254335
1764763280.105682,-2.47212,3.87604,-0.62566,-0.889829265,0.37890528,-0.23254335
1764763280.105682,-2.47212,3.87604,-0.62566,-0.889829265,0.37890528,-0.23254335
1764763280.15056,-2.47212,3.87604,-0.62566,-0.889829265,0.37890528,-0.23254335
1764763280.15056,-2.47212,3.87604,-0.62566,-0.889829265,0.37890528,-0.23254335
1764763280.15056,-2.47212,3.87604,-0.62566,-0.889829265,0.37890528,-0.23254335
1764763280.15056,-2.47212,3.87604,-0.62566,-0.889829265,0.37890528,-0.23254335
1764763280.1515906,-2.47212,3.87604,-0.62566,-0.889829265,0.37890528,-0.23254335
1764763280.1515906,-2.47212,3.87604,-0.62566,-0.889829265,0.37890528,-0.23254335
1764763280.1515906,-3.44876,3.63188,0.54936,-0.89196549,0.38024805,-0.23303163
1764763280.1515906,-3.44876,3.63188,0.54936,-0.89196549,0.38024805,-0.23303163
1764763280.1515906,-3.44876,3.63188,0.54936,-0.89196549,0.38024805,-0.23303163
1764763280.1515906,-3.44876,3.63188,0.54936,-0.89196549,0.38024805,-0.23303163
1764763280.1515906,-3.44876,3.63188,0.54936,-0.89196549,0.38024805,-0.23303163
1764763280.1515906,-3.44876,3.63188,0.54936,-0.89196549,0.38024805,-0.23303163
1764763280.1515906,-3.44876,3.63188,0.54936,-0.89196549,0.38024805,-0.23303163
1764763280.1515906,-3.44876,3.63188,0.54936,-0.89196549,0.38024805,-0.23303163
1764763280.1526115,-3.44876,3.63188,0.54936,-0.89196549,0.38024805,-0.23303163
1764763280.1526115,-3.44876,3.63188,0.54936,-0.89196549,0.38024805,-0.23303163
1764763280.1526115,-3.31142,4.10494,0.04578,-0.89135514,0.381407715,-0.232238175
1764763280.1526115,-3.31142,4.10494,0.04578,-0.89135514,0.381407715,-0.232238175
1764763280.153211,-3.31142,4.10494,0.04578,-0.89135514,0.381407715,-0.232238175
1764763280.153211,-3.31142,4.10494,0.04578,-0.89135514,0.381407715,-0.232238175
1764763280.153211,-3.31142,4.10494,0.04578,-0.89135514,0.381407715,-0.232238175
1764763280.153211,-3.31142,4.10494,0.04578,-0.89135514,0.381407715,-0.232238175
1764763280.195429,-3.31142,4.10494,0.04578,-0.89135514,0.381407715,-0.232238175
1764763280.195429,-3.31142,4.10494,0.04578,-0.89135514,0.381407715,-0.232238175
1764763280.195429,-3.31142,4.10494,0.04578,-0.89135514,0.381407715,-0.232238175
1764763280.195429,-3.31142,4.10494,0.04578,-0.89135514,0.381407715,-0.232238175
1764763280.195429,-2.86888,3.32668,-0.1525999999999999,-0.89147721,0.380309085,-0.231505755
1764763280.1959493,-2.86888,3.32668,-0.1525999999999999,-0.89147721,0.380309085,-0.231505755
1764763280.1959493,-2.86888,3.32668,-0.1525999999999999,-0.89147721,0.380309085,-0.231505755
1764763280.1959493,-2.86888,3.32668,-0.1525999999999999,-0.89147721,0.380309085,-0.231505755
1764763280.1959493,-2.86888,3.32668,-0.1525999999999999,-0.89147721,0.380309085,-0.231505755
1764763280.1959493,-2.86888,3.32668,-0.1525999999999999,-0.89147721,0.380309085,-0.231505755
1764763280.1959493,-2.86888,3.32668,-0.1525999999999999,-0.89147721,0.380309085,-0.231505755
1764763280.1959493,-2.86888,3.32668,-0.1525999999999999,-0.89147721,0.380309085,-0.231505755
1764763280.1959493,-2.86888,3.32668,-0.1525999999999999,-0.89147721,0.380309085,-0.231505755
1764763280.1959493,-2.86888,3.32668,-0.1525999999999999,-0.89147721,0.380309085,-0.231505755
1764763280.1959493,-4.0439,3.15882,0.06104,-0.89098893,0.3796377,-0.232482315
1764763280.1959493,-4.0439,3.15882,0.06104,-0.89098893,0.3796377,-0.232482315
1764763280.1959493,-4.0439,3.15882,0.06104,-0.89098893,0.3796377,-0.232482315
1764763280.1959493,-4.0439,3.15882,0.06104,-0.89098893,0.3796377,-0.232482315
1764763280.1959493,-4.0439,3.15882,0.06104,-0.89098893,0.3796377,-0.232482315
1764763280.1964676,-4.0439,3.15882,0.06104,-0.89098893,0.3796377,-0.232482315
1764763280.2424643,-4.0439,3.15882,0.06104,-0.89098893,0.3796377,-0.232482315
1764763280.2424643,-4.0439,3.15882,0.06104,-0.89098893,0.3796377,-0.232482315
1764763280.2424643,-4.0439,3.15882,0.06104,-0.89098893,0.3796377,-0.232482315
1764763280.2424643,-4.0439,3.15882,0.06104,-0.89098893,0.3796377,-0.232482315
1764763280.2424643,-4.3491,2.57894,0.21364,-0.891416175,0.37829493,-0.23303163
1764763280.2424643,-4.3491,2.57894,0.21364,-0.891416175,0.37829493,-0.23303163
1764763280.2424643,-4.3491,2.57894,0.21364,-0.891416175,0.37829493,-0.23303163
1764763280.2424643,-4.3491,2.57894,0.21364,-0.891416175,0.37829493,-0.23303163
1764763280.2424643,-4.3491,2.57894,0.21364,-0.891416175,0.37829493,-0.23303163
1764763280.2424643,-4.3491,2.57894,0.21364,-0.891416175,0.37829493,-0.23303163
1764763280.2424643,-4.3491,2.57894,0.21364,-0.891416175,0.37829493,-0.23303163
1764763280.2424643,-4.3491,2.57894,0.21364,-0.891416175,0.37829493,-0.23303163
1764763280.2424643,-4.3491,2.57894,0.21364,-0.891416175,0.37829493,-0.23303163
1764763280.2424643,-4.3491,2.57894,0.21364,-0.891416175,0.37829493,-0.23303163
1764763280.2424643,-4.577999999999999,2.09062,-0.01526,-0.89098893,0.378111825,-0.233336805
1764763280.2424643,-4.577999999999999,2.09062,-0.01526,-0.89098893,0.378111825,-0.233336805
1764763280.2424643,-4.577999999999999,2.09062,-0.01526,-0.89098893,0.378111825,-0.233336805
1764763280.2424643,-4.577999999999999,2.09062,-0.01526,-0.89098893,0.378111825,-0.233336805
1764763280.2424643,-4.577999999999999,2.09062,-0.01526,-0.89098893,0.378111825,-0.233336805
1764763280.2424643,-4.577999999999999,2.09062,-0.01526,-0.89098893,0.378111825,-0.233336805
1764763280.2424643,-4.577999999999999,2.09062,-0.01526,-0.89098893,0.378111825,-0.233336805
1764763280.2424643,-4.577999999999999,2.09062,-0.01526,-0.89098893,0.378111825,-0.233336805
1764763280.2424643,-4.577999999999999,2.09062,-0.01526,-0.89098893,0.378111825,-0.233336805
1764763280.2424643,-4.577999999999999,2.09062,-0.01526,-0.89098893,0.378111825,-0.233336805
1764763280.2424643,-4.74586,2.38056,-0.4578,-0.89123307,0.378417,-0.233458875
1764763280.2424643,-4.74586,2.38056,-0.4578,-0.89123307,0.378417,-0.233458875
1764763280.2424643,-4.74586,2.38056,-0.4578,-0.89123307,0.378417,-0.233458875
1764763280.2424643,-4.74586,2.38056,-0.4578,-0.89123307,0.378417,-0.233458875
1764763280.2892046,-4.74586,2.38056,-0.4578,-0.89123307,0.378417,-0.233458875
1764763280.2892046,-4.74586,2.38056,-0.4578,-0.89123307,0.378417,-0.233458875
1764763280.2892046,-4.74586,2.38056,-0.4578,-0.89123307,0.378417,-0.233458875
1764763280.2892046,-4.74586,2.38056,-0.4578,-0.89123307,0.378417,-0.233458875
1764763280.2892046,-4.74586,2.38056,-0.4578,-0.89123307,0.378417,-0.233458875
1764763280.2892046,-4.74586,2.38056,-0.4578,-0.89123307,0.378417,-0.233458875
1764763280.2892046,-6.04296,1.6633399999999998,-0.36624,-0.891904455,0.38049219,-0.233825085
1764763280.2892046,-6.04296,1.6633399999999998,-0.36624,-0.891904455,0.38049219,-0.233825085
1764763280.2892046,-6.04296,1.6633399999999998,-0.36624,-0.891904455,0.38049219,-0.233825085
1764763280.2892046,-6.04296,1.6633399999999998,-0.36624,-0.891904455,0.38049219,-0.233825085
1764763280.2892046,-6.04296,1.6633399999999998,-0.36624,-0.891904455,0.38049219,-0.233825085
1764763280.2892046,-6.04296,1.6633399999999998,-0.36624,-0.891904455,0.38049219,-0.233825085
1764763280.2892046,-6.04296,1.6633399999999998,-0.36624,-0.891904455,0.38049219,-0.233825085
1764763280.2892046,-6.04296,1.6633399999999998,-0.36624,-0.891904455,0.38049219,-0.233825085
1764763280.2892046,-6.04296,1.6633399999999998,-0.36624,-0.891904455,0.38049219,-0.233825085
1764763280.2892046,-6.04296,1.6633399999999998,-0.36624,-0.891904455,0.38049219,-0.233825085
1764763280.2892046,-7.18746,1.70912,-0.6103999999999999,-0.89123307,0.381041505,-0.23278749
1764763280.2892046,-7.18746,1.70912,-0.6103999999999999,-0.89123307,0.381041505,-0.23278749
1764763280.2892046,-7.18746,1.70912,-0.6103999999999999,-0.89123307,0.381041505,-0.23278749
1764763280.2892046,-7.18746,1.70912,-0.6103999999999999,-0.89123307,0.381041505,-0.23278749
1764763280.2892046,-7.18746,1.70912,-0.6103999999999999,-0.89123307,0.381041505,-0.23278749
1764763280.2892046,-7.18746,1.70912,-0.6103999999999999,-0.89123307,0.381041505,-0.23278749
1764763280.2892046,-7.18746,1.70912,-0.6103999999999999,-0.89123307,0.381041505,-0.23278749
1764763280.2892046,-7.18746,1.70912,-0.6103999999999999,-0.89123307,0.381041505,-0.23278749
1764763280.3350112,-7.18746,1.70912,-0.6103999999999999,-0.89123307,0.381041505,-0.23278749
1764763280.3350112,-7.18746,1.70912,-0.6103999999999999,-0.89123307,0.381041505,-0.23278749
1764763280.3350112,-7.4011,0.73248,-0.96138,-0.89086686,0.37683009,-0.234679575
1764763280.3350112,-7.4011,0.73248,-0.96138,-0.89086686,0.37683009,-0.234679575
1764763280.3350112,-7.4011,0.73248,-0.96138,-0.89086686,0.37683009,-0.234679575
1764763280.3350112,-7.4011,0.73248,-0.96138,-0.89086686,0.37683009,-0.234679575
1764763280.3350112,-7.4011,0.73248,-0.96138,-0.89086686,0.37683009,-0.234679575
1764763280.3350112,-7.4011,0.73248,-0.96138,-0.89086686,0.37683009,-0.234679575
1764763280.3350112,-7.4011,0.73248,-0.96138,-0.89086686,0.37683009,-0.234679575
1764763280.3350112,-7.4011,0.73248,-0.96138,-0.89086686,0.37683009,-0.234679575
1764763280.3350112,-7.4011,0.73248,-0.96138,-0.89086686,0.37683009,-0.234679575
1764763280.3350112,-7.4011,0.73248,-0.96138,-0.89086686,0.37683009,-0.234679575
1764763280.3350112,-3.57084,-1.51074,-0.21364,-0.8939186100000001,0.365904825,-0.23754822
1764763280.3350112,-3.57084,-1.51074,-0.21364,-0.8939186100000001,0.365904825,-0.23754822
1764763280.3350112,-3.57084,-1.51074,-0.21364,-0.8939186100000001,0.365904825,-0.23754822
1764763280.3350112,-3.57084,-1.51074,-0.21364,-0.8939186100000001,0.365904825,-0.23754822
1764763280.3365452,-3.57084,-1.51074,-0.21364,-0.8939186100000001,0.365904825,-0.23754822
1764763280.3365452,-3.57084,-1.51074,-0.21364,-0.8939186100000001,0.365904825,-0.23754822
1764763280.3365452,-3.57084,-1.51074,-0.21364,-0.8939186100000001,0.365904825,-0.23754822
1764763280.3365452,-3.57084,-1.51074,-0.21364,-0.8939186100000001,0.365904825,-0.23754822
1764763280.3365452,-3.57084,-1.51074,-0.21364,-0.8939186100000001,0.365904825,-0.23754822
1764763280.3365452,-3.57084,-1.51074,-0.21364,-0.8939186100000001,0.365904825,-0.23754822
1764763280.3835626,3.83026,-3.38772,1.73964,-0.899106585,0.359068905,-0.2331537
1764763280.3835626,3.83026,-3.38772,1.73964,-0.899106585,0.359068905,-0.2331537
1764763280.3835626,3.83026,-3.38772,1.73964,-0.899106585,0.359068905,-0.2331537
1764763280.3835626,3.83026,-3.38772,1.73964,-0.899106585,0.359068905,-0.2331537
1764763280.3835626,3.83026,-3.38772,1.73964,-0.899106585,0.359068905,-0.2331537
1764763280.3835626,3.83026,-3.38772,1.73964,-0.899106585,0.359068905,-0.2331537
1764763280.3835626,3.83026,-3.38772,1.73964,-0.899106585,0.359068905,-0.2331537
1764763280.3835626,3.83026,-3.38772,1.73964,-0.899106585,0.359068905,-0.2331537
1764763280.3835626,3.83026,-3.38772,1.73964,-0.899106585,0.359068905,-0.2331537
1764763280.3835626,3.83026,-3.38772,1.73964,-0.899106585,0.359068905,-0.2331537
1764763280.3835626,7.965719999999999,-4.7306,2.0601,-0.89819106,0.36389067,-0.225158115
1764763280.3835626,7.965719999999999,-4.7306,2.0601,-0.89819106,0.36389067,-0.225158115
1764763280.3835626,7.965719999999999,-4.7306,2.0601,-0.89819106,0.36389067,-0.225158115
1764763280.3835626,7.965719999999999,-4.7306,2.0601,-0.89819106,0.36389067,-0.225158115
1764763280.3835626,7.965719999999999,-4.7306,2.0601,-0.89819106,0.36389067,-0.225158115
1764763280.3835626,7.965719999999999,-4.7306,2.0601,-0.89819106,0.36389067,-0.225158115
1764763280.3835626,7.965719999999999,-4.7306,2.0601,-0.89819106,0.36389067,-0.225158115
1764763280.3835626,7.965719999999999,-4.7306,2.0601,-0.89819106,0.36389067,-0.225158115
1764763280.3835626,7.965719999999999,-4.7306,2.0601,-0.89819106,0.36389067,-0.225158115
1764763280.3835626,7.965719999999999,-4.7306,2.0601,-0.89819106,0.36389067,-0.225158115
1764763280.3835626,8.2404,-1.72438,1.3734,-0.890073405,0.375304215,-0.2185053
1764763280.3835626,8.2404,-1.72438,1.3734,-0.890073405,0.375304215,-0.2185053
1764763280.3835626,8.2404,-1.72438,1.3734,-0.890073405,0.375304215,-0.2185053
1764763280.3835626,8.2404,-1.72438,1.3734,-0.890073405,0.375304215,-0.2185053
1764763280.4304097,8.2404,-1.72438,1.3734,-0.890073405,0.375304215,-0.2185053
1764763280.4304097,8.2404,-1.72438,1.3734,-0.890073405,0.375304215,-0.2185053
1764763280.4309227,8.2404,-1.72438,1.3734,-0.890073405,0.375304215,-0.2185053
1764763280.4309227,8.2404,-1.72438,1.3734,-0.890073405,0.375304215,-0.2185053
1764763280.4309227,8.2404,-1.72438,1.3734,-0.890073405,0.375304215,-0.2185053
1764763280.4309227,8.2404,-1.72438,1.3734,-0.890073405,0.375304215,-0.2185053
1764763280.4309227,5.7225,0.48832,0.7019599999999999,-0.885312675,0.38561913,-0.21447699
1764763280.4309227,5.7225,0.48832,0.7019599999999999,-0.885312675,0.38561913,-0.21447699
1764763280.4309227,5.7225,0.48832,0.7019599999999999,-0.885312675,0.38561913,-0.21447699
1764763280.4309227,5.7225,0.48832,0.7019599999999999,-0.885312675,0.38561913,-0.21447699
1764763280.4309227,5.7225,0.48832,0.7019599999999999,-0.885312675,0.38561913,-0.21447699
1764763280.4309227,5.7225,0.48832,0.7019599999999999,-0.885312675,0.38561913,-0.21447699
1764763280.4309227,5.7225,0.48832,0.7019599999999999,-0.885312675,0.38561913,-0.21447699
1764763280.4309227,5.7225,0.48832,0.7019599999999999,-0.885312675,0.38561913,-0.21447699
1764763280.4309227,5.7225,0.48832,0.7019599999999999,-0.885312675,0.38561913,-0.21447699
1764763280.4309227,5.7225,0.48832,0.7019599999999999,-0.885312675,0.38561913,-0.21447699
1764763280.4309227,4.1202,2.16692,-0.06104,-0.886777515,0.38879295,-0.213195255
1764763280.4309227,4.1202,2.16692,-0.06104,-0.886777515,0.38879295,-0.213195255
1764763280.4309227,4.1202,2.16692,-0.06104,-0.886777515,0.38879295,-0.213195255
1764763280.4309227,4.1202,2.16692,-0.06104,-0.886777515,0.38879295,-0.213195255
1764763280.4774866,4.1202,2.16692,-0.06104,-0.886777515,0.38879295,-0.213195255
1764763280.4774866,4.1202,2.16692,-0.06104,-0.886777515,0.38879295,-0.213195255
1764763280.4774866,4.1202,2.16692,-0.06104,-0.886777515,0.38879295,-0.213195255
1764763280.4774866,4.1202,2.16692,-0.06104,-0.886777515,0.38879295,-0.213195255
1764763280.4774866,4.1202,2.16692,-0.06104,-0.886777515,0.38879295,-0.213195255
1764763280.4774866,4.1202,2.16692,-0.06104,-0.886777515,0.38879295,-0.213195255
1764763280.4774866,5.35626,1.73964,-0.0762999999999999,-0.89159928,0.384337395,-0.21472113
1764763280.4774866,5.35626,1.73964,-0.0762999999999999,-0.89159928,0.384337395,-0.21472113
1764763280.4774866,5.35626,1.73964,-0.0762999999999999,-0.89159928,0.384337395,-0.21472113
1764763280.4774866,5.35626,1.73964,-0.0762999999999999,-0.89159928,0.384337395,-0.21472113
1764763280.4774866,5.35626,1.73964,-0.0762999999999999,-0.89159928,0.384337395,-0.21472113
1764763280.4774866,5.35626,1.73964,-0.0762999999999999,-0.89159928,0.384337395,-0.21472113
1764763280.4774866,5.35626,1.73964,-0.0762999999999999,-0.89159928,0.384337395,-0.21472113
1764763280.4774866,5.35626,1.73964,-0.0762999999999999,-0.89159928,0.384337395,-0.21472113
1764763280.4774866,5.35626,1.73964,-0.0762999999999999,-0.89159928,0.384337395,-0.21472113
1764763280.4774866,5.35626,1.73964,-0.0762999999999999,-0.89159928,0.384337395,-0.21472113
1764763280.4774866,6.4855,2.16692,-0.2289,-0.89318619,0.378111825,-0.2185053
1764763280.4774866,6.4855,2.16692,-0.2289,-0.89318619,0.378111825,-0.2185053
1764763280.4774866,6.4855,2.16692,-0.2289,-0.89318619,0.378111825,-0.2185053
1764763280.4774866,6.4855,2.16692,-0.2289,-0.89318619,0.378111825,-0.2185053
1764763280.4774866,6.4855,2.16692,-0.2289,-0.89318619,0.378111825,-0.2185053
1764763280.4774866,6.4855,2.16692,-0.2289,-0.89318619,0.378111825,-0.2185053
1764763280.4774866,6.4855,2.16692,-0.2289,-0.89318619,0.378111825,-0.2185053
1764763280.4774866,6.4855,2.16692,-0.2289,-0.89318619,0.378111825,-0.2185053
1764763280.4774866,6.4855,2.16692,-0.2289,-0.89318619,0.378111825,-0.2185053
1764763280.4774866,6.4855,2.16692,-0.2289,-0.89318619,0.378111825,-0.2185053
1764763280.5235698,5.4936,2.63998,-0.48832,-0.892026525,0.37756251,-0.22314396
1764763280.5294273,5.4936,2.63998,-0.48832,-0.892026525,0.37756251,-0.22314396
1764763280.5304277,5.4936,2.63998,-0.48832,-0.892026525,0.37756251,-0.22314396
1764763280.5304277,5.4936,2.63998,-0.48832,-0.892026525,0.37756251,-0.22314396
1764763280.5304277,5.4936,2.63998,-0.48832,-0.892026525,0.37756251,-0.22314396
1764763280.5304277,5.4936,2.63998,-0.48832,-0.892026525,0.37756251,-0.22314396
1764763280.5304277,5.4936,2.63998,-0.48832,-0.892026525,0.37756251,-0.22314396
1764763280.5304277,5.4936,2.63998,-0.48832,-0.892026525,0.37756251,-0.22314396
1764763280.5304277,5.4936,2.63998,-0.48832,-0.892026525,0.37756251,-0.22314396
1764763280.5304277,5.4936,2.63998,-0.48832,-0.892026525,0.37756251,-0.22314396
1764763280.5314102,1.89224,2.02958,-0.93086,-0.88976823,0.381773925,-0.22717227
1764763280.5314102,1.89224,2.02958,-0.93086,-0.88976823,0.381773925,-0.22717227
1764763280.5314102,1.89224,2.02958,-0.93086,-0.88976823,0.381773925,-0.22717227
1764763280.5314102,1.89224,2.02958,-0.93086,-0.88976823,0.381773925,-0.22717227
1764763280.5314102,1.89224,2.02958,-0.93086,-0.88976823,0.381773925,-0.22717227
1764763280.5314102,1.89224,2.02958,-0.93086,-0.88976823,0.381773925,-0.22717227
1764763280.5314102,1.89224,2.02958,-0.93086,-0.88976823,0.381773925,-0.22717227
1764763280.5314102,1.89224,2.02958,-0.93086,-0.88976823,0.381773925,-0.22717227
1764763280.5314102,1.89224,2.02958,-0.93086,-0.88976823,0.381773925,-0.22717227
1764763280.5314102,1.89224,2.02958,-0.93086,-0.88976823,0.381773925,-0.22717227
1764763280.5314102,-1.70912,2.94518,-0.6867,-0.89098893,0.383849115,-0.22912539
1764763280.5324266,-1.70912,2.94518,-0.6867,-0.89098893,0.383849115,-0.22912539
1764763280.5324266,-1.70912,2.94518,-0.6867,-0.89098893,0.383849115,-0.22912539
