Timestamp,GyroX,GyroY,GyroZ,AccX,AccY,AccZ
1764763199.7185235,-3.52506,0.51884,0.18312,-0.92394783,0.33251868,-0.15759237
1764763199.7185235,-3.52506,0.51884,0.18312,-0.92394783,0.33251868,-0.15759237
1764763199.7185235,-3.52506,0.51884,0.18312,-0.92394783,0.33251868,-0.15759237
1764763199.7185235,-3.52506,0.51884,0.18312,-0.92394783,0.33251868,-0.15759237
1764763199.7185235,-2.4416,0.65618,0.50358,-0.924253005,0.331847295,-0.15734823
1764763199.7185235,-2.4416,0.65618,0.50358,-0.924253005,0.331847295,-0.15734823
1764763199.7185235,-2.4416,0.65618,0.50358,-0.924253005,0.331847295,-0.15734823
1764763199.7185235,-2.4416,0.65618,0.50358,-0.924253005,0.331847295,-0.15734823
1764763199.7185235,-2.4416,0.65618,0.50358,-0.924253005,0.331847295,-0.15734823
1764763199.7185235,-2.4416,0.65618,0.50358,-0.924253005,0.331847295,-0.15734823
1764763199.7185235,-2.4416,0.65618,0.50358,-0.924253005,0.331847295,-0.15734823
1764763199.7185235,-2.4416,0.65618,0.50358,-0.924253005,0.331847295,-0.15734823
1764763199.7185235,-2.4416,0.65618,0.50358,-0.924253005,0.331847295,-0.15734823
1764763199.7185235,-2.4416,0.65618,0.50358,-0.924253005,0.331847295,-0.15734823
1764763199.7185235,-1.34288,0.71722,0.3509799999999999,-0.923398515,0.330992805,-0.158507895
1764763199.7185235,-1.34288,0.71722,0.3509799999999999,-0.923398515,0.330992805,-0.158507895
1764763199.7185235,-1.34288,0.71722,0.3509799999999999,-0.923398515,0.330992805,-0.158507895
1764763199.7185235,-1.34288,0.71722,0.3509799999999999,-0.923398515,0.330992805,-0.158507895
1764763199.7185235,-1.34288,0.71722,0.3509799999999999,-0.923398515,0.330992805,-0.158507895
1764763199.7185235,-1.34288,0.71722,0.3509799999999999,-0.923398515,0.330992805,-0.158507895
1764763199.7185235,-1.34288,0.71722,0.3509799999999999,-0.923398515,0.330992805,-0.158507895
1764763199.7185235,-1.34288,0.71722,0.3509799999999999,-0.923398515,0.330992805,-0.158507895
1764763199.766111,-1.34288,0.71722,0.3509799999999999,-0.923398515,0.330992805,-0.158507895
1764763199.766111,-1.34288,0.71722,0.3509799999999999,-0.923398515,0.330992805,-0.158507895
1764763199.766111,-3.31142,1.3734,0.3051999999999999,-0.92187264,0.33166419,-0.15954549
1764763199.766111,-3.31142,1.3734,0.3051999999999999,-0.92187264,0.33166419,-0.15954549
1764763199.766111,-3.31142,1.3734,0.3051999999999999,-0.92187264,0.33166419,-0.15954549
1764763199.766111,-3.31142,1.3734,0.3051999999999999,-0.92187264,0.33166419,-0.15954549
1764763199.766111,-3.31142,1.3734,0.3051999999999999,-0.92187264,0.33166419,-0.15954549
1764763199.766111,-3.31142,1.3734,0.3051999999999999,-0.92187264,0.33166419,-0.15954549
1764763199.7669508,-3.31142,1.3734,0.3051999999999999,-0.92187264,0.33166419,-0.15954549
1764763199.7669508,-3.31142,1.3734,0.3051999999999999,-0.92187264,0.33166419,-0.15954549
1764763199.7669508,-3.31142,1.3734,0.3051999999999999,-0.92187264,0.33166419,-0.15954549
1764763199.7669508,-3.31142,1.3734,0.3051999999999999,-0.92187264,0.33166419,-0.15954549
1764763199.7669508,-3.6624,1.15976,0.9003399999999999,-0.9216285,0.333800415,-0.16003377
1764763199.7669508,-3.6624,1.15976,0.9003399999999999,-0.9216285,0.333800415,-0.16003377
1764763199.7669508,-3.6624,1.15976,0.9003399999999999,-0.9216285,0.333800415,-0.16003377
1764763199.7669508,-3.6624,1.15976,0.9003399999999999,-0.9216285,0.333800415,-0.16003377
1764763199.7669508,-3.6624,1.15976,0.9003399999999999,-0.9216285,0.333800415,-0.16003377
1764763199.7669508,-3.6624,1.15976,0.9003399999999999,-0.9216285,0.333800415,-0.16003377
1764763199.7669508,-3.6624,1.15976,0.9003399999999999,-0.9216285,0.333800415,-0.16003377
1764763199.7669508,-3.6624,1.15976,0.9003399999999999,-0.9216285,0.333800415,-0.16003377
1764763199.7669508,-3.6624,1.15976,0.9003399999999999,-0.9216285,0.333800415,-0.16003377
1764763199.7669508,-3.6624,1.15976,0.9003399999999999,-0.9216285,0.333800415,-0.16003377
1764763199.7669508,-3.52506,1.41918,0.93086,-0.921201255,0.334288695,-0.158691
1764763199.7669508,-3.52506,1.41918,0.93086,-0.921201255,0.334288695,-0.158691
1764763199.8141828,-3.52506,1.41918,0.93086,-0.921201255,0.334288695,-0.158691
1764763199.8141828,-3.52506,1.41918,0.93086,-0.921201255,0.334288695,-0.158691
1764763199.8141828,-3.52506,1.41918,0.93086,-0.921201255,0.334288695,-0.158691
1764763199.8141828,-3.52506,1.41918,0.93086,-0.921201255,0.334288695,-0.158691
1764763199.8153963,-3.52506,1.41918,0.93086,-0.921201255,0.334288695,-0.158691
1764763199.8153963,-3.52506,1.41918,0.93086,-0.921201255,0.334288695,-0.158691
1764763199.8153963,-3.52506,1.41918,0.93086,-0.921201255,0.334288695,-0.158691
1764763199.8153963,-3.52506,1.41918,0.93086,-0.921201255,0.334288695,-0.158691
1764763199.8153963,-3.052,0.8392999999999999,0.97664,-0.920712975,0.33288489,-0.15698202
1764763199.8153963,-3.052,0.8392999999999999,0.97664,-0.920712975,0.33288489,-0.15698202
1764763199.8153963,-3.052,0.8392999999999999,0.97664,-0.920712975,0.33288489,-0.15698202
1764763199.8153963,-3.052,0.8392999999999999,0.97664,-0.920712975,0.33288489,-0.15698202
1764763199.8153963,-3.052,0.8392999999999999,0.97664,-0.920712975,0.33288489,-0.15698202
1764763199.8153963,-3.052,0.8392999999999999,0.97664,-0.920712975,0.33288489,-0.15698202
1764763199.8153963,-3.052,0.8392999999999999,0.97664,-0.920712975,0.33288489,-0.15698202
1764763199.8153963,-3.052,0.8392999999999999,0.97664,-0.920712975,0.33288489,-0.15698202
1764763199.8153963,-3.052,0.8392999999999999,0.97664,-0.920712975,0.33288489,-0.15698202
1764763199.8153963,-3.052,0.8392999999999999,0.97664,-0.920712975,0.33288489,-0.15698202
1764763199.8153963,-1.6022999999999998,0.4578,0.4578,-0.920346765,0.330260385,-0.156798915
1764763199.8153963,-1.6022999999999998,0.4578,0.4578,-0.920346765,0.330260385,-0.156798915
1764763199.8153963,-1.6022999999999998,0.4578,0.4578,-0.920346765,0.330260385,-0.156798915
1764763199.8153963,-1.6022999999999998,0.4578,0.4578,-0.920346765,0.330260385,-0.156798915
1764763199.8153963,-1.6022999999999998,0.4578,0.4578,-0.920346765,0.330260385,-0.156798915
1764763199.8153963,-1.6022999999999998,0.4578,0.4578,-0.920346765,0.330260385,-0.156798915
1764763199.8615508,-1.6022999999999998,0.4578,0.4578,-0.920346765,0.330260385,-0.156798915
1764763199.8615508,-1.6022999999999998,0.4578,0.4578,-0.920346765,0.330260385,-0.156798915
1764763199.8615508,-1.6022999999999998,0.4578,0.4578,-0.920346765,0.330260385,-0.156798915
1764763199.8615508,-1.6022999999999998,0.4578,0.4578,-0.920346765,0.330260385,-0.156798915
1764763199.8615508,-1.46496,0.8392999999999999,0.03052,-0.91943124,0.329283825,-0.15893514
1764763199.8615508,-1.46496,0.8392999999999999,0.03052,-0.91943124,0.329283825,-0.15893514
1764763199.8615508,-1.46496,0.8392999999999999,0.03052,-0.91943124,0.329283825,-0.15893514
1764763199.8615508,-1.46496,0.8392999999999999,0.03052,-0.91943124,0.329283825,-0.15893514
1764763199.8615508,-1.46496,0.8392999999999999,0.03052,-0.91943124,0.329283825,-0.15893514
1764763199.8615508,-1.46496,0.8392999999999999,0.03052,-0.91943124,0.329283825,-0.15893514
1764763199.8615508,-1.46496,0.8392999999999999,0.03052,-0.91943124,0.329283825,-0.15893514
1764763199.8615508,-1.46496,0.8392999999999999,0.03052,-0.91943124,0.329283825,-0.15893514
1764763199.8615508,-1.46496,0.8392999999999999,0.03052,-0.91943124,0.329283825,-0.15893514
1764763199.8615508,-1.46496,0.8392999999999999,0.03052,-0.91943124,0.329283825,-0.15893514
1764763199.8615508,-2.53316,1.03768,-0.4578,-0.92016366,0.33068763,-0.161193435
1764763199.8615508,-2.53316,1.03768,-0.4578,-0.92016366,0.33068763,-0.161193435
1764763199.8615508,-2.53316,1.03768,-0.4578,-0.92016366,0.33068763,-0.161193435
1764763199.8615508,-2.53316,1.03768,-0.4578,-0.92016366,0.33068763,-0.161193435
1764763199.8627398,-2.53316,1.03768,-0.4578,-0.92016366,0.33068763,-0.161193435
1764763199.8627398,-2.53316,1.03768,-0.4578,-0.92016366,0.33068763,-0.161193435
1764763199.8627398,-2.53316,1.03768,-0.4578,-0.92016366,0.33068763,-0.161193435
1764763199.8627398,-2.53316,1.03768,-0.4578,-0.92016366,0.33068763,-0.161193435
1764763199.8627398,-2.53316,1.03768,-0.4578,-0.92016366,0.33068763,-0.161193435
1764763199.8627398,-2.53316,1.03768,-0.4578,-0.92016366,0.33068763,-0.161193435
1764763199.9059713,-3.75396,1.1445,-0.41202,-0.922055745,0.334410765,-0.16101033
1764763199.9059713,-3.75396,1.1445,-0.41202,-0.922055745,0.334410765,-0.16101033
1764763199.9059713,-3.75396,1.1445,-0.41202,-0.922055745,0.334410765,-0.16101033
1764763199.9059713,-3.75396,1.1445,-0.41202,-0.922055745,0.334410765,-0.16101033
1764763199.9059713,-3.75396,1.1445,-0.41202,-0.922055745,0.334410765,-0.16101033
1764763199.9069834,-3.75396,1.1445,-0.41202,-0.922055745,0.334410765,-0.16101033
1764763199.9069834,-3.75396,1.1445,-0.41202,-0.922055745,0.334410765,-0.16101033
1764763199.9069834,-3.75396,1.1445,-0.41202,-0.922055745,0.334410765,-0.16101033
1764763199.9069834,-3.75396,1.1445,-0.41202,-0.922055745,0.334410765,-0.16101033
1764763199.9069834,-3.75396,1.1445,-0.41202,-0.922055745,0.334410765,-0.16101033
1764763199.9069834,-3.18934,0.6867,-0.24416,-0.922788165,0.335997675,-0.159362385
1764763199.9069834,-3.18934,0.6867,-0.24416,-0.922788165,0.335997675,-0.159362385
1764763199.9069834,-3.18934,0.6867,-0.24416,-0.922788165,0.335997675,-0.159362385
1764763199.9069834,-3.18934,0.6867,-0.24416,-0.922788165,0.335997675,-0.159362385
1764763199.9069834,-3.18934,0.6867,-0.24416,-0.922788165,0.335997675,-0.159362385
1764763199.9069834,-3.18934,0.6867,-0.24416,-0.922788165,0.335997675,-0.159362385
1764763199.9069834,-3.18934,0.6867,-0.24416,-0.922788165,0.335997675,-0.159362385
1764763199.9069834,-3.18934,0.6867,-0.24416,-0.922788165,0.335997675,-0.159362385
1764763199.907978,-3.18934,0.6867,-0.24416,-0.922788165,0.335997675,-0.159362385
1764763199.907978,-3.18934,0.6867,-0.24416,-0.922788165,0.335997675,-0.159362385
1764763199.907978,-2.0601,0.0762999999999999,-0.18312,-0.922421955,0.33386145,-0.157897545
1764763199.907978,-2.0601,0.0762999999999999,-0.18312,-0.922421955,0.33386145,-0.157897545
1764763199.9535248,-2.0601,0.0762999999999999,-0.18312,-0.922421955,0.33386145,-0.157897545
1764763199.9535248,-2.0601,0.0762999999999999,-0.18312,-0.922421955,0.33386145,-0.157897545
1764763199.9535248,-2.0601,0.0762999999999999,-0.18312,-0.922421955,0.33386145,-0.157897545
1764763199.9535248,-2.0601,0.0762999999999999,-0.18312,-0.922421955,0.33386145,-0.157897545
1764763199.9535248,-2.0601,0.0762999999999999,-0.18312,-0.922421955,0.33386145,-0.157897545
1764763199.9535248,-2.0601,0.0762999999999999,-0.18312,-0.922421955,0.33386145,-0.157897545
1764763199.9535248,-2.0601,0.0762999999999999,-0.18312,-0.922421955,0.33386145,-0.157897545
1764763199.9535248,-2.0601,0.0762999999999999,-0.18312,-0.922421955,0.33386145,-0.157897545
1764763199.954029,-2.6705,0.65618,-0.06104,-0.923154375,0.33117591,-0.15905721
1764763199.954029,-2.6705,0.65618,-0.06104,-0.923154375,0.33117591,-0.15905721
1764763199.954029,-2.6705,0.65618,-0.06104,-0.923154375,0.33117591,-0.15905721
1764763199.954029,-2.6705,0.65618,-0.06104,-0.923154375,0.33117591,-0.15905721
1764763199.954029,-2.6705,0.65618,-0.06104,-0.923154375,0.33117591,-0.15905721
1764763199.954029,-2.6705,0.65618,-0.06104,-0.923154375,0.33117591,-0.15905721
1764763199.954029,-2.6705,0.65618,-0.06104,-0.923154375,0.33117591,-0.15905721
1764763199.954029,-2.6705,0.65618,-0.06104,-0.923154375,0.33117591,-0.15905721
1764763199.954029,-2.6705,0.65618,-0.06104,-0.923154375,0.33117591,-0.15905721
1764763199.954029,-2.6705,0.65618,-0.06104,-0.923154375,0.33117591,-0.15905721
1764763199.954029,-3.40298,1.32762,0.10682,-0.923398515,0.331236945,-0.16137654
1764763199.954029,-3.40298,1.32762,0.10682,-0.923398515,0.331236945,-0.16137654
1764763199.954029,-3.40298,1.32762,0.10682,-0.923398515,0.331236945,-0.16137654
1764763199.954029,-3.40298,1.32762,0.10682,-0.923398515,0.331236945,-0.16137654
1764763200.0029924,-3.40298,1.32762,0.10682,-0.923398515,0.331236945,-0.16137654
1764763200.0029924,-3.40298,1.32762,0.10682,-0.923398515,0.331236945,-0.16137654
1764763200.0029924,-3.40298,1.32762,0.10682,-0.923398515,0.331236945,-0.16137654
1764763200.0029924,-3.40298,1.32762,0.10682,-0.923398515,0.331236945,-0.16137654
1764763200.0029924,-3.40298,1.32762,0.10682,-0.923398515,0.331236945,-0.16137654
1764763200.0029924,-3.40298,1.32762,0.10682,-0.923398515,0.331236945,-0.16137654
1764763200.0029924,-2.94518,1.51074,0.36624,-0.92394783,0.331236945,-0.16186482
1764763200.0029924,-2.94518,1.51074,0.36624,-0.92394783,0.331236945,-0.16186482
1764763200.0029924,-2.94518,1.51074,0.36624,-0.92394783,0.331236945,-0.16186482
1764763200.0029924,-2.94518,1.51074,0.36624,-0.92394783,0.331236945,-0.16186482
1764763200.0029924,-2.94518,1.51074,0.36624,-0.92394783,0.331236945,-0.16186482
1764763200.0029924,-2.94518,1.51074,0.36624,-0.92394783,0.331236945,-0.16186482
1764763200.0029924,-2.94518,1.51074,0.36624,-0.92394783,0.331236945,-0.16186482
1764763200.0029924,-2.94518,1.51074,0.36624,-0.92394783,0.331236945,-0.16186482
1764763200.0029924,-2.94518,1.51074,0.36624,-0.92394783,0.331236945,-0.16186482
1764763200.0029924,-2.94518,1.51074,0.36624,-0.92394783,0.331236945,-0.16186482
1764763200.0029924,-2.8994,1.3734,0.01526,-0.923032305,0.33142005,-0.16015584
1764763200.0029924,-2.8994,1.3734,0.01526,-0.923032305,0.33142005,-0.16015584
1764763200.0029924,-2.8994,1.3734,0.01526,-0.923032305,0.33142005,-0.16015584
1764763200.0029924,-2.8994,1.3734,0.01526,-0.923032305,0.33142005,-0.16015584
1764763200.0029924,-2.8994,1.3734,0.01526,-0.923032305,0.33142005,-0.16015584
1764763200.0029924,-2.8994,1.3734,0.01526,-0.923032305,0.33142005,-0.16015584
1764763200.0029924,-2.8994,1.3734,0.01526,-0.923032305,0.33142005,-0.16015584
1764763200.0029924,-2.8994,1.3734,0.01526,-0.923032305,0.33142005,-0.16015584
1764763200.0029924,-2.8994,1.3734,0.01526,-0.923032305,0.33142005,-0.16015584
1764763200.0029924,-2.8994,1.3734,0.01526,-0.923032305,0.33142005,-0.16015584
1764763200.046129,-4.3491,1.38866,0.3357199999999999,-0.92175057,0.33288489,-0.158874105
1764763200.046129,-4.3491,1.38866,0.3357199999999999,-0.92175057,0.33288489,-0.158874105
1764763200.046129,-4.3491,1.38866,0.3357199999999999,-0.92175057,0.33288489,-0.158874105
1764763200.046129,-4.3491,1.38866,0.3357199999999999,-0.92175057,0.33288489,-0.158874105
1764763200.046129,-4.3491,1.38866,0.3357199999999999,-0.92175057,0.33288489,-0.158874105
1764763200.046129,-4.3491,1.38866,0.3357199999999999,-0.92175057,0.33288489,-0.158874105
1764763200.046129,-4.3491,1.38866,0.3357199999999999,-0.92175057,0.33288489,-0.158874105
1764763200.046129,-4.3491,1.38866,0.3357199999999999,-0.92175057,0.33288489,-0.158874105
1764763200.0471723,-4.3491,1.38866,0.3357199999999999,-0.92175057,0.33288489,-0.158874105
1764763200.0471723,-4.3491,1.38866,0.3357199999999999,-0.92175057,0.33288489,-0.158874105
1764763200.0471723,-2.7468,1.2208,0.3357199999999999,-0.9228492,0.332457645,-0.160216875
1764763200.0471723,-2.7468,1.2208,0.3357199999999999,-0.9228492,0.332457645,-0.160216875
1764763200.0471723,-2.7468,1.2208,0.3357199999999999,-0.9228492,0.332457645,-0.160216875
1764763200.0471723,-2.7468,1.2208,0.3357199999999999,-0.9228492,0.332457645,-0.160216875
1764763200.0471723,-2.7468,1.2208,0.3357199999999999,-0.9228492,0.332457645,-0.160216875
1764763200.0481925,-2.7468,1.2208,0.3357199999999999,-0.9228492,0.332457645,-0.160216875
1764763200.0481925,-2.7468,1.2208,0.3357199999999999,-0.9228492,0.332457645,-0.160216875
1764763200.0481925,-2.7468,1.2208,0.3357199999999999,-0.9228492,0.332457645,-0.160216875
1764763200.0481925,-2.7468,1.2208,0.3357199999999999,-0.9228492,0.332457645,-0.160216875
1764763200.0481925,-2.7468,1.2208,0.3357199999999999,-0.9228492,0.332457645,-0.160216875
1764763200.0481925,-2.38056,0.62566,0.1678599999999999,-0.921323325,0.330992805,-0.16320759
1764763200.0481925,-2.38056,0.62566,0.1678599999999999,-0.921323325,0.330992805,-0.16320759
1764763200.09457,-2.38056,0.62566,0.1678599999999999,-0.921323325,0.330992805,-0.16320759
1764763200.09457,-2.38056,0.62566,0.1678599999999999,-0.921323325,0.330992805,-0.16320759
1764763200.09457,-2.38056,0.62566,0.1678599999999999,-0.921323325,0.330992805,-0.16320759
1764763200.09457,-2.38056,0.62566,0.1678599999999999,-0.921323325,0.330992805,-0.16320759
1764763200.09457,-2.38056,0.62566,0.1678599999999999,-0.921323325,0.330992805,-0.16320759
1764763200.09457,-2.38056,0.62566,0.1678599999999999,-0.921323325,0.330992805,-0.16320759
1764763200.09457,-2.38056,0.62566,0.1678599999999999,-0.921323325,0.330992805,-0.16320759
1764763200.09457,-2.38056,0.62566,0.1678599999999999,-0.921323325,0.330992805,-0.16320759
1764763200.09457,-4.440659999999999,1.4039199999999998,-0.3815,-0.91869882,0.331481085,-0.16394001
1764763200.09457,-4.440659999999999,1.4039199999999998,-0.3815,-0.91869882,0.331481085,-0.16394001
1764763200.09457,-4.440659999999999,1.4039199999999998,-0.3815,-0.91869882,0.331481085,-0.16394001
1764763200.09457,-4.440659999999999,1.4039199999999998,-0.3815,-0.91869882,0.331481085,-0.16394001
1764763200.09457,-4.440659999999999,1.4039199999999998,-0.3815,-0.91869882,0.331481085,-0.16394001
1764763200.09457,-4.440659999999999,1.4039199999999998,-0.3815,-0.91869882,0.331481085,-0.16394001
1764763200.09457,-4.440659999999999,1.4039199999999998,-0.3815,-0.91869882,0.331481085,-0.16394001
1764763200.09457,-4.440659999999999,1.4039199999999998,-0.3815,-0.91869882,0.331481085,-0.16394001
1764763200.09457,-4.440659999999999,1.4039199999999998,-0.3815,-0.91869882,0.331481085,-0.16394001
1764763200.09457,-4.440659999999999,1.4039199999999998,-0.3815,-0.91869882,0.331481085,-0.16394001
1764763200.09457,-5.753019999999999,1.1445,1.2208,-0.919736415,0.33459387,-0.16247517
1764763200.09457,-5.753019999999999,1.1445,1.2208,-0.919736415,0.33459387,-0.16247517
1764763200.09457,-5.753019999999999,1.1445,1.2208,-0.919736415,0.33459387,-0.16247517
1764763200.0951056,-5.753019999999999,1.1445,1.2208,-0.919736415,0.33459387,-0.16247517
1764763200.0951056,-5.753019999999999,1.1445,1.2208,-0.919736415,0.33459387,-0.16247517
1764763200.0951056,-5.753019999999999,1.1445,1.2208,-0.919736415,0.33459387,-0.16247517
1764763200.1415083,-5.753019999999999,1.1445,1.2208,-0.919736415,0.33459387,-0.16247517
1764763200.1415083,-5.753019999999999,1.1445,1.2208,-0.919736415,0.33459387,-0.16247517
1764763200.1415083,-5.753019999999999,1.1445,1.2208,-0.919736415,0.33459387,-0.16247517
1764763200.1415083,-5.753019999999999,1.1445,1.2208,-0.919736415,0.33459387,-0.16247517
1764763200.1415083,-4.31858,1.3734,0.96138,-0.92272713,0.3344718,-0.161437575
1764763200.1415083,-4.31858,1.3734,0.96138,-0.92272713,0.3344718,-0.161437575
1764763200.1415083,-4.31858,1.3734,0.96138,-0.92272713,0.3344718,-0.161437575
1764763200.1415083,-4.31858,1.3734,0.96138,-0.92272713,0.3344718,-0.161437575
1764763200.1415083,-4.31858,1.3734,0.96138,-0.92272713,0.3344718,-0.161437575
1764763200.1420438,-4.31858,1.3734,0.96138,-0.92272713,0.3344718,-0.161437575
1764763200.1420438,-4.31858,1.3734,0.96138,-0.92272713,0.3344718,-0.161437575
1764763200.1420438,-4.31858,1.3734,0.96138,-0.92272713,0.3344718,-0.161437575
1764763200.1420438,-4.31858,1.3734,0.96138,-0.92272713,0.3344718,-0.161437575
1764763200.1420438,-4.31858,1.3734,0.96138,-0.92272713,0.3344718,-0.161437575
1764763200.1420438,-2.85362,0.8087799999999999,0.10682,-0.925717845,0.33276282,-0.160705155
1764763200.1420438,-2.85362,0.8087799999999999,0.10682,-0.925717845,0.33276282,-0.160705155
1764763200.1420438,-2.85362,0.8087799999999999,0.10682,-0.925717845,0.33276282,-0.160705155
1764763200.1420438,-2.85362,0.8087799999999999,0.10682,-0.925717845,0.33276282,-0.160705155
1764763200.1420438,-2.85362,0.8087799999999999,0.10682,-0.925717845,0.33276282,-0.160705155
1764763200.1420438,-2.85362,0.8087799999999999,0.10682,-0.925717845,0.33276282,-0.160705155
1764763200.1420438,-2.85362,0.8087799999999999,0.10682,-0.925717845,0.33276282,-0.160705155
1764763200.1420438,-2.85362,0.8087799999999999,0.10682,-0.925717845,0.33276282,-0.160705155
1764763200.1887474,-2.85362,0.8087799999999999,0.10682,-0.925717845,0.33276282,-0.160705155
1764763200.1887474,-2.85362,0.8087799999999999,0.10682,-0.925717845,0.33276282,-0.160705155
1764763200.1887474,-3.47928,0.763,-0.1678599999999999,-0.923886795,0.331481085,-0.160827225
1764763200.1887474,-3.47928,0.763,-0.1678599999999999,-0.923886795,0.331481085,-0.160827225
1764763200.1887474,-3.47928,0.763,-0.1678599999999999,-0.923886795,0.331481085,-0.160827225
1764763200.1887474,-3.47928,0.763,-0.1678599999999999,-0.923886795,0.331481085,-0.160827225
1764763200.1887474,-3.47928,0.763,-0.1678599999999999,-0.923886795,0.331481085,-0.160827225
1764763200.1887474,-3.47928,0.763,-0.1678599999999999,-0.923886795,0.331481085,-0.160827225
1764763200.1887474,-3.47928,0.763,-0.1678599999999999,-0.923886795,0.331481085,-0.160827225
1764763200.1887474,-3.47928,0.763,-0.1678599999999999,-0.923886795,0.331481085,-0.160827225
1764763200.1887474,-3.47928,0.763,-0.1678599999999999,-0.923886795,0.331481085,-0.160827225
1764763200.1887474,-3.47928,0.763,-0.1678599999999999,-0.923886795,0.331481085,-0.160827225
1764763200.1887474,-4.83742,1.54126,1.00716,-0.920346765,0.33239661,-0.161071365
1764763200.1887474,-4.83742,1.54126,1.00716,-0.920346765,0.33239661,-0.161071365
1764763200.1887474,-4.83742,1.54126,1.00716,-0.920346765,0.33239661,-0.161071365
1764763200.1887474,-4.83742,1.54126,1.00716,-0.920346765,0.33239661,-0.161071365
1764763200.1892517,-4.83742,1.54126,1.00716,-0.920346765,0.33239661,-0.161071365
1764763200.1892517,-4.83742,1.54126,1.00716,-0.920346765,0.33239661,-0.161071365
1764763200.1892517,-4.83742,1.54126,1.00716,-0.920346765,0.33239661,-0.161071365
1764763200.1892517,-4.83742,1.54126,1.00716,-0.920346765,0.33239661,-0.161071365
1764763200.1892517,-4.83742,1.54126,1.00716,-0.920346765,0.33239661,-0.161071365
1764763200.1892517,-4.83742,1.54126,1.00716,-0.920346765,0.33239661,-0.161071365
1764763200.1892517,-5.63094,2.45686,1.32762,-0.918881925,0.332579715,-0.160583085
1764763200.1892517,-5.63094,2.45686,1.32762,-0.918881925,0.332579715,-0.160583085
1764763200.1892517,-5.63094,2.45686,1.32762,-0.918881925,0.332579715,-0.160583085
1764763200.1892517,-5.63094,2.45686,1.32762,-0.918881925,0.332579715,-0.160583085
1764763200.2357142,-5.63094,2.45686,1.32762,-0.918881925,0.332579715,-0.160583085
1764763200.2357142,-5.63094,2.45686,1.32762,-0.918881925,0.332579715,-0.160583085
1764763200.2357142,-5.63094,2.45686,1.32762,-0.918881925,0.332579715,-0.160583085
1764763200.2357142,-5.63094,2.45686,1.32762,-0.918881925,0.332579715,-0.160583085
1764763200.2357142,-5.63094,2.45686,1.32762,-0.918881925,0.332579715,-0.160583085
1764763200.2357142,-5.63094,2.45686,1.32762,-0.918881925,0.332579715,-0.160583085
1764763200.2357142,-5.43256,2.39582,0.8698199999999999,-0.92016366,0.331359015,-0.161071365
1764763200.2357142,-5.43256,2.39582,0.8698199999999999,-0.92016366,0.331359015,-0.161071365
1764763200.2357142,-5.43256,2.39582,0.8698199999999999,-0.92016366,0.331359015,-0.161071365
1764763200.2357142,-5.43256,2.39582,0.8698199999999999,-0.92016366,0.331359015,-0.161071365
1764763200.2357142,-5.43256,2.39582,0.8698199999999999,-0.92016366,0.331359015,-0.161071365
1764763200.2357142,-5.43256,2.39582,0.8698199999999999,-0.92016366,0.331359015,-0.161071365
1764763200.2357142,-5.43256,2.39582,0.8698199999999999,-0.92016366,0.331359015,-0.161071365
1764763200.2357142,-5.43256,2.39582,0.8698199999999999,-0.92016366,0.331359015,-0.161071365
1764763200.2357142,-5.43256,2.39582,0.8698199999999999,-0.92016366,0.331359015,-0.161071365
1764763200.2357142,-5.43256,2.39582,0.8698199999999999,-0.92016366,0.331359015,-0.161071365
1764763200.2362468,-5.44782,1.17502,0.13734,-0.922299885,0.33044349,-0.1611324
1764763200.2362468,-5.44782,1.17502,0.13734,-0.922299885,0.33044349,-0.1611324
1764763200.2362468,-5.44782,1.17502,0.13734,-0.922299885,0.33044349,-0.1611324
1764763200.2362468,-5.44782,1.17502,0.13734,-0.922299885,0.33044349,-0.1611324
1764763200.2362468,-5.44782,1.17502,0.13734,-0.922299885,0.33044349,-0.1611324
1764763200.2362468,-5.44782,1.17502,0.13734,-0.922299885,0.33044349,-0.1611324
1764763200.2813675,-5.44782,1.17502,0.13734,-0.922299885,0.33044349,-0.1611324
1764763200.2813675,-5.44782,1.17502,0.13734,-0.922299885,0.33044349,-0.1611324
1764763200.2813675,-5.44782,1.17502,0.13734,-0.922299885,0.33044349,-0.1611324
1764763200.2813675,-5.44782,1.17502,0.13734,-0.922299885,0.33044349,-0.1611324
1764763200.2813675,-4.36436,0.48832,0.39676,-0.92358162,0.32995521,-0.160094805
1764763200.2813675,-4.36436,0.48832,0.39676,-0.92358162,0.32995521,-0.160094805
1764763200.2813675,-4.36436,0.48832,0.39676,-0.92358162,0.32995521,-0.160094805
1764763200.2813675,-4.36436,0.48832,0.39676,-0.92358162,0.32995521,-0.160094805
1764763200.2813675,-4.36436,0.48832,0.39676,-0.92358162,0.32995521,-0.160094805
1764763200.2813675,-4.36436,0.48832,0.39676,-0.92358162,0.32995521,-0.160094805
1764763200.2813675,-4.36436,0.48832,0.39676,-0.92358162,0.32995521,-0.160094805
1764763200.2813675,-4.36436,0.48832,0.39676,-0.92358162,0.32995521,-0.160094805
1764763200.2813675,-4.36436,0.48832,0.39676,-0.92358162,0.32995521,-0.160094805
1764763200.2813675,-4.36436,0.48832,0.39676,-0.92358162,0.32995521,-0.160094805
1764763200.2813675,-2.07536,1.15976,-0.03052,-0.92345955,0.328307265,-0.16064412
1764763200.2813675,-2.07536,1.15976,-0.03052,-0.92345955,0.328307265,-0.16064412
1764763200.2813675,-2.07536,1.15976,-0.03052,-0.92345955,0.328307265,-0.16064412
1764763200.2813675,-2.07536,1.15976,-0.03052,-0.92345955,0.328307265,-0.16064412
1764763200.2813675,-2.07536,1.15976,-0.03052,-0.92345955,0.328307265,-0.16064412
1764763200.2813675,-2.07536,1.15976,-0.03052,-0.92345955,0.328307265,-0.16064412
1764763200.2813675,-2.07536,1.15976,-0.03052,-0.92345955,0.328307265,-0.16064412
1764763200.2813675,-2.07536,1.15976,-0.03052,-0.92345955,0.328307265,-0.16064412
1764763200.2813675,-2.07536,1.15976,-0.03052,-0.92345955,0.328307265,-0.16064412
1764763200.2813675,-2.07536,1.15976,-0.03052,-0.92345955,0.328307265,-0.16064412
1764763200.328853,-2.73154,0.3051999999999999,0.54936,-0.92175057,0.329283825,-0.160583085
1764763200.328853,-2.73154,0.3051999999999999,0.54936,-0.92175057,0.329283825,-0.160583085
1764763200.328853,-2.73154,0.3051999999999999,0.54936,-0.92175057,0.329283825,-0.160583085
1764763200.328853,-2.73154,0.3051999999999999,0.54936,-0.92175057,0.329283825,-0.160583085
1764763200.328853,-2.73154,0.3051999999999999,0.54936,-0.92175057,0.329283825,-0.160583085
1764763200.328853,-2.73154,0.3051999999999999,0.54936,-0.92175057,0.329283825,-0.160583085
1764763200.328853,-2.73154,0.3051999999999999,0.54936,-0.92175057,0.329283825,-0.160583085
1764763200.328853,-2.73154,0.3051999999999999,0.54936,-0.92175057,0.329283825,-0.160583085
1764763200.328853,-2.73154,0.3051999999999999,0.54936,-0.92175057,0.329283825,-0.160583085
1764763200.328853,-2.73154,0.3051999999999999,0.54936,-0.92175057,0.329283825,-0.160583085
1764763200.328853,-3.76922,0.6867,0.3357199999999999,-0.921567465,0.33166419,-0.16076619
1764763200.328853,-3.76922,0.6867,0.3357199999999999,-0.921567465,0.33166419,-0.16076619
1764763200.328853,-3.76922,0.6867,0.3357199999999999,-0.921567465,0.33166419,-0.16076619
1764763200.328853,-3.76922,0.6867,0.3357199999999999,-0.921567465,0.33166419,-0.16076619
1764763200.328853,-3.76922,0.6867,0.3357199999999999,-0.921567465,0.33166419,-0.16076619
1764763200.328853,-3.76922,0.6867,0.3357199999999999,-0.921567465,0.33166419,-0.16076619
1764763200.328853,-3.76922,0.6867,0.3357199999999999,-0.921567465,0.33166419,-0.16076619
1764763200.328853,-3.76922,0.6867,0.3357199999999999,-0.921567465,0.33166419,-0.16076619
1764763200.328853,-3.76922,0.6867,0.3357199999999999,-0.921567465,0.33166419,-0.16076619
1764763200.328853,-3.76922,0.6867,0.3357199999999999,-0.921567465,0.33166419,-0.16076619
1764763200.328853,-4.6543,0.8087799999999999,0.19838,-0.92101815,0.331359015,-0.161071365
1764763200.328853,-4.6543,0.8087799999999999,0.19838,-0.92101815,0.331359015,-0.161071365
1764763200.3761775,-4.6543,0.8087799999999999,0.19838,-0.92101815,0.331359015,-0.161071365
1764763200.3771913,-4.6543,0.8087799999999999,0.19838,-0.92101815,0.331359015,-0.161071365
1764763200.3771913,-4.6543,0.8087799999999999,0.19838,-0.92101815,0.331359015,-0.161071365
1764763200.3771913,-4.6543,0.8087799999999999,0.19838,-0.92101815,0.331359015,-0.161071365
1764763200.3771913,-4.6543,0.8087799999999999,0.19838,-0.92101815,0.331359015,-0.161071365
1764763200.3771913,-4.6543,0.8087799999999999,0.19838,-0.92101815,0.331359015,-0.161071365
1764763200.3771913,-4.6543,0.8087799999999999,0.19838,-0.92101815,0.331359015,-0.161071365
1764763200.3771913,-4.6543,0.8087799999999999,0.19838,-0.92101815,0.331359015,-0.161071365
1764763200.3771913,-4.33384,0.8698199999999999,0.12208,-0.92187264,0.33117591,-0.1611324
1764763200.3771913,-4.33384,0.8698199999999999,0.12208,-0.92187264,0.33117591,-0.1611324
1764763200.3771913,-4.33384,0.8698199999999999,0.12208,-0.92187264,0.33117591,-0.1611324
1764763200.3771913,-4.33384,0.8698199999999999,0.12208,-0.92187264,0.33117591,-0.1611324
1764763200.3771913,-4.33384,0.8698199999999999,0.12208,-0.92187264,0.33117591,-0.1611324
1764763200.3771913,-4.33384,0.8698199999999999,0.12208,-0.92187264,0.33117591,-0.1611324
1764763200.3771913,-4.33384,0.8698199999999999,0.12208,-0.92187264,0.33117591,-0.1611324
1764763200.3771913,-4.33384,0.8698199999999999,0.12208,-0.92187264,0.33117591,-0.1611324
1764763200.3771913,-4.33384,0.8698199999999999,0.12208,-0.92187264,0.33117591,-0.1611324
1764763200.3771913,-4.33384,0.8698199999999999,0.12208,-0.92187264,0.33117591,-0.1611324
1764763200.3771913,-3.9676,0.7019599999999999,0.1525999999999999,-0.921689535,0.33056556,-0.161681715
1764763200.3771913,-3.9676,0.7019599999999999,0.1525999999999999,-0.921689535,0.33056556,-0.161681715
1764763200.3771913,-3.9676,0.7019599999999999,0.1525999999999999,-0.921689535,0.33056556,-0.161681715
1764763200.3771913,-3.9676,0.7019599999999999,0.1525999999999999,-0.921689535,0.33056556,-0.161681715
1764763200.3771913,-3.9676,0.7019599999999999,0.1525999999999999,-0.921689535,0.33056556,-0.161681715
1764763200.3771913,-3.9676,0.7019599999999999,0.1525999999999999,-0.921689535,0.33056556,-0.161681715
1764763200.423344,-3.9676,0.7019599999999999,0.1525999999999999,-0.921689535,0.33056556,-0.161681715
1764763200.423344,-3.9676,0.7019599999999999,0.1525999999999999,-0.921689535,0.33056556,-0.161681715
1764763200.423344,-3.9676,0.7019599999999999,0.1525999999999999,-0.921689535,0.33056556,-0.161681715
1764763200.423344,-3.9676,0.7019599999999999,0.1525999999999999,-0.921689535,0.33056556,-0.161681715
1764763200.423344,-4.21176,0.3815,0.50358,-0.920957115,0.33154212,-0.162169995
1764763200.423344,-4.21176,0.3815,0.50358,-0.920957115,0.33154212,-0.162169995
1764763200.423344,-4.21176,0.3815,0.50358,-0.920957115,0.33154212,-0.162169995
1764763200.423344,-4.21176,0.3815,0.50358,-0.920957115,0.33154212,-0.162169995
1764763200.423344,-4.21176,0.3815,0.50358,-0.920957115,0.33154212,-0.162169995
1764763200.423344,-4.21176,0.3815,0.50358,-0.920957115,0.33154212,-0.162169995
1764763200.423344,-4.21176,0.3815,0.50358,-0.920957115,0.33154212,-0.162169995
1764763200.423344,-4.21176,0.3815,0.50358,-0.920957115,0.33154212,-0.162169995
1764763200.423344,-4.21176,0.3815,0.50358,-0.920957115,0.33154212,-0.162169995
1764763200.423344,-4.21176,0.3815,0.50358,-0.920957115,0.33154212,-0.162169995
1764763200.423344,-4.79164,0.28994,0.2289,-0.92052987,0.330504525,-0.16223103
1764763200.423344,-4.79164,0.28994,0.2289,-0.92052987,0.330504525,-0.16223103
1764763200.423344,-4.79164,0.28994,0.2289,-0.92052987,0.330504525,-0.16223103
1764763200.423344,-4.79164,0.28994,0.2289,-0.92052987,0.330504525,-0.16223103
1764763200.423344,-4.79164,0.28994,0.2289,-0.92052987,0.330504525,-0.16223103
1764763200.423344,-4.79164,0.28994,0.2289,-0.92052987,0.330504525,-0.16223103
1764763200.423344,-4.79164,0.28994,0.2289,-0.92052987,0.330504525,-0.16223103
1764763200.423344,-4.79164,0.28994,0.2289,-0.92052987,0.330504525,-0.16223103
1764763200.4683297,-4.79164,0.28994,0.2289,-0.92052987,0.330504525,-0.16223103
1764763200.4683297,-4.79164,0.28994,0.2289,-0.92052987,0.330504525,-0.16223103
1764763200.4683297,-5.32574,-0.39676,-0.2289,-0.922055745,0.330748665,-0.16210896
1764763200.4683297,-5.32574,-0.39676,-0.2289,-0.922055745,0.330748665,-0.16210896
1764763200.4683297,-5.32574,-0.39676,-0.2289,-0.922055745,0.330748665,-0.16210896
1764763200.4683297,-5.32574,-0.39676,-0.2289,-0.922055745,0.330748665,-0.16210896
1764763200.4683297,-5.32574,-0.39676,-0.2289,-0.922055745,0.330748665,-0.16210896
1764763200.4683297,-5.32574,-0.39676,-0.2289,-0.922055745,0.330748665,-0.16210896
1764763200.4683297,-5.32574,-0.39676,-0.2289,-0.922055745,0.330748665,-0.16210896
1764763200.469336,-5.32574,-0.39676,-0.2289,-0.922055745,0.330748665,-0.16210896
1764763200.469336,-5.32574,-0.39676,-0.2289,-0.922055745,0.330748665,-0.16210896
1764763200.469336,-5.32574,-0.39676,-0.2289,-0.922055745,0.330748665,-0.16210896
1764763200.469336,-5.27996,-0.1525999999999999,-0.44254,-0.921567465,0.3320304,-0.161803785
1764763200.469336,-5.27996,-0.1525999999999999,-0.44254,-0.921567465,0.3320304,-0.161803785
1764763200.4703405,-5.27996,-0.1525999999999999,-0.44254,-0.921567465,0.3320304,-0.161803785
1764763200.4703405,-5.27996,-0.1525999999999999,-0.44254,-0.921567465,0.3320304,-0.161803785
1764763200.4703405,-5.27996,-0.1525999999999999,-0.44254,-0.921567465,0.3320304,-0.161803785
1764763200.4703405,-5.27996,-0.1525999999999999,-0.44254,-0.921567465,0.3320304,-0.161803785
1764763200.4703405,-5.27996,-0.1525999999999999,-0.44254,-0.921567465,0.3320304,-0.161803785
1764763200.4703405,-5.27996,-0.1525999999999999,-0.44254,-0.921567465,0.3320304,-0.161803785
1764763200.4703405,-5.27996,-0.1525999999999999,-0.44254,-0.921567465,0.3320304,-0.161803785
1764763200.4703405,-5.27996,-0.1525999999999999,-0.44254,-0.921567465,0.3320304,-0.161803785
1764763200.4703405,-5.32574,0.50358,-0.6867,-0.921201255,0.33251868,-0.16198689
1764763200.4709835,-5.32574,0.50358,-0.6867,-0.921201255,0.33251868,-0.16198689
1764763200.4709835,-5.32574,0.50358,-0.6867,-0.921201255,0.33251868,-0.16198689
1764763200.4709835,-5.32574,0.50358,-0.6867,-0.921201255,0.33251868,-0.16198689
1764763200.5167873,-5.32574,0.50358,-0.6867,-0.921201255,0.33251868,-0.16198689
1764763200.5167873,-5.32574,0.50358,-0.6867,-0.921201255,0.33251868,-0.16198689
1764763200.5167873,-5.32574,0.50358,-0.6867,-0.921201255,0.33251868,-0.16198689
1764763200.5167873,-5.32574,0.50358,-0.6867,-0.921201255,0.33251868,-0.16198689
1764763200.5167873,-5.32574,0.50358,-0.6867,-0.921201255,0.33251868,-0.16198689
1764763200.5167873,-5.32574,0.50358,-0.6867,-0.921201255,0.33251868,-0.16198689
1764763200.5167873,-5.7988,-0.1525999999999999,-0.51884,-0.919858485,0.332823855,-0.16332966
1764763200.5167873,-5.7988,-0.1525999999999999,-0.51884,-0.919858485,0.332823855,-0.16332966
1764763200.5167873,-5.7988,-0.1525999999999999,-0.51884,-0.919858485,0.332823855,-0.16332966
1764763200.5167873,-5.7988,-0.1525999999999999,-0.51884,-0.919858485,0.332823855,-0.16332966
1764763200.5167873,-5.7988,-0.1525999999999999,-0.51884,-0.919858485,0.332823855,-0.16332966
1764763200.5167873,-5.7988,-0.1525999999999999,-0.51884,-0.919858485,0.332823855,-0.16332966
1764763200.5167873,-5.7988,-0.1525999999999999,-0.51884,-0.919858485,0.332823855,-0.16332966
1764763200.5167873,-5.7988,-0.1525999999999999,-0.51884,-0.919858485,0.332823855,-0.16332966
1764763200.5167873,-5.7988,-0.1525999999999999,-0.51884,-0.919858485,0.332823855,-0.16332966
1764763200.5167873,-5.7988,-0.1525999999999999,-0.51884,-0.919858485,0.332823855,-0.16332966
1764763200.5167873,-7.14168,0.01526,0.12208,-0.920346765,0.333312135,-0.162780345
1764763200.5167873,-7.14168,0.01526,0.12208,-0.920346765,0.333312135,-0.162780345
1764763200.5167873,-7.14168,0.01526,0.12208,-0.920346765,0.333312135,-0.162780345
1764763200.5167873,-7.14168,0.01526,0.12208,-0.920346765,0.333312135,-0.162780345
1764763200.5167873,-7.14168,0.01526,0.12208,-0.920346765,0.333312135,-0.162780345
1764763200.5167873,-7.14168,0.01526,0.12208,-0.920346765,0.333312135,-0.162780345
1764763200.56005,-7.14168,0.01526,0.12208,-0.920346765,0.333312135,-0.162780345
1764763200.56005,-7.14168,0.01526,0.12208,-0.920346765,0.333312135,-0.162780345
1764763200.5613985,-7.14168,0.01526,0.12208,-0.920346765,0.333312135,-0.162780345
1764763200.5613985,-7.14168,0.01526,0.12208,-0.920346765,0.333312135,-0.162780345
1764763200.5613985,-6.53128,0.24416,0.0762999999999999,-0.923398515,0.333067995,-0.161925855
1764763200.5613985,-6.53128,0.24416,0.0762999999999999,-0.923398515,0.333067995,-0.161925855
1764763200.5613985,-6.53128,0.24416,0.0762999999999999,-0.923398515,0.333067995,-0.161925855
1764763200.5613985,-6.53128,0.24416,0.0762999999999999,-0.923398515,0.333067995,-0.161925855
1764763200.5613985,-6.53128,0.24416,0.0762999999999999,-0.923398515,0.333067995,-0.161925855
1764763200.5613985,-6.53128,0.24416,0.0762999999999999,-0.923398515,0.333067995,-0.161925855
1764763200.5613985,-6.53128,0.24416,0.0762999999999999,-0.923398515,0.333067995,-0.161925855
1764763200.5613985,-6.53128,0.24416,0.0762999999999999,-0.923398515,0.333067995,-0.161925855
1764763200.5613985,-6.53128,0.24416,0.0762999999999999,-0.923398515,0.333067995,-0.161925855
1764763200.5613985,-6.53128,0.24416,0.0762999999999999,-0.923398515,0.333067995,-0.161925855
1764763200.5613985,-7.233239999999999,0.28994,-0.2289,-0.92468025,0.33288489,-0.161071365
1764763200.5613985,-7.233239999999999,0.28994,-0.2289,-0.92468025,0.33288489,-0.161071365
1764763200.5613985,-7.233239999999999,0.28994,-0.2289,-0.92468025,0.33288489,-0.161071365
1764763200.5613985,-7.233239999999999,0.28994,-0.2289,-0.92468025,0.33288489,-0.161071365
1764763200.5613985,-7.233239999999999,0.28994,-0.2289,-0.92468025,0.33288489,-0.161071365
1764763200.5613985,-7.233239999999999,0.28994,-0.2289,-0.92468025,0.33288489,-0.161071365
1764763200.562402,-7.233239999999999,0.28994,-0.2289,-0.92468025,0.33288489,-0.161071365
1764763200.562402,-7.233239999999999,0.28994,-0.2289,-0.92468025,0.33288489,-0.161071365
1764763200.562402,-7.233239999999999,0.28994,-0.2289,-0.92468025,0.33288489,-0.161071365
1764763200.562402,-7.233239999999999,0.28994,-0.2289,-0.92468025,0.33288489,-0.161071365
1764763200.6081269,-8.316699999999999,0.65618,0.24416,-0.924863355,0.33361731,-0.160094805
1764763200.6081269,-8.316699999999999,0.65618,0.24416,-0.924863355,0.33361731,-0.160094805
1764763200.6081269,-8.316699999999999,0.65618,0.24416,-0.924863355,0.33361731,-0.160094805
1764763200.6081269,-8.316699999999999,0.65618,0.24416,-0.924863355,0.33361731,-0.160094805
1764763200.6081269,-8.316699999999999,0.65618,0.24416,-0.924863355,0.33361731,-0.160094805
1764763200.6081269,-8.316699999999999,0.65618,0.24416,-0.924863355,0.33361731,-0.160094805
1764763200.6081269,-8.316699999999999,0.65618,0.24416,-0.924863355,0.33361731,-0.160094805
1764763200.6081269,-8.316699999999999,0.65618,0.24416,-0.924863355,0.33361731,-0.160094805
1764763200.6081269,-8.316699999999999,0.65618,0.24416,-0.924863355,0.33361731,-0.160094805
1764763200.6081269,-8.316699999999999,0.65618,0.24416,-0.924863355,0.33361731,-0.160094805
1764763200.6081269,-5.21892,0.18312,0.6867,-0.925961985,0.331847295,-0.158691
1764763200.6081269,-5.21892,0.18312,0.6867,-0.925961985,0.331847295,-0.158691
1764763200.6081269,-5.21892,0.18312,0.6867,-0.925961985,0.331847295,-0.158691
1764763200.6081269,-5.21892,0.18312,0.6867,-0.925961985,0.331847295,-0.158691
1764763200.6081269,-5.21892,0.18312,0.6867,-0.925961985,0.331847295,-0.158691
1764763200.6081269,-5.21892,0.18312,0.6867,-0.925961985,0.331847295,-0.158691
1764763200.6081269,-5.21892,0.18312,0.6867,-0.925961985,0.331847295,-0.158691
1764763200.6081269,-5.21892,0.18312,0.6867,-0.925961985,0.331847295,-0.158691
1764763200.609435,-5.21892,0.18312,0.6867,-0.925961985,0.331847295,-0.158691
1764763200.609435,-5.21892,0.18312,0.6867,-0.925961985,0.331847295,-0.158691
1764763200.609435,-4.56274,-0.6867,0.0762999999999999,-0.922788165,0.327208635,-0.158996175
1764763200.609435,-4.56274,-0.6867,0.0762999999999999,-0.922788165,0.327208635,-0.158996175
1764763200.609435,-4.56274,-0.6867,0.0762999999999999,-0.922788165,0.327208635,-0.158996175
1764763200.609435,-4.56274,-0.6867,0.0762999999999999,-0.922788165,0.327208635,-0.158996175
1764763200.6552308,-4.56274,-0.6867,0.0762999999999999,-0.922788165,0.327208635,-0.158996175
1764763200.6552308,-4.56274,-0.6867,0.0762999999999999,-0.922788165,0.327208635,-0.158996175
1764763200.6552308,-4.56274,-0.6867,0.0762999999999999,-0.922788165,0.327208635,-0.158996175
1764763200.6552308,-4.56274,-0.6867,0.0762999999999999,-0.922788165,0.327208635,-0.158996175
1764763200.6552308,-4.56274,-0.6867,0.0762999999999999,-0.922788165,0.327208635,-0.158996175
1764763200.6552308,-4.56274,-0.6867,0.0762999999999999,-0.922788165,0.327208635,-0.158996175
1764763200.6552308,-5.82932,0.73248,-0.19838,-0.92052987,0.32678139,-0.16015584
1764763200.6552308,-5.82932,0.73248,-0.19838,-0.92052987,0.32678139,-0.16015584
1764763200.6552308,-5.82932,0.73248,-0.19838,-0.92052987,0.32678139,-0.16015584
1764763200.6552308,-5.82932,0.73248,-0.19838,-0.92052987,0.32678139,-0.16015584
1764763200.6565225,-5.82932,0.73248,-0.19838,-0.92052987,0.32678139,-0.16015584
1764763200.6565225,-5.82932,0.73248,-0.19838,-0.92052987,0.32678139,-0.16015584
1764763200.6565225,-5.82932,0.73248,-0.19838,-0.92052987,0.32678139,-0.16015584
1764763200.6565225,-5.82932,0.73248,-0.19838,-0.92052987,0.32678139,-0.16015584
1764763200.6565225,-5.82932,0.73248,-0.19838,-0.92052987,0.32678139,-0.16015584
1764763200.6565225,-5.82932,0.73248,-0.19838,-0.92052987,0.32678139,-0.16015584
1764763200.6565225,-6.546539999999999,0.12208,0.97664,-0.920590905,0.32946693,-0.16015584
1764763200.6565225,-6.546539999999999,0.12208,0.97664,-0.920590905,0.32946693,-0.16015584
1764763200.657664,-6.546539999999999,0.12208,0.97664,-0.920590905,0.32946693,-0.16015584
1764763200.657664,-6.546539999999999,0.12208,0.97664,-0.920590905,0.32946693,-0.16015584
1764763200.657664,-6.546539999999999,0.12208,0.97664,-0.920590905,0.32946693,-0.16015584
1764763200.657664,-6.546539999999999,0.12208,0.97664,-0.920590905,0.32946693,-0.16015584
1764763200.7049055,-6.546539999999999,0.12208,0.97664,-0.920590905,0.32946693,-0.16015584
1764763200.7049055,-6.546539999999999,0.12208,0.97664,-0.920590905,0.32946693,-0.16015584
1764763200.7049055,-6.546539999999999,0.12208,0.97664,-0.920590905,0.32946693,-0.16015584
1764763200.7049055,-6.546539999999999,0.12208,0.97664,-0.920590905,0.32946693,-0.16015584
1764763200.7054224,-5.98192,0.36624,1.43444,-0.923276445,0.33239661,-0.159606525
1764763200.7054224,-5.98192,0.36624,1.43444,-0.923276445,0.33239661,-0.159606525
1764763200.7054224,-5.98192,0.36624,1.43444,-0.923276445,0.33239661,-0.159606525
1764763200.7054224,-5.98192,0.36624,1.43444,-0.923276445,0.33239661,-0.159606525
1764763200.7054224,-5.98192,0.36624,1.43444,-0.923276445,0.33239661,-0.159606525
1764763200.7054224,-5.98192,0.36624,1.43444,-0.923276445,0.33239661,-0.159606525
1764763200.7054224,-5.98192,0.36624,1.43444,-0.923276445,0.33239661,-0.159606525
1764763200.7054224,-5.98192,0.36624,1.43444,-0.923276445,0.33239661,-0.159606525
1764763200.7054224,-5.98192,0.36624,1.43444,-0.923276445,0.33239661,-0.159606525
1764763200.7054224,-5.98192,0.36624,1.43444,-0.923276445,0.33239661,-0.159606525
1764763200.7054224,-4.22702,0.27468,0.9919,-0.92553474,0.332091435,-0.157775475
1764763200.7054224,-4.22702,0.27468,0.9919,-0.92553474,0.332091435,-0.157775475
1764763200.7054224,-4.22702,0.27468,0.9919,-0.92553474,0.332091435,-0.157775475
1764763200.7054224,-4.22702,0.27468,0.9919,-0.92553474,0.332091435,-0.157775475
1764763200.7054224,-4.22702,0.27468,0.9919,-0.92553474,0.332091435,-0.157775475
1764763200.7054224,-4.22702,0.27468,0.9919,-0.92553474,0.332091435,-0.157775475
1764763200.7054224,-4.22702,0.27468,0.9919,-0.92553474,0.332091435,-0.157775475
1764763200.7054224,-4.22702,0.27468,0.9919,-0.92553474,0.332091435,-0.157775475
1764763200.7054224,-4.22702,0.27468,0.9919,-0.92553474,0.332091435,-0.157775475
1764763200.7054224,-4.22702,0.27468,0.9919,-0.92553474,0.332091435,-0.157775475
1764763200.7496834,-4.1965,-0.03052,0.47306,-0.923642655,0.33215247,-0.15722616
1764763200.7496834,-4.1965,-0.03052,0.47306,-0.923642655,0.33215247,-0.15722616
1764763200.7496834,-4.1965,-0.03052,0.47306,-0.923642655,0.33215247,-0.15722616
1764763200.7496834,-4.1965,-0.03052,0.47306,-0.923642655,0.33215247,-0.15722616
1764763200.7496834,-4.1965,-0.03052,0.47306,-0.923642655,0.33215247,-0.15722616
1764763200.7496834,-4.1965,-0.03052,0.47306,-0.923642655,0.33215247,-0.15722616
1764763200.7496834,-4.1965,-0.03052,0.47306,-0.923642655,0.33215247,-0.15722616
1764763200.7496834,-4.1965,-0.03052,0.47306,-0.923642655,0.33215247,-0.15722616
1764763200.7512152,-4.1965,-0.03052,0.47306,-0.923642655,0.33215247,-0.15722616
1764763200.7512152,-4.1965,-0.03052,0.47306,-0.923642655,0.33215247,-0.15722616
1764763200.7512152,-5.66146,0.56462,0.3815,-0.92065194,0.33178626,-0.15856893
1764763200.7512152,-5.66146,0.56462,0.3815,-0.92065194,0.33178626,-0.15856893
1764763200.7512152,-5.66146,0.56462,0.3815,-0.92065194,0.33178626,-0.15856893
1764763200.7523253,-5.66146,0.56462,0.3815,-0.92065194,0.33178626,-0.15856893
1764763200.7523253,-5.66146,0.56462,0.3815,-0.92065194,0.33178626,-0.15856893
1764763200.7523253,-5.66146,0.56462,0.3815,-0.92065194,0.33178626,-0.15856893
1764763200.7523253,-5.66146,0.56462,0.3815,-0.92065194,0.33178626,-0.15856893
1764763200.7523253,-5.66146,0.56462,0.3815,-0.92065194,0.33178626,-0.15856893
1764763200.7523253,-5.66146,0.56462,0.3815,-0.92065194,0.33178626,-0.15856893
1764763200.7523253,-5.66146,0.56462,0.3815,-0.92065194,0.33178626,-0.15856893
1764763200.7532403,-6.01244,1.57178,1.2055399999999998,-0.91979745,0.332213505,-0.158507895
1764763200.7532403,-6.01244,1.57178,1.2055399999999998,-0.91979745,0.332213505,-0.158507895
1764763200.7532403,-6.01244,1.57178,1.2055399999999998,-0.91979745,0.332213505,-0.158507895
1764763200.7532403,-6.01244,1.57178,1.2055399999999998,-0.91979745,0.332213505,-0.158507895
1764763200.7967136,-6.01244,1.57178,1.2055399999999998,-0.91979745,0.332213505,-0.158507895
1764763200.7967136,-6.01244,1.57178,1.2055399999999998,-0.91979745,0.332213505,-0.158507895
1764763200.7967136,-6.01244,1.57178,1.2055399999999998,-0.91979745,0.332213505,-0.158507895
1764763200.7967136,-6.01244,1.57178,1.2055399999999998,-0.91979745,0.332213505,-0.158507895
1764763200.7967136,-6.01244,1.57178,1.2055399999999998,-0.91979745,0.332213505,-0.158507895
1764763200.7967136,-6.01244,1.57178,1.2055399999999998,-0.91979745,0.332213505,-0.158507895
1764763200.7967136,-6.11926,1.2055399999999998,0.28994,-0.921689535,0.33129798,-0.158141685
1764763200.7967136,-6.11926,1.2055399999999998,0.28994,-0.921689535,0.33129798,-0.158141685
1764763200.7967136,-6.11926,1.2055399999999998,0.28994,-0.921689535,0.33129798,-0.158141685
1764763200.7967136,-6.11926,1.2055399999999998,0.28994,-0.921689535,0.33129798,-0.158141685
1764763200.7967136,-6.11926,1.2055399999999998,0.28994,-0.921689535,0.33129798,-0.158141685
1764763200.7967136,-6.11926,1.2055399999999998,0.28994,-0.921689535,0.33129798,-0.158141685
1764763200.797356,-6.11926,1.2055399999999998,0.28994,-0.921689535,0.33129798,-0.158141685
1764763200.797356,-6.11926,1.2055399999999998,0.28994,-0.921689535,0.33129798,-0.158141685
1764763200.797356,-6.11926,1.2055399999999998,0.28994,-0.921689535,0.33129798,-0.158141685
1764763200.797356,-6.11926,1.2055399999999998,0.28994,-0.921689535,0.33129798,-0.158141685
1764763200.797356,-5.55464,0.73248,0.41202,-0.923642655,0.330748665,-0.158263755
1764763200.797356,-5.55464,0.73248,0.41202,-0.923642655,0.330748665,-0.158263755
1764763200.797356,-5.55464,0.73248,0.41202,-0.923642655,0.330748665,-0.158263755
1764763200.797356,-5.55464,0.73248,0.41202,-0.923642655,0.330748665,-0.158263755
1764763200.797356,-5.55464,0.73248,0.41202,-0.923642655,0.330748665,-0.158263755
1764763200.797356,-5.55464,0.73248,0.41202,-0.923642655,0.330748665,-0.158263755
1764763200.8454766,-5.55464,0.73248,0.41202,-0.923642655,0.330748665,-0.158263755
1764763200.8454766,-5.55464,0.73248,0.41202,-0.923642655,0.330748665,-0.158263755
1764763200.8454766,-5.55464,0.73248,0.41202,-0.923642655,0.330748665,-0.158263755
1764763200.8454766,-5.55464,0.73248,0.41202,-0.923642655,0.330748665,-0.158263755
1764763200.8454766,-4.94424,0.77826,0.82404,-0.924375075,0.331481085,-0.158019615
1764763200.8454766,-4.94424,0.77826,0.82404,-0.924375075,0.331481085,-0.158019615
1764763200.8454766,-4.94424,0.77826,0.82404,-0.924375075,0.331481085,-0.158019615
1764763200.8454766,-4.94424,0.77826,0.82404,-0.924375075,0.331481085,-0.158019615
1764763200.8454766,-4.94424,0.77826,0.82404,-0.924375075,0.331481085,-0.158019615
1764763200.8454766,-4.94424,0.77826,0.82404,-0.924375075,0.331481085,-0.158019615
1764763200.8454766,-4.94424,0.77826,0.82404,-0.924375075,0.331481085,-0.158019615
1764763200.8454766,-4.94424,0.77826,0.82404,-0.924375075,0.331481085,-0.158019615
1764763200.8454766,-4.94424,0.77826,0.82404,-0.924375075,0.331481085,-0.158019615
1764763200.8454766,-4.94424,0.77826,0.82404,-0.924375075,0.331481085,-0.158019615
1764763200.8454766,-2.85362,0.24416,0.3815,-0.924863355,0.331969365,-0.158019615
1764763200.8454766,-2.85362,0.24416,0.3815,-0.924863355,0.331969365,-0.158019615
1764763200.8454766,-2.85362,0.24416,0.3815,-0.924863355,0.331969365,-0.158019615
1764763200.8454766,-2.85362,0.24416,0.3815,-0.924863355,0.331969365,-0.158019615
1764763200.8454766,-2.85362,0.24416,0.3815,-0.924863355,0.331969365,-0.158019615
1764763200.8454766,-2.85362,0.24416,0.3815,-0.924863355,0.331969365,-0.158019615
1764763200.8454766,-2.85362,0.24416,0.3815,-0.924863355,0.331969365,-0.158019615
1764763200.8454766,-2.85362,0.24416,0.3815,-0.924863355,0.331969365,-0.158019615
1764763200.8454766,-2.85362,0.24416,0.3815,-0.924863355,0.331969365,-0.158019615
1764763200.8454766,-2.85362,0.24416,0.3815,-0.924863355,0.331969365,-0.158019615
1764763200.8926184,-4.2728,0.82404,0.44254,-0.92260506,0.331481085,-0.15844686
1764763200.8926184,-4.2728,0.82404,0.44254,-0.92260506,0.331481085,-0.15844686
1764763200.8926184,-4.2728,0.82404,0.44254,-0.92260506,0.331481085,-0.15844686
1764763200.8926184,-4.2728,0.82404,0.44254,-0.92260506,0.331481085,-0.15844686
1764763200.8926184,-4.2728,0.82404,0.44254,-0.92260506,0.331481085,-0.15844686
1764763200.8926184,-4.2728,0.82404,0.44254,-0.92260506,0.331481085,-0.15844686
1764763200.8926184,-4.2728,0.82404,0.44254,-0.92260506,0.331481085,-0.15844686
1764763200.8926184,-4.2728,0.82404,0.44254,-0.92260506,0.331481085,-0.15844686
1764763200.8926184,-4.2728,0.82404,0.44254,-0.92260506,0.331481085,-0.15844686
1764763200.8926184,-4.2728,0.82404,0.44254,-0.92260506,0.331481085,-0.15844686
1764763200.8926184,-4.94424,0.79352,1.03768,-0.922055745,0.332335575,-0.1599117
1764763200.8926184,-4.94424,0.79352,1.03768,-0.922055745,0.332335575,-0.1599117
1764763200.8926184,-4.94424,0.79352,1.03768,-0.922055745,0.332335575,-0.1599117
1764763200.8926184,-4.94424,0.79352,1.03768,-0.922055745,0.332335575,-0.1599117
1764763200.8926184,-4.94424,0.79352,1.03768,-0.922055745,0.332335575,-0.1599117
1764763200.8926184,-4.94424,0.79352,1.03768,-0.922055745,0.332335575,-0.1599117
1764763200.8926184,-4.94424,0.79352,1.03768,-0.922055745,0.332335575,-0.1599117
1764763200.8931365,-4.94424,0.79352,1.03768,-0.922055745,0.332335575,-0.1599117
1764763200.8931365,-4.94424,0.79352,1.03768,-0.922055745,0.332335575,-0.1599117
1764763200.8931365,-4.94424,0.79352,1.03768,-0.922055745,0.332335575,-0.1599117
1764763200.8931365,-5.82932,1.28184,0.9003399999999999,-0.92187264,0.3332511,-0.1599117
1764763200.8931365,-5.82932,1.28184,0.9003399999999999,-0.92187264,0.3332511,-0.1599117
1764763200.8931365,-5.82932,1.28184,0.9003399999999999,-0.92187264,0.3332511,-0.1599117
1764763200.8931365,-5.82932,1.28184,0.9003399999999999,-0.92187264,0.3332511,-0.1599117
1764763200.940438,-5.82932,1.28184,0.9003399999999999,-0.92187264,0.3332511,-0.1599117
1764763200.940438,-5.82932,1.28184,0.9003399999999999,-0.92187264,0.3332511,-0.1599117
1764763200.940438,-5.82932,1.28184,0.9003399999999999,-0.92187264,0.3332511,-0.1599117
1764763200.940438,-5.82932,1.28184,0.9003399999999999,-0.92187264,0.3332511,-0.1599117
1764763200.940438,-5.82932,1.28184,0.9003399999999999,-0.92187264,0.3332511,-0.1599117
1764763200.940438,-5.82932,1.28184,0.9003399999999999,-0.92187264,0.3332511,-0.1599117
1764763200.940438,-4.68482,1.2055399999999998,0.36624,-0.92297127,0.332701785,-0.158752035
1764763200.940438,-4.68482,1.2055399999999998,0.36624,-0.92297127,0.332701785,-0.158752035
1764763200.940438,-4.68482,1.2055399999999998,0.36624,-0.92297127,0.332701785,-0.158752035
1764763200.940438,-4.68482,1.2055399999999998,0.36624,-0.92297127,0.332701785,-0.158752035
1764763200.940438,-4.68482,1.2055399999999998,0.36624,-0.92297127,0.332701785,-0.158752035
1764763200.940438,-4.68482,1.2055399999999998,0.36624,-0.92297127,0.332701785,-0.158752035
1764763200.940438,-4.68482,1.2055399999999998,0.36624,-0.92297127,0.332701785,-0.158752035
1764763200.940438,-4.68482,1.2055399999999998,0.36624,-0.92297127,0.332701785,-0.158752035
1764763200.940438,-4.68482,1.2055399999999998,0.36624,-0.92297127,0.332701785,-0.158752035
1764763200.940438,-4.68482,1.2055399999999998,0.36624,-0.92297127,0.332701785,-0.158752035
1764763200.940438,-3.84552,0.82404,0.28994,-0.923398515,0.332335575,-0.156676845
1764763200.940438,-3.84552,0.82404,0.28994,-0.923398515,0.332335575,-0.156676845
1764763200.940438,-3.84552,0.82404,0.28994,-0.923398515,0.332335575,-0.156676845
1764763200.940438,-3.84552,0.82404,0.28994,-0.923398515,0.332335575,-0.156676845
1764763200.940438,-3.84552,0.82404,0.28994,-0.923398515,0.332335575,-0.156676845
1764763200.940438,-3.84552,0.82404,0.28994,-0.923398515,0.332335575,-0.156676845
1764763200.940438,-3.84552,0.82404,0.28994,-0.923398515,0.332335575,-0.156676845
1764763200.940438,-3.84552,0.82404,0.28994,-0.923398515,0.332335575,-0.156676845
1764763200.9888744,-3.84552,0.82404,0.28994,-0.923398515,0.332335575,-0.156676845
1764763200.9888744,-3.84552,0.82404,0.28994,-0.923398515,0.332335575,-0.156676845
1764763200.9888744,-3.98286,0.85456,0.24416,-0.92175057,0.332579715,-0.1562496
1764763200.9888744,-3.98286,0.85456,0.24416,-0.92175057,0.332579715,-0.1562496
1764763200.9888744,-3.98286,0.85456,0.24416,-0.92175057,0.332579715,-0.1562496
1764763200.9888744,-3.98286,0.85456,0.24416,-0.92175057,0.332579715,-0.1562496
1764763200.9888744,-3.98286,0.85456,0.24416,-0.92175057,0.332579715,-0.1562496
1764763200.9888744,-3.98286,0.85456,0.24416,-0.92175057,0.332579715,-0.1562496
1764763200.9888744,-3.98286,0.85456,0.24416,-0.92175057,0.332579715,-0.1562496
1764763200.9888744,-3.98286,0.85456,0.24416,-0.92175057,0.332579715,-0.1562496
1764763200.9888744,-3.98286,0.85456,0.24416,-0.92175057,0.332579715,-0.1562496
1764763200.9888744,-3.98286,0.85456,0.24416,-0.92175057,0.332579715,-0.1562496
1764763200.9888744,-5.20366,0.9919,0.3815,-0.921079185,0.332457645,-0.15808065
1764763200.9888744,-5.20366,0.9919,0.3815,-0.921079185,0.332457645,-0.15808065
1764763200.9888744,-5.20366,0.9919,0.3815,-0.921079185,0.332457645,-0.15808065
1764763200.9888744,-5.20366,0.9919,0.3815,-0.921079185,0.332457645,-0.15808065
1764763200.9888744,-5.20366,0.9919,0.3815,-0.921079185,0.332457645,-0.15808065
1764763200.9888744,-5.20366,0.9919,0.3815,-0.921079185,0.332457645,-0.15808065
1764763200.9888744,-5.20366,0.9919,0.3815,-0.921079185,0.332457645,-0.15808065
1764763200.9888744,-5.20366,0.9919,0.3815,-0.921079185,0.332457645,-0.15808065
1764763200.9888744,-5.20366,0.9919,0.3815,-0.921079185,0.332457645,-0.15808065
1764763200.9888744,-5.20366,0.9919,0.3815,-0.921079185,0.332457645,-0.15808065
1764763200.9888744,-5.4173,0.8087799999999999,-0.13734,-0.921323325,0.332457645,-0.158996175
1764763200.9888744,-5.4173,0.8087799999999999,-0.13734,-0.921323325,0.332457645,-0.158996175
1764763201.0323875,-5.4173,0.8087799999999999,-0.13734,-0.921323325,0.332457645,-0.158996175
1764763201.0323875,-5.4173,0.8087799999999999,-0.13734,-0.921323325,0.332457645,-0.158996175
1764763201.0323875,-5.4173,0.8087799999999999,-0.13734,-0.921323325,0.332457645,-0.158996175
1764763201.0323875,-5.4173,0.8087799999999999,-0.13734,-0.921323325,0.332457645,-0.158996175
1764763201.0323875,-5.4173,0.8087799999999999,-0.13734,-0.921323325,0.332457645,-0.158996175
1764763201.0323875,-5.4173,0.8087799999999999,-0.13734,-0.921323325,0.332457645,-0.158996175
1764763201.0323875,-5.4173,0.8087799999999999,-0.13734,-0.921323325,0.332457645,-0.158996175
1764763201.0323875,-5.4173,0.8087799999999999,-0.13734,-0.921323325,0.332457645,-0.158996175
1764763201.0323875,-4.86794,0.6103999999999999,0.3815,-0.92272713,0.33276282,-0.158263755
1764763201.0323875,-4.86794,0.6103999999999999,0.3815,-0.92272713,0.33276282,-0.158263755
1764763201.0323875,-4.86794,0.6103999999999999,0.3815,-0.92272713,0.33276282,-0.158263755
1764763201.0323875,-4.86794,0.6103999999999999,0.3815,-0.92272713,0.33276282,-0.158263755
1764763201.0323875,-4.86794,0.6103999999999999,0.3815,-0.92272713,0.33276282,-0.158263755
1764763201.0323875,-4.86794,0.6103999999999999,0.3815,-0.92272713,0.33276282,-0.158263755
1764763201.0323875,-4.86794,0.6103999999999999,0.3815,-0.92272713,0.33276282,-0.158263755
1764763201.0323875,-4.86794,0.6103999999999999,0.3815,-0.92272713,0.33276282,-0.158263755
1764763201.0323875,-4.86794,0.6103999999999999,0.3815,-0.92272713,0.33276282,-0.158263755
1764763201.0323875,-4.86794,0.6103999999999999,0.3815,-0.92272713,0.33276282,-0.158263755
1764763201.0323875,-4.63904,0.6409199999999999,0.13734,-0.923276445,0.333312135,-0.157775475
1764763201.0323875,-4.63904,0.6409199999999999,0.13734,-0.923276445,0.333312135,-0.157775475
1764763201.0323875,-4.63904,0.6409199999999999,0.13734,-0.923276445,0.333312135,-0.157775475
1764763201.0323875,-4.63904,0.6409199999999999,0.13734,-0.923276445,0.333312135,-0.157775475
1764763201.0802014,-4.63904,0.6409199999999999,0.13734,-0.923276445,0.333312135,-0.157775475
1764763201.0802014,-4.63904,0.6409199999999999,0.13734,-0.923276445,0.333312135,-0.157775475
1764763201.0802014,-4.63904,0.6409199999999999,0.13734,-0.923276445,0.333312135,-0.157775475
1764763201.0802014,-4.63904,0.6409199999999999,0.13734,-0.923276445,0.333312135,-0.157775475
1764763201.0802014,-4.63904,0.6409199999999999,0.13734,-0.923276445,0.333312135,-0.157775475
1764763201.0802014,-4.63904,0.6409199999999999,0.13734,-0.923276445,0.333312135,-0.157775475
1764763201.0802014,-4.37962,-0.01526,0.0,-0.922299885,0.33300696,-0.157653405
1764763201.0802014,-4.37962,-0.01526,0.0,-0.922299885,0.33300696,-0.157653405
1764763201.0802014,-4.37962,-0.01526,0.0,-0.922299885,0.33300696,-0.157653405
1764763201.0802014,-4.37962,-0.01526,0.0,-0.922299885,0.33300696,-0.157653405
1764763201.0802014,-4.37962,-0.01526,0.0,-0.922299885,0.33300696,-0.157653405
1764763201.0802014,-4.37962,-0.01526,0.0,-0.922299885,0.33300696,-0.157653405
1764763201.0802014,-4.37962,-0.01526,0.0,-0.922299885,0.33300696,-0.157653405
1764763201.0802014,-4.37962,-0.01526,0.0,-0.922299885,0.33300696,-0.157653405
1764763201.0802014,-4.37962,-0.01526,0.0,-0.922299885,0.33300696,-0.157653405
1764763201.0802014,-4.37962,-0.01526,0.0,-0.922299885,0.33300696,-0.157653405
1764763201.0802014,-4.22702,0.19838,0.3509799999999999,-0.92175057,0.33239661,-0.157409265
1764763201.0802014,-4.22702,0.19838,0.3509799999999999,-0.92175057,0.33239661,-0.157409265
1764763201.0802014,-4.22702,0.19838,0.3509799999999999,-0.92175057,0.33239661,-0.157409265
1764763201.0802014,-4.22702,0.19838,0.3509799999999999,-0.92175057,0.33239661,-0.157409265
1764763201.0802014,-4.22702,0.19838,0.3509799999999999,-0.92175057,0.33239661,-0.157409265
1764763201.0802014,-4.22702,0.19838,0.3509799999999999,-0.92175057,0.33239661,-0.157409265
1764763201.0802014,-4.22702,0.19838,0.3509799999999999,-0.92175057,0.33239661,-0.157409265
1764763201.0802014,-4.22702,0.19838,0.3509799999999999,-0.92175057,0.33239661,-0.157409265
1764763201.1264677,-4.22702,0.19838,0.3509799999999999,-0.92175057,0.33239661,-0.157409265
1764763201.1264677,-4.22702,0.19838,0.3509799999999999,-0.92175057,0.33239661,-0.157409265
1764763201.1264677,-4.24228,0.94612,0.21364,-0.92126229,0.330870735,-0.157775475
1764763201.1264677,-4.24228,0.94612,0.21364,-0.92126229,0.330870735,-0.157775475
1764763201.1264677,-4.24228,0.94612,0.21364,-0.92126229,0.330870735,-0.157775475
1764763201.1264677,-4.24228,0.94612,0.21364,-0.92126229,0.330870735,-0.157775475
1764763201.1264677,-4.24228,0.94612,0.21364,-0.92126229,0.330870735,-0.157775475
1764763201.1264677,-4.24228,0.94612,0.21364,-0.92126229,0.330870735,-0.157775475
1764763201.1264677,-4.24228,0.94612,0.21364,-0.92126229,0.330870735,-0.157775475
1764763201.1264677,-4.24228,0.94612,0.21364,-0.92126229,0.330870735,-0.157775475
1764763201.1264677,-4.24228,0.94612,0.21364,-0.92126229,0.330870735,-0.157775475
1764763201.1264677,-4.24228,0.94612,0.21364,-0.92126229,0.330870735,-0.157775475
1764763201.1269937,-4.2728,0.65618,0.18312,-0.922421955,0.330870735,-0.15759237
1764763201.1269937,-4.2728,0.65618,0.18312,-0.922421955,0.330870735,-0.15759237
1764763201.1269937,-4.2728,0.65618,0.18312,-0.922421955,0.330870735,-0.15759237
1764763201.1269937,-4.2728,0.65618,0.18312,-0.922421955,0.330870735,-0.15759237
1764763201.1269937,-4.2728,0.65618,0.18312,-0.922421955,0.330870735,-0.15759237
1764763201.1269937,-4.2728,0.65618,0.18312,-0.922421955,0.330870735,-0.15759237
1764763201.1269937,-4.2728,0.65618,0.18312,-0.922421955,0.330870735,-0.15759237
1764763201.1269937,-4.2728,0.65618,0.18312,-0.922421955,0.330870735,-0.15759237
1764763201.1269937,-4.2728,0.65618,0.18312,-0.922421955,0.330870735,-0.15759237
1764763201.1269937,-4.2728,0.65618,0.18312,-0.922421955,0.330870735,-0.15759237
1764763201.174599,-6.08874,1.1445,0.47306,-0.92272713,0.33251868,-0.158385825
1764763201.174599,-6.08874,1.1445,0.47306,-0.92272713,0.33251868,-0.158385825
1764763201.174599,-6.08874,1.1445,0.47306,-0.92272713,0.33251868,-0.158385825
1764763201.174599,-6.08874,1.1445,0.47306,-0.92272713,0.33251868,-0.158385825
1764763201.174599,-6.08874,1.1445,0.47306,-0.92272713,0.33251868,-0.158385825
1764763201.174599,-6.08874,1.1445,0.47306,-0.92272713,0.33251868,-0.158385825
1764763201.174599,-6.08874,1.1445,0.47306,-0.92272713,0.33251868,-0.158385825
1764763201.174599,-6.08874,1.1445,0.47306,-0.92272713,0.33251868,-0.158385825
1764763201.174599,-6.08874,1.1445,0.47306,-0.92272713,0.33251868,-0.158385825
1764763201.174599,-6.08874,1.1445,0.47306,-0.92272713,0.33251868,-0.158385825
1764763201.174599,-6.43972,1.2208,0.5341,-0.923276445,0.33496008,-0.157653405
1764763201.174599,-6.43972,1.2208,0.5341,-0.923276445,0.33496008,-0.157653405
1764763201.174599,-6.43972,1.2208,0.5341,-0.923276445,0.33496008,-0.157653405
1764763201.174599,-6.43972,1.2208,0.5341,-0.923276445,0.33496008,-0.157653405
1764763201.174599,-6.43972,1.2208,0.5341,-0.923276445,0.33496008,-0.157653405
1764763201.174599,-6.43972,1.2208,0.5341,-0.923276445,0.33496008,-0.157653405
1764763201.174599,-6.43972,1.2208,0.5341,-0.923276445,0.33496008,-0.157653405
1764763201.174599,-6.43972,1.2208,0.5341,-0.923276445,0.33496008,-0.157653405
1764763201.174599,-6.43972,1.2208,0.5341,-0.923276445,0.33496008,-0.157653405
1764763201.174599,-6.43972,1.2208,0.5341,-0.923276445,0.33496008,-0.157653405
1764763201.174599,-4.54748,0.09156,0.36624,-0.922421955,0.333312135,-0.157165125
1764763201.174599,-4.54748,0.09156,0.36624,-0.922421955,0.333312135,-0.157165125
1764763201.174599,-4.54748,0.09156,0.36624,-0.922421955,0.333312135,-0.157165125
1764763201.174599,-4.54748,0.09156,0.36624,-0.922421955,0.333312135,-0.157165125
1764763201.174599,-4.54748,0.09156,0.36624,-0.922421955,0.333312135,-0.157165125
1764763201.174599,-4.54748,0.09156,0.36624,-0.922421955,0.333312135,-0.157165125
1764763201.2211485,-4.54748,0.09156,0.36624,-0.922421955,0.333312135,-0.157165125
1764763201.2211485,-4.54748,0.09156,0.36624,-0.922421955,0.333312135,-0.157165125
1764763201.2211485,-4.54748,0.09156,0.36624,-0.922421955,0.333312135,-0.157165125
1764763201.2211485,-4.54748,0.09156,0.36624,-0.922421955,0.333312135,-0.157165125
1764763201.2211485,-4.22702,0.51884,-0.09156,-0.919736415,0.32897865,-0.15783651
1764763201.2211485,-4.22702,0.51884,-0.09156,-0.919736415,0.32897865,-0.15783651
1764763201.2211485,-4.22702,0.51884,-0.09156,-0.919736415,0.32897865,-0.15783651
1764763201.2211485,-4.22702,0.51884,-0.09156,-0.919736415,0.32897865,-0.15783651
1764763201.2211485,-4.22702,0.51884,-0.09156,-0.919736415,0.32897865,-0.15783651
1764763201.2211485,-4.22702,0.51884,-0.09156,-0.919736415,0.32897865,-0.15783651
1764763201.2211485,-4.22702,0.51884,-0.09156,-0.919736415,0.32897865,-0.15783651
1764763201.2211485,-4.22702,0.51884,-0.09156,-0.919736415,0.32897865,-0.15783651
1764763201.2211485,-4.22702,0.51884,-0.09156,-0.919736415,0.32897865,-0.15783651
1764763201.2211485,-4.22702,0.51884,-0.09156,-0.919736415,0.32897865,-0.15783651
1764763201.2211485,-5.7988,0.97664,0.54936,-0.920468835,0.330748665,-0.158263755
1764763201.2211485,-5.7988,0.97664,0.54936,-0.920468835,0.330748665,-0.158263755
1764763201.2211485,-5.7988,0.97664,0.54936,-0.920468835,0.330748665,-0.158263755
1764763201.2211485,-5.7988,0.97664,0.54936,-0.920468835,0.330748665,-0.158263755
1764763201.2211485,-5.7988,0.97664,0.54936,-0.920468835,0.330748665,-0.158263755
1764763201.2211485,-5.7988,0.97664,0.54936,-0.920468835,0.330748665,-0.158263755
1764763201.2211485,-5.7988,0.97664,0.54936,-0.920468835,0.330748665,-0.158263755
1764763201.2211485,-5.7988,0.97664,0.54936,-0.920468835,0.330748665,-0.158263755
1764763201.2676406,-5.7988,0.97664,0.54936,-0.920468835,0.330748665,-0.158263755
1764763201.2676406,-5.7988,0.97664,0.54936,-0.920468835,0.330748665,-0.158263755
1764763201.2676406,-6.21082,0.50358,1.23606,-0.923398515,0.3332511,-0.158507895
1764763201.2676406,-6.21082,0.50358,1.23606,-0.923398515,0.3332511,-0.158507895
1764763201.2676406,-6.21082,0.50358,1.23606,-0.923398515,0.3332511,-0.158507895
1764763201.2676406,-6.21082,0.50358,1.23606,-0.923398515,0.3332511,-0.158507895
1764763201.2676406,-6.21082,0.50358,1.23606,-0.923398515,0.3332511,-0.158507895
1764763201.2676406,-6.21082,0.50358,1.23606,-0.923398515,0.3332511,-0.158507895
1764763201.2676406,-6.21082,0.50358,1.23606,-0.923398515,0.3332511,-0.158507895
1764763201.2676406,-6.21082,0.50358,1.23606,-0.923398515,0.3332511,-0.158507895
1764763201.2676406,-6.21082,0.50358,1.23606,-0.923398515,0.3332511,-0.158507895
1764763201.2676406,-6.21082,0.50358,1.23606,-0.923398515,0.3332511,-0.158507895
1764763201.2676406,-5.2647,0.763,0.97664,-0.925107495,0.33471594,-0.15710409
1764763201.2676406,-5.2647,0.763,0.97664,-0.925107495,0.33471594,-0.15710409
1764763201.2676406,-5.2647,0.763,0.97664,-0.925107495,0.33471594,-0.15710409
1764763201.2676406,-5.2647,0.763,0.97664,-0.925107495,0.33471594,-0.15710409
1764763201.2676406,-5.2647,0.763,0.97664,-0.925107495,0.33471594,-0.15710409
1764763201.2676406,-5.2647,0.763,0.97664,-0.925107495,0.33471594,-0.15710409
1764763201.2676406,-5.2647,0.763,0.97664,-0.925107495,0.33471594,-0.15710409
1764763201.2676406,-5.2647,0.763,0.97664,-0.925107495,0.33471594,-0.15710409
1764763201.2676406,-5.2647,0.763,0.97664,-0.925107495,0.33471594,-0.15710409
1764763201.2676406,-5.2647,0.763,0.97664,-0.925107495,0.33471594,-0.15710409
1764763201.2676406,-4.303319999999999,0.10682,0.41202,-0.92382576,0.333556275,-0.156066495
1764763201.2676406,-4.303319999999999,0.10682,0.41202,-0.92382576,0.333556275,-0.156066495
1764763201.313774,-4.303319999999999,0.10682,0.41202,-0.92382576,0.333556275,-0.156066495
1764763201.313774,-4.303319999999999,0.10682,0.41202,-0.92382576,0.333556275,-0.156066495
1764763201.313774,-4.303319999999999,0.10682,0.41202,-0.92382576,0.333556275,-0.156066495
1764763201.313774,-4.303319999999999,0.10682,0.41202,-0.92382576,0.333556275,-0.156066495
1764763201.313774,-4.303319999999999,0.10682,0.41202,-0.92382576,0.333556275,-0.156066495
1764763201.313774,-4.303319999999999,0.10682,0.41202,-0.92382576,0.333556275,-0.156066495
1764763201.313774,-4.303319999999999,0.10682,0.41202,-0.92382576,0.333556275,-0.156066495
1764763201.313774,-4.303319999999999,0.10682,0.41202,-0.92382576,0.333556275,-0.156066495
1764763201.313774,-4.39488,0.50358,0.50358,-0.921201255,0.331969365,-0.15588339
1764763201.313774,-4.39488,0.50358,0.50358,-0.921201255,0.331969365,-0.15588339
1764763201.313774,-4.39488,0.50358,0.50358,-0.921201255,0.331969365,-0.15588339
1764763201.313774,-4.39488,0.50358,0.50358,-0.921201255,0.331969365,-0.15588339
1764763201.313774,-4.39488,0.50358,0.50358,-0.921201255,0.331969365,-0.15588339
1764763201.313774,-4.39488,0.50358,0.50358,-0.921201255,0.331969365,-0.15588339
1764763201.313774,-4.39488,0.50358,0.50358,-0.921201255,0.331969365,-0.15588339
1764763201.313774,-4.39488,0.50358,0.50358,-0.921201255,0.331969365,-0.15588339
1764763201.313774,-4.39488,0.50358,0.50358,-0.921201255,0.331969365,-0.15588339
1764763201.313774,-4.39488,0.50358,0.50358,-0.921201255,0.331969365,-0.15588339
1764763201.313774,-4.8832,1.03768,1.02242,-0.919492275,0.330870735,-0.15710409
1764763201.313774,-4.8832,1.03768,1.02242,-0.919492275,0.330870735,-0.15710409
1764763201.313774,-4.8832,1.03768,1.02242,-0.919492275,0.330870735,-0.15710409
1764763201.313774,-4.8832,1.03768,1.02242,-0.919492275,0.330870735,-0.15710409
1764763201.313774,-4.8832,1.03768,1.02242,-0.919492275,0.330870735,-0.15710409
1764763201.3147838,-4.8832,1.03768,1.02242,-0.919492275,0.330870735,-0.15710409
1764763201.3611596,-4.8832,1.03768,1.02242,-0.919492275,0.330870735,-0.15710409
1764763201.3611596,-4.8832,1.03768,1.02242,-0.919492275,0.330870735,-0.15710409
1764763201.3611596,-4.8832,1.03768,1.02242,-0.919492275,0.330870735,-0.15710409
1764763201.3611596,-4.8832,1.03768,1.02242,-0.919492275,0.330870735,-0.15710409
1764763201.3611596,-5.76828,0.94612,0.47306,-0.920957115,0.32946693,-0.157653405
1764763201.3611596,-5.76828,0.94612,0.47306,-0.920957115,0.32946693,-0.157653405
1764763201.3611596,-5.76828,0.94612,0.47306,-0.920957115,0.32946693,-0.157653405
1764763201.3611596,-5.76828,0.94612,0.47306,-0.920957115,0.32946693,-0.157653405
1764763201.3611596,-5.76828,0.94612,0.47306,-0.920957115,0.32946693,-0.157653405
1764763201.3611596,-5.76828,0.94612,0.47306,-0.920957115,0.32946693,-0.157653405
1764763201.3611596,-5.76828,0.94612,0.47306,-0.920957115,0.32946693,-0.157653405
1764763201.3611596,-5.76828,0.94612,0.47306,-0.920957115,0.32946693,-0.157653405
1764763201.3611596,-5.76828,0.94612,0.47306,-0.920957115,0.32946693,-0.157653405
1764763201.3611596,-5.76828,0.94612,0.47306,-0.920957115,0.32946693,-0.157653405
1764763201.3611596,-4.6543,0.3815,0.24416,-0.922666095,0.329527965,-0.15722616
1764763201.3621635,-4.6543,0.3815,0.24416,-0.922666095,0.329527965,-0.15722616
1764763201.3621635,-4.6543,0.3815,0.24416,-0.922666095,0.329527965,-0.15722616
1764763201.3621635,-4.6543,0.3815,0.24416,-0.922666095,0.329527965,-0.15722616
1764763201.3621635,-4.6543,0.3815,0.24416,-0.922666095,0.329527965,-0.15722616
1764763201.3621635,-4.6543,0.3815,0.24416,-0.922666095,0.329527965,-0.15722616
1764763201.3621635,-4.6543,0.3815,0.24416,-0.922666095,0.329527965,-0.15722616
1764763201.3621635,-4.6543,0.3815,0.24416,-0.922666095,0.329527965,-0.15722616
1764763201.4090393,-4.6543,0.3815,0.24416,-0.922666095,0.329527965,-0.15722616
1764763201.4090393,-4.6543,0.3815,0.24416,-0.922666095,0.329527965,-0.15722616
1764763201.4090393,-3.99812,0.44254,0.3509799999999999,-0.923032305,0.33154212,-0.15563925
1764763201.4090393,-3.99812,0.44254,0.3509799999999999,-0.923032305,0.33154212,-0.15563925
1764763201.4090393,-3.99812,0.44254,0.3509799999999999,-0.923032305,0.33154212,-0.15563925
1764763201.4090393,-3.99812,0.44254,0.3509799999999999,-0.923032305,0.33154212,-0.15563925
1764763201.4090393,-3.99812,0.44254,0.3509799999999999,-0.923032305,0.33154212,-0.15563925
1764763201.4090393,-3.99812,0.44254,0.3509799999999999,-0.923032305,0.33154212,-0.15563925
1764763201.4090393,-3.99812,0.44254,0.3509799999999999,-0.923032305,0.33154212,-0.15563925
1764763201.4090393,-3.99812,0.44254,0.3509799999999999,-0.923032305,0.33154212,-0.15563925
1764763201.4090393,-3.99812,0.44254,0.3509799999999999,-0.923032305,0.33154212,-0.15563925
1764763201.4090393,-3.99812,0.44254,0.3509799999999999,-0.923032305,0.33154212,-0.15563925
1764763201.4090393,-3.2809,0.57988,0.65618,-0.923398515,0.332579715,-0.15588339
1764763201.4090393,-3.2809,0.57988,0.65618,-0.923398515,0.332579715,-0.15588339
1764763201.4090393,-3.2809,0.57988,0.65618,-0.923398515,0.332579715,-0.15588339
1764763201.4090393,-3.2809,0.57988,0.65618,-0.923398515,0.332579715,-0.15588339
1764763201.4090393,-3.2809,0.57988,0.65618,-0.923398515,0.332579715,-0.15588339
1764763201.4090393,-3.2809,0.57988,0.65618,-0.923398515,0.332579715,-0.15588339
1764763201.4090393,-3.2809,0.57988,0.65618,-0.923398515,0.332579715,-0.15588339
1764763201.4090393,-3.2809,0.57988,0.65618,-0.923398515,0.332579715,-0.15588339
1764763201.4090393,-3.2809,0.57988,0.65618,-0.923398515,0.332579715,-0.15588339
1764763201.4090393,-3.2809,0.57988,0.65618,-0.923398515,0.332579715,-0.15588339
1764763201.4090393,-2.68576,0.3509799999999999,0.12208,-0.92309334,0.33264075,-0.15795858
1764763201.4090393,-2.68576,0.3509799999999999,0.12208,-0.92309334,0.33264075,-0.15795858
1764763201.4516275,-2.68576,0.3509799999999999,0.12208,-0.92309334,0.33264075,-0.15795858
1764763201.4516275,-2.68576,0.3509799999999999,0.12208,-0.92309334,0.33264075,-0.15795858
1764763201.4516275,-2.68576,0.3509799999999999,0.12208,-0.92309334,0.33264075,-0.15795858
1764763201.4516275,-2.68576,0.3509799999999999,0.12208,-0.92309334,0.33264075,-0.15795858
1764763201.4516275,-2.68576,0.3509799999999999,0.12208,-0.92309334,0.33264075,-0.15795858
1764763201.4516275,-2.68576,0.3509799999999999,0.12208,-0.92309334,0.33264075,-0.15795858
1764763201.4753354,-2.68576,0.3509799999999999,0.12208,-0.92309334,0.33264075,-0.15795858
1764763201.4753354,-2.68576,0.3509799999999999,0.12208,-0.92309334,0.33264075,-0.15795858
1764763201.4753354,-4.76112,0.8698199999999999,0.28994,-0.92150643,0.333190065,-0.159240315
1764763201.4753354,-4.76112,0.8698199999999999,0.28994,-0.92150643,0.333190065,-0.159240315
1764763201.4753354,-4.76112,0.8698199999999999,0.28994,-0.92150643,0.333190065,-0.159240315
1764763201.476842,-4.76112,0.8698199999999999,0.28994,-0.92150643,0.333190065,-0.159240315
1764763201.476842,-4.76112,0.8698199999999999,0.28994,-0.92150643,0.333190065,-0.159240315
1764763201.476842,-4.76112,0.8698199999999999,0.28994,-0.92150643,0.333190065,-0.159240315
1764763201.476842,-4.76112,0.8698199999999999,0.28994,-0.92150643,0.333190065,-0.159240315
1764763201.4773605,-4.76112,0.8698199999999999,0.28994,-0.92150643,0.333190065,-0.159240315
1764763201.4773605,-4.76112,0.8698199999999999,0.28994,-0.92150643,0.333190065,-0.159240315
1764763201.4773605,-4.76112,0.8698199999999999,0.28994,-0.92150643,0.333190065,-0.159240315
1764763201.4773605,-5.81406,0.9156,0.6103999999999999,-0.920957115,0.33422766,-0.158385825
1764763201.4773605,-5.81406,0.9156,0.6103999999999999,-0.920957115,0.33422766,-0.158385825
1764763201.4773605,-5.81406,0.9156,0.6103999999999999,-0.920957115,0.33422766,-0.158385825
1764763201.4773605,-5.81406,0.9156,0.6103999999999999,-0.920957115,0.33422766,-0.158385825
1764763201.495541,-5.81406,0.9156,0.6103999999999999,-0.920957115,0.33422766,-0.158385825
1764763201.495541,-5.81406,0.9156,0.6103999999999999,-0.920957115,0.33422766,-0.158385825
1764763201.496556,-5.81406,0.9156,0.6103999999999999,-0.920957115,0.33422766,-0.158385825
1764763201.496556,-5.81406,0.9156,0.6103999999999999,-0.920957115,0.33422766,-0.158385825
1764763201.496556,-5.81406,0.9156,0.6103999999999999,-0.920957115,0.33422766,-0.158385825
1764763201.496556,-5.81406,0.9156,0.6103999999999999,-0.920957115,0.33422766,-0.158385825
1764763201.496556,-5.1884,1.02242,0.44254,-0.92101815,0.334044555,-0.156798915
1764763201.496556,-5.1884,1.02242,0.44254,-0.92101815,0.334044555,-0.156798915
1764763201.496556,-5.1884,1.02242,0.44254,-0.92101815,0.334044555,-0.156798915
1764763201.496556,-5.1884,1.02242,0.44254,-0.92101815,0.334044555,-0.156798915
1764763201.496556,-5.1884,1.02242,0.44254,-0.92101815,0.334044555,-0.156798915
1764763201.496556,-5.1884,1.02242,0.44254,-0.92101815,0.334044555,-0.156798915
1764763201.496556,-5.1884,1.02242,0.44254,-0.92101815,0.334044555,-0.156798915
1764763201.496556,-5.1884,1.02242,0.44254,-0.92101815,0.334044555,-0.156798915
1764763201.496556,-5.1884,1.02242,0.44254,-0.92101815,0.334044555,-0.156798915
1764763201.496556,-5.1884,1.02242,0.44254,-0.92101815,0.334044555,-0.156798915
1764763201.496556,-4.16598,0.59514,0.3509799999999999,-0.92248299,0.332091435,-0.155212005
1764763201.496556,-4.16598,0.59514,0.3509799999999999,-0.92248299,0.332091435,-0.155212005
1764763201.496556,-4.16598,0.59514,0.3509799999999999,-0.92248299,0.332091435,-0.155212005
1764763201.496556,-4.16598,0.59514,0.3509799999999999,-0.92248299,0.332091435,-0.155212005
1764763201.496556,-4.16598,0.59514,0.3509799999999999,-0.92248299,0.332091435,-0.155212005
1764763201.496556,-4.16598,0.59514,0.3509799999999999,-0.92248299,0.332091435,-0.155212005
1764763201.5433967,-4.16598,0.59514,0.3509799999999999,-0.92248299,0.332091435,-0.155212005
1764763201.5433967,-4.16598,0.59514,0.3509799999999999,-0.92248299,0.332091435,-0.155212005
1764763201.5433967,-4.16598,0.59514,0.3509799999999999,-0.92248299,0.332091435,-0.155212005
1764763201.5433967,-4.16598,0.59514,0.3509799999999999,-0.92248299,0.332091435,-0.155212005
1764763201.5433967,-3.41824,0.39676,0.39676,-0.92223885,0.3308097,-0.156066495
1764763201.5433967,-3.41824,0.39676,0.39676,-0.92223885,0.3308097,-0.156066495
1764763201.5433967,-3.41824,0.39676,0.39676,-0.92223885,0.3308097,-0.156066495
1764763201.5433967,-3.41824,0.39676,0.39676,-0.92223885,0.3308097,-0.156066495
1764763201.5447671,-3.41824,0.39676,0.39676,-0.92223885,0.3308097,-0.156066495
1764763201.5447671,-3.41824,0.39676,0.39676,-0.92223885,0.3308097,-0.156066495
1764763201.5447671,-3.41824,0.39676,0.39676,-0.92223885,0.3308097,-0.156066495
1764763201.5447671,-3.41824,0.39676,0.39676,-0.92223885,0.3308097,-0.156066495
1764763201.5447671,-3.41824,0.39676,0.39676,-0.92223885,0.3308097,-0.156066495
1764763201.5447671,-3.41824,0.39676,0.39676,-0.92223885,0.3308097,-0.156066495
1764763201.5457811,-3.3572,0.47306,0.44254,-0.920590905,0.330504525,-0.15734823
1764763201.5457811,-3.3572,0.47306,0.44254,-0.920590905,0.330504525,-0.15734823
1764763201.5457811,-3.3572,0.47306,0.44254,-0.920590905,0.330504525,-0.15734823
1764763201.5457811,-3.3572,0.47306,0.44254,-0.920590905,0.330504525,-0.15734823
1764763201.5467908,-3.3572,0.47306,0.44254,-0.920590905,0.330504525,-0.15734823
1764763201.5467908,-3.3572,0.47306,0.44254,-0.920590905,0.330504525,-0.15734823
1764763201.5467908,-3.3572,0.47306,0.44254,-0.920590905,0.330504525,-0.15734823
1764763201.5467908,-3.3572,0.47306,0.44254,-0.920590905,0.330504525,-0.15734823
1764763201.5467908,-3.3572,0.47306,0.44254,-0.920590905,0.330504525,-0.15734823
1764763201.5467908,-3.3572,0.47306,0.44254,-0.920590905,0.330504525,-0.15734823
1764763201.5902138,-4.63904,0.74774,0.27468,-0.92077401,0.331969365,-0.15856893
1764763201.5902138,-4.63904,0.74774,0.27468,-0.92077401,0.331969365,-0.15856893
1764763201.5902138,-4.63904,0.74774,0.27468,-0.92077401,0.331969365,-0.15856893
1764763201.5902138,-4.63904,0.74774,0.27468,-0.92077401,0.331969365,-0.15856893
1764763201.5902138,-4.63904,0.74774,0.27468,-0.92077401,0.331969365,-0.15856893
1764763201.5902138,-4.63904,0.74774,0.27468,-0.92077401,0.331969365,-0.15856893
1764763201.5902138,-4.63904,0.74774,0.27468,-0.92077401,0.331969365,-0.15856893
1764763201.5902138,-4.63904,0.74774,0.27468,-0.92077401,0.331969365,-0.15856893
1764763201.5902138,-4.63904,0.74774,0.27468,-0.92077401,0.331969365,-0.15856893
1764763201.5902138,-4.63904,0.74774,0.27468,-0.92077401,0.331969365,-0.15856893
1764763201.5915873,-5.14262,0.6867,0.09156,-0.922666095,0.33373938,-0.15832479
1764763201.5915873,-5.14262,0.6867,0.09156,-0.922666095,0.33373938,-0.15832479
1764763201.5915873,-5.14262,0.6867,0.09156,-0.922666095,0.33373938,-0.15832479
1764763201.5915873,-5.14262,0.6867,0.09156,-0.922666095,0.33373938,-0.15832479
1764763201.5915873,-5.14262,0.6867,0.09156,-0.922666095,0.33373938,-0.15832479
1764763201.5915873,-5.14262,0.6867,0.09156,-0.922666095,0.33373938,-0.15832479
1764763201.5915873,-5.14262,0.6867,0.09156,-0.922666095,0.33373938,-0.15832479
1764763201.5915873,-5.14262,0.6867,0.09156,-0.922666095,0.33373938,-0.15832479
1764763201.5915873,-5.14262,0.6867,0.09156,-0.922666095,0.33373938,-0.15832479
1764763201.5915873,-5.14262,0.6867,0.09156,-0.922666095,0.33373938,-0.15832479
1764763201.5915873,-4.51696,0.62566,0.36624,-0.923032305,0.33434973,-0.157897545
1764763201.5915873,-4.51696,0.62566,0.36624,-0.923032305,0.33434973,-0.157897545
1764763201.5931098,-4.51696,0.62566,0.36624,-0.923032305,0.33434973,-0.157897545
1764763201.5931098,-4.51696,0.62566,0.36624,-0.923032305,0.33434973,-0.157897545
1764763201.6387892,-4.51696,0.62566,0.36624,-0.923032305,0.33434973,-0.157897545
1764763201.6387892,-4.51696,0.62566,0.36624,-0.923032305,0.33434973,-0.157897545
1764763201.6387892,-4.51696,0.62566,0.36624,-0.923032305,0.33434973,-0.157897545
1764763201.6387892,-4.51696,0.62566,0.36624,-0.923032305,0.33434973,-0.157897545
1764763201.6393013,-4.51696,0.62566,0.36624,-0.923032305,0.33434973,-0.157897545
1764763201.6393013,-4.51696,0.62566,0.36624,-0.923032305,0.33434973,-0.157897545
1764763201.6393013,-4.63904,0.54936,0.62566,-0.9228492,0.33361731,-0.156554775
1764763201.6393013,-4.63904,0.54936,0.62566,-0.9228492,0.33361731,-0.156554775
1764763201.6393013,-4.63904,0.54936,0.62566,-0.9228492,0.33361731,-0.156554775
1764763201.6393013,-4.63904,0.54936,0.62566,-0.9228492,0.33361731,-0.156554775
1764763201.6393013,-4.63904,0.54936,0.62566,-0.9228492,0.33361731,-0.156554775
1764763201.6393013,-4.63904,0.54936,0.62566,-0.9228492,0.33361731,-0.156554775
1764763201.6393013,-4.63904,0.54936,0.62566,-0.9228492,0.33361731,-0.156554775
1764763201.6393013,-4.63904,0.54936,0.62566,-0.9228492,0.33361731,-0.156554775
1764763201.6393013,-4.63904,0.54936,0.62566,-0.9228492,0.33361731,-0.156554775
1764763201.6393013,-4.63904,0.54936,0.62566,-0.9228492,0.33361731,-0.156554775
1764763201.6393013,-4.22702,1.1445,0.56462,-0.92150643,0.331847295,-0.15649374
1764763201.6393013,-4.22702,1.1445,0.56462,-0.92150643,0.331847295,-0.15649374
1764763201.6393013,-4.22702,1.1445,0.56462,-0.92150643,0.331847295,-0.15649374
1764763201.6393013,-4.22702,1.1445,0.56462,-0.92150643,0.331847295,-0.15649374
1764763201.686087,-4.22702,1.1445,0.56462,-0.92150643,0.331847295,-0.15649374
1764763201.686087,-4.22702,1.1445,0.56462,-0.92150643,0.331847295,-0.15649374
1764763201.686087,-4.22702,1.1445,0.56462,-0.92150643,0.331847295,-0.15649374
1764763201.686087,-4.22702,1.1445,0.56462,-0.92150643,0.331847295,-0.15649374
1764763201.686087,-4.22702,1.1445,0.56462,-0.92150643,0.331847295,-0.15649374
1764763201.686087,-4.22702,1.1445,0.56462,-0.92150643,0.331847295,-0.15649374
1764763201.686087,-4.10494,0.9003399999999999,0.3815,-0.9216285,0.330504525,-0.156310635
1764763201.686087,-4.10494,0.9003399999999999,0.3815,-0.9216285,0.330504525,-0.156310635
1764763201.686087,-4.10494,0.9003399999999999,0.3815,-0.9216285,0.330504525,-0.156310635
1764763201.686087,-4.10494,0.9003399999999999,0.3815,-0.9216285,0.330504525,-0.156310635
1764763201.686087,-4.10494,0.9003399999999999,0.3815,-0.9216285,0.330504525,-0.156310635
1764763201.686087,-4.10494,0.9003399999999999,0.3815,-0.9216285,0.330504525,-0.156310635
1764763201.686087,-4.10494,0.9003399999999999,0.3815,-0.9216285,0.330504525,-0.156310635
1764763201.686087,-4.10494,0.9003399999999999,0.3815,-0.9216285,0.330504525,-0.156310635
1764763201.686087,-4.10494,0.9003399999999999,0.3815,-0.9216285,0.330504525,-0.156310635
1764763201.686087,-4.10494,0.9003399999999999,0.3815,-0.9216285,0.330504525,-0.156310635
1764763201.686087,-0.04578,0.48832,-0.04578,-0.921933675,0.330748665,-0.156310635
1764763201.686087,-0.04578,0.48832,-0.04578,-0.921933675,0.330748665,-0.156310635
1764763201.686087,-0.04578,0.48832,-0.04578,-0.921933675,0.330748665,-0.156310635
1764763201.686087,-0.04578,0.48832,-0.04578,-0.921933675,0.330748665,-0.156310635
1764763201.686087,-0.04578,0.48832,-0.04578,-0.921933675,0.330748665,-0.156310635
1764763201.686087,-0.04578,0.48832,-0.04578,-0.921933675,0.330748665,-0.156310635
1764763201.686087,-0.04578,0.48832,-0.04578,-0.921933675,0.330748665,-0.156310635
1764763201.686087,-0.04578,0.48832,-0.04578,-0.921933675,0.330748665,-0.156310635
1764763201.686087,-0.04578,0.48832,-0.04578,-0.921933675,0.330748665,-0.156310635
1764763201.686087,-0.04578,0.48832,-0.04578,-0.921933675,0.330748665,-0.156310635
1764763201.686087,-5.00528,0.94612,-0.5341,-0.920712975,0.332335575,-0.155700285
1764763201.686087,-5.00528,0.94612,-0.5341,-0.920712975,0.332335575,-0.155700285
1764763201.7337058,-5.00528,0.94612,-0.5341,-0.920712975,0.332335575,-0.155700285
1764763201.7342155,-5.00528,0.94612,-0.5341,-0.920712975,0.332335575,-0.155700285
1764763201.7342155,-5.00528,0.94612,-0.5341,-0.920712975,0.332335575,-0.155700285
1764763201.7342155,-5.00528,0.94612,-0.5341,-0.920712975,0.332335575,-0.155700285
1764763201.7342155,-5.00528,0.94612,-0.5341,-0.920712975,0.332335575,-0.155700285
1764763201.7342155,-5.00528,0.94612,-0.5341,-0.920712975,0.332335575,-0.155700285
1764763201.7342155,-5.00528,0.94612,-0.5341,-0.920712975,0.332335575,-0.155700285
1764763201.7342155,-5.00528,0.94612,-0.5341,-0.920712975,0.332335575,-0.155700285
1764763201.7342155,-5.85984,0.9003399999999999,0.3204599999999999,-0.921445395,0.334776975,-0.15454062
1764763201.7342155,-5.85984,0.9003399999999999,0.3204599999999999,-0.921445395,0.334776975,-0.15454062
1764763201.7342155,-5.85984,0.9003399999999999,0.3204599999999999,-0.921445395,0.334776975,-0.15454062
1764763201.7342155,-5.85984,0.9003399999999999,0.3204599999999999,-0.921445395,0.334776975,-0.15454062
1764763201.7342155,-5.85984,0.9003399999999999,0.3204599999999999,-0.921445395,0.334776975,-0.15454062
1764763201.7342155,-5.85984,0.9003399999999999,0.3204599999999999,-0.921445395,0.334776975,-0.15454062
1764763201.7342155,-5.85984,0.9003399999999999,0.3204599999999999,-0.921445395,0.334776975,-0.15454062
1764763201.7342155,-5.85984,0.9003399999999999,0.3204599999999999,-0.921445395,0.334776975,-0.15454062
1764763201.7342155,-5.85984,0.9003399999999999,0.3204599999999999,-0.921445395,0.334776975,-0.15454062
1764763201.7342155,-5.85984,0.9003399999999999,0.3204599999999999,-0.921445395,0.334776975,-0.15454062
1764763201.7342155,-3.37246,-0.03052,-0.13734,-0.92211678,0.333312135,-0.154967865
1764763201.7342155,-3.37246,-0.03052,-0.13734,-0.92211678,0.333312135,-0.154967865
1764763201.7342155,-3.37246,-0.03052,-0.13734,-0.92211678,0.333312135,-0.154967865
1764763201.7342155,-3.37246,-0.03052,-0.13734,-0.92211678,0.333312135,-0.154967865
1764763201.781613,-3.37246,-0.03052,-0.13734,-0.92211678,0.333312135,-0.154967865
1764763201.781613,-3.37246,-0.03052,-0.13734,-0.92211678,0.333312135,-0.154967865
1764763201.781613,-3.37246,-0.03052,-0.13734,-0.92211678,0.333312135,-0.154967865
1764763201.781613,-3.37246,-0.03052,-0.13734,-0.92211678,0.333312135,-0.154967865
1764763201.781613,-3.37246,-0.03052,-0.13734,-0.92211678,0.333312135,-0.154967865
1764763201.781613,-3.37246,-0.03052,-0.13734,-0.92211678,0.333312135,-0.154967865
1764763201.781613,-3.34194,0.51884,0.06104,-0.921567465,0.33044349,-0.157775475
1764763201.781613,-3.34194,0.51884,0.06104,-0.921567465,0.33044349,-0.157775475
1764763201.781613,-3.34194,0.51884,0.06104,-0.921567465,0.33044349,-0.157775475
1764763201.781613,-3.34194,0.51884,0.06104,-0.921567465,0.33044349,-0.157775475
1764763201.781613,-3.34194,0.51884,0.06104,-0.921567465,0.33044349,-0.157775475
1764763201.781613,-3.34194,0.51884,0.06104,-0.921567465,0.33044349,-0.157775475
1764763201.781613,-3.34194,0.51884,0.06104,-0.921567465,0.33044349,-0.157775475
1764763201.781613,-3.34194,0.51884,0.06104,-0.921567465,0.33044349,-0.157775475
1764763201.781613,-3.34194,0.51884,0.06104,-0.921567465,0.33044349,-0.157775475
1764763201.781613,-3.34194,0.51884,0.06104,-0.921567465,0.33044349,-0.157775475
1764763201.781613,-5.60042,1.54126,0.73248,-0.92199471,0.33215247,-0.15942342
1764763201.781613,-5.60042,1.54126,0.73248,-0.92199471,0.33215247,-0.15942342
1764763201.781613,-5.60042,1.54126,0.73248,-0.92199471,0.33215247,-0.15942342
1764763201.781613,-5.60042,1.54126,0.73248,-0.92199471,0.33215247,-0.15942342
1764763201.781613,-5.60042,1.54126,0.73248,-0.92199471,0.33215247,-0.15942342
1764763201.781613,-5.60042,1.54126,0.73248,-0.92199471,0.33215247,-0.15942342
1764763201.781613,-5.60042,1.54126,0.73248,-0.92199471,0.33215247,-0.15942342
1764763201.781613,-5.60042,1.54126,0.73248,-0.92199471,0.33215247,-0.15942342
1764763201.8289704,-5.60042,1.54126,0.73248,-0.92199471,0.33215247,-0.15942342
1764763201.8289704,-5.60042,1.54126,0.73248,-0.92199471,0.33215247,-0.15942342
1764763201.8289704,-6.85174,1.08346,1.25132,-0.924497145,0.334899045,-0.158385825
1764763201.8289704,-6.85174,1.08346,1.25132,-0.924497145,0.334899045,-0.158385825
1764763201.8289704,-6.85174,1.08346,1.25132,-0.924497145,0.334899045,-0.158385825
1764763201.8289704,-6.85174,1.08346,1.25132,-0.924497145,0.334899045,-0.158385825
1764763201.8289704,-6.85174,1.08346,1.25132,-0.924497145,0.334899045,-0.158385825
1764763201.8289704,-6.85174,1.08346,1.25132,-0.924497145,0.334899045,-0.158385825
1764763201.8289704,-6.85174,1.08346,1.25132,-0.924497145,0.334899045,-0.158385825
1764763201.8289704,-6.85174,1.08346,1.25132,-0.924497145,0.334899045,-0.158385825
1764763201.8289704,-6.85174,1.08346,1.25132,-0.924497145,0.334899045,-0.158385825
1764763201.8289704,-6.85174,1.08346,1.25132,-0.924497145,0.334899045,-0.158385825
1764763201.8289704,-5.70724,0.8698199999999999,0.6409199999999999,-0.9265113,0.33483801,-0.15649374
1764763201.8289704,-5.70724,0.8698199999999999,0.6409199999999999,-0.9265113,0.33483801,-0.15649374
1764763201.8289704,-5.70724,0.8698199999999999,0.6409199999999999,-0.9265113,0.33483801,-0.15649374
1764763201.8289704,-5.70724,0.8698199999999999,0.6409199999999999,-0.9265113,0.33483801,-0.15649374
1764763201.8289704,-5.70724,0.8698199999999999,0.6409199999999999,-0.9265113,0.33483801,-0.15649374
1764763201.8289704,-5.70724,0.8698199999999999,0.6409199999999999,-0.9265113,0.33483801,-0.15649374
1764763201.8289704,-5.70724,0.8698199999999999,0.6409199999999999,-0.9265113,0.33483801,-0.15649374
1764763201.8289704,-5.70724,0.8698199999999999,0.6409199999999999,-0.9265113,0.33483801,-0.15649374
1764763201.8289704,-5.70724,0.8698199999999999,0.6409199999999999,-0.9265113,0.33483801,-0.15649374
1764763201.8289704,-5.70724,0.8698199999999999,0.6409199999999999,-0.9265113,0.33483801,-0.15649374
1764763201.8289704,-4.70008,0.21364,-0.0762999999999999,-0.925107495,0.33215247,-0.15527304
1764763201.8289704,-4.70008,0.21364,-0.0762999999999999,-0.925107495,0.33215247,-0.15527304
1764763201.8763506,-4.70008,0.21364,-0.0762999999999999,-0.925107495,0.33215247,-0.15527304
1764763201.8763506,-4.70008,0.21364,-0.0762999999999999,-0.925107495,0.33215247,-0.15527304
1764763201.8763506,-4.70008,0.21364,-0.0762999999999999,-0.925107495,0.33215247,-0.15527304
1764763201.8763506,-4.70008,0.21364,-0.0762999999999999,-0.925107495,0.33215247,-0.15527304
1764763201.8763506,-4.70008,0.21364,-0.0762999999999999,-0.925107495,0.33215247,-0.15527304
1764763201.8763506,-4.70008,0.21364,-0.0762999999999999,-0.925107495,0.33215247,-0.15527304
1764763201.8763506,-4.70008,0.21364,-0.0762999999999999,-0.925107495,0.33215247,-0.15527304
1764763201.8763506,-4.70008,0.21364,-0.0762999999999999,-0.925107495,0.33215247,-0.15527304
1764763201.8763506,-3.76922,0.4578,0.48832,-0.921933675,0.33007728,-0.155822355
1764763201.8763506,-3.76922,0.4578,0.48832,-0.921933675,0.33007728,-0.155822355
1764763201.8763506,-3.76922,0.4578,0.48832,-0.921933675,0.33007728,-0.155822355
1764763201.8763506,-3.76922,0.4578,0.48832,-0.921933675,0.33007728,-0.155822355
1764763201.8763506,-3.76922,0.4578,0.48832,-0.921933675,0.33007728,-0.155822355
1764763201.8763506,-3.76922,0.4578,0.48832,-0.921933675,0.33007728,-0.155822355
1764763201.8763506,-3.76922,0.4578,0.48832,-0.921933675,0.33007728,-0.155822355
1764763201.8763506,-3.76922,0.4578,0.48832,-0.921933675,0.33007728,-0.155822355
1764763201.8763506,-3.76922,0.4578,0.48832,-0.921933675,0.33007728,-0.155822355
1764763201.8763506,-3.76922,0.4578,0.48832,-0.921933675,0.33007728,-0.155822355
1764763201.8763506,-4.822159999999999,1.2971,1.12924,-0.920224695,0.32983314,-0.15722616
1764763201.8763506,-4.822159999999999,1.2971,1.12924,-0.920224695,0.32983314,-0.15722616
1764763201.8763506,-4.822159999999999,1.2971,1.12924,-0.920224695,0.32983314,-0.15722616
1764763201.8763506,-4.822159999999999,1.2971,1.12924,-0.920224695,0.32983314,-0.15722616
1764763201.919097,-4.822159999999999,1.2971,1.12924,-0.920224695,0.32983314,-0.15722616
1764763201.91965,-4.822159999999999,1.2971,1.12924,-0.920224695,0.32983314,-0.15722616
1764763201.91965,-4.822159999999999,1.2971,1.12924,-0.920224695,0.32983314,-0.15722616
1764763201.91965,-4.822159999999999,1.2971,1.12924,-0.920224695,0.32983314,-0.15722616
1764763201.91965,-4.822159999999999,1.2971,1.12924,-0.920224695,0.32983314,-0.15722616
1764763201.91965,-4.822159999999999,1.2971,1.12924,-0.920224695,0.32983314,-0.15722616
1764763201.91965,-5.20366,1.86172,1.05294,-0.921079185,0.32971107,-0.1574703
1764763201.91965,-5.20366,1.86172,1.05294,-0.921079185,0.32971107,-0.1574703
1764763201.91965,-5.20366,1.86172,1.05294,-0.921079185,0.32971107,-0.1574703
1764763201.91965,-5.20366,1.86172,1.05294,-0.921079185,0.32971107,-0.1574703
1764763201.91965,-5.20366,1.86172,1.05294,-0.921079185,0.32971107,-0.1574703
1764763201.91965,-5.20366,1.86172,1.05294,-0.921079185,0.32971107,-0.1574703
1764763201.91965,-5.20366,1.86172,1.05294,-0.921079185,0.32971107,-0.1574703
1764763201.91965,-5.20366,1.86172,1.05294,-0.921079185,0.32971107,-0.1574703
1764763201.91965,-5.20366,1.86172,1.05294,-0.921079185,0.32971107,-0.1574703
1764763201.91965,-5.20366,1.86172,1.05294,-0.921079185,0.32971107,-0.1574703
1764763201.91965,-4.31858,0.59514,0.24416,-0.923154375,0.331114875,-0.156310635
1764763201.91965,-4.31858,0.59514,0.24416,-0.923154375,0.331114875,-0.156310635
1764763201.91965,-4.31858,0.59514,0.24416,-0.923154375,0.331114875,-0.156310635
1764763201.91965,-4.31858,0.59514,0.24416,-0.923154375,0.331114875,-0.156310635
1764763201.91965,-4.31858,0.59514,0.24416,-0.923154375,0.331114875,-0.156310635
1764763201.91965,-4.31858,0.59514,0.24416,-0.923154375,0.331114875,-0.156310635
1764763201.91965,-4.31858,0.59514,0.24416,-0.923154375,0.331114875,-0.156310635
1764763201.91965,-4.31858,0.59514,0.24416,-0.923154375,0.331114875,-0.156310635
1764763201.9667585,-4.31858,0.59514,0.24416,-0.923154375,0.331114875,-0.156310635
1764763201.9667585,-4.31858,0.59514,0.24416,-0.923154375,0.331114875,-0.156310635
1764763201.9667585,-3.9676,1.02242,0.3357199999999999,-0.92419197,0.33276282,-0.15539511
1764763201.9667585,-3.9676,1.02242,0.3357199999999999,-0.92419197,0.33276282,-0.15539511
1764763201.9667585,-3.9676,1.02242,0.3357199999999999,-0.92419197,0.33276282,-0.15539511
1764763201.9667585,-3.9676,1.02242,0.3357199999999999,-0.92419197,0.33276282,-0.15539511
1764763201.9667585,-3.9676,1.02242,0.3357199999999999,-0.92419197,0.33276282,-0.15539511
1764763201.9667585,-3.9676,1.02242,0.3357199999999999,-0.92419197,0.33276282,-0.15539511
1764763201.9667585,-3.9676,1.02242,0.3357199999999999,-0.92419197,0.33276282,-0.15539511
1764763201.9667585,-3.9676,1.02242,0.3357199999999999,-0.92419197,0.33276282,-0.15539511
1764763201.9667585,-3.9676,1.02242,0.3357199999999999,-0.92419197,0.33276282,-0.15539511
1764763201.9667585,-3.9676,1.02242,0.3357199999999999,-0.92419197,0.33276282,-0.15539511
1764763201.96778,-3.00622,0.71722,0.39676,-0.92468025,0.333434205,-0.155334075
1764763201.96778,-3.00622,0.71722,0.39676,-0.92468025,0.333434205,-0.155334075
1764763201.96778,-3.00622,0.71722,0.39676,-0.92468025,0.333434205,-0.155334075
1764763201.9687753,-3.00622,0.71722,0.39676,-0.92468025,0.333434205,-0.155334075
1764763201.9687753,-3.00622,0.71722,0.39676,-0.92468025,0.333434205,-0.155334075
1764763201.9687753,-3.00622,0.71722,0.39676,-0.92468025,0.333434205,-0.155334075
1764763201.9687753,-3.00622,0.71722,0.39676,-0.92468025,0.333434205,-0.155334075
1764763201.9687753,-3.00622,0.71722,0.39676,-0.92468025,0.333434205,-0.155334075
1764763201.9687753,-3.00622,0.71722,0.39676,-0.92468025,0.333434205,-0.155334075
1764763201.9687753,-3.00622,0.71722,0.39676,-0.92468025,0.333434205,-0.155334075
1764763201.9687753,-1.86172,0.79352,0.04578,-0.9228492,0.33166419,-0.156798915
1764763201.9687753,-1.86172,0.79352,0.04578,-0.9228492,0.33166419,-0.156798915
1764763202.016147,-1.86172,0.79352,0.04578,-0.9228492,0.33166419,-0.156798915
1764763202.016147,-1.86172,0.79352,0.04578,-0.9228492,0.33166419,-0.156798915
1764763202.016147,-1.86172,0.79352,0.04578,-0.9228492,0.33166419,-0.156798915
1764763202.016147,-1.86172,0.79352,0.04578,-0.9228492,0.33166419,-0.156798915
1764763202.016147,-1.86172,0.79352,0.04578,-0.9228492,0.33166419,-0.156798915
1764763202.016147,-1.86172,0.79352,0.04578,-0.9228492,0.33166419,-0.156798915
1764763202.016147,-1.86172,0.79352,0.04578,-0.9228492,0.33166419,-0.156798915
1764763202.016147,-1.86172,0.79352,0.04578,-0.9228492,0.33166419,-0.156798915
1764763202.016147,-3.6624,0.97664,0.73248,-0.92077401,0.332701785,-0.15783651
1764763202.016147,-3.6624,0.97664,0.73248,-0.92077401,0.332701785,-0.15783651
1764763202.016147,-3.6624,0.97664,0.73248,-0.92077401,0.332701785,-0.15783651
1764763202.016147,-3.6624,0.97664,0.73248,-0.92077401,0.332701785,-0.15783651
1764763202.016147,-3.6624,0.97664,0.73248,-0.92077401,0.332701785,-0.15783651
1764763202.016147,-3.6624,0.97664,0.73248,-0.92077401,0.332701785,-0.15783651
1764763202.016147,-3.6624,0.97664,0.73248,-0.92077401,0.332701785,-0.15783651
1764763202.016147,-3.6624,0.97664,0.73248,-0.92077401,0.332701785,-0.15783651
1764763202.016147,-3.6624,0.97664,0.73248,-0.92077401,0.332701785,-0.15783651
1764763202.016147,-3.6624,0.97664,0.73248,-0.92077401,0.332701785,-0.15783651
1764763202.016147,-4.02864,1.23606,0.5341,-0.922055745,0.333434205,-0.15795858
1764763202.016147,-4.02864,1.23606,0.5341,-0.922055745,0.333434205,-0.15795858
1764763202.016147,-4.02864,1.23606,0.5341,-0.922055745,0.333434205,-0.15795858
1764763202.016147,-4.02864,1.23606,0.5341,-0.922055745,0.333434205,-0.15795858
1764763202.0594282,-4.02864,1.23606,0.5341,-0.922055745,0.333434205,-0.15795858
1764763202.0594282,-4.02864,1.23606,0.5341,-0.922055745,0.333434205,-0.15795858
1764763202.0594282,-4.02864,1.23606,0.5341,-0.922055745,0.333434205,-0.15795858
1764763202.0594282,-4.02864,1.23606,0.5341,-0.922055745,0.333434205,-0.15795858
1764763202.0594282,-4.02864,1.23606,0.5341,-0.922055745,0.333434205,-0.15795858
1764763202.0594282,-4.02864,1.23606,0.5341,-0.922055745,0.333434205,-0.15795858
1764763202.0594282,-4.45592,1.35814,0.71722,-0.92260506,0.334654905,-0.15673788
1764763202.0594282,-4.45592,1.35814,0.71722,-0.92260506,0.334654905,-0.15673788
1764763202.0594282,-4.45592,1.35814,0.71722,-0.92260506,0.334654905,-0.15673788
1764763202.0594282,-4.45592,1.35814,0.71722,-0.92260506,0.334654905,-0.15673788
1764763202.0594282,-4.45592,1.35814,0.71722,-0.92260506,0.334654905,-0.15673788
1764763202.0594282,-4.45592,1.35814,0.71722,-0.92260506,0.334654905,-0.15673788
1764763202.0594282,-4.45592,1.35814,0.71722,-0.92260506,0.334654905,-0.15673788
1764763202.0594282,-4.45592,1.35814,0.71722,-0.92260506,0.334654905,-0.15673788
1764763202.0594282,-4.45592,1.35814,0.71722,-0.92260506,0.334654905,-0.15673788
1764763202.0594282,-4.45592,1.35814,0.71722,-0.92260506,0.334654905,-0.15673788
1764763202.0594282,-4.07442,0.82404,0.56462,-0.922910235,0.33288489,-0.155578215
1764763202.0594282,-4.07442,0.82404,0.56462,-0.922910235,0.33288489,-0.155578215
1764763202.0594282,-4.07442,0.82404,0.56462,-0.922910235,0.33288489,-0.155578215
1764763202.0594282,-4.07442,0.82404,0.56462,-0.922910235,0.33288489,-0.155578215
1764763202.0594282,-4.07442,0.82404,0.56462,-0.922910235,0.33288489,-0.155578215
1764763202.0604396,-4.07442,0.82404,0.56462,-0.922910235,0.33288489,-0.155578215
1764763202.1072354,-4.07442,0.82404,0.56462,-0.922910235,0.33288489,-0.155578215
1764763202.1072354,-4.07442,0.82404,0.56462,-0.922910235,0.33288489,-0.155578215
1764763202.1072354,-4.07442,0.82404,0.56462,-0.922910235,0.33288489,-0.155578215
1764763202.1072354,-4.07442,0.82404,0.56462,-0.922910235,0.33288489,-0.155578215
1764763202.1072354,-2.50264,1.2055399999999998,0.50358,-0.922299885,0.330504525,-0.155334075
1764763202.1072354,-2.50264,1.2055399999999998,0.50358,-0.922299885,0.330504525,-0.155334075
1764763202.1072354,-2.50264,1.2055399999999998,0.50358,-0.922299885,0.330504525,-0.155334075
1764763202.1072354,-2.50264,1.2055399999999998,0.50358,-0.922299885,0.330504525,-0.155334075
1764763202.1072354,-2.50264,1.2055399999999998,0.50358,-0.922299885,0.330504525,-0.155334075
1764763202.1072354,-2.50264,1.2055399999999998,0.50358,-0.922299885,0.330504525,-0.155334075
1764763202.1072354,-2.50264,1.2055399999999998,0.50358,-0.922299885,0.330504525,-0.155334075
1764763202.1072354,-2.50264,1.2055399999999998,0.50358,-0.922299885,0.330504525,-0.155334075
1764763202.1072354,-2.50264,1.2055399999999998,0.50358,-0.922299885,0.330504525,-0.155334075
1764763202.1072354,-2.50264,1.2055399999999998,0.50358,-0.922299885,0.330504525,-0.155334075
1764763202.1072354,-1.77016,0.93086,0.47306,-0.921323325,0.32946693,-0.15612753
1764763202.1072354,-1.77016,0.93086,0.47306,-0.921323325,0.32946693,-0.15612753
1764763202.1072354,-1.77016,0.93086,0.47306,-0.921323325,0.32946693,-0.15612753
1764763202.1072354,-1.77016,0.93086,0.47306,-0.921323325,0.32946693,-0.15612753
1764763202.1072354,-1.77016,0.93086,0.47306,-0.921323325,0.32946693,-0.15612753
1764763202.1072354,-1.77016,0.93086,0.47306,-0.921323325,0.32946693,-0.15612753
1764763202.1072354,-1.77016,0.93086,0.47306,-0.921323325,0.32946693,-0.15612753
1764763202.1072354,-1.77016,0.93086,0.47306,-0.921323325,0.32946693,-0.15612753
1764763202.1072354,-1.77016,0.93086,0.47306,-0.921323325,0.32946693,-0.15612753
1764763202.1072354,-1.77016,0.93086,0.47306,-0.921323325,0.32946693,-0.15612753
1764763202.1072354,-2.76206,0.71722,0.3051999999999999,-0.92114022,0.329589,-0.157409265
1764763202.1072354,-2.76206,0.71722,0.3051999999999999,-0.92114022,0.329589,-0.157409265
1764763202.1546423,-2.76206,0.71722,0.3051999999999999,-0.92114022,0.329589,-0.157409265
1764763202.1546423,-2.76206,0.71722,0.3051999999999999,-0.92114022,0.329589,-0.157409265
1764763202.1546423,-2.76206,0.71722,0.3051999999999999,-0.92114022,0.329589,-0.157409265
1764763202.1546423,-2.76206,0.71722,0.3051999999999999,-0.92114022,0.329589,-0.157409265
1764763202.1546423,-2.76206,0.71722,0.3051999999999999,-0.92114022,0.329589,-0.157409265
1764763202.1546423,-2.76206,0.71722,0.3051999999999999,-0.92114022,0.329589,-0.157409265
1764763202.1546423,-2.76206,0.71722,0.3051999999999999,-0.92114022,0.329589,-0.157409265
1764763202.1546423,-2.76206,0.71722,0.3051999999999999,-0.92114022,0.329589,-0.157409265
1764763202.1546423,-2.53316,0.6409199999999999,0.1525999999999999,-0.92236092,0.33166419,-0.156920985
1764763202.1546423,-2.53316,0.6409199999999999,0.1525999999999999,-0.92236092,0.33166419,-0.156920985
1764763202.1546423,-2.53316,0.6409199999999999,0.1525999999999999,-0.92236092,0.33166419,-0.156920985
1764763202.1546423,-2.53316,0.6409199999999999,0.1525999999999999,-0.92236092,0.33166419,-0.156920985
1764763202.1546423,-2.53316,0.6409199999999999,0.1525999999999999,-0.92236092,0.33166419,-0.156920985
1764763202.1546423,-2.53316,0.6409199999999999,0.1525999999999999,-0.92236092,0.33166419,-0.156920985
1764763202.1546423,-2.53316,0.6409199999999999,0.1525999999999999,-0.92236092,0.33166419,-0.156920985
1764763202.1546423,-2.53316,0.6409199999999999,0.1525999999999999,-0.92236092,0.33166419,-0.156920985
1764763202.1546423,-2.53316,0.6409199999999999,0.1525999999999999,-0.92236092,0.33166419,-0.156920985
1764763202.1546423,-2.53316,0.6409199999999999,0.1525999999999999,-0.92236092,0.33166419,-0.156920985
1764763202.1546423,-2.1364,0.6714399999999999,0.50358,-0.923276445,0.332823855,-0.156676845
1764763202.1546423,-2.1364,0.6714399999999999,0.50358,-0.923276445,0.332823855,-0.156676845
1764763202.1546423,-2.1364,0.6714399999999999,0.50358,-0.923276445,0.332823855,-0.156676845
1764763202.1546423,-2.1364,0.6714399999999999,0.50358,-0.923276445,0.332823855,-0.156676845
1764763202.1551597,-2.1364,0.6714399999999999,0.50358,-0.923276445,0.332823855,-0.156676845
1764763202.1551597,-2.1364,0.6714399999999999,0.50358,-0.923276445,0.332823855,-0.156676845
1764763202.202262,-2.1364,0.6714399999999999,0.50358,-0.923276445,0.332823855,-0.156676845
1764763202.202262,-2.1364,0.6714399999999999,0.50358,-0.923276445,0.332823855,-0.156676845
1764763202.202262,-2.1364,0.6714399999999999,0.50358,-0.923276445,0.332823855,-0.156676845
1764763202.202262,-2.1364,0.6714399999999999,0.50358,-0.923276445,0.332823855,-0.156676845
1764763202.202262,-1.2208,1.26658,0.74774,-0.922910235,0.33251868,-0.15637167
1764763202.202262,-1.2208,1.26658,0.74774,-0.922910235,0.33251868,-0.15637167
1764763202.202262,-1.2208,1.26658,0.74774,-0.922910235,0.33251868,-0.15637167
1764763202.202262,-1.2208,1.26658,0.74774,-0.922910235,0.33251868,-0.15637167
1764763202.202262,-1.2208,1.26658,0.74774,-0.922910235,0.33251868,-0.15637167
1764763202.202262,-1.2208,1.26658,0.74774,-0.922910235,0.33251868,-0.15637167
1764763202.202262,-1.2208,1.26658,0.74774,-0.922910235,0.33251868,-0.15637167
1764763202.202262,-1.2208,1.26658,0.74774,-0.922910235,0.33251868,-0.15637167
1764763202.2033026,-1.2208,1.26658,0.74774,-0.922910235,0.33251868,-0.15637167
1764763202.2033026,-1.2208,1.26658,0.74774,-0.922910235,0.33251868,-0.15637167
1764763202.2033026,-1.526,1.61756,0.6409199999999999,-0.923032305,0.332701785,-0.157775475
1764763202.2033026,-1.526,1.61756,0.6409199999999999,-0.923032305,0.332701785,-0.157775475
1764763202.2033026,-1.526,1.61756,0.6409199999999999,-0.923032305,0.332701785,-0.157775475
1764763202.2033026,-1.526,1.61756,0.6409199999999999,-0.923032305,0.332701785,-0.157775475
1764763202.2033026,-1.526,1.61756,0.6409199999999999,-0.923032305,0.332701785,-0.157775475
1764763202.2033026,-1.526,1.61756,0.6409199999999999,-0.923032305,0.332701785,-0.157775475
1764763202.2033026,-1.526,1.61756,0.6409199999999999,-0.923032305,0.332701785,-0.157775475
1764763202.2033026,-1.526,1.61756,0.6409199999999999,-0.923032305,0.332701785,-0.157775475
1764763202.2461796,-1.526,1.61756,0.6409199999999999,-0.923032305,0.332701785,-0.157775475
1764763202.2461796,-1.526,1.61756,0.6409199999999999,-0.923032305,0.332701785,-0.157775475
1764763202.2461796,-2.39582,1.41918,0.6409199999999999,-0.922666095,0.333312135,-0.15844686
1764763202.2461796,-2.39582,1.41918,0.6409199999999999,-0.922666095,0.333312135,-0.15844686
1764763202.2461796,-2.39582,1.41918,0.6409199999999999,-0.922666095,0.333312135,-0.15844686
1764763202.2461796,-2.39582,1.41918,0.6409199999999999,-0.922666095,0.333312135,-0.15844686
1764763202.2461796,-2.39582,1.41918,0.6409199999999999,-0.922666095,0.333312135,-0.15844686
1764763202.2461796,-2.39582,1.41918,0.6409199999999999,-0.922666095,0.333312135,-0.15844686
1764763202.247218,-2.39582,1.41918,0.6409199999999999,-0.922666095,0.333312135,-0.15844686
1764763202.247218,-2.39582,1.41918,0.6409199999999999,-0.922666095,0.333312135,-0.15844686
1764763202.247218,-2.39582,1.41918,0.6409199999999999,-0.922666095,0.333312135,-0.15844686
1764763202.247218,-2.39582,1.41918,0.6409199999999999,-0.922666095,0.333312135,-0.15844686
1764763202.247218,-3.2046,1.8006799999999998,0.3815,-0.922055745,0.332213505,-0.15808065
1764763202.247218,-3.2046,1.8006799999999998,0.3815,-0.922055745,0.332213505,-0.15808065
1764763202.247218,-3.2046,1.8006799999999998,0.3815,-0.922055745,0.332213505,-0.15808065
1764763202.247218,-3.2046,1.8006799999999998,0.3815,-0.922055745,0.332213505,-0.15808065
1764763202.247218,-3.2046,1.8006799999999998,0.3815,-0.922055745,0.332213505,-0.15808065
1764763202.247218,-3.2046,1.8006799999999998,0.3815,-0.922055745,0.332213505,-0.15808065
1764763202.247218,-3.2046,1.8006799999999998,0.3815,-0.922055745,0.332213505,-0.15808065
1764763202.247218,-3.2046,1.8006799999999998,0.3815,-0.922055745,0.332213505,-0.15808065
1764763202.247218,-3.2046,1.8006799999999998,0.3815,-0.922055745,0.332213505,-0.15808065
1764763202.247218,-3.2046,1.8006799999999998,0.3815,-0.922055745,0.332213505,-0.15808065
1764763202.2929678,-3.38772,1.34288,0.0762999999999999,-0.920712975,0.3320304,-0.15734823
1764763202.2929678,-3.38772,1.34288,0.0762999999999999,-0.920712975,0.3320304,-0.15734823
1764763202.2929678,-3.38772,1.34288,0.0762999999999999,-0.920712975,0.3320304,-0.15734823
1764763202.2929678,-3.38772,1.34288,0.0762999999999999,-0.920712975,0.3320304,-0.15734823
1764763202.2929678,-3.38772,1.34288,0.0762999999999999,-0.920712975,0.3320304,-0.15734823
1764763202.2929678,-3.38772,1.34288,0.0762999999999999,-0.920712975,0.3320304,-0.15734823
1764763202.2929678,-3.38772,1.34288,0.0762999999999999,-0.920712975,0.3320304,-0.15734823
1764763202.2929678,-3.38772,1.34288,0.0762999999999999,-0.920712975,0.3320304,-0.15734823
1764763202.2929678,-3.38772,1.34288,0.0762999999999999,-0.920712975,0.3320304,-0.15734823
1764763202.2929678,-3.38772,1.34288,0.0762999999999999,-0.920712975,0.3320304,-0.15734823
1764763202.2929678,-4.74586,1.64808,0.62566,-0.92150643,0.333067995,-0.157043055
1764763202.2929678,-4.74586,1.64808,0.62566,-0.92150643,0.333067995,-0.157043055
1764763202.2934842,-4.74586,1.64808,0.62566,-0.92150643,0.333067995,-0.157043055
1764763202.2934842,-4.74586,1.64808,0.62566,-0.92150643,0.333067995,-0.157043055
1764763202.2934842,-4.74586,1.64808,0.62566,-0.92150643,0.333067995,-0.157043055
1764763202.2934842,-4.74586,1.64808,0.62566,-0.92150643,0.333067995,-0.157043055
1764763202.2934842,-4.74586,1.64808,0.62566,-0.92150643,0.333067995,-0.157043055
1764763202.2934842,-4.74586,1.64808,0.62566,-0.92150643,0.333067995,-0.157043055
1764763202.2934842,-4.74586,1.64808,0.62566,-0.92150643,0.333067995,-0.157043055
1764763202.2934842,-4.74586,1.64808,0.62566,-0.92150643,0.333067995,-0.157043055
1764763202.2934842,-3.57084,1.12924,0.1678599999999999,-0.92358162,0.332945925,-0.158263755
1764763202.2934842,-3.57084,1.12924,0.1678599999999999,-0.92358162,0.332945925,-0.158263755
1764763202.2934842,-3.57084,1.12924,0.1678599999999999,-0.92358162,0.332945925,-0.158263755
1764763202.2934842,-3.57084,1.12924,0.1678599999999999,-0.92358162,0.332945925,-0.158263755
1764763202.3392882,-3.57084,1.12924,0.1678599999999999,-0.92358162,0.332945925,-0.158263755
1764763202.3392882,-3.57084,1.12924,0.1678599999999999,-0.92358162,0.332945925,-0.158263755
1764763202.3392882,-3.57084,1.12924,0.1678599999999999,-0.92358162,0.332945925,-0.158263755
1764763202.3392882,-3.57084,1.12924,0.1678599999999999,-0.92358162,0.332945925,-0.158263755
1764763202.3392882,-3.57084,1.12924,0.1678599999999999,-0.92358162,0.332945925,-0.158263755
1764763202.3392882,-3.57084,1.12924,0.1678599999999999,-0.92358162,0.332945925,-0.158263755
1764763202.3392882,-2.6705,0.50358,-0.1678599999999999,-0.92236092,0.330870735,-0.15942342
1764763202.3392882,-2.6705,0.50358,-0.1678599999999999,-0.92236092,0.330870735,-0.15942342
1764763202.3398058,-2.6705,0.50358,-0.1678599999999999,-0.92236092,0.330870735,-0.15942342
1764763202.3398058,-2.6705,0.50358,-0.1678599999999999,-0.92236092,0.330870735,-0.15942342
1764763202.3398058,-2.6705,0.50358,-0.1678599999999999,-0.92236092,0.330870735,-0.15942342
1764763202.3398058,-2.6705,0.50358,-0.1678599999999999,-0.92236092,0.330870735,-0.15942342
1764763202.3398058,-2.6705,0.50358,-0.1678599999999999,-0.92236092,0.330870735,-0.15942342
1764763202.3398058,-2.6705,0.50358,-0.1678599999999999,-0.92236092,0.330870735,-0.15942342
1764763202.3398058,-2.6705,0.50358,-0.1678599999999999,-0.92236092,0.330870735,-0.15942342
1764763202.3398058,-2.6705,0.50358,-0.1678599999999999,-0.92236092,0.330870735,-0.15942342
1764763202.3398058,-3.38772,1.86172,-0.1525999999999999,-0.91955331,0.33044349,-0.16003377
1764763202.3398058,-3.38772,1.86172,-0.1525999999999999,-0.91955331,0.33044349,-0.16003377
1764763202.3398058,-3.38772,1.86172,-0.1525999999999999,-0.91955331,0.33044349,-0.16003377
1764763202.3398058,-3.38772,1.86172,-0.1525999999999999,-0.91955331,0.33044349,-0.16003377
1764763202.3398058,-3.38772,1.86172,-0.1525999999999999,-0.91955331,0.33044349,-0.16003377
1764763202.3398058,-3.38772,1.86172,-0.1525999999999999,-0.91955331,0.33044349,-0.16003377
1764763202.3398058,-3.38772,1.86172,-0.1525999999999999,-0.91955331,0.33044349,-0.16003377
1764763202.3398058,-3.38772,1.86172,-0.1525999999999999,-0.91955331,0.33044349,-0.16003377
1764763202.3863714,-3.38772,1.86172,-0.1525999999999999,-0.91955331,0.33044349,-0.16003377
1764763202.3863714,-3.38772,1.86172,-0.1525999999999999,-0.91955331,0.33044349,-0.16003377
1764763202.3868763,-4.91372,1.31236,1.23606,-0.92077401,0.33349524,-0.15893514
1764763202.3868763,-4.91372,1.31236,1.23606,-0.92077401,0.33349524,-0.15893514
1764763202.3868763,-4.91372,1.31236,1.23606,-0.92077401,0.33349524,-0.15893514
1764763202.3868763,-4.91372,1.31236,1.23606,-0.92077401,0.33349524,-0.15893514
1764763202.3868763,-4.91372,1.31236,1.23606,-0.92077401,0.33349524,-0.15893514
1764763202.3868763,-4.91372,1.31236,1.23606,-0.92077401,0.33349524,-0.15893514
1764763202.3868763,-4.91372,1.31236,1.23606,-0.92077401,0.33349524,-0.15893514
1764763202.3868763,-4.91372,1.31236,1.23606,-0.92077401,0.33349524,-0.15893514
1764763202.3868763,-4.91372,1.31236,1.23606,-0.92077401,0.33349524,-0.15893514
1764763202.3868763,-4.91372,1.31236,1.23606,-0.92077401,0.33349524,-0.15893514
1764763202.3868763,-3.99812,1.25132,0.36624,-0.92333748,0.333922485,-0.159606525
1764763202.3868763,-3.99812,1.25132,0.36624,-0.92333748,0.333922485,-0.159606525
1764763202.3868763,-3.99812,1.25132,0.36624,-0.92333748,0.333922485,-0.159606525
1764763202.3868763,-3.99812,1.25132,0.36624,-0.92333748,0.333922485,-0.159606525
1764763202.3868763,-3.99812,1.25132,0.36624,-0.92333748,0.333922485,-0.159606525
1764763202.3873796,-3.99812,1.25132,0.36624,-0.92333748,0.333922485,-0.159606525
1764763202.3873796,-3.99812,1.25132,0.36624,-0.92333748,0.333922485,-0.159606525
1764763202.3873796,-3.99812,1.25132,0.36624,-0.92333748,0.333922485,-0.159606525
1764763202.3873796,-3.99812,1.25132,0.36624,-0.92333748,0.333922485,-0.159606525
1764763202.3873796,-3.99812,1.25132,0.36624,-0.92333748,0.333922485,-0.159606525
1764763202.433696,-2.65524,0.74774,0.03052,-0.92492439,0.33178626,-0.15881307
1764763202.433696,-2.65524,0.74774,0.03052,-0.92492439,0.33178626,-0.15881307
1764763202.433696,-2.65524,0.74774,0.03052,-0.92492439,0.33178626,-0.15881307
1764763202.433696,-2.65524,0.74774,0.03052,-0.92492439,0.33178626,-0.15881307
1764763202.433696,-2.65524,0.74774,0.03052,-0.92492439,0.33178626,-0.15881307
1764763202.433696,-2.65524,0.74774,0.03052,-0.92492439,0.33178626,-0.15881307
1764763202.433696,-2.65524,0.74774,0.03052,-0.92492439,0.33178626,-0.15881307
1764763202.433696,-2.65524,0.74774,0.03052,-0.92492439,0.33178626,-0.15881307
1764763202.433696,-2.65524,0.74774,0.03052,-0.92492439,0.33178626,-0.15881307
1764763202.433696,-2.65524,0.74774,0.03052,-0.92492439,0.33178626,-0.15881307
1764763202.433696,-2.02958,0.51884,-0.56462,-0.922544025,0.330870735,-0.158629965
1764763202.433696,-2.02958,0.51884,-0.56462,-0.922544025,0.330870735,-0.158629965
1764763202.433696,-2.02958,0.51884,-0.56462,-0.922544025,0.330870735,-0.158629965
1764763202.433696,-2.02958,0.51884,-0.56462,-0.922544025,0.330870735,-0.158629965
1764763202.433696,-2.02958,0.51884,-0.56462,-0.922544025,0.330870735,-0.158629965
1764763202.433696,-2.02958,0.51884,-0.56462,-0.922544025,0.330870735,-0.158629965
1764763202.433696,-2.02958,0.51884,-0.56462,-0.922544025,0.330870735,-0.158629965
1764763202.433696,-2.02958,0.51884,-0.56462,-0.922544025,0.330870735,-0.158629965
1764763202.433696,-2.02958,0.51884,-0.56462,-0.922544025,0.330870735,-0.158629965
1764763202.433696,-2.02958,0.51884,-0.56462,-0.922544025,0.330870735,-0.158629965
1764763202.433696,-2.88414,1.05294,-0.1678599999999999,-0.919980555,0.331481085,-0.15856893
1764763202.433696,-2.88414,1.05294,-0.1678599999999999,-0.919980555,0.331481085,-0.15856893
1764763202.433696,-2.88414,1.05294,-0.1678599999999999,-0.919980555,0.331481085,-0.15856893
1764763202.4342406,-2.88414,1.05294,-0.1678599999999999,-0.919980555,0.331481085,-0.15856893
1764763202.481643,-2.88414,1.05294,-0.1678599999999999,-0.919980555,0.331481085,-0.15856893
1764763202.481643,-2.88414,1.05294,-0.1678599999999999,-0.919980555,0.331481085,-0.15856893
1764763202.481643,-2.88414,1.05294,-0.1678599999999999,-0.919980555,0.331481085,-0.15856893
1764763202.481643,-2.88414,1.05294,-0.1678599999999999,-0.919980555,0.331481085,-0.15856893
1764763202.481643,-2.88414,1.05294,-0.1678599999999999,-0.919980555,0.331481085,-0.15856893
1764763202.481643,-2.88414,1.05294,-0.1678599999999999,-0.919980555,0.331481085,-0.15856893
1764763202.481643,-4.10494,1.57178,-0.04578,-0.9191871,0.332457645,-0.159240315
1764763202.481643,-4.10494,1.57178,-0.04578,-0.9191871,0.332457645,-0.159240315
1764763202.481643,-4.10494,1.57178,-0.04578,-0.9191871,0.332457645,-0.159240315
1764763202.481643,-4.10494,1.57178,-0.04578,-0.9191871,0.332457645,-0.159240315
1764763202.481643,-4.10494,1.57178,-0.04578,-0.9191871,0.332457645,-0.159240315
1764763202.481643,-4.10494,1.57178,-0.04578,-0.9191871,0.332457645,-0.159240315
1764763202.481643,-4.10494,1.57178,-0.04578,-0.9191871,0.332457645,-0.159240315
1764763202.4827013,-4.10494,1.57178,-0.04578,-0.9191871,0.332457645,-0.159240315
1764763202.4827013,-4.10494,1.57178,-0.04578,-0.9191871,0.332457645,-0.159240315
1764763202.4827013,-4.10494,1.57178,-0.04578,-0.9191871,0.332457645,-0.159240315
1764763202.4827013,-5.55464,1.26658,-0.85456,-0.921201255,0.332457645,-0.160216875
1764763202.4827013,-5.55464,1.26658,-0.85456,-0.921201255,0.332457645,-0.160216875
1764763202.4827013,-5.55464,1.26658,-0.85456,-0.921201255,0.332457645,-0.160216875
1764763202.4827013,-5.55464,1.26658,-0.85456,-0.921201255,0.332457645,-0.160216875
1764763202.4827013,-5.55464,1.26658,-0.85456,-0.921201255,0.332457645,-0.160216875
1764763202.4827013,-5.55464,1.26658,-0.85456,-0.921201255,0.332457645,-0.160216875
1764763202.4827013,-5.55464,1.26658,-0.85456,-0.921201255,0.332457645,-0.160216875
1764763202.4827013,-5.55464,1.26658,-0.85456,-0.921201255,0.332457645,-0.160216875
1764763202.5259638,-5.55464,1.26658,-0.85456,-0.921201255,0.332457645,-0.160216875
1764763202.5259638,-5.55464,1.26658,-0.85456,-0.921201255,0.332457645,-0.160216875
1764763202.5259638,-4.92898,1.2055399999999998,-1.0682,-0.922055745,0.33349524,-0.160216875
1764763202.5259638,-4.92898,1.2055399999999998,-1.0682,-0.922055745,0.33349524,-0.160216875
1764763202.5259638,-4.92898,1.2055399999999998,-1.0682,-0.922055745,0.33349524,-0.160216875
1764763202.5259638,-4.92898,1.2055399999999998,-1.0682,-0.922055745,0.33349524,-0.160216875
1764763202.5259638,-4.92898,1.2055399999999998,-1.0682,-0.922055745,0.33349524,-0.160216875
1764763202.5259638,-4.92898,1.2055399999999998,-1.0682,-0.922055745,0.33349524,-0.160216875
1764763202.5259638,-4.92898,1.2055399999999998,-1.0682,-0.922055745,0.33349524,-0.160216875
1764763202.5259638,-4.92898,1.2055399999999998,-1.0682,-0.922055745,0.33349524,-0.160216875
1764763202.5259638,-4.92898,1.2055399999999998,-1.0682,-0.922055745,0.33349524,-0.160216875
