Timestamp,GyroX,GyroY,GyroZ,AccX,AccY,AccZ
1764764603.1879833,-1.49548,4.1202,0.3815,-0.88427508,0.306578805,-0.34411533
1764764603.1879833,-1.49548,4.1202,0.3815,-0.88427508,0.306578805,-0.34411533
1764764603.1879833,-1.49548,4.1202,0.3815,-0.88427508,0.306578805,-0.34411533
1764764603.1879833,-1.49548,4.1202,0.3815,-0.88427508,0.306578805,-0.34411533
1764764603.1879833,-1.49548,4.1202,0.3815,-0.88427508,0.306578805,-0.34411533
1764764603.1879833,-1.49548,4.1202,0.3815,-0.88427508,0.306578805,-0.34411533
1764764603.1879833,-1.49548,4.1202,0.3815,-0.88427508,0.306578805,-0.34411533
1764764603.1879833,-1.49548,4.1202,0.3815,-0.88427508,0.306578805,-0.34411533
1764764603.1879833,-1.49548,4.1202,0.3815,-0.88427508,0.306578805,-0.34411533
1764764603.1879833,-1.49548,4.1202,0.3815,-0.88427508,0.306578805,-0.34411533
1764764603.1879833,-0.93086,3.76922,0.01526,-0.8839699050000001,0.304869825,-0.34313877
1764764603.1879833,-0.93086,3.76922,0.01526,-0.8839699050000001,0.304869825,-0.34313877
1764764603.1879833,-0.93086,3.76922,0.01526,-0.8839699050000001,0.304869825,-0.34313877
1764764603.1879833,-0.93086,3.76922,0.01526,-0.8839699050000001,0.304869825,-0.34313877
1764764603.1879833,-0.93086,3.76922,0.01526,-0.8839699050000001,0.304869825,-0.34313877
1764764603.1879833,-0.93086,3.76922,0.01526,-0.8839699050000001,0.304869825,-0.34313877
1764764603.1879833,-0.93086,3.76922,0.01526,-0.8839699050000001,0.304869825,-0.34313877
1764764603.1879833,-0.93086,3.76922,0.01526,-0.8839699050000001,0.304869825,-0.34313877
1764764603.1879833,-0.93086,3.76922,0.01526,-0.8839699050000001,0.304869825,-0.34313877
1764764603.1879833,-0.93086,3.76922,0.01526,-0.8839699050000001,0.304869825,-0.34313877
1764764603.1879833,0.8392999999999999,4.01338,1.23606,-0.886411305,0.30078048,-0.34374912
1764764603.1879833,0.8392999999999999,4.01338,1.23606,-0.886411305,0.30078048,-0.34374912
1764764603.1879833,0.8392999999999999,4.01338,1.23606,-0.886411305,0.30078048,-0.34374912
1764764603.1879833,0.8392999999999999,4.01338,1.23606,-0.886411305,0.30078048,-0.34374912
1764764603.2308784,0.8392999999999999,4.01338,1.23606,-0.886411305,0.30078048,-0.34374912
1764764603.2318916,0.8392999999999999,4.01338,1.23606,-0.886411305,0.30078048,-0.34374912
1764764603.2318916,0.8392999999999999,4.01338,1.23606,-0.886411305,0.30078048,-0.34374912
1764764603.2318916,0.8392999999999999,4.01338,1.23606,-0.886411305,0.30078048,-0.34374912
1764764603.2318916,0.8392999999999999,4.01338,1.23606,-0.886411305,0.30078048,-0.34374912
1764764603.2318916,0.8392999999999999,4.01338,1.23606,-0.886411305,0.30078048,-0.34374912
1764764603.2318916,1.19028,3.63188,1.28184,-0.88647234,0.301085655,-0.344542575
1764764603.2318916,1.19028,3.63188,1.28184,-0.88647234,0.301085655,-0.344542575
1764764603.2318916,1.19028,3.63188,1.28184,-0.88647234,0.301085655,-0.344542575
1764764603.2318916,1.19028,3.63188,1.28184,-0.88647234,0.301085655,-0.344542575
1764764603.2318916,1.19028,3.63188,1.28184,-0.88647234,0.301085655,-0.344542575
1764764603.2318916,1.19028,3.63188,1.28184,-0.88647234,0.301085655,-0.344542575
1764764603.2318916,1.19028,3.63188,1.28184,-0.88647234,0.301085655,-0.344542575
1764764603.2318916,1.19028,3.63188,1.28184,-0.88647234,0.301085655,-0.344542575
1764764603.2318916,1.19028,3.63188,1.28184,-0.88647234,0.301085655,-0.344542575
1764764603.2318916,1.19028,3.63188,1.28184,-0.88647234,0.301085655,-0.344542575
1764764603.2318916,0.36624,3.60136,0.8698199999999999,-0.88573992,0.30163497,-0.345763275
1764764603.2318916,0.36624,3.60136,0.8698199999999999,-0.88573992,0.30163497,-0.345763275
1764764603.2318916,0.36624,3.60136,0.8698199999999999,-0.88573992,0.30163497,-0.345763275
1764764603.2318916,0.36624,3.60136,0.8698199999999999,-0.88573992,0.30163497,-0.345763275
1764764603.2318916,0.36624,3.60136,0.8698199999999999,-0.88573992,0.30163497,-0.345763275
1764764603.2318916,0.36624,3.60136,0.8698199999999999,-0.88573992,0.30163497,-0.345763275
1764764603.2318916,0.36624,3.60136,0.8698199999999999,-0.88573992,0.30163497,-0.345763275
1764764603.2318916,0.36624,3.60136,0.8698199999999999,-0.88573992,0.30163497,-0.345763275
1764764603.2787158,0.36624,3.60136,0.8698199999999999,-0.88573992,0.30163497,-0.345763275
1764764603.2787158,0.36624,3.60136,0.8698199999999999,-0.88573992,0.30163497,-0.345763275
1764764603.2787158,0.47306,2.8231,0.8087799999999999,-0.88537371,0.301451865,-0.346495695
1764764603.2787158,0.47306,2.8231,0.8087799999999999,-0.88537371,0.301451865,-0.346495695
1764764603.2787158,0.47306,2.8231,0.8087799999999999,-0.88537371,0.301451865,-0.346495695
1764764603.2787158,0.47306,2.8231,0.8087799999999999,-0.88537371,0.301451865,-0.346495695
1764764603.2787158,0.47306,2.8231,0.8087799999999999,-0.88537371,0.301451865,-0.346495695
1764764603.2787158,0.47306,2.8231,0.8087799999999999,-0.88537371,0.301451865,-0.346495695
1764764603.2787158,0.47306,2.8231,0.8087799999999999,-0.88537371,0.301451865,-0.346495695
1764764603.2787158,0.47306,2.8231,0.8087799999999999,-0.88537371,0.301451865,-0.346495695
1764764603.2787158,0.47306,2.8231,0.8087799999999999,-0.88537371,0.301451865,-0.346495695
1764764603.2787158,0.47306,2.8231,0.8087799999999999,-0.88537371,0.301451865,-0.346495695
1764764603.2787158,1.19028,2.80784,0.39676,-0.884824395,0.300963585,-0.345885345
1764764603.2787158,1.19028,2.80784,0.39676,-0.884824395,0.300963585,-0.345885345
1764764603.2787158,1.19028,2.80784,0.39676,-0.884824395,0.300963585,-0.345885345
1764764603.2787158,1.19028,2.80784,0.39676,-0.884824395,0.300963585,-0.345885345
1764764603.2787158,1.19028,2.80784,0.39676,-0.884824395,0.300963585,-0.345885345
1764764603.2787158,1.19028,2.80784,0.39676,-0.884824395,0.300963585,-0.345885345
1764764603.2787158,1.19028,2.80784,0.39676,-0.884824395,0.300963585,-0.345885345
1764764603.2787158,1.19028,2.80784,0.39676,-0.884824395,0.300963585,-0.345885345
1764764603.2787158,1.19028,2.80784,0.39676,-0.884824395,0.300963585,-0.345885345
1764764603.2787158,1.19028,2.80784,0.39676,-0.884824395,0.300963585,-0.345885345
1764764603.2787158,0.65618,3.15882,1.4497,-0.88573992,0.30139083,-0.34533603
1764764603.2787158,0.65618,3.15882,1.4497,-0.88573992,0.30139083,-0.34533603
1764764603.3261168,0.65618,3.15882,1.4497,-0.88573992,0.30139083,-0.34533603
1764764603.3261168,0.65618,3.15882,1.4497,-0.88573992,0.30139083,-0.34533603
1764764603.3261168,0.65618,3.15882,1.4497,-0.88573992,0.30139083,-0.34533603
1764764603.3261168,0.65618,3.15882,1.4497,-0.88573992,0.30139083,-0.34533603
1764764603.3261168,0.65618,3.15882,1.4497,-0.88573992,0.30139083,-0.34533603
1764764603.3261168,0.65618,3.15882,1.4497,-0.88573992,0.30139083,-0.34533603
1764764603.3261168,0.65618,3.15882,1.4497,-0.88573992,0.30139083,-0.34533603
1764764603.3261168,0.65618,3.15882,1.4497,-0.88573992,0.30139083,-0.34533603
1764764603.3261168,-0.2289,3.17408,1.2971,-0.88464129,0.302062215,-0.34509189
1764764603.3261168,-0.2289,3.17408,1.2971,-0.88464129,0.302062215,-0.34509189
1764764603.3261168,-0.2289,3.17408,1.2971,-0.88464129,0.302062215,-0.34509189
1764764603.3261168,-0.2289,3.17408,1.2971,-0.88464129,0.302062215,-0.34509189
1764764603.3261168,-0.2289,3.17408,1.2971,-0.88464129,0.302062215,-0.34509189
1764764603.3271327,-0.2289,3.17408,1.2971,-0.88464129,0.302062215,-0.34509189
1764764603.3271327,-0.2289,3.17408,1.2971,-0.88464129,0.302062215,-0.34509189
1764764603.3271327,-0.2289,3.17408,1.2971,-0.88464129,0.302062215,-0.34509189
1764764603.3271327,-0.2289,3.17408,1.2971,-0.88464129,0.302062215,-0.34509189
1764764603.3271327,-0.2289,3.17408,1.2971,-0.88464129,0.302062215,-0.34509189
1764764603.3271327,-0.71722,3.5861,0.25942,-0.883847835,0.30346602,-0.344298435
1764764603.3271327,-0.71722,3.5861,0.25942,-0.883847835,0.30346602,-0.344298435
1764764603.37304,-0.71722,3.5861,0.25942,-0.883847835,0.30346602,-0.344298435
1764764603.37304,-0.71722,3.5861,0.25942,-0.883847835,0.30346602,-0.344298435
1764764603.37304,-0.71722,3.5861,0.25942,-0.883847835,0.30346602,-0.344298435
1764764603.37304,-0.71722,3.5861,0.25942,-0.883847835,0.30346602,-0.344298435
1764764603.37304,-0.71722,3.5861,0.25942,-0.883847835,0.30346602,-0.344298435
1764764603.37304,-0.71722,3.5861,0.25942,-0.883847835,0.30346602,-0.344298435
1764764603.37304,-0.71722,3.5861,0.25942,-0.883847835,0.30346602,-0.344298435
1764764603.37304,-0.71722,3.5861,0.25942,-0.883847835,0.30346602,-0.344298435
1764764603.37304,-0.8087799999999999,3.69292,0.5341,-0.883481625,0.303038775,-0.344420505
1764764603.37304,-0.8087799999999999,3.69292,0.5341,-0.883481625,0.303038775,-0.344420505
1764764603.37304,-0.8087799999999999,3.69292,0.5341,-0.883481625,0.303038775,-0.344420505
1764764603.37304,-0.8087799999999999,3.69292,0.5341,-0.883481625,0.303038775,-0.344420505
1764764603.37304,-0.8087799999999999,3.69292,0.5341,-0.883481625,0.303038775,-0.344420505
1764764603.37304,-0.8087799999999999,3.69292,0.5341,-0.883481625,0.303038775,-0.344420505
1764764603.37304,-0.8087799999999999,3.69292,0.5341,-0.883481625,0.303038775,-0.344420505
1764764603.37304,-0.8087799999999999,3.69292,0.5341,-0.883481625,0.303038775,-0.344420505
1764764603.37304,-0.8087799999999999,3.69292,0.5341,-0.883481625,0.303038775,-0.344420505
1764764603.37304,-0.8087799999999999,3.69292,0.5341,-0.883481625,0.303038775,-0.344420505
1764764603.37304,-0.24416,3.5861,0.763,-0.8844581850000001,0.302428425,-0.34472568
1764764603.37304,-0.24416,3.5861,0.763,-0.8844581850000001,0.302428425,-0.34472568
1764764603.37304,-0.24416,3.5861,0.763,-0.8844581850000001,0.302428425,-0.34472568
1764764603.373547,-0.24416,3.5861,0.763,-0.8844581850000001,0.302428425,-0.34472568
1764764603.373547,-0.24416,3.5861,0.763,-0.8844581850000001,0.302428425,-0.34472568
1764764603.373547,-0.24416,3.5861,0.763,-0.8844581850000001,0.302428425,-0.34472568
1764764603.4197867,-0.24416,3.5861,0.763,-0.8844581850000001,0.302428425,-0.34472568
1764764603.4197867,-0.24416,3.5861,0.763,-0.8844581850000001,0.302428425,-0.34472568
1764764603.4197867,-0.24416,3.5861,0.763,-0.8844581850000001,0.302428425,-0.34472568
1764764603.4197867,-0.24416,3.5861,0.763,-0.8844581850000001,0.302428425,-0.34472568
1764764603.4197867,-0.27468,3.6624,0.6409199999999999,-0.884702325,0.30297774,-0.345397065
1764764603.4197867,-0.27468,3.6624,0.6409199999999999,-0.884702325,0.30297774,-0.345397065
1764764603.4197867,-0.27468,3.6624,0.6409199999999999,-0.884702325,0.30297774,-0.345397065
1764764603.4197867,-0.27468,3.6624,0.6409199999999999,-0.884702325,0.30297774,-0.345397065
1764764603.4197867,-0.27468,3.6624,0.6409199999999999,-0.884702325,0.30297774,-0.345397065
1764764603.4197867,-0.27468,3.6624,0.6409199999999999,-0.884702325,0.30297774,-0.345397065
1764764603.4197867,-0.27468,3.6624,0.6409199999999999,-0.884702325,0.30297774,-0.345397065
1764764603.4197867,-0.27468,3.6624,0.6409199999999999,-0.884702325,0.30297774,-0.345397065
1764764603.4197867,-0.27468,3.6624,0.6409199999999999,-0.884702325,0.30297774,-0.345397065
1764764603.4197867,-0.27468,3.6624,0.6409199999999999,-0.884702325,0.30297774,-0.345397065
1764764603.4197867,-0.3815,3.72344,0.50358,-0.884580255,0.30480879,-0.34582431
1764764603.4197867,-0.3815,3.72344,0.50358,-0.884580255,0.30480879,-0.34582431
1764764603.4197867,-0.3815,3.72344,0.50358,-0.884580255,0.30480879,-0.34582431
1764764603.4197867,-0.3815,3.72344,0.50358,-0.884580255,0.30480879,-0.34582431
1764764603.4197867,-0.3815,3.72344,0.50358,-0.884580255,0.30480879,-0.34582431
1764764603.4197867,-0.3815,3.72344,0.50358,-0.884580255,0.30480879,-0.34582431
1764764603.4197867,-0.3815,3.72344,0.50358,-0.884580255,0.30480879,-0.34582431
1764764603.4197867,-0.3815,3.72344,0.50358,-0.884580255,0.30480879,-0.34582431
1764764603.4665492,-0.3815,3.72344,0.50358,-0.884580255,0.30480879,-0.34582431
1764764603.4665492,-0.3815,3.72344,0.50358,-0.884580255,0.30480879,-0.34582431
1764764603.4665492,-0.82404,3.98286,0.42728,-0.8839088700000001,0.306334665,-0.344542575
1764764603.4665492,-0.82404,3.98286,0.42728,-0.8839088700000001,0.306334665,-0.344542575
1764764603.4665492,-0.82404,3.98286,0.42728,-0.8839088700000001,0.306334665,-0.344542575
1764764603.4671428,-0.82404,3.98286,0.42728,-0.8839088700000001,0.306334665,-0.344542575
1764764603.4671428,-0.82404,3.98286,0.42728,-0.8839088700000001,0.306334665,-0.344542575
1764764603.4671428,-0.82404,3.98286,0.42728,-0.8839088700000001,0.306334665,-0.344542575
1764764603.4671428,-0.82404,3.98286,0.42728,-0.8839088700000001,0.306334665,-0.344542575
1764764603.4671428,-0.82404,3.98286,0.42728,-0.8839088700000001,0.306334665,-0.344542575
1764764603.4671428,-0.82404,3.98286,0.42728,-0.8839088700000001,0.306334665,-0.344542575
1764764603.4671428,-0.82404,3.98286,0.42728,-0.8839088700000001,0.306334665,-0.344542575
1764764603.4671428,-1.51074,4.15072,1.11398,-0.884091975,0.305175,-0.34460361
1764764603.4671428,-1.51074,4.15072,1.11398,-0.884091975,0.305175,-0.34460361
1764764603.4671428,-1.51074,4.15072,1.11398,-0.884091975,0.305175,-0.34460361
1764764603.4671428,-1.51074,4.15072,1.11398,-0.884091975,0.305175,-0.34460361
1764764603.4671428,-1.51074,4.15072,1.11398,-0.884091975,0.305175,-0.34460361
1764764603.4671428,-1.51074,4.15072,1.11398,-0.884091975,0.305175,-0.34460361
1764764603.4671428,-1.51074,4.15072,1.11398,-0.884091975,0.305175,-0.34460361
1764764603.4671428,-1.51074,4.15072,1.11398,-0.884091975,0.305175,-0.34460361
1764764603.4671428,-1.51074,4.15072,1.11398,-0.884091975,0.305175,-0.34460361
1764764603.4671428,-1.51074,4.15072,1.11398,-0.884091975,0.305175,-0.34460361
1764764603.4671428,-0.6714399999999999,4.36436,0.6103999999999999,-0.883481625,0.303038775,-0.34387119
1764764603.4671428,-0.6714399999999999,4.36436,0.6103999999999999,-0.883481625,0.303038775,-0.34387119
1764764603.4671428,-0.6714399999999999,4.36436,0.6103999999999999,-0.883481625,0.303038775,-0.34387119
1764764603.4671428,-0.6714399999999999,4.36436,0.6103999999999999,-0.883481625,0.303038775,-0.34387119
1764764603.5138943,-0.6714399999999999,4.36436,0.6103999999999999,-0.883481625,0.303038775,-0.34387119
1764764603.5138943,-0.6714399999999999,4.36436,0.6103999999999999,-0.883481625,0.303038775,-0.34387119
1764764603.5138943,-0.6714399999999999,4.36436,0.6103999999999999,-0.883481625,0.303038775,-0.34387119
1764764603.5138943,-0.6714399999999999,4.36436,0.6103999999999999,-0.883481625,0.303038775,-0.34387119
1764764603.5138943,-0.6714399999999999,4.36436,0.6103999999999999,-0.883481625,0.303038775,-0.34387119
1764764603.5138943,-0.6714399999999999,4.36436,0.6103999999999999,-0.883481625,0.303038775,-0.34387119
1764764603.5138943,0.18312,3.69292,-0.03052,-0.8837868,0.300719445,-0.34362705
1764764603.5138943,0.18312,3.69292,-0.03052,-0.8837868,0.300719445,-0.34362705
1764764603.5138943,0.18312,3.69292,-0.03052,-0.8837868,0.300719445,-0.34362705
1764764603.5138943,0.18312,3.69292,-0.03052,-0.8837868,0.300719445,-0.34362705
1764764603.5138943,0.18312,3.69292,-0.03052,-0.8837868,0.300719445,-0.34362705
1764764603.5138943,0.18312,3.69292,-0.03052,-0.8837868,0.300719445,-0.34362705
1764764603.5138943,0.18312,3.69292,-0.03052,-0.8837868,0.300719445,-0.34362705
1764764603.5138943,0.18312,3.69292,-0.03052,-0.8837868,0.300719445,-0.34362705
1764764603.5138943,0.18312,3.69292,-0.03052,-0.8837868,0.300719445,-0.34362705
1764764603.5138943,0.18312,3.69292,-0.03052,-0.8837868,0.300719445,-0.34362705
1764764603.5138943,0.0,3.78448,0.59514,-0.885434745,0.30200118,-0.345152925
1764764603.5138943,0.0,3.78448,0.59514,-0.885434745,0.30200118,-0.345152925
1764764603.5138943,0.0,3.78448,0.59514,-0.885434745,0.30200118,-0.345152925
1764764603.5138943,0.0,3.78448,0.59514,-0.885434745,0.30200118,-0.345152925
1764764603.5138943,0.0,3.78448,0.59514,-0.885434745,0.30200118,-0.345152925
1764764603.5138943,0.0,3.78448,0.59514,-0.885434745,0.30200118,-0.345152925
1764764603.5138943,0.0,3.78448,0.59514,-0.885434745,0.30200118,-0.345152925
1764764603.5138943,0.0,3.78448,0.59514,-0.885434745,0.30200118,-0.345152925
1764764603.56102,0.0,3.78448,0.59514,-0.885434745,0.30200118,-0.345152925
1764764603.56102,0.0,3.78448,0.59514,-0.885434745,0.30200118,-0.345152925
1764764603.56102,-1.46496,4.45592,1.3734,-0.885923025,0.303404985,-0.3466788
1764764603.56102,-1.46496,4.45592,1.3734,-0.885923025,0.303404985,-0.3466788
1764764603.56102,-1.46496,4.45592,1.3734,-0.885923025,0.303404985,-0.3466788
1764764603.56102,-1.46496,4.45592,1.3734,-0.885923025,0.303404985,-0.3466788
1764764603.56102,-1.46496,4.45592,1.3734,-0.885923025,0.303404985,-0.3466788
1764764603.56102,-1.46496,4.45592,1.3734,-0.885923025,0.303404985,-0.3466788
1764764603.56102,-1.46496,4.45592,1.3734,-0.885923025,0.303404985,-0.3466788
1764764603.561528,-1.46496,4.45592,1.3734,-0.885923025,0.303404985,-0.3466788
1764764603.561528,-1.46496,4.45592,1.3734,-0.885923025,0.303404985,-0.3466788
1764764603.561528,-1.46496,4.45592,1.3734,-0.885923025,0.303404985,-0.3466788
1764764603.561528,-1.4497,4.59326,1.0682,-0.885556815,0.302428425,-0.346373625
1764764603.561528,-1.4497,4.59326,1.0682,-0.885556815,0.302428425,-0.346373625
1764764603.561528,-1.4497,4.59326,1.0682,-0.885556815,0.302428425,-0.346373625
1764764603.561528,-1.4497,4.59326,1.0682,-0.885556815,0.302428425,-0.346373625
1764764603.561528,-1.4497,4.59326,1.0682,-0.885556815,0.302428425,-0.346373625
1764764603.561528,-1.4497,4.59326,1.0682,-0.885556815,0.302428425,-0.346373625
1764764603.561528,-1.4497,4.59326,1.0682,-0.885556815,0.302428425,-0.346373625
1764764603.561528,-1.4497,4.59326,1.0682,-0.885556815,0.302428425,-0.346373625
1764764603.561528,-1.4497,4.59326,1.0682,-0.885556815,0.302428425,-0.346373625
1764764603.561528,-1.4497,4.59326,1.0682,-0.885556815,0.302428425,-0.346373625
1764764603.6081696,0.4578,3.69292,0.39676,-0.8834205900000001,0.3002922,-0.343810155
1764764603.6081696,0.4578,3.69292,0.39676,-0.8834205900000001,0.3002922,-0.343810155
1764764603.6081696,0.4578,3.69292,0.39676,-0.8834205900000001,0.3002922,-0.343810155
1764764603.6081696,0.4578,3.69292,0.39676,-0.8834205900000001,0.3002922,-0.343810155
1764764603.6081696,0.4578,3.69292,0.39676,-0.8834205900000001,0.3002922,-0.343810155
1764764603.6081696,0.4578,3.69292,0.39676,-0.8834205900000001,0.3002922,-0.343810155
1764764603.6081696,0.4578,3.69292,0.39676,-0.8834205900000001,0.3002922,-0.343810155
1764764603.6081696,0.4578,3.69292,0.39676,-0.8834205900000001,0.3002922,-0.343810155
1764764603.6081696,0.4578,3.69292,0.39676,-0.8834205900000001,0.3002922,-0.343810155
1764764603.6081696,0.4578,3.69292,0.39676,-0.8834205900000001,0.3002922,-0.343810155
1764764603.6081696,2.289,3.61662,-0.4578,-0.881894715,0.299498745,-0.34313877
1764764603.6091752,2.289,3.61662,-0.4578,-0.881894715,0.299498745,-0.34313877
1764764603.6091752,2.289,3.61662,-0.4578,-0.881894715,0.299498745,-0.34313877
1764764603.6091752,2.289,3.61662,-0.4578,-0.881894715,0.299498745,-0.34313877
1764764603.6091752,2.289,3.61662,-0.4578,-0.881894715,0.299498745,-0.34313877
1764764603.6091752,2.289,3.61662,-0.4578,-0.881894715,0.299498745,-0.34313877
1764764603.6091752,2.289,3.61662,-0.4578,-0.881894715,0.299498745,-0.34313877
1764764603.6091752,2.289,3.61662,-0.4578,-0.881894715,0.299498745,-0.34313877
1764764603.6091752,2.289,3.61662,-0.4578,-0.881894715,0.299498745,-0.34313877
1764764603.6091752,2.289,3.61662,-0.4578,-0.881894715,0.299498745,-0.34313877
1764764603.6091752,3.11304,3.14356,0.2289,-0.8828712750000001,0.301329795,-0.34350498
1764764603.6091752,3.11304,3.14356,0.2289,-0.8828712750000001,0.301329795,-0.34350498
1764764603.6518295,3.11304,3.14356,0.2289,-0.8828712750000001,0.301329795,-0.34350498
1764764603.6518295,3.11304,3.14356,0.2289,-0.8828712750000001,0.301329795,-0.34350498
1764764603.6518295,3.11304,3.14356,0.2289,-0.8828712750000001,0.301329795,-0.34350498
1764764603.6518295,3.11304,3.14356,0.2289,-0.8828712750000001,0.301329795,-0.34350498
1764764603.6518295,3.11304,3.14356,0.2289,-0.8828712750000001,0.301329795,-0.34350498
1764764603.6518295,3.11304,3.14356,0.2289,-0.8828712750000001,0.301329795,-0.34350498
1764764603.6518295,3.11304,3.14356,0.2289,-0.8828712750000001,0.301329795,-0.34350498
1764764603.6518295,3.11304,3.14356,0.2289,-0.8828712750000001,0.301329795,-0.34350498
1764764603.6518295,2.88414,3.60136,0.6867,-0.884702325,0.303038775,-0.34350498
1764764603.6518295,2.88414,3.60136,0.6867,-0.884702325,0.303038775,-0.34350498
1764764603.6518295,2.88414,3.60136,0.6867,-0.884702325,0.303038775,-0.34350498
1764764603.6518295,2.88414,3.60136,0.6867,-0.884702325,0.303038775,-0.34350498
1764764603.6518295,2.88414,3.60136,0.6867,-0.884702325,0.303038775,-0.34350498
1764764603.6518295,2.88414,3.60136,0.6867,-0.884702325,0.303038775,-0.34350498
1764764603.6518295,2.88414,3.60136,0.6867,-0.884702325,0.303038775,-0.34350498
1764764603.6518295,2.88414,3.60136,0.6867,-0.884702325,0.303038775,-0.34350498
1764764603.6518295,2.88414,3.60136,0.6867,-0.884702325,0.303038775,-0.34350498
1764764603.6518295,2.88414,3.60136,0.6867,-0.884702325,0.303038775,-0.34350498
1764764603.6518295,3.02148,4.08968,1.31236,-0.8860450950000001,0.303527055,-0.34521396
1764764603.6518295,3.02148,4.08968,1.31236,-0.8860450950000001,0.303527055,-0.34521396
1764764603.6518295,3.02148,4.08968,1.31236,-0.8860450950000001,0.303527055,-0.34521396
1764764603.6518295,3.02148,4.08968,1.31236,-0.8860450950000001,0.303527055,-0.34521396
1764764603.6518295,3.02148,4.08968,1.31236,-0.8860450950000001,0.303527055,-0.34521396
1764764603.6518295,3.02148,4.08968,1.31236,-0.8860450950000001,0.303527055,-0.34521396
1764764603.6982498,3.02148,4.08968,1.31236,-0.8860450950000001,0.303527055,-0.34521396
1764764603.6982498,3.02148,4.08968,1.31236,-0.8860450950000001,0.303527055,-0.34521396
1764764603.6982498,3.02148,4.08968,1.31236,-0.8860450950000001,0.303527055,-0.34521396
1764764603.6982498,3.02148,4.08968,1.31236,-0.8860450950000001,0.303527055,-0.34521396
1764764603.6982498,3.34194,4.28806,1.38866,-0.88488543,0.303160845,-0.34619052
1764764603.6982498,3.34194,4.28806,1.38866,-0.88488543,0.303160845,-0.34619052
1764764603.6982498,3.34194,4.28806,1.38866,-0.88488543,0.303160845,-0.34619052
1764764603.6982498,3.34194,4.28806,1.38866,-0.88488543,0.303160845,-0.34619052
1764764603.6982498,3.34194,4.28806,1.38866,-0.88488543,0.303160845,-0.34619052
1764764603.6982498,3.34194,4.28806,1.38866,-0.88488543,0.303160845,-0.34619052
1764764603.6982498,3.34194,4.28806,1.38866,-0.88488543,0.303160845,-0.34619052
1764764603.699768,3.34194,4.28806,1.38866,-0.88488543,0.303160845,-0.34619052
1764764603.699768,3.34194,4.28806,1.38866,-0.88488543,0.303160845,-0.34619052
1764764603.699768,3.34194,4.28806,1.38866,-0.88488543,0.303160845,-0.34619052
1764764603.699768,1.69386,2.8994,1.2971,-0.88476336,0.30322188,-0.34704501
1764764603.699768,1.69386,2.8994,1.2971,-0.88476336,0.30322188,-0.34704501
1764764603.699768,1.69386,2.8994,1.2971,-0.88476336,0.30322188,-0.34704501
1764764603.699768,1.69386,2.8994,1.2971,-0.88476336,0.30322188,-0.34704501
1764764603.699768,1.69386,2.8994,1.2971,-0.88476336,0.30322188,-0.34704501
1764764603.699768,1.69386,2.8994,1.2971,-0.88476336,0.30322188,-0.34704501
1764764603.699768,1.69386,2.8994,1.2971,-0.88476336,0.30322188,-0.34704501
1764764603.699768,1.69386,2.8994,1.2971,-0.88476336,0.30322188,-0.34704501
1764764603.7465398,1.69386,2.8994,1.2971,-0.88476336,0.30322188,-0.34704501
1764764603.7465398,1.69386,2.8994,1.2971,-0.88476336,0.30322188,-0.34704501
1764764603.7465398,-0.1678599999999999,3.34194,0.6867,-0.883725765,0.302916705,-0.34765536
1764764603.7465398,-0.1678599999999999,3.34194,0.6867,-0.883725765,0.302916705,-0.34765536
1764764603.7465398,-0.1678599999999999,3.34194,0.6867,-0.883725765,0.302916705,-0.34765536
1764764603.7465398,-0.1678599999999999,3.34194,0.6867,-0.883725765,0.302916705,-0.34765536
1764764603.7465398,-0.1678599999999999,3.34194,0.6867,-0.883725765,0.302916705,-0.34765536
1764764603.7465398,-0.1678599999999999,3.34194,0.6867,-0.883725765,0.302916705,-0.34765536
1764764603.7465398,-0.1678599999999999,3.34194,0.6867,-0.883725765,0.302916705,-0.34765536
1764764603.7465398,-0.1678599999999999,3.34194,0.6867,-0.883725765,0.302916705,-0.34765536
1764764603.7465398,-0.1678599999999999,3.34194,0.6867,-0.883725765,0.302916705,-0.34765536
1764764603.7465398,-0.1678599999999999,3.34194,0.6867,-0.883725765,0.302916705,-0.34765536
1764764603.7465398,-1.4039199999999998,2.83836,0.25942,-0.884580255,0.30297774,-0.348204675
1764764603.7465398,-1.4039199999999998,2.83836,0.25942,-0.884580255,0.30297774,-0.348204675
1764764603.7465398,-1.4039199999999998,2.83836,0.25942,-0.884580255,0.30297774,-0.348204675
1764764603.7465398,-1.4039199999999998,2.83836,0.25942,-0.884580255,0.30297774,-0.348204675
1764764603.7465398,-1.4039199999999998,2.83836,0.25942,-0.884580255,0.30297774,-0.348204675
1764764603.7465398,-1.4039199999999998,2.83836,0.25942,-0.884580255,0.30297774,-0.348204675
1764764603.7465398,-1.4039199999999998,2.83836,0.25942,-0.884580255,0.30297774,-0.348204675
1764764603.7465398,-1.4039199999999998,2.83836,0.25942,-0.884580255,0.30297774,-0.348204675
1764764603.7465398,-1.4039199999999998,2.83836,0.25942,-0.884580255,0.30297774,-0.348204675
1764764603.7465398,-1.4039199999999998,2.83836,0.25942,-0.884580255,0.30297774,-0.348204675
1764764603.7465398,-2.01432,3.47928,-0.03052,-0.8844581850000001,0.30346602,-0.34753329
1764764603.7465398,-2.01432,3.47928,-0.03052,-0.8844581850000001,0.30346602,-0.34753329
1764764603.7465398,-2.01432,3.47928,-0.03052,-0.8844581850000001,0.30346602,-0.34753329
1764764603.7465398,-2.01432,3.47928,-0.03052,-0.8844581850000001,0.30346602,-0.34753329
1764764603.793166,-2.01432,3.47928,-0.03052,-0.8844581850000001,0.30346602,-0.34753329
1764764603.793166,-2.01432,3.47928,-0.03052,-0.8844581850000001,0.30346602,-0.34753329
1764764603.793166,-2.01432,3.47928,-0.03052,-0.8844581850000001,0.30346602,-0.34753329
1764764603.793166,-2.01432,3.47928,-0.03052,-0.8844581850000001,0.30346602,-0.34753329
1764764603.793166,-2.01432,3.47928,-0.03052,-0.8844581850000001,0.30346602,-0.34753329
1764764603.793166,-2.01432,3.47928,-0.03052,-0.8844581850000001,0.30346602,-0.34753329
1764764603.793166,-1.63282,3.7387,0.3509799999999999,-0.883847835,0.304137405,-0.346007415
1764764603.793166,-1.63282,3.7387,0.3509799999999999,-0.883847835,0.304137405,-0.346007415
1764764603.793166,-1.63282,3.7387,0.3509799999999999,-0.883847835,0.304137405,-0.346007415
1764764603.793166,-1.63282,3.7387,0.3509799999999999,-0.883847835,0.304137405,-0.346007415
1764764603.793166,-1.63282,3.7387,0.3509799999999999,-0.883847835,0.304137405,-0.346007415
1764764603.793166,-1.63282,3.7387,0.3509799999999999,-0.883847835,0.304137405,-0.346007415
1764764603.793166,-1.63282,3.7387,0.3509799999999999,-0.883847835,0.304137405,-0.346007415
1764764603.793166,-1.63282,3.7387,0.3509799999999999,-0.883847835,0.304137405,-0.346007415
1764764603.793166,-1.63282,3.7387,0.3509799999999999,-0.883847835,0.304137405,-0.346007415
1764764603.793166,-1.63282,3.7387,0.3509799999999999,-0.883847835,0.304137405,-0.346007415
1764764603.793166,-1.31236,3.92182,-0.04578,-0.8834205900000001,0.304137405,-0.344786715
1764764603.793166,-1.31236,3.92182,-0.04578,-0.8834205900000001,0.304137405,-0.344786715
1764764603.793166,-1.31236,3.92182,-0.04578,-0.8834205900000001,0.304137405,-0.344786715
1764764603.793166,-1.31236,3.92182,-0.04578,-0.8834205900000001,0.304137405,-0.344786715
1764764603.7941718,-1.31236,3.92182,-0.04578,-0.8834205900000001,0.304137405,-0.344786715
1764764603.7941718,-1.31236,3.92182,-0.04578,-0.8834205900000001,0.304137405,-0.344786715
1764764603.7941718,-1.31236,3.92182,-0.04578,-0.8834205900000001,0.304137405,-0.344786715
1764764603.7941718,-1.31236,3.92182,-0.04578,-0.8834205900000001,0.304137405,-0.344786715
1764764603.8400688,-1.31236,3.92182,-0.04578,-0.8834205900000001,0.304137405,-0.344786715
1764764603.8400688,-1.31236,3.92182,-0.04578,-0.8834205900000001,0.304137405,-0.344786715
1764764603.8400688,-0.27468,3.64714,0.06104,-0.883481625,0.30285567,-0.345519135
1764764603.8400688,-0.27468,3.64714,0.06104,-0.883481625,0.30285567,-0.345519135
1764764603.8400688,-0.27468,3.64714,0.06104,-0.883481625,0.30285567,-0.345519135
1764764603.8400688,-0.27468,3.64714,0.06104,-0.883481625,0.30285567,-0.345519135
1764764603.8400688,-0.27468,3.64714,0.06104,-0.883481625,0.30285567,-0.345519135
1764764603.8400688,-0.27468,3.64714,0.06104,-0.883481625,0.30285567,-0.345519135
1764764603.8400688,-0.27468,3.64714,0.06104,-0.883481625,0.30285567,-0.345519135
1764764603.8400688,-0.27468,3.64714,0.06104,-0.883481625,0.30285567,-0.345519135
1764764603.8400688,-0.27468,3.64714,0.06104,-0.883481625,0.30285567,-0.345519135
1764764603.8400688,-0.27468,3.64714,0.06104,-0.883481625,0.30285567,-0.345519135
1764764603.8400688,0.01526,3.55558,0.4578,-0.8844581850000001,0.301818075,-0.346129485
1764764603.8400688,0.01526,3.55558,0.4578,-0.8844581850000001,0.301818075,-0.346129485
1764764603.8400688,0.01526,3.55558,0.4578,-0.8844581850000001,0.301818075,-0.346129485
1764764603.8400688,0.01526,3.55558,0.4578,-0.8844581850000001,0.301818075,-0.346129485
1764764603.8400688,0.01526,3.55558,0.4578,-0.8844581850000001,0.301818075,-0.346129485
1764764603.8400688,0.01526,3.55558,0.4578,-0.8844581850000001,0.301818075,-0.346129485
1764764603.8400688,0.01526,3.55558,0.4578,-0.8844581850000001,0.301818075,-0.346129485
1764764603.8400688,0.01526,3.55558,0.4578,-0.8844581850000001,0.301818075,-0.346129485
1764764603.8400688,0.01526,3.55558,0.4578,-0.8844581850000001,0.301818075,-0.346129485
1764764603.8410764,0.01526,3.55558,0.4578,-0.8844581850000001,0.301818075,-0.346129485
1764764603.8842497,-0.42728,3.84552,0.44254,-0.8844581850000001,0.302062215,-0.346495695
1764764603.8842497,-0.42728,3.84552,0.44254,-0.8844581850000001,0.302062215,-0.346495695
1764764603.8842497,-0.42728,3.84552,0.44254,-0.8844581850000001,0.302062215,-0.346495695
1764764603.8842497,-0.42728,3.84552,0.44254,-0.8844581850000001,0.302062215,-0.346495695
1764764603.8842497,-0.42728,3.84552,0.44254,-0.8844581850000001,0.302062215,-0.346495695
1764764603.8842497,-0.42728,3.84552,0.44254,-0.8844581850000001,0.302062215,-0.346495695
1764764603.8842497,-0.42728,3.84552,0.44254,-0.8844581850000001,0.302062215,-0.346495695
1764764603.8842497,-0.42728,3.84552,0.44254,-0.8844581850000001,0.302062215,-0.346495695
1764764603.8842497,-0.42728,3.84552,0.44254,-0.8844581850000001,0.302062215,-0.346495695
1764764603.8842497,-0.42728,3.84552,0.44254,-0.8844581850000001,0.302062215,-0.346495695
1764764603.8842497,-0.96138,3.72344,0.1678599999999999,-0.88415301,0.30285567,-0.346617765
1764764603.8842497,-0.96138,3.72344,0.1678599999999999,-0.88415301,0.30285567,-0.346617765
1764764603.8842497,-0.96138,3.72344,0.1678599999999999,-0.88415301,0.30285567,-0.346617765
1764764603.8842497,-0.96138,3.72344,0.1678599999999999,-0.88415301,0.30285567,-0.346617765
1764764603.8842497,-0.96138,3.72344,0.1678599999999999,-0.88415301,0.30285567,-0.346617765
1764764603.8842497,-0.96138,3.72344,0.1678599999999999,-0.88415301,0.30285567,-0.346617765
1764764603.8842497,-0.96138,3.72344,0.1678599999999999,-0.88415301,0.30285567,-0.346617765
1764764603.8842497,-0.96138,3.72344,0.1678599999999999,-0.88415301,0.30285567,-0.346617765
1764764603.8842497,-0.96138,3.72344,0.1678599999999999,-0.88415301,0.30285567,-0.346617765
1764764603.8842497,-0.96138,3.72344,0.1678599999999999,-0.88415301,0.30285567,-0.346617765
1764764603.8842497,-0.74774,3.86078,0.48832,-0.884336115,0.302794635,-0.345274995
1764764603.8842497,-0.74774,3.86078,0.48832,-0.884336115,0.302794635,-0.345274995
1764764603.9311402,-0.74774,3.86078,0.48832,-0.884336115,0.302794635,-0.345274995
1764764603.9311402,-0.74774,3.86078,0.48832,-0.884336115,0.302794635,-0.345274995
1764764603.9311402,-0.74774,3.86078,0.48832,-0.884336115,0.302794635,-0.345274995
1764764603.9311402,-0.74774,3.86078,0.48832,-0.884336115,0.302794635,-0.345274995
1764764603.9311402,-0.74774,3.86078,0.48832,-0.884336115,0.302794635,-0.345274995
1764764603.9311402,-0.74774,3.86078,0.48832,-0.884336115,0.302794635,-0.345274995
1764764603.9311402,-0.74774,3.86078,0.48832,-0.884336115,0.302794635,-0.345274995
1764764603.9311402,-0.74774,3.86078,0.48832,-0.884336115,0.302794635,-0.345274995
1764764603.9311402,-0.7019599999999999,3.86078,0.65618,-0.8844581850000001,0.301940145,-0.34484775
1764764603.9311402,-0.7019599999999999,3.86078,0.65618,-0.8844581850000001,0.301940145,-0.34484775
1764764603.9311402,-0.7019599999999999,3.86078,0.65618,-0.8844581850000001,0.301940145,-0.34484775
1764764603.9311402,-0.7019599999999999,3.86078,0.65618,-0.8844581850000001,0.301940145,-0.34484775
1764764603.9311402,-0.7019599999999999,3.86078,0.65618,-0.8844581850000001,0.301940145,-0.34484775
1764764603.9311402,-0.7019599999999999,3.86078,0.65618,-0.8844581850000001,0.301940145,-0.34484775
1764764603.9311402,-0.7019599999999999,3.86078,0.65618,-0.8844581850000001,0.301940145,-0.34484775
1764764603.9311402,-0.7019599999999999,3.86078,0.65618,-0.8844581850000001,0.301940145,-0.34484775
1764764603.9311402,-0.7019599999999999,3.86078,0.65618,-0.8844581850000001,0.301940145,-0.34484775
1764764603.9311402,-0.7019599999999999,3.86078,0.65618,-0.8844581850000001,0.301940145,-0.34484775
1764764603.9311402,-0.10682,4.07442,1.26658,-0.88512957,0.30114669,-0.34448154
1764764603.932394,-0.10682,4.07442,1.26658,-0.88512957,0.30114669,-0.34448154
1764764603.932394,-0.10682,4.07442,1.26658,-0.88512957,0.30114669,-0.34448154
1764764603.932394,-0.10682,4.07442,1.26658,-0.88512957,0.30114669,-0.34448154
1764764603.932394,-0.10682,4.07442,1.26658,-0.88512957,0.30114669,-0.34448154
1764764603.932394,-0.10682,4.07442,1.26658,-0.88512957,0.30114669,-0.34448154
1764764603.9779456,-0.10682,4.07442,1.26658,-0.88512957,0.30114669,-0.34448154
1764764603.9779456,-0.10682,4.07442,1.26658,-0.88512957,0.30114669,-0.34448154
1764764603.9779456,-0.10682,4.07442,1.26658,-0.88512957,0.30114669,-0.34448154
1764764603.9779456,-0.10682,4.07442,1.26658,-0.88512957,0.30114669,-0.34448154
1764764603.9779456,0.13734,3.69292,0.6714399999999999,-0.8850075000000001,0.30126876,-0.34435947
1764764603.9779456,0.13734,3.69292,0.6714399999999999,-0.8850075000000001,0.30126876,-0.34435947
1764764603.9779456,0.13734,3.69292,0.6714399999999999,-0.8850075000000001,0.30126876,-0.34435947
1764764603.9779456,0.13734,3.69292,0.6714399999999999,-0.8850075000000001,0.30126876,-0.34435947
1764764603.9779456,0.13734,3.69292,0.6714399999999999,-0.8850075000000001,0.30126876,-0.34435947
1764764603.9779456,0.13734,3.69292,0.6714399999999999,-0.8850075000000001,0.30126876,-0.34435947
1764764603.9779456,0.13734,3.69292,0.6714399999999999,-0.8850075000000001,0.30126876,-0.34435947
1764764603.9779456,0.13734,3.69292,0.6714399999999999,-0.8850075000000001,0.30126876,-0.34435947
1764764603.9779456,0.13734,3.69292,0.6714399999999999,-0.8850075000000001,0.30126876,-0.34435947
1764764603.9779456,0.13734,3.69292,0.6714399999999999,-0.8850075000000001,0.30126876,-0.34435947
1764764603.9779456,0.41202,4.1202,1.25132,-0.884702325,0.302062215,-0.344420505
1764764603.9779456,0.41202,4.1202,1.25132,-0.884702325,0.302062215,-0.344420505
1764764603.9779456,0.41202,4.1202,1.25132,-0.884702325,0.302062215,-0.344420505
1764764603.9779456,0.41202,4.1202,1.25132,-0.884702325,0.302062215,-0.344420505
1764764603.9779456,0.41202,4.1202,1.25132,-0.884702325,0.302062215,-0.344420505
1764764603.9779456,0.41202,4.1202,1.25132,-0.884702325,0.302062215,-0.344420505
1764764603.9779456,0.41202,4.1202,1.25132,-0.884702325,0.302062215,-0.344420505
1764764603.9779456,0.41202,4.1202,1.25132,-0.884702325,0.302062215,-0.344420505
1764764604.0243154,0.41202,4.1202,1.25132,-0.884702325,0.302062215,-0.344420505
1764764604.0243154,0.41202,4.1202,1.25132,-0.884702325,0.302062215,-0.344420505
1764764604.0243154,-0.09156,3.84552,1.526,-0.884580255,0.30334395,-0.34533603
1764764604.0243154,-0.09156,3.84552,1.526,-0.884580255,0.30334395,-0.34533603
1764764604.0243154,-0.09156,3.84552,1.526,-0.884580255,0.30334395,-0.34533603
1764764604.0243154,-0.09156,3.84552,1.526,-0.884580255,0.30334395,-0.34533603
1764764604.0243154,-0.09156,3.84552,1.526,-0.884580255,0.30334395,-0.34533603
1764764604.0243154,-0.09156,3.84552,1.526,-0.884580255,0.30334395,-0.34533603
1764764604.0243154,-0.09156,3.84552,1.526,-0.884580255,0.30334395,-0.34533603
1764764604.0243154,-0.09156,3.84552,1.526,-0.884580255,0.30334395,-0.34533603
1764764604.0243154,-0.09156,3.84552,1.526,-0.884580255,0.30334395,-0.34533603
1764764604.0243154,-0.09156,3.84552,1.526,-0.884580255,0.30334395,-0.34533603
1764764604.0243154,-0.3815,3.86078,1.23606,-0.884336115,0.303160845,-0.34594638
1764764604.0243154,-0.3815,3.86078,1.23606,-0.884336115,0.303160845,-0.34594638
1764764604.0243154,-0.3815,3.86078,1.23606,-0.884336115,0.303160845,-0.34594638
1764764604.0243154,-0.3815,3.86078,1.23606,-0.884336115,0.303160845,-0.34594638
1764764604.0243154,-0.3815,3.86078,1.23606,-0.884336115,0.303160845,-0.34594638
1764764604.025364,-0.3815,3.86078,1.23606,-0.884336115,0.303160845,-0.34594638
1764764604.025364,-0.3815,3.86078,1.23606,-0.884336115,0.303160845,-0.34594638
1764764604.0261548,-0.3815,3.86078,1.23606,-0.884336115,0.303160845,-0.34594638
1764764604.0261548,-0.3815,3.86078,1.23606,-0.884336115,0.303160845,-0.34594638
1764764604.0261548,-0.3815,3.86078,1.23606,-0.884336115,0.303160845,-0.34594638
1764764604.0261548,-0.57988,3.9676,0.93086,-0.884580255,0.30334395,-0.34606845
1764764604.0261548,-0.57988,3.9676,0.93086,-0.884580255,0.30334395,-0.34606845
1764764604.0261548,-0.57988,3.9676,0.93086,-0.884580255,0.30334395,-0.34606845
1764764604.0261548,-0.57988,3.9676,0.93086,-0.884580255,0.30334395,-0.34606845
1764764604.072204,-0.57988,3.9676,0.93086,-0.884580255,0.30334395,-0.34606845
1764764604.072204,-0.57988,3.9676,0.93086,-0.884580255,0.30334395,-0.34606845
1764764604.072204,-0.57988,3.9676,0.93086,-0.884580255,0.30334395,-0.34606845
1764764604.072204,-0.57988,3.9676,0.93086,-0.884580255,0.30334395,-0.34606845
1764764604.0732098,-0.57988,3.9676,0.93086,-0.884580255,0.30334395,-0.34606845
1764764604.0732098,-0.57988,3.9676,0.93086,-0.884580255,0.30334395,-0.34606845
1764764604.0732098,-0.39676,3.3572,1.03768,-0.8837868,0.302672565,-0.34655673
1764764604.0732098,-0.39676,3.3572,1.03768,-0.8837868,0.302672565,-0.34655673
1764764604.0732098,-0.39676,3.3572,1.03768,-0.8837868,0.302672565,-0.34655673
1764764604.0732098,-0.39676,3.3572,1.03768,-0.8837868,0.302672565,-0.34655673
1764764604.0732098,-0.39676,3.3572,1.03768,-0.8837868,0.302672565,-0.34655673
1764764604.0732098,-0.39676,3.3572,1.03768,-0.8837868,0.302672565,-0.34655673
1764764604.0732098,-0.39676,3.3572,1.03768,-0.8837868,0.302672565,-0.34655673
1764764604.0732098,-0.39676,3.3572,1.03768,-0.8837868,0.302672565,-0.34655673
1764764604.0732098,-0.39676,3.3572,1.03768,-0.8837868,0.302672565,-0.34655673
1764764604.0732098,-0.39676,3.3572,1.03768,-0.8837868,0.302672565,-0.34655673
1764764604.0732098,-0.59514,3.25038,0.0762999999999999,-0.883359555,0.30163497,-0.347106045
1764764604.0732098,-0.59514,3.25038,0.0762999999999999,-0.883359555,0.30163497,-0.347106045
1764764604.0732098,-0.59514,3.25038,0.0762999999999999,-0.883359555,0.30163497,-0.347106045
1764764604.0732098,-0.59514,3.25038,0.0762999999999999,-0.883359555,0.30163497,-0.347106045
1764764604.0732098,-0.59514,3.25038,0.0762999999999999,-0.883359555,0.30163497,-0.347106045
1764764604.0732098,-0.59514,3.25038,0.0762999999999999,-0.883359555,0.30163497,-0.347106045
1764764604.1163173,-0.59514,3.25038,0.0762999999999999,-0.883359555,0.30163497,-0.347106045
1764764604.1163173,-0.59514,3.25038,0.0762999999999999,-0.883359555,0.30163497,-0.347106045
1764764604.1163173,-0.59514,3.25038,0.0762999999999999,-0.883359555,0.30163497,-0.347106045
1764764604.1163173,-0.59514,3.25038,0.0762999999999999,-0.883359555,0.30163497,-0.347106045
1764764604.1163173,-0.93086,3.34194,0.27468,-0.8844581850000001,0.30212325,-0.34704501
1764764604.1163173,-0.93086,3.34194,0.27468,-0.8844581850000001,0.30212325,-0.34704501
1764764604.1163173,-0.93086,3.34194,0.27468,-0.8844581850000001,0.30212325,-0.34704501
1764764604.1163173,-0.93086,3.34194,0.27468,-0.8844581850000001,0.30212325,-0.34704501
1764764604.1163173,-0.93086,3.34194,0.27468,-0.8844581850000001,0.30212325,-0.34704501
1764764604.1163173,-0.93086,3.34194,0.27468,-0.8844581850000001,0.30212325,-0.34704501
1764764604.1163173,-0.93086,3.34194,0.27468,-0.8844581850000001,0.30212325,-0.34704501
1764764604.1163173,-0.93086,3.34194,0.27468,-0.8844581850000001,0.30212325,-0.34704501
1764764604.1163173,-0.93086,3.34194,0.27468,-0.8844581850000001,0.30212325,-0.34704501
1764764604.1163173,-0.93086,3.34194,0.27468,-0.8844581850000001,0.30212325,-0.34704501
1764764604.1163173,-0.88508,3.70818,1.0682,-0.88537371,0.30261153,-0.347106045
1764764604.1163173,-0.88508,3.70818,1.0682,-0.88537371,0.30261153,-0.347106045
1764764604.1163173,-0.88508,3.70818,1.0682,-0.88537371,0.30261153,-0.347106045
1764764604.1163173,-0.88508,3.70818,1.0682,-0.88537371,0.30261153,-0.347106045
1764764604.1163173,-0.88508,3.70818,1.0682,-0.88537371,0.30261153,-0.347106045
1764764604.1163173,-0.88508,3.70818,1.0682,-0.88537371,0.30261153,-0.347106045
1764764604.1163173,-0.88508,3.70818,1.0682,-0.88537371,0.30261153,-0.347106045
1764764604.1163173,-0.88508,3.70818,1.0682,-0.88537371,0.30261153,-0.347106045
1764764604.1628227,-0.88508,3.70818,1.0682,-0.88537371,0.30261153,-0.347106045
1764764604.1628227,-0.88508,3.70818,1.0682,-0.88537371,0.30261153,-0.347106045
1764764604.1628227,-1.6786,3.99812,1.31236,-0.88537371,0.30432051,-0.346983975
1764764604.1628227,-1.6786,3.99812,1.31236,-0.88537371,0.30432051,-0.346983975
1764764604.1628227,-1.6786,3.99812,1.31236,-0.88537371,0.30432051,-0.346983975
1764764604.1628227,-1.6786,3.99812,1.31236,-0.88537371,0.30432051,-0.346983975
1764764604.1628227,-1.6786,3.99812,1.31236,-0.88537371,0.30432051,-0.346983975
1764764604.1628227,-1.6786,3.99812,1.31236,-0.88537371,0.30432051,-0.346983975
1764764604.1628227,-1.6786,3.99812,1.31236,-0.88537371,0.30432051,-0.346983975
1764764604.1628227,-1.6786,3.99812,1.31236,-0.88537371,0.30432051,-0.346983975
1764764604.1628227,-1.6786,3.99812,1.31236,-0.88537371,0.30432051,-0.346983975
1764764604.1628227,-1.6786,3.99812,1.31236,-0.88537371,0.30432051,-0.346983975
1764764604.1628227,-2.15166,2.85362,0.28994,-0.883847835,0.303160845,-0.3466788
1764764604.1628227,-2.15166,2.85362,0.28994,-0.883847835,0.303160845,-0.3466788
1764764604.1628227,-2.15166,2.85362,0.28994,-0.883847835,0.303160845,-0.3466788
1764764604.1628227,-2.15166,2.85362,0.28994,-0.883847835,0.303160845,-0.3466788
1764764604.1628227,-2.15166,2.85362,0.28994,-0.883847835,0.303160845,-0.3466788
1764764604.1628227,-2.15166,2.85362,0.28994,-0.883847835,0.303160845,-0.3466788
1764764604.1628227,-2.15166,2.85362,0.28994,-0.883847835,0.303160845,-0.3466788
1764764604.1628227,-2.15166,2.85362,0.28994,-0.883847835,0.303160845,-0.3466788
1764764604.1628227,-2.15166,2.85362,0.28994,-0.883847835,0.303160845,-0.3466788
1764764604.1628227,-2.15166,2.85362,0.28994,-0.883847835,0.303160845,-0.3466788
1764764604.1628227,-2.10588,3.21986,0.42728,-0.88293231,0.301573935,-0.346373625
1764764604.1628227,-2.10588,3.21986,0.42728,-0.88293231,0.301573935,-0.346373625
1764764604.209123,-2.10588,3.21986,0.42728,-0.88293231,0.301573935,-0.346373625
1764764604.209123,-2.10588,3.21986,0.42728,-0.88293231,0.301573935,-0.346373625
1764764604.209123,-2.10588,3.21986,0.42728,-0.88293231,0.301573935,-0.346373625
1764764604.209123,-2.10588,3.21986,0.42728,-0.88293231,0.301573935,-0.346373625
1764764604.209123,-2.10588,3.21986,0.42728,-0.88293231,0.301573935,-0.346373625
1764764604.209123,-2.10588,3.21986,0.42728,-0.88293231,0.301573935,-0.346373625
1764764604.209123,-2.10588,3.21986,0.42728,-0.88293231,0.301573935,-0.346373625
1764764604.209123,-2.10588,3.21986,0.42728,-0.88293231,0.301573935,-0.346373625
1764764604.209123,-1.69386,3.64714,0.25942,-0.882749205,0.30200118,-0.345397065
1764764604.209123,-1.69386,3.64714,0.25942,-0.882749205,0.30200118,-0.345397065
1764764604.209123,-1.69386,3.64714,0.25942,-0.882749205,0.30200118,-0.345397065
1764764604.209123,-1.69386,3.64714,0.25942,-0.882749205,0.30200118,-0.345397065
1764764604.209123,-1.69386,3.64714,0.25942,-0.882749205,0.30200118,-0.345397065
1764764604.209123,-1.69386,3.64714,0.25942,-0.882749205,0.30200118,-0.345397065
1764764604.209123,-1.69386,3.64714,0.25942,-0.882749205,0.30200118,-0.345397065
1764764604.209123,-1.69386,3.64714,0.25942,-0.882749205,0.30200118,-0.345397065
1764764604.209123,-1.69386,3.64714,0.25942,-0.882749205,0.30200118,-0.345397065
1764764604.209123,-1.69386,3.64714,0.25942,-0.882749205,0.30200118,-0.345397065
1764764604.209123,-2.38056,3.75396,0.41202,-0.88281024,0.303282915,-0.344420505
1764764604.209123,-2.38056,3.75396,0.41202,-0.88281024,0.303282915,-0.344420505
1764764604.209123,-2.38056,3.75396,0.41202,-0.88281024,0.303282915,-0.344420505
1764764604.209123,-2.38056,3.75396,0.41202,-0.88281024,0.303282915,-0.344420505
1764764604.2557082,-2.38056,3.75396,0.41202,-0.88281024,0.303282915,-0.344420505
1764764604.2557082,-2.38056,3.75396,0.41202,-0.88281024,0.303282915,-0.344420505
1764764604.2557082,-2.38056,3.75396,0.41202,-0.88281024,0.303282915,-0.344420505
1764764604.2557082,-2.38056,3.75396,0.41202,-0.88281024,0.303282915,-0.344420505
1764764604.2557082,-2.38056,3.75396,0.41202,-0.88281024,0.303282915,-0.344420505
1764764604.2557082,-2.38056,3.75396,0.41202,-0.88281024,0.303282915,-0.344420505
1764764604.2557082,-1.93802,4.08968,0.12208,-0.88305438,0.30309981,-0.344542575
1764764604.2557082,-1.93802,4.08968,0.12208,-0.88305438,0.30309981,-0.344542575
1764764604.2557082,-1.93802,4.08968,0.12208,-0.88305438,0.30309981,-0.344542575
1764764604.2557082,-1.93802,4.08968,0.12208,-0.88305438,0.30309981,-0.344542575
1764764604.2557082,-1.93802,4.08968,0.12208,-0.88305438,0.30309981,-0.344542575
1764764604.2557082,-1.93802,4.08968,0.12208,-0.88305438,0.30309981,-0.344542575
1764764604.2567248,-1.93802,4.08968,0.12208,-0.88305438,0.30309981,-0.344542575
1764764604.2567248,-1.93802,4.08968,0.12208,-0.88305438,0.30309981,-0.344542575
1764764604.2567248,-1.93802,4.08968,0.12208,-0.88305438,0.30309981,-0.344542575
1764764604.2567248,-1.93802,4.08968,0.12208,-0.88305438,0.30309981,-0.344542575
1764764604.2567248,-1.2208,3.92182,0.06104,-0.88403094,0.302550495,-0.344786715
1764764604.2567248,-1.2208,3.92182,0.06104,-0.88403094,0.302550495,-0.344786715
1764764604.2567248,-1.2208,3.92182,0.06104,-0.88403094,0.302550495,-0.344786715
1764764604.2567248,-1.2208,3.92182,0.06104,-0.88403094,0.302550495,-0.344786715
1764764604.2567248,-1.2208,3.92182,0.06104,-0.88403094,0.302550495,-0.344786715
1764764604.2567248,-1.2208,3.92182,0.06104,-0.88403094,0.302550495,-0.344786715
1764764604.2567248,-1.2208,3.92182,0.06104,-0.88403094,0.302550495,-0.344786715
1764764604.2567248,-1.2208,3.92182,0.06104,-0.88403094,0.302550495,-0.344786715
1764764604.2567248,-1.2208,3.92182,0.06104,-0.88403094,0.302550495,-0.344786715
1764764604.2567248,-1.2208,3.92182,0.06104,-0.88403094,0.302550495,-0.344786715
1764764604.303353,-1.2971,3.21986,0.7019599999999999,-0.884580255,0.302794635,-0.346007415
1764764604.303353,-1.2971,3.21986,0.7019599999999999,-0.884580255,0.302794635,-0.346007415
1764764604.303353,-1.2971,3.21986,0.7019599999999999,-0.884580255,0.302794635,-0.346007415
1764764604.303353,-1.2971,3.21986,0.7019599999999999,-0.884580255,0.302794635,-0.346007415
1764764604.303353,-1.2971,3.21986,0.7019599999999999,-0.884580255,0.302794635,-0.346007415
1764764604.303353,-1.2971,3.21986,0.7019599999999999,-0.884580255,0.302794635,-0.346007415
1764764604.303353,-1.2971,3.21986,0.7019599999999999,-0.884580255,0.302794635,-0.346007415
1764764604.303353,-1.2971,3.21986,0.7019599999999999,-0.884580255,0.302794635,-0.346007415
1764764604.303353,-1.2971,3.21986,0.7019599999999999,-0.884580255,0.302794635,-0.346007415
1764764604.303353,-1.2971,3.21986,0.7019599999999999,-0.884580255,0.302794635,-0.346007415
1764764604.303353,-2.16692,3.5861,0.19838,-0.8839088700000001,0.30285567,-0.346251555
1764764604.303353,-2.16692,3.5861,0.19838,-0.8839088700000001,0.30285567,-0.346251555
1764764604.303353,-2.16692,3.5861,0.19838,-0.8839088700000001,0.30285567,-0.346251555
1764764604.303353,-2.16692,3.5861,0.19838,-0.8839088700000001,0.30285567,-0.346251555
1764764604.303353,-2.16692,3.5861,0.19838,-0.8839088700000001,0.30285567,-0.346251555
1764764604.303353,-2.16692,3.5861,0.19838,-0.8839088700000001,0.30285567,-0.346251555
1764764604.303353,-2.16692,3.5861,0.19838,-0.8839088700000001,0.30285567,-0.346251555
1764764604.303353,-2.16692,3.5861,0.19838,-0.8839088700000001,0.30285567,-0.346251555
1764764604.303353,-2.16692,3.5861,0.19838,-0.8839088700000001,0.30285567,-0.346251555
1764764604.303353,-2.16692,3.5861,0.19838,-0.8839088700000001,0.30285567,-0.346251555
1764764604.303353,-2.63998,3.14356,0.19838,-0.88439715,0.30334395,-0.345519135
1764764604.303353,-2.63998,3.14356,0.19838,-0.88439715,0.30334395,-0.345519135
1764764604.3502133,-2.63998,3.14356,0.19838,-0.88439715,0.30334395,-0.345519135
1764764604.3502133,-2.63998,3.14356,0.19838,-0.88439715,0.30334395,-0.345519135
1764764604.3502133,-2.63998,3.14356,0.19838,-0.88439715,0.30334395,-0.345519135
1764764604.3502133,-2.63998,3.14356,0.19838,-0.88439715,0.30334395,-0.345519135
1764764604.3502133,-2.63998,3.14356,0.19838,-0.88439715,0.30334395,-0.345519135
1764764604.3502133,-2.63998,3.14356,0.19838,-0.88439715,0.30334395,-0.345519135
1764764604.3502133,-2.63998,3.14356,0.19838,-0.88439715,0.30334395,-0.345519135
1764764604.3502133,-2.63998,3.14356,0.19838,-0.88439715,0.30334395,-0.345519135
1764764604.3502133,-2.39582,3.41824,0.41202,-0.8844581850000001,0.3027336,-0.3442374
1764764604.3502133,-2.39582,3.41824,0.41202,-0.8844581850000001,0.3027336,-0.3442374
1764764604.3502133,-2.39582,3.41824,0.41202,-0.8844581850000001,0.3027336,-0.3442374
1764764604.3502133,-2.39582,3.41824,0.41202,-0.8844581850000001,0.3027336,-0.3442374
1764764604.3502133,-2.39582,3.41824,0.41202,-0.8844581850000001,0.3027336,-0.3442374
1764764604.3502133,-2.39582,3.41824,0.41202,-0.8844581850000001,0.3027336,-0.3442374
1764764604.3502133,-2.39582,3.41824,0.41202,-0.8844581850000001,0.3027336,-0.3442374
1764764604.3502133,-2.39582,3.41824,0.41202,-0.8844581850000001,0.3027336,-0.3442374
1764764604.3502133,-2.39582,3.41824,0.41202,-0.8844581850000001,0.3027336,-0.3442374
1764764604.3502133,-2.39582,3.41824,0.41202,-0.8844581850000001,0.3027336,-0.3442374
1764764604.3502133,-1.6633399999999998,3.44876,0.62566,-0.884336115,0.303282915,-0.342589455
1764764604.3502133,-1.6633399999999998,3.44876,0.62566,-0.884336115,0.303282915,-0.342589455
1764764604.3502133,-1.6633399999999998,3.44876,0.62566,-0.884336115,0.303282915,-0.342589455
1764764604.3502133,-1.6633399999999998,3.44876,0.62566,-0.884336115,0.303282915,-0.342589455
1764764604.396618,-1.6633399999999998,3.44876,0.62566,-0.884336115,0.303282915,-0.342589455
1764764604.396618,-1.6633399999999998,3.44876,0.62566,-0.884336115,0.303282915,-0.342589455
1764764604.396618,-1.6633399999999998,3.44876,0.62566,-0.884336115,0.303282915,-0.342589455
1764764604.396618,-1.6633399999999998,3.44876,0.62566,-0.884336115,0.303282915,-0.342589455
1764764604.396618,-1.6633399999999998,3.44876,0.62566,-0.884336115,0.303282915,-0.342589455
1764764604.396618,-1.6633399999999998,3.44876,0.62566,-0.884336115,0.303282915,-0.342589455
1764764604.396618,-1.09872,3.37246,0.7019599999999999,-0.884824395,0.301940145,-0.342833595
1764764604.396618,-1.09872,3.37246,0.7019599999999999,-0.884824395,0.301940145,-0.342833595
1764764604.396618,-1.09872,3.37246,0.7019599999999999,-0.884824395,0.301940145,-0.342833595
1764764604.396618,-1.09872,3.37246,0.7019599999999999,-0.884824395,0.301940145,-0.342833595
1764764604.396618,-1.09872,3.37246,0.7019599999999999,-0.884824395,0.301940145,-0.342833595
1764764604.396618,-1.09872,3.37246,0.7019599999999999,-0.884824395,0.301940145,-0.342833595
1764764604.396618,-1.09872,3.37246,0.7019599999999999,-0.884824395,0.301940145,-0.342833595
1764764604.396618,-1.09872,3.37246,0.7019599999999999,-0.884824395,0.301940145,-0.342833595
1764764604.396618,-1.09872,3.37246,0.7019599999999999,-0.884824395,0.301940145,-0.342833595
1764764604.396618,-1.09872,3.37246,0.7019599999999999,-0.884824395,0.301940145,-0.342833595
1764764604.396618,-0.9003399999999999,3.54032,0.8392999999999999,-0.884091975,0.30224532,-0.34362705
1764764604.396618,-0.9003399999999999,3.54032,0.8392999999999999,-0.884091975,0.30224532,-0.34362705
1764764604.396618,-0.9003399999999999,3.54032,0.8392999999999999,-0.884091975,0.30224532,-0.34362705
1764764604.396618,-0.9003399999999999,3.54032,0.8392999999999999,-0.884091975,0.30224532,-0.34362705
1764764604.396618,-0.9003399999999999,3.54032,0.8392999999999999,-0.884091975,0.30224532,-0.34362705
1764764604.396618,-0.9003399999999999,3.54032,0.8392999999999999,-0.884091975,0.30224532,-0.34362705
1764764604.396618,-0.9003399999999999,3.54032,0.8392999999999999,-0.884091975,0.30224532,-0.34362705
1764764604.396618,-0.9003399999999999,3.54032,0.8392999999999999,-0.884091975,0.30224532,-0.34362705
1764764604.440076,-0.9003399999999999,3.54032,0.8392999999999999,-0.884091975,0.30224532,-0.34362705
1764764604.440076,-0.9003399999999999,3.54032,0.8392999999999999,-0.884091975,0.30224532,-0.34362705
1764764604.440076,-0.7019599999999999,3.23512,0.73248,-0.88427508,0.303404985,-0.344542575
1764764604.4410915,-0.7019599999999999,3.23512,0.73248,-0.88427508,0.303404985,-0.344542575
1764764604.4410915,-0.7019599999999999,3.23512,0.73248,-0.88427508,0.303404985,-0.344542575
1764764604.4410915,-0.7019599999999999,3.23512,0.73248,-0.88427508,0.303404985,-0.344542575
1764764604.4410915,-0.7019599999999999,3.23512,0.73248,-0.88427508,0.303404985,-0.344542575
1764764604.4410915,-0.7019599999999999,3.23512,0.73248,-0.88427508,0.303404985,-0.344542575
1764764604.4410915,-0.7019599999999999,3.23512,0.73248,-0.88427508,0.303404985,-0.344542575
1764764604.4410915,-0.7019599999999999,3.23512,0.73248,-0.88427508,0.303404985,-0.344542575
1764764604.4410915,-0.7019599999999999,3.23512,0.73248,-0.88427508,0.303404985,-0.344542575
1764764604.4410915,-0.7019599999999999,3.23512,0.73248,-0.88427508,0.303404985,-0.344542575
1764764604.4410915,-1.58704,3.17408,0.56462,-0.884946465,0.303893265,-0.34484775
1764764604.4410915,-1.58704,3.17408,0.56462,-0.884946465,0.303893265,-0.34484775
1764764604.4410915,-1.58704,3.17408,0.56462,-0.884946465,0.303893265,-0.34484775
1764764604.4410915,-1.58704,3.17408,0.56462,-0.884946465,0.303893265,-0.34484775
1764764604.4410915,-1.58704,3.17408,0.56462,-0.884946465,0.303893265,-0.34484775
1764764604.4410915,-1.58704,3.17408,0.56462,-0.884946465,0.303893265,-0.34484775
1764764604.4410915,-1.58704,3.17408,0.56462,-0.884946465,0.303893265,-0.34484775
1764764604.4410915,-1.58704,3.17408,0.56462,-0.884946465,0.303893265,-0.34484775
1764764604.4410915,-1.58704,3.17408,0.56462,-0.884946465,0.303893265,-0.34484775
1764764604.4410915,-1.58704,3.17408,0.56462,-0.884946465,0.303893265,-0.34484775
1764764604.490609,-1.2208,3.4335,0.85456,-0.885923025,0.30322188,-0.344908785
1764764604.490609,-1.2208,3.4335,0.85456,-0.885923025,0.30322188,-0.344908785
1764764604.490609,-1.2208,3.4335,0.85456,-0.885923025,0.30322188,-0.344908785
1764764604.490609,-1.2208,3.4335,0.85456,-0.885923025,0.30322188,-0.344908785
1764764604.490609,-1.2208,3.4335,0.85456,-0.885923025,0.30322188,-0.344908785
1764764604.490609,-1.2208,3.4335,0.85456,-0.885923025,0.30322188,-0.344908785
1764764604.490609,-1.2208,3.4335,0.85456,-0.885923025,0.30322188,-0.344908785
1764764604.491125,-1.2208,3.4335,0.85456,-0.885923025,0.30322188,-0.344908785
1764764604.491125,-1.2208,3.4335,0.85456,-0.885923025,0.30322188,-0.344908785
1764764604.491125,-1.2208,3.4335,0.85456,-0.885923025,0.30322188,-0.344908785
1764764604.491125,-0.51884,3.09778,0.47306,-0.8862282,0.303282915,-0.344786715
1764764604.491125,-0.51884,3.09778,0.47306,-0.8862282,0.303282915,-0.344786715
1764764604.491125,-0.51884,3.09778,0.47306,-0.8862282,0.303282915,-0.344786715
1764764604.491125,-0.51884,3.09778,0.47306,-0.8862282,0.303282915,-0.344786715
1764764604.491125,-0.51884,3.09778,0.47306,-0.8862282,0.303282915,-0.344786715
1764764604.491125,-0.51884,3.09778,0.47306,-0.8862282,0.303282915,-0.344786715
1764764604.491125,-0.51884,3.09778,0.47306,-0.8862282,0.303282915,-0.344786715
1764764604.491125,-0.51884,3.09778,0.47306,-0.8862282,0.303282915,-0.344786715
1764764604.491125,-0.51884,3.09778,0.47306,-0.8862282,0.303282915,-0.344786715
1764764604.491125,-0.51884,3.09778,0.47306,-0.8862282,0.303282915,-0.344786715
1764764604.491125,-1.1445,3.00622,0.9156,-0.8850075000000001,0.30383223,-0.344298435
1764764604.491125,-1.1445,3.00622,0.9156,-0.8850075000000001,0.30383223,-0.344298435
1764764604.491125,-1.1445,3.00622,0.9156,-0.8850075000000001,0.30383223,-0.344298435
1764764604.491125,-1.1445,3.00622,0.9156,-0.8850075000000001,0.30383223,-0.344298435
1764764604.5373025,-1.1445,3.00622,0.9156,-0.8850075000000001,0.30383223,-0.344298435
1764764604.5373025,-1.1445,3.00622,0.9156,-0.8850075000000001,0.30383223,-0.344298435
1764764604.5373025,-1.1445,3.00622,0.9156,-0.8850075000000001,0.30383223,-0.344298435
1764764604.5383143,-1.1445,3.00622,0.9156,-0.8850075000000001,0.30383223,-0.344298435
1764764604.5383143,-1.1445,3.00622,0.9156,-0.8850075000000001,0.30383223,-0.344298435
1764764604.5383143,-1.1445,3.00622,0.9156,-0.8850075000000001,0.30383223,-0.344298435
1764764604.5383143,-2.01432,2.94518,0.44254,-0.88427508,0.30358809,-0.34411533
1764764604.5383143,-2.01432,2.94518,0.44254,-0.88427508,0.30358809,-0.34411533
1764764604.5383143,-2.01432,2.94518,0.44254,-0.88427508,0.30358809,-0.34411533
1764764604.5383143,-2.01432,2.94518,0.44254,-0.88427508,0.30358809,-0.34411533
1764764604.5383143,-2.01432,2.94518,0.44254,-0.88427508,0.30358809,-0.34411533
1764764604.5383143,-2.01432,2.94518,0.44254,-0.88427508,0.30358809,-0.34411533
1764764604.5383143,-2.01432,2.94518,0.44254,-0.88427508,0.30358809,-0.34411533
1764764604.5383143,-2.01432,2.94518,0.44254,-0.88427508,0.30358809,-0.34411533
1764764604.5383143,-2.01432,2.94518,0.44254,-0.88427508,0.30358809,-0.34411533
1764764604.5383143,-2.01432,2.94518,0.44254,-0.88427508,0.30358809,-0.34411533
1764764604.5383143,-2.7468,2.41108,0.51884,-0.884580255,0.3039543,-0.343932225
1764764604.5383143,-2.7468,2.41108,0.51884,-0.884580255,0.3039543,-0.343932225
1764764604.5383143,-2.7468,2.41108,0.51884,-0.884580255,0.3039543,-0.343932225
1764764604.5383143,-2.7468,2.41108,0.51884,-0.884580255,0.3039543,-0.343932225
1764764604.5383143,-2.7468,2.41108,0.51884,-0.884580255,0.3039543,-0.343932225
1764764604.5383143,-2.7468,2.41108,0.51884,-0.884580255,0.3039543,-0.343932225
1764764604.5383143,-2.7468,2.41108,0.51884,-0.884580255,0.3039543,-0.343932225
1764764604.5383143,-2.7468,2.41108,0.51884,-0.884580255,0.3039543,-0.343932225
1764764604.5818138,-2.7468,2.41108,0.51884,-0.884580255,0.3039543,-0.343932225
1764764604.5818138,-2.7468,2.41108,0.51884,-0.884580255,0.3039543,-0.343932225
1764764604.5818138,-2.85362,2.88414,-0.01526,-0.8834205900000001,0.3039543,-0.34350498
1764764604.5818138,-2.85362,2.88414,-0.01526,-0.8834205900000001,0.3039543,-0.34350498
1764764604.5818138,-2.85362,2.88414,-0.01526,-0.8834205900000001,0.3039543,-0.34350498
1764764604.5818138,-2.85362,2.88414,-0.01526,-0.8834205900000001,0.3039543,-0.34350498
1764764604.5818138,-2.85362,2.88414,-0.01526,-0.8834205900000001,0.3039543,-0.34350498
1764764604.5818138,-2.85362,2.88414,-0.01526,-0.8834205900000001,0.3039543,-0.34350498
1764764604.5818138,-2.85362,2.88414,-0.01526,-0.8834205900000001,0.3039543,-0.34350498
1764764604.5818138,-2.85362,2.88414,-0.01526,-0.8834205900000001,0.3039543,-0.34350498
1764764604.582338,-2.85362,2.88414,-0.01526,-0.8834205900000001,0.3039543,-0.34350498
1764764604.582338,-2.85362,2.88414,-0.01526,-0.8834205900000001,0.3039543,-0.34350498
1764764604.582338,-2.31952,3.41824,0.21364,-0.88305438,0.3039543,-0.342223245
1764764604.582338,-2.31952,3.41824,0.21364,-0.88305438,0.3039543,-0.342223245
1764764604.582338,-2.31952,3.41824,0.21364,-0.88305438,0.3039543,-0.342223245
1764764604.582338,-2.31952,3.41824,0.21364,-0.88305438,0.3039543,-0.342223245
1764764604.582338,-2.31952,3.41824,0.21364,-0.88305438,0.3039543,-0.342223245
1764764604.582338,-2.31952,3.41824,0.21364,-0.88305438,0.3039543,-0.342223245
1764764604.582338,-2.31952,3.41824,0.21364,-0.88305438,0.3039543,-0.342223245
1764764604.582338,-2.31952,3.41824,0.21364,-0.88305438,0.3039543,-0.342223245
1764764604.6286285,-2.31952,3.41824,0.21364,-0.88305438,0.3039543,-0.342223245
1764764604.6286285,-2.31952,3.41824,0.21364,-0.88305438,0.3039543,-0.342223245
1764764604.6286285,-1.08346,3.31142,0.51884,-0.884336115,0.30285567,-0.341368755
1764764604.6286285,-1.08346,3.31142,0.51884,-0.884336115,0.30285567,-0.341368755
1764764604.6286285,-1.08346,3.31142,0.51884,-0.884336115,0.30285567,-0.341368755
1764764604.6286285,-1.08346,3.31142,0.51884,-0.884336115,0.30285567,-0.341368755
1764764604.6286285,-1.08346,3.31142,0.51884,-0.884336115,0.30285567,-0.341368755
1764764604.6286285,-1.08346,3.31142,0.51884,-0.884336115,0.30285567,-0.341368755
1764764604.6286285,-1.08346,3.31142,0.51884,-0.884336115,0.30285567,-0.341368755
1764764604.6286285,-1.08346,3.31142,0.51884,-0.884336115,0.30285567,-0.341368755
1764764604.6286285,-1.08346,3.31142,0.51884,-0.884336115,0.30285567,-0.341368755
1764764604.6286285,-1.08346,3.31142,0.51884,-0.884336115,0.30285567,-0.341368755
1764764604.6286285,-1.00716,3.7387,0.763,-0.8850075000000001,0.30236739,-0.34240635
1764764604.6286285,-1.00716,3.7387,0.763,-0.8850075000000001,0.30236739,-0.34240635
1764764604.6286285,-1.00716,3.7387,0.763,-0.8850075000000001,0.30236739,-0.34240635
1764764604.6286285,-1.00716,3.7387,0.763,-0.8850075000000001,0.30236739,-0.34240635
1764764604.6286285,-1.00716,3.7387,0.763,-0.8850075000000001,0.30236739,-0.34240635
1764764604.6286285,-1.00716,3.7387,0.763,-0.8850075000000001,0.30236739,-0.34240635
1764764604.629635,-1.00716,3.7387,0.763,-0.8850075000000001,0.30236739,-0.34240635
1764764604.629635,-1.00716,3.7387,0.763,-0.8850075000000001,0.30236739,-0.34240635
1764764604.629635,-1.00716,3.7387,0.763,-0.8850075000000001,0.30236739,-0.34240635
1764764604.629635,-1.00716,3.7387,0.763,-0.8850075000000001,0.30236739,-0.34240635
1764764604.629635,-1.03768,3.78448,0.73248,-0.884702325,0.30224532,-0.34313877
1764764604.629635,-1.03768,3.78448,0.73248,-0.884702325,0.30224532,-0.34313877
1764764604.6755798,-1.03768,3.78448,0.73248,-0.884702325,0.30224532,-0.34313877
1764764604.6755798,-1.03768,3.78448,0.73248,-0.884702325,0.30224532,-0.34313877
1764764604.6755798,-1.03768,3.78448,0.73248,-0.884702325,0.30224532,-0.34313877
1764764604.6755798,-1.03768,3.78448,0.73248,-0.884702325,0.30224532,-0.34313877
1764764604.6755798,-1.03768,3.78448,0.73248,-0.884702325,0.30224532,-0.34313877
1764764604.6755798,-1.03768,3.78448,0.73248,-0.884702325,0.30224532,-0.34313877
1764764604.6755798,-1.03768,3.78448,0.73248,-0.884702325,0.30224532,-0.34313877
1764764604.6755798,-1.03768,3.78448,0.73248,-0.884702325,0.30224532,-0.34313877
1764764604.6755798,-0.74774,3.17408,-0.10682,-0.883237485,0.301818075,-0.34240635
1764764604.6755798,-0.74774,3.17408,-0.10682,-0.883237485,0.301818075,-0.34240635
1764764604.6755798,-0.74774,3.17408,-0.10682,-0.883237485,0.301818075,-0.34240635
1764764604.6755798,-0.74774,3.17408,-0.10682,-0.883237485,0.301818075,-0.34240635
1764764604.6755798,-0.74774,3.17408,-0.10682,-0.883237485,0.301818075,-0.34240635
1764764604.6755798,-0.74774,3.17408,-0.10682,-0.883237485,0.301818075,-0.34240635
1764764604.6755798,-0.74774,3.17408,-0.10682,-0.883237485,0.301818075,-0.34240635
1764764604.6755798,-0.74774,3.17408,-0.10682,-0.883237485,0.301818075,-0.34240635
1764764604.6755798,-0.74774,3.17408,-0.10682,-0.883237485,0.301818075,-0.34240635
1764764604.6755798,-0.74774,3.17408,-0.10682,-0.883237485,0.301818075,-0.34240635
1764764604.6755798,-0.1678599999999999,3.4335,1.00716,-0.88464129,0.301696005,-0.34289463
1764764604.6755798,-0.1678599999999999,3.4335,1.00716,-0.88464129,0.301696005,-0.34289463
1764764604.6755798,-0.1678599999999999,3.4335,1.00716,-0.88464129,0.301696005,-0.34289463
1764764604.6755798,-0.1678599999999999,3.4335,1.00716,-0.88464129,0.301696005,-0.34289463
1764764604.6755798,-0.1678599999999999,3.4335,1.00716,-0.88464129,0.301696005,-0.34289463
1764764604.6755798,-0.1678599999999999,3.4335,1.00716,-0.88464129,0.301696005,-0.34289463
1764764604.6755798,-0.1678599999999999,3.4335,1.00716,-0.88464129,0.301696005,-0.34289463
1764764604.6755798,-0.1678599999999999,3.4335,1.00716,-0.88464129,0.301696005,-0.34289463
1764764604.7187612,-0.1678599999999999,3.4335,1.00716,-0.88464129,0.301696005,-0.34289463
1764764604.7187612,-0.1678599999999999,3.4335,1.00716,-0.88464129,0.301696005,-0.34289463
1764764604.7187612,-0.21364,3.64714,1.6022999999999998,-0.88781511,0.30322188,-0.34411533
1764764604.7187612,-0.21364,3.64714,1.6022999999999998,-0.88781511,0.30322188,-0.34411533
1764764604.7187612,-0.21364,3.64714,1.6022999999999998,-0.88781511,0.30322188,-0.34411533
1764764604.7187612,-0.21364,3.64714,1.6022999999999998,-0.88781511,0.30322188,-0.34411533
1764764604.7192736,-0.21364,3.64714,1.6022999999999998,-0.88781511,0.30322188,-0.34411533
1764764604.7192736,-0.21364,3.64714,1.6022999999999998,-0.88781511,0.30322188,-0.34411533
1764764604.7192736,-0.21364,3.64714,1.6022999999999998,-0.88781511,0.30322188,-0.34411533
1764764604.7192736,-0.21364,3.64714,1.6022999999999998,-0.88781511,0.30322188,-0.34411533
1764764604.7192736,-0.21364,3.64714,1.6022999999999998,-0.88781511,0.30322188,-0.34411533
1764764604.7192736,-0.21364,3.64714,1.6022999999999998,-0.88781511,0.30322188,-0.34411533
1764764604.7192736,-0.9003399999999999,2.47212,1.2055399999999998,-0.88842546,0.303527055,-0.34350498
1764764604.7192736,-0.9003399999999999,2.47212,1.2055399999999998,-0.88842546,0.303527055,-0.34350498
1764764604.7192736,-0.9003399999999999,2.47212,1.2055399999999998,-0.88842546,0.303527055,-0.34350498
1764764604.7192736,-0.9003399999999999,2.47212,1.2055399999999998,-0.88842546,0.303527055,-0.34350498
1764764604.7192736,-0.9003399999999999,2.47212,1.2055399999999998,-0.88842546,0.303527055,-0.34350498
1764764604.7192736,-0.9003399999999999,2.47212,1.2055399999999998,-0.88842546,0.303527055,-0.34350498
1764764604.7192736,-0.9003399999999999,2.47212,1.2055399999999998,-0.88842546,0.303527055,-0.34350498
1764764604.7192736,-0.9003399999999999,2.47212,1.2055399999999998,-0.88842546,0.303527055,-0.34350498
1764764604.7192736,-0.9003399999999999,2.47212,1.2055399999999998,-0.88842546,0.303527055,-0.34350498
1764764604.7192736,-0.9003399999999999,2.47212,1.2055399999999998,-0.88842546,0.303527055,-0.34350498
1764764604.7658794,-0.3815,3.84552,1.15976,-0.88525164,0.302306355,-0.343810155
1764764604.7658794,-0.3815,3.84552,1.15976,-0.88525164,0.302306355,-0.343810155
1764764604.7658794,-0.3815,3.84552,1.15976,-0.88525164,0.302306355,-0.343810155
1764764604.7658794,-0.3815,3.84552,1.15976,-0.88525164,0.302306355,-0.343810155
1764764604.7658794,-0.3815,3.84552,1.15976,-0.88525164,0.302306355,-0.343810155
1764764604.7658794,-0.3815,3.84552,1.15976,-0.88525164,0.302306355,-0.343810155
1764764604.7658794,-0.3815,3.84552,1.15976,-0.88525164,0.302306355,-0.343810155
1764764604.7658794,-0.3815,3.84552,1.15976,-0.88525164,0.302306355,-0.343810155
1764764604.7658794,-0.3815,3.84552,1.15976,-0.88525164,0.302306355,-0.343810155
1764764604.7658794,-0.3815,3.84552,1.15976,-0.88525164,0.302306355,-0.343810155
1764764604.7658794,-0.06104,3.52506,0.39676,-0.8828712750000001,0.301940145,-0.34265049
1764764604.7658794,-0.06104,3.52506,0.39676,-0.8828712750000001,0.301940145,-0.34265049
1764764604.7658794,-0.06104,3.52506,0.39676,-0.8828712750000001,0.301940145,-0.34265049
1764764604.7658794,-0.06104,3.52506,0.39676,-0.8828712750000001,0.301940145,-0.34265049
1764764604.7658794,-0.06104,3.52506,0.39676,-0.8828712750000001,0.301940145,-0.34265049
1764764604.7658794,-0.06104,3.52506,0.39676,-0.8828712750000001,0.301940145,-0.34265049
1764764604.7658794,-0.06104,3.52506,0.39676,-0.8828712750000001,0.301940145,-0.34265049
1764764604.7658794,-0.06104,3.52506,0.39676,-0.8828712750000001,0.301940145,-0.34265049
1764764604.7658794,-0.06104,3.52506,0.39676,-0.8828712750000001,0.301940145,-0.34265049
1764764604.7658794,-0.06104,3.52506,0.39676,-0.8828712750000001,0.301940145,-0.34265049
1764764604.7658794,-0.59514,3.49454,-0.19838,-0.8825661,0.30309981,-0.34240635
1764764604.7658794,-0.59514,3.49454,-0.19838,-0.8825661,0.30309981,-0.34240635
1764764604.7658794,-0.59514,3.49454,-0.19838,-0.8825661,0.30309981,-0.34240635
1764764604.7658794,-0.59514,3.49454,-0.19838,-0.8825661,0.30309981,-0.34240635
1764764604.8132005,-0.59514,3.49454,-0.19838,-0.8825661,0.30309981,-0.34240635
1764764604.8132005,-0.59514,3.49454,-0.19838,-0.8825661,0.30309981,-0.34240635
1764764604.8132005,-0.59514,3.49454,-0.19838,-0.8825661,0.30309981,-0.34240635
1764764604.8132005,-0.59514,3.49454,-0.19838,-0.8825661,0.30309981,-0.34240635
1764764604.8132005,-0.59514,3.49454,-0.19838,-0.8825661,0.30309981,-0.34240635
1764764604.8132005,-0.59514,3.49454,-0.19838,-0.8825661,0.30309981,-0.34240635
1764764604.8132005,-1.05294,3.87604,-0.28994,-0.88329852,0.30383223,-0.342101175
1764764604.8132005,-1.05294,3.87604,-0.28994,-0.88329852,0.30383223,-0.342101175
1764764604.8132005,-1.05294,3.87604,-0.28994,-0.88329852,0.30383223,-0.342101175
1764764604.8132005,-1.05294,3.87604,-0.28994,-0.88329852,0.30383223,-0.342101175
1764764604.8132005,-1.05294,3.87604,-0.28994,-0.88329852,0.30383223,-0.342101175
1764764604.8132005,-1.05294,3.87604,-0.28994,-0.88329852,0.30383223,-0.342101175
1764764604.8132005,-1.05294,3.87604,-0.28994,-0.88329852,0.30383223,-0.342101175
1764764604.8132005,-1.05294,3.87604,-0.28994,-0.88329852,0.30383223,-0.342101175
1764764604.8132005,-1.05294,3.87604,-0.28994,-0.88329852,0.30383223,-0.342101175
1764764604.8132005,-1.05294,3.87604,-0.28994,-0.88329852,0.30383223,-0.342101175
1764764604.8132005,0.57988,3.64714,0.6103999999999999,-0.88439715,0.303404985,-0.341857035
1764764604.8137212,0.57988,3.64714,0.6103999999999999,-0.88439715,0.303404985,-0.341857035
1764764604.8137212,0.57988,3.64714,0.6103999999999999,-0.88439715,0.303404985,-0.341857035
1764764604.8137212,0.57988,3.64714,0.6103999999999999,-0.88439715,0.303404985,-0.341857035
1764764604.8137212,0.57988,3.64714,0.6103999999999999,-0.88439715,0.303404985,-0.341857035
1764764604.8137212,0.57988,3.64714,0.6103999999999999,-0.88439715,0.303404985,-0.341857035
1764764604.8137212,0.57988,3.64714,0.6103999999999999,-0.88439715,0.303404985,-0.341857035
1764764604.8137212,0.57988,3.64714,0.6103999999999999,-0.88439715,0.303404985,-0.341857035
1764764604.8597038,0.57988,3.64714,0.6103999999999999,-0.88439715,0.303404985,-0.341857035
1764764604.8597038,0.57988,3.64714,0.6103999999999999,-0.88439715,0.303404985,-0.341857035
1764764604.8597038,1.26658,3.92182,0.93086,-0.8862282,0.30261153,-0.3430167
1764764604.8597038,1.26658,3.92182,0.93086,-0.8862282,0.30261153,-0.3430167
1764764604.8597038,1.26658,3.92182,0.93086,-0.8862282,0.30261153,-0.3430167
1764764604.8597038,1.26658,3.92182,0.93086,-0.8862282,0.30261153,-0.3430167
1764764604.8597038,1.26658,3.92182,0.93086,-0.8862282,0.30261153,-0.3430167
1764764604.8597038,1.26658,3.92182,0.93086,-0.8862282,0.30261153,-0.3430167
1764764604.8597038,1.26658,3.92182,0.93086,-0.8862282,0.30261153,-0.3430167
1764764604.8597038,1.26658,3.92182,0.93086,-0.8862282,0.30261153,-0.3430167
1764764604.8597038,1.26658,3.92182,0.93086,-0.8862282,0.30261153,-0.3430167
1764764604.8597038,1.26658,3.92182,0.93086,-0.8862282,0.30261153,-0.3430167
1764764604.8597038,2.4416,3.61662,1.6633399999999998,-0.88635027,0.302428425,-0.342711525
1764764604.8597038,2.4416,3.61662,1.6633399999999998,-0.88635027,0.302428425,-0.342711525
1764764604.8597038,2.4416,3.61662,1.6633399999999998,-0.88635027,0.302428425,-0.342711525
1764764604.8602266,2.4416,3.61662,1.6633399999999998,-0.88635027,0.302428425,-0.342711525
1764764604.8602266,2.4416,3.61662,1.6633399999999998,-0.88635027,0.302428425,-0.342711525
1764764604.8602266,2.4416,3.61662,1.6633399999999998,-0.88635027,0.302428425,-0.342711525
1764764604.8602266,2.4416,3.61662,1.6633399999999998,-0.88635027,0.302428425,-0.342711525
1764764604.8602266,2.4416,3.61662,1.6633399999999998,-0.88635027,0.302428425,-0.342711525
1764764604.8602266,2.4416,3.61662,1.6633399999999998,-0.88635027,0.302428425,-0.342711525
1764764604.8602266,2.4416,3.61662,1.6633399999999998,-0.88635027,0.302428425,-0.342711525
1764764604.906489,3.02148,3.70818,0.7019599999999999,-0.884824395,0.302550495,-0.34265049
1764764604.906489,3.02148,3.70818,0.7019599999999999,-0.884824395,0.302550495,-0.34265049
1764764604.906489,3.02148,3.70818,0.7019599999999999,-0.884824395,0.302550495,-0.34265049
1764764604.906489,3.02148,3.70818,0.7019599999999999,-0.884824395,0.302550495,-0.34265049
1764764604.906489,3.02148,3.70818,0.7019599999999999,-0.884824395,0.302550495,-0.34265049
1764764604.906489,3.02148,3.70818,0.7019599999999999,-0.884824395,0.302550495,-0.34265049
1764764604.906489,3.02148,3.70818,0.7019599999999999,-0.884824395,0.302550495,-0.34265049
1764764604.906489,3.02148,3.70818,0.7019599999999999,-0.884824395,0.302550495,-0.34265049
1764764604.906489,3.02148,3.70818,0.7019599999999999,-0.884824395,0.302550495,-0.34265049
1764764604.906489,3.02148,3.70818,0.7019599999999999,-0.884824395,0.302550495,-0.34265049
1764764604.906489,2.5179,3.31142,1.00716,-0.8844581850000001,0.30285567,-0.3430167
1764764604.906489,2.5179,3.31142,1.00716,-0.8844581850000001,0.30285567,-0.3430167
1764764604.906489,2.5179,3.31142,1.00716,-0.8844581850000001,0.30285567,-0.3430167
1764764604.906489,2.5179,3.31142,1.00716,-0.8844581850000001,0.30285567,-0.3430167
1764764604.906489,2.5179,3.31142,1.00716,-0.8844581850000001,0.30285567,-0.3430167
1764764604.906489,2.5179,3.31142,1.00716,-0.8844581850000001,0.30285567,-0.3430167
1764764604.906489,2.5179,3.31142,1.00716,-0.8844581850000001,0.30285567,-0.3430167
1764764604.906489,2.5179,3.31142,1.00716,-0.8844581850000001,0.30285567,-0.3430167
1764764604.906489,2.5179,3.31142,1.00716,-0.8844581850000001,0.30285567,-0.3430167
1764764604.906489,2.5179,3.31142,1.00716,-0.8844581850000001,0.30285567,-0.3430167
1764764604.906489,2.80784,3.64714,0.96138,-0.88415301,0.301451865,-0.34277256
1764764604.906489,2.80784,3.64714,0.96138,-0.88415301,0.301451865,-0.34277256
1764764604.906489,2.80784,3.64714,0.96138,-0.88415301,0.301451865,-0.34277256
1764764604.906489,2.80784,3.64714,0.96138,-0.88415301,0.301451865,-0.34277256
1764764604.9527323,2.80784,3.64714,0.96138,-0.88415301,0.301451865,-0.34277256
1764764604.9537373,2.80784,3.64714,0.96138,-0.88415301,0.301451865,-0.34277256
1764764604.9537373,2.80784,3.64714,0.96138,-0.88415301,0.301451865,-0.34277256
1764764604.9537373,2.80784,3.64714,0.96138,-0.88415301,0.301451865,-0.34277256
1764764604.9537373,2.80784,3.64714,0.96138,-0.88415301,0.301451865,-0.34277256
1764764604.9537373,2.80784,3.64714,0.96138,-0.88415301,0.301451865,-0.34277256
1764764604.9537373,3.5861,3.57084,0.96138,-0.88488543,0.301085655,-0.343566015
1764764604.9537373,3.5861,3.57084,0.96138,-0.88488543,0.301085655,-0.343566015
1764764604.9537373,3.5861,3.57084,0.96138,-0.88488543,0.301085655,-0.343566015
1764764604.9537373,3.5861,3.57084,0.96138,-0.88488543,0.301085655,-0.343566015
1764764604.9537373,3.5861,3.57084,0.96138,-0.88488543,0.301085655,-0.343566015
1764764604.9537373,3.5861,3.57084,0.96138,-0.88488543,0.301085655,-0.343566015
1764764604.9537373,3.5861,3.57084,0.96138,-0.88488543,0.301085655,-0.343566015
1764764604.9537373,3.5861,3.57084,0.96138,-0.88488543,0.301085655,-0.343566015
1764764604.9537373,3.5861,3.57084,0.96138,-0.88488543,0.301085655,-0.343566015
1764764604.9537373,3.5861,3.57084,0.96138,-0.88488543,0.301085655,-0.343566015
1764764604.9537373,4.1202,4.059159999999999,1.15976,-0.885556815,0.300841515,-0.343932225
1764764604.9537373,4.1202,4.059159999999999,1.15976,-0.885556815,0.300841515,-0.343932225
1764764604.9537373,4.1202,4.059159999999999,1.15976,-0.885556815,0.300841515,-0.343932225
1764764604.9537373,4.1202,4.059159999999999,1.15976,-0.885556815,0.300841515,-0.343932225
1764764604.9537373,4.1202,4.059159999999999,1.15976,-0.885556815,0.300841515,-0.343932225
1764764604.9537373,4.1202,4.059159999999999,1.15976,-0.885556815,0.300841515,-0.343932225
1764764604.9974582,4.1202,4.059159999999999,1.15976,-0.885556815,0.300841515,-0.343932225
1764764604.9974582,4.1202,4.059159999999999,1.15976,-0.885556815,0.300841515,-0.343932225
1764764604.9974582,4.1202,4.059159999999999,1.15976,-0.885556815,0.300841515,-0.343932225
1764764604.9974582,4.1202,4.059159999999999,1.15976,-0.885556815,0.300841515,-0.343932225
1764764604.9974582,4.31858,3.8913,0.56462,-0.885556815,0.30102462,-0.3442374
1764764604.9974582,4.31858,3.8913,0.56462,-0.885556815,0.30102462,-0.3442374
1764764604.9974582,4.31858,3.8913,0.56462,-0.885556815,0.30102462,-0.3442374
1764764604.9974582,4.31858,3.8913,0.56462,-0.885556815,0.30102462,-0.3442374
1764764604.9974582,4.31858,3.8913,0.56462,-0.885556815,0.30102462,-0.3442374
1764764604.9974582,4.31858,3.8913,0.56462,-0.885556815,0.30102462,-0.3442374
1764764604.9974582,4.31858,3.8913,0.56462,-0.885556815,0.30102462,-0.3442374
1764764604.9974582,4.31858,3.8913,0.56462,-0.885556815,0.30102462,-0.3442374
1764764604.9974582,4.31858,3.8913,0.56462,-0.885556815,0.30102462,-0.3442374
1764764604.9974582,4.31858,3.8913,0.56462,-0.885556815,0.30102462,-0.3442374
1764764604.9974582,2.99096,3.95234,0.4578,-0.885556815,0.301818075,-0.344908785
1764764604.9974582,2.99096,3.95234,0.4578,-0.885556815,0.301818075,-0.344908785
1764764604.9974582,2.99096,3.95234,0.4578,-0.885556815,0.301818075,-0.344908785
1764764604.9974582,2.99096,3.95234,0.4578,-0.885556815,0.301818075,-0.344908785
1764764604.9974582,2.99096,3.95234,0.4578,-0.885556815,0.301818075,-0.344908785
1764764604.9974582,2.99096,3.95234,0.4578,-0.885556815,0.301818075,-0.344908785
1764764604.9974582,2.99096,3.95234,0.4578,-0.885556815,0.301818075,-0.344908785
1764764604.9974582,2.99096,3.95234,0.4578,-0.885556815,0.301818075,-0.344908785
1764764605.0448675,2.99096,3.95234,0.4578,-0.885556815,0.301818075,-0.344908785
1764764605.0448675,2.99096,3.95234,0.4578,-0.885556815,0.301818075,-0.344908785
1764764605.0448675,1.23606,3.40298,0.51884,-0.8854957800000001,0.30236739,-0.346495695
1764764605.0448675,1.23606,3.40298,0.51884,-0.8854957800000001,0.30236739,-0.346495695
1764764605.0448675,1.23606,3.40298,0.51884,-0.8854957800000001,0.30236739,-0.346495695
1764764605.0448675,1.23606,3.40298,0.51884,-0.8854957800000001,0.30236739,-0.346495695
1764764605.0448675,1.23606,3.40298,0.51884,-0.8854957800000001,0.30236739,-0.346495695
1764764605.0448675,1.23606,3.40298,0.51884,-0.8854957800000001,0.30236739,-0.346495695
1764764605.0448675,1.23606,3.40298,0.51884,-0.8854957800000001,0.30236739,-0.346495695
1764764605.0448675,1.23606,3.40298,0.51884,-0.8854957800000001,0.30236739,-0.346495695
1764764605.0462203,1.23606,3.40298,0.51884,-0.8854957800000001,0.30236739,-0.346495695
1764764605.0462203,1.23606,3.40298,0.51884,-0.8854957800000001,0.30236739,-0.346495695
1764764605.0462203,0.27468,3.69292,1.05294,-0.8850075000000001,0.302794635,-0.346495695
1764764605.0462203,0.27468,3.69292,1.05294,-0.8850075000000001,0.302794635,-0.346495695
1764764605.0462203,0.27468,3.69292,1.05294,-0.8850075000000001,0.302794635,-0.346495695
1764764605.0462203,0.27468,3.69292,1.05294,-0.8850075000000001,0.302794635,-0.346495695
1764764605.0462203,0.27468,3.69292,1.05294,-0.8850075000000001,0.302794635,-0.346495695
1764764605.0462203,0.27468,3.69292,1.05294,-0.8850075000000001,0.302794635,-0.346495695
1764764605.0462203,0.27468,3.69292,1.05294,-0.8850075000000001,0.302794635,-0.346495695
1764764605.0462203,0.27468,3.69292,1.05294,-0.8850075000000001,0.302794635,-0.346495695
1764764605.0462203,0.27468,3.69292,1.05294,-0.8850075000000001,0.302794635,-0.346495695
1764764605.0462203,0.27468,3.69292,1.05294,-0.8850075000000001,0.302794635,-0.346495695
1764764605.0462203,-0.62566,3.72344,-0.10682,-0.88415301,0.302672565,-0.34606845
1764764605.0462203,-0.62566,3.72344,-0.10682,-0.88415301,0.302672565,-0.34606845
1764764605.0893936,-0.62566,3.72344,-0.10682,-0.88415301,0.302672565,-0.34606845
1764764605.0893936,-0.62566,3.72344,-0.10682,-0.88415301,0.302672565,-0.34606845
1764764605.089826,-0.62566,3.72344,-0.10682,-0.88415301,0.302672565,-0.34606845
1764764605.089826,-0.62566,3.72344,-0.10682,-0.88415301,0.302672565,-0.34606845
1764764605.089826,-0.62566,3.72344,-0.10682,-0.88415301,0.302672565,-0.34606845
1764764605.089826,-0.62566,3.72344,-0.10682,-0.88415301,0.302672565,-0.34606845
1764764605.089826,-0.62566,3.72344,-0.10682,-0.88415301,0.302672565,-0.34606845
1764764605.089826,-0.62566,3.72344,-0.10682,-0.88415301,0.302672565,-0.34606845
1764764605.089826,-1.05294,3.78448,0.0762999999999999,-0.884580255,0.3027336,-0.346373625
1764764605.089826,-1.05294,3.78448,0.0762999999999999,-0.884580255,0.3027336,-0.346373625
1764764605.089826,-1.05294,3.78448,0.0762999999999999,-0.884580255,0.3027336,-0.346373625
1764764605.089826,-1.05294,3.78448,0.0762999999999999,-0.884580255,0.3027336,-0.346373625
1764764605.089826,-1.05294,3.78448,0.0762999999999999,-0.884580255,0.3027336,-0.346373625
1764764605.089826,-1.05294,3.78448,0.0762999999999999,-0.884580255,0.3027336,-0.346373625
1764764605.089826,-1.05294,3.78448,0.0762999999999999,-0.884580255,0.3027336,-0.346373625
1764764605.089826,-1.05294,3.78448,0.0762999999999999,-0.884580255,0.3027336,-0.346373625
1764764605.089826,-1.05294,3.78448,0.0762999999999999,-0.884580255,0.3027336,-0.346373625
1764764605.089826,-1.05294,3.78448,0.0762999999999999,-0.884580255,0.3027336,-0.346373625
1764764605.089826,-2.39582,3.99812,0.25942,-0.885556815,0.302428425,-0.34631259
1764764605.089826,-2.39582,3.99812,0.25942,-0.885556815,0.302428425,-0.34631259
1764764605.089826,-2.39582,3.99812,0.25942,-0.885556815,0.302428425,-0.34631259
1764764605.089826,-2.39582,3.99812,0.25942,-0.885556815,0.302428425,-0.34631259
1764764605.136088,-2.39582,3.99812,0.25942,-0.885556815,0.302428425,-0.34631259
1764764605.136088,-2.39582,3.99812,0.25942,-0.885556815,0.302428425,-0.34631259
1764764605.136088,-2.39582,3.99812,0.25942,-0.885556815,0.302428425,-0.34631259
1764764605.136088,-2.39582,3.99812,0.25942,-0.885556815,0.302428425,-0.34631259
1764764605.136088,-2.39582,3.99812,0.25942,-0.885556815,0.302428425,-0.34631259
1764764605.136088,-2.39582,3.99812,0.25942,-0.885556815,0.302428425,-0.34631259
1764764605.136088,-1.57178,3.63188,0.3509799999999999,-0.885556815,0.30078048,-0.345641205
1764764605.136088,-1.57178,3.63188,0.3509799999999999,-0.885556815,0.30078048,-0.345641205
1764764605.136088,-1.57178,3.63188,0.3509799999999999,-0.885556815,0.30078048,-0.345641205
1764764605.136088,-1.57178,3.63188,0.3509799999999999,-0.885556815,0.30078048,-0.345641205
1764764605.136088,-1.57178,3.63188,0.3509799999999999,-0.885556815,0.30078048,-0.345641205
1764764605.136088,-1.57178,3.63188,0.3509799999999999,-0.885556815,0.30078048,-0.345641205
1764764605.136088,-1.57178,3.63188,0.3509799999999999,-0.885556815,0.30078048,-0.345641205
1764764605.136088,-1.57178,3.63188,0.3509799999999999,-0.885556815,0.30078048,-0.345641205
1764764605.136088,-1.57178,3.63188,0.3509799999999999,-0.885556815,0.30078048,-0.345641205
1764764605.136088,-1.57178,3.63188,0.3509799999999999,-0.885556815,0.30078048,-0.345641205
1764764605.136088,-0.62566,4.31858,0.3357199999999999,-0.885068535,0.301085655,-0.34496982
1764764605.136088,-0.62566,4.31858,0.3357199999999999,-0.885068535,0.301085655,-0.34496982
1764764605.1371078,-0.62566,4.31858,0.3357199999999999,-0.885068535,0.301085655,-0.34496982
1764764605.1371078,-0.62566,4.31858,0.3357199999999999,-0.885068535,0.301085655,-0.34496982
1764764605.1371078,-0.62566,4.31858,0.3357199999999999,-0.885068535,0.301085655,-0.34496982
1764764605.1371078,-0.62566,4.31858,0.3357199999999999,-0.885068535,0.301085655,-0.34496982
1764764605.1371078,-0.62566,4.31858,0.3357199999999999,-0.885068535,0.301085655,-0.34496982
1764764605.1371078,-0.62566,4.31858,0.3357199999999999,-0.885068535,0.301085655,-0.34496982
1764764605.1831255,-0.62566,4.31858,0.3357199999999999,-0.885068535,0.301085655,-0.34496982
1764764605.1831255,-0.62566,4.31858,0.3357199999999999,-0.885068535,0.301085655,-0.34496982
1764764605.1831255,-0.74774,4.13546,0.82404,-0.88451922,0.302550495,-0.344542575
1764764605.1831255,-0.74774,4.13546,0.82404,-0.88451922,0.302550495,-0.344542575
1764764605.1831255,-0.74774,4.13546,0.82404,-0.88451922,0.302550495,-0.344542575
1764764605.1831255,-0.74774,4.13546,0.82404,-0.88451922,0.302550495,-0.344542575
1764764605.1831255,-0.74774,4.13546,0.82404,-0.88451922,0.302550495,-0.344542575
1764764605.1831255,-0.74774,4.13546,0.82404,-0.88451922,0.302550495,-0.344542575
1764764605.1831255,-0.74774,4.13546,0.82404,-0.88451922,0.302550495,-0.344542575
1764764605.1831255,-0.74774,4.13546,0.82404,-0.88451922,0.302550495,-0.344542575
1764764605.1831255,-0.74774,4.13546,0.82404,-0.88451922,0.302550495,-0.344542575
1764764605.1831255,-0.74774,4.13546,0.82404,-0.88451922,0.302550495,-0.344542575
1764764605.1831255,-1.05294,4.2728,1.08346,-0.88525164,0.302550495,-0.344298435
1764764605.1831255,-1.05294,4.2728,1.08346,-0.88525164,0.302550495,-0.344298435
1764764605.1831255,-1.05294,4.2728,1.08346,-0.88525164,0.302550495,-0.344298435
1764764605.1831255,-1.05294,4.2728,1.08346,-0.88525164,0.302550495,-0.344298435
1764764605.1831255,-1.05294,4.2728,1.08346,-0.88525164,0.302550495,-0.344298435
1764764605.1831255,-1.05294,4.2728,1.08346,-0.88525164,0.302550495,-0.344298435
1764764605.1831255,-1.05294,4.2728,1.08346,-0.88525164,0.302550495,-0.344298435
1764764605.1831255,-1.05294,4.2728,1.08346,-0.88525164,0.302550495,-0.344298435
1764764605.1831255,-1.05294,4.2728,1.08346,-0.88525164,0.302550495,-0.344298435
1764764605.1831255,-1.05294,4.2728,1.08346,-0.88525164,0.302550495,-0.344298435
1764764605.1831255,-0.59514,3.95234,0.94612,-0.884946465,0.301696005,-0.34472568
1764764605.1831255,-0.59514,3.95234,0.94612,-0.884946465,0.301696005,-0.34472568
1764764605.2308297,-0.59514,3.95234,0.94612,-0.884946465,0.301696005,-0.34472568
1764764605.2308297,-0.59514,3.95234,0.94612,-0.884946465,0.301696005,-0.34472568
1764764605.2308297,-0.59514,3.95234,0.94612,-0.884946465,0.301696005,-0.34472568
1764764605.2308297,-0.59514,3.95234,0.94612,-0.884946465,0.301696005,-0.34472568
1764764605.2308297,-0.59514,3.95234,0.94612,-0.884946465,0.301696005,-0.34472568
1764764605.2308297,-0.59514,3.95234,0.94612,-0.884946465,0.301696005,-0.34472568
1764764605.2308297,-0.59514,3.95234,0.94612,-0.884946465,0.301696005,-0.34472568
1764764605.2308297,-0.59514,3.95234,0.94612,-0.884946465,0.301696005,-0.34472568
1764764605.2308297,0.7019599999999999,3.60136,0.3509799999999999,-0.88439715,0.300597375,-0.34399326
1764764605.2308297,0.7019599999999999,3.60136,0.3509799999999999,-0.88439715,0.300597375,-0.34399326
1764764605.2308297,0.7019599999999999,3.60136,0.3509799999999999,-0.88439715,0.300597375,-0.34399326
1764764605.2308297,0.7019599999999999,3.60136,0.3509799999999999,-0.88439715,0.300597375,-0.34399326
1764764605.2317438,0.7019599999999999,3.60136,0.3509799999999999,-0.88439715,0.300597375,-0.34399326
1764764605.2317438,0.7019599999999999,3.60136,0.3509799999999999,-0.88439715,0.300597375,-0.34399326
1764764605.2317438,0.7019599999999999,3.60136,0.3509799999999999,-0.88439715,0.300597375,-0.34399326
1764764605.2317438,0.7019599999999999,3.60136,0.3509799999999999,-0.88439715,0.300597375,-0.34399326
1764764605.2317438,0.7019599999999999,3.60136,0.3509799999999999,-0.88439715,0.300597375,-0.34399326
1764764605.2317438,0.7019599999999999,3.60136,0.3509799999999999,-0.88439715,0.300597375,-0.34399326
1764764605.2317438,1.69386,3.90656,1.38866,-0.886777515,0.300719445,-0.34411533
1764764605.2317438,1.69386,3.90656,1.38866,-0.886777515,0.300719445,-0.34411533
1764764605.2317438,1.69386,3.90656,1.38866,-0.886777515,0.300719445,-0.34411533
1764764605.2317438,1.69386,3.90656,1.38866,-0.886777515,0.300719445,-0.34411533
1764764605.279864,1.69386,3.90656,1.38866,-0.886777515,0.300719445,-0.34411533
1764764605.279864,1.69386,3.90656,1.38866,-0.886777515,0.300719445,-0.34411533
1764764605.279864,1.69386,3.90656,1.38866,-0.886777515,0.300719445,-0.34411533
1764764605.279864,1.69386,3.90656,1.38866,-0.886777515,0.300719445,-0.34411533
1764764605.279864,1.69386,3.90656,1.38866,-0.886777515,0.300719445,-0.34411533
1764764605.279864,1.69386,3.90656,1.38866,-0.886777515,0.300719445,-0.34411533
1764764605.279864,1.81594,3.84552,2.07536,-0.88769304,0.30163497,-0.34533603
1764764605.279864,1.81594,3.84552,2.07536,-0.88769304,0.30163497,-0.34533603
1764764605.279864,1.81594,3.84552,2.07536,-0.88769304,0.30163497,-0.34533603
1764764605.279864,1.81594,3.84552,2.07536,-0.88769304,0.30163497,-0.34533603
1764764605.279864,1.81594,3.84552,2.07536,-0.88769304,0.30163497,-0.34533603
1764764605.279864,1.81594,3.84552,2.07536,-0.88769304,0.30163497,-0.34533603
1764764605.279864,1.81594,3.84552,2.07536,-0.88769304,0.30163497,-0.34533603
1764764605.279864,1.81594,3.84552,2.07536,-0.88769304,0.30163497,-0.34533603
1764764605.279864,1.81594,3.84552,2.07536,-0.88769304,0.30163497,-0.34533603
1764764605.279864,1.81594,3.84552,2.07536,-0.88769304,0.30163497,-0.34533603
1764764605.279864,1.05294,3.76922,1.9838,-0.886777515,0.301573935,-0.34619052
1764764605.279864,1.05294,3.76922,1.9838,-0.886777515,0.301573935,-0.34619052
1764764605.279864,1.05294,3.76922,1.9838,-0.886777515,0.301573935,-0.34619052
1764764605.279864,1.05294,3.76922,1.9838,-0.886777515,0.301573935,-0.34619052
1764764605.279864,1.05294,3.76922,1.9838,-0.886777515,0.301573935,-0.34619052
1764764605.279864,1.05294,3.76922,1.9838,-0.886777515,0.301573935,-0.34619052
1764764605.279864,1.05294,3.76922,1.9838,-0.886777515,0.301573935,-0.34619052
1764764605.279864,1.05294,3.76922,1.9838,-0.886777515,0.301573935,-0.34619052
1764764605.279864,1.05294,3.76922,1.9838,-0.886777515,0.301573935,-0.34619052
1764764605.279864,1.05294,3.76922,1.9838,-0.886777515,0.301573935,-0.34619052
1764764605.326908,1.73964,3.44876,1.28184,-0.885678885,0.30053634,-0.345519135
1764764605.326908,1.73964,3.44876,1.28184,-0.885678885,0.30053634,-0.345519135
1764764605.326908,1.73964,3.44876,1.28184,-0.885678885,0.30053634,-0.345519135
1764764605.326908,1.73964,3.44876,1.28184,-0.885678885,0.30053634,-0.345519135
1764764605.326908,1.73964,3.44876,1.28184,-0.885678885,0.30053634,-0.345519135
1764764605.326908,1.73964,3.44876,1.28184,-0.885678885,0.30053634,-0.345519135
1764764605.326908,1.73964,3.44876,1.28184,-0.885678885,0.30053634,-0.345519135
1764764605.326908,1.73964,3.44876,1.28184,-0.885678885,0.30053634,-0.345519135
1764764605.326908,1.73964,3.44876,1.28184,-0.885678885,0.30053634,-0.345519135
1764764605.326908,1.73964,3.44876,1.28184,-0.885678885,0.30053634,-0.345519135
1764764605.326908,1.8312,3.38772,0.8087799999999999,-0.8837868,0.29955978,-0.345030855
1764764605.326908,1.8312,3.38772,0.8087799999999999,-0.8837868,0.29955978,-0.345030855
1764764605.326908,1.8312,3.38772,0.8087799999999999,-0.8837868,0.29955978,-0.345030855
1764764605.326908,1.8312,3.38772,0.8087799999999999,-0.8837868,0.29955978,-0.345030855
1764764605.326908,1.8312,3.38772,0.8087799999999999,-0.8837868,0.29955978,-0.345030855
1764764605.326908,1.8312,3.38772,0.8087799999999999,-0.8837868,0.29955978,-0.345030855
1764764605.326908,1.8312,3.38772,0.8087799999999999,-0.8837868,0.29955978,-0.345030855
1764764605.326908,1.8312,3.38772,0.8087799999999999,-0.8837868,0.29955978,-0.345030855
1764764605.326908,1.8312,3.38772,0.8087799999999999,-0.8837868,0.29955978,-0.345030855
1764764605.326908,1.8312,3.38772,0.8087799999999999,-0.8837868,0.29955978,-0.345030855
1764764605.326908,1.526,3.37246,0.8698199999999999,-0.883603695,0.301085655,-0.34509189
1764764605.326908,1.526,3.37246,0.8698199999999999,-0.883603695,0.301085655,-0.34509189
1764764605.3731556,1.526,3.37246,0.8698199999999999,-0.883603695,0.301085655,-0.34509189
1764764605.3731556,1.526,3.37246,0.8698199999999999,-0.883603695,0.301085655,-0.34509189
1764764605.3731556,1.526,3.37246,0.8698199999999999,-0.883603695,0.301085655,-0.34509189
1764764605.373663,1.526,3.37246,0.8698199999999999,-0.883603695,0.301085655,-0.34509189
1764764605.373663,1.526,3.37246,0.8698199999999999,-0.883603695,0.301085655,-0.34509189
1764764605.373663,1.526,3.37246,0.8698199999999999,-0.883603695,0.301085655,-0.34509189
1764764605.373663,1.526,3.37246,0.8698199999999999,-0.883603695,0.301085655,-0.34509189
1764764605.373663,1.526,3.37246,0.8698199999999999,-0.883603695,0.301085655,-0.34509189
1764764605.373663,0.65618,3.63188,0.73248,-0.884336115,0.301696005,-0.34594638
1764764605.373663,0.65618,3.63188,0.73248,-0.884336115,0.301696005,-0.34594638
1764764605.373663,0.65618,3.63188,0.73248,-0.884336115,0.301696005,-0.34594638
1764764605.373663,0.65618,3.63188,0.73248,-0.884336115,0.301696005,-0.34594638
1764764605.373663,0.65618,3.63188,0.73248,-0.884336115,0.301696005,-0.34594638
1764764605.373663,0.65618,3.63188,0.73248,-0.884336115,0.301696005,-0.34594638
1764764605.373663,0.65618,3.63188,0.73248,-0.884336115,0.301696005,-0.34594638
1764764605.373663,0.65618,3.63188,0.73248,-0.884336115,0.301696005,-0.34594638
1764764605.373663,0.65618,3.63188,0.73248,-0.884336115,0.301696005,-0.34594638
1764764605.373663,0.65618,3.63188,0.73248,-0.884336115,0.301696005,-0.34594638
1764764605.373663,0.3357199999999999,3.69292,0.54936,-0.8839699050000001,0.30236739,-0.34704501
1764764605.373663,0.3357199999999999,3.69292,0.54936,-0.8839699050000001,0.30236739,-0.34704501
1764764605.373663,0.3357199999999999,3.69292,0.54936,-0.8839699050000001,0.30236739,-0.34704501
1764764605.373663,0.3357199999999999,3.69292,0.54936,-0.8839699050000001,0.30236739,-0.34704501
1764764605.4211664,0.3357199999999999,3.69292,0.54936,-0.8839699050000001,0.30236739,-0.34704501
1764764605.4211664,0.3357199999999999,3.69292,0.54936,-0.8839699050000001,0.30236739,-0.34704501
1764764605.4211664,0.3357199999999999,3.69292,0.54936,-0.8839699050000001,0.30236739,-0.34704501
1764764605.4211664,0.3357199999999999,3.69292,0.54936,-0.8839699050000001,0.30236739,-0.34704501
1764764605.4211664,0.3357199999999999,3.69292,0.54936,-0.8839699050000001,0.30236739,-0.34704501
1764764605.4211664,0.3357199999999999,3.69292,0.54936,-0.8839699050000001,0.30236739,-0.34704501
1764764605.4211664,0.12208,3.9676,0.85456,-0.88488543,0.30236739,-0.347350185
1764764605.4211664,0.12208,3.9676,0.85456,-0.88488543,0.30236739,-0.347350185
1764764605.4211664,0.12208,3.9676,0.85456,-0.88488543,0.30236739,-0.347350185
1764764605.4211664,0.12208,3.9676,0.85456,-0.88488543,0.30236739,-0.347350185
1764764605.4211664,0.12208,3.9676,0.85456,-0.88488543,0.30236739,-0.347350185
1764764605.4211664,0.12208,3.9676,0.85456,-0.88488543,0.30236739,-0.347350185
1764764605.4211664,0.12208,3.9676,0.85456,-0.88488543,0.30236739,-0.347350185
1764764605.4211664,0.12208,3.9676,0.85456,-0.88488543,0.30236739,-0.347350185
1764764605.4211664,0.12208,3.9676,0.85456,-0.88488543,0.30236739,-0.347350185
1764764605.4211664,0.12208,3.9676,0.85456,-0.88488543,0.30236739,-0.347350185
1764764605.4211664,-0.65618,3.67766,1.03768,-0.884580255,0.30248946,-0.34753329
1764764605.4211664,-0.65618,3.67766,1.03768,-0.884580255,0.30248946,-0.34753329
1764764605.4211664,-0.65618,3.67766,1.03768,-0.884580255,0.30248946,-0.34753329
1764764605.4211664,-0.65618,3.67766,1.03768,-0.884580255,0.30248946,-0.34753329
1764764605.4211664,-0.65618,3.67766,1.03768,-0.884580255,0.30248946,-0.34753329
1764764605.4211664,-0.65618,3.67766,1.03768,-0.884580255,0.30248946,-0.34753329
1764764605.4211664,-0.65618,3.67766,1.03768,-0.884580255,0.30248946,-0.34753329
1764764605.4211664,-0.65618,3.67766,1.03768,-0.884580255,0.30248946,-0.34753329
1764764605.467425,-0.65618,3.67766,1.03768,-0.884580255,0.30248946,-0.34753329
1764764605.467425,-0.65618,3.67766,1.03768,-0.884580255,0.30248946,-0.34753329
1764764605.467425,-1.46496,3.37246,-0.01526,-0.884091975,0.30285567,-0.347838465
1764764605.467425,-1.46496,3.37246,-0.01526,-0.884091975,0.30285567,-0.347838465
1764764605.467425,-1.46496,3.37246,-0.01526,-0.884091975,0.30285567,-0.347838465
1764764605.467425,-1.46496,3.37246,-0.01526,-0.884091975,0.30285567,-0.347838465
1764764605.467425,-1.46496,3.37246,-0.01526,-0.884091975,0.30285567,-0.347838465
1764764605.467425,-1.46496,3.37246,-0.01526,-0.884091975,0.30285567,-0.347838465
1764764605.467425,-1.46496,3.37246,-0.01526,-0.884091975,0.30285567,-0.347838465
1764764605.467425,-1.46496,3.37246,-0.01526,-0.884091975,0.30285567,-0.347838465
1764764605.467425,-1.46496,3.37246,-0.01526,-0.884091975,0.30285567,-0.347838465
1764764605.467425,-1.46496,3.37246,-0.01526,-0.884091975,0.30285567,-0.347838465
1764764605.467425,-2.289,3.75396,0.25942,-0.88488543,0.30212325,-0.348082605
1764764605.467425,-2.289,3.75396,0.25942,-0.88488543,0.30212325,-0.348082605
1764764605.467425,-2.289,3.75396,0.25942,-0.88488543,0.30212325,-0.348082605
1764764605.467425,-2.289,3.75396,0.25942,-0.88488543,0.30212325,-0.348082605
1764764605.467425,-2.289,3.75396,0.25942,-0.88488543,0.30212325,-0.348082605
1764764605.467425,-2.289,3.75396,0.25942,-0.88488543,0.30212325,-0.348082605
1764764605.467425,-2.289,3.75396,0.25942,-0.88488543,0.30212325,-0.348082605
1764764605.467425,-2.289,3.75396,0.25942,-0.88488543,0.30212325,-0.348082605
1764764605.467425,-2.289,3.75396,0.25942,-0.88488543,0.30212325,-0.348082605
1764764605.467425,-2.289,3.75396,0.25942,-0.88488543,0.30212325,-0.348082605
1764764605.467425,-3.03674,3.9676,0.85456,-0.884824395,0.303160845,-0.348326745
1764764605.467425,-3.03674,3.9676,0.85456,-0.884824395,0.303160845,-0.348326745
1764764605.5149453,-3.03674,3.9676,0.85456,-0.884824395,0.303160845,-0.348326745
1764764605.522077,-3.03674,3.9676,0.85456,-0.884824395,0.303160845,-0.348326745
1764764605.522077,-3.03674,3.9676,0.85456,-0.884824395,0.303160845,-0.348326745
1764764605.522077,-3.03674,3.9676,0.85456,-0.884824395,0.303160845,-0.348326745
1764764605.522077,-3.03674,3.9676,0.85456,-0.884824395,0.303160845,-0.348326745
1764764605.522077,-3.03674,3.9676,0.85456,-0.884824395,0.303160845,-0.348326745
1764764605.522077,-3.03674,3.9676,0.85456,-0.884824395,0.303160845,-0.348326745
1764764605.522077,-3.03674,3.9676,0.85456,-0.884824395,0.303160845,-0.348326745
1764764605.5230708,-2.99096,4.10494,0.39676,-0.8844581850000001,0.30224532,-0.34741122
1764764605.5230708,-2.99096,4.10494,0.39676,-0.8844581850000001,0.30224532,-0.34741122
1764764605.5230708,-2.99096,4.10494,0.39676,-0.8844581850000001,0.30224532,-0.34741122
1764764605.5230708,-2.99096,4.10494,0.39676,-0.8844581850000001,0.30224532,-0.34741122
1764764605.5230708,-2.99096,4.10494,0.39676,-0.8844581850000001,0.30224532,-0.34741122
1764764605.5230708,-2.99096,4.10494,0.39676,-0.8844581850000001,0.30224532,-0.34741122
1764764605.5230708,-2.99096,4.10494,0.39676,-0.8844581850000001,0.30224532,-0.34741122
1764764605.5230708,-2.99096,4.10494,0.39676,-0.8844581850000001,0.30224532,-0.34741122
1764764605.5230708,-2.99096,4.10494,0.39676,-0.8844581850000001,0.30224532,-0.34741122
1764764605.5230708,-2.99096,4.10494,0.39676,-0.8844581850000001,0.30224532,-0.34741122
1764764605.5230708,-1.92276,3.95234,0.04578,-0.8839088700000001,0.300475305,-0.34606845
1764764605.5230708,-1.92276,3.95234,0.04578,-0.8839088700000001,0.300475305,-0.34606845
1764764605.5230708,-1.92276,3.95234,0.04578,-0.8839088700000001,0.300475305,-0.34606845
1764764605.5230708,-1.92276,3.95234,0.04578,-0.8839088700000001,0.300475305,-0.34606845
1764764605.5230708,-1.92276,3.95234,0.04578,-0.8839088700000001,0.300475305,-0.34606845
1764764605.5230708,-1.92276,3.95234,0.04578,-0.8839088700000001,0.300475305,-0.34606845
1764764605.5592985,-1.92276,3.95234,0.04578,-0.8839088700000001,0.300475305,-0.34606845
1764764605.5592985,-1.92276,3.95234,0.04578,-0.8839088700000001,0.300475305,-0.34606845
1764764605.5592985,-1.92276,3.95234,0.04578,-0.8839088700000001,0.300475305,-0.34606845
1764764605.5592985,-1.92276,3.95234,0.04578,-0.8839088700000001,0.300475305,-0.34606845
1764764605.5592985,-0.48832,3.55558,-0.57988,-0.88427508,0.29858322,-0.346007415
1764764605.5592985,-0.48832,3.55558,-0.57988,-0.88427508,0.29858322,-0.346007415
1764764605.5592985,-0.48832,3.55558,-0.57988,-0.88427508,0.29858322,-0.346007415
1764764605.5592985,-0.48832,3.55558,-0.57988,-0.88427508,0.29858322,-0.346007415
1764764605.5592985,-0.48832,3.55558,-0.57988,-0.88427508,0.29858322,-0.346007415
1764764605.5592985,-0.48832,3.55558,-0.57988,-0.88427508,0.29858322,-0.346007415
1764764605.5592985,-0.48832,3.55558,-0.57988,-0.88427508,0.29858322,-0.346007415
1764764605.5592985,-0.48832,3.55558,-0.57988,-0.88427508,0.29858322,-0.346007415
1764764605.5592985,-0.48832,3.55558,-0.57988,-0.88427508,0.29858322,-0.346007415
1764764605.5592985,-0.48832,3.55558,-0.57988,-0.88427508,0.29858322,-0.346007415
1764764605.5592985,-0.3204599999999999,3.55558,0.0,-0.88488543,0.298644255,-0.346129485
1764764605.5592985,-0.3204599999999999,3.55558,0.0,-0.88488543,0.298644255,-0.346129485
1764764605.5598068,-0.3204599999999999,3.55558,0.0,-0.88488543,0.298644255,-0.346129485
1764764605.5598068,-0.3204599999999999,3.55558,0.0,-0.88488543,0.298644255,-0.346129485
1764764605.5598068,-0.3204599999999999,3.55558,0.0,-0.88488543,0.298644255,-0.346129485
1764764605.5598068,-0.3204599999999999,3.55558,0.0,-0.88488543,0.298644255,-0.346129485
1764764605.5598068,-0.3204599999999999,3.55558,0.0,-0.88488543,0.298644255,-0.346129485
1764764605.5598068,-0.3204599999999999,3.55558,0.0,-0.88488543,0.298644255,-0.346129485
1764764605.5598068,-0.3204599999999999,3.55558,0.0,-0.88488543,0.298644255,-0.346129485
1764764605.5598068,-0.3204599999999999,3.55558,0.0,-0.88488543,0.298644255,-0.346129485
1764764605.6079347,-0.6714399999999999,3.21986,-0.3051999999999999,-0.88464129,0.299620815,-0.346251555
1764764605.6079347,-0.6714399999999999,3.21986,-0.3051999999999999,-0.88464129,0.299620815,-0.346251555
1764764605.6079347,-0.6714399999999999,3.21986,-0.3051999999999999,-0.88464129,0.299620815,-0.346251555
1764764605.6079347,-0.6714399999999999,3.21986,-0.3051999999999999,-0.88464129,0.299620815,-0.346251555
1764764605.6079347,-0.6714399999999999,3.21986,-0.3051999999999999,-0.88464129,0.299620815,-0.346251555
1764764605.6079347,-0.6714399999999999,3.21986,-0.3051999999999999,-0.88464129,0.299620815,-0.346251555
1764764605.6079347,-0.6714399999999999,3.21986,-0.3051999999999999,-0.88464129,0.299620815,-0.346251555
1764764605.6079347,-0.6714399999999999,3.21986,-0.3051999999999999,-0.88464129,0.299620815,-0.346251555
1764764605.6079347,-0.6714399999999999,3.21986,-0.3051999999999999,-0.88464129,0.299620815,-0.346251555
1764764605.6079347,-0.6714399999999999,3.21986,-0.3051999999999999,-0.88464129,0.299620815,-0.346251555
1764764605.6079347,-1.34288,3.2046,-0.48832,-0.88403094,0.30090255,-0.345397065
1764764605.6079347,-1.34288,3.2046,-0.48832,-0.88403094,0.30090255,-0.345397065
1764764605.6079347,-1.34288,3.2046,-0.48832,-0.88403094,0.30090255,-0.345397065
1764764605.6089306,-1.34288,3.2046,-0.48832,-0.88403094,0.30090255,-0.345397065
1764764605.6089306,-1.34288,3.2046,-0.48832,-0.88403094,0.30090255,-0.345397065
1764764605.6089306,-1.34288,3.2046,-0.48832,-0.88403094,0.30090255,-0.345397065
1764764605.6089306,-1.34288,3.2046,-0.48832,-0.88403094,0.30090255,-0.345397065
1764764605.6089306,-1.34288,3.2046,-0.48832,-0.88403094,0.30090255,-0.345397065
1764764605.609865,-1.34288,3.2046,-0.48832,-0.88403094,0.30090255,-0.345397065
1764764605.609865,-1.34288,3.2046,-0.48832,-0.88403094,0.30090255,-0.345397065
1764764605.609865,-1.73964,3.55558,-0.7019599999999999,-0.8844581850000001,0.300719445,-0.344420505
1764764605.609865,-1.73964,3.55558,-0.7019599999999999,-0.8844581850000001,0.300719445,-0.344420505
1764764605.609865,-1.73964,3.55558,-0.7019599999999999,-0.8844581850000001,0.300719445,-0.344420505
1764764605.609865,-1.73964,3.55558,-0.7019599999999999,-0.8844581850000001,0.300719445,-0.344420505
1764764605.6562638,-1.73964,3.55558,-0.7019599999999999,-0.8844581850000001,0.300719445,-0.344420505
1764764605.6562638,-1.73964,3.55558,-0.7019599999999999,-0.8844581850000001,0.300719445,-0.344420505
1764764605.6562638,-1.73964,3.55558,-0.7019599999999999,-0.8844581850000001,0.300719445,-0.344420505
1764764605.6562638,-1.73964,3.55558,-0.7019599999999999,-0.8844581850000001,0.300719445,-0.344420505
1764764605.6562638,-1.73964,3.55558,-0.7019599999999999,-0.8844581850000001,0.300719445,-0.344420505
1764764605.6562638,-1.73964,3.55558,-0.7019599999999999,-0.8844581850000001,0.300719445,-0.344420505
1764764605.6562638,-0.97664,3.44876,-0.47306,-0.88573992,0.300841515,-0.34411533
1764764605.6562638,-0.97664,3.44876,-0.47306,-0.88573992,0.300841515,-0.34411533
1764764605.6562638,-0.97664,3.44876,-0.47306,-0.88573992,0.300841515,-0.34411533
1764764605.6562638,-0.97664,3.44876,-0.47306,-0.88573992,0.300841515,-0.34411533
1764764605.6562638,-0.97664,3.44876,-0.47306,-0.88573992,0.300841515,-0.34411533
1764764605.6562638,-0.97664,3.44876,-0.47306,-0.88573992,0.300841515,-0.34411533
1764764605.6562638,-0.97664,3.44876,-0.47306,-0.88573992,0.300841515,-0.34411533
1764764605.6562638,-0.97664,3.44876,-0.47306,-0.88573992,0.300841515,-0.34411533
1764764605.6562638,-0.97664,3.44876,-0.47306,-0.88573992,0.300841515,-0.34411533
1764764605.6562638,-0.97664,3.44876,-0.47306,-0.88573992,0.300841515,-0.34411533
1764764605.6562638,-0.7019599999999999,3.21986,-0.01526,-0.88598406,0.300475305,-0.344420505
1764764605.6562638,-0.7019599999999999,3.21986,-0.01526,-0.88598406,0.300475305,-0.344420505
1764764605.6562638,-0.7019599999999999,3.21986,-0.01526,-0.88598406,0.300475305,-0.344420505
1764764605.6562638,-0.7019599999999999,3.21986,-0.01526,-0.88598406,0.300475305,-0.344420505
1764764605.7036486,-0.7019599999999999,3.21986,-0.01526,-0.88598406,0.300475305,-0.344420505
1764764605.7036486,-0.7019599999999999,3.21986,-0.01526,-0.88598406,0.300475305,-0.344420505
1764764605.7036486,-0.7019599999999999,3.21986,-0.01526,-0.88598406,0.300475305,-0.344420505
1764764605.7036486,-0.7019599999999999,3.21986,-0.01526,-0.88598406,0.300475305,-0.344420505
1764764605.7036486,-0.7019599999999999,3.21986,-0.01526,-0.88598406,0.300475305,-0.344420505
1764764605.7036486,-0.7019599999999999,3.21986,-0.01526,-0.88598406,0.300475305,-0.344420505
1764764605.7036486,-0.1678599999999999,3.41824,0.21364,-0.88525164,0.29980392,-0.343932225
1764764605.7036486,-0.1678599999999999,3.41824,0.21364,-0.88525164,0.29980392,-0.343932225
1764764605.7036486,-0.1678599999999999,3.41824,0.21364,-0.88525164,0.29980392,-0.343932225
1764764605.7036486,-0.1678599999999999,3.41824,0.21364,-0.88525164,0.29980392,-0.343932225
1764764605.7036486,-0.1678599999999999,3.41824,0.21364,-0.88525164,0.29980392,-0.343932225
1764764605.7036486,-0.1678599999999999,3.41824,0.21364,-0.88525164,0.29980392,-0.343932225
1764764605.7036486,-0.1678599999999999,3.41824,0.21364,-0.88525164,0.29980392,-0.343932225
1764764605.7036486,-0.1678599999999999,3.41824,0.21364,-0.88525164,0.29980392,-0.343932225
1764764605.7036486,-0.1678599999999999,3.41824,0.21364,-0.88525164,0.29980392,-0.343932225
1764764605.7036486,-0.1678599999999999,3.41824,0.21364,-0.88525164,0.29980392,-0.343932225
1764764605.7036486,-0.01526,3.70818,0.01526,-0.88451922,0.300719445,-0.34362705
1764764605.7036486,-0.01526,3.70818,0.01526,-0.88451922,0.300719445,-0.34362705
1764764605.7036486,-0.01526,3.70818,0.01526,-0.88451922,0.300719445,-0.34362705
1764764605.7036486,-0.01526,3.70818,0.01526,-0.88451922,0.300719445,-0.34362705
1764764605.7036486,-0.01526,3.70818,0.01526,-0.88451922,0.300719445,-0.34362705
1764764605.7036486,-0.01526,3.70818,0.01526,-0.88451922,0.300719445,-0.34362705
1764764605.7036486,-0.01526,3.70818,0.01526,-0.88451922,0.300719445,-0.34362705
1764764605.7036486,-0.01526,3.70818,0.01526,-0.88451922,0.300719445,-0.34362705
1764764605.7036486,-0.01526,3.70818,0.01526,-0.88451922,0.300719445,-0.34362705
1764764605.7036486,-0.01526,3.70818,0.01526,-0.88451922,0.300719445,-0.34362705
1764764605.746633,0.93086,3.95234,0.6714399999999999,-0.885190605,0.300475305,-0.34350498
1764764605.746633,0.93086,3.95234,0.6714399999999999,-0.885190605,0.300475305,-0.34350498
1764764605.746633,0.93086,3.95234,0.6714399999999999,-0.885190605,0.300475305,-0.34350498
1764764605.746633,0.93086,3.95234,0.6714399999999999,-0.885190605,0.300475305,-0.34350498
1764764605.746633,0.93086,3.95234,0.6714399999999999,-0.885190605,0.300475305,-0.34350498
1764764605.746633,0.93086,3.95234,0.6714399999999999,-0.885190605,0.300475305,-0.34350498
1764764605.746633,0.93086,3.95234,0.6714399999999999,-0.885190605,0.300475305,-0.34350498
1764764605.746633,0.93086,3.95234,0.6714399999999999,-0.885190605,0.300475305,-0.34350498
1764764605.746633,0.93086,3.95234,0.6714399999999999,-0.885190605,0.300475305,-0.34350498
1764764605.746633,0.93086,3.95234,0.6714399999999999,-0.885190605,0.300475305,-0.34350498
1764764605.7476628,1.15976,5.508859999999999,0.79352,-0.885434745,0.300597375,-0.34484775
1764764605.7476628,1.15976,5.508859999999999,0.79352,-0.885434745,0.300597375,-0.34484775
1764764605.7476628,1.15976,5.508859999999999,0.79352,-0.885434745,0.300597375,-0.34484775
1764764605.7476628,1.15976,5.508859999999999,0.79352,-0.885434745,0.300597375,-0.34484775
1764764605.7476628,1.15976,5.508859999999999,0.79352,-0.885434745,0.300597375,-0.34484775
1764764605.7476628,1.15976,5.508859999999999,0.79352,-0.885434745,0.300597375,-0.34484775
1764764605.7476628,1.15976,5.508859999999999,0.79352,-0.885434745,0.300597375,-0.34484775
1764764605.7476628,1.15976,5.508859999999999,0.79352,-0.885434745,0.300597375,-0.34484775
1764764605.7476628,1.15976,5.508859999999999,0.79352,-0.885434745,0.300597375,-0.34484775
1764764605.7476628,1.15976,5.508859999999999,0.79352,-0.885434745,0.300597375,-0.34484775
1764764605.7476628,1.12924,8.14884,0.8698199999999999,-0.884214045,0.300109095,-0.34533603
1764764605.7476628,1.12924,8.14884,0.8698199999999999,-0.884214045,0.300109095,-0.34533603
1764764605.7476628,1.12924,8.14884,0.8698199999999999,-0.884214045,0.300109095,-0.34533603
1764764605.7476628,1.12924,8.14884,0.8698199999999999,-0.884214045,0.300109095,-0.34533603
1764764605.794087,1.12924,8.14884,0.8698199999999999,-0.884214045,0.300109095,-0.34533603
1764764605.794087,1.12924,8.14884,0.8698199999999999,-0.884214045,0.300109095,-0.34533603
1764764605.794087,1.12924,8.14884,0.8698199999999999,-0.884214045,0.300109095,-0.34533603
1764764605.7953193,1.12924,8.14884,0.8698199999999999,-0.884214045,0.300109095,-0.34533603
1764764605.7953193,1.12924,8.14884,0.8698199999999999,-0.884214045,0.300109095,-0.34533603
1764764605.7953193,1.12924,8.14884,0.8698199999999999,-0.884214045,0.300109095,-0.34533603
1764764605.7953193,0.10682,7.309539999999999,0.1525999999999999,-0.884946465,0.299620815,-0.347838465
1764764605.7953193,0.10682,7.309539999999999,0.1525999999999999,-0.884946465,0.299620815,-0.347838465
1764764605.7953193,0.10682,7.309539999999999,0.1525999999999999,-0.884946465,0.299620815,-0.347838465
1764764605.7953193,0.10682,7.309539999999999,0.1525999999999999,-0.884946465,0.299620815,-0.347838465
1764764605.7953193,0.10682,7.309539999999999,0.1525999999999999,-0.884946465,0.299620815,-0.347838465
1764764605.7953193,0.10682,7.309539999999999,0.1525999999999999,-0.884946465,0.299620815,-0.347838465
1764764605.7953193,0.10682,7.309539999999999,0.1525999999999999,-0.884946465,0.299620815,-0.347838465
1764764605.7953193,0.10682,7.309539999999999,0.1525999999999999,-0.884946465,0.299620815,-0.347838465
1764764605.7953193,0.10682,7.309539999999999,0.1525999999999999,-0.884946465,0.299620815,-0.347838465
1764764605.7953193,0.10682,7.309539999999999,0.1525999999999999,-0.884946465,0.299620815,-0.347838465
1764764605.7953193,-1.41918,7.309539999999999,1.00716,-0.88671648,0.300963585,-0.3491202
1764764605.7953193,-1.41918,7.309539999999999,1.00716,-0.88671648,0.300963585,-0.3491202
1764764605.7953193,-1.41918,7.309539999999999,1.00716,-0.88671648,0.300963585,-0.3491202
1764764605.7953193,-1.41918,7.309539999999999,1.00716,-0.88671648,0.300963585,-0.3491202
1764764605.7953193,-1.41918,7.309539999999999,1.00716,-0.88671648,0.300963585,-0.3491202
1764764605.7953193,-1.41918,7.309539999999999,1.00716,-0.88671648,0.300963585,-0.3491202
1764764605.841856,-1.41918,7.309539999999999,1.00716,-0.88671648,0.300963585,-0.3491202
1764764605.841856,-1.41918,7.309539999999999,1.00716,-0.88671648,0.300963585,-0.3491202
1764764605.841856,-1.41918,7.309539999999999,1.00716,-0.88671648,0.300963585,-0.3491202
1764764605.841856,-1.41918,7.309539999999999,1.00716,-0.88671648,0.300963585,-0.3491202
1764764605.841856,-3.60136,6.867,1.4497,-0.886777515,0.303527055,-0.34948641
1764764605.841856,-3.60136,6.867,1.4497,-0.886777515,0.303527055,-0.34948641
1764764605.841856,-3.60136,6.867,1.4497,-0.886777515,0.303527055,-0.34948641
1764764605.841856,-3.60136,6.867,1.4497,-0.886777515,0.303527055,-0.34948641
1764764605.841856,-3.60136,6.867,1.4497,-0.886777515,0.303527055,-0.34948641
1764764605.841856,-3.60136,6.867,1.4497,-0.886777515,0.303527055,-0.34948641
1764764605.841856,-3.60136,6.867,1.4497,-0.886777515,0.303527055,-0.34948641
1764764605.841856,-3.60136,6.867,1.4497,-0.886777515,0.303527055,-0.34948641
1764764605.841856,-3.60136,6.867,1.4497,-0.886777515,0.303527055,-0.34948641
1764764605.841856,-3.60136,6.867,1.4497,-0.886777515,0.303527055,-0.34948641
1764764605.841856,-5.1884,6.2566,1.81594,-0.88586199,0.30371016,-0.34924227
1764764605.841856,-5.1884,6.2566,1.81594,-0.88586199,0.30371016,-0.34924227
1764764605.841856,-5.1884,6.2566,1.81594,-0.88586199,0.30371016,-0.34924227
1764764605.841856,-5.1884,6.2566,1.81594,-0.88586199,0.30371016,-0.34924227
1764764605.841856,-5.1884,6.2566,1.81594,-0.88586199,0.30371016,-0.34924227
1764764605.841856,-5.1884,6.2566,1.81594,-0.88586199,0.30371016,-0.34924227
1764764605.841856,-5.1884,6.2566,1.81594,-0.88586199,0.30371016,-0.34924227
1764764605.841856,-5.1884,6.2566,1.81594,-0.88586199,0.30371016,-0.34924227
1764764605.8428657,-5.1884,6.2566,1.81594,-0.88586199,0.30371016,-0.34924227
1764764605.8428657,-5.1884,6.2566,1.81594,-0.88586199,0.30371016,-0.34924227
1764764605.8885715,-5.06632,5.55464,1.12924,-0.884214045,0.302306355,-0.349303305
1764764605.8885715,-5.06632,5.55464,1.12924,-0.884214045,0.302306355,-0.349303305
1764764605.8885715,-5.06632,5.55464,1.12924,-0.884214045,0.302306355,-0.349303305
1764764605.8885715,-5.06632,5.55464,1.12924,-0.884214045,0.302306355,-0.349303305
1764764605.8885715,-5.06632,5.55464,1.12924,-0.884214045,0.302306355,-0.349303305
1764764605.8885715,-5.06632,5.55464,1.12924,-0.884214045,0.302306355,-0.349303305
1764764605.8885715,-5.06632,5.55464,1.12924,-0.884214045,0.302306355,-0.349303305
1764764605.8885715,-5.06632,5.55464,1.12924,-0.884214045,0.302306355,-0.349303305
1764764605.8885715,-5.06632,5.55464,1.12924,-0.884214045,0.302306355,-0.349303305
1764764605.8885715,-5.06632,5.55464,1.12924,-0.884214045,0.302306355,-0.349303305
1764764605.8885715,-4.77638,4.822159999999999,0.3815,-0.88293231,0.299987025,-0.34863192
1764764605.8885715,-4.77638,4.822159999999999,0.3815,-0.88293231,0.299987025,-0.34863192
1764764605.8885715,-4.77638,4.822159999999999,0.3815,-0.88293231,0.299987025,-0.34863192
1764764605.8885715,-4.77638,4.822159999999999,0.3815,-0.88293231,0.299987025,-0.34863192
1764764605.8885715,-4.77638,4.822159999999999,0.3815,-0.88293231,0.299987025,-0.34863192
1764764605.8885715,-4.77638,4.822159999999999,0.3815,-0.88293231,0.299987025,-0.34863192
1764764605.8885715,-4.77638,4.822159999999999,0.3815,-0.88293231,0.299987025,-0.34863192
1764764605.8885715,-4.77638,4.822159999999999,0.3815,-0.88293231,0.299987025,-0.34863192
1764764605.889082,-4.77638,4.822159999999999,0.3815,-0.88293231,0.299987025,-0.34863192
1764764605.889082,-4.77638,4.822159999999999,0.3815,-0.88293231,0.299987025,-0.34863192
1764764605.889082,-4.76112,3.75396,0.79352,-0.8825661,0.301329795,-0.34765536
1764764605.889082,-4.76112,3.75396,0.79352,-0.8825661,0.301329795,-0.34765536
1764764605.889082,-4.76112,3.75396,0.79352,-0.8825661,0.301329795,-0.34765536
1764764605.889082,-4.76112,3.75396,0.79352,-0.8825661,0.301329795,-0.34765536
1764764605.9352088,-4.76112,3.75396,0.79352,-0.8825661,0.301329795,-0.34765536
1764764605.9352088,-4.76112,3.75396,0.79352,-0.8825661,0.301329795,-0.34765536
1764764605.9352088,-4.76112,3.75396,0.79352,-0.8825661,0.301329795,-0.34765536
1764764605.9352088,-4.76112,3.75396,0.79352,-0.8825661,0.301329795,-0.34765536
1764764605.9352088,-4.76112,3.75396,0.79352,-0.8825661,0.301329795,-0.34765536
1764764605.9352088,-4.76112,3.75396,0.79352,-0.8825661,0.301329795,-0.34765536
1764764605.9352088,-4.60852,2.2127,0.93086,-0.883359555,0.30297774,-0.348082605
1764764605.9352088,-4.60852,2.2127,0.93086,-0.883359555,0.30297774,-0.348082605
1764764605.9352088,-4.60852,2.2127,0.93086,-0.883359555,0.30297774,-0.348082605
1764764605.9352088,-4.60852,2.2127,0.93086,-0.883359555,0.30297774,-0.348082605
1764764605.9352088,-4.60852,2.2127,0.93086,-0.883359555,0.30297774,-0.348082605
1764764605.9352088,-4.60852,2.2127,0.93086,-0.883359555,0.30297774,-0.348082605
1764764605.9352088,-4.60852,2.2127,0.93086,-0.883359555,0.30297774,-0.348082605
1764764605.9352088,-4.60852,2.2127,0.93086,-0.883359555,0.30297774,-0.348082605
1764764605.9352088,-4.60852,2.2127,0.93086,-0.883359555,0.30297774,-0.348082605
1764764605.9352088,-4.60852,2.2127,0.93086,-0.883359555,0.30297774,-0.348082605
1764764605.9352088,-3.64714,1.64808,0.8087799999999999,-0.8844581850000001,0.302550495,-0.346983975
1764764605.9352088,-3.64714,1.64808,0.8087799999999999,-0.8844581850000001,0.302550495,-0.346983975
1764764605.9352088,-3.64714,1.64808,0.8087799999999999,-0.8844581850000001,0.302550495,-0.346983975
1764764605.9352088,-3.64714,1.64808,0.8087799999999999,-0.8844581850000001,0.302550495,-0.346983975
1764764605.9352088,-3.64714,1.64808,0.8087799999999999,-0.8844581850000001,0.302550495,-0.346983975
1764764605.9352088,-3.64714,1.64808,0.8087799999999999,-0.8844581850000001,0.302550495,-0.346983975
1764764605.9812913,-3.64714,1.64808,0.8087799999999999,-0.8844581850000001,0.302550495,-0.346983975
1764764605.9812913,-3.64714,1.64808,0.8087799999999999,-0.8844581850000001,0.302550495,-0.346983975
1764764605.9812913,-3.64714,1.64808,0.8087799999999999,-0.8844581850000001,0.302550495,-0.346983975
1764764605.9812913,-3.64714,1.64808,0.8087799999999999,-0.8844581850000001,0.302550495,-0.346983975
1764764605.9822965,-2.02958,1.32762,0.9919,-0.885068535,0.30041427,-0.34594638
1764764605.9822965,-2.02958,1.32762,0.9919,-0.885068535,0.30041427,-0.34594638
1764764605.9822965,-2.02958,1.32762,0.9919,-0.885068535,0.30041427,-0.34594638
1764764605.9822965,-2.02958,1.32762,0.9919,-0.885068535,0.30041427,-0.34594638
1764764605.9822965,-2.02958,1.32762,0.9919,-0.885068535,0.30041427,-0.34594638
1764764605.9822965,-2.02958,1.32762,0.9919,-0.885068535,0.30041427,-0.34594638
1764764605.9822965,-2.02958,1.32762,0.9919,-0.885068535,0.30041427,-0.34594638
1764764605.9822965,-2.02958,1.32762,0.9919,-0.885068535,0.30041427,-0.34594638
1764764605.9822965,-2.02958,1.32762,0.9919,-0.885068535,0.30041427,-0.34594638
1764764605.9822965,-2.02958,1.32762,0.9919,-0.885068535,0.30041427,-0.34594638
1764764605.9822965,-0.27468,1.25132,1.8312,-0.88561785,0.30004806,-0.344542575
1764764605.9822965,-0.27468,1.25132,1.8312,-0.88561785,0.30004806,-0.344542575
1764764605.9832964,-0.27468,1.25132,1.8312,-0.88561785,0.30004806,-0.344542575
1764764605.9832964,-0.27468,1.25132,1.8312,-0.88561785,0.30004806,-0.344542575
1764764605.9832964,-0.27468,1.25132,1.8312,-0.88561785,0.30004806,-0.344542575
1764764605.9832964,-0.27468,1.25132,1.8312,-0.88561785,0.30004806,-0.344542575
1764764605.9832964,-0.27468,1.25132,1.8312,-0.88561785,0.30004806,-0.344542575
