Timestamp,GyroX,GyroY,GyroZ,AccX,AccY,AccZ
1764763199.7180047,-3.83026,0.85456,1.09872,0.94616457,-0.297179415,0.09008766
1764763199.7180047,-3.83026,0.85456,1.09872,0.94616457,-0.297179415,0.09008766
1764763199.7180047,-3.83026,0.85456,1.09872,0.94616457,-0.297179415,0.09008766
1764763199.7180047,-3.83026,0.85456,1.09872,0.94616457,-0.297179415,0.09008766
1764763199.7180047,-3.83026,0.85456,1.09872,0.94616457,-0.297179415,0.09008766
1764763199.7180047,-3.83026,0.85456,1.09872,0.94616457,-0.297179415,0.09008766
1764763199.7180047,-3.83026,0.85456,1.09872,0.94616457,-0.297179415,0.09008766
1764763199.7185235,-3.83026,0.85456,1.09872,0.94616457,-0.297179415,0.09008766
1764763199.7185235,-3.83026,0.85456,1.09872,0.94616457,-0.297179415,0.09008766
1764763199.7185235,-4.83742,1.54126,1.6022999999999998,0.947080095,-0.298400115,0.0903318
1764763199.7185235,-4.83742,1.54126,1.6022999999999998,0.947080095,-0.298400115,0.0903318
1764763199.7185235,-4.83742,1.54126,1.6022999999999998,0.947080095,-0.298400115,0.0903318
1764763199.7185235,-4.83742,1.54126,1.6022999999999998,0.947080095,-0.298400115,0.0903318
1764763199.7185235,-4.83742,1.54126,1.6022999999999998,0.947080095,-0.298400115,0.0903318
1764763199.7185235,-4.83742,1.54126,1.6022999999999998,0.947080095,-0.298400115,0.0903318
1764763199.7185235,-4.83742,1.54126,1.6022999999999998,0.947080095,-0.298400115,0.0903318
1764763199.7185235,-4.83742,1.54126,1.6022999999999998,0.947080095,-0.298400115,0.0903318
1764763199.7185235,-4.83742,1.54126,1.6022999999999998,0.947080095,-0.298400115,0.0903318
1764763199.7185235,-4.83742,1.54126,1.6022999999999998,0.947080095,-0.298400115,0.0903318
1764763199.7185235,-3.99812,1.78542,2.01432,0.946713885,-0.30090255,0.09094215
1764763199.7185235,-3.99812,1.78542,2.01432,0.946713885,-0.30090255,0.09094215
1764763199.766111,-3.99812,1.78542,2.01432,0.946713885,-0.30090255,0.09094215
1764763199.766111,-3.99812,1.78542,2.01432,0.946713885,-0.30090255,0.09094215
1764763199.766111,-3.99812,1.78542,2.01432,0.946713885,-0.30090255,0.09094215
1764763199.766111,-3.99812,1.78542,2.01432,0.946713885,-0.30090255,0.09094215
1764763199.766111,-3.99812,1.78542,2.01432,0.946713885,-0.30090255,0.09094215
1764763199.766111,-3.99812,1.78542,2.01432,0.946713885,-0.30090255,0.09094215
1764763199.766111,-3.99812,1.78542,2.01432,0.946713885,-0.30090255,0.09094215
1764763199.766111,-3.99812,1.78542,2.01432,0.946713885,-0.30090255,0.09094215
1764763199.766111,-4.21176,0.39676,1.61756,0.94299075,-0.30102462,0.090026625
1764763199.7669508,-4.21176,0.39676,1.61756,0.94299075,-0.30102462,0.090026625
1764763199.7669508,-4.21176,0.39676,1.61756,0.94299075,-0.30102462,0.090026625
1764763199.7669508,-4.21176,0.39676,1.61756,0.94299075,-0.30102462,0.090026625
1764763199.7669508,-4.21176,0.39676,1.61756,0.94299075,-0.30102462,0.090026625
1764763199.7669508,-4.21176,0.39676,1.61756,0.94299075,-0.30102462,0.090026625
1764763199.7669508,-4.21176,0.39676,1.61756,0.94299075,-0.30102462,0.090026625
1764763199.7669508,-4.21176,0.39676,1.61756,0.94299075,-0.30102462,0.090026625
1764763199.7669508,-4.21176,0.39676,1.61756,0.94299075,-0.30102462,0.090026625
1764763199.7669508,-4.21176,0.39676,1.61756,0.94299075,-0.30102462,0.090026625
1764763199.7669508,-3.57084,0.1678599999999999,1.28184,0.94250247,-0.302550495,0.09020973
1764763199.7669508,-3.57084,0.1678599999999999,1.28184,0.94250247,-0.302550495,0.09020973
1764763199.7669508,-3.57084,0.1678599999999999,1.28184,0.94250247,-0.302550495,0.09020973
1764763199.7669508,-3.57084,0.1678599999999999,1.28184,0.94250247,-0.302550495,0.09020973
1764763199.7669508,-3.57084,0.1678599999999999,1.28184,0.94250247,-0.302550495,0.09020973
1764763199.7669508,-3.57084,0.1678599999999999,1.28184,0.94250247,-0.302550495,0.09020973
1764763199.8141828,-3.57084,0.1678599999999999,1.28184,0.94250247,-0.302550495,0.09020973
1764763199.8141828,-3.57084,0.1678599999999999,1.28184,0.94250247,-0.302550495,0.09020973
1764763199.8141828,-3.57084,0.1678599999999999,1.28184,0.94250247,-0.302550495,0.09020973
1764763199.8141828,-3.57084,0.1678599999999999,1.28184,0.94250247,-0.302550495,0.09020973
1764763199.8141828,-2.9757,0.36624,1.05294,0.943906275,-0.30297774,0.09045387
1764763199.8141828,-2.9757,0.36624,1.05294,0.943906275,-0.30297774,0.09045387
1764763199.8141828,-2.9757,0.36624,1.05294,0.943906275,-0.30297774,0.09045387
1764763199.8141828,-2.9757,0.36624,1.05294,0.943906275,-0.30297774,0.09045387
1764763199.8141828,-2.9757,0.36624,1.05294,0.943906275,-0.30297774,0.09045387
1764763199.8141828,-2.9757,0.36624,1.05294,0.943906275,-0.30297774,0.09045387
1764763199.8153963,-2.9757,0.36624,1.05294,0.943906275,-0.30297774,0.09045387
1764763199.8153963,-2.9757,0.36624,1.05294,0.943906275,-0.30297774,0.09045387
1764763199.8153963,-2.9757,0.36624,1.05294,0.943906275,-0.30297774,0.09045387
1764763199.8153963,-2.9757,0.36624,1.05294,0.943906275,-0.30297774,0.09045387
1764763199.8153963,-4.10494,0.85456,1.0682,0.943662135,-0.30090255,0.090270765
1764763199.8153963,-4.10494,0.85456,1.0682,0.943662135,-0.30090255,0.090270765
1764763199.8153963,-4.10494,0.85456,1.0682,0.943662135,-0.30090255,0.090270765
1764763199.8153963,-4.10494,0.85456,1.0682,0.943662135,-0.30090255,0.090270765
1764763199.8153963,-4.10494,0.85456,1.0682,0.943662135,-0.30090255,0.090270765
1764763199.8153963,-4.10494,0.85456,1.0682,0.943662135,-0.30090255,0.090270765
1764763199.8153963,-4.10494,0.85456,1.0682,0.943662135,-0.30090255,0.090270765
1764763199.8153963,-4.10494,0.85456,1.0682,0.943662135,-0.30090255,0.090270765
1764763199.8153963,-4.10494,0.85456,1.0682,0.943662135,-0.30090255,0.090270765
1764763199.8153963,-4.10494,0.85456,1.0682,0.943662135,-0.30090255,0.090270765
1764763199.8627398,-4.5017,0.85456,0.82404,0.9436011,-0.300597375,0.089782485
1764763199.8627398,-4.5017,0.85456,0.82404,0.9436011,-0.300597375,0.089782485
1764763199.8627398,-4.5017,0.85456,0.82404,0.9436011,-0.300597375,0.089782485
1764763199.8627398,-4.5017,0.85456,0.82404,0.9436011,-0.300597375,0.089782485
1764763199.8627398,-4.5017,0.85456,0.82404,0.9436011,-0.300597375,0.089782485
1764763199.8627398,-4.5017,0.85456,0.82404,0.9436011,-0.300597375,0.089782485
1764763199.8627398,-4.5017,0.85456,0.82404,0.9436011,-0.300597375,0.089782485
1764763199.8627398,-4.5017,0.85456,0.82404,0.9436011,-0.300597375,0.089782485
1764763199.8627398,-4.5017,0.85456,0.82404,0.9436011,-0.300597375,0.089782485
1764763199.8627398,-4.5017,0.85456,0.82404,0.9436011,-0.300597375,0.089782485
1764763199.8627398,-4.99002,0.47306,0.85456,0.943906275,-0.30053634,0.08972145
1764763199.8627398,-4.99002,0.47306,0.85456,0.943906275,-0.30053634,0.08972145
1764763199.8627398,-4.99002,0.47306,0.85456,0.943906275,-0.30053634,0.08972145
1764763199.8627398,-4.99002,0.47306,0.85456,0.943906275,-0.30053634,0.08972145
1764763199.8627398,-4.99002,0.47306,0.85456,0.943906275,-0.30053634,0.08972145
1764763199.8627398,-4.99002,0.47306,0.85456,0.943906275,-0.30053634,0.08972145
1764763199.8627398,-4.99002,0.47306,0.85456,0.943906275,-0.30053634,0.08972145
1764763199.8627398,-4.99002,0.47306,0.85456,0.943906275,-0.30053634,0.08972145
1764763199.8627398,-4.99002,0.47306,0.85456,0.943906275,-0.30053634,0.08972145
1764763199.8627398,-4.99002,0.47306,0.85456,0.943906275,-0.30053634,0.08972145
1764763199.8627398,-4.53222,0.59514,0.6867,0.944028345,-0.301207725,0.090392835
1764763199.8627398,-4.53222,0.59514,0.6867,0.944028345,-0.301207725,0.090392835
1764763199.8627398,-4.53222,0.59514,0.6867,0.944028345,-0.301207725,0.090392835
1764763199.8627398,-4.53222,0.59514,0.6867,0.944028345,-0.301207725,0.090392835
1764763199.9059713,-4.53222,0.59514,0.6867,0.944028345,-0.301207725,0.090392835
1764763199.9059713,-4.53222,0.59514,0.6867,0.944028345,-0.301207725,0.090392835
1764763199.9059713,-4.53222,0.59514,0.6867,0.944028345,-0.301207725,0.090392835
1764763199.9069834,-4.53222,0.59514,0.6867,0.944028345,-0.301207725,0.090392835
1764763199.9069834,-4.53222,0.59514,0.6867,0.944028345,-0.301207725,0.090392835
1764763199.9069834,-4.53222,0.59514,0.6867,0.944028345,-0.301207725,0.090392835
1764763199.9069834,-4.18124,0.65618,0.82404,0.9436011,-0.301573935,0.08972145
1764763199.9069834,-4.18124,0.65618,0.82404,0.9436011,-0.301573935,0.08972145
1764763199.9069834,-4.18124,0.65618,0.82404,0.9436011,-0.301573935,0.08972145
1764763199.9069834,-4.18124,0.65618,0.82404,0.9436011,-0.301573935,0.08972145
1764763199.9069834,-4.18124,0.65618,0.82404,0.9436011,-0.301573935,0.08972145
1764763199.9069834,-4.18124,0.65618,0.82404,0.9436011,-0.301573935,0.08972145
1764763199.9069834,-4.18124,0.65618,0.82404,0.9436011,-0.301573935,0.08972145
1764763199.907978,-4.18124,0.65618,0.82404,0.9436011,-0.301573935,0.08972145
1764763199.907978,-4.18124,0.65618,0.82404,0.9436011,-0.301573935,0.08972145
1764763199.907978,-4.18124,0.65618,0.82404,0.9436011,-0.301573935,0.08972145
1764763199.907978,-4.22702,0.763,0.96138,0.94384524,-0.30090255,0.08923317
1764763199.907978,-4.22702,0.763,0.96138,0.94384524,-0.30090255,0.08923317
1764763199.907978,-4.22702,0.763,0.96138,0.94384524,-0.30090255,0.08923317
1764763199.907978,-4.22702,0.763,0.96138,0.94384524,-0.30090255,0.08923317
1764763199.907978,-4.22702,0.763,0.96138,0.94384524,-0.30090255,0.08923317
1764763199.907978,-4.22702,0.763,0.96138,0.94384524,-0.30090255,0.08923317
1764763199.9544487,-4.22702,0.763,0.96138,0.94384524,-0.30090255,0.08923317
1764763199.9544487,-4.22702,0.763,0.96138,0.94384524,-0.30090255,0.08923317
1764763199.9544487,-4.22702,0.763,0.96138,0.94384524,-0.30090255,0.08923317
1764763199.9544487,-4.22702,0.763,0.96138,0.94384524,-0.30090255,0.08923317
1764763199.9544487,-4.47118,0.6409199999999999,0.6714399999999999,0.94445559,-0.30041427,0.088683855
1764763199.9544487,-4.47118,0.6409199999999999,0.6714399999999999,0.94445559,-0.30041427,0.088683855
1764763199.9544487,-4.47118,0.6409199999999999,0.6714399999999999,0.94445559,-0.30041427,0.088683855
1764763199.9550357,-4.47118,0.6409199999999999,0.6714399999999999,0.94445559,-0.30041427,0.088683855
1764763199.9550357,-4.47118,0.6409199999999999,0.6714399999999999,0.94445559,-0.30041427,0.088683855
1764763199.9550357,-4.47118,0.6409199999999999,0.6714399999999999,0.94445559,-0.30041427,0.088683855
1764763199.9550357,-4.47118,0.6409199999999999,0.6714399999999999,0.94445559,-0.30041427,0.088683855
1764763199.9550357,-4.47118,0.6409199999999999,0.6714399999999999,0.94445559,-0.30041427,0.088683855
1764763199.9550357,-4.47118,0.6409199999999999,0.6714399999999999,0.94445559,-0.30041427,0.088683855
1764763199.9550357,-4.47118,0.6409199999999999,0.6714399999999999,0.94445559,-0.30041427,0.088683855
1764763199.9550357,-4.21176,0.56462,1.61756,0.944028345,-0.301207725,0.0878904
1764763199.9550357,-4.21176,0.56462,1.61756,0.944028345,-0.301207725,0.0878904
1764763199.9550357,-4.21176,0.56462,1.61756,0.944028345,-0.301207725,0.0878904
1764763199.9550357,-4.21176,0.56462,1.61756,0.944028345,-0.301207725,0.0878904
1764763199.9550357,-4.21176,0.56462,1.61756,0.944028345,-0.301207725,0.0878904
1764763199.9550357,-4.21176,0.56462,1.61756,0.944028345,-0.301207725,0.0878904
1764763199.9550357,-4.21176,0.56462,1.61756,0.944028345,-0.301207725,0.0878904
1764763199.9550357,-4.21176,0.56462,1.61756,0.944028345,-0.301207725,0.0878904
1764763199.9560351,-4.21176,0.56462,1.61756,0.944028345,-0.301207725,0.0878904
1764763199.9560351,-4.21176,0.56462,1.61756,0.944028345,-0.301207725,0.0878904
1764763200.0019784,-3.92182,0.3051999999999999,1.3734,0.943173855,-0.30187911,0.0878904
1764763200.0019784,-3.92182,0.3051999999999999,1.3734,0.943173855,-0.30187911,0.0878904
1764763200.0019784,-3.92182,0.3051999999999999,1.3734,0.943173855,-0.30187911,0.0878904
1764763200.0019784,-3.92182,0.3051999999999999,1.3734,0.943173855,-0.30187911,0.0878904
1764763200.0019784,-3.92182,0.3051999999999999,1.3734,0.943173855,-0.30187911,0.0878904
1764763200.0019784,-3.92182,0.3051999999999999,1.3734,0.943173855,-0.30187911,0.0878904
1764763200.0019784,-3.92182,0.3051999999999999,1.3734,0.943173855,-0.30187911,0.0878904
1764763200.0019784,-3.92182,0.3051999999999999,1.3734,0.943173855,-0.30187911,0.0878904
1764763200.0019784,-3.92182,0.3051999999999999,1.3734,0.943173855,-0.30187911,0.0878904
1764763200.0019784,-3.92182,0.3051999999999999,1.3734,0.943173855,-0.30187911,0.0878904
1764763200.0019784,-4.24228,0.25942,0.44254,0.94299075,-0.30200118,0.088317645
1764763200.0019784,-4.24228,0.25942,0.44254,0.94299075,-0.30200118,0.088317645
1764763200.0019784,-4.24228,0.25942,0.44254,0.94299075,-0.30200118,0.088317645
1764763200.0019784,-4.24228,0.25942,0.44254,0.94299075,-0.30200118,0.088317645
1764763200.0019784,-4.24228,0.25942,0.44254,0.94299075,-0.30200118,0.088317645
1764763200.0019784,-4.24228,0.25942,0.44254,0.94299075,-0.30200118,0.088317645
1764763200.0019784,-4.24228,0.25942,0.44254,0.94299075,-0.30200118,0.088317645
1764763200.0019784,-4.24228,0.25942,0.44254,0.94299075,-0.30200118,0.088317645
1764763200.0019784,-4.24228,0.25942,0.44254,0.94299075,-0.30200118,0.088317645
1764763200.0019784,-4.24228,0.25942,0.44254,0.94299075,-0.30200118,0.088317645
1764763200.0019784,-4.45592,0.8698199999999999,-0.21364,0.944394555,-0.300963585,0.087951435
1764763200.0019784,-4.45592,0.8698199999999999,-0.21364,0.944394555,-0.300963585,0.087951435
1764763200.0019784,-4.45592,0.8698199999999999,-0.21364,0.944394555,-0.300963585,0.087951435
1764763200.0019784,-4.45592,0.8698199999999999,-0.21364,0.944394555,-0.300963585,0.087951435
1764763200.0458038,-4.45592,0.8698199999999999,-0.21364,0.944394555,-0.300963585,0.087951435
1764763200.0458038,-4.45592,0.8698199999999999,-0.21364,0.944394555,-0.300963585,0.087951435
1764763200.0458038,-4.45592,0.8698199999999999,-0.21364,0.944394555,-0.300963585,0.087951435
1764763200.0458038,-4.45592,0.8698199999999999,-0.21364,0.944394555,-0.300963585,0.087951435
1764763200.046129,-4.45592,0.8698199999999999,-0.21364,0.944394555,-0.300963585,0.087951435
1764763200.046129,-4.45592,0.8698199999999999,-0.21364,0.944394555,-0.300963585,0.087951435
1764763200.046129,-4.92898,1.2055399999999998,-0.5341,0.945615255,-0.30114669,0.087463155
1764763200.0471723,-4.92898,1.2055399999999998,-0.5341,0.945615255,-0.30114669,0.087463155
1764763200.0471723,-4.92898,1.2055399999999998,-0.5341,0.945615255,-0.30114669,0.087463155
1764763200.0471723,-4.92898,1.2055399999999998,-0.5341,0.945615255,-0.30114669,0.087463155
1764763200.0471723,-4.92898,1.2055399999999998,-0.5341,0.945615255,-0.30114669,0.087463155
1764763200.0471723,-4.92898,1.2055399999999998,-0.5341,0.945615255,-0.30114669,0.087463155
1764763200.0471723,-4.92898,1.2055399999999998,-0.5341,0.945615255,-0.30114669,0.087463155
1764763200.0471723,-4.92898,1.2055399999999998,-0.5341,0.945615255,-0.30114669,0.087463155
1764763200.0471723,-4.92898,1.2055399999999998,-0.5341,0.945615255,-0.30114669,0.087463155
1764763200.0471723,-4.92898,1.2055399999999998,-0.5341,0.945615255,-0.30114669,0.087463155
1764763200.0471723,-4.08968,1.2055399999999998,0.28994,0.94408938,-0.302672565,0.08752419
1764763200.0471723,-4.08968,1.2055399999999998,0.28994,0.94408938,-0.302672565,0.08752419
1764763200.0471723,-4.08968,1.2055399999999998,0.28994,0.94408938,-0.302672565,0.08752419
1764763200.0471723,-4.08968,1.2055399999999998,0.28994,0.94408938,-0.302672565,0.08752419
1764763200.0471723,-4.08968,1.2055399999999998,0.28994,0.94408938,-0.302672565,0.08752419
1764763200.0471723,-4.08968,1.2055399999999998,0.28994,0.94408938,-0.302672565,0.08752419
1764763200.0481925,-4.08968,1.2055399999999998,0.28994,0.94408938,-0.302672565,0.08752419
1764763200.0481925,-4.08968,1.2055399999999998,0.28994,0.94408938,-0.302672565,0.08752419
1764763200.0954428,-4.08968,1.2055399999999998,0.28994,0.94408938,-0.302672565,0.08752419
1764763200.0954428,-4.08968,1.2055399999999998,0.28994,0.94408938,-0.302672565,0.08752419
1764763200.0954428,-3.8913,0.71722,1.2055399999999998,0.942929715,-0.30383223,0.0866697
1764763200.0954428,-3.8913,0.71722,1.2055399999999998,0.942929715,-0.30383223,0.0866697
1764763200.0954428,-3.8913,0.71722,1.2055399999999998,0.942929715,-0.30383223,0.0866697
1764763200.0954428,-3.8913,0.71722,1.2055399999999998,0.942929715,-0.30383223,0.0866697
1764763200.0954428,-3.8913,0.71722,1.2055399999999998,0.942929715,-0.30383223,0.0866697
1764763200.0954428,-3.8913,0.71722,1.2055399999999998,0.942929715,-0.30383223,0.0866697
1764763200.0954428,-3.8913,0.71722,1.2055399999999998,0.942929715,-0.30383223,0.0866697
1764763200.0954428,-3.8913,0.71722,1.2055399999999998,0.942929715,-0.30383223,0.0866697
1764763200.0954428,-3.8913,0.71722,1.2055399999999998,0.942929715,-0.30383223,0.0866697
1764763200.0954428,-3.8913,0.71722,1.2055399999999998,0.942929715,-0.30383223,0.0866697
1764763200.0954428,-3.95234,0.65618,0.6714399999999999,0.94335696,-0.30285567,0.08618142
1764763200.0954428,-3.95234,0.65618,0.6714399999999999,0.94335696,-0.30285567,0.08618142
1764763200.0954428,-3.95234,0.65618,0.6714399999999999,0.94335696,-0.30285567,0.08618142
1764763200.0954428,-3.95234,0.65618,0.6714399999999999,0.94335696,-0.30285567,0.08618142
1764763200.0954428,-3.95234,0.65618,0.6714399999999999,0.94335696,-0.30285567,0.08618142
1764763200.0954428,-3.95234,0.65618,0.6714399999999999,0.94335696,-0.30285567,0.08618142
1764763200.0954428,-3.95234,0.65618,0.6714399999999999,0.94335696,-0.30285567,0.08618142
1764763200.0954428,-3.95234,0.65618,0.6714399999999999,0.94335696,-0.30285567,0.08618142
1764763200.0954428,-3.95234,0.65618,0.6714399999999999,0.94335696,-0.30285567,0.08618142
1764763200.0954428,-3.95234,0.65618,0.6714399999999999,0.94335696,-0.30285567,0.08618142
1764763200.1420438,-4.45592,0.6714399999999999,-0.18312,0.945126975,-0.30139083,0.08654763
1764763200.1420438,-4.45592,0.6714399999999999,-0.18312,0.945126975,-0.30139083,0.08654763
1764763200.1420438,-4.45592,0.6714399999999999,-0.18312,0.945126975,-0.30139083,0.08654763
1764763200.1420438,-4.45592,0.6714399999999999,-0.18312,0.945126975,-0.30139083,0.08654763
1764763200.1420438,-4.45592,0.6714399999999999,-0.18312,0.945126975,-0.30139083,0.08654763
1764763200.1420438,-4.45592,0.6714399999999999,-0.18312,0.945126975,-0.30139083,0.08654763
1764763200.1420438,-4.45592,0.6714399999999999,-0.18312,0.945126975,-0.30139083,0.08654763
1764763200.1420438,-4.45592,0.6714399999999999,-0.18312,0.945126975,-0.30139083,0.08654763
1764763200.1420438,-4.45592,0.6714399999999999,-0.18312,0.945126975,-0.30139083,0.08654763
1764763200.1420438,-4.45592,0.6714399999999999,-0.18312,0.945126975,-0.30139083,0.08654763
1764763200.1420438,-4.16598,1.61756,-0.48832,0.94689699,-0.301085655,0.087585225
1764763200.1420438,-4.16598,1.61756,-0.48832,0.94689699,-0.301085655,0.087585225
1764763200.1420438,-4.16598,1.61756,-0.48832,0.94689699,-0.301085655,0.087585225
1764763200.143061,-4.16598,1.61756,-0.48832,0.94689699,-0.301085655,0.087585225
1764763200.143061,-4.16598,1.61756,-0.48832,0.94689699,-0.301085655,0.087585225
1764763200.143061,-4.16598,1.61756,-0.48832,0.94689699,-0.301085655,0.087585225
1764763200.143061,-4.16598,1.61756,-0.48832,0.94689699,-0.301085655,0.087585225
1764763200.143061,-4.16598,1.61756,-0.48832,0.94689699,-0.301085655,0.087585225
1764763200.143061,-4.16598,1.61756,-0.48832,0.94689699,-0.301085655,0.087585225
1764763200.143061,-4.16598,1.61756,-0.48832,0.94689699,-0.301085655,0.087585225
1764763200.143061,-3.60136,2.5179,-0.28994,0.94653078,-0.300109095,0.088073505
1764763200.143061,-3.60136,2.5179,-0.28994,0.94653078,-0.300109095,0.088073505
1764763200.143061,-3.60136,2.5179,-0.28994,0.94653078,-0.300109095,0.088073505
1764763200.143061,-3.60136,2.5179,-0.28994,0.94653078,-0.300109095,0.088073505
1764763200.1897702,-3.60136,2.5179,-0.28994,0.94653078,-0.300109095,0.088073505
1764763200.1897702,-3.60136,2.5179,-0.28994,0.94653078,-0.300109095,0.088073505
1764763200.1897702,-3.60136,2.5179,-0.28994,0.94653078,-0.300109095,0.088073505
1764763200.1897702,-3.60136,2.5179,-0.28994,0.94653078,-0.300109095,0.088073505
1764763200.1897702,-3.60136,2.5179,-0.28994,0.94653078,-0.300109095,0.088073505
1764763200.1897702,-3.60136,2.5179,-0.28994,0.94653078,-0.300109095,0.088073505
1764763200.1897702,-3.46402,2.0601,-0.09156,0.94433352,-0.299132535,0.0878904
1764763200.1897702,-3.46402,2.0601,-0.09156,0.94433352,-0.299132535,0.0878904
1764763200.1897702,-3.46402,2.0601,-0.09156,0.94433352,-0.299132535,0.0878904
1764763200.1897702,-3.46402,2.0601,-0.09156,0.94433352,-0.299132535,0.0878904
1764763200.1897702,-3.46402,2.0601,-0.09156,0.94433352,-0.299132535,0.0878904
1764763200.1897702,-3.46402,2.0601,-0.09156,0.94433352,-0.299132535,0.0878904
1764763200.1897702,-3.46402,2.0601,-0.09156,0.94433352,-0.299132535,0.0878904
1764763200.1897702,-3.46402,2.0601,-0.09156,0.94433352,-0.299132535,0.0878904
1764763200.190776,-3.46402,2.0601,-0.09156,0.94433352,-0.299132535,0.0878904
1764763200.190776,-3.46402,2.0601,-0.09156,0.94433352,-0.299132535,0.0878904
1764763200.190776,-4.21176,1.12924,-0.3204599999999999,0.94299075,-0.298033905,0.08752419
1764763200.190776,-4.21176,1.12924,-0.3204599999999999,0.94299075,-0.298033905,0.08752419
1764763200.190776,-4.21176,1.12924,-0.3204599999999999,0.94299075,-0.298033905,0.08752419
1764763200.190776,-4.21176,1.12924,-0.3204599999999999,0.94299075,-0.298033905,0.08752419
1764763200.190776,-4.21176,1.12924,-0.3204599999999999,0.94299075,-0.298033905,0.08752419
1764763200.190776,-4.21176,1.12924,-0.3204599999999999,0.94299075,-0.298033905,0.08752419
1764763200.190776,-4.21176,1.12924,-0.3204599999999999,0.94299075,-0.298033905,0.08752419
1764763200.190776,-4.21176,1.12924,-0.3204599999999999,0.94299075,-0.298033905,0.08752419
1764763200.233703,-4.21176,1.12924,-0.3204599999999999,0.94299075,-0.298033905,0.08752419
1764763200.233703,-4.21176,1.12924,-0.3204599999999999,0.94299075,-0.298033905,0.08752419
1764763200.233703,-4.822159999999999,0.3815,-0.03052,0.942685575,-0.297667695,0.08898903
1764763200.233703,-4.822159999999999,0.3815,-0.03052,0.942685575,-0.297667695,0.08898903
1764763200.233703,-4.822159999999999,0.3815,-0.03052,0.942685575,-0.297667695,0.08898903
1764763200.233703,-4.822159999999999,0.3815,-0.03052,0.942685575,-0.297667695,0.08898903
1764763200.233703,-4.822159999999999,0.3815,-0.03052,0.942685575,-0.297667695,0.08898903
1764763200.233703,-4.822159999999999,0.3815,-0.03052,0.942685575,-0.297667695,0.08898903
1764763200.233703,-4.822159999999999,0.3815,-0.03052,0.942685575,-0.297667695,0.08898903
1764763200.233703,-4.822159999999999,0.3815,-0.03052,0.942685575,-0.297667695,0.08898903
1764763200.233703,-4.822159999999999,0.3815,-0.03052,0.942685575,-0.297667695,0.08898903
1764763200.233703,-4.822159999999999,0.3815,-0.03052,0.942685575,-0.297667695,0.08898903
1764763200.233703,-4.36436,-0.06104,0.51884,0.942929715,-0.2978508,0.089416275
1764763200.233703,-4.36436,-0.06104,0.51884,0.942929715,-0.2978508,0.089416275
1764763200.233703,-4.36436,-0.06104,0.51884,0.942929715,-0.2978508,0.089416275
1764763200.233703,-4.36436,-0.06104,0.51884,0.942929715,-0.2978508,0.089416275
1764763200.233703,-4.36436,-0.06104,0.51884,0.942929715,-0.2978508,0.089416275
1764763200.233703,-4.36436,-0.06104,0.51884,0.942929715,-0.2978508,0.089416275
1764763200.233703,-4.36436,-0.06104,0.51884,0.942929715,-0.2978508,0.089416275
1764763200.233703,-4.36436,-0.06104,0.51884,0.942929715,-0.2978508,0.089416275
1764763200.233703,-4.36436,-0.06104,0.51884,0.942929715,-0.2978508,0.089416275
1764763200.2357142,-4.36436,-0.06104,0.51884,0.942929715,-0.2978508,0.089416275
1764763200.2813675,-4.83742,0.6867,0.93086,0.944394555,-0.29931564,0.088317645
1764763200.2813675,-4.83742,0.6867,0.93086,0.944394555,-0.29931564,0.088317645
1764763200.2813675,-4.83742,0.6867,0.93086,0.944394555,-0.29931564,0.088317645
1764763200.2813675,-4.83742,0.6867,0.93086,0.944394555,-0.29931564,0.088317645
1764763200.2813675,-4.83742,0.6867,0.93086,0.944394555,-0.29931564,0.088317645
1764763200.2813675,-4.83742,0.6867,0.93086,0.944394555,-0.29931564,0.088317645
1764763200.2813675,-4.83742,0.6867,0.93086,0.944394555,-0.29931564,0.088317645
1764763200.2828736,-4.83742,0.6867,0.93086,0.944394555,-0.29931564,0.088317645
1764763200.2828736,-4.83742,0.6867,0.93086,0.944394555,-0.29931564,0.088317645
1764763200.2828736,-4.83742,0.6867,0.93086,0.944394555,-0.29931564,0.088317645
1764763200.2828736,-4.25754,0.74774,1.19028,0.94518801,-0.300109095,0.08776833
1764763200.2828736,-4.25754,0.74774,1.19028,0.94518801,-0.300109095,0.08776833
1764763200.2828736,-4.25754,0.74774,1.19028,0.94518801,-0.300109095,0.08776833
1764763200.2828736,-4.25754,0.74774,1.19028,0.94518801,-0.300109095,0.08776833
1764763200.2828736,-4.25754,0.74774,1.19028,0.94518801,-0.300109095,0.08776833
1764763200.2828736,-4.25754,0.74774,1.19028,0.94518801,-0.300109095,0.08776833
1764763200.2828736,-4.25754,0.74774,1.19028,0.94518801,-0.300109095,0.08776833
1764763200.2828736,-4.25754,0.74774,1.19028,0.94518801,-0.300109095,0.08776833
1764763200.2828736,-4.25754,0.74774,1.19028,0.94518801,-0.300109095,0.08776833
1764763200.2828736,-4.25754,0.74774,1.19028,0.94518801,-0.300109095,0.08776833
1764763200.2828736,-3.95234,1.1445,1.95328,0.945859395,-0.302916705,0.08801247
1764763200.2828736,-3.95234,1.1445,1.95328,0.945859395,-0.302916705,0.08801247
1764763200.2828736,-3.95234,1.1445,1.95328,0.945859395,-0.302916705,0.08801247
1764763200.28386,-3.95234,1.1445,1.95328,0.945859395,-0.302916705,0.08801247
1764763200.3307269,-3.95234,1.1445,1.95328,0.945859395,-0.302916705,0.08801247
1764763200.3307269,-3.95234,1.1445,1.95328,0.945859395,-0.302916705,0.08801247
1764763200.3307269,-3.95234,1.1445,1.95328,0.945859395,-0.302916705,0.08801247
1764763200.3307269,-3.95234,1.1445,1.95328,0.945859395,-0.302916705,0.08801247
1764763200.3307269,-3.95234,1.1445,1.95328,0.945859395,-0.302916705,0.08801247
1764763200.3307269,-3.95234,1.1445,1.95328,0.945859395,-0.302916705,0.08801247
1764763200.3312624,-3.55558,0.36624,1.4039199999999998,0.942929715,-0.302184285,0.087463155
1764763200.3312624,-3.55558,0.36624,1.4039199999999998,0.942929715,-0.302184285,0.087463155
1764763200.3312624,-3.55558,0.36624,1.4039199999999998,0.942929715,-0.302184285,0.087463155
1764763200.3312624,-3.55558,0.36624,1.4039199999999998,0.942929715,-0.302184285,0.087463155
1764763200.3312624,-3.55558,0.36624,1.4039199999999998,0.942929715,-0.302184285,0.087463155
1764763200.3312624,-3.55558,0.36624,1.4039199999999998,0.942929715,-0.302184285,0.087463155
1764763200.3312624,-3.55558,0.36624,1.4039199999999998,0.942929715,-0.302184285,0.087463155
1764763200.3312624,-3.55558,0.36624,1.4039199999999998,0.942929715,-0.302184285,0.087463155
1764763200.3312624,-3.55558,0.36624,1.4039199999999998,0.942929715,-0.302184285,0.087463155
1764763200.3312624,-3.55558,0.36624,1.4039199999999998,0.942929715,-0.302184285,0.087463155
1764763200.3312624,-4.07442,-0.04578,0.88508,0.943540065,-0.301573935,0.08654763
1764763200.3312624,-4.07442,-0.04578,0.88508,0.943540065,-0.301573935,0.08654763
1764763200.3312624,-4.07442,-0.04578,0.88508,0.943540065,-0.301573935,0.08654763
1764763200.3312624,-4.07442,-0.04578,0.88508,0.943540065,-0.301573935,0.08654763
1764763200.3312624,-4.07442,-0.04578,0.88508,0.943540065,-0.301573935,0.08654763
1764763200.3312624,-4.07442,-0.04578,0.88508,0.943540065,-0.301573935,0.08654763
1764763200.3312624,-4.07442,-0.04578,0.88508,0.943540065,-0.301573935,0.08654763
1764763200.3312624,-4.07442,-0.04578,0.88508,0.943540065,-0.301573935,0.08654763
1764763200.3771913,-4.07442,-0.04578,0.88508,0.943540065,-0.301573935,0.08654763
1764763200.3771913,-4.07442,-0.04578,0.88508,0.943540065,-0.301573935,0.08654763
1764763200.3771913,-3.9676,0.7019599999999999,0.59514,0.944760765,-0.302184285,0.086852805
1764763200.3771913,-3.9676,0.7019599999999999,0.59514,0.944760765,-0.302184285,0.086852805
1764763200.3771913,-3.9676,0.7019599999999999,0.59514,0.944760765,-0.302184285,0.086852805
1764763200.3771913,-3.9676,0.7019599999999999,0.59514,0.944760765,-0.302184285,0.086852805
1764763200.3771913,-3.9676,0.7019599999999999,0.59514,0.944760765,-0.302184285,0.086852805
1764763200.3771913,-3.9676,0.7019599999999999,0.59514,0.944760765,-0.302184285,0.086852805
1764763200.3771913,-3.9676,0.7019599999999999,0.59514,0.944760765,-0.302184285,0.086852805
1764763200.3771913,-3.9676,0.7019599999999999,0.59514,0.944760765,-0.302184285,0.086852805
1764763200.3771913,-3.9676,0.7019599999999999,0.59514,0.944760765,-0.302184285,0.086852805
1764763200.3771913,-3.9676,0.7019599999999999,0.59514,0.944760765,-0.302184285,0.086852805
1764763200.3771913,-3.41824,1.32762,0.1678599999999999,0.94457766,-0.30163497,0.08691384
1764763200.3771913,-3.41824,1.32762,0.1678599999999999,0.94457766,-0.30163497,0.08691384
1764763200.3771913,-3.41824,1.32762,0.1678599999999999,0.94457766,-0.30163497,0.08691384
1764763200.3771913,-3.41824,1.32762,0.1678599999999999,0.94457766,-0.30163497,0.08691384
1764763200.3771913,-3.41824,1.32762,0.1678599999999999,0.94457766,-0.30163497,0.08691384
1764763200.378297,-3.41824,1.32762,0.1678599999999999,0.94457766,-0.30163497,0.08691384
1764763200.421825,-3.41824,1.32762,0.1678599999999999,0.94457766,-0.30163497,0.08691384
1764763200.421825,-3.41824,1.32762,0.1678599999999999,0.94457766,-0.30163497,0.08691384
1764763200.422335,-3.41824,1.32762,0.1678599999999999,0.94457766,-0.30163497,0.08691384
1764763200.422335,-3.41824,1.32762,0.1678599999999999,0.94457766,-0.30163497,0.08691384
1764763200.422335,-4.21176,1.11398,-0.10682,0.943540065,-0.301085655,0.08679177
1764763200.422335,-4.21176,1.11398,-0.10682,0.943540065,-0.301085655,0.08679177
1764763200.422335,-4.21176,1.11398,-0.10682,0.943540065,-0.301085655,0.08679177
1764763200.422335,-4.21176,1.11398,-0.10682,0.943540065,-0.301085655,0.08679177
1764763200.422335,-4.21176,1.11398,-0.10682,0.943540065,-0.301085655,0.08679177
1764763200.422335,-4.21176,1.11398,-0.10682,0.943540065,-0.301085655,0.08679177
1764763200.422335,-4.21176,1.11398,-0.10682,0.943540065,-0.301085655,0.08679177
1764763200.422335,-4.21176,1.11398,-0.10682,0.943540065,-0.301085655,0.08679177
1764763200.422335,-4.21176,1.11398,-0.10682,0.943540065,-0.301085655,0.08679177
1764763200.422335,-4.21176,1.11398,-0.10682,0.943540065,-0.301085655,0.08679177
1764763200.422335,-4.47118,0.97664,-0.25942,0.94335696,-0.30126876,0.08691384
1764763200.422335,-4.47118,0.97664,-0.25942,0.94335696,-0.30126876,0.08691384
1764763200.422335,-4.47118,0.97664,-0.25942,0.94335696,-0.30126876,0.08691384
1764763200.422335,-4.47118,0.97664,-0.25942,0.94335696,-0.30126876,0.08691384
1764763200.422335,-4.47118,0.97664,-0.25942,0.94335696,-0.30126876,0.08691384
1764763200.422335,-4.47118,0.97664,-0.25942,0.94335696,-0.30126876,0.08691384
1764763200.422335,-4.47118,0.97664,-0.25942,0.94335696,-0.30126876,0.08691384
1764763200.422335,-4.47118,0.97664,-0.25942,0.94335696,-0.30126876,0.08691384
1764763200.422335,-4.47118,0.97664,-0.25942,0.94335696,-0.30126876,0.08691384
1764763200.422335,-4.47118,0.97664,-0.25942,0.94335696,-0.30126876,0.08691384
1764763200.422335,-3.95234,0.8087799999999999,0.2289,0.94421145,-0.301818075,0.086242455
1764763200.422335,-3.95234,0.8087799999999999,0.2289,0.94421145,-0.301818075,0.086242455
1764763200.422335,-3.95234,0.8087799999999999,0.2289,0.94421145,-0.301818075,0.086242455
1764763200.422335,-3.95234,0.8087799999999999,0.2289,0.94421145,-0.301818075,0.086242455
1764763200.4683297,-3.95234,0.8087799999999999,0.2289,0.94421145,-0.301818075,0.086242455
1764763200.4683297,-3.95234,0.8087799999999999,0.2289,0.94421145,-0.301818075,0.086242455
1764763200.4683297,-3.95234,0.8087799999999999,0.2289,0.94421145,-0.301818075,0.086242455
1764763200.4683297,-3.95234,0.8087799999999999,0.2289,0.94421145,-0.301818075,0.086242455
1764763200.4683297,-3.95234,0.8087799999999999,0.2289,0.94421145,-0.301818075,0.086242455
1764763200.4683297,-3.95234,0.8087799999999999,0.2289,0.94421145,-0.301818075,0.086242455
1764763200.4683297,-3.75396,0.5341,0.03052,0.94445559,-0.3027336,0.086608665
1764763200.469336,-3.75396,0.5341,0.03052,0.94445559,-0.3027336,0.086608665
1764763200.469336,-3.75396,0.5341,0.03052,0.94445559,-0.3027336,0.086608665
1764763200.469336,-3.75396,0.5341,0.03052,0.94445559,-0.3027336,0.086608665
1764763200.469336,-3.75396,0.5341,0.03052,0.94445559,-0.3027336,0.086608665
1764763200.469336,-3.75396,0.5341,0.03052,0.94445559,-0.3027336,0.086608665
1764763200.469336,-3.75396,0.5341,0.03052,0.94445559,-0.3027336,0.086608665
1764763200.469336,-3.75396,0.5341,0.03052,0.94445559,-0.3027336,0.086608665
1764763200.469336,-3.75396,0.5341,0.03052,0.94445559,-0.3027336,0.086608665
1764763200.469336,-3.75396,0.5341,0.03052,0.94445559,-0.3027336,0.086608665
1764763200.469336,-3.08252,0.85456,0.42728,0.945249045,-0.302672565,0.086608665
1764763200.469336,-3.08252,0.85456,0.42728,0.945249045,-0.302672565,0.086608665
1764763200.4703405,-3.08252,0.85456,0.42728,0.945249045,-0.302672565,0.086608665
1764763200.4703405,-3.08252,0.85456,0.42728,0.945249045,-0.302672565,0.086608665
1764763200.4703405,-3.08252,0.85456,0.42728,0.945249045,-0.302672565,0.086608665
1764763200.4703405,-3.08252,0.85456,0.42728,0.945249045,-0.302672565,0.086608665
1764763200.4703405,-3.08252,0.85456,0.42728,0.945249045,-0.302672565,0.086608665
1764763200.4703405,-3.08252,0.85456,0.42728,0.945249045,-0.302672565,0.086608665
1764763200.5167873,-3.08252,0.85456,0.42728,0.945249045,-0.302672565,0.086608665
1764763200.5167873,-3.08252,0.85456,0.42728,0.945249045,-0.302672565,0.086608665
1764763200.5167873,-3.02148,1.73964,0.10682,0.94653078,-0.302428425,0.085632105
1764763200.5167873,-3.02148,1.73964,0.10682,0.94653078,-0.302428425,0.085632105
1764763200.5167873,-3.02148,1.73964,0.10682,0.94653078,-0.302428425,0.085632105
1764763200.5167873,-3.02148,1.73964,0.10682,0.94653078,-0.302428425,0.085632105
1764763200.5167873,-3.02148,1.73964,0.10682,0.94653078,-0.302428425,0.085632105
1764763200.5167873,-3.02148,1.73964,0.10682,0.94653078,-0.302428425,0.085632105
1764763200.5167873,-3.02148,1.73964,0.10682,0.94653078,-0.302428425,0.085632105
1764763200.5167873,-3.02148,1.73964,0.10682,0.94653078,-0.302428425,0.085632105
1764763200.5167873,-3.02148,1.73964,0.10682,0.94653078,-0.302428425,0.085632105
1764763200.5167873,-3.02148,1.73964,0.10682,0.94653078,-0.302428425,0.085632105
1764763200.5167873,-3.21986,2.39582,-0.12208,0.946713885,-0.30090255,0.08569314
1764763200.5167873,-3.21986,2.39582,-0.12208,0.946713885,-0.30090255,0.08569314
1764763200.5167873,-3.21986,2.39582,-0.12208,0.946713885,-0.30090255,0.08569314
1764763200.5167873,-3.21986,2.39582,-0.12208,0.946713885,-0.30090255,0.08569314
1764763200.5167873,-3.21986,2.39582,-0.12208,0.946713885,-0.30090255,0.08569314
1764763200.5167873,-3.21986,2.39582,-0.12208,0.946713885,-0.30090255,0.08569314
1764763200.5167873,-3.21986,2.39582,-0.12208,0.946713885,-0.30090255,0.08569314
1764763200.5167873,-3.21986,2.39582,-0.12208,0.946713885,-0.30090255,0.08569314
1764763200.5167873,-3.21986,2.39582,-0.12208,0.946713885,-0.30090255,0.08569314
1764763200.5167873,-3.21986,2.39582,-0.12208,0.946713885,-0.30090255,0.08569314
1764763200.563394,-3.84552,1.93802,0.03052,0.94408938,-0.29980392,0.085632105
1764763200.563394,-3.84552,1.93802,0.03052,0.94408938,-0.29980392,0.085632105
1764763200.563394,-3.84552,1.93802,0.03052,0.94408938,-0.29980392,0.085632105
1764763200.563394,-3.84552,1.93802,0.03052,0.94408938,-0.29980392,0.085632105
1764763200.5639017,-3.84552,1.93802,0.03052,0.94408938,-0.29980392,0.085632105
1764763200.5639017,-3.84552,1.93802,0.03052,0.94408938,-0.29980392,0.085632105
1764763200.5639017,-3.84552,1.93802,0.03052,0.94408938,-0.29980392,0.085632105
1764763200.5639017,-3.84552,1.93802,0.03052,0.94408938,-0.29980392,0.085632105
1764763200.5639017,-3.84552,1.93802,0.03052,0.94408938,-0.29980392,0.085632105
1764763200.5639017,-3.84552,1.93802,0.03052,0.94408938,-0.29980392,0.085632105
1764763200.5639017,-3.75396,1.32762,0.25942,0.94177005,-0.30017013,0.086120385
1764763200.5639017,-3.75396,1.32762,0.25942,0.94177005,-0.30017013,0.086120385
1764763200.5639017,-3.75396,1.32762,0.25942,0.94177005,-0.30017013,0.086120385
1764763200.5639017,-3.75396,1.32762,0.25942,0.94177005,-0.30017013,0.086120385
1764763200.5639017,-3.75396,1.32762,0.25942,0.94177005,-0.30017013,0.086120385
1764763200.5639017,-3.75396,1.32762,0.25942,0.94177005,-0.30017013,0.086120385
1764763200.5639017,-3.75396,1.32762,0.25942,0.94177005,-0.30017013,0.086120385
1764763200.5639017,-3.75396,1.32762,0.25942,0.94177005,-0.30017013,0.086120385
1764763200.5639017,-3.75396,1.32762,0.25942,0.94177005,-0.30017013,0.086120385
1764763200.5639017,-3.75396,1.32762,0.25942,0.94177005,-0.30017013,0.086120385
1764763200.5639017,-3.54032,0.47306,-0.24416,0.941831085,-0.301207725,0.086852805
1764763200.5639017,-3.54032,0.47306,-0.24416,0.941831085,-0.301207725,0.086852805
1764763200.5639017,-3.54032,0.47306,-0.24416,0.941831085,-0.301207725,0.086852805
1764763200.5639017,-3.54032,0.47306,-0.24416,0.941831085,-0.301207725,0.086852805
1764763200.6109433,-3.54032,0.47306,-0.24416,0.941831085,-0.301207725,0.086852805
1764763200.6109433,-3.54032,0.47306,-0.24416,0.941831085,-0.301207725,0.086852805
1764763200.6109433,-3.54032,0.47306,-0.24416,0.941831085,-0.301207725,0.086852805
1764763200.6109433,-3.54032,0.47306,-0.24416,0.941831085,-0.301207725,0.086852805
1764763200.6109433,-3.54032,0.47306,-0.24416,0.941831085,-0.301207725,0.086852805
1764763200.6109433,-3.54032,0.47306,-0.24416,0.941831085,-0.301207725,0.086852805
1764763200.6109433,-3.63188,1.2208,-1.25132,0.94506594,-0.300597375,0.08728005
1764763200.6109433,-3.63188,1.2208,-1.25132,0.94506594,-0.300597375,0.08728005
1764763200.6109433,-3.63188,1.2208,-1.25132,0.94506594,-0.300597375,0.08728005
1764763200.6109433,-3.63188,1.2208,-1.25132,0.94506594,-0.300597375,0.08728005
1764763200.6109433,-3.63188,1.2208,-1.25132,0.94506594,-0.300597375,0.08728005
1764763200.6109433,-3.63188,1.2208,-1.25132,0.94506594,-0.300597375,0.08728005
1764763200.6109433,-3.63188,1.2208,-1.25132,0.94506594,-0.300597375,0.08728005
1764763200.6109433,-3.63188,1.2208,-1.25132,0.94506594,-0.300597375,0.08728005
1764763200.6109433,-3.63188,1.2208,-1.25132,0.94506594,-0.300597375,0.08728005
1764763200.6119587,-3.63188,1.2208,-1.25132,0.94506594,-0.300597375,0.08728005
1764763200.6119587,-3.2046,1.8312,-0.94612,0.945981465,-0.301085655,0.0878904
1764763200.6119587,-3.2046,1.8312,-0.94612,0.945981465,-0.301085655,0.0878904
1764763200.6119587,-3.2046,1.8312,-0.94612,0.945981465,-0.301085655,0.0878904
1764763200.6119587,-3.2046,1.8312,-0.94612,0.945981465,-0.301085655,0.0878904
1764763200.6119587,-3.2046,1.8312,-0.94612,0.945981465,-0.301085655,0.0878904
1764763200.6119587,-3.2046,1.8312,-0.94612,0.945981465,-0.301085655,0.0878904
1764763200.6119587,-3.2046,1.8312,-0.94612,0.945981465,-0.301085655,0.0878904
1764763200.6119587,-3.2046,1.8312,-0.94612,0.945981465,-0.301085655,0.0878904
1764763200.6547225,-3.2046,1.8312,-0.94612,0.945981465,-0.301085655,0.0878904
1764763200.6552308,-3.2046,1.8312,-0.94612,0.945981465,-0.301085655,0.0878904
1764763200.6552308,-3.15882,1.57178,-1.11398,0.945126975,-0.299864955,0.08752419
1764763200.6552308,-3.15882,1.57178,-1.11398,0.945126975,-0.299864955,0.08752419
1764763200.6552308,-3.15882,1.57178,-1.11398,0.945126975,-0.299864955,0.08752419
1764763200.6552308,-3.15882,1.57178,-1.11398,0.945126975,-0.299864955,0.08752419
1764763200.6552308,-3.15882,1.57178,-1.11398,0.945126975,-0.299864955,0.08752419
1764763200.6552308,-3.15882,1.57178,-1.11398,0.945126975,-0.299864955,0.08752419
1764763200.6552308,-3.15882,1.57178,-1.11398,0.945126975,-0.299864955,0.08752419
1764763200.6552308,-3.15882,1.57178,-1.11398,0.945126975,-0.299864955,0.08752419
1764763200.6552308,-3.15882,1.57178,-1.11398,0.945126975,-0.299864955,0.08752419
1764763200.6552308,-3.15882,1.57178,-1.11398,0.945126975,-0.299864955,0.08752419
1764763200.6552308,-2.80784,1.9075,-0.62566,0.945981465,-0.29968185,0.087707295
1764763200.6565225,-2.80784,1.9075,-0.62566,0.945981465,-0.29968185,0.087707295
1764763200.6565225,-2.80784,1.9075,-0.62566,0.945981465,-0.29968185,0.087707295
1764763200.6565225,-2.80784,1.9075,-0.62566,0.945981465,-0.29968185,0.087707295
1764763200.6565225,-2.80784,1.9075,-0.62566,0.945981465,-0.29968185,0.087707295
1764763200.6565225,-2.80784,1.9075,-0.62566,0.945981465,-0.29968185,0.087707295
1764763200.6565225,-2.80784,1.9075,-0.62566,0.945981465,-0.29968185,0.087707295
1764763200.6565225,-2.80784,1.9075,-0.62566,0.945981465,-0.29968185,0.087707295
1764763200.6565225,-2.80784,1.9075,-0.62566,0.945981465,-0.29968185,0.087707295
1764763200.6565225,-2.80784,1.9075,-0.62566,0.945981465,-0.29968185,0.087707295
1764763200.7038877,-2.65524,1.63282,-1.55652,0.9460425,-0.297667695,0.0878904
1764763200.7038877,-2.65524,1.63282,-1.55652,0.9460425,-0.297667695,0.0878904
1764763200.7038877,-2.65524,1.63282,-1.55652,0.9460425,-0.297667695,0.0878904
1764763200.7038877,-2.65524,1.63282,-1.55652,0.9460425,-0.297667695,0.0878904
1764763200.7038877,-2.65524,1.63282,-1.55652,0.9460425,-0.297667695,0.0878904
1764763200.7038877,-2.65524,1.63282,-1.55652,0.9460425,-0.297667695,0.0878904
1764763200.7038877,-2.65524,1.63282,-1.55652,0.9460425,-0.297667695,0.0878904
1764763200.7038877,-2.65524,1.63282,-1.55652,0.9460425,-0.297667695,0.0878904
1764763200.7038877,-2.65524,1.63282,-1.55652,0.9460425,-0.297667695,0.0878904
1764763200.7038877,-2.65524,1.63282,-1.55652,0.9460425,-0.297667695,0.0878904
1764763200.7038877,-2.48738,3.02148,-0.6409199999999999,0.94714113,-0.297179415,0.08886696
1764763200.7038877,-2.48738,3.02148,-0.6409199999999999,0.94714113,-0.297179415,0.08886696
1764763200.7038877,-2.48738,3.02148,-0.6409199999999999,0.94714113,-0.297179415,0.08886696
1764763200.7038877,-2.48738,3.02148,-0.6409199999999999,0.94714113,-0.297179415,0.08886696
1764763200.7038877,-2.48738,3.02148,-0.6409199999999999,0.94714113,-0.297179415,0.08886696
1764763200.7038877,-2.48738,3.02148,-0.6409199999999999,0.94714113,-0.297179415,0.08886696
1764763200.7038877,-2.48738,3.02148,-0.6409199999999999,0.94714113,-0.297179415,0.08886696
1764763200.7038877,-2.48738,3.02148,-0.6409199999999999,0.94714113,-0.297179415,0.08886696
1764763200.7038877,-2.48738,3.02148,-0.6409199999999999,0.94714113,-0.297179415,0.08886696
1764763200.7038877,-2.48738,3.02148,-0.6409199999999999,0.94714113,-0.297179415,0.08886696
1764763200.7038877,-1.70912,3.29616,-0.3509799999999999,0.947202165,-0.297301485,0.089904555
1764763200.7038877,-1.70912,3.29616,-0.3509799999999999,0.947202165,-0.297301485,0.089904555
1764763200.7038877,-1.70912,3.29616,-0.3509799999999999,0.947202165,-0.297301485,0.089904555
1764763200.7038877,-1.70912,3.29616,-0.3509799999999999,0.947202165,-0.297301485,0.089904555
1764763200.7512152,-1.70912,3.29616,-0.3509799999999999,0.947202165,-0.297301485,0.089904555
1764763200.7512152,-1.70912,3.29616,-0.3509799999999999,0.947202165,-0.297301485,0.089904555
1764763200.7512152,-1.70912,3.29616,-0.3509799999999999,0.947202165,-0.297301485,0.089904555
1764763200.7523253,-1.70912,3.29616,-0.3509799999999999,0.947202165,-0.297301485,0.089904555
1764763200.7523253,-1.70912,3.29616,-0.3509799999999999,0.947202165,-0.297301485,0.089904555
1764763200.7523253,-1.70912,3.29616,-0.3509799999999999,0.947202165,-0.297301485,0.089904555
1764763200.7523253,-1.9838,2.56368,-0.18312,0.945859395,-0.29601975,0.089904555
1764763200.7523253,-1.9838,2.56368,-0.18312,0.945859395,-0.29601975,0.089904555
1764763200.7523253,-1.9838,2.56368,-0.18312,0.945859395,-0.29601975,0.089904555
1764763200.7532403,-1.9838,2.56368,-0.18312,0.945859395,-0.29601975,0.089904555
1764763200.7532403,-1.9838,2.56368,-0.18312,0.945859395,-0.29601975,0.089904555
1764763200.7532403,-1.9838,2.56368,-0.18312,0.945859395,-0.29601975,0.089904555
1764763200.7532403,-1.9838,2.56368,-0.18312,0.945859395,-0.29601975,0.089904555
1764763200.7532403,-1.9838,2.56368,-0.18312,0.945859395,-0.29601975,0.089904555
1764763200.7532403,-1.9838,2.56368,-0.18312,0.945859395,-0.29601975,0.089904555
1764763200.7532403,-1.9838,2.56368,-0.18312,0.945859395,-0.29601975,0.089904555
1764763200.7532403,-2.16692,1.70912,0.28994,0.943906275,-0.294493875,0.090270765
1764763200.7532403,-2.16692,1.70912,0.28994,0.943906275,-0.294493875,0.090270765
1764763200.7532403,-2.16692,1.70912,0.28994,0.943906275,-0.294493875,0.090270765
1764763200.7532403,-2.16692,1.70912,0.28994,0.943906275,-0.294493875,0.090270765
1764763200.7532403,-2.16692,1.70912,0.28994,0.943906275,-0.294493875,0.090270765
1764763200.7532403,-2.16692,1.70912,0.28994,0.943906275,-0.294493875,0.090270765
1764763200.7532403,-2.16692,1.70912,0.28994,0.943906275,-0.294493875,0.090270765
1764763200.7532403,-2.16692,1.70912,0.28994,0.943906275,-0.294493875,0.090270765
1764763200.797356,-2.16692,1.70912,0.28994,0.943906275,-0.294493875,0.090270765
1764763200.797356,-2.16692,1.70912,0.28994,0.943906275,-0.294493875,0.090270765
1764763200.797356,-2.10588,0.9156,1.15976,0.94262454,-0.29516526,0.09094215
1764763200.797356,-2.10588,0.9156,1.15976,0.94262454,-0.29516526,0.09094215
1764763200.797356,-2.10588,0.9156,1.15976,0.94262454,-0.29516526,0.09094215
1764763200.797356,-2.10588,0.9156,1.15976,0.94262454,-0.29516526,0.09094215
1764763200.797356,-2.10588,0.9156,1.15976,0.94262454,-0.29516526,0.09094215
1764763200.797356,-2.10588,0.9156,1.15976,0.94262454,-0.29516526,0.09094215
1764763200.797356,-2.10588,0.9156,1.15976,0.94262454,-0.29516526,0.09094215
1764763200.797356,-2.10588,0.9156,1.15976,0.94262454,-0.29516526,0.09094215
1764763200.797356,-2.10588,0.9156,1.15976,0.94262454,-0.29516526,0.09094215
1764763200.797356,-2.10588,0.9156,1.15976,0.94262454,-0.29516526,0.09094215
1764763200.797356,-2.4416,0.59514,1.43444,0.94372317,-0.295836645,0.091369395
1764763200.797356,-2.4416,0.59514,1.43444,0.94372317,-0.295836645,0.091369395
1764763200.797356,-2.4416,0.59514,1.43444,0.94372317,-0.295836645,0.091369395
1764763200.797356,-2.4416,0.59514,1.43444,0.94372317,-0.295836645,0.091369395
1764763200.797356,-2.4416,0.59514,1.43444,0.94372317,-0.295836645,0.091369395
1764763200.797356,-2.4416,0.59514,1.43444,0.94372317,-0.295836645,0.091369395
1764763200.797356,-2.4416,0.59514,1.43444,0.94372317,-0.295836645,0.091369395
1764763200.797356,-2.4416,0.59514,1.43444,0.94372317,-0.295836645,0.091369395
1764763200.797356,-2.4416,0.59514,1.43444,0.94372317,-0.295836645,0.091369395
1764763200.797356,-2.4416,0.59514,1.43444,0.94372317,-0.295836645,0.091369395
1764763200.8449523,-2.9757,0.41202,1.99906,0.945126975,-0.29626389,0.0915525
1764763200.8449523,-2.9757,0.41202,1.99906,0.945126975,-0.29626389,0.0915525
1764763200.8449523,-2.9757,0.41202,1.99906,0.945126975,-0.29626389,0.0915525
1764763200.8449523,-2.9757,0.41202,1.99906,0.945126975,-0.29626389,0.0915525
1764763200.8449523,-2.9757,0.41202,1.99906,0.945126975,-0.29626389,0.0915525
1764763200.8449523,-2.9757,0.41202,1.99906,0.945126975,-0.29626389,0.0915525
1764763200.8449523,-2.9757,0.41202,1.99906,0.945126975,-0.29626389,0.0915525
1764763200.8449523,-2.9757,0.41202,1.99906,0.945126975,-0.29626389,0.0915525
1764763200.8449523,-2.9757,0.41202,1.99906,0.945126975,-0.29626389,0.0915525
1764763200.8449523,-2.9757,0.41202,1.99906,0.945126975,-0.29626389,0.0915525
1764763200.8449523,-3.6624,0.6867,1.35814,0.94518801,-0.29528733,0.091125255
1764763200.8449523,-3.6624,0.6867,1.35814,0.94518801,-0.29528733,0.091125255
1764763200.8449523,-3.6624,0.6867,1.35814,0.94518801,-0.29528733,0.091125255
1764763200.8449523,-3.6624,0.6867,1.35814,0.94518801,-0.29528733,0.091125255
1764763200.8449523,-3.6624,0.6867,1.35814,0.94518801,-0.29528733,0.091125255
1764763200.8449523,-3.6624,0.6867,1.35814,0.94518801,-0.29528733,0.091125255
1764763200.8449523,-3.6624,0.6867,1.35814,0.94518801,-0.29528733,0.091125255
1764763200.8449523,-3.6624,0.6867,1.35814,0.94518801,-0.29528733,0.091125255
1764763200.8449523,-3.6624,0.6867,1.35814,0.94518801,-0.29528733,0.091125255
1764763200.8449523,-3.6624,0.6867,1.35814,0.94518801,-0.29528733,0.091125255
1764763200.8449523,-3.63188,1.12924,1.32762,0.9460425,-0.29797287,0.090759045
1764763200.8449523,-3.63188,1.12924,1.32762,0.9460425,-0.29797287,0.090759045
1764763200.8449523,-3.63188,1.12924,1.32762,0.9460425,-0.29797287,0.090759045
1764763200.8449523,-3.63188,1.12924,1.32762,0.9460425,-0.29797287,0.090759045
1764763200.891106,-3.63188,1.12924,1.32762,0.9460425,-0.29797287,0.090759045
1764763200.891106,-3.63188,1.12924,1.32762,0.9460425,-0.29797287,0.090759045
1764763200.891106,-3.63188,1.12924,1.32762,0.9460425,-0.29797287,0.090759045
1764763200.891106,-3.63188,1.12924,1.32762,0.9460425,-0.29797287,0.090759045
1764763200.891106,-3.63188,1.12924,1.32762,0.9460425,-0.29797287,0.090759045
1764763200.891106,-3.63188,1.12924,1.32762,0.9460425,-0.29797287,0.090759045
1764763200.891106,-3.47928,0.9156,1.48022,0.94372317,-0.298278045,0.090148695
1764763200.891106,-3.47928,0.9156,1.48022,0.94372317,-0.298278045,0.090148695
1764763200.891106,-3.47928,0.9156,1.48022,0.94372317,-0.298278045,0.090148695
1764763200.891106,-3.47928,0.9156,1.48022,0.94372317,-0.298278045,0.090148695
1764763200.891611,-3.47928,0.9156,1.48022,0.94372317,-0.298278045,0.090148695
1764763200.891611,-3.47928,0.9156,1.48022,0.94372317,-0.298278045,0.090148695
1764763200.891611,-3.47928,0.9156,1.48022,0.94372317,-0.298278045,0.090148695
1764763200.891611,-3.47928,0.9156,1.48022,0.94372317,-0.298278045,0.090148695
1764763200.891611,-3.47928,0.9156,1.48022,0.94372317,-0.298278045,0.090148695
1764763200.891611,-3.47928,0.9156,1.48022,0.94372317,-0.298278045,0.090148695
1764763200.891611,-4.01338,0.3357199999999999,1.55652,0.94323489,-0.297545625,0.089782485
1764763200.891611,-4.01338,0.3357199999999999,1.55652,0.94323489,-0.297545625,0.089782485
1764763200.891611,-4.01338,0.3357199999999999,1.55652,0.94323489,-0.297545625,0.089782485
1764763200.891611,-4.01338,0.3357199999999999,1.55652,0.94323489,-0.297545625,0.089782485
1764763200.891611,-4.01338,0.3357199999999999,1.55652,0.94323489,-0.297545625,0.089782485
1764763200.891611,-4.01338,0.3357199999999999,1.55652,0.94323489,-0.297545625,0.089782485
1764763200.891611,-4.01338,0.3357199999999999,1.55652,0.94323489,-0.297545625,0.089782485
1764763200.891611,-4.01338,0.3357199999999999,1.55652,0.94323489,-0.297545625,0.089782485
1764763200.9378934,-4.01338,0.3357199999999999,1.55652,0.94323489,-0.297545625,0.089782485
1764763200.9378934,-4.01338,0.3357199999999999,1.55652,0.94323489,-0.297545625,0.089782485
1764763200.9378934,-4.02864,0.4578,1.4039199999999998,0.94323489,-0.298522185,0.09057594
1764763200.9378934,-4.02864,0.4578,1.4039199999999998,0.94323489,-0.298522185,0.09057594
1764763200.9378934,-4.02864,0.4578,1.4039199999999998,0.94323489,-0.298522185,0.09057594
1764763200.9378934,-4.02864,0.4578,1.4039199999999998,0.94323489,-0.298522185,0.09057594
1764763200.9378934,-4.02864,0.4578,1.4039199999999998,0.94323489,-0.298522185,0.09057594
1764763200.9378934,-4.02864,0.4578,1.4039199999999998,0.94323489,-0.298522185,0.09057594
1764763200.9378934,-4.02864,0.4578,1.4039199999999998,0.94323489,-0.298522185,0.09057594
1764763200.9378934,-4.02864,0.4578,1.4039199999999998,0.94323489,-0.298522185,0.09057594
1764763200.9378934,-4.02864,0.4578,1.4039199999999998,0.94323489,-0.298522185,0.09057594
1764763200.9378934,-4.02864,0.4578,1.4039199999999998,0.94323489,-0.298522185,0.09057594
1764763200.9378934,-3.86078,0.94612,0.8087799999999999,0.9436011,-0.298888395,0.090026625
1764763200.9378934,-3.86078,0.94612,0.8087799999999999,0.9436011,-0.298888395,0.090026625
1764763200.9378934,-3.86078,0.94612,0.8087799999999999,0.9436011,-0.298888395,0.090026625
1764763200.9378934,-3.86078,0.94612,0.8087799999999999,0.9436011,-0.298888395,0.090026625
1764763200.9389064,-3.86078,0.94612,0.8087799999999999,0.9436011,-0.298888395,0.090026625
1764763200.9389064,-3.86078,0.94612,0.8087799999999999,0.9436011,-0.298888395,0.090026625
1764763200.9389064,-3.86078,0.94612,0.8087799999999999,0.9436011,-0.298888395,0.090026625
1764763200.9389064,-3.86078,0.94612,0.8087799999999999,0.9436011,-0.298888395,0.090026625
1764763200.9389064,-3.86078,0.94612,0.8087799999999999,0.9436011,-0.298888395,0.090026625
1764763200.9389064,-3.86078,0.94612,0.8087799999999999,0.9436011,-0.298888395,0.090026625
1764763200.9888744,-4.6543,1.08346,0.50358,0.943784205,-0.29858322,0.089660415
1764763200.9888744,-4.6543,1.08346,0.50358,0.943784205,-0.29858322,0.089660415
1764763200.9888744,-4.6543,1.08346,0.50358,0.943784205,-0.29858322,0.089660415
1764763200.9888744,-4.6543,1.08346,0.50358,0.943784205,-0.29858322,0.089660415
1764763200.9898744,-4.6543,1.08346,0.50358,0.943784205,-0.29858322,0.089660415
1764763200.9898744,-4.6543,1.08346,0.50358,0.943784205,-0.29858322,0.089660415
1764763200.9898744,-4.6543,1.08346,0.50358,0.943784205,-0.29858322,0.089660415
1764763200.9898744,-4.6543,1.08346,0.50358,0.943784205,-0.29858322,0.089660415
1764763200.9898744,-4.6543,1.08346,0.50358,0.943784205,-0.29858322,0.089660415
1764763200.9898744,-4.6543,1.08346,0.50358,0.943784205,-0.29858322,0.089660415
1764763200.9898744,-4.51696,0.6409199999999999,0.27468,0.9436011,-0.299376675,0.089904555
1764763200.9898744,-4.51696,0.6409199999999999,0.27468,0.9436011,-0.299376675,0.089904555
1764763200.9898744,-4.51696,0.6409199999999999,0.27468,0.9436011,-0.299376675,0.089904555
1764763200.9898744,-4.51696,0.6409199999999999,0.27468,0.9436011,-0.299376675,0.089904555
1764763200.9898744,-4.51696,0.6409199999999999,0.27468,0.9436011,-0.299376675,0.089904555
1764763200.9898744,-4.51696,0.6409199999999999,0.27468,0.9436011,-0.299376675,0.089904555
1764763200.9898744,-4.51696,0.6409199999999999,0.27468,0.9436011,-0.299376675,0.089904555
1764763200.9898744,-4.51696,0.6409199999999999,0.27468,0.9436011,-0.299376675,0.089904555
1764763200.9898744,-4.51696,0.6409199999999999,0.27468,0.9436011,-0.299376675,0.089904555
1764763200.9898744,-4.51696,0.6409199999999999,0.27468,0.9436011,-0.299376675,0.089904555
1764763200.9898744,-3.95234,0.2289,0.01526,0.943417995,-0.30078048,0.08972145
1764763200.9898744,-3.95234,0.2289,0.01526,0.943417995,-0.30078048,0.08972145
1764763200.9898744,-3.95234,0.2289,0.01526,0.943417995,-0.30078048,0.08972145
1764763200.9898744,-3.95234,0.2289,0.01526,0.943417995,-0.30078048,0.08972145
1764763200.9898744,-3.95234,0.2289,0.01526,0.943417995,-0.30078048,0.08972145
1764763200.9898744,-3.95234,0.2289,0.01526,0.943417995,-0.30078048,0.08972145
1764763201.033429,-3.95234,0.2289,0.01526,0.943417995,-0.30078048,0.08972145
1764763201.033429,-3.95234,0.2289,0.01526,0.943417995,-0.30078048,0.08972145
1764763201.033429,-3.95234,0.2289,0.01526,0.943417995,-0.30078048,0.08972145
1764763201.033429,-3.95234,0.2289,0.01526,0.943417995,-0.30078048,0.08972145
1764763201.033429,-3.09778,-0.03052,0.04578,0.943295925,-0.301329795,0.090148695
1764763201.033429,-3.09778,-0.03052,0.04578,0.943295925,-0.301329795,0.090148695
1764763201.033429,-3.09778,-0.03052,0.04578,0.943295925,-0.301329795,0.090148695
1764763201.033429,-3.09778,-0.03052,0.04578,0.943295925,-0.301329795,0.090148695
1764763201.033429,-3.09778,-0.03052,0.04578,0.943295925,-0.301329795,0.090148695
1764763201.033429,-3.09778,-0.03052,0.04578,0.943295925,-0.301329795,0.090148695
1764763201.0339067,-3.09778,-0.03052,0.04578,0.943295925,-0.301329795,0.090148695
1764763201.0339067,-3.09778,-0.03052,0.04578,0.943295925,-0.301329795,0.090148695
1764763201.0339067,-3.09778,-0.03052,0.04578,0.943295925,-0.301329795,0.090148695
1764763201.0339067,-3.09778,-0.03052,0.04578,0.943295925,-0.301329795,0.090148695
1764763201.0339067,-3.26564,0.04578,0.88508,0.943906275,-0.3002922,0.090148695
1764763201.0339067,-3.26564,0.04578,0.88508,0.943906275,-0.3002922,0.090148695
1764763201.0339067,-3.26564,0.04578,0.88508,0.943906275,-0.3002922,0.090148695
1764763201.0339067,-3.26564,0.04578,0.88508,0.943906275,-0.3002922,0.090148695
1764763201.0339067,-3.26564,0.04578,0.88508,0.943906275,-0.3002922,0.090148695
1764763201.0339067,-3.26564,0.04578,0.88508,0.943906275,-0.3002922,0.090148695
1764763201.0339067,-3.26564,0.04578,0.88508,0.943906275,-0.3002922,0.090148695
1764763201.0339067,-3.26564,0.04578,0.88508,0.943906275,-0.3002922,0.090148695
1764763201.0781436,-3.26564,0.04578,0.88508,0.943906275,-0.3002922,0.090148695
1764763201.0781436,-3.26564,0.04578,0.88508,0.943906275,-0.3002922,0.090148695
1764763201.0781436,-3.72344,0.73248,0.21364,0.94457766,-0.298644255,0.088805925
1764763201.0781436,-3.72344,0.73248,0.21364,0.94457766,-0.298644255,0.088805925
1764763201.0781436,-3.72344,0.73248,0.21364,0.94457766,-0.298644255,0.088805925
1764763201.0781436,-3.72344,0.73248,0.21364,0.94457766,-0.298644255,0.088805925
1764763201.0781436,-3.72344,0.73248,0.21364,0.94457766,-0.298644255,0.088805925
1764763201.0781436,-3.72344,0.73248,0.21364,0.94457766,-0.298644255,0.088805925
1764763201.0781436,-3.72344,0.73248,0.21364,0.94457766,-0.298644255,0.088805925
1764763201.0781436,-3.72344,0.73248,0.21364,0.94457766,-0.298644255,0.088805925
1764763201.0781436,-3.72344,0.73248,0.21364,0.94457766,-0.298644255,0.088805925
1764763201.0781436,-3.72344,0.73248,0.21364,0.94457766,-0.298644255,0.088805925
1764763201.0781436,-4.37962,1.15976,0.28994,0.94701906,-0.29675217,0.08862282
1764763201.0781436,-4.37962,1.15976,0.28994,0.94701906,-0.29675217,0.08862282
1764763201.0781436,-4.37962,1.15976,0.28994,0.94701906,-0.29675217,0.08862282
1764763201.0781436,-4.37962,1.15976,0.28994,0.94701906,-0.29675217,0.08862282
1764763201.0781436,-4.37962,1.15976,0.28994,0.94701906,-0.29675217,0.08862282
1764763201.0781436,-4.37962,1.15976,0.28994,0.94701906,-0.29675217,0.08862282
1764763201.0781436,-4.37962,1.15976,0.28994,0.94701906,-0.29675217,0.08862282
1764763201.0781436,-4.37962,1.15976,0.28994,0.94701906,-0.29675217,0.08862282
1764763201.0781436,-4.37962,1.15976,0.28994,0.94701906,-0.29675217,0.08862282
1764763201.0781436,-4.37962,1.15976,0.28994,0.94701906,-0.29675217,0.08862282
1764763201.0796702,-4.5017,1.05294,0.3051999999999999,0.946103535,-0.29601975,0.08886696
1764763201.0796702,-4.5017,1.05294,0.3051999999999999,0.946103535,-0.29601975,0.08886696
1764763201.127342,-4.5017,1.05294,0.3051999999999999,0.946103535,-0.29601975,0.08886696
1764763201.127342,-4.5017,1.05294,0.3051999999999999,0.946103535,-0.29601975,0.08886696
1764763201.127342,-4.5017,1.05294,0.3051999999999999,0.946103535,-0.29601975,0.08886696
1764763201.127342,-4.5017,1.05294,0.3051999999999999,0.946103535,-0.29601975,0.08886696
1764763201.127342,-4.5017,1.05294,0.3051999999999999,0.946103535,-0.29601975,0.08886696
1764763201.127342,-4.5017,1.05294,0.3051999999999999,0.946103535,-0.29601975,0.08886696
1764763201.127342,-4.5017,1.05294,0.3051999999999999,0.946103535,-0.29601975,0.08886696
1764763201.127342,-4.5017,1.05294,0.3051999999999999,0.946103535,-0.29601975,0.08886696
1764763201.127342,-4.54748,0.77826,0.12208,0.94531008,-0.297301485,0.088927995
1764763201.127342,-4.54748,0.77826,0.12208,0.94531008,-0.297301485,0.088927995
1764763201.127342,-4.54748,0.77826,0.12208,0.94531008,-0.297301485,0.088927995
1764763201.1280088,-4.54748,0.77826,0.12208,0.94531008,-0.297301485,0.088927995
1764763201.1280088,-4.54748,0.77826,0.12208,0.94531008,-0.297301485,0.088927995
1764763201.1280088,-4.54748,0.77826,0.12208,0.94531008,-0.297301485,0.088927995
1764763201.1280088,-4.54748,0.77826,0.12208,0.94531008,-0.297301485,0.088927995
1764763201.1280088,-4.54748,0.77826,0.12208,0.94531008,-0.297301485,0.088927995
1764763201.1280088,-4.54748,0.77826,0.12208,0.94531008,-0.297301485,0.088927995
1764763201.1280088,-4.54748,0.77826,0.12208,0.94531008,-0.297301485,0.088927995
1764763201.1280088,-4.059159999999999,0.47306,0.1678599999999999,0.94433352,-0.2978508,0.088927995
1764763201.1280088,-4.059159999999999,0.47306,0.1678599999999999,0.94433352,-0.2978508,0.088927995
1764763201.1280088,-4.059159999999999,0.47306,0.1678599999999999,0.94433352,-0.2978508,0.088927995
1764763201.1280088,-4.059159999999999,0.47306,0.1678599999999999,0.94433352,-0.2978508,0.088927995
1764763201.1280088,-4.059159999999999,0.47306,0.1678599999999999,0.94433352,-0.2978508,0.088927995
1764763201.1280088,-4.059159999999999,0.47306,0.1678599999999999,0.94433352,-0.2978508,0.088927995
1764763201.1280088,-4.059159999999999,0.47306,0.1678599999999999,0.94433352,-0.2978508,0.088927995
1764763201.1280088,-4.059159999999999,0.47306,0.1678599999999999,0.94433352,-0.2978508,0.088927995
1764763201.174599,-4.059159999999999,0.47306,0.1678599999999999,0.94433352,-0.2978508,0.088927995
1764763201.174599,-4.059159999999999,0.47306,0.1678599999999999,0.94433352,-0.2978508,0.088927995
1764763201.174599,-4.25754,0.6409199999999999,0.03052,0.945493185,-0.29760666,0.08801247
1764763201.174599,-4.25754,0.6409199999999999,0.03052,0.945493185,-0.29760666,0.08801247
1764763201.174599,-4.25754,0.6409199999999999,0.03052,0.945493185,-0.29760666,0.08801247
1764763201.174599,-4.25754,0.6409199999999999,0.03052,0.945493185,-0.29760666,0.08801247
1764763201.1761332,-4.25754,0.6409199999999999,0.03052,0.945493185,-0.29760666,0.08801247
1764763201.1761332,-4.25754,0.6409199999999999,0.03052,0.945493185,-0.29760666,0.08801247
1764763201.1761332,-4.25754,0.6409199999999999,0.03052,0.945493185,-0.29760666,0.08801247
1764763201.1761332,-4.25754,0.6409199999999999,0.03052,0.945493185,-0.29760666,0.08801247
1764763201.1761332,-4.25754,0.6409199999999999,0.03052,0.945493185,-0.29760666,0.08801247
1764763201.1761332,-4.25754,0.6409199999999999,0.03052,0.945493185,-0.29760666,0.08801247
1764763201.1761332,-3.44876,1.25132,-0.19838,0.946225605,-0.297789765,0.08801247
1764763201.1761332,-3.44876,1.25132,-0.19838,0.946225605,-0.297789765,0.08801247
1764763201.1761332,-3.44876,1.25132,-0.19838,0.946225605,-0.297789765,0.08801247
1764763201.1761332,-3.44876,1.25132,-0.19838,0.946225605,-0.297789765,0.08801247
1764763201.1761332,-3.44876,1.25132,-0.19838,0.946225605,-0.297789765,0.08801247
1764763201.1761332,-3.44876,1.25132,-0.19838,0.946225605,-0.297789765,0.08801247
1764763201.1761332,-3.44876,1.25132,-0.19838,0.946225605,-0.297789765,0.08801247
1764763201.1761332,-3.44876,1.25132,-0.19838,0.946225605,-0.297789765,0.08801247
1764763201.1761332,-3.44876,1.25132,-0.19838,0.946225605,-0.297789765,0.08801247
1764763201.1761332,-3.44876,1.25132,-0.19838,0.946225605,-0.297789765,0.08801247
1764763201.2226713,-3.52506,1.32762,0.12208,0.945493185,-0.29638596,0.087829365
1764763201.2226713,-3.52506,1.32762,0.12208,0.945493185,-0.29638596,0.087829365
1764763201.2226713,-3.52506,1.32762,0.12208,0.945493185,-0.29638596,0.087829365
1764763201.2226713,-3.52506,1.32762,0.12208,0.945493185,-0.29638596,0.087829365
1764763201.2226713,-3.52506,1.32762,0.12208,0.945493185,-0.29638596,0.087829365
1764763201.2226713,-3.52506,1.32762,0.12208,0.945493185,-0.29638596,0.087829365
1764763201.2226713,-3.52506,1.32762,0.12208,0.945493185,-0.29638596,0.087829365
1764763201.2226713,-3.52506,1.32762,0.12208,0.945493185,-0.29638596,0.087829365
1764763201.2226713,-3.52506,1.32762,0.12208,0.945493185,-0.29638596,0.087829365
1764763201.2226713,-3.52506,1.32762,0.12208,0.945493185,-0.29638596,0.087829365
1764763201.2226713,-3.3572,1.57178,0.7019599999999999,0.94640871,-0.29797287,0.08801247
1764763201.2226713,-3.3572,1.57178,0.7019599999999999,0.94640871,-0.29797287,0.08801247
1764763201.2226713,-3.3572,1.57178,0.7019599999999999,0.94640871,-0.29797287,0.08801247
1764763201.2226713,-3.3572,1.57178,0.7019599999999999,0.94640871,-0.29797287,0.08801247
1764763201.2226713,-3.3572,1.57178,0.7019599999999999,0.94640871,-0.29797287,0.08801247
1764763201.2226713,-3.3572,1.57178,0.7019599999999999,0.94640871,-0.29797287,0.08801247
1764763201.2226713,-3.3572,1.57178,0.7019599999999999,0.94640871,-0.29797287,0.08801247
1764763201.2226713,-3.3572,1.57178,0.7019599999999999,0.94640871,-0.29797287,0.08801247
1764763201.2226713,-3.3572,1.57178,0.7019599999999999,0.94640871,-0.29797287,0.08801247
1764763201.2226713,-3.3572,1.57178,0.7019599999999999,0.94640871,-0.29797287,0.08801247
1764763201.2226713,-3.63188,0.763,-0.3815,0.94506594,-0.29711838,0.08776833
1764763201.2226713,-3.63188,0.763,-0.3815,0.94506594,-0.29711838,0.08776833
1764763201.265609,-3.63188,0.763,-0.3815,0.94506594,-0.29711838,0.08776833
1764763201.265609,-3.63188,0.763,-0.3815,0.94506594,-0.29711838,0.08776833
1764763201.265609,-3.63188,0.763,-0.3815,0.94506594,-0.29711838,0.08776833
1764763201.265609,-3.63188,0.763,-0.3815,0.94506594,-0.29711838,0.08776833
1764763201.265609,-3.63188,0.763,-0.3815,0.94506594,-0.29711838,0.08776833
1764763201.265609,-3.63188,0.763,-0.3815,0.94506594,-0.29711838,0.08776833
1764763201.265609,-3.63188,0.763,-0.3815,0.94506594,-0.29711838,0.08776833
1764763201.265609,-3.63188,0.763,-0.3815,0.94506594,-0.29711838,0.08776833
1764763201.265609,-3.4335,1.19028,0.21364,0.945981465,-0.297423555,0.08776833
1764763201.2661245,-3.4335,1.19028,0.21364,0.945981465,-0.297423555,0.08776833
1764763201.2661245,-3.4335,1.19028,0.21364,0.945981465,-0.297423555,0.08776833
1764763201.2661245,-3.4335,1.19028,0.21364,0.945981465,-0.297423555,0.08776833
1764763201.2661245,-3.4335,1.19028,0.21364,0.945981465,-0.297423555,0.08776833
1764763201.2661245,-3.4335,1.19028,0.21364,0.945981465,-0.297423555,0.08776833
1764763201.2661245,-3.4335,1.19028,0.21364,0.945981465,-0.297423555,0.08776833
1764763201.2661245,-3.4335,1.19028,0.21364,0.945981465,-0.297423555,0.08776833
1764763201.2661245,-3.4335,1.19028,0.21364,0.945981465,-0.297423555,0.08776833
1764763201.2661245,-3.4335,1.19028,0.21364,0.945981465,-0.297423555,0.08776833
1764763201.2661245,-3.00622,1.72438,0.25942,0.947080095,-0.29772873,0.088439715
1764763201.2661245,-3.00622,1.72438,0.25942,0.947080095,-0.29772873,0.088439715
1764763201.2661245,-3.00622,1.72438,0.25942,0.947080095,-0.29772873,0.088439715
1764763201.2661245,-3.00622,1.72438,0.25942,0.947080095,-0.29772873,0.088439715
1764763201.2661245,-3.00622,1.72438,0.25942,0.947080095,-0.29772873,0.088439715
1764763201.2661245,-3.00622,1.72438,0.25942,0.947080095,-0.29772873,0.088439715
1764763201.3122509,-3.00622,1.72438,0.25942,0.947080095,-0.29772873,0.088439715
1764763201.3122509,-3.00622,1.72438,0.25942,0.947080095,-0.29772873,0.088439715
1764763201.3122509,-3.00622,1.72438,0.25942,0.947080095,-0.29772873,0.088439715
1764763201.3122509,-3.00622,1.72438,0.25942,0.947080095,-0.29772873,0.088439715
1764763201.3122509,-3.06726,2.18218,-0.13734,0.946958025,-0.29553147,0.088805925
1764763201.3122509,-3.06726,2.18218,-0.13734,0.946958025,-0.29553147,0.088805925
1764763201.3122509,-3.06726,2.18218,-0.13734,0.946958025,-0.29553147,0.088805925
1764763201.3122509,-3.06726,2.18218,-0.13734,0.946958025,-0.29553147,0.088805925
1764763201.3122509,-3.06726,2.18218,-0.13734,0.946958025,-0.29553147,0.088805925
1764763201.3122509,-3.06726,2.18218,-0.13734,0.946958025,-0.29553147,0.088805925
1764763201.3122509,-3.06726,2.18218,-0.13734,0.946958025,-0.29553147,0.088805925
1764763201.3122509,-3.06726,2.18218,-0.13734,0.946958025,-0.29553147,0.088805925
1764763201.3122509,-3.06726,2.18218,-0.13734,0.946958025,-0.29553147,0.088805925
1764763201.3122509,-3.06726,2.18218,-0.13734,0.946958025,-0.29553147,0.088805925
1764763201.3122509,-3.14356,1.81594,0.4578,0.945249045,-0.29431077,0.08874489
1764763201.3122509,-3.14356,1.81594,0.4578,0.945249045,-0.29431077,0.08874489
1764763201.3122509,-3.14356,1.81594,0.4578,0.945249045,-0.29431077,0.08874489
1764763201.3122509,-3.14356,1.81594,0.4578,0.945249045,-0.29431077,0.08874489
1764763201.3122509,-3.14356,1.81594,0.4578,0.945249045,-0.29431077,0.08874489
1764763201.3122509,-3.14356,1.81594,0.4578,0.945249045,-0.29431077,0.08874489
1764763201.3122509,-3.14356,1.81594,0.4578,0.945249045,-0.29431077,0.08874489
1764763201.3122509,-3.14356,1.81594,0.4578,0.945249045,-0.29431077,0.08874489
1764763201.3132665,-3.14356,1.81594,0.4578,0.945249045,-0.29431077,0.08874489
1764763201.3132665,-3.14356,1.81594,0.4578,0.945249045,-0.29431077,0.08874489
1764763201.3591335,-2.96044,0.6714399999999999,0.59514,0.943784205,-0.294982155,0.090026625
1764763201.3596387,-2.96044,0.6714399999999999,0.59514,0.943784205,-0.294982155,0.090026625
1764763201.3596387,-2.96044,0.6714399999999999,0.59514,0.943784205,-0.294982155,0.090026625
1764763201.3596387,-2.96044,0.6714399999999999,0.59514,0.943784205,-0.294982155,0.090026625
1764763201.3596387,-2.96044,0.6714399999999999,0.59514,0.943784205,-0.294982155,0.090026625
1764763201.3596387,-2.96044,0.6714399999999999,0.59514,0.943784205,-0.294982155,0.090026625
1764763201.3596387,-2.96044,0.6714399999999999,0.59514,0.943784205,-0.294982155,0.090026625
1764763201.3596387,-2.96044,0.6714399999999999,0.59514,0.943784205,-0.294982155,0.090026625
1764763201.3596387,-2.96044,0.6714399999999999,0.59514,0.943784205,-0.294982155,0.090026625
1764763201.3596387,-2.96044,0.6714399999999999,0.59514,0.943784205,-0.294982155,0.090026625
1764763201.3596387,-2.53316,0.0,1.32762,0.94347903,-0.295958715,0.09069801
1764763201.3596387,-2.53316,0.0,1.32762,0.94347903,-0.295958715,0.09069801
1764763201.3596387,-2.53316,0.0,1.32762,0.94347903,-0.295958715,0.09069801
1764763201.3596387,-2.53316,0.0,1.32762,0.94347903,-0.295958715,0.09069801
1764763201.3596387,-2.53316,0.0,1.32762,0.94347903,-0.295958715,0.09069801
1764763201.3596387,-2.53316,0.0,1.32762,0.94347903,-0.295958715,0.09069801
1764763201.3596387,-2.53316,0.0,1.32762,0.94347903,-0.295958715,0.09069801
1764763201.3596387,-2.53316,0.0,1.32762,0.94347903,-0.295958715,0.09069801
1764763201.3596387,-2.53316,0.0,1.32762,0.94347903,-0.295958715,0.09069801
1764763201.3596387,-2.53316,0.0,1.32762,0.94347903,-0.295958715,0.09069801
1764763201.3596387,-2.80784,0.3509799999999999,1.46496,0.944516625,-0.29589768,0.09094215
1764763201.3596387,-2.80784,0.3509799999999999,1.46496,0.944516625,-0.29589768,0.09094215
1764763201.4070294,-2.80784,0.3509799999999999,1.46496,0.944516625,-0.29589768,0.09094215
1764763201.4070294,-2.80784,0.3509799999999999,1.46496,0.944516625,-0.29589768,0.09094215
1764763201.4070294,-2.80784,0.3509799999999999,1.46496,0.944516625,-0.29589768,0.09094215
1764763201.4070294,-2.80784,0.3509799999999999,1.46496,0.944516625,-0.29589768,0.09094215
1764763201.4070294,-2.80784,0.3509799999999999,1.46496,0.944516625,-0.29589768,0.09094215
1764763201.4070294,-2.80784,0.3509799999999999,1.46496,0.944516625,-0.29589768,0.09094215
1764763201.4070294,-2.80784,0.3509799999999999,1.46496,0.944516625,-0.29589768,0.09094215
1764763201.4070294,-2.80784,0.3509799999999999,1.46496,0.944516625,-0.29589768,0.09094215
1764763201.4070294,-3.47928,0.57988,1.31236,0.94701906,-0.295104225,0.08996559
1764763201.4070294,-3.47928,0.57988,1.31236,0.94701906,-0.295104225,0.08996559
1764763201.4070294,-3.47928,0.57988,1.31236,0.94701906,-0.295104225,0.08996559
1764763201.4070294,-3.47928,0.57988,1.31236,0.94701906,-0.295104225,0.08996559
1764763201.4070294,-3.47928,0.57988,1.31236,0.94701906,-0.295104225,0.08996559
1764763201.4070294,-3.47928,0.57988,1.31236,0.94701906,-0.295104225,0.08996559
1764763201.4070294,-3.47928,0.57988,1.31236,0.94701906,-0.295104225,0.08996559
1764763201.4070294,-3.47928,0.57988,1.31236,0.94701906,-0.295104225,0.08996559
1764763201.4070294,-3.47928,0.57988,1.31236,0.94701906,-0.295104225,0.08996559
1764763201.4070294,-3.47928,0.57988,1.31236,0.94701906,-0.295104225,0.08996559
1764763201.4070294,-3.87604,0.74774,1.25132,0.94714113,-0.29577561,0.089294205
1764763201.4070294,-3.87604,0.74774,1.25132,0.94714113,-0.29577561,0.089294205
1764763201.4070294,-3.87604,0.74774,1.25132,0.94714113,-0.29577561,0.089294205
1764763201.4070294,-3.87604,0.74774,1.25132,0.94714113,-0.29577561,0.089294205
1764763201.4070294,-3.87604,0.74774,1.25132,0.94714113,-0.29577561,0.089294205
1764763201.4070294,-3.87604,0.74774,1.25132,0.94714113,-0.29577561,0.089294205
1764763201.4536188,-3.87604,0.74774,1.25132,0.94714113,-0.29577561,0.089294205
1764763201.4753354,-3.87604,0.74774,1.25132,0.94714113,-0.29577561,0.089294205
1764763201.4753354,-3.87604,0.74774,1.25132,0.94714113,-0.29577561,0.089294205
1764763201.4753354,-3.87604,0.74774,1.25132,0.94714113,-0.29577561,0.089294205
1764763201.4753354,-3.41824,1.95328,1.6786,0.94640871,-0.298033905,0.089660415
1764763201.4753354,-3.41824,1.95328,1.6786,0.94640871,-0.298033905,0.089660415
1764763201.476842,-3.41824,1.95328,1.6786,0.94640871,-0.298033905,0.089660415
1764763201.476842,-3.41824,1.95328,1.6786,0.94640871,-0.298033905,0.089660415
1764763201.476842,-3.41824,1.95328,1.6786,0.94640871,-0.298033905,0.089660415
1764763201.476842,-3.41824,1.95328,1.6786,0.94640871,-0.298033905,0.089660415
1764763201.476842,-3.41824,1.95328,1.6786,0.94640871,-0.298033905,0.089660415
1764763201.4773605,-3.41824,1.95328,1.6786,0.94640871,-0.298033905,0.089660415
1764763201.4773605,-3.41824,1.95328,1.6786,0.94640871,-0.298033905,0.089660415
1764763201.4773605,-3.41824,1.95328,1.6786,0.94640871,-0.298033905,0.089660415
1764763201.4773605,-4.059159999999999,0.5341,1.28184,0.944028345,-0.298155975,0.08923317
1764763201.4773605,-4.059159999999999,0.5341,1.28184,0.944028345,-0.298155975,0.08923317
1764763201.4773605,-4.059159999999999,0.5341,1.28184,0.944028345,-0.298155975,0.08923317
1764763201.4773605,-4.059159999999999,0.5341,1.28184,0.944028345,-0.298155975,0.08923317
1764763201.4773605,-4.059159999999999,0.5341,1.28184,0.944028345,-0.298155975,0.08923317
1764763201.4773605,-4.059159999999999,0.5341,1.28184,0.944028345,-0.298155975,0.08923317
1764763201.4773605,-4.059159999999999,0.5341,1.28184,0.944028345,-0.298155975,0.08923317
1764763201.4773605,-4.059159999999999,0.5341,1.28184,0.944028345,-0.298155975,0.08923317
1764763201.4773605,-4.059159999999999,0.5341,1.28184,0.944028345,-0.298155975,0.08923317
1764763201.4773605,-4.059159999999999,0.5341,1.28184,0.944028345,-0.298155975,0.08923317
1764763201.495541,-4.08968,0.51884,0.9003399999999999,0.944272485,-0.2990715,0.08947731
1764763201.495541,-4.08968,0.51884,0.9003399999999999,0.944272485,-0.2990715,0.08947731
1764763201.496556,-4.08968,0.51884,0.9003399999999999,0.944272485,-0.2990715,0.08947731
1764763201.496556,-4.08968,0.51884,0.9003399999999999,0.944272485,-0.2990715,0.08947731
1764763201.496556,-4.08968,0.51884,0.9003399999999999,0.944272485,-0.2990715,0.08947731
1764763201.496556,-4.08968,0.51884,0.9003399999999999,0.944272485,-0.2990715,0.08947731
1764763201.496556,-4.08968,0.51884,0.9003399999999999,0.944272485,-0.2990715,0.08947731
1764763201.496556,-4.08968,0.51884,0.9003399999999999,0.944272485,-0.2990715,0.08947731
1764763201.496556,-4.08968,0.51884,0.9003399999999999,0.944272485,-0.2990715,0.08947731
1764763201.496556,-4.08968,0.51884,0.9003399999999999,0.944272485,-0.2990715,0.08947731
1764763201.496556,-3.47928,0.6867,0.6714399999999999,0.944882835,-0.29919357,0.08959938
1764763201.496556,-3.47928,0.6867,0.6714399999999999,0.944882835,-0.29919357,0.08959938
1764763201.496556,-3.47928,0.6867,0.6714399999999999,0.944882835,-0.29919357,0.08959938
1764763201.496556,-3.47928,0.6867,0.6714399999999999,0.944882835,-0.29919357,0.08959938
1764763201.496556,-3.47928,0.6867,0.6714399999999999,0.944882835,-0.29919357,0.08959938
1764763201.496556,-3.47928,0.6867,0.6714399999999999,0.944882835,-0.29919357,0.08959938
1764763201.496556,-3.47928,0.6867,0.6714399999999999,0.944882835,-0.29919357,0.08959938
1764763201.496556,-3.47928,0.6867,0.6714399999999999,0.944882835,-0.29919357,0.08959938
1764763201.496556,-3.47928,0.6867,0.6714399999999999,0.944882835,-0.29919357,0.08959938
1764763201.496556,-3.47928,0.6867,0.6714399999999999,0.944882835,-0.29919357,0.08959938
1764763201.496556,-3.69292,0.93086,0.8698199999999999,0.945371115,-0.298400115,0.08874489
1764763201.496556,-3.69292,0.93086,0.8698199999999999,0.945371115,-0.298400115,0.08874489
1764763201.5433967,-3.69292,0.93086,0.8698199999999999,0.945371115,-0.298400115,0.08874489
1764763201.5433967,-3.69292,0.93086,0.8698199999999999,0.945371115,-0.298400115,0.08874489
1764763201.5433967,-3.69292,0.93086,0.8698199999999999,0.945371115,-0.298400115,0.08874489
1764763201.5433967,-3.69292,0.93086,0.8698199999999999,0.945371115,-0.298400115,0.08874489
1764763201.5433967,-3.69292,0.93086,0.8698199999999999,0.945371115,-0.298400115,0.08874489
1764763201.5433967,-3.69292,0.93086,0.8698199999999999,0.945371115,-0.298400115,0.08874489
1764763201.5433967,-3.69292,0.93086,0.8698199999999999,0.945371115,-0.298400115,0.08874489
1764763201.5433967,-3.69292,0.93086,0.8698199999999999,0.945371115,-0.298400115,0.08874489
1764763201.5433967,-4.4254,1.0682,0.77826,0.944760765,-0.297423555,0.08825661
1764763201.5433967,-4.4254,1.0682,0.77826,0.944760765,-0.297423555,0.08825661
1764763201.5433967,-4.4254,1.0682,0.77826,0.944760765,-0.297423555,0.08825661
1764763201.5433967,-4.4254,1.0682,0.77826,0.944760765,-0.297423555,0.08825661
1764763201.5433967,-4.4254,1.0682,0.77826,0.944760765,-0.297423555,0.08825661
1764763201.5433967,-4.4254,1.0682,0.77826,0.944760765,-0.297423555,0.08825661
1764763201.5433967,-4.4254,1.0682,0.77826,0.944760765,-0.297423555,0.08825661
1764763201.5447671,-4.4254,1.0682,0.77826,0.944760765,-0.297423555,0.08825661
1764763201.5447671,-4.4254,1.0682,0.77826,0.944760765,-0.297423555,0.08825661
1764763201.5447671,-4.4254,1.0682,0.77826,0.944760765,-0.297423555,0.08825661
1764763201.5447671,-4.74586,0.6103999999999999,0.18312,0.94506594,-0.297667695,0.08801247
1764763201.5457811,-4.74586,0.6103999999999999,0.18312,0.94506594,-0.297667695,0.08801247
1764763201.5467908,-4.74586,0.6103999999999999,0.18312,0.94506594,-0.297667695,0.08801247
1764763201.5467908,-4.74586,0.6103999999999999,0.18312,0.94506594,-0.297667695,0.08801247
1764763201.5467908,-4.74586,0.6103999999999999,0.18312,0.94506594,-0.297667695,0.08801247
1764763201.5467908,-4.74586,0.6103999999999999,0.18312,0.94506594,-0.297667695,0.08801247
1764763201.5915873,-4.74586,0.6103999999999999,0.18312,0.94506594,-0.297667695,0.08801247
1764763201.5915873,-4.74586,0.6103999999999999,0.18312,0.94506594,-0.297667695,0.08801247
1764763201.5915873,-4.74586,0.6103999999999999,0.18312,0.94506594,-0.297667695,0.08801247
1764763201.5915873,-4.74586,0.6103999999999999,0.18312,0.94506594,-0.297667695,0.08801247
1764763201.5915873,-4.2728,0.94612,0.65618,0.9448218,-0.298400115,0.088683855
1764763201.5915873,-4.2728,0.94612,0.65618,0.9448218,-0.298400115,0.088683855
1764763201.5915873,-4.2728,0.94612,0.65618,0.9448218,-0.298400115,0.088683855
1764763201.5915873,-4.2728,0.94612,0.65618,0.9448218,-0.298400115,0.088683855
1764763201.5915873,-4.2728,0.94612,0.65618,0.9448218,-0.298400115,0.088683855
1764763201.5915873,-4.2728,0.94612,0.65618,0.9448218,-0.298400115,0.088683855
1764763201.5915873,-4.2728,0.94612,0.65618,0.9448218,-0.298400115,0.088683855
1764763201.5915873,-4.2728,0.94612,0.65618,0.9448218,-0.298400115,0.088683855
1764763201.5915873,-4.2728,0.94612,0.65618,0.9448218,-0.298400115,0.088683855
1764763201.5915873,-4.2728,0.94612,0.65618,0.9448218,-0.298400115,0.088683855
1764763201.5915873,-4.02864,0.6714399999999999,0.2289,0.944638695,-0.299132535,0.088683855
1764763201.5915873,-4.02864,0.6714399999999999,0.2289,0.944638695,-0.299132535,0.088683855
1764763201.5931098,-4.02864,0.6714399999999999,0.2289,0.944638695,-0.299132535,0.088683855
1764763201.5931098,-4.02864,0.6714399999999999,0.2289,0.944638695,-0.299132535,0.088683855
1764763201.5931098,-4.02864,0.6714399999999999,0.2289,0.944638695,-0.299132535,0.088683855
1764763201.5931098,-4.02864,0.6714399999999999,0.2289,0.944638695,-0.299132535,0.088683855
1764763201.5931098,-4.02864,0.6714399999999999,0.2289,0.944638695,-0.299132535,0.088683855
1764763201.5931098,-4.02864,0.6714399999999999,0.2289,0.944638695,-0.299132535,0.088683855
1764763201.6398313,-4.02864,0.6714399999999999,0.2289,0.944638695,-0.299132535,0.088683855
1764763201.6398313,-4.02864,0.6714399999999999,0.2289,0.944638695,-0.299132535,0.088683855
1764763201.6398313,-4.08968,0.82404,-0.3357199999999999,0.945859395,-0.298400115,0.088317645
1764763201.6398313,-4.08968,0.82404,-0.3357199999999999,0.945859395,-0.298400115,0.088317645
1764763201.6398313,-4.08968,0.82404,-0.3357199999999999,0.945859395,-0.298400115,0.088317645
1764763201.6398313,-4.08968,0.82404,-0.3357199999999999,0.945859395,-0.298400115,0.088317645
1764763201.6398313,-4.08968,0.82404,-0.3357199999999999,0.945859395,-0.298400115,0.088317645
1764763201.6398313,-4.08968,0.82404,-0.3357199999999999,0.945859395,-0.298400115,0.088317645
1764763201.6398313,-4.08968,0.82404,-0.3357199999999999,0.945859395,-0.298400115,0.088317645
1764763201.6398313,-4.08968,0.82404,-0.3357199999999999,0.945859395,-0.298400115,0.088317645
1764763201.6398313,-4.08968,0.82404,-0.3357199999999999,0.945859395,-0.298400115,0.088317645
1764763201.6398313,-4.08968,0.82404,-0.3357199999999999,0.945859395,-0.298400115,0.088317645
1764763201.6398313,-4.01338,0.93086,-0.3815,0.946225605,-0.297911835,0.088317645
1764763201.6398313,-4.01338,0.93086,-0.3815,0.946225605,-0.297911835,0.088317645
1764763201.6398313,-4.01338,0.93086,-0.3815,0.946225605,-0.297911835,0.088317645
1764763201.6398313,-4.01338,0.93086,-0.3815,0.946225605,-0.297911835,0.088317645
1764763201.6398313,-4.01338,0.93086,-0.3815,0.946225605,-0.297911835,0.088317645
1764763201.6398313,-4.01338,0.93086,-0.3815,0.946225605,-0.297911835,0.088317645
1764763201.6398313,-4.01338,0.93086,-0.3815,0.946225605,-0.297911835,0.088317645
1764763201.6398313,-4.01338,0.93086,-0.3815,0.946225605,-0.297911835,0.088317645
1764763201.6398313,-4.01338,0.93086,-0.3815,0.946225605,-0.297911835,0.088317645
1764763201.6398313,-4.01338,0.93086,-0.3815,0.946225605,-0.297911835,0.088317645
1764763201.6398313,-4.1965,1.17502,-0.01526,0.94616457,-0.29748459,0.087829365
1764763201.6398313,-4.1965,1.17502,-0.01526,0.94616457,-0.29748459,0.087829365
1764763201.6876123,-4.1965,1.17502,-0.01526,0.94616457,-0.29748459,0.087829365
1764763201.6876123,-4.1965,1.17502,-0.01526,0.94616457,-0.29748459,0.087829365
1764763201.6876123,-4.1965,1.17502,-0.01526,0.94616457,-0.29748459,0.087829365
1764763201.688133,-4.1965,1.17502,-0.01526,0.94616457,-0.29748459,0.087829365
1764763201.688133,-4.1965,1.17502,-0.01526,0.94616457,-0.29748459,0.087829365
1764763201.688133,-4.1965,1.17502,-0.01526,0.94616457,-0.29748459,0.087829365
1764763201.688133,-4.1965,1.17502,-0.01526,0.94616457,-0.29748459,0.087829365
1764763201.688133,-4.1965,1.17502,-0.01526,0.94616457,-0.29748459,0.087829365
1764763201.688133,-4.059159999999999,1.00716,0.1525999999999999,0.945249045,-0.296691135,0.08825661
1764763201.688133,-4.059159999999999,1.00716,0.1525999999999999,0.945249045,-0.296691135,0.08825661
1764763201.688133,-4.059159999999999,1.00716,0.1525999999999999,0.945249045,-0.296691135,0.08825661
1764763201.688133,-4.059159999999999,1.00716,0.1525999999999999,0.945249045,-0.296691135,0.08825661
1764763201.688133,-4.059159999999999,1.00716,0.1525999999999999,0.945249045,-0.296691135,0.08825661
1764763201.688133,-4.059159999999999,1.00716,0.1525999999999999,0.945249045,-0.296691135,0.08825661
1764763201.688133,-4.059159999999999,1.00716,0.1525999999999999,0.945249045,-0.296691135,0.08825661
1764763201.688133,-4.059159999999999,1.00716,0.1525999999999999,0.945249045,-0.296691135,0.08825661
1764763201.688133,-4.059159999999999,1.00716,0.1525999999999999,0.945249045,-0.296691135,0.08825661
1764763201.688133,-4.059159999999999,1.00716,0.1525999999999999,0.945249045,-0.296691135,0.08825661
1764763201.688133,-3.69292,0.5341,0.8392999999999999,0.94445559,-0.29626389,0.087707295
1764763201.688133,-3.69292,0.5341,0.8392999999999999,0.94445559,-0.29626389,0.087707295
1764763201.688133,-3.69292,0.5341,0.8392999999999999,0.94445559,-0.29626389,0.087707295
1764763201.688133,-3.69292,0.5341,0.8392999999999999,0.94445559,-0.29626389,0.087707295
1764763201.688133,-3.69292,0.5341,0.8392999999999999,0.94445559,-0.29626389,0.087707295
1764763201.688133,-3.69292,0.5341,0.8392999999999999,0.94445559,-0.29626389,0.087707295
1764763201.7352798,-3.69292,0.5341,0.8392999999999999,0.94445559,-0.29626389,0.087707295
1764763201.7352798,-3.69292,0.5341,0.8392999999999999,0.94445559,-0.29626389,0.087707295
1764763201.7352798,-3.69292,0.5341,0.8392999999999999,0.94445559,-0.29626389,0.087707295
1764763201.7352798,-3.69292,0.5341,0.8392999999999999,0.94445559,-0.29626389,0.087707295
1764763201.7352798,-3.815,0.8392999999999999,0.06104,0.945737325,-0.29638596,0.08715798
1764763201.7352798,-3.815,0.8392999999999999,0.06104,0.945737325,-0.29638596,0.08715798
1764763201.7352798,-3.815,0.8392999999999999,0.06104,0.945737325,-0.29638596,0.08715798
1764763201.7352798,-3.815,0.8392999999999999,0.06104,0.945737325,-0.29638596,0.08715798
1764763201.7352798,-3.815,0.8392999999999999,0.06104,0.945737325,-0.29638596,0.08715798
1764763201.7352798,-3.815,0.8392999999999999,0.06104,0.945737325,-0.29638596,0.08715798
1764763201.7352798,-3.815,0.8392999999999999,0.06104,0.945737325,-0.29638596,0.08715798
1764763201.7352798,-3.815,0.8392999999999999,0.06104,0.945737325,-0.29638596,0.08715798
1764763201.7352798,-3.815,0.8392999999999999,0.06104,0.945737325,-0.29638596,0.08715798
1764763201.7352798,-3.815,0.8392999999999999,0.06104,0.945737325,-0.29638596,0.08715798
1764763201.7352798,-3.55558,1.03768,0.0762999999999999,0.94628664,-0.29699631,0.08691384
1764763201.7352798,-3.55558,1.03768,0.0762999999999999,0.94628664,-0.29699631,0.08691384
1764763201.7352798,-3.55558,1.03768,0.0762999999999999,0.94628664,-0.29699631,0.08691384
1764763201.7352798,-3.55558,1.03768,0.0762999999999999,0.94628664,-0.29699631,0.08691384
1764763201.7352798,-3.55558,1.03768,0.0762999999999999,0.94628664,-0.29699631,0.08691384
1764763201.7352798,-3.55558,1.03768,0.0762999999999999,0.94628664,-0.29699631,0.08691384
1764763201.7352798,-3.55558,1.03768,0.0762999999999999,0.94628664,-0.29699631,0.08691384
1764763201.7352798,-3.55558,1.03768,0.0762999999999999,0.94628664,-0.29699631,0.08691384
1764763201.7794058,-3.55558,1.03768,0.0762999999999999,0.94628664,-0.29699631,0.08691384
1764763201.7794058,-3.55558,1.03768,0.0762999999999999,0.94628664,-0.29699631,0.08691384
1764763201.7799606,-2.88414,1.32762,0.82404,0.944760765,-0.29760666,0.08740212
1764763201.7799606,-2.88414,1.32762,0.82404,0.944760765,-0.29760666,0.08740212
1764763201.7799606,-2.88414,1.32762,0.82404,0.944760765,-0.29760666,0.08740212
1764763201.7799606,-2.88414,1.32762,0.82404,0.944760765,-0.29760666,0.08740212
1764763201.7799606,-2.88414,1.32762,0.82404,0.944760765,-0.29760666,0.08740212
1764763201.7799606,-2.88414,1.32762,0.82404,0.944760765,-0.29760666,0.08740212
1764763201.7799606,-2.88414,1.32762,0.82404,0.944760765,-0.29760666,0.08740212
1764763201.7799606,-2.88414,1.32762,0.82404,0.944760765,-0.29760666,0.08740212
1764763201.7799606,-2.88414,1.32762,0.82404,0.944760765,-0.29760666,0.08740212
1764763201.7799606,-2.88414,1.32762,0.82404,0.944760765,-0.29760666,0.08740212
1764763201.7799606,-2.53316,1.2971,0.6103999999999999,0.946103535,-0.29809494,0.08764626
1764763201.7799606,-2.53316,1.2971,0.6103999999999999,0.946103535,-0.29809494,0.08764626
1764763201.7799606,-2.53316,1.2971,0.6103999999999999,0.946103535,-0.29809494,0.08764626
1764763201.7799606,-2.53316,1.2971,0.6103999999999999,0.946103535,-0.29809494,0.08764626
1764763201.7799606,-2.53316,1.2971,0.6103999999999999,0.946103535,-0.29809494,0.08764626
1764763201.7799606,-2.53316,1.2971,0.6103999999999999,0.946103535,-0.29809494,0.08764626
1764763201.7799606,-2.53316,1.2971,0.6103999999999999,0.946103535,-0.29809494,0.08764626
1764763201.7799606,-2.53316,1.2971,0.6103999999999999,0.946103535,-0.29809494,0.08764626
1764763201.7799606,-2.53316,1.2971,0.6103999999999999,0.946103535,-0.29809494,0.08764626
1764763201.7799606,-2.53316,1.2971,0.6103999999999999,0.946103535,-0.29809494,0.08764626
1764763201.7799606,-3.40298,0.59514,-0.3204599999999999,0.946469745,-0.296446995,0.08728005
1764763201.7799606,-3.40298,0.59514,-0.3204599999999999,0.946469745,-0.296446995,0.08728005
1764763201.7799606,-3.40298,0.59514,-0.3204599999999999,0.946469745,-0.296446995,0.08728005
1764763201.7799606,-3.40298,0.59514,-0.3204599999999999,0.946469745,-0.296446995,0.08728005
1764763201.826134,-3.40298,0.59514,-0.3204599999999999,0.946469745,-0.296446995,0.08728005
1764763201.826134,-3.40298,0.59514,-0.3204599999999999,0.946469745,-0.296446995,0.08728005
1764763201.826134,-3.40298,0.59514,-0.3204599999999999,0.946469745,-0.296446995,0.08728005
1764763201.826134,-3.40298,0.59514,-0.3204599999999999,0.946469745,-0.296446995,0.08728005
1764763201.826662,-3.40298,0.59514,-0.3204599999999999,0.946469745,-0.296446995,0.08728005
1764763201.826662,-3.40298,0.59514,-0.3204599999999999,0.946469745,-0.296446995,0.08728005
1764763201.826662,-3.34194,1.17502,-0.09156,0.948178725,-0.294860085,0.08703591
1764763201.826662,-3.34194,1.17502,-0.09156,0.948178725,-0.294860085,0.08703591
1764763201.826662,-3.34194,1.17502,-0.09156,0.948178725,-0.294860085,0.08703591
1764763201.826662,-3.34194,1.17502,-0.09156,0.948178725,-0.294860085,0.08703591
1764763201.826662,-3.34194,1.17502,-0.09156,0.948178725,-0.294860085,0.08703591
1764763201.826662,-3.34194,1.17502,-0.09156,0.948178725,-0.294860085,0.08703591
1764763201.826662,-3.34194,1.17502,-0.09156,0.948178725,-0.294860085,0.08703591
1764763201.8276913,-3.34194,1.17502,-0.09156,0.948178725,-0.294860085,0.08703591
1764763201.8276913,-3.34194,1.17502,-0.09156,0.948178725,-0.294860085,0.08703591
1764763201.8276913,-3.34194,1.17502,-0.09156,0.948178725,-0.294860085,0.08703591
1764763201.8276913,-3.15882,2.09062,0.6867,0.94982667,-0.294738015,0.087585225
1764763201.8276913,-3.15882,2.09062,0.6867,0.94982667,-0.294738015,0.087585225
1764763201.8276913,-3.15882,2.09062,0.6867,0.94982667,-0.294738015,0.087585225
1764763201.8276913,-3.15882,2.09062,0.6867,0.94982667,-0.294738015,0.087585225
1764763201.8276913,-3.15882,2.09062,0.6867,0.94982667,-0.294738015,0.087585225
1764763201.8276913,-3.15882,2.09062,0.6867,0.94982667,-0.294738015,0.087585225
1764763201.8276913,-3.15882,2.09062,0.6867,0.94982667,-0.294738015,0.087585225
1764763201.8276913,-3.15882,2.09062,0.6867,0.94982667,-0.294738015,0.087585225
1764763201.8743055,-3.15882,2.09062,0.6867,0.94982667,-0.294738015,0.087585225
1764763201.8743055,-3.15882,2.09062,0.6867,0.94982667,-0.294738015,0.087585225
1764763201.8743055,-3.052,2.62472,0.9156,0.94872804,-0.293517315,0.08837868
1764763201.8743055,-3.052,2.62472,0.9156,0.94872804,-0.293517315,0.08837868
1764763201.8743055,-3.052,2.62472,0.9156,0.94872804,-0.293517315,0.08837868
1764763201.8743055,-3.052,2.62472,0.9156,0.94872804,-0.293517315,0.08837868
1764763201.8743055,-3.052,2.62472,0.9156,0.94872804,-0.293517315,0.08837868
1764763201.8743055,-3.052,2.62472,0.9156,0.94872804,-0.293517315,0.08837868
1764763201.8743055,-3.052,2.62472,0.9156,0.94872804,-0.293517315,0.08837868
1764763201.8743055,-3.052,2.62472,0.9156,0.94872804,-0.293517315,0.08837868
1764763201.8743055,-3.052,2.62472,0.9156,0.94872804,-0.293517315,0.08837868
1764763201.8743055,-3.052,2.62472,0.9156,0.94872804,-0.293517315,0.08837868
1764763201.8743055,-3.55558,1.78542,1.1445,0.94640871,-0.293273175,0.08850075
1764763201.8743055,-3.55558,1.78542,1.1445,0.94640871,-0.293273175,0.08850075
1764763201.8743055,-3.55558,1.78542,1.1445,0.94640871,-0.293273175,0.08850075
1764763201.8743055,-3.55558,1.78542,1.1445,0.94640871,-0.293273175,0.08850075
1764763201.8743055,-3.55558,1.78542,1.1445,0.94640871,-0.293273175,0.08850075
1764763201.8743055,-3.55558,1.78542,1.1445,0.94640871,-0.293273175,0.08850075
1764763201.8743055,-3.55558,1.78542,1.1445,0.94640871,-0.293273175,0.08850075
1764763201.8743055,-3.55558,1.78542,1.1445,0.94640871,-0.293273175,0.08850075
1764763201.8743055,-3.55558,1.78542,1.1445,0.94640871,-0.293273175,0.08850075
1764763201.8743055,-3.55558,1.78542,1.1445,0.94640871,-0.293273175,0.08850075
1764763201.921662,-3.14356,1.00716,1.17502,0.943784205,-0.29479905,0.089294205
1764763201.921662,-3.14356,1.00716,1.17502,0.943784205,-0.29479905,0.089294205
1764763201.9221723,-3.14356,1.00716,1.17502,0.943784205,-0.29479905,0.089294205
1764763201.9221723,-3.14356,1.00716,1.17502,0.943784205,-0.29479905,0.089294205
1764763201.9221723,-3.14356,1.00716,1.17502,0.943784205,-0.29479905,0.089294205
1764763201.9221723,-3.14356,1.00716,1.17502,0.943784205,-0.29479905,0.089294205
1764763201.9221723,-3.14356,1.00716,1.17502,0.943784205,-0.29479905,0.089294205
1764763201.9221723,-3.14356,1.00716,1.17502,0.943784205,-0.29479905,0.089294205
1764763201.9221723,-3.14356,1.00716,1.17502,0.943784205,-0.29479905,0.089294205
1764763201.9221723,-3.14356,1.00716,1.17502,0.943784205,-0.29479905,0.089294205
1764763201.9221723,-3.03674,0.24416,1.25132,0.943173855,-0.29516526,0.09045387
1764763201.9221723,-3.03674,0.24416,1.25132,0.943173855,-0.29516526,0.09045387
1764763201.9221723,-3.03674,0.24416,1.25132,0.943173855,-0.29516526,0.09045387
1764763201.9221723,-3.03674,0.24416,1.25132,0.943173855,-0.29516526,0.09045387
1764763201.9221723,-3.03674,0.24416,1.25132,0.943173855,-0.29516526,0.09045387
1764763201.9221723,-3.03674,0.24416,1.25132,0.943173855,-0.29516526,0.09045387
1764763201.9221723,-3.03674,0.24416,1.25132,0.943173855,-0.29516526,0.09045387
1764763201.9221723,-3.03674,0.24416,1.25132,0.943173855,-0.29516526,0.09045387
1764763201.9221723,-3.03674,0.24416,1.25132,0.943173855,-0.29516526,0.09045387
1764763201.9221723,-3.03674,0.24416,1.25132,0.943173855,-0.29516526,0.09045387
1764763201.9221723,-3.18934,0.47306,1.31236,0.94518801,-0.29528733,0.091247325
1764763201.9221723,-3.18934,0.47306,1.31236,0.94518801,-0.29528733,0.091247325
1764763201.9221723,-3.18934,0.47306,1.31236,0.94518801,-0.29528733,0.091247325
1764763201.9221723,-3.18934,0.47306,1.31236,0.94518801,-0.29528733,0.091247325
1764763201.9656804,-3.18934,0.47306,1.31236,0.94518801,-0.29528733,0.091247325
1764763201.9656804,-3.18934,0.47306,1.31236,0.94518801,-0.29528733,0.091247325
1764763201.9656804,-3.18934,0.47306,1.31236,0.94518801,-0.29528733,0.091247325
1764763201.9656804,-3.18934,0.47306,1.31236,0.94518801,-0.29528733,0.091247325
1764763201.9656804,-3.18934,0.47306,1.31236,0.94518801,-0.29528733,0.091247325
1764763201.9656804,-3.18934,0.47306,1.31236,0.94518801,-0.29528733,0.091247325
1764763201.9667585,-4.02864,1.12924,1.6022999999999998,0.946713885,-0.29431077,0.09008766
1764763201.9667585,-4.02864,1.12924,1.6022999999999998,0.946713885,-0.29431077,0.09008766
1764763201.9667585,-4.02864,1.12924,1.6022999999999998,0.946713885,-0.29431077,0.09008766
1764763201.9667585,-4.02864,1.12924,1.6022999999999998,0.946713885,-0.29431077,0.09008766
1764763201.9667585,-4.02864,1.12924,1.6022999999999998,0.946713885,-0.29431077,0.09008766
1764763201.9667585,-4.02864,1.12924,1.6022999999999998,0.946713885,-0.29431077,0.09008766
1764763201.9667585,-4.02864,1.12924,1.6022999999999998,0.946713885,-0.29431077,0.09008766
1764763201.9667585,-4.02864,1.12924,1.6022999999999998,0.946713885,-0.29431077,0.09008766
1764763201.96778,-4.02864,1.12924,1.6022999999999998,0.946713885,-0.29431077,0.09008766
1764763201.96778,-4.02864,1.12924,1.6022999999999998,0.946713885,-0.29431077,0.09008766
1764763201.96778,-4.68482,1.19028,1.95328,0.94665285,-0.29589768,0.08935524
1764763201.96778,-4.68482,1.19028,1.95328,0.94665285,-0.29589768,0.08935524
1764763201.96778,-4.68482,1.19028,1.95328,0.94665285,-0.29589768,0.08935524
1764763201.9687753,-4.68482,1.19028,1.95328,0.94665285,-0.29589768,0.08935524
1764763201.9687753,-4.68482,1.19028,1.95328,0.94665285,-0.29589768,0.08935524
1764763201.9687753,-4.68482,1.19028,1.95328,0.94665285,-0.29589768,0.08935524
1764763202.0151403,-4.68482,1.19028,1.95328,0.94665285,-0.29589768,0.08935524
1764763202.0151403,-4.68482,1.19028,1.95328,0.94665285,-0.29589768,0.08935524
1764763202.0151403,-4.68482,1.19028,1.95328,0.94665285,-0.29589768,0.08935524
1764763202.0151403,-4.68482,1.19028,1.95328,0.94665285,-0.29589768,0.08935524
1764763202.0151403,-3.63188,1.6022999999999998,2.42634,0.94640871,-0.298522185,0.0903318
1764763202.0151403,-3.63188,1.6022999999999998,2.42634,0.94640871,-0.298522185,0.0903318
1764763202.0151403,-3.63188,1.6022999999999998,2.42634,0.94640871,-0.298522185,0.0903318
1764763202.0151403,-3.63188,1.6022999999999998,2.42634,0.94640871,-0.298522185,0.0903318
1764763202.0151403,-3.63188,1.6022999999999998,2.42634,0.94640871,-0.298522185,0.0903318
1764763202.0151403,-3.63188,1.6022999999999998,2.42634,0.94640871,-0.298522185,0.0903318
1764763202.0151403,-3.63188,1.6022999999999998,2.42634,0.94640871,-0.298522185,0.0903318
1764763202.0151403,-3.63188,1.6022999999999998,2.42634,0.94640871,-0.298522185,0.0903318
1764763202.0151403,-3.63188,1.6022999999999998,2.42634,0.94640871,-0.298522185,0.0903318
1764763202.0151403,-3.63188,1.6022999999999998,2.42634,0.94640871,-0.298522185,0.0903318
1764763202.0151403,-3.64714,0.24416,2.19744,0.94274661,-0.298278045,0.089538345
1764763202.0151403,-3.64714,0.24416,2.19744,0.94274661,-0.298278045,0.089538345
1764763202.0151403,-3.64714,0.24416,2.19744,0.94274661,-0.298278045,0.089538345
1764763202.0151403,-3.64714,0.24416,2.19744,0.94274661,-0.298278045,0.089538345
1764763202.0151403,-3.64714,0.24416,2.19744,0.94274661,-0.298278045,0.089538345
1764763202.0151403,-3.64714,0.24416,2.19744,0.94274661,-0.298278045,0.089538345
1764763202.0151403,-3.64714,0.24416,2.19744,0.94274661,-0.298278045,0.089538345
1764763202.0151403,-3.64714,0.24416,2.19744,0.94274661,-0.298278045,0.089538345
1764763202.0151403,-3.64714,0.24416,2.19744,0.94274661,-0.298278045,0.089538345
1764763202.0151403,-3.64714,0.24416,2.19744,0.94274661,-0.298278045,0.089538345
1764763202.0619614,-3.47928,0.1525999999999999,1.95328,0.94250247,-0.29882736,0.089904555
1764763202.0619614,-3.47928,0.1525999999999999,1.95328,0.94250247,-0.29882736,0.089904555
1764763202.0619614,-3.47928,0.1525999999999999,1.95328,0.94250247,-0.29882736,0.089904555
1764763202.0619614,-3.47928,0.1525999999999999,1.95328,0.94250247,-0.29882736,0.089904555
1764763202.0619614,-3.47928,0.1525999999999999,1.95328,0.94250247,-0.29882736,0.089904555
1764763202.0619614,-3.47928,0.1525999999999999,1.95328,0.94250247,-0.29882736,0.089904555
1764763202.0619614,-3.47928,0.1525999999999999,1.95328,0.94250247,-0.29882736,0.089904555
1764763202.0619614,-3.47928,0.1525999999999999,1.95328,0.94250247,-0.29882736,0.089904555
1764763202.0619614,-3.47928,0.1525999999999999,1.95328,0.94250247,-0.29882736,0.089904555
1764763202.0619614,-3.47928,0.1525999999999999,1.95328,0.94250247,-0.29882736,0.089904555
1764763202.0619614,-3.15882,0.1678599999999999,1.86172,0.94531008,-0.299254605,0.090148695
1764763202.0619614,-3.15882,0.1678599999999999,1.86172,0.94531008,-0.299254605,0.090148695
1764763202.0619614,-3.15882,0.1678599999999999,1.86172,0.94531008,-0.299254605,0.090148695
1764763202.0619614,-3.15882,0.1678599999999999,1.86172,0.94531008,-0.299254605,0.090148695
1764763202.0619614,-3.15882,0.1678599999999999,1.86172,0.94531008,-0.299254605,0.090148695
1764763202.0619614,-3.15882,0.1678599999999999,1.86172,0.94531008,-0.299254605,0.090148695
1764763202.0619614,-3.15882,0.1678599999999999,1.86172,0.94531008,-0.299254605,0.090148695
1764763202.0619614,-3.15882,0.1678599999999999,1.86172,0.94531008,-0.299254605,0.090148695
1764763202.0619614,-3.15882,0.1678599999999999,1.86172,0.94531008,-0.299254605,0.090148695
1764763202.0632708,-3.15882,0.1678599999999999,1.86172,0.94531008,-0.299254605,0.090148695
1764763202.0632708,-3.69292,1.17502,1.09872,0.94518801,-0.2978508,0.089050065
1764763202.0632708,-3.69292,1.17502,1.09872,0.94518801,-0.2978508,0.089050065
1764763202.1056087,-3.69292,1.17502,1.09872,0.94518801,-0.2978508,0.089050065
1764763202.1056087,-3.69292,1.17502,1.09872,0.94518801,-0.2978508,0.089050065
1764763202.1056087,-3.69292,1.17502,1.09872,0.94518801,-0.2978508,0.089050065
1764763202.1056087,-3.69292,1.17502,1.09872,0.94518801,-0.2978508,0.089050065
1764763202.1056087,-3.69292,1.17502,1.09872,0.94518801,-0.2978508,0.089050065
1764763202.1056087,-3.69292,1.17502,1.09872,0.94518801,-0.2978508,0.089050065
1764763202.1056087,-3.69292,1.17502,1.09872,0.94518801,-0.2978508,0.089050065
1764763202.1056087,-3.69292,1.17502,1.09872,0.94518801,-0.2978508,0.089050065
1764763202.1061308,-4.77638,1.03768,0.93086,0.945249045,-0.29724045,0.088317645
1764763202.1061308,-4.77638,1.03768,0.93086,0.945249045,-0.29724045,0.088317645
1764763202.1061308,-4.77638,1.03768,0.93086,0.945249045,-0.29724045,0.088317645
1764763202.1061308,-4.77638,1.03768,0.93086,0.945249045,-0.29724045,0.088317645
1764763202.1061308,-4.77638,1.03768,0.93086,0.945249045,-0.29724045,0.088317645
1764763202.1061308,-4.77638,1.03768,0.93086,0.945249045,-0.29724045,0.088317645
1764763202.1072354,-4.77638,1.03768,0.93086,0.945249045,-0.29724045,0.088317645
1764763202.1072354,-4.77638,1.03768,0.93086,0.945249045,-0.29724045,0.088317645
1764763202.1072354,-4.77638,1.03768,0.93086,0.945249045,-0.29724045,0.088317645
1764763202.1072354,-4.77638,1.03768,0.93086,0.945249045,-0.29724045,0.088317645
1764763202.1072354,-4.91372,0.93086,0.48832,0.94518801,-0.298155975,0.088439715
1764763202.1072354,-4.91372,0.93086,0.48832,0.94518801,-0.298155975,0.088439715
1764763202.1072354,-4.91372,0.93086,0.48832,0.94518801,-0.298155975,0.088439715
1764763202.1072354,-4.91372,0.93086,0.48832,0.94518801,-0.298155975,0.088439715
1764763202.1072354,-4.91372,0.93086,0.48832,0.94518801,-0.298155975,0.088439715
1764763202.1072354,-4.91372,0.93086,0.48832,0.94518801,-0.298155975,0.088439715
1764763202.1072354,-4.91372,0.93086,0.48832,0.94518801,-0.298155975,0.088439715
1764763202.1072354,-4.91372,0.93086,0.48832,0.94518801,-0.298155975,0.088439715
1764763202.1551597,-4.91372,0.93086,0.48832,0.94518801,-0.298155975,0.088439715
1764763202.1551597,-4.91372,0.93086,0.48832,0.94518801,-0.298155975,0.088439715
1764763202.1551597,-4.6543,0.42728,0.24416,0.94494387,-0.29980392,0.088683855
1764763202.1551597,-4.6543,0.42728,0.24416,0.94494387,-0.29980392,0.088683855
1764763202.1551597,-4.6543,0.42728,0.24416,0.94494387,-0.29980392,0.088683855
1764763202.1551597,-4.6543,0.42728,0.24416,0.94494387,-0.29980392,0.088683855
1764763202.1551597,-4.6543,0.42728,0.24416,0.94494387,-0.29980392,0.088683855
1764763202.1551597,-4.6543,0.42728,0.24416,0.94494387,-0.29980392,0.088683855
1764763202.1551597,-4.6543,0.42728,0.24416,0.94494387,-0.29980392,0.088683855
1764763202.1551597,-4.6543,0.42728,0.24416,0.94494387,-0.29980392,0.088683855
1764763202.1551597,-4.6543,0.42728,0.24416,0.94494387,-0.29980392,0.088683855
1764763202.1551597,-4.6543,0.42728,0.24416,0.94494387,-0.29980392,0.088683855
1764763202.1551597,-3.54032,0.56462,0.28994,0.9448218,-0.300353235,0.089050065
1764763202.1561685,-3.54032,0.56462,0.28994,0.9448218,-0.300353235,0.089050065
1764763202.1561685,-3.54032,0.56462,0.28994,0.9448218,-0.300353235,0.089050065
1764763202.1561685,-3.54032,0.56462,0.28994,0.9448218,-0.300353235,0.089050065
1764763202.1561685,-3.54032,0.56462,0.28994,0.9448218,-0.300353235,0.089050065
1764763202.1561685,-3.54032,0.56462,0.28994,0.9448218,-0.300353235,0.089050065
1764763202.1561685,-3.54032,0.56462,0.28994,0.9448218,-0.300353235,0.089050065
1764763202.1561685,-3.54032,0.56462,0.28994,0.9448218,-0.300353235,0.089050065
1764763202.1561685,-3.54032,0.56462,0.28994,0.9448218,-0.300353235,0.089050065
1764763202.1561685,-3.54032,0.56462,0.28994,0.9448218,-0.300353235,0.089050065
1764763202.1561685,-3.38772,0.51884,-0.10682,0.94494387,-0.299742885,0.08837868
1764763202.1561685,-3.38772,0.51884,-0.10682,0.94494387,-0.299742885,0.08837868
1764763202.2033026,-3.38772,0.51884,-0.10682,0.94494387,-0.299742885,0.08837868
1764763202.2033026,-3.38772,0.51884,-0.10682,0.94494387,-0.299742885,0.08837868
1764763202.2033026,-3.38772,0.51884,-0.10682,0.94494387,-0.299742885,0.08837868
1764763202.2033026,-3.38772,0.51884,-0.10682,0.94494387,-0.299742885,0.08837868
1764763202.2033026,-3.38772,0.51884,-0.10682,0.94494387,-0.299742885,0.08837868
1764763202.2033026,-3.38772,0.51884,-0.10682,0.94494387,-0.299742885,0.08837868
1764763202.2033026,-3.38772,0.51884,-0.10682,0.94494387,-0.299742885,0.08837868
1764763202.2033026,-3.38772,0.51884,-0.10682,0.94494387,-0.299742885,0.08837868
1764763202.2033026,-4.16598,0.77826,-0.19838,0.9460425,-0.29882736,0.087951435
1764763202.2033026,-4.16598,0.77826,-0.19838,0.9460425,-0.29882736,0.087951435
1764763202.2033026,-4.16598,0.77826,-0.19838,0.9460425,-0.29882736,0.087951435
1764763202.2033026,-4.16598,0.77826,-0.19838,0.9460425,-0.29882736,0.087951435
1764763202.2033026,-4.16598,0.77826,-0.19838,0.9460425,-0.29882736,0.087951435
1764763202.2033026,-4.16598,0.77826,-0.19838,0.9460425,-0.29882736,0.087951435
1764763202.2033026,-4.16598,0.77826,-0.19838,0.9460425,-0.29882736,0.087951435
1764763202.2033026,-4.16598,0.77826,-0.19838,0.9460425,-0.29882736,0.087951435
1764763202.2033026,-4.16598,0.77826,-0.19838,0.9460425,-0.29882736,0.087951435
1764763202.2033026,-4.16598,0.77826,-0.19838,0.9460425,-0.29882736,0.087951435
1764763202.2033026,-4.28806,1.17502,0.36624,0.946225605,-0.29760666,0.087585225
1764763202.2033026,-4.28806,1.17502,0.36624,0.946225605,-0.29760666,0.087585225
1764763202.2033026,-4.28806,1.17502,0.36624,0.946225605,-0.29760666,0.087585225
1764763202.2033026,-4.28806,1.17502,0.36624,0.946225605,-0.29760666,0.087585225
1764763202.247218,-4.28806,1.17502,0.36624,0.946225605,-0.29760666,0.087585225
1764763202.2477522,-4.28806,1.17502,0.36624,0.946225605,-0.29760666,0.087585225
1764763202.2477522,-4.28806,1.17502,0.36624,0.946225605,-0.29760666,0.087585225
1764763202.2477522,-4.28806,1.17502,0.36624,0.946225605,-0.29760666,0.087585225
1764763202.2477522,-4.28806,1.17502,0.36624,0.946225605,-0.29760666,0.087585225
1764763202.2477522,-4.28806,1.17502,0.36624,0.946225605,-0.29760666,0.087585225
1764763202.2477522,-4.77638,1.31236,0.62566,0.94567629,-0.29675217,0.08740212
1764763202.2477522,-4.77638,1.31236,0.62566,0.94567629,-0.29675217,0.08740212
1764763202.2477522,-4.77638,1.31236,0.62566,0.94567629,-0.29675217,0.08740212
1764763202.2477522,-4.77638,1.31236,0.62566,0.94567629,-0.29675217,0.08740212
1764763202.2477522,-4.77638,1.31236,0.62566,0.94567629,-0.29675217,0.08740212
1764763202.2477522,-4.77638,1.31236,0.62566,0.94567629,-0.29675217,0.08740212
1764763202.2477522,-4.77638,1.31236,0.62566,0.94567629,-0.29675217,0.08740212
1764763202.2477522,-4.77638,1.31236,0.62566,0.94567629,-0.29675217,0.08740212
1764763202.2477522,-4.77638,1.31236,0.62566,0.94567629,-0.29675217,0.08740212
1764763202.2477522,-4.77638,1.31236,0.62566,0.94567629,-0.29675217,0.08740212
1764763202.2477522,-4.99002,1.41918,0.39676,0.94531008,-0.29687424,0.08703591
1764763202.2477522,-4.99002,1.41918,0.39676,0.94531008,-0.29687424,0.08703591
1764763202.2477522,-4.99002,1.41918,0.39676,0.94531008,-0.29687424,0.08703591
1764763202.2477522,-4.99002,1.41918,0.39676,0.94531008,-0.29687424,0.08703591
1764763202.2477522,-4.99002,1.41918,0.39676,0.94531008,-0.29687424,0.08703591
1764763202.2477522,-4.99002,1.41918,0.39676,0.94531008,-0.29687424,0.08703591
1764763202.2938802,-4.99002,1.41918,0.39676,0.94531008,-0.29687424,0.08703591
1764763202.2938802,-4.99002,1.41918,0.39676,0.94531008,-0.29687424,0.08703591
1764763202.2938802,-4.99002,1.41918,0.39676,0.94531008,-0.29687424,0.08703591
1764763202.2938802,-4.99002,1.41918,0.39676,0.94531008,-0.29687424,0.08703591
1764763202.2938802,-5.08158,1.00716,0.2289,0.94494387,-0.29760666,0.087096945
1764763202.2938802,-5.08158,1.00716,0.2289,0.94494387,-0.29760666,0.087096945
1764763202.2938802,-5.08158,1.00716,0.2289,0.94494387,-0.29760666,0.087096945
1764763202.2938802,-5.08158,1.00716,0.2289,0.94494387,-0.29760666,0.087096945
1764763202.2938802,-5.08158,1.00716,0.2289,0.94494387,-0.29760666,0.087096945
1764763202.2938802,-5.08158,1.00716,0.2289,0.94494387,-0.29760666,0.087096945
1764763202.2938802,-5.08158,1.00716,0.2289,0.94494387,-0.29760666,0.087096945
1764763202.2938802,-5.08158,1.00716,0.2289,0.94494387,-0.29760666,0.087096945
1764763202.2938802,-5.08158,1.00716,0.2289,0.94494387,-0.29760666,0.087096945
1764763202.2938802,-5.08158,1.00716,0.2289,0.94494387,-0.29760666,0.087096945
1764763202.2938802,-4.51696,0.94612,0.24416,0.945859395,-0.29797287,0.08776833
1764763202.2938802,-4.51696,0.94612,0.24416,0.945859395,-0.29797287,0.08776833
1764763202.2938802,-4.51696,0.94612,0.24416,0.945859395,-0.29797287,0.08776833
1764763202.2938802,-4.51696,0.94612,0.24416,0.945859395,-0.29797287,0.08776833
1764763202.2938802,-4.51696,0.94612,0.24416,0.945859395,-0.29797287,0.08776833
1764763202.2938802,-4.51696,0.94612,0.24416,0.945859395,-0.29797287,0.08776833
1764763202.2938802,-4.51696,0.94612,0.24416,0.945859395,-0.29797287,0.08776833
1764763202.2938802,-4.51696,0.94612,0.24416,0.945859395,-0.29797287,0.08776833
1764763202.2938802,-4.51696,0.94612,0.24416,0.945859395,-0.29797287,0.08776833
1764763202.2938802,-4.51696,0.94612,0.24416,0.945859395,-0.29797287,0.08776833
1764763202.3408127,-3.7387,1.2971,0.47306,0.94445559,-0.2990715,0.088317645
1764763202.3408127,-3.7387,1.2971,0.47306,0.94445559,-0.2990715,0.088317645
1764763202.3408127,-3.7387,1.2971,0.47306,0.94445559,-0.2990715,0.088317645
1764763202.3408127,-3.7387,1.2971,0.47306,0.94445559,-0.2990715,0.088317645
1764763202.3408127,-3.7387,1.2971,0.47306,0.94445559,-0.2990715,0.088317645
1764763202.3408127,-3.7387,1.2971,0.47306,0.94445559,-0.2990715,0.088317645
1764763202.3408127,-3.7387,1.2971,0.47306,0.94445559,-0.2990715,0.088317645
1764763202.3408127,-3.7387,1.2971,0.47306,0.94445559,-0.2990715,0.088317645
1764763202.3408127,-3.7387,1.2971,0.47306,0.94445559,-0.2990715,0.088317645
1764763202.3408127,-3.7387,1.2971,0.47306,0.94445559,-0.2990715,0.088317645
1764763202.3408127,-3.40298,0.77826,0.74774,0.94445559,-0.299132535,0.08813454
1764763202.3408127,-3.40298,0.77826,0.74774,0.94445559,-0.299132535,0.08813454
1764763202.341318,-3.40298,0.77826,0.74774,0.94445559,-0.299132535,0.08813454
1764763202.341318,-3.40298,0.77826,0.74774,0.94445559,-0.299132535,0.08813454
1764763202.341318,-3.40298,0.77826,0.74774,0.94445559,-0.299132535,0.08813454
1764763202.341318,-3.40298,0.77826,0.74774,0.94445559,-0.299132535,0.08813454
1764763202.341318,-3.40298,0.77826,0.74774,0.94445559,-0.299132535,0.08813454
1764763202.341318,-3.40298,0.77826,0.74774,0.94445559,-0.299132535,0.08813454
1764763202.341318,-3.40298,0.77826,0.74774,0.94445559,-0.299132535,0.08813454
1764763202.341318,-3.40298,0.77826,0.74774,0.94445559,-0.299132535,0.08813454
1764763202.341318,-4.08968,0.6714399999999999,0.6714399999999999,0.945249045,-0.29833908,0.08740212
1764763202.341318,-4.08968,0.6714399999999999,0.6714399999999999,0.945249045,-0.29833908,0.08740212
1764763202.341318,-4.08968,0.6714399999999999,0.6714399999999999,0.945249045,-0.29833908,0.08740212
1764763202.341318,-4.08968,0.6714399999999999,0.6714399999999999,0.945249045,-0.29833908,0.08740212
1764763202.3873796,-4.08968,0.6714399999999999,0.6714399999999999,0.945249045,-0.29833908,0.08740212
1764763202.3873796,-4.08968,0.6714399999999999,0.6714399999999999,0.945249045,-0.29833908,0.08740212
1764763202.3873796,-4.08968,0.6714399999999999,0.6714399999999999,0.945249045,-0.29833908,0.08740212
1764763202.3873796,-4.08968,0.6714399999999999,0.6714399999999999,0.945249045,-0.29833908,0.08740212
1764763202.3873796,-4.08968,0.6714399999999999,0.6714399999999999,0.945249045,-0.29833908,0.08740212
1764763202.3873796,-4.08968,0.6714399999999999,0.6714399999999999,0.945249045,-0.29833908,0.08740212
1764763202.3873796,-4.577999999999999,0.42728,-0.51884,0.946347675,-0.296446995,0.08642556
1764763202.3873796,-4.577999999999999,0.42728,-0.51884,0.946347675,-0.296446995,0.08642556
1764763202.3873796,-4.577999999999999,0.42728,-0.51884,0.946347675,-0.296446995,0.08642556
1764763202.3873796,-4.577999999999999,0.42728,-0.51884,0.946347675,-0.296446995,0.08642556
1764763202.3873796,-4.577999999999999,0.42728,-0.51884,0.946347675,-0.296446995,0.08642556
1764763202.3873796,-4.577999999999999,0.42728,-0.51884,0.946347675,-0.296446995,0.08642556
1764763202.3873796,-4.577999999999999,0.42728,-0.51884,0.946347675,-0.296446995,0.08642556
1764763202.3873796,-4.577999999999999,0.42728,-0.51884,0.946347675,-0.296446995,0.08642556
1764763202.3873796,-4.577999999999999,0.42728,-0.51884,0.946347675,-0.296446995,0.08642556
1764763202.3883843,-4.577999999999999,0.42728,-0.51884,0.946347675,-0.296446995,0.08642556
1764763202.3883843,-3.84552,1.1445,-0.25942,0.947690445,-0.297911835,0.087829365
1764763202.3883843,-3.84552,1.1445,-0.25942,0.947690445,-0.297911835,0.087829365
1764763202.3883843,-3.84552,1.1445,-0.25942,0.947690445,-0.297911835,0.087829365
1764763202.3883843,-3.84552,1.1445,-0.25942,0.947690445,-0.297911835,0.087829365
1764763202.3883843,-3.84552,1.1445,-0.25942,0.947690445,-0.297911835,0.087829365
1764763202.3883843,-3.84552,1.1445,-0.25942,0.947690445,-0.297911835,0.087829365
1764763202.4342406,-3.84552,1.1445,-0.25942,0.947690445,-0.297911835,0.087829365
1764763202.4342406,-3.84552,1.1445,-0.25942,0.947690445,-0.297911835,0.087829365
1764763202.4342406,-3.84552,1.1445,-0.25942,0.947690445,-0.297911835,0.087829365
1764763202.4342406,-3.84552,1.1445,-0.25942,0.947690445,-0.297911835,0.087829365
1764763202.4342406,-3.64714,1.87698,-0.2289,0.947690445,-0.297545625,0.088805925
1764763202.4342406,-3.64714,1.87698,-0.2289,0.947690445,-0.297545625,0.088805925
1764763202.4342406,-3.64714,1.87698,-0.2289,0.947690445,-0.297545625,0.088805925
1764763202.4342406,-3.64714,1.87698,-0.2289,0.947690445,-0.297545625,0.088805925
1764763202.4342406,-3.64714,1.87698,-0.2289,0.947690445,-0.297545625,0.088805925
1764763202.4342406,-3.64714,1.87698,-0.2289,0.947690445,-0.297545625,0.088805925
1764763202.4342406,-3.64714,1.87698,-0.2289,0.947690445,-0.297545625,0.088805925
1764763202.4342406,-3.64714,1.87698,-0.2289,0.947690445,-0.297545625,0.088805925
1764763202.4342406,-3.64714,1.87698,-0.2289,0.947690445,-0.297545625,0.088805925
1764763202.4342406,-3.64714,1.87698,-0.2289,0.947690445,-0.297545625,0.088805925
1764763202.4342406,-2.94518,1.31236,-0.3204599999999999,0.94494387,-0.2966301,0.08862282
1764763202.4342406,-2.94518,1.31236,-0.3204599999999999,0.94494387,-0.2966301,0.08862282
1764763202.4342406,-2.94518,1.31236,-0.3204599999999999,0.94494387,-0.2966301,0.08862282
1764763202.4342406,-2.94518,1.31236,-0.3204599999999999,0.94494387,-0.2966301,0.08862282
1764763202.4342406,-2.94518,1.31236,-0.3204599999999999,0.94494387,-0.2966301,0.08862282
1764763202.4352489,-2.94518,1.31236,-0.3204599999999999,0.94494387,-0.2966301,0.08862282
1764763202.4352489,-2.94518,1.31236,-0.3204599999999999,0.94494387,-0.2966301,0.08862282
1764763202.4352489,-2.94518,1.31236,-0.3204599999999999,0.94494387,-0.2966301,0.08862282
1764763202.480369,-2.94518,1.31236,-0.3204599999999999,0.94494387,-0.2966301,0.08862282
1764763202.480369,-2.94518,1.31236,-0.3204599999999999,0.94494387,-0.2966301,0.08862282
1764763202.480369,-2.65524,-0.04578,0.12208,0.942685575,-0.2966301,0.0891111
1764763202.480369,-2.65524,-0.04578,0.12208,0.942685575,-0.2966301,0.0891111
1764763202.480369,-2.65524,-0.04578,0.12208,0.942685575,-0.2966301,0.0891111
1764763202.480369,-2.65524,-0.04578,0.12208,0.942685575,-0.2966301,0.0891111
1764763202.480369,-2.65524,-0.04578,0.12208,0.942685575,-0.2966301,0.0891111
1764763202.480369,-2.65524,-0.04578,0.12208,0.942685575,-0.2966301,0.0891111
1764763202.480369,-2.65524,-0.04578,0.12208,0.942685575,-0.2966301,0.0891111
1764763202.480369,-2.65524,-0.04578,0.12208,0.942685575,-0.2966301,0.0891111
1764763202.480369,-2.65524,-0.04578,0.12208,0.942685575,-0.2966301,0.0891111
1764763202.480369,-2.65524,-0.04578,0.12208,0.942685575,-0.2966301,0.0891111
1764763202.480369,-1.95328,-0.97664,0.74774,0.941342805,-0.29772873,0.0903318
1764763202.480369,-1.95328,-0.97664,0.74774,0.941342805,-0.29772873,0.0903318
1764763202.480369,-1.95328,-0.97664,0.74774,0.941342805,-0.29772873,0.0903318
1764763202.480369,-1.95328,-0.97664,0.74774,0.941342805,-0.29772873,0.0903318
1764763202.480369,-1.95328,-0.97664,0.74774,0.941342805,-0.29772873,0.0903318
1764763202.480369,-1.95328,-0.97664,0.74774,0.941342805,-0.29772873,0.0903318
1764763202.480369,-1.95328,-0.97664,0.74774,0.941342805,-0.29772873,0.0903318
1764763202.480369,-1.95328,-0.97664,0.74774,0.941342805,-0.29772873,0.0903318
1764763202.480369,-1.95328,-0.97664,0.74774,0.941342805,-0.29772873,0.0903318
1764763202.480369,-1.95328,-0.97664,0.74774,0.941342805,-0.29772873,0.0903318
1764763202.480369,-1.57178,-1.69386,0.96138,0.941709015,-0.29955978,0.09082008
1764763202.480369,-1.57178,-1.69386,0.96138,0.941709015,-0.29955978,0.09082008
1764763202.5269673,-1.57178,-1.69386,0.96138,0.941709015,-0.29955978,0.09082008
1764763202.5269673,-1.57178,-1.69386,0.96138,0.941709015,-0.29955978,0.09082008
1764763202.5269673,-1.57178,-1.69386,0.96138,0.941709015,-0.29955978,0.09082008
1764763202.5269673,-1.57178,-1.69386,0.96138,0.941709015,-0.29955978,0.09082008
1764763202.5269673,-1.57178,-1.69386,0.96138,0.941709015,-0.29955978,0.09082008
1764763202.5269673,-1.57178,-1.69386,0.96138,0.941709015,-0.29955978,0.09082008
1764763202.5269673,-1.57178,-1.69386,0.96138,0.941709015,-0.29955978,0.09082008
1764763202.5269673,-1.57178,-1.69386,0.96138,0.941709015,-0.29955978,0.09082008
1764763202.5269673,-1.86172,-1.23606,1.43444,0.94445559,-0.29809494,0.09020973
1764763202.5269673,-1.86172,-1.23606,1.43444,0.94445559,-0.29809494,0.09020973
1764763202.5269673,-1.86172,-1.23606,1.43444,0.94445559,-0.29809494,0.09020973
1764763202.5269673,-1.86172,-1.23606,1.43444,0.94445559,-0.29809494,0.09020973
1764763202.5269673,-1.86172,-1.23606,1.43444,0.94445559,-0.29809494,0.09020973
1764763202.5269673,-1.86172,-1.23606,1.43444,0.94445559,-0.29809494,0.09020973
1764763202.5269673,-1.86172,-1.23606,1.43444,0.94445559,-0.29809494,0.09020973
1764763202.5269673,-1.86172,-1.23606,1.43444,0.94445559,-0.29809494,0.09020973
1764763202.5269673,-1.86172,-1.23606,1.43444,0.94445559,-0.29809494,0.09020973
1764763202.5269673,-1.86172,-1.23606,1.43444,0.94445559,-0.29809494,0.09020973
1764763202.5269673,-3.60136,-0.3815,0.3815,0.946469745,-0.295226295,0.088805925
1764763202.5269673,-3.60136,-0.3815,0.3815,0.946469745,-0.295226295,0.088805925
1764763202.5269673,-3.60136,-0.3815,0.3815,0.946469745,-0.295226295,0.088805925
1764763202.5269673,-3.60136,-0.3815,0.3815,0.946469745,-0.295226295,0.088805925
1764763202.5269673,-3.60136,-0.3815,0.3815,0.946469745,-0.295226295,0.088805925
1764763202.5269673,-3.60136,-0.3815,0.3815,0.946469745,-0.295226295,0.088805925
1764763202.573631,-3.60136,-0.3815,0.3815,0.946469745,-0.295226295,0.088805925
1764763202.573631,-3.60136,-0.3815,0.3815,0.946469745,-0.295226295,0.088805925
1764763202.573631,-3.60136,-0.3815,0.3815,0.946469745,-0.295226295,0.088805925
1764763202.573631,-3.60136,-0.3815,0.3815,0.946469745,-0.295226295,0.088805925
1764763202.573631,-4.715339999999999,0.1525999999999999,0.9003399999999999,0.948056655,-0.29504319,0.08874489
1764763202.573631,-4.715339999999999,0.1525999999999999,0.9003399999999999,0.948056655,-0.29504319,0.08874489
1764763202.573631,-4.715339999999999,0.1525999999999999,0.9003399999999999,0.948056655,-0.29504319,0.08874489
1764763202.573631,-4.715339999999999,0.1525999999999999,0.9003399999999999,0.948056655,-0.29504319,0.08874489
1764763202.573631,-4.715339999999999,0.1525999999999999,0.9003399999999999,0.948056655,-0.29504319,0.08874489
1764763202.573631,-4.715339999999999,0.1525999999999999,0.9003399999999999,0.948056655,-0.29504319,0.08874489
1764763202.573631,-4.715339999999999,0.1525999999999999,0.9003399999999999,0.948056655,-0.29504319,0.08874489
1764763202.573631,-4.715339999999999,0.1525999999999999,0.9003399999999999,0.948056655,-0.29504319,0.08874489
1764763202.573631,-4.715339999999999,0.1525999999999999,0.9003399999999999,0.948056655,-0.29504319,0.08874489
1764763202.573631,-4.715339999999999,0.1525999999999999,0.9003399999999999,0.948056655,-0.29504319,0.08874489
1764763202.573631,-5.82932,-0.09156,0.42728,0.944760765,-0.29443284,0.08801247
1764763202.573631,-5.82932,-0.09156,0.42728,0.944760765,-0.29443284,0.08801247
1764763202.573631,-5.82932,-0.09156,0.42728,0.944760765,-0.29443284,0.08801247
1764763202.573631,-5.82932,-0.09156,0.42728,0.944760765,-0.29443284,0.08801247
1764763202.573631,-5.82932,-0.09156,0.42728,0.944760765,-0.29443284,0.08801247
