Timestamp,GyroX,GyroY,GyroZ,AccX,AccY,AccZ
1764762731.7347622,-5.63094,-0.96138,2.3653,0.97826898,-0.199401345,-0.059020845
1764762731.7352753,-5.63094,-0.96138,2.3653,0.97826898,-0.199401345,-0.059020845
1764762731.7352753,-5.63094,-0.96138,2.3653,0.97826898,-0.199401345,-0.059020845
1764762731.7352753,-5.63094,-0.96138,2.3653,0.97826898,-0.199401345,-0.059020845
1764762731.7352753,-5.63094,-0.96138,2.3653,0.97826898,-0.199401345,-0.059020845
1764762731.7352753,-5.17314,-0.42728,1.8312,0.97802484,-0.20080515,-0.05847153
1764762731.7352753,-5.17314,-0.42728,1.8312,0.97802484,-0.20080515,-0.05847153
1764762731.7352753,-5.17314,-0.42728,1.8312,0.97802484,-0.20080515,-0.05847153
1764762731.7352753,-5.17314,-0.42728,1.8312,0.97802484,-0.20080515,-0.05847153
1764762731.7352753,-5.17314,-0.42728,1.8312,0.97802484,-0.20080515,-0.05847153
1764762731.7352753,-5.17314,-0.42728,1.8312,0.97802484,-0.20080515,-0.05847153
1764762731.7352753,-5.17314,-0.42728,1.8312,0.97802484,-0.20080515,-0.05847153
1764762731.7352753,-5.17314,-0.42728,1.8312,0.97802484,-0.20080515,-0.05847153
1764762731.7352753,-5.17314,-0.42728,1.8312,0.97802484,-0.20080515,-0.05847153
1764762731.7352753,-5.17314,-0.42728,1.8312,0.97802484,-0.20080515,-0.05847153
1764762731.7352753,-4.440659999999999,-0.7019599999999999,1.41918,0.9753393,-0.202819305,-0.0585936
1764762731.7352753,-4.440659999999999,-0.7019599999999999,1.41918,0.9753393,-0.202819305,-0.0585936
1764762731.7352753,-4.440659999999999,-0.7019599999999999,1.41918,0.9753393,-0.202819305,-0.0585936
1764762731.7352753,-4.440659999999999,-0.7019599999999999,1.41918,0.9753393,-0.202819305,-0.0585936
1764762731.7352753,-4.440659999999999,-0.7019599999999999,1.41918,0.9753393,-0.202819305,-0.0585936
1764762731.7352753,-4.440659999999999,-0.7019599999999999,1.41918,0.9753393,-0.202819305,-0.0585936
1764762731.7352753,-4.440659999999999,-0.7019599999999999,1.41918,0.9753393,-0.202819305,-0.0585936
1764762731.7352753,-4.440659999999999,-0.7019599999999999,1.41918,0.9753393,-0.202819305,-0.0585936
1764762731.7830637,-4.440659999999999,-0.7019599999999999,1.41918,0.9753393,-0.202819305,-0.0585936
1764762731.7830637,-4.440659999999999,-0.7019599999999999,1.41918,0.9753393,-0.202819305,-0.0585936
1764762731.7830637,-6.027699999999999,-1.2208,1.46496,0.974057565,-0.201110325,-0.06030258
1764762731.7830637,-6.027699999999999,-1.2208,1.46496,0.974057565,-0.201110325,-0.06030258
1764762731.7830637,-6.027699999999999,-1.2208,1.46496,0.974057565,-0.201110325,-0.06030258
1764762731.7830637,-6.027699999999999,-1.2208,1.46496,0.974057565,-0.201110325,-0.06030258
1764762731.7830637,-6.027699999999999,-1.2208,1.46496,0.974057565,-0.201110325,-0.06030258
1764762731.7830637,-6.027699999999999,-1.2208,1.46496,0.974057565,-0.201110325,-0.06030258
1764762731.7830637,-6.027699999999999,-1.2208,1.46496,0.974057565,-0.201110325,-0.06030258
1764762731.7830637,-6.027699999999999,-1.2208,1.46496,0.974057565,-0.201110325,-0.06030258
1764762731.7830637,-6.027699999999999,-1.2208,1.46496,0.974057565,-0.201110325,-0.06030258
1764762731.7830637,-6.027699999999999,-1.2208,1.46496,0.974057565,-0.201110325,-0.06030258
1764762731.7830637,-6.4855,-1.23606,1.1445,0.975766545,-0.200622045,-0.06201156
1764762731.7848074,-6.4855,-1.23606,1.1445,0.975766545,-0.200622045,-0.06201156
1764762731.7848074,-6.4855,-1.23606,1.1445,0.975766545,-0.200622045,-0.06201156
1764762731.7848074,-6.4855,-1.23606,1.1445,0.975766545,-0.200622045,-0.06201156
1764762731.7848074,-6.4855,-1.23606,1.1445,0.975766545,-0.200622045,-0.06201156
1764762731.7848074,-6.4855,-1.23606,1.1445,0.975766545,-0.200622045,-0.06201156
1764762731.7848074,-6.4855,-1.23606,1.1445,0.975766545,-0.200622045,-0.06201156
1764762731.7848074,-6.4855,-1.23606,1.1445,0.975766545,-0.200622045,-0.06201156
1764762731.7848074,-6.4855,-1.23606,1.1445,0.975766545,-0.200622045,-0.06201156
1764762731.7848074,-6.4855,-1.23606,1.1445,0.975766545,-0.200622045,-0.06201156
1764762731.8276198,-6.91278,-0.51884,0.57988,0.9777807,-0.201476535,-0.063293295
1764762731.8276198,-6.91278,-0.51884,0.57988,0.9777807,-0.201476535,-0.063293295
1764762731.8276198,-6.91278,-0.51884,0.57988,0.9777807,-0.201476535,-0.063293295
1764762731.8276198,-6.91278,-0.51884,0.57988,0.9777807,-0.201476535,-0.063293295
1764762731.8276198,-6.91278,-0.51884,0.57988,0.9777807,-0.201476535,-0.063293295
1764762731.8276198,-6.91278,-0.51884,0.57988,0.9777807,-0.201476535,-0.063293295
1764762731.8276198,-6.91278,-0.51884,0.57988,0.9777807,-0.201476535,-0.063293295
1764762731.8276198,-6.91278,-0.51884,0.57988,0.9777807,-0.201476535,-0.063293295
1764762731.8276198,-6.91278,-0.51884,0.57988,0.9777807,-0.201476535,-0.063293295
1764762731.8276198,-6.91278,-0.51884,0.57988,0.9777807,-0.201476535,-0.063293295
1764762731.8276198,-6.4855,-0.06104,0.3051999999999999,0.97839105,-0.20361276,-0.06262191
1764762731.8276198,-6.4855,-0.06104,0.3051999999999999,0.97839105,-0.20361276,-0.06262191
1764762731.8276198,-6.4855,-0.06104,0.3051999999999999,0.97839105,-0.20361276,-0.06262191
1764762731.8276198,-6.4855,-0.06104,0.3051999999999999,0.97839105,-0.20361276,-0.06262191
1764762731.8276198,-6.4855,-0.06104,0.3051999999999999,0.97839105,-0.20361276,-0.06262191
1764762731.8276198,-6.4855,-0.06104,0.3051999999999999,0.97839105,-0.20361276,-0.06262191
1764762731.8276198,-6.4855,-0.06104,0.3051999999999999,0.97839105,-0.20361276,-0.06262191
1764762731.8276198,-6.4855,-0.06104,0.3051999999999999,0.97839105,-0.20361276,-0.06262191
1764762731.8276198,-6.4855,-0.06104,0.3051999999999999,0.97839105,-0.20361276,-0.06262191
1764762731.8276198,-6.4855,-0.06104,0.3051999999999999,0.97839105,-0.20361276,-0.06262191
1764762731.8276198,-5.7225,-0.5341,0.3357199999999999,0.97802484,-0.203307585,-0.062072595
1764762731.8276198,-5.7225,-0.5341,0.3357199999999999,0.97802484,-0.203307585,-0.062072595
1764762731.8276198,-5.7225,-0.5341,0.3357199999999999,0.97802484,-0.203307585,-0.062072595
1764762731.8276198,-5.7225,-0.5341,0.3357199999999999,0.97802484,-0.203307585,-0.062072595
1764762731.8750684,-5.7225,-0.5341,0.3357199999999999,0.97802484,-0.203307585,-0.062072595
1764762731.8750684,-5.7225,-0.5341,0.3357199999999999,0.97802484,-0.203307585,-0.062072595
1764762731.8750684,-5.7225,-0.5341,0.3357199999999999,0.97802484,-0.203307585,-0.062072595
1764762731.8750684,-5.7225,-0.5341,0.3357199999999999,0.97802484,-0.203307585,-0.062072595
1764762731.8750684,-5.7225,-0.5341,0.3357199999999999,0.97802484,-0.203307585,-0.062072595
1764762731.8750684,-5.7225,-0.5341,0.3357199999999999,0.97802484,-0.203307585,-0.062072595
1764762731.8750684,-5.38678,-0.6409199999999999,0.9003399999999999,0.97814691,-0.202331025,-0.06311019
1764762731.8750684,-5.38678,-0.6409199999999999,0.9003399999999999,0.97814691,-0.202331025,-0.06311019
1764762731.8750684,-5.38678,-0.6409199999999999,0.9003399999999999,0.97814691,-0.202331025,-0.06311019
1764762731.8750684,-5.38678,-0.6409199999999999,0.9003399999999999,0.97814691,-0.202331025,-0.06311019
1764762731.8750684,-5.38678,-0.6409199999999999,0.9003399999999999,0.97814691,-0.202331025,-0.06311019
1764762731.8750684,-5.38678,-0.6409199999999999,0.9003399999999999,0.97814691,-0.202331025,-0.06311019
1764762731.8750684,-5.38678,-0.6409199999999999,0.9003399999999999,0.97814691,-0.202331025,-0.06311019
1764762731.8750684,-5.38678,-0.6409199999999999,0.9003399999999999,0.97814691,-0.202331025,-0.06311019
1764762731.8750684,-5.38678,-0.6409199999999999,0.9003399999999999,0.97814691,-0.202331025,-0.06311019
1764762731.8750684,-5.38678,-0.6409199999999999,0.9003399999999999,0.97814691,-0.202331025,-0.06311019
1764762731.8750684,-4.53222,-0.10682,0.73248,0.979550715,-0.20239206,-0.062927085
1764762731.8750684,-4.53222,-0.10682,0.73248,0.979550715,-0.20239206,-0.062927085
1764762731.8750684,-4.53222,-0.10682,0.73248,0.979550715,-0.20239206,-0.062927085
1764762731.8750684,-4.53222,-0.10682,0.73248,0.979550715,-0.20239206,-0.062927085
1764762731.8750684,-4.53222,-0.10682,0.73248,0.979550715,-0.20239206,-0.062927085
1764762731.8750684,-4.53222,-0.10682,0.73248,0.979550715,-0.20239206,-0.062927085
1764762731.8750684,-4.53222,-0.10682,0.73248,0.979550715,-0.20239206,-0.062927085
1764762731.8750684,-4.53222,-0.10682,0.73248,0.979550715,-0.20239206,-0.062927085
1764762731.922877,-4.53222,-0.10682,0.73248,0.979550715,-0.20239206,-0.062927085
1764762731.922877,-4.53222,-0.10682,0.73248,0.979550715,-0.20239206,-0.062927085
1764762731.922877,-3.83026,0.79352,1.41918,0.980161065,-0.202208955,-0.06237777
1764762731.922877,-3.83026,0.79352,1.41918,0.980161065,-0.202208955,-0.06237777
1764762731.922877,-3.83026,0.79352,1.41918,0.980161065,-0.202208955,-0.06237777
1764762731.922877,-3.83026,0.79352,1.41918,0.980161065,-0.202208955,-0.06237777
1764762731.922877,-3.83026,0.79352,1.41918,0.980161065,-0.202208955,-0.06237777
1764762731.922877,-3.83026,0.79352,1.41918,0.980161065,-0.202208955,-0.06237777
1764762731.922877,-3.83026,0.79352,1.41918,0.980161065,-0.202208955,-0.06237777
1764762731.922877,-3.83026,0.79352,1.41918,0.980161065,-0.202208955,-0.06237777
1764762731.922877,-3.83026,0.79352,1.41918,0.980161065,-0.202208955,-0.06237777
1764762731.922877,-3.83026,0.79352,1.41918,0.980161065,-0.202208955,-0.06237777
1764762731.922877,-3.98286,0.51884,1.6786,0.979428645,-0.202208955,-0.06249984
1764762731.922877,-3.98286,0.51884,1.6786,0.979428645,-0.202208955,-0.06249984
1764762731.922877,-3.98286,0.51884,1.6786,0.979428645,-0.202208955,-0.06249984
1764762731.922877,-3.98286,0.51884,1.6786,0.979428645,-0.202208955,-0.06249984
1764762731.922877,-3.98286,0.51884,1.6786,0.979428645,-0.202208955,-0.06249984
1764762731.922877,-3.98286,0.51884,1.6786,0.979428645,-0.202208955,-0.06249984
1764762731.922877,-3.98286,0.51884,1.6786,0.979428645,-0.202208955,-0.06249984
1764762731.922877,-3.98286,0.51884,1.6786,0.979428645,-0.202208955,-0.06249984
1764762731.922877,-3.98286,0.51884,1.6786,0.979428645,-0.202208955,-0.06249984
1764762731.922877,-3.98286,0.51884,1.6786,0.979428645,-0.202208955,-0.06249984
1764762731.966804,-4.0439,0.8087799999999999,1.64808,0.97924554,-0.201598605,-0.063537435
1764762731.966804,-4.0439,0.8087799999999999,1.64808,0.97924554,-0.201598605,-0.063537435
1764762731.966804,-4.0439,0.8087799999999999,1.64808,0.97924554,-0.201598605,-0.063537435
1764762731.966804,-4.0439,0.8087799999999999,1.64808,0.97924554,-0.201598605,-0.063537435
1764762731.966804,-4.0439,0.8087799999999999,1.64808,0.97924554,-0.201598605,-0.063537435
1764762731.966804,-4.0439,0.8087799999999999,1.64808,0.97924554,-0.201598605,-0.063537435
1764762731.967323,-4.0439,0.8087799999999999,1.64808,0.97924554,-0.201598605,-0.063537435
1764762731.967323,-4.0439,0.8087799999999999,1.64808,0.97924554,-0.201598605,-0.063537435
1764762731.967323,-4.0439,0.8087799999999999,1.64808,0.97924554,-0.201598605,-0.063537435
1764762731.967323,-4.0439,0.8087799999999999,1.64808,0.97924554,-0.201598605,-0.063537435
1764762731.967323,-3.38772,1.0682,2.01432,0.97851312,-0.203063445,-0.062560875
1764762731.967323,-3.38772,1.0682,2.01432,0.97851312,-0.203063445,-0.062560875
1764762731.967323,-3.38772,1.0682,2.01432,0.97851312,-0.203063445,-0.062560875
1764762731.967323,-3.38772,1.0682,2.01432,0.97851312,-0.203063445,-0.062560875
1764762731.967323,-3.38772,1.0682,2.01432,0.97851312,-0.203063445,-0.062560875
1764762731.967323,-3.38772,1.0682,2.01432,0.97851312,-0.203063445,-0.062560875
1764762731.967323,-3.38772,1.0682,2.01432,0.97851312,-0.203063445,-0.062560875
1764762731.967323,-3.38772,1.0682,2.01432,0.97851312,-0.203063445,-0.062560875
1764762731.967323,-3.38772,1.0682,2.01432,0.97851312,-0.203063445,-0.062560875
1764762731.967323,-3.38772,1.0682,2.01432,0.97851312,-0.203063445,-0.062560875
1764762731.967323,-2.96044,0.3815,2.30426,0.97631586,-0.20275827,-0.06213363
1764762731.967323,-2.96044,0.3815,2.30426,0.97631586,-0.20275827,-0.06213363
1764762731.967323,-2.96044,0.3815,2.30426,0.97631586,-0.20275827,-0.06213363
1764762731.967323,-2.96044,0.3815,2.30426,0.97631586,-0.20275827,-0.06213363
1764762732.0138514,-2.96044,0.3815,2.30426,0.97631586,-0.20275827,-0.06213363
1764762732.0138514,-2.96044,0.3815,2.30426,0.97631586,-0.20275827,-0.06213363
1764762732.0138514,-2.96044,0.3815,2.30426,0.97631586,-0.20275827,-0.06213363
1764762732.0138514,-2.96044,0.3815,2.30426,0.97631586,-0.20275827,-0.06213363
1764762732.0138514,-2.96044,0.3815,2.30426,0.97631586,-0.20275827,-0.06213363
1764762732.0138514,-2.96044,0.3815,2.30426,0.97631586,-0.20275827,-0.06213363
1764762732.0138514,-3.00622,-0.9919,2.24322,0.976376895,-0.20275827,-0.06262191
1764762732.0138514,-3.00622,-0.9919,2.24322,0.976376895,-0.20275827,-0.06262191
1764762732.0138514,-3.00622,-0.9919,2.24322,0.976376895,-0.20275827,-0.06262191
1764762732.0138514,-3.00622,-0.9919,2.24322,0.976376895,-0.20275827,-0.06262191
1764762732.0138514,-3.00622,-0.9919,2.24322,0.976376895,-0.20275827,-0.06262191
1764762732.0138514,-3.00622,-0.9919,2.24322,0.976376895,-0.20275827,-0.06262191
1764762732.0138514,-3.00622,-0.9919,2.24322,0.976376895,-0.20275827,-0.06262191
1764762732.0138514,-3.00622,-0.9919,2.24322,0.976376895,-0.20275827,-0.06262191
1764762732.0148609,-3.00622,-0.9919,2.24322,0.976376895,-0.20275827,-0.06262191
1764762732.0148609,-3.00622,-0.9919,2.24322,0.976376895,-0.20275827,-0.06262191
1764762732.0148609,-4.02864,-1.2055399999999998,2.07536,0.977353455,-0.201964815,-0.06335433
1764762732.0148609,-4.02864,-1.2055399999999998,2.07536,0.977353455,-0.201964815,-0.06335433
1764762732.0148609,-4.02864,-1.2055399999999998,2.07536,0.977353455,-0.201964815,-0.06335433
1764762732.0148609,-4.02864,-1.2055399999999998,2.07536,0.977353455,-0.201964815,-0.06335433
1764762732.0148609,-4.02864,-1.2055399999999998,2.07536,0.977353455,-0.201964815,-0.06335433
1764762732.0148609,-4.02864,-1.2055399999999998,2.07536,0.977353455,-0.201964815,-0.06335433
1764762732.0587964,-4.02864,-1.2055399999999998,2.07536,0.977353455,-0.201964815,-0.06335433
1764762732.0587964,-4.02864,-1.2055399999999998,2.07536,0.977353455,-0.201964815,-0.06335433
1764762732.0587964,-4.02864,-1.2055399999999998,2.07536,0.977353455,-0.201964815,-0.06335433
1764762732.0587964,-4.02864,-1.2055399999999998,2.07536,0.977353455,-0.201964815,-0.06335433
1764762732.0593011,-4.852679999999999,-0.3051999999999999,1.8312,0.97985589,-0.19995066,-0.063293295
1764762732.0593011,-4.852679999999999,-0.3051999999999999,1.8312,0.97985589,-0.19995066,-0.063293295
1764762732.0593011,-4.852679999999999,-0.3051999999999999,1.8312,0.97985589,-0.19995066,-0.063293295
1764762732.0593011,-4.852679999999999,-0.3051999999999999,1.8312,0.97985589,-0.19995066,-0.063293295
1764762732.0593011,-4.852679999999999,-0.3051999999999999,1.8312,0.97985589,-0.19995066,-0.063293295
1764762732.0593011,-4.852679999999999,-0.3051999999999999,1.8312,0.97985589,-0.19995066,-0.063293295
1764762732.059816,-4.852679999999999,-0.3051999999999999,1.8312,0.97985589,-0.19995066,-0.063293295
1764762732.059816,-4.852679999999999,-0.3051999999999999,1.8312,0.97985589,-0.19995066,-0.063293295
1764762732.059816,-4.852679999999999,-0.3051999999999999,1.8312,0.97985589,-0.19995066,-0.063293295
1764762732.059816,-4.852679999999999,-0.3051999999999999,1.8312,0.97985589,-0.19995066,-0.063293295
1764762732.059816,-5.53938,1.35814,1.35814,0.98278557,-0.199401345,-0.0622557
1764762732.0607076,-5.53938,1.35814,1.35814,0.98278557,-0.199401345,-0.0622557
1764762732.0607076,-5.53938,1.35814,1.35814,0.98278557,-0.199401345,-0.0622557
1764762732.0607076,-5.53938,1.35814,1.35814,0.98278557,-0.199401345,-0.0622557
1764762732.0607076,-5.53938,1.35814,1.35814,0.98278557,-0.199401345,-0.0622557
1764762732.0607076,-5.53938,1.35814,1.35814,0.98278557,-0.199401345,-0.0622557
1764762732.0607076,-5.53938,1.35814,1.35814,0.98278557,-0.199401345,-0.0622557
1764762732.0607076,-5.53938,1.35814,1.35814,0.98278557,-0.199401345,-0.0622557
1764762732.0607076,-5.53938,1.35814,1.35814,0.98278557,-0.199401345,-0.0622557
1764762732.0607076,-5.53938,1.35814,1.35814,0.98278557,-0.199401345,-0.0622557
1764762732.1079483,-4.74586,2.02958,0.85456,0.98205315,-0.20104929,-0.06188949
1764762732.1079483,-4.74586,2.02958,0.85456,0.98205315,-0.20104929,-0.06188949
1764762732.1079483,-4.74586,2.02958,0.85456,0.98205315,-0.20104929,-0.06188949
1764762732.1079483,-4.74586,2.02958,0.85456,0.98205315,-0.20104929,-0.06188949
1764762732.1079483,-4.74586,2.02958,0.85456,0.98205315,-0.20104929,-0.06188949
1764762732.1079483,-4.74586,2.02958,0.85456,0.98205315,-0.20104929,-0.06188949
1764762732.1079483,-4.74586,2.02958,0.85456,0.98205315,-0.20104929,-0.06188949
1764762732.1079483,-4.74586,2.02958,0.85456,0.98205315,-0.20104929,-0.06188949
1764762732.1079483,-4.74586,2.02958,0.85456,0.98205315,-0.20104929,-0.06188949
1764762732.1079483,-4.74586,2.02958,0.85456,0.98205315,-0.20104929,-0.06188949
1764762732.1079483,-4.1202,1.23606,1.03768,0.978696225,-0.20251413,-0.061584315
1764762732.1079483,-4.1202,1.23606,1.03768,0.978696225,-0.20251413,-0.061584315
1764762732.1079483,-4.1202,1.23606,1.03768,0.978696225,-0.20251413,-0.061584315
1764762732.1079483,-4.1202,1.23606,1.03768,0.978696225,-0.20251413,-0.061584315
1764762732.1079483,-4.1202,1.23606,1.03768,0.978696225,-0.20251413,-0.061584315
1764762732.1079483,-4.1202,1.23606,1.03768,0.978696225,-0.20251413,-0.061584315
1764762732.1079483,-4.1202,1.23606,1.03768,0.978696225,-0.20251413,-0.061584315
1764762732.1079483,-4.1202,1.23606,1.03768,0.978696225,-0.20251413,-0.061584315
1764762732.1091788,-4.1202,1.23606,1.03768,0.978696225,-0.20251413,-0.061584315
1764762732.1091788,-4.1202,1.23606,1.03768,0.978696225,-0.20251413,-0.061584315
1764762732.1091788,-3.2809,0.27468,0.10682,0.97570551,-0.203063445,-0.061340175
1764762732.1091788,-3.2809,0.27468,0.10682,0.97570551,-0.203063445,-0.061340175
1764762732.1091788,-3.2809,0.27468,0.10682,0.97570551,-0.203063445,-0.061340175
1764762732.1091788,-3.2809,0.27468,0.10682,0.97570551,-0.203063445,-0.061340175
1764762732.1530645,-3.2809,0.27468,0.10682,0.97570551,-0.203063445,-0.061340175
1764762732.1530645,-3.2809,0.27468,0.10682,0.97570551,-0.203063445,-0.061340175
1764762732.1530645,-3.2809,0.27468,0.10682,0.97570551,-0.203063445,-0.061340175
1764762732.1530645,-3.2809,0.27468,0.10682,0.97570551,-0.203063445,-0.061340175
1764762732.1530645,-3.2809,0.27468,0.10682,0.97570551,-0.203063445,-0.061340175
1764762732.1530645,-3.2809,0.27468,0.10682,0.97570551,-0.203063445,-0.061340175
1764762732.1530645,-3.57084,-0.19838,0.44254,0.97570551,-0.20178171,-0.06188949
1764762732.1530645,-3.57084,-0.19838,0.44254,0.97570551,-0.20178171,-0.06188949
1764762732.1530645,-3.57084,-0.19838,0.44254,0.97570551,-0.20178171,-0.06188949
1764762732.1530645,-3.57084,-0.19838,0.44254,0.97570551,-0.20178171,-0.06188949
1764762732.1530645,-3.57084,-0.19838,0.44254,0.97570551,-0.20178171,-0.06188949
1764762732.1530645,-3.57084,-0.19838,0.44254,0.97570551,-0.20178171,-0.06188949
1764762732.1530645,-3.57084,-0.19838,0.44254,0.97570551,-0.20178171,-0.06188949
1764762732.1530645,-3.57084,-0.19838,0.44254,0.97570551,-0.20178171,-0.06188949
1764762732.1530645,-3.57084,-0.19838,0.44254,0.97570551,-0.20178171,-0.06188949
1764762732.1530645,-3.57084,-0.19838,0.44254,0.97570551,-0.20178171,-0.06188949
1764762732.1530645,-4.303319999999999,0.12208,0.4578,0.978696225,-0.200377905,-0.06274398
1764762732.1530645,-4.303319999999999,0.12208,0.4578,0.978696225,-0.200377905,-0.06274398
1764762732.1530645,-4.303319999999999,0.12208,0.4578,0.978696225,-0.200377905,-0.06274398
1764762732.1530645,-4.303319999999999,0.12208,0.4578,0.978696225,-0.200377905,-0.06274398
1764762732.1530645,-4.303319999999999,0.12208,0.4578,0.978696225,-0.200377905,-0.06274398
1764762732.1530645,-4.303319999999999,0.12208,0.4578,0.978696225,-0.200377905,-0.06274398
1764762732.2001162,-4.303319999999999,0.12208,0.4578,0.978696225,-0.200377905,-0.06274398
1764762732.2001162,-4.303319999999999,0.12208,0.4578,0.978696225,-0.200377905,-0.06274398
1764762732.2001162,-4.303319999999999,0.12208,0.4578,0.978696225,-0.200377905,-0.06274398
1764762732.2001162,-4.303319999999999,0.12208,0.4578,0.978696225,-0.200377905,-0.06274398
1764762732.2001162,-5.646199999999999,1.34288,0.77826,0.98071038,-0.19982859,-0.06298812
1764762732.2001162,-5.646199999999999,1.34288,0.77826,0.98071038,-0.19982859,-0.06298812
1764762732.2001162,-5.646199999999999,1.34288,0.77826,0.98071038,-0.19982859,-0.06298812
1764762732.2001162,-5.646199999999999,1.34288,0.77826,0.98071038,-0.19982859,-0.06298812
1764762732.2001162,-5.646199999999999,1.34288,0.77826,0.98071038,-0.19982859,-0.06298812
1764762732.2001162,-5.646199999999999,1.34288,0.77826,0.98071038,-0.19982859,-0.06298812
1764762732.2001162,-5.646199999999999,1.34288,0.77826,0.98071038,-0.19982859,-0.06298812
1764762732.2001162,-5.646199999999999,1.34288,0.77826,0.98071038,-0.19982859,-0.06298812
1764762732.2001162,-5.646199999999999,1.34288,0.77826,0.98071038,-0.19982859,-0.06298812
1764762732.200623,-5.646199999999999,1.34288,0.77826,0.98071038,-0.19982859,-0.06298812
1764762732.200623,-6.08874,0.96138,0.8698199999999999,0.980527275,-0.200744115,-0.0634764
1764762732.200623,-6.08874,0.96138,0.8698199999999999,0.980527275,-0.200744115,-0.0634764
1764762732.200623,-6.08874,0.96138,0.8698199999999999,0.980527275,-0.200744115,-0.0634764
1764762732.200623,-6.08874,0.96138,0.8698199999999999,0.980527275,-0.200744115,-0.0634764
1764762732.200623,-6.08874,0.96138,0.8698199999999999,0.980527275,-0.200744115,-0.0634764
1764762732.200623,-6.08874,0.96138,0.8698199999999999,0.980527275,-0.200744115,-0.0634764
1764762732.200623,-6.08874,0.96138,0.8698199999999999,0.980527275,-0.200744115,-0.0634764
1764762732.200623,-6.08874,0.96138,0.8698199999999999,0.980527275,-0.200744115,-0.0634764
1764762732.200623,-6.08874,0.96138,0.8698199999999999,0.980527275,-0.200744115,-0.0634764
1764762732.200623,-6.08874,0.96138,0.8698199999999999,0.980527275,-0.200744115,-0.0634764
1764762732.2016337,-5.76828,0.73248,1.58704,0.977841735,-0.20300241,-0.06335433
1764762732.2016337,-5.76828,0.73248,1.58704,0.977841735,-0.20300241,-0.06335433
1764762732.2470932,-5.76828,0.73248,1.58704,0.977841735,-0.20300241,-0.06335433
1764762732.2470932,-5.76828,0.73248,1.58704,0.977841735,-0.20300241,-0.06335433
1764762732.2470932,-5.76828,0.73248,1.58704,0.977841735,-0.20300241,-0.06335433
1764762732.2470932,-5.76828,0.73248,1.58704,0.977841735,-0.20300241,-0.06335433
1764762732.2470932,-5.76828,0.73248,1.58704,0.977841735,-0.20300241,-0.06335433
1764762732.2470932,-5.76828,0.73248,1.58704,0.977841735,-0.20300241,-0.06335433
1764762732.2470932,-5.76828,0.73248,1.58704,0.977841735,-0.20300241,-0.06335433
1764762732.2470932,-5.76828,0.73248,1.58704,0.977841735,-0.20300241,-0.06335433
1764762732.2470932,-5.40204,-0.10682,1.48022,0.97656,-0.20251413,-0.063903645
1764762732.2470932,-5.40204,-0.10682,1.48022,0.97656,-0.20251413,-0.063903645
1764762732.2470932,-5.40204,-0.10682,1.48022,0.97656,-0.20251413,-0.063903645
1764762732.2470932,-5.40204,-0.10682,1.48022,0.97656,-0.20251413,-0.063903645
1764762732.2470932,-5.40204,-0.10682,1.48022,0.97656,-0.20251413,-0.063903645
1764762732.2470932,-5.40204,-0.10682,1.48022,0.97656,-0.20251413,-0.063903645
1764762732.2470932,-5.40204,-0.10682,1.48022,0.97656,-0.20251413,-0.063903645
1764762732.2470932,-5.40204,-0.10682,1.48022,0.97656,-0.20251413,-0.063903645
1764762732.2470932,-5.40204,-0.10682,1.48022,0.97656,-0.20251413,-0.063903645
1764762732.2470932,-5.40204,-0.10682,1.48022,0.97656,-0.20251413,-0.063903645
1764762732.2470932,-5.340999999999999,-0.94612,1.8312,0.976621035,-0.203185515,-0.06408675
1764762732.2470932,-5.340999999999999,-0.94612,1.8312,0.976621035,-0.203185515,-0.06408675
1764762732.2470932,-5.340999999999999,-0.94612,1.8312,0.976621035,-0.203185515,-0.06408675
1764762732.2470932,-5.340999999999999,-0.94612,1.8312,0.976621035,-0.203185515,-0.06408675
1764762732.2937715,-5.340999999999999,-0.94612,1.8312,0.976621035,-0.203185515,-0.06408675
1764762732.2937715,-5.340999999999999,-0.94612,1.8312,0.976621035,-0.203185515,-0.06408675
1764762732.2937715,-5.340999999999999,-0.94612,1.8312,0.976621035,-0.203185515,-0.06408675
1764762732.2937715,-5.340999999999999,-0.94612,1.8312,0.976621035,-0.203185515,-0.06408675
1764762732.2937715,-5.340999999999999,-0.94612,1.8312,0.976621035,-0.203185515,-0.06408675
1764762732.2937715,-5.340999999999999,-0.94612,1.8312,0.976621035,-0.203185515,-0.06408675
1764762732.2937715,-5.31048,-0.3815,2.10588,0.97814691,-0.20312448,-0.064025715
1764762732.2937715,-5.31048,-0.3815,2.10588,0.97814691,-0.20312448,-0.064025715
1764762732.2937715,-5.31048,-0.3815,2.10588,0.97814691,-0.20312448,-0.064025715
1764762732.2937715,-5.31048,-0.3815,2.10588,0.97814691,-0.20312448,-0.064025715
1764762732.2944582,-5.31048,-0.3815,2.10588,0.97814691,-0.20312448,-0.064025715
1764762732.2944582,-5.31048,-0.3815,2.10588,0.97814691,-0.20312448,-0.064025715
1764762732.2944582,-5.31048,-0.3815,2.10588,0.97814691,-0.20312448,-0.064025715
1764762732.2944582,-5.31048,-0.3815,2.10588,0.97814691,-0.20312448,-0.064025715
1764762732.2944582,-5.31048,-0.3815,2.10588,0.97814691,-0.20312448,-0.064025715
1764762732.2944582,-5.31048,-0.3815,2.10588,0.97814691,-0.20312448,-0.064025715
1764762732.2944582,-5.53938,-0.01526,2.01432,0.977353455,-0.2026362,-0.0646971
1764762732.2944582,-5.53938,-0.01526,2.01432,0.977353455,-0.2026362,-0.0646971
1764762732.2944582,-5.53938,-0.01526,2.01432,0.977353455,-0.2026362,-0.0646971
1764762732.2944582,-5.53938,-0.01526,2.01432,0.977353455,-0.2026362,-0.0646971
1764762732.2944582,-5.53938,-0.01526,2.01432,0.977353455,-0.2026362,-0.0646971
1764762732.2944582,-5.53938,-0.01526,2.01432,0.977353455,-0.2026362,-0.0646971
1764762732.2944582,-5.53938,-0.01526,2.01432,0.977353455,-0.2026362,-0.0646971
1764762732.2944582,-5.53938,-0.01526,2.01432,0.977353455,-0.2026362,-0.0646971
1764762732.3411975,-5.53938,-0.01526,2.01432,0.977353455,-0.2026362,-0.0646971
1764762732.3411975,-5.53938,-0.01526,2.01432,0.977353455,-0.2026362,-0.0646971
1764762732.3411975,-6.1803,0.51884,1.58704,0.97729242,-0.20275827,-0.065734695
1764762732.3411975,-6.1803,0.51884,1.58704,0.97729242,-0.20275827,-0.065734695
1764762732.3411975,-6.1803,0.51884,1.58704,0.97729242,-0.20275827,-0.065734695
1764762732.3411975,-6.1803,0.51884,1.58704,0.97729242,-0.20275827,-0.065734695
1764762732.3411975,-6.1803,0.51884,1.58704,0.97729242,-0.20275827,-0.065734695
1764762732.3411975,-6.1803,0.51884,1.58704,0.97729242,-0.20275827,-0.065734695
1764762732.3411975,-6.1803,0.51884,1.58704,0.97729242,-0.20275827,-0.065734695
1764762732.3411975,-6.1803,0.51884,1.58704,0.97729242,-0.20275827,-0.065734695
1764762732.3411975,-6.1803,0.51884,1.58704,0.97729242,-0.20275827,-0.065734695
1764762732.3411975,-6.1803,0.51884,1.58704,0.97729242,-0.20275827,-0.065734695
1764762732.3411975,-5.82932,0.36624,1.17502,0.977597595,-0.20300241,-0.06542952
1764762732.3411975,-5.82932,0.36624,1.17502,0.977597595,-0.20300241,-0.06542952
1764762732.3417048,-5.82932,0.36624,1.17502,0.977597595,-0.20300241,-0.06542952
1764762732.3417048,-5.82932,0.36624,1.17502,0.977597595,-0.20300241,-0.06542952
1764762732.3417048,-5.82932,0.36624,1.17502,0.977597595,-0.20300241,-0.06542952
1764762732.3417048,-5.82932,0.36624,1.17502,0.977597595,-0.20300241,-0.06542952
1764762732.3417048,-5.82932,0.36624,1.17502,0.977597595,-0.20300241,-0.06542952
1764762732.3417048,-5.82932,0.36624,1.17502,0.977597595,-0.20300241,-0.06542952
1764762732.3417048,-5.82932,0.36624,1.17502,0.977597595,-0.20300241,-0.06542952
1764762732.3417048,-5.82932,0.36624,1.17502,0.977597595,-0.20300241,-0.06542952
1764762732.387514,-5.58516,0.5341,0.3815,0.97802484,-0.204406215,-0.06567366
1764762732.387514,-5.58516,0.5341,0.3815,0.97802484,-0.204406215,-0.06567366
1764762732.387514,-5.58516,0.5341,0.3815,0.97802484,-0.204406215,-0.06567366
1764762732.387514,-5.58516,0.5341,0.3815,0.97802484,-0.204406215,-0.06567366
1764762732.3880243,-5.58516,0.5341,0.3815,0.97802484,-0.204406215,-0.06567366
1764762732.3880243,-5.58516,0.5341,0.3815,0.97802484,-0.204406215,-0.06567366
1764762732.3880243,-5.58516,0.5341,0.3815,0.97802484,-0.204406215,-0.06567366
1764762732.3880243,-5.58516,0.5341,0.3815,0.97802484,-0.204406215,-0.06567366
1764762732.3880243,-5.58516,0.5341,0.3815,0.97802484,-0.204406215,-0.06567366
1764762732.3880243,-5.58516,0.5341,0.3815,0.97802484,-0.204406215,-0.06567366
1764762732.3880243,-5.06632,0.50358,0.13734,0.97802484,-0.20568795,-0.06555159
1764762732.3880243,-5.06632,0.50358,0.13734,0.97802484,-0.20568795,-0.06555159
1764762732.3880243,-5.06632,0.50358,0.13734,0.97802484,-0.20568795,-0.06555159
1764762732.3880243,-5.06632,0.50358,0.13734,0.97802484,-0.20568795,-0.06555159
1764762732.3880243,-5.06632,0.50358,0.13734,0.97802484,-0.20568795,-0.06555159
1764762732.3880243,-5.06632,0.50358,0.13734,0.97802484,-0.20568795,-0.06555159
1764762732.3880243,-5.06632,0.50358,0.13734,0.97802484,-0.20568795,-0.06555159
1764762732.3880243,-5.06632,0.50358,0.13734,0.97802484,-0.20568795,-0.06555159
1764762732.3880243,-5.06632,0.50358,0.13734,0.97802484,-0.20568795,-0.06555159
1764762732.3880243,-5.06632,0.50358,0.13734,0.97802484,-0.20568795,-0.06555159
1764762732.3880243,-4.0439,0.6867,-0.10682,0.978696225,-0.205382775,-0.066345045
1764762732.3880243,-4.0439,0.6867,-0.10682,0.978696225,-0.205382775,-0.066345045
1764762732.3880243,-4.0439,0.6867,-0.10682,0.978696225,-0.205382775,-0.066345045
1764762732.3880243,-4.0439,0.6867,-0.10682,0.978696225,-0.205382775,-0.066345045
1764762732.4345586,-4.0439,0.6867,-0.10682,0.978696225,-0.205382775,-0.066345045
1764762732.4345586,-4.0439,0.6867,-0.10682,0.978696225,-0.205382775,-0.066345045
1764762732.4345586,-4.0439,0.6867,-0.10682,0.978696225,-0.205382775,-0.066345045
1764762732.4345586,-4.0439,0.6867,-0.10682,0.978696225,-0.205382775,-0.066345045
1764762732.4345586,-4.0439,0.6867,-0.10682,0.978696225,-0.205382775,-0.066345045
1764762732.4345586,-4.0439,0.6867,-0.10682,0.978696225,-0.205382775,-0.066345045
1764762732.4345586,-3.87604,0.71722,-0.47306,0.97961175,-0.20471139,-0.066955395
1764762732.4345586,-3.87604,0.71722,-0.47306,0.97961175,-0.20471139,-0.066955395
1764762732.4345586,-3.87604,0.71722,-0.47306,0.97961175,-0.20471139,-0.066955395
1764762732.4345586,-3.87604,0.71722,-0.47306,0.97961175,-0.20471139,-0.066955395
1764762732.4345586,-3.87604,0.71722,-0.47306,0.97961175,-0.20471139,-0.066955395
1764762732.4345586,-3.87604,0.71722,-0.47306,0.97961175,-0.20471139,-0.066955395
1764762732.4345586,-3.87604,0.71722,-0.47306,0.97961175,-0.20471139,-0.066955395
1764762732.4345586,-3.87604,0.71722,-0.47306,0.97961175,-0.20471139,-0.066955395
1764762732.4345586,-3.87604,0.71722,-0.47306,0.97961175,-0.20471139,-0.066955395
1764762732.4345586,-3.87604,0.71722,-0.47306,0.97961175,-0.20471139,-0.066955395
1764762732.4345586,-4.0439,1.51074,-0.24416,0.97924554,-0.20458932,-0.06677229
1764762732.4345586,-4.0439,1.51074,-0.24416,0.97924554,-0.20458932,-0.06677229
1764762732.4345586,-4.0439,1.51074,-0.24416,0.97924554,-0.20458932,-0.06677229
1764762732.4345586,-4.0439,1.51074,-0.24416,0.97924554,-0.20458932,-0.06677229
1764762732.4345586,-4.0439,1.51074,-0.24416,0.97924554,-0.20458932,-0.06677229
1764762732.4345586,-4.0439,1.51074,-0.24416,0.97924554,-0.20458932,-0.06677229
1764762732.480761,-4.0439,1.51074,-0.24416,0.97924554,-0.20458932,-0.06677229
1764762732.480761,-4.0439,1.51074,-0.24416,0.97924554,-0.20458932,-0.06677229
1764762732.480761,-4.0439,1.51074,-0.24416,0.97924554,-0.20458932,-0.06677229
1764762732.480761,-4.0439,1.51074,-0.24416,0.97924554,-0.20458932,-0.06677229
1764762732.480761,-4.0439,1.8006799999999998,0.12208,0.9777807,-0.20373483,-0.06677229
1764762732.480761,-4.0439,1.8006799999999998,0.12208,0.9777807,-0.20373483,-0.06677229
1764762732.480761,-4.0439,1.8006799999999998,0.12208,0.9777807,-0.20373483,-0.06677229
1764762732.480761,-4.0439,1.8006799999999998,0.12208,0.9777807,-0.20373483,-0.06677229
1764762732.480761,-4.0439,1.8006799999999998,0.12208,0.9777807,-0.20373483,-0.06677229
1764762732.480761,-4.0439,1.8006799999999998,0.12208,0.9777807,-0.20373483,-0.06677229
1764762732.480761,-4.0439,1.8006799999999998,0.12208,0.9777807,-0.20373483,-0.06677229
1764762732.480761,-4.0439,1.8006799999999998,0.12208,0.9777807,-0.20373483,-0.06677229
1764762732.480761,-4.0439,1.8006799999999998,0.12208,0.9777807,-0.20373483,-0.06677229
1764762732.480761,-4.0439,1.8006799999999998,0.12208,0.9777807,-0.20373483,-0.06677229
1764762732.480761,-3.95234,1.23606,-0.41202,0.97656,-0.20312448,-0.06738264
1764762732.480761,-3.95234,1.23606,-0.41202,0.97656,-0.20312448,-0.06738264
1764762732.480761,-3.95234,1.23606,-0.41202,0.97656,-0.20312448,-0.06738264
1764762732.480761,-3.95234,1.23606,-0.41202,0.97656,-0.20312448,-0.06738264
1764762732.480761,-3.95234,1.23606,-0.41202,0.97656,-0.20312448,-0.06738264
1764762732.480761,-3.95234,1.23606,-0.41202,0.97656,-0.20312448,-0.06738264
1764762732.480761,-3.95234,1.23606,-0.41202,0.97656,-0.20312448,-0.06738264
1764762732.480761,-3.95234,1.23606,-0.41202,0.97656,-0.20312448,-0.06738264
1764762732.480761,-3.95234,1.23606,-0.41202,0.97656,-0.20312448,-0.06738264
1764762732.480761,-3.95234,1.23606,-0.41202,0.97656,-0.20312448,-0.06738264
1764762732.528886,-3.21986,1.03768,-1.17502,0.978452085,-0.20397897,-0.067199535
1764762732.528886,-3.21986,1.03768,-1.17502,0.978452085,-0.20397897,-0.067199535
1764762732.528886,-3.21986,1.03768,-1.17502,0.978452085,-0.20397897,-0.067199535
1764762732.528886,-3.21986,1.03768,-1.17502,0.978452085,-0.20397897,-0.067199535
1764762732.528886,-3.21986,1.03768,-1.17502,0.978452085,-0.20397897,-0.067199535
1764762732.528886,-3.21986,1.03768,-1.17502,0.978452085,-0.20397897,-0.067199535
1764762732.528886,-3.21986,1.03768,-1.17502,0.978452085,-0.20397897,-0.067199535
1764762732.528886,-3.21986,1.03768,-1.17502,0.978452085,-0.20397897,-0.067199535
1764762732.528886,-3.21986,1.03768,-1.17502,0.978452085,-0.20397897,-0.067199535
1764762732.528886,-3.21986,1.03768,-1.17502,0.978452085,-0.20397897,-0.067199535
1764762732.528886,-1.64808,1.63282,-0.44254,0.978574155,-0.20654244,-0.0671385
1764762732.528886,-1.64808,1.63282,-0.44254,0.978574155,-0.20654244,-0.0671385
1764762732.528886,-1.64808,1.63282,-0.44254,0.978574155,-0.20654244,-0.0671385
1764762732.528886,-1.64808,1.63282,-0.44254,0.978574155,-0.20654244,-0.0671385
1764762732.528886,-1.64808,1.63282,-0.44254,0.978574155,-0.20654244,-0.0671385
1764762732.528886,-1.64808,1.63282,-0.44254,0.978574155,-0.20654244,-0.0671385
1764762732.528886,-1.64808,1.63282,-0.44254,0.978574155,-0.20654244,-0.0671385
1764762732.528886,-1.64808,1.63282,-0.44254,0.978574155,-0.20654244,-0.0671385
1764762732.528886,-1.64808,1.63282,-0.44254,0.978574155,-0.20654244,-0.0671385
1764762732.528886,-1.64808,1.63282,-0.44254,0.978574155,-0.20654244,-0.0671385
1764762732.528886,-0.5341,2.24322,0.18312,0.978574155,-0.20764107,-0.06726057
1764762732.528886,-0.5341,2.24322,0.18312,0.978574155,-0.20764107,-0.06726057
1764762732.528886,-0.5341,2.24322,0.18312,0.978574155,-0.20764107,-0.06726057
1764762732.528886,-0.5341,2.24322,0.18312,0.978574155,-0.20764107,-0.06726057
1764762732.574003,-0.5341,2.24322,0.18312,0.978574155,-0.20764107,-0.06726057
1764762732.574003,-0.5341,2.24322,0.18312,0.978574155,-0.20764107,-0.06726057
1764762732.574003,-0.5341,2.24322,0.18312,0.978574155,-0.20764107,-0.06726057
1764762732.574003,-0.5341,2.24322,0.18312,0.978574155,-0.20764107,-0.06726057
1764762732.574003,-0.5341,2.24322,0.18312,0.978574155,-0.20764107,-0.06726057
1764762732.574003,-0.5341,2.24322,0.18312,0.978574155,-0.20764107,-0.06726057
1764762732.574003,-1.9838,2.39582,-0.04578,0.979062435,-0.204162075,-0.06860334
1764762732.574003,-1.9838,2.39582,-0.04578,0.979062435,-0.204162075,-0.06860334
1764762732.574003,-1.9838,2.39582,-0.04578,0.979062435,-0.204162075,-0.06860334
1764762732.574003,-1.9838,2.39582,-0.04578,0.979062435,-0.204162075,-0.06860334
1764762732.5747972,-1.9838,2.39582,-0.04578,0.979062435,-0.204162075,-0.06860334
1764762732.5747972,-1.9838,2.39582,-0.04578,0.979062435,-0.204162075,-0.06860334
1764762732.5747972,-1.9838,2.39582,-0.04578,0.979062435,-0.204162075,-0.06860334
1764762732.5747972,-1.9838,2.39582,-0.04578,0.979062435,-0.204162075,-0.06860334
1764762732.5747972,-1.9838,2.39582,-0.04578,0.979062435,-0.204162075,-0.06860334
1764762732.5747972,-1.9838,2.39582,-0.04578,0.979062435,-0.204162075,-0.06860334
1764762732.5747972,-4.13546,2.47212,-0.65618,0.978818295,-0.19946238,-0.070373355
1764762732.5747972,-4.13546,2.47212,-0.65618,0.978818295,-0.19946238,-0.070373355
1764762732.5747972,-4.13546,2.47212,-0.65618,0.978818295,-0.19946238,-0.070373355
1764762732.5747972,-4.13546,2.47212,-0.65618,0.978818295,-0.19946238,-0.070373355
1764762732.5747972,-4.13546,2.47212,-0.65618,0.978818295,-0.19946238,-0.070373355
1764762732.5747972,-4.13546,2.47212,-0.65618,0.978818295,-0.19946238,-0.070373355
1764762732.618504,-4.13546,2.47212,-0.65618,0.978818295,-0.19946238,-0.070373355
1764762732.618504,-4.13546,2.47212,-0.65618,0.978818295,-0.19946238,-0.070373355
1764762732.618504,-4.13546,2.47212,-0.65618,0.978818295,-0.19946238,-0.070373355
1764762732.618504,-4.13546,2.47212,-0.65618,0.978818295,-0.19946238,-0.070373355
1764762732.618504,-5.38678,4.18124,-1.23606,0.981015555,-0.19946238,-0.068664375
1764762732.618504,-5.38678,4.18124,-1.23606,0.981015555,-0.19946238,-0.068664375
1764762732.618504,-5.38678,4.18124,-1.23606,0.981015555,-0.19946238,-0.068664375
1764762732.618504,-5.38678,4.18124,-1.23606,0.981015555,-0.19946238,-0.068664375
1764762732.618504,-5.38678,4.18124,-1.23606,0.981015555,-0.19946238,-0.068664375
1764762732.618504,-5.38678,4.18124,-1.23606,0.981015555,-0.19946238,-0.068664375
1764762732.618504,-5.38678,4.18124,-1.23606,0.981015555,-0.19946238,-0.068664375
1764762732.618504,-5.38678,4.18124,-1.23606,0.981015555,-0.19946238,-0.068664375
1764762732.618504,-5.38678,4.18124,-1.23606,0.981015555,-0.19946238,-0.068664375
1764762732.618504,-5.38678,4.18124,-1.23606,0.981015555,-0.19946238,-0.068664375
1764762732.618504,-4.83742,5.0358,-0.96138,0.98254143,-0.20239206,-0.06628401
1764762732.618504,-4.83742,5.0358,-0.96138,0.98254143,-0.20239206,-0.06628401
1764762732.618504,-4.83742,5.0358,-0.96138,0.98254143,-0.20239206,-0.06628401
1764762732.618504,-4.83742,5.0358,-0.96138,0.98254143,-0.20239206,-0.06628401
1764762732.618504,-4.83742,5.0358,-0.96138,0.98254143,-0.20239206,-0.06628401
1764762732.618504,-4.83742,5.0358,-0.96138,0.98254143,-0.20239206,-0.06628401
1764762732.618504,-4.83742,5.0358,-0.96138,0.98254143,-0.20239206,-0.06628401
1764762732.618504,-4.83742,5.0358,-0.96138,0.98254143,-0.20239206,-0.06628401
1764762732.618504,-4.83742,5.0358,-0.96138,0.98254143,-0.20239206,-0.06628401
1764762732.618504,-4.83742,5.0358,-0.96138,0.98254143,-0.20239206,-0.06628401
1764762732.618504,-4.02864,4.76112,-0.73248,0.979916925,-0.20312448,-0.06396468
1764762732.618504,-4.02864,4.76112,-0.73248,0.979916925,-0.20312448,-0.06396468
1764762732.6664891,-4.02864,4.76112,-0.73248,0.979916925,-0.20312448,-0.06396468
1764762732.6664891,-4.02864,4.76112,-0.73248,0.979916925,-0.20312448,-0.06396468
1764762732.6664891,-4.02864,4.76112,-0.73248,0.979916925,-0.20312448,-0.06396468
1764762732.6664891,-4.02864,4.76112,-0.73248,0.979916925,-0.20312448,-0.06396468
1764762732.6664891,-4.02864,4.76112,-0.73248,0.979916925,-0.20312448,-0.06396468
1764762732.6664891,-4.02864,4.76112,-0.73248,0.979916925,-0.20312448,-0.06396468
1764762732.6664891,-4.02864,4.76112,-0.73248,0.979916925,-0.20312448,-0.06396468
1764762732.6664891,-4.02864,4.76112,-0.73248,0.979916925,-0.20312448,-0.06396468
1764762732.6664891,-2.91466,3.38772,-0.763,0.97546137,-0.203429655,-0.0622557
1764762732.6664891,-2.91466,3.38772,-0.763,0.97546137,-0.203429655,-0.0622557
1764762732.6664891,-2.91466,3.38772,-0.763,0.97546137,-0.203429655,-0.0622557
1764762732.6664891,-2.91466,3.38772,-0.763,0.97546137,-0.203429655,-0.0622557
1764762732.6664891,-2.91466,3.38772,-0.763,0.97546137,-0.203429655,-0.0622557
1764762732.6664891,-2.91466,3.38772,-0.763,0.97546137,-0.203429655,-0.0622557
1764762732.6664891,-2.91466,3.38772,-0.763,0.97546137,-0.203429655,-0.0622557
1764762732.6664891,-2.91466,3.38772,-0.763,0.97546137,-0.203429655,-0.0622557
1764762732.6664891,-2.91466,3.38772,-0.763,0.97546137,-0.203429655,-0.0622557
1764762732.6664891,-2.91466,3.38772,-0.763,0.97546137,-0.203429655,-0.0622557
1764762732.6664891,-2.09062,2.09062,-0.9156,0.973935495,-0.203551725,-0.062072595
1764762732.6664891,-2.09062,2.09062,-0.9156,0.973935495,-0.203551725,-0.062072595
1764762732.6664891,-2.09062,2.09062,-0.9156,0.973935495,-0.203551725,-0.062072595
1764762732.6664891,-2.09062,2.09062,-0.9156,0.973935495,-0.203551725,-0.062072595
1764762732.7144468,-2.09062,2.09062,-0.9156,0.973935495,-0.203551725,-0.062072595
1764762732.7144468,-2.09062,2.09062,-0.9156,0.973935495,-0.203551725,-0.062072595
1764762732.7144468,-2.09062,2.09062,-0.9156,0.973935495,-0.203551725,-0.062072595
1764762732.7144468,-2.09062,2.09062,-0.9156,0.973935495,-0.203551725,-0.062072595
1764762732.7144468,-2.09062,2.09062,-0.9156,0.973935495,-0.203551725,-0.062072595
1764762732.7144468,-2.09062,2.09062,-0.9156,0.973935495,-0.203551725,-0.062072595
1764762732.7144468,-2.86888,2.53316,-1.54126,0.97680414,-0.20153757,-0.06091293
1764762732.7144468,-2.86888,2.53316,-1.54126,0.97680414,-0.20153757,-0.06091293
1764762732.7144468,-2.86888,2.53316,-1.54126,0.97680414,-0.20153757,-0.06091293
1764762732.7144468,-2.86888,2.53316,-1.54126,0.97680414,-0.20153757,-0.06091293
1764762732.7144468,-2.86888,2.53316,-1.54126,0.97680414,-0.20153757,-0.06091293
1764762732.7144468,-2.86888,2.53316,-1.54126,0.97680414,-0.20153757,-0.06091293
1764762732.7144468,-2.86888,2.53316,-1.54126,0.97680414,-0.20153757,-0.06091293
1764762732.7144468,-2.86888,2.53316,-1.54126,0.97680414,-0.20153757,-0.06091293
1764762732.7144468,-2.86888,2.53316,-1.54126,0.97680414,-0.20153757,-0.06091293
1764762732.7144468,-2.86888,2.53316,-1.54126,0.97680414,-0.20153757,-0.06091293
1764762732.7144468,-2.8994,2.70102,-1.70912,0.97912347,-0.199645485,-0.061218105
1764762732.7144468,-2.8994,2.70102,-1.70912,0.97912347,-0.199645485,-0.061218105
1764762732.7144468,-2.8994,2.70102,-1.70912,0.97912347,-0.199645485,-0.061218105
1764762732.7144468,-2.8994,2.70102,-1.70912,0.97912347,-0.199645485,-0.061218105
1764762732.7144468,-2.8994,2.70102,-1.70912,0.97912347,-0.199645485,-0.061218105
1764762732.7144468,-2.8994,2.70102,-1.70912,0.97912347,-0.199645485,-0.061218105
1764762732.7144468,-2.8994,2.70102,-1.70912,0.97912347,-0.199645485,-0.061218105
1764762732.7144468,-2.8994,2.70102,-1.70912,0.97912347,-0.199645485,-0.061218105
1764762732.7611804,-2.8994,2.70102,-1.70912,0.97912347,-0.199645485,-0.061218105
1764762732.7611804,-2.8994,2.70102,-1.70912,0.97912347,-0.199645485,-0.061218105
1764762732.7611804,-3.49454,2.289,-1.3734,0.978940365,-0.19787547,-0.061462245
1764762732.7611804,-3.49454,2.289,-1.3734,0.978940365,-0.19787547,-0.061462245
1764762732.7611804,-3.49454,2.289,-1.3734,0.978940365,-0.19787547,-0.061462245
1764762732.7611804,-3.49454,2.289,-1.3734,0.978940365,-0.19787547,-0.061462245
1764762732.7611804,-3.49454,2.289,-1.3734,0.978940365,-0.19787547,-0.061462245
1764762732.7611804,-3.49454,2.289,-1.3734,0.978940365,-0.19787547,-0.061462245
1764762732.7611804,-3.49454,2.289,-1.3734,0.978940365,-0.19787547,-0.061462245
1764762732.7611804,-3.49454,2.289,-1.3734,0.978940365,-0.19787547,-0.061462245
1764762732.7611804,-3.49454,2.289,-1.3734,0.978940365,-0.19787547,-0.061462245
1764762732.7611804,-3.49454,2.289,-1.3734,0.978940365,-0.19787547,-0.061462245
1764762732.7611804,-4.02864,1.61756,-0.4578,0.97802484,-0.19799754,-0.061035
1764762732.7611804,-4.02864,1.61756,-0.4578,0.97802484,-0.19799754,-0.061035
1764762732.7611804,-4.02864,1.61756,-0.4578,0.97802484,-0.19799754,-0.061035
1764762732.7611804,-4.02864,1.61756,-0.4578,0.97802484,-0.19799754,-0.061035
1764762732.7611804,-4.02864,1.61756,-0.4578,0.97802484,-0.19799754,-0.061035
1764762732.7611804,-4.02864,1.61756,-0.4578,0.97802484,-0.19799754,-0.061035
1764762732.7611804,-4.02864,1.61756,-0.4578,0.97802484,-0.19799754,-0.061035
1764762732.7611804,-4.02864,1.61756,-0.4578,0.97802484,-0.19799754,-0.061035
1764762732.7611804,-4.02864,1.61756,-0.4578,0.97802484,-0.19799754,-0.061035
1764762732.7611804,-4.02864,1.61756,-0.4578,0.97802484,-0.19799754,-0.061035
1764762732.7611804,-3.63188,1.38866,0.54936,0.978085875,-0.199523415,-0.061462245
1764762732.7611804,-3.63188,1.38866,0.54936,0.978085875,-0.199523415,-0.061462245
1764762732.8083854,-3.63188,1.38866,0.54936,0.978085875,-0.199523415,-0.061462245
1764762732.8083854,-3.63188,1.38866,0.54936,0.978085875,-0.199523415,-0.061462245
1764762732.8083854,-3.63188,1.38866,0.54936,0.978085875,-0.199523415,-0.061462245
1764762732.8083854,-3.63188,1.38866,0.54936,0.978085875,-0.199523415,-0.061462245
1764762732.8083854,-3.63188,1.38866,0.54936,0.978085875,-0.199523415,-0.061462245
1764762732.8083854,-3.63188,1.38866,0.54936,0.978085875,-0.199523415,-0.061462245
1764762732.8083854,-3.63188,1.38866,0.54936,0.978085875,-0.199523415,-0.061462245
1764762732.8083854,-3.63188,1.38866,0.54936,0.978085875,-0.199523415,-0.061462245
1764762732.8083854,-3.57084,0.50358,0.5341,0.97741449,-0.198790995,-0.061462245
1764762732.8083854,-3.57084,0.50358,0.5341,0.97741449,-0.198790995,-0.061462245
1764762732.8083854,-3.57084,0.50358,0.5341,0.97741449,-0.198790995,-0.061462245
1764762732.8083854,-3.57084,0.50358,0.5341,0.97741449,-0.198790995,-0.061462245
1764762732.8083854,-3.57084,0.50358,0.5341,0.97741449,-0.198790995,-0.061462245
1764762732.8083854,-3.57084,0.50358,0.5341,0.97741449,-0.198790995,-0.061462245
1764762732.8083854,-3.57084,0.50358,0.5341,0.97741449,-0.198790995,-0.061462245
1764762732.8083854,-3.57084,0.50358,0.5341,0.97741449,-0.198790995,-0.061462245
1764762732.8083854,-3.57084,0.50358,0.5341,0.97741449,-0.198790995,-0.061462245
1764762732.8083854,-3.57084,0.50358,0.5341,0.97741449,-0.198790995,-0.061462245
1764762732.8083854,-3.34194,0.88508,0.3815,0.978940365,-0.198058575,-0.060485685
1764762732.8083854,-3.34194,0.88508,0.3815,0.978940365,-0.198058575,-0.060485685
1764762732.8083854,-3.34194,0.88508,0.3815,0.978940365,-0.198058575,-0.060485685
1764762732.8083854,-3.34194,0.88508,0.3815,0.978940365,-0.198058575,-0.060485685
1764762732.8529208,-3.34194,0.88508,0.3815,0.978940365,-0.198058575,-0.060485685
1764762732.8529208,-3.34194,0.88508,0.3815,0.978940365,-0.198058575,-0.060485685
1764762732.8529208,-3.34194,0.88508,0.3815,0.978940365,-0.198058575,-0.060485685
1764762732.8529208,-3.34194,0.88508,0.3815,0.978940365,-0.198058575,-0.060485685
1764762732.8529208,-3.34194,0.88508,0.3815,0.978940365,-0.198058575,-0.060485685
1764762732.8529208,-3.34194,0.88508,0.3815,0.978940365,-0.198058575,-0.060485685
1764762732.8534284,-3.03674,0.9003399999999999,1.11398,0.979672785,-0.1989741,-0.06030258
1764762732.8534284,-3.03674,0.9003399999999999,1.11398,0.979672785,-0.1989741,-0.06030258
1764762732.8534284,-3.03674,0.9003399999999999,1.11398,0.979672785,-0.1989741,-0.06030258
1764762732.8534284,-3.03674,0.9003399999999999,1.11398,0.979672785,-0.1989741,-0.06030258
1764762732.8534284,-3.03674,0.9003399999999999,1.11398,0.979672785,-0.1989741,-0.06030258
1764762732.8534284,-3.03674,0.9003399999999999,1.11398,0.979672785,-0.1989741,-0.06030258
1764762732.8534284,-3.03674,0.9003399999999999,1.11398,0.979672785,-0.1989741,-0.06030258
1764762732.8534284,-3.03674,0.9003399999999999,1.11398,0.979672785,-0.1989741,-0.06030258
1764762732.8534284,-3.03674,0.9003399999999999,1.11398,0.979672785,-0.1989741,-0.06030258
1764762732.8534284,-3.03674,0.9003399999999999,1.11398,0.979672785,-0.1989741,-0.06030258
1764762732.8534284,-3.34194,1.32762,1.26658,0.978940365,-0.198302715,-0.06066879
1764762732.8534284,-3.34194,1.32762,1.26658,0.978940365,-0.198302715,-0.06066879
1764762732.8534284,-3.34194,1.32762,1.26658,0.978940365,-0.198302715,-0.06066879
1764762732.8534284,-3.34194,1.32762,1.26658,0.978940365,-0.198302715,-0.06066879
1764762732.8534284,-3.34194,1.32762,1.26658,0.978940365,-0.198302715,-0.06066879
1764762732.8534284,-3.34194,1.32762,1.26658,0.978940365,-0.198302715,-0.06066879
1764762732.8997536,-3.34194,1.32762,1.26658,0.978940365,-0.198302715,-0.06066879
1764762732.8997536,-3.34194,1.32762,1.26658,0.978940365,-0.198302715,-0.06066879
1764762732.8997536,-3.34194,1.32762,1.26658,0.978940365,-0.198302715,-0.06066879
1764762732.8997536,-3.34194,1.32762,1.26658,0.978940365,-0.198302715,-0.06066879
1764762732.8997536,-4.08968,0.88508,0.85456,0.97839105,-0.19787547,-0.060973965
1764762732.900278,-4.08968,0.88508,0.85456,0.97839105,-0.19787547,-0.060973965
1764762732.900278,-4.08968,0.88508,0.85456,0.97839105,-0.19787547,-0.060973965
1764762732.900278,-4.08968,0.88508,0.85456,0.97839105,-0.19787547,-0.060973965
1764762732.900278,-4.08968,0.88508,0.85456,0.97839105,-0.19787547,-0.060973965
1764762732.900278,-4.08968,0.88508,0.85456,0.97839105,-0.19787547,-0.060973965
1764762732.900278,-4.08968,0.88508,0.85456,0.97839105,-0.19787547,-0.060973965
1764762732.900278,-4.08968,0.88508,0.85456,0.97839105,-0.19787547,-0.060973965
1764762732.900278,-4.08968,0.88508,0.85456,0.97839105,-0.19787547,-0.060973965
1764762732.900278,-4.08968,0.88508,0.85456,0.97839105,-0.19787547,-0.060973965
1764762732.900278,-4.37962,1.08346,0.39676,0.97875726,-0.19799754,-0.06164535
1764762732.900278,-4.37962,1.08346,0.39676,0.97875726,-0.19799754,-0.06164535
1764762732.900278,-4.37962,1.08346,0.39676,0.97875726,-0.19799754,-0.06164535
1764762732.900278,-4.37962,1.08346,0.39676,0.97875726,-0.19799754,-0.06164535
1764762732.900278,-4.37962,1.08346,0.39676,0.97875726,-0.19799754,-0.06164535
1764762732.900278,-4.37962,1.08346,0.39676,0.97875726,-0.19799754,-0.06164535
1764762732.900278,-4.37962,1.08346,0.39676,0.97875726,-0.19799754,-0.06164535
1764762732.900278,-4.37962,1.08346,0.39676,0.97875726,-0.19799754,-0.06164535
1764762732.947083,-4.37962,1.08346,0.39676,0.97875726,-0.19799754,-0.06164535
1764762732.947083,-4.37962,1.08346,0.39676,0.97875726,-0.19799754,-0.06164535
1764762732.9475927,-4.21176,1.38866,0.10682,0.97887933,-0.19921824,-0.06176742
1764762732.9475927,-4.21176,1.38866,0.10682,0.97887933,-0.19921824,-0.06176742
1764762732.9475927,-4.21176,1.38866,0.10682,0.97887933,-0.19921824,-0.06176742
1764762732.9475927,-4.21176,1.38866,0.10682,0.97887933,-0.19921824,-0.06176742
1764762732.9475927,-4.21176,1.38866,0.10682,0.97887933,-0.19921824,-0.06176742
1764762732.9475927,-4.21176,1.38866,0.10682,0.97887933,-0.19921824,-0.06176742
1764762732.9475927,-4.21176,1.38866,0.10682,0.97887933,-0.19921824,-0.06176742
1764762732.9475927,-4.21176,1.38866,0.10682,0.97887933,-0.19921824,-0.06176742
1764762732.9475927,-4.21176,1.38866,0.10682,0.97887933,-0.19921824,-0.06176742
1764762732.9475927,-4.21176,1.38866,0.10682,0.97887933,-0.19921824,-0.06176742
1764762732.9475927,-4.24228,1.28184,-0.88508,0.979672785,-0.198668925,-0.061584315
1764762732.9475927,-4.24228,1.28184,-0.88508,0.979672785,-0.198668925,-0.061584315
1764762732.9475927,-4.24228,1.28184,-0.88508,0.979672785,-0.198668925,-0.061584315
1764762732.9475927,-4.24228,1.28184,-0.88508,0.979672785,-0.198668925,-0.061584315
1764762732.9475927,-4.24228,1.28184,-0.88508,0.979672785,-0.198668925,-0.061584315
1764762732.9475927,-4.24228,1.28184,-0.88508,0.979672785,-0.198668925,-0.061584315
1764762732.9475927,-4.24228,1.28184,-0.88508,0.979672785,-0.198668925,-0.061584315
1764762732.9475927,-4.24228,1.28184,-0.88508,0.979672785,-0.198668925,-0.061584315
1764762732.9475927,-4.24228,1.28184,-0.88508,0.979672785,-0.198668925,-0.061584315
1764762732.9475927,-4.24228,1.28184,-0.88508,0.979672785,-0.198668925,-0.061584315
1764762732.9475927,-4.24228,1.9838,-1.35814,0.97961175,-0.198790995,-0.062316735
1764762732.9475927,-4.24228,1.9838,-1.35814,0.97961175,-0.198790995,-0.062316735
1764762732.9950695,-4.24228,1.9838,-1.35814,0.97961175,-0.198790995,-0.062316735
1764762732.9950695,-4.24228,1.9838,-1.35814,0.97961175,-0.198790995,-0.062316735
1764762732.9950695,-4.24228,1.9838,-1.35814,0.97961175,-0.198790995,-0.062316735
1764762732.9950695,-4.24228,1.9838,-1.35814,0.97961175,-0.198790995,-0.062316735
1764762732.9950695,-4.24228,1.9838,-1.35814,0.97961175,-0.198790995,-0.062316735
1764762732.9950695,-4.24228,1.9838,-1.35814,0.97961175,-0.198790995,-0.062316735
1764762732.9950695,-4.24228,1.9838,-1.35814,0.97961175,-0.198790995,-0.062316735
1764762732.9950695,-4.24228,1.9838,-1.35814,0.97961175,-0.198790995,-0.062316735
1764762732.9950695,-4.24228,2.22796,-1.6022999999999998,0.97985589,-0.19885203,-0.0622557
1764762732.9950695,-4.24228,2.22796,-1.6022999999999998,0.97985589,-0.19885203,-0.0622557
1764762732.9950695,-4.24228,2.22796,-1.6022999999999998,0.97985589,-0.19885203,-0.0622557
1764762732.9950695,-4.24228,2.22796,-1.6022999999999998,0.97985589,-0.19885203,-0.0622557
1764762732.9950695,-4.24228,2.22796,-1.6022999999999998,0.97985589,-0.19885203,-0.0622557
1764762732.9950695,-4.24228,2.22796,-1.6022999999999998,0.97985589,-0.19885203,-0.0622557
1764762732.9950695,-4.24228,2.22796,-1.6022999999999998,0.97985589,-0.19885203,-0.0622557
1764762732.9950695,-4.24228,2.22796,-1.6022999999999998,0.97985589,-0.19885203,-0.0622557
1764762732.9950695,-4.24228,2.22796,-1.6022999999999998,0.97985589,-0.19885203,-0.0622557
1764762732.9950695,-4.24228,2.22796,-1.6022999999999998,0.97985589,-0.19885203,-0.0622557
1764762732.9950695,-3.47928,2.24322,-1.51074,0.980405205,-0.19885203,-0.06127914
1764762732.9950695,-3.47928,2.24322,-1.51074,0.980405205,-0.19885203,-0.06127914
1764762732.9950695,-3.47928,2.24322,-1.51074,0.980405205,-0.19885203,-0.06127914
1764762732.9950695,-3.47928,2.24322,-1.51074,0.980405205,-0.19885203,-0.06127914
1764762732.9950695,-3.47928,2.24322,-1.51074,0.980405205,-0.19885203,-0.06127914
1764762732.9950695,-3.47928,2.24322,-1.51074,0.980405205,-0.19885203,-0.06127914
1764762733.0401156,-3.47928,2.24322,-1.51074,0.980405205,-0.19885203,-0.06127914
1764762733.0411334,-3.47928,2.24322,-1.51074,0.980405205,-0.19885203,-0.06127914
1764762733.0411334,-3.47928,2.24322,-1.51074,0.980405205,-0.19885203,-0.06127914
1764762733.0411334,-3.47928,2.24322,-1.51074,0.980405205,-0.19885203,-0.06127914
1764762733.0411334,-3.38772,2.31952,-1.11398,0.980038995,-0.19872996,-0.06079086
1764762733.0411334,-3.38772,2.31952,-1.11398,0.980038995,-0.19872996,-0.06079086
1764762733.0411334,-3.38772,2.31952,-1.11398,0.980038995,-0.19872996,-0.06079086
1764762733.0411334,-3.38772,2.31952,-1.11398,0.980038995,-0.19872996,-0.06079086
1764762733.0411334,-3.38772,2.31952,-1.11398,0.980038995,-0.19872996,-0.06079086
1764762733.0411334,-3.38772,2.31952,-1.11398,0.980038995,-0.19872996,-0.06079086
1764762733.0411334,-3.38772,2.31952,-1.11398,0.980038995,-0.19872996,-0.06079086
1764762733.0411334,-3.38772,2.31952,-1.11398,0.980038995,-0.19872996,-0.06079086
1764762733.0411334,-3.38772,2.31952,-1.11398,0.980038995,-0.19872996,-0.06079086
1764762733.0411334,-3.38772,2.31952,-1.11398,0.980038995,-0.19872996,-0.06079086
1764762733.0411334,-3.72344,1.7549,-0.9919,0.9777807,-0.196837875,-0.061096035
1764762733.0411334,-3.72344,1.7549,-0.9919,0.9777807,-0.196837875,-0.061096035
1764762733.0411334,-3.72344,1.7549,-0.9919,0.9777807,-0.196837875,-0.061096035
1764762733.0411334,-3.72344,1.7549,-0.9919,0.9777807,-0.196837875,-0.061096035
1764762733.0411334,-3.72344,1.7549,-0.9919,0.9777807,-0.196837875,-0.061096035
1764762733.0411334,-3.72344,1.7549,-0.9919,0.9777807,-0.196837875,-0.061096035
1764762733.0411334,-3.72344,1.7549,-0.9919,0.9777807,-0.196837875,-0.061096035
1764762733.0411334,-3.72344,1.7549,-0.9919,0.9777807,-0.196837875,-0.061096035
1764762733.0411334,-3.72344,1.7549,-0.9919,0.9777807,-0.196837875,-0.061096035
1764762733.0411334,-3.72344,1.7549,-0.9919,0.9777807,-0.196837875,-0.061096035
1764762733.087824,-4.15072,0.85456,-0.41202,0.977353455,-0.19518993,-0.061706385
1764762733.087824,-4.15072,0.85456,-0.41202,0.977353455,-0.19518993,-0.061706385
1764762733.087824,-4.15072,0.85456,-0.41202,0.977353455,-0.19518993,-0.061706385
1764762733.087824,-4.15072,0.85456,-0.41202,0.977353455,-0.19518993,-0.061706385
1764762733.087824,-4.15072,0.85456,-0.41202,0.977353455,-0.19518993,-0.061706385
1764762733.087824,-4.15072,0.85456,-0.41202,0.977353455,-0.19518993,-0.061706385
1764762733.087824,-4.15072,0.85456,-0.41202,0.977353455,-0.19518993,-0.061706385
1764762733.087824,-4.15072,0.85456,-0.41202,0.977353455,-0.19518993,-0.061706385
1764762733.087824,-4.15072,0.85456,-0.41202,0.977353455,-0.19518993,-0.061706385
1764762733.087824,-4.15072,0.85456,-0.41202,0.977353455,-0.19518993,-0.061706385
1764762733.087824,-3.84552,1.19028,0.3204599999999999,0.978452085,-0.196959945,-0.061340175
1764762733.087824,-3.84552,1.19028,0.3204599999999999,0.978452085,-0.196959945,-0.061340175
1764762733.087824,-3.84552,1.19028,0.3204599999999999,0.978452085,-0.196959945,-0.061340175
1764762733.087824,-3.84552,1.19028,0.3204599999999999,0.978452085,-0.196959945,-0.061340175
1764762733.087824,-3.84552,1.19028,0.3204599999999999,0.978452085,-0.196959945,-0.061340175
1764762733.087824,-3.84552,1.19028,0.3204599999999999,0.978452085,-0.196959945,-0.061340175
1764762733.087824,-3.84552,1.19028,0.3204599999999999,0.978452085,-0.196959945,-0.061340175
1764762733.087824,-3.84552,1.19028,0.3204599999999999,0.978452085,-0.196959945,-0.061340175
1764762733.087824,-3.84552,1.19028,0.3204599999999999,0.978452085,-0.196959945,-0.061340175
1764762733.087824,-3.84552,1.19028,0.3204599999999999,0.978452085,-0.196959945,-0.061340175
1764762733.087824,-3.11304,1.19028,1.4497,0.97814691,-0.19921824,-0.06018051
1764762733.087824,-3.11304,1.19028,1.4497,0.97814691,-0.19921824,-0.06018051
1764762733.134184,-3.11304,1.19028,1.4497,0.97814691,-0.19921824,-0.06018051
1764762733.134184,-3.11304,1.19028,1.4497,0.97814691,-0.19921824,-0.06018051
1764762733.134184,-3.11304,1.19028,1.4497,0.97814691,-0.19921824,-0.06018051
1764762733.134184,-3.11304,1.19028,1.4497,0.97814691,-0.19921824,-0.06018051
1764762733.134184,-3.11304,1.19028,1.4497,0.97814691,-0.19921824,-0.06018051
1764762733.134184,-3.11304,1.19028,1.4497,0.97814691,-0.19921824,-0.06018051
1764762733.134184,-3.11304,1.19028,1.4497,0.97814691,-0.19921824,-0.06018051
1764762733.134184,-3.11304,1.19028,1.4497,0.97814691,-0.19921824,-0.06018051
1764762733.134184,-2.76206,1.00716,1.19028,0.978818295,-0.198668925,-0.06054672
1764762733.134184,-2.76206,1.00716,1.19028,0.978818295,-0.198668925,-0.06054672
1764762733.134184,-2.76206,1.00716,1.19028,0.978818295,-0.198668925,-0.06054672
1764762733.134184,-2.76206,1.00716,1.19028,0.978818295,-0.198668925,-0.06054672
1764762733.134184,-2.76206,1.00716,1.19028,0.978818295,-0.198668925,-0.06054672
1764762733.134184,-2.76206,1.00716,1.19028,0.978818295,-0.198668925,-0.06054672
1764762733.134184,-2.76206,1.00716,1.19028,0.978818295,-0.198668925,-0.06054672
1764762733.134184,-2.76206,1.00716,1.19028,0.978818295,-0.198668925,-0.06054672
1764762733.134184,-2.76206,1.00716,1.19028,0.978818295,-0.198668925,-0.06054672
1764762733.134184,-2.76206,1.00716,1.19028,0.978818295,-0.198668925,-0.06054672
1764762733.134184,-2.83836,0.42728,0.3815,0.97851312,-0.19714305,-0.06164535
1764762733.134184,-2.83836,0.42728,0.3815,0.97851312,-0.19714305,-0.06164535
1764762733.134184,-2.83836,0.42728,0.3815,0.97851312,-0.19714305,-0.06164535
1764762733.134184,-2.83836,0.42728,0.3815,0.97851312,-0.19714305,-0.06164535
1764762733.134184,-2.83836,0.42728,0.3815,0.97851312,-0.19714305,-0.06164535
1764762733.134184,-2.83836,0.42728,0.3815,0.97851312,-0.19714305,-0.06164535
1764762733.180982,-2.83836,0.42728,0.3815,0.97851312,-0.19714305,-0.06164535
1764762733.180982,-2.83836,0.42728,0.3815,0.97851312,-0.19714305,-0.06164535
1764762733.180982,-2.83836,0.42728,0.3815,0.97851312,-0.19714305,-0.06164535
1764762733.180982,-2.83836,0.42728,0.3815,0.97851312,-0.19714305,-0.06164535
1764762733.180982,-2.8231,1.35814,-0.1525999999999999,0.980649345,-0.196471665,-0.061706385
1764762733.180982,-2.8231,1.35814,-0.1525999999999999,0.980649345,-0.196471665,-0.061706385
1764762733.180982,-2.8231,1.35814,-0.1525999999999999,0.980649345,-0.196471665,-0.061706385
1764762733.180982,-2.8231,1.35814,-0.1525999999999999,0.980649345,-0.196471665,-0.061706385
1764762733.180982,-2.8231,1.35814,-0.1525999999999999,0.980649345,-0.196471665,-0.061706385
1764762733.180982,-2.8231,1.35814,-0.1525999999999999,0.980649345,-0.196471665,-0.061706385
1764762733.180982,-2.8231,1.35814,-0.1525999999999999,0.980649345,-0.196471665,-0.061706385
1764762733.180982,-2.8231,1.35814,-0.1525999999999999,0.980649345,-0.196471665,-0.061706385
1764762733.180982,-2.8231,1.35814,-0.1525999999999999,0.980649345,-0.196471665,-0.061706385
1764762733.180982,-2.8231,1.35814,-0.1525999999999999,0.980649345,-0.196471665,-0.061706385
1764762733.180982,-2.53316,3.17408,0.3815,0.98229729,-0.197204085,-0.061096035
1764762733.180982,-2.53316,3.17408,0.3815,0.98229729,-0.197204085,-0.061096035
1764762733.180982,-2.53316,3.17408,0.3815,0.98229729,-0.197204085,-0.061096035
1764762733.180982,-2.53316,3.17408,0.3815,0.98229729,-0.197204085,-0.061096035
1764762733.180982,-2.53316,3.17408,0.3815,0.98229729,-0.197204085,-0.061096035
1764762733.180982,-2.53316,3.17408,0.3815,0.98229729,-0.197204085,-0.061096035
1764762733.180982,-2.53316,3.17408,0.3815,0.98229729,-0.197204085,-0.061096035
1764762733.180982,-2.53316,3.17408,0.3815,0.98229729,-0.197204085,-0.061096035
1764762733.180982,-2.53316,3.17408,0.3815,0.98229729,-0.197204085,-0.061096035
1764762733.1819963,-2.53316,3.17408,0.3815,0.98229729,-0.197204085,-0.061096035
1764762733.2245717,-2.3653,3.44876,-0.1678599999999999,0.981870045,-0.195861315,-0.06079086
1764762733.2245717,-2.3653,3.44876,-0.1678599999999999,0.981870045,-0.195861315,-0.06079086
1764762733.2245717,-2.3653,3.44876,-0.1678599999999999,0.981870045,-0.195861315,-0.06079086
1764762733.2245717,-2.3653,3.44876,-0.1678599999999999,0.981870045,-0.195861315,-0.06079086
1764762733.2245717,-2.3653,3.44876,-0.1678599999999999,0.981870045,-0.195861315,-0.06079086
1764762733.2245717,-2.3653,3.44876,-0.1678599999999999,0.981870045,-0.195861315,-0.06079086
1764762733.2245717,-2.3653,3.44876,-0.1678599999999999,0.981870045,-0.195861315,-0.06079086
1764762733.2245717,-2.3653,3.44876,-0.1678599999999999,0.981870045,-0.195861315,-0.06079086
1764762733.2245717,-2.3653,3.44876,-0.1678599999999999,0.981870045,-0.195861315,-0.06079086
1764762733.2245717,-2.3653,3.44876,-0.1678599999999999,0.981870045,-0.195861315,-0.06079086
1764762733.2245717,-1.81594,2.62472,-0.3357199999999999,0.9802221,-0.195739245,-0.05969223
1764762733.2245717,-1.81594,2.62472,-0.3357199999999999,0.9802221,-0.195739245,-0.05969223
1764762733.2245717,-1.81594,2.62472,-0.3357199999999999,0.9802221,-0.195739245,-0.05969223
1764762733.2245717,-1.81594,2.62472,-0.3357199999999999,0.9802221,-0.195739245,-0.05969223
1764762733.2245717,-1.81594,2.62472,-0.3357199999999999,0.9802221,-0.195739245,-0.05969223
1764762733.2245717,-1.81594,2.62472,-0.3357199999999999,0.9802221,-0.195739245,-0.05969223
1764762733.2245717,-1.81594,2.62472,-0.3357199999999999,0.9802221,-0.195739245,-0.05969223
1764762733.2245717,-1.81594,2.62472,-0.3357199999999999,0.9802221,-0.195739245,-0.05969223
1764762733.2245717,-1.81594,2.62472,-0.3357199999999999,0.9802221,-0.195739245,-0.05969223
1764762733.2245717,-1.81594,2.62472,-0.3357199999999999,0.9802221,-0.195739245,-0.05969223
1764762733.2245717,-1.05294,2.10588,-0.27468,0.97729242,-0.19592235,-0.058166355
1764762733.2245717,-1.05294,2.10588,-0.27468,0.97729242,-0.19592235,-0.058166355
1764762733.2245717,-1.05294,2.10588,-0.27468,0.97729242,-0.19592235,-0.058166355
1764762733.2245717,-1.05294,2.10588,-0.27468,0.97729242,-0.19592235,-0.058166355
1764762733.2745516,-1.05294,2.10588,-0.27468,0.97729242,-0.19592235,-0.058166355
1764762733.2750838,-1.05294,2.10588,-0.27468,0.97729242,-0.19592235,-0.058166355
1764762733.2750838,-1.05294,2.10588,-0.27468,0.97729242,-0.19592235,-0.058166355
1764762733.2750838,-1.05294,2.10588,-0.27468,0.97729242,-0.19592235,-0.058166355
1764762733.2750838,-1.05294,2.10588,-0.27468,0.97729242,-0.19592235,-0.058166355
1764762733.2750838,-1.05294,2.10588,-0.27468,0.97729242,-0.19592235,-0.058166355
1764762733.2750838,-0.50358,1.1445,0.5341,0.97558344,-0.195861315,-0.05700669
1764762733.2750838,-0.50358,1.1445,0.5341,0.97558344,-0.195861315,-0.05700669
1764762733.2750838,-0.50358,1.1445,0.5341,0.97558344,-0.195861315,-0.05700669
1764762733.2750838,-0.50358,1.1445,0.5341,0.97558344,-0.195861315,-0.05700669
1764762733.2750838,-0.50358,1.1445,0.5341,0.97558344,-0.195861315,-0.05700669
1764762733.2750838,-0.50358,1.1445,0.5341,0.97558344,-0.195861315,-0.05700669
1764762733.2750838,-0.50358,1.1445,0.5341,0.97558344,-0.195861315,-0.05700669
1764762733.2750838,-0.50358,1.1445,0.5341,0.97558344,-0.195861315,-0.05700669
1764762733.2750838,-0.50358,1.1445,0.5341,0.97558344,-0.195861315,-0.05700669
1764762733.2750838,-0.50358,1.1445,0.5341,0.97558344,-0.195861315,-0.05700669
1764762733.2750838,-1.32762,0.6867,0.763,0.977597595,-0.193908195,-0.05761704
1764762733.2750838,-1.32762,0.6867,0.763,0.977597595,-0.193908195,-0.05761704
1764762733.2750838,-1.32762,0.6867,0.763,0.977597595,-0.193908195,-0.05761704
1764762733.2750838,-1.32762,0.6867,0.763,0.977597595,-0.193908195,-0.05761704
1764762733.2750838,-1.32762,0.6867,0.763,0.977597595,-0.193908195,-0.05761704
1764762733.2750838,-1.32762,0.6867,0.763,0.977597595,-0.193908195,-0.05761704
1764762733.2750838,-1.32762,0.6867,0.763,0.977597595,-0.193908195,-0.05761704
1764762733.2750838,-1.32762,0.6867,0.763,0.977597595,-0.193908195,-0.05761704
1764762733.3179612,-1.32762,0.6867,0.763,0.977597595,-0.193908195,-0.05761704
1764762733.3179612,-1.32762,0.6867,0.763,0.977597595,-0.193908195,-0.05761704
1764762733.3184838,-3.41824,1.15976,0.65618,0.98071038,-0.190856445,-0.057067725
1764762733.3184838,-3.41824,1.15976,0.65618,0.98071038,-0.190856445,-0.057067725
1764762733.3184838,-3.41824,1.15976,0.65618,0.98071038,-0.190856445,-0.057067725
1764762733.3184838,-3.41824,1.15976,0.65618,0.98071038,-0.190856445,-0.057067725
1764762733.3184838,-3.41824,1.15976,0.65618,0.98071038,-0.190856445,-0.057067725
1764762733.3184838,-3.41824,1.15976,0.65618,0.98071038,-0.190856445,-0.057067725
1764762733.3184838,-3.41824,1.15976,0.65618,0.98071038,-0.190856445,-0.057067725
1764762733.3184838,-3.41824,1.15976,0.65618,0.98071038,-0.190856445,-0.057067725
1764762733.3184838,-3.41824,1.15976,0.65618,0.98071038,-0.190856445,-0.057067725
1764762733.3184838,-3.41824,1.15976,0.65618,0.98071038,-0.190856445,-0.057067725
1764762733.3184838,-4.440659999999999,1.526,0.96138,0.98095452,-0.188781255,-0.05700669
1764762733.319523,-4.440659999999999,1.526,0.96138,0.98095452,-0.188781255,-0.05700669
1764762733.319523,-4.440659999999999,1.526,0.96138,0.98095452,-0.188781255,-0.05700669
1764762733.319523,-4.440659999999999,1.526,0.96138,0.98095452,-0.188781255,-0.05700669
1764762733.319523,-4.440659999999999,1.526,0.96138,0.98095452,-0.188781255,-0.05700669
1764762733.319523,-4.440659999999999,1.526,0.96138,0.98095452,-0.188781255,-0.05700669
1764762733.3207338,-4.440659999999999,1.526,0.96138,0.98095452,-0.188781255,-0.05700669
1764762733.3207338,-4.440659999999999,1.526,0.96138,0.98095452,-0.188781255,-0.05700669
1764762733.3207338,-4.440659999999999,1.526,0.96138,0.98095452,-0.188781255,-0.05700669
1764762733.3207338,-4.440659999999999,1.526,0.96138,0.98095452,-0.188781255,-0.05700669
1764762733.3678803,-4.77638,1.49548,1.89224,0.97997796,-0.19201611,-0.056823585
1764762733.3678803,-4.77638,1.49548,1.89224,0.97997796,-0.19201611,-0.056823585
1764762733.3678803,-4.77638,1.49548,1.89224,0.97997796,-0.19201611,-0.056823585
1764762733.3678803,-4.77638,1.49548,1.89224,0.97997796,-0.19201611,-0.056823585
1764762733.3678803,-4.77638,1.49548,1.89224,0.97997796,-0.19201611,-0.056823585
1764762733.3678803,-4.77638,1.49548,1.89224,0.97997796,-0.19201611,-0.056823585
1764762733.3678803,-4.77638,1.49548,1.89224,0.97997796,-0.19201611,-0.056823585
1764762733.3678803,-4.77638,1.49548,1.89224,0.97997796,-0.19201611,-0.056823585
1764762733.3678803,-4.77638,1.49548,1.89224,0.97997796,-0.19201611,-0.056823585
1764762733.3689616,-4.77638,1.49548,1.89224,0.97997796,-0.19201611,-0.056823585
1764762733.3689616,-4.76112,-0.10682,2.27374,0.976621035,-0.19323681,-0.05834946
1764762733.3689616,-4.76112,-0.10682,2.27374,0.976621035,-0.19323681,-0.05834946
1764762733.3689616,-4.76112,-0.10682,2.27374,0.976621035,-0.19323681,-0.05834946
1764762733.3689616,-4.76112,-0.10682,2.27374,0.976621035,-0.19323681,-0.05834946
1764762733.3689616,-4.76112,-0.10682,2.27374,0.976621035,-0.19323681,-0.05834946
1764762733.3689616,-4.76112,-0.10682,2.27374,0.976621035,-0.19323681,-0.05834946
1764762733.3689616,-4.76112,-0.10682,2.27374,0.976621035,-0.19323681,-0.05834946
1764762733.3689616,-4.76112,-0.10682,2.27374,0.976621035,-0.19323681,-0.05834946
1764762733.3689616,-4.76112,-0.10682,2.27374,0.976621035,-0.19323681,-0.05834946
1764762733.3689616,-4.76112,-0.10682,2.27374,0.976621035,-0.19323681,-0.05834946
1764762733.3699589,-4.51696,-0.10682,2.76206,0.97765863,-0.19555614,-0.058410495
1764762733.3699589,-4.51696,-0.10682,2.76206,0.97765863,-0.19555614,-0.058410495
1764762733.3699589,-4.51696,-0.10682,2.76206,0.97765863,-0.19555614,-0.058410495
1764762733.3699589,-4.51696,-0.10682,2.76206,0.97765863,-0.19555614,-0.058410495
1764762733.4131808,-4.51696,-0.10682,2.76206,0.97765863,-0.19555614,-0.058410495
1764762733.4131808,-4.51696,-0.10682,2.76206,0.97765863,-0.19555614,-0.058410495
1764762733.4131808,-4.51696,-0.10682,2.76206,0.97765863,-0.19555614,-0.058410495
1764762733.4131808,-4.51696,-0.10682,2.76206,0.97765863,-0.19555614,-0.058410495
1764762733.4131808,-4.51696,-0.10682,2.76206,0.97765863,-0.19555614,-0.058410495
1764762733.4131808,-4.51696,-0.10682,2.76206,0.97765863,-0.19555614,-0.058410495
1764762733.4131808,-3.03674,0.47306,3.03674,0.97997796,-0.19885203,-0.058166355
1764762733.4131808,-3.03674,0.47306,3.03674,0.97997796,-0.19885203,-0.058166355
1764762733.4131808,-3.03674,0.47306,3.03674,0.97997796,-0.19885203,-0.058166355
1764762733.4131808,-3.03674,0.47306,3.03674,0.97997796,-0.19885203,-0.058166355
1764762733.4131808,-3.03674,0.47306,3.03674,0.97997796,-0.19885203,-0.058166355
1764762733.4131808,-3.03674,0.47306,3.03674,0.97997796,-0.19885203,-0.058166355
1764762733.4131808,-3.03674,0.47306,3.03674,0.97997796,-0.19885203,-0.058166355
1764762733.4131808,-3.03674,0.47306,3.03674,0.97997796,-0.19885203,-0.058166355
1764762733.4131808,-3.03674,0.47306,3.03674,0.97997796,-0.19885203,-0.058166355
1764762733.4147146,-3.03674,0.47306,3.03674,0.97997796,-0.19885203,-0.058166355
1764762733.4147146,-2.19744,0.3357199999999999,2.86888,0.979306575,-0.19848582,-0.0585936
1764762733.4147146,-2.19744,0.3357199999999999,2.86888,0.979306575,-0.19848582,-0.0585936
1764762733.4147146,-2.19744,0.3357199999999999,2.86888,0.979306575,-0.19848582,-0.0585936
1764762733.4147146,-2.19744,0.3357199999999999,2.86888,0.979306575,-0.19848582,-0.0585936
1764762733.4147146,-2.19744,0.3357199999999999,2.86888,0.979306575,-0.19848582,-0.0585936
1764762733.4147146,-2.19744,0.3357199999999999,2.86888,0.979306575,-0.19848582,-0.0585936
1764762733.4616077,-2.19744,0.3357199999999999,2.86888,0.979306575,-0.19848582,-0.0585936
1764762733.4616077,-2.19744,0.3357199999999999,2.86888,0.979306575,-0.19848582,-0.0585936
1764762733.4616077,-2.19744,0.3357199999999999,2.86888,0.979306575,-0.19848582,-0.0585936
1764762733.4616077,-2.19744,0.3357199999999999,2.86888,0.979306575,-0.19848582,-0.0585936
1764762733.4616077,-2.70102,0.41202,1.81594,0.97839105,-0.197570295,-0.059142915
1764762733.4616077,-2.70102,0.41202,1.81594,0.97839105,-0.197570295,-0.059142915
1764762733.4616077,-2.70102,0.41202,1.81594,0.97839105,-0.197570295,-0.059142915
1764762733.4616077,-2.70102,0.41202,1.81594,0.97839105,-0.197570295,-0.059142915
1764762733.4616077,-2.70102,0.41202,1.81594,0.97839105,-0.197570295,-0.059142915
1764762733.4616077,-2.70102,0.41202,1.81594,0.97839105,-0.197570295,-0.059142915
1764762733.4616077,-2.70102,0.41202,1.81594,0.97839105,-0.197570295,-0.059142915
1764762733.4616077,-2.70102,0.41202,1.81594,0.97839105,-0.197570295,-0.059142915
1764762733.4616077,-2.70102,0.41202,1.81594,0.97839105,-0.197570295,-0.059142915
1764762733.4616077,-2.70102,0.41202,1.81594,0.97839105,-0.197570295,-0.059142915
1764762733.4616077,-2.42634,0.03052,1.6786,0.977353455,-0.197204085,-0.059387055
1764762733.4626255,-2.42634,0.03052,1.6786,0.977353455,-0.197204085,-0.059387055
1764762733.4626255,-2.42634,0.03052,1.6786,0.977353455,-0.197204085,-0.059387055
1764762733.4626255,-2.42634,0.03052,1.6786,0.977353455,-0.197204085,-0.059387055
1764762733.4626255,-2.42634,0.03052,1.6786,0.977353455,-0.197204085,-0.059387055
1764762733.4626255,-2.42634,0.03052,1.6786,0.977353455,-0.197204085,-0.059387055
1764762733.4626255,-2.42634,0.03052,1.6786,0.977353455,-0.197204085,-0.059387055
1764762733.4626255,-2.42634,0.03052,1.6786,0.977353455,-0.197204085,-0.059387055
1764762733.4626255,-2.42634,0.03052,1.6786,0.977353455,-0.197204085,-0.059387055
1764762733.4626255,-2.42634,0.03052,1.6786,0.977353455,-0.197204085,-0.059387055
1764762733.5070083,-2.31952,-0.3051999999999999,1.86172,0.97680414,-0.1977534,-0.059509125
1764762733.5070083,-2.31952,-0.3051999999999999,1.86172,0.97680414,-0.1977534,-0.059509125
1764762733.5070083,-2.31952,-0.3051999999999999,1.86172,0.97680414,-0.1977534,-0.059509125
1764762733.5070083,-2.31952,-0.3051999999999999,1.86172,0.97680414,-0.1977534,-0.059509125
1764762733.5070083,-2.31952,-0.3051999999999999,1.86172,0.97680414,-0.1977534,-0.059509125
1764762733.5070083,-2.31952,-0.3051999999999999,1.86172,0.97680414,-0.1977534,-0.059509125
1764762733.5070083,-2.31952,-0.3051999999999999,1.86172,0.97680414,-0.1977534,-0.059509125
1764762733.5070083,-2.31952,-0.3051999999999999,1.86172,0.97680414,-0.1977534,-0.059509125
1764762733.5070083,-2.31952,-0.3051999999999999,1.86172,0.97680414,-0.1977534,-0.059509125
1764762733.5070083,-2.31952,-0.3051999999999999,1.86172,0.97680414,-0.1977534,-0.059509125
1764762733.5070083,-2.10588,0.7019599999999999,1.43444,0.978330015,-0.1977534,-0.059631195
1764762733.5070083,-2.10588,0.7019599999999999,1.43444,0.978330015,-0.1977534,-0.059631195
1764762733.5070083,-2.10588,0.7019599999999999,1.43444,0.978330015,-0.1977534,-0.059631195
1764762733.5070083,-2.10588,0.7019599999999999,1.43444,0.978330015,-0.1977534,-0.059631195
1764762733.5070083,-2.10588,0.7019599999999999,1.43444,0.978330015,-0.1977534,-0.059631195
1764762733.5070083,-2.10588,0.7019599999999999,1.43444,0.978330015,-0.1977534,-0.059631195
1764762733.5070083,-2.10588,0.7019599999999999,1.43444,0.978330015,-0.1977534,-0.059631195
1764762733.5070083,-2.10588,0.7019599999999999,1.43444,0.978330015,-0.1977534,-0.059631195
1764762733.5070083,-2.10588,0.7019599999999999,1.43444,0.978330015,-0.1977534,-0.059631195
1764762733.5070083,-2.10588,0.7019599999999999,1.43444,0.978330015,-0.1977534,-0.059631195
1764762733.5070083,-3.03674,1.26658,0.9003399999999999,0.979916925,-0.196593735,-0.059631195
1764762733.5070083,-3.03674,1.26658,0.9003399999999999,0.979916925,-0.196593735,-0.059631195
1764762733.5496886,-3.03674,1.26658,0.9003399999999999,0.979916925,-0.196593735,-0.059631195
1764762733.5496886,-3.03674,1.26658,0.9003399999999999,0.979916925,-0.196593735,-0.059631195
1764762733.5496886,-3.03674,1.26658,0.9003399999999999,0.979916925,-0.196593735,-0.059631195
1764762733.5496886,-3.03674,1.26658,0.9003399999999999,0.979916925,-0.196593735,-0.059631195
1764762733.5507064,-3.03674,1.26658,0.9003399999999999,0.979916925,-0.196593735,-0.059631195
1764762733.5507064,-3.03674,1.26658,0.9003399999999999,0.979916925,-0.196593735,-0.059631195
1764762733.5507064,-3.03674,1.26658,0.9003399999999999,0.979916925,-0.196593735,-0.059631195
1764762733.5507064,-3.03674,1.26658,0.9003399999999999,0.979916925,-0.196593735,-0.059631195
1764762733.5507064,-2.57894,1.89224,0.1678599999999999,0.980771415,-0.196837875,-0.05908188
1764762733.5507064,-2.57894,1.89224,0.1678599999999999,0.980771415,-0.196837875,-0.05908188
1764762733.5507064,-2.57894,1.89224,0.1678599999999999,0.980771415,-0.196837875,-0.05908188
1764762733.5507064,-2.57894,1.89224,0.1678599999999999,0.980771415,-0.196837875,-0.05908188
1764762733.5507064,-2.57894,1.89224,0.1678599999999999,0.980771415,-0.196837875,-0.05908188
1764762733.5507064,-2.57894,1.89224,0.1678599999999999,0.980771415,-0.196837875,-0.05908188
1764762733.5507064,-2.57894,1.89224,0.1678599999999999,0.980771415,-0.196837875,-0.05908188
1764762733.5507064,-2.57894,1.89224,0.1678599999999999,0.980771415,-0.196837875,-0.05908188
1764762733.5507064,-2.57894,1.89224,0.1678599999999999,0.980771415,-0.196837875,-0.05908188
1764762733.5507064,-2.57894,1.89224,0.1678599999999999,0.980771415,-0.196837875,-0.05908188
1764762733.5507064,-1.86172,1.51074,0.4578,0.97912347,-0.19885203,-0.058044285
1764762733.5507064,-1.86172,1.51074,0.4578,0.97912347,-0.19885203,-0.058044285
1764762733.5507064,-1.86172,1.51074,0.4578,0.97912347,-0.19885203,-0.058044285
1764762733.5507064,-1.86172,1.51074,0.4578,0.97912347,-0.19885203,-0.058044285
1764762733.5966802,-1.86172,1.51074,0.4578,0.97912347,-0.19885203,-0.058044285
1764762733.5966802,-1.86172,1.51074,0.4578,0.97912347,-0.19885203,-0.058044285
1764762733.5966802,-1.86172,1.51074,0.4578,0.97912347,-0.19885203,-0.058044285
1764762733.5966802,-1.86172,1.51074,0.4578,0.97912347,-0.19885203,-0.058044285
1764762733.5966802,-1.86172,1.51074,0.4578,0.97912347,-0.19885203,-0.058044285
1764762733.5979712,-1.86172,1.51074,0.4578,0.97912347,-0.19885203,-0.058044285
1764762733.5979712,-1.12924,0.71722,0.47306,0.975766545,-0.19995066,-0.057189795
1764762733.5979712,-1.12924,0.71722,0.47306,0.975766545,-0.19995066,-0.057189795
1764762733.5979712,-1.12924,0.71722,0.47306,0.975766545,-0.19995066,-0.057189795
1764762733.5979712,-1.12924,0.71722,0.47306,0.975766545,-0.19995066,-0.057189795
1764762733.5979712,-1.12924,0.71722,0.47306,0.975766545,-0.19995066,-0.057189795
1764762733.598476,-1.12924,0.71722,0.47306,0.975766545,-0.19995066,-0.057189795
1764762733.598476,-1.12924,0.71722,0.47306,0.975766545,-0.19995066,-0.057189795
1764762733.598476,-1.12924,0.71722,0.47306,0.975766545,-0.19995066,-0.057189795
1764762733.598476,-1.12924,0.71722,0.47306,0.975766545,-0.19995066,-0.057189795
1764762733.598476,-1.12924,0.71722,0.47306,0.975766545,-0.19995066,-0.057189795
1764762733.598476,-0.77826,-0.73248,0.88508,0.973447215,-0.20056101,-0.05761704
1764762733.598476,-0.77826,-0.73248,0.88508,0.973447215,-0.20056101,-0.05761704
1764762733.598476,-0.77826,-0.73248,0.88508,0.973447215,-0.20056101,-0.05761704
1764762733.598476,-0.77826,-0.73248,0.88508,0.973447215,-0.20056101,-0.05761704
1764762733.598476,-0.77826,-0.73248,0.88508,0.973447215,-0.20056101,-0.05761704
1764762733.598476,-0.77826,-0.73248,0.88508,0.973447215,-0.20056101,-0.05761704
1764762733.598476,-0.77826,-0.73248,0.88508,0.973447215,-0.20056101,-0.05761704
1764762733.598476,-0.77826,-0.73248,0.88508,0.973447215,-0.20056101,-0.05761704
1764762733.6463249,-0.77826,-0.73248,0.88508,0.973447215,-0.20056101,-0.05761704
1764762733.6463249,-0.77826,-0.73248,0.88508,0.973447215,-0.20056101,-0.05761704
1764762733.6463249,-0.88508,-0.82404,0.56462,0.97546137,-0.19970652,-0.05798325
1764762733.6463249,-0.88508,-0.82404,0.56462,0.97546137,-0.19970652,-0.05798325
1764762733.6463249,-0.88508,-0.82404,0.56462,0.97546137,-0.19970652,-0.05798325
1764762733.6463249,-0.88508,-0.82404,0.56462,0.97546137,-0.19970652,-0.05798325
1764762733.6463249,-0.88508,-0.82404,0.56462,0.97546137,-0.19970652,-0.05798325
1764762733.6463249,-0.88508,-0.82404,0.56462,0.97546137,-0.19970652,-0.05798325
1764762733.6463249,-0.88508,-0.82404,0.56462,0.97546137,-0.19970652,-0.05798325
1764762733.6463249,-0.88508,-0.82404,0.56462,0.97546137,-0.19970652,-0.05798325
1764762733.6463249,-0.88508,-0.82404,0.56462,0.97546137,-0.19970652,-0.05798325
1764762733.6463249,-0.88508,-0.82404,0.56462,0.97546137,-0.19970652,-0.05798325
1764762733.6463249,-0.94612,0.39676,0.1678599999999999,0.979184505,-0.199645485,-0.057678075
1764762733.6463249,-0.94612,0.39676,0.1678599999999999,0.979184505,-0.199645485,-0.057678075
1764762733.6463249,-0.94612,0.39676,0.1678599999999999,0.979184505,-0.199645485,-0.057678075
1764762733.6463249,-0.94612,0.39676,0.1678599999999999,0.979184505,-0.199645485,-0.057678075
1764762733.6463249,-0.94612,0.39676,0.1678599999999999,0.979184505,-0.199645485,-0.057678075
1764762733.6463249,-0.94612,0.39676,0.1678599999999999,0.979184505,-0.199645485,-0.057678075
1764762733.6463249,-0.94612,0.39676,0.1678599999999999,0.979184505,-0.199645485,-0.057678075
1764762733.6463249,-0.94612,0.39676,0.1678599999999999,0.979184505,-0.199645485,-0.057678075
1764762733.6463249,-0.94612,0.39676,0.1678599999999999,0.979184505,-0.199645485,-0.057678075
1764762733.6463249,-0.94612,0.39676,0.1678599999999999,0.979184505,-0.199645485,-0.057678075
1764762733.6463249,-0.77826,0.57988,0.06104,0.9802221,-0.19982859,-0.0573729
1764762733.6463249,-0.77826,0.57988,0.06104,0.9802221,-0.19982859,-0.0573729
1764762733.6925335,-0.77826,0.57988,0.06104,0.9802221,-0.19982859,-0.0573729
1764762733.6925335,-0.77826,0.57988,0.06104,0.9802221,-0.19982859,-0.0573729
1764762733.6925335,-0.77826,0.57988,0.06104,0.9802221,-0.19982859,-0.0573729
1764762733.6925335,-0.77826,0.57988,0.06104,0.9802221,-0.19982859,-0.0573729
1764762733.6925335,-0.77826,0.57988,0.06104,0.9802221,-0.19982859,-0.0573729
1764762733.6925335,-0.77826,0.57988,0.06104,0.9802221,-0.19982859,-0.0573729
1764762733.6925335,-0.77826,0.57988,0.06104,0.9802221,-0.19982859,-0.0573729
1764762733.6925335,-0.77826,0.57988,0.06104,0.9802221,-0.19982859,-0.0573729
1764762733.6925335,-1.72438,0.5341,0.18312,0.978574155,-0.198668925,-0.05834946
1764762733.6925335,-1.72438,0.5341,0.18312,0.978574155,-0.198668925,-0.05834946
1764762733.6925335,-1.72438,0.5341,0.18312,0.978574155,-0.198668925,-0.05834946
1764762733.6925335,-1.72438,0.5341,0.18312,0.978574155,-0.198668925,-0.05834946
1764762733.6925335,-1.72438,0.5341,0.18312,0.978574155,-0.198668925,-0.05834946
1764762733.6925335,-1.72438,0.5341,0.18312,0.978574155,-0.198668925,-0.05834946
1764762733.6925335,-1.72438,0.5341,0.18312,0.978574155,-0.198668925,-0.05834946
1764762733.6925335,-1.72438,0.5341,0.18312,0.978574155,-0.198668925,-0.05834946
1764762733.6925335,-1.72438,0.5341,0.18312,0.978574155,-0.198668925,-0.05834946
1764762733.6925335,-1.72438,0.5341,0.18312,0.978574155,-0.198668925,-0.05834946
1764762733.6925335,-2.65524,0.0,-0.03052,0.978085875,-0.197326155,-0.06018051
1764762733.6925335,-2.65524,0.0,-0.03052,0.978085875,-0.197326155,-0.06018051
1764762733.740373,-2.65524,0.0,-0.03052,0.978085875,-0.197326155,-0.06018051
1764762733.740373,-2.65524,0.0,-0.03052,0.978085875,-0.197326155,-0.06018051
1764762733.740373,-2.65524,0.0,-0.03052,0.978085875,-0.197326155,-0.06018051
1764762733.740373,-2.65524,0.0,-0.03052,0.978085875,-0.197326155,-0.06018051
1764762733.740373,-2.65524,0.0,-0.03052,0.978085875,-0.197326155,-0.06018051
1764762733.740373,-2.65524,0.0,-0.03052,0.978085875,-0.197326155,-0.06018051
1764762733.740373,-2.65524,0.0,-0.03052,0.978085875,-0.197326155,-0.06018051
1764762733.740373,-2.65524,0.0,-0.03052,0.978085875,-0.197326155,-0.06018051
1764762733.740373,-3.32668,0.54936,-0.3509799999999999,0.981137625,-0.196959945,-0.059509125
1764762733.740373,-3.32668,0.54936,-0.3509799999999999,0.981137625,-0.196959945,-0.059509125
1764762733.740373,-3.32668,0.54936,-0.3509799999999999,0.981137625,-0.196959945,-0.059509125
1764762733.740373,-3.32668,0.54936,-0.3509799999999999,0.981137625,-0.196959945,-0.059509125
1764762733.740373,-3.32668,0.54936,-0.3509799999999999,0.981137625,-0.196959945,-0.059509125
1764762733.740373,-3.32668,0.54936,-0.3509799999999999,0.981137625,-0.196959945,-0.059509125
1764762733.740373,-3.32668,0.54936,-0.3509799999999999,0.981137625,-0.196959945,-0.059509125
1764762733.740373,-3.32668,0.54936,-0.3509799999999999,0.981137625,-0.196959945,-0.059509125
1764762733.740373,-3.32668,0.54936,-0.3509799999999999,0.981137625,-0.196959945,-0.059509125
1764762733.740373,-3.32668,0.54936,-0.3509799999999999,0.981137625,-0.196959945,-0.059509125
1764762733.740373,-3.15882,2.39582,0.3051999999999999,0.983212815,-0.197204085,-0.0585936
1764762733.740373,-3.15882,2.39582,0.3051999999999999,0.983212815,-0.197204085,-0.0585936
1764762733.740373,-3.15882,2.39582,0.3051999999999999,0.983212815,-0.197204085,-0.0585936
1764762733.740373,-3.15882,2.39582,0.3051999999999999,0.983212815,-0.197204085,-0.0585936
1764762733.740373,-3.15882,2.39582,0.3051999999999999,0.983212815,-0.197204085,-0.0585936
1764762733.740373,-3.15882,2.39582,0.3051999999999999,0.983212815,-0.197204085,-0.0585936
1764762733.740373,-3.15882,2.39582,0.3051999999999999,0.983212815,-0.197204085,-0.0585936
1764762733.740373,-3.15882,2.39582,0.3051999999999999,0.983212815,-0.197204085,-0.0585936
1764762733.78784,-3.15882,2.39582,0.3051999999999999,0.983212815,-0.197204085,-0.0585936
1764762733.78784,-3.15882,2.39582,0.3051999999999999,0.983212815,-0.197204085,-0.0585936
1764762733.78784,-3.5098,2.57894,0.6409199999999999,0.981015555,-0.19628856,-0.058288425
1764762733.78784,-3.5098,2.57894,0.6409199999999999,0.981015555,-0.19628856,-0.058288425
1764762733.78784,-3.5098,2.57894,0.6409199999999999,0.981015555,-0.19628856,-0.058288425
1764762733.78784,-3.5098,2.57894,0.6409199999999999,0.981015555,-0.19628856,-0.058288425
1764762733.78784,-3.5098,2.57894,0.6409199999999999,0.981015555,-0.19628856,-0.058288425
1764762733.78784,-3.5098,2.57894,0.6409199999999999,0.981015555,-0.19628856,-0.058288425
1764762733.78784,-3.5098,2.57894,0.6409199999999999,0.981015555,-0.19628856,-0.058288425
1764762733.78784,-3.5098,2.57894,0.6409199999999999,0.981015555,-0.19628856,-0.058288425
1764762733.78784,-3.5098,2.57894,0.6409199999999999,0.981015555,-0.19628856,-0.058288425
1764762733.78784,-3.5098,2.57894,0.6409199999999999,0.981015555,-0.19628856,-0.058288425
1764762733.78784,-3.67766,1.70912,1.09872,0.976498965,-0.195617175,-0.057800145
1764762733.78784,-3.67766,1.70912,1.09872,0.976498965,-0.195617175,-0.057800145
1764762733.78784,-3.67766,1.70912,1.09872,0.976498965,-0.195617175,-0.057800145
1764762733.78784,-3.67766,1.70912,1.09872,0.976498965,-0.195617175,-0.057800145
1764762733.78784,-3.67766,1.70912,1.09872,0.976498965,-0.195617175,-0.057800145
1764762733.78784,-3.67766,1.70912,1.09872,0.976498965,-0.195617175,-0.057800145
1764762733.78784,-3.67766,1.70912,1.09872,0.976498965,-0.195617175,-0.057800145
1764762733.78784,-3.67766,1.70912,1.09872,0.976498965,-0.195617175,-0.057800145
1764762733.78784,-3.67766,1.70912,1.09872,0.976498965,-0.195617175,-0.057800145
1764762733.78784,-3.67766,1.70912,1.09872,0.976498965,-0.195617175,-0.057800145
1764762733.78784,-3.47928,0.7019599999999999,0.9919,0.97521723,-0.19641063,-0.05773911
1764762733.78784,-3.47928,0.7019599999999999,0.9919,0.97521723,-0.19641063,-0.05773911
1764762733.78784,-3.47928,0.7019599999999999,0.9919,0.97521723,-0.19641063,-0.05773911
1764762733.78784,-3.47928,0.7019599999999999,0.9919,0.97521723,-0.19641063,-0.05773911
1764762733.8318374,-3.47928,0.7019599999999999,0.9919,0.97521723,-0.19641063,-0.05773911
1764762733.8318374,-3.47928,0.7019599999999999,0.9919,0.97521723,-0.19641063,-0.05773911
1764762733.8318374,-3.47928,0.7019599999999999,0.9919,0.97521723,-0.19641063,-0.05773911
1764762733.8318374,-3.47928,0.7019599999999999,0.9919,0.97521723,-0.19641063,-0.05773911
1764762733.8318374,-3.47928,0.7019599999999999,0.9919,0.97521723,-0.19641063,-0.05773911
1764762733.8318374,-3.47928,0.7019599999999999,0.9919,0.97521723,-0.19641063,-0.05773911
1764762733.8328514,-3.00622,-0.04578,0.94612,0.97582758,-0.1977534,-0.055969095
1764762733.8328514,-3.00622,-0.04578,0.94612,0.97582758,-0.1977534,-0.055969095
1764762733.8328514,-3.00622,-0.04578,0.94612,0.97582758,-0.1977534,-0.055969095
1764762733.8328514,-3.00622,-0.04578,0.94612,0.97582758,-0.1977534,-0.055969095
1764762733.8328514,-3.00622,-0.04578,0.94612,0.97582758,-0.1977534,-0.055969095
1764762733.8328514,-3.00622,-0.04578,0.94612,0.97582758,-0.1977534,-0.055969095
1764762733.8328514,-3.00622,-0.04578,0.94612,0.97582758,-0.1977534,-0.055969095
1764762733.8328514,-3.00622,-0.04578,0.94612,0.97582758,-0.1977534,-0.055969095
1764762733.8328514,-3.00622,-0.04578,0.94612,0.97582758,-0.1977534,-0.055969095
1764762733.8328514,-3.00622,-0.04578,0.94612,0.97582758,-0.1977534,-0.055969095
1764762733.8333654,-2.57894,0.10682,1.1445,0.976987245,-0.198180645,-0.055358745
1764762733.8333654,-2.57894,0.10682,1.1445,0.976987245,-0.198180645,-0.055358745
1764762733.8333654,-2.57894,0.10682,1.1445,0.976987245,-0.198180645,-0.055358745
1764762733.8333654,-2.57894,0.10682,1.1445,0.976987245,-0.198180645,-0.055358745
1764762733.8333654,-2.57894,0.10682,1.1445,0.976987245,-0.198180645,-0.055358745
1764762733.8333654,-2.57894,0.10682,1.1445,0.976987245,-0.198180645,-0.055358745
1764762733.8333654,-2.57894,0.10682,1.1445,0.976987245,-0.198180645,-0.055358745
1764762733.8333654,-2.57894,0.10682,1.1445,0.976987245,-0.198180645,-0.055358745
1764762733.8809044,-2.57894,0.10682,1.1445,0.976987245,-0.198180645,-0.055358745
1764762733.8809044,-2.57894,0.10682,1.1445,0.976987245,-0.198180645,-0.055358745
1764762733.8809044,-2.9757,-0.04578,1.51074,0.9777807,-0.197570295,-0.05566392
1764762733.8809044,-2.9757,-0.04578,1.51074,0.9777807,-0.197570295,-0.05566392
1764762733.8809044,-2.9757,-0.04578,1.51074,0.9777807,-0.197570295,-0.05566392
1764762733.8809044,-2.9757,-0.04578,1.51074,0.9777807,-0.197570295,-0.05566392
1764762733.8809044,-2.9757,-0.04578,1.51074,0.9777807,-0.197570295,-0.05566392
1764762733.8809044,-2.9757,-0.04578,1.51074,0.9777807,-0.197570295,-0.05566392
1764762733.8809044,-2.9757,-0.04578,1.51074,0.9777807,-0.197570295,-0.05566392
1764762733.8809044,-2.9757,-0.04578,1.51074,0.9777807,-0.197570295,-0.05566392
1764762733.8809044,-2.9757,-0.04578,1.51074,0.9777807,-0.197570295,-0.05566392
1764762733.8809044,-2.9757,-0.04578,1.51074,0.9777807,-0.197570295,-0.05566392
1764762733.8809044,-3.6624,-0.93086,2.10588,0.977353455,-0.196349595,-0.05639634
1764762733.8809044,-3.6624,-0.93086,2.10588,0.977353455,-0.196349595,-0.05639634
1764762733.8809044,-3.6624,-0.93086,2.10588,0.977353455,-0.196349595,-0.05639634
1764762733.8809044,-3.6624,-0.93086,2.10588,0.977353455,-0.196349595,-0.05639634
1764762733.8809044,-3.6624,-0.93086,2.10588,0.977353455,-0.196349595,-0.05639634
1764762733.8809044,-3.6624,-0.93086,2.10588,0.977353455,-0.196349595,-0.05639634
1764762733.8809044,-3.6624,-0.93086,2.10588,0.977353455,-0.196349595,-0.05639634
1764762733.8809044,-3.6624,-0.93086,2.10588,0.977353455,-0.196349595,-0.05639634
1764762733.8809044,-3.6624,-0.93086,2.10588,0.977353455,-0.196349595,-0.05639634
1764762733.8809044,-3.6624,-0.93086,2.10588,0.977353455,-0.196349595,-0.05639634
1764762733.929069,-4.3491,-1.31236,2.92992,0.977719665,-0.196837875,-0.056457375
1764762733.929069,-4.3491,-1.31236,2.92992,0.977719665,-0.196837875,-0.056457375
1764762733.930091,-4.3491,-1.31236,2.92992,0.977719665,-0.196837875,-0.056457375
1764762733.930091,-4.3491,-1.31236,2.92992,0.977719665,-0.196837875,-0.056457375
1764762733.930091,-4.3491,-1.31236,2.92992,0.977719665,-0.196837875,-0.056457375
1764762733.930091,-4.3491,-1.31236,2.92992,0.977719665,-0.196837875,-0.056457375
1764762733.930091,-4.3491,-1.31236,2.92992,0.977719665,-0.196837875,-0.056457375
1764762733.930091,-4.3491,-1.31236,2.92992,0.977719665,-0.196837875,-0.056457375
1764762733.930091,-4.3491,-1.31236,2.92992,0.977719665,-0.196837875,-0.056457375
1764762733.930091,-4.3491,-1.31236,2.92992,0.977719665,-0.196837875,-0.056457375
1764762733.930091,-5.29522,-2.12114,2.85362,0.976743105,-0.19543407,-0.05725083
1764762733.930091,-5.29522,-2.12114,2.85362,0.976743105,-0.19543407,-0.05725083
1764762733.930091,-5.29522,-2.12114,2.85362,0.976743105,-0.19543407,-0.05725083
1764762733.930091,-5.29522,-2.12114,2.85362,0.976743105,-0.19543407,-0.05725083
1764762733.930091,-5.29522,-2.12114,2.85362,0.976743105,-0.19543407,-0.05725083
1764762733.930091,-5.29522,-2.12114,2.85362,0.976743105,-0.19543407,-0.05725083
1764762733.930091,-5.29522,-2.12114,2.85362,0.976743105,-0.19543407,-0.05725083
1764762733.930091,-5.29522,-2.12114,2.85362,0.976743105,-0.19543407,-0.05725083
1764762733.930091,-5.29522,-2.12114,2.85362,0.976743105,-0.19543407,-0.05725083
1764762733.930091,-5.29522,-2.12114,2.85362,0.976743105,-0.19543407,-0.05725083
1764762733.930091,-6.165039999999999,-2.68576,2.77732,0.97826898,-0.195373035,-0.05798325
1764762733.930091,-6.165039999999999,-2.68576,2.77732,0.97826898,-0.195373035,-0.05798325
1764762733.930091,-6.165039999999999,-2.68576,2.77732,0.97826898,-0.195373035,-0.05798325
1764762733.930091,-6.165039999999999,-2.68576,2.77732,0.97826898,-0.195373035,-0.05798325
1764762733.9735277,-6.165039999999999,-2.68576,2.77732,0.97826898,-0.195373035,-0.05798325
1764762733.9735277,-6.165039999999999,-2.68576,2.77732,0.97826898,-0.195373035,-0.05798325
1764762733.9735277,-6.165039999999999,-2.68576,2.77732,0.97826898,-0.195373035,-0.05798325
1764762733.9735277,-6.165039999999999,-2.68576,2.77732,0.97826898,-0.195373035,-0.05798325
1764762733.9735277,-6.165039999999999,-2.68576,2.77732,0.97826898,-0.195373035,-0.05798325
1764762733.9735277,-6.165039999999999,-2.68576,2.77732,0.97826898,-0.195373035,-0.05798325
1764762733.9735277,-5.92088,-2.88414,2.53316,0.97924554,-0.19641063,-0.05798325
1764762733.9735277,-5.92088,-2.88414,2.53316,0.97924554,-0.19641063,-0.05798325
1764762733.9735277,-5.92088,-2.88414,2.53316,0.97924554,-0.19641063,-0.05798325
1764762733.9735277,-5.92088,-2.88414,2.53316,0.97924554,-0.19641063,-0.05798325
1764762733.9735277,-5.92088,-2.88414,2.53316,0.97924554,-0.19641063,-0.05798325
1764762733.9735277,-5.92088,-2.88414,2.53316,0.97924554,-0.19641063,-0.05798325
1764762733.974542,-5.92088,-2.88414,2.53316,0.97924554,-0.19641063,-0.05798325
1764762733.974542,-5.92088,-2.88414,2.53316,0.97924554,-0.19641063,-0.05798325
1764762733.974542,-5.92088,-2.88414,2.53316,0.97924554,-0.19641063,-0.05798325
1764762733.974542,-5.92088,-2.88414,2.53316,0.97924554,-0.19641063,-0.05798325
1764762733.974542,-5.93614,-3.03674,3.052,0.977719665,-0.197082015,-0.05810532
1764762733.974542,-5.93614,-3.03674,3.052,0.977719665,-0.197082015,-0.05810532
1764762733.974542,-5.93614,-3.03674,3.052,0.977719665,-0.197082015,-0.05810532
1764762733.974542,-5.93614,-3.03674,3.052,0.977719665,-0.197082015,-0.05810532
1764762733.974542,-5.93614,-3.03674,3.052,0.977719665,-0.197082015,-0.05810532
1764762733.974542,-5.93614,-3.03674,3.052,0.977719665,-0.197082015,-0.05810532
1764762733.974542,-5.93614,-3.03674,3.052,0.977719665,-0.197082015,-0.05810532
1764762733.974542,-5.93614,-3.03674,3.052,0.977719665,-0.197082015,-0.05810532
1764762734.0228648,-5.93614,-3.03674,3.052,0.977719665,-0.197082015,-0.05810532
1764762734.0228648,-5.93614,-3.03674,3.052,0.977719665,-0.197082015,-0.05810532
1764762734.0228648,-6.134519999999999,-3.84552,2.79258,0.976376895,-0.197204085,-0.059875335
1764762734.0228648,-6.134519999999999,-3.84552,2.79258,0.976376895,-0.197204085,-0.059875335
1764762734.0228648,-6.134519999999999,-3.84552,2.79258,0.976376895,-0.197204085,-0.059875335
1764762734.0228648,-6.134519999999999,-3.84552,2.79258,0.976376895,-0.197204085,-0.059875335
1764762734.0228648,-6.134519999999999,-3.84552,2.79258,0.976376895,-0.197204085,-0.059875335
1764762734.0228648,-6.134519999999999,-3.84552,2.79258,0.976376895,-0.197204085,-0.059875335
1764762734.0228648,-6.134519999999999,-3.84552,2.79258,0.976376895,-0.197204085,-0.059875335
1764762734.0228648,-6.134519999999999,-3.84552,2.79258,0.976376895,-0.197204085,-0.059875335
1764762734.0228648,-6.134519999999999,-3.84552,2.79258,0.976376895,-0.197204085,-0.059875335
1764762734.0228648,-6.134519999999999,-3.84552,2.79258,0.976376895,-0.197204085,-0.059875335
1764762734.0228648,-6.31764,-3.93708,2.68576,0.97656,-0.19750926,-0.061706385
1764762734.0228648,-6.31764,-3.93708,2.68576,0.97656,-0.19750926,-0.061706385
1764762734.0228648,-6.31764,-3.93708,2.68576,0.97656,-0.19750926,-0.061706385
1764762734.0228648,-6.31764,-3.93708,2.68576,0.97656,-0.19750926,-0.061706385
1764762734.0228648,-6.31764,-3.93708,2.68576,0.97656,-0.19750926,-0.061706385
1764762734.0228648,-6.31764,-3.93708,2.68576,0.97656,-0.19750926,-0.061706385
1764762734.0228648,-6.31764,-3.93708,2.68576,0.97656,-0.19750926,-0.061706385
1764762734.0228648,-6.31764,-3.93708,2.68576,0.97656,-0.19750926,-0.061706385
1764762734.0228648,-6.31764,-3.93708,2.68576,0.97656,-0.19750926,-0.061706385
1764762734.0228648,-6.31764,-3.93708,2.68576,0.97656,-0.19750926,-0.061706385
1764762734.0228648,-6.34816,-4.6543,3.29616,0.976987245,-0.19799754,-0.062438805
1764762734.0228648,-6.34816,-4.6543,3.29616,0.976987245,-0.19799754,-0.062438805
1764762734.0690088,-6.34816,-4.6543,3.29616,0.976987245,-0.19799754,-0.062438805
1764762734.0690088,-6.34816,-4.6543,3.29616,0.976987245,-0.19799754,-0.062438805
1764762734.0690088,-6.34816,-4.6543,3.29616,0.976987245,-0.19799754,-0.062438805
1764762734.0690088,-6.34816,-4.6543,3.29616,0.976987245,-0.19799754,-0.062438805
1764762734.0690088,-6.34816,-4.6543,3.29616,0.976987245,-0.19799754,-0.062438805
1764762734.0690088,-6.34816,-4.6543,3.29616,0.976987245,-0.19799754,-0.062438805
1764762734.0690088,-6.34816,-4.6543,3.29616,0.976987245,-0.19799754,-0.062438805
1764762734.0690088,-6.34816,-4.6543,3.29616,0.976987245,-0.19799754,-0.062438805
1764762734.0690088,-5.92088,-4.5017,3.86078,0.978207945,-0.19958445,-0.06298812
1764762734.0690088,-5.92088,-4.5017,3.86078,0.978207945,-0.19958445,-0.06298812
1764762734.0690088,-5.92088,-4.5017,3.86078,0.978207945,-0.19958445,-0.06298812
1764762734.0690088,-5.92088,-4.5017,3.86078,0.978207945,-0.19958445,-0.06298812
1764762734.0690088,-5.92088,-4.5017,3.86078,0.978207945,-0.19958445,-0.06298812
1764762734.0690088,-5.92088,-4.5017,3.86078,0.978207945,-0.19958445,-0.06298812
1764762734.070021,-5.92088,-4.5017,3.86078,0.978207945,-0.19958445,-0.06298812
1764762734.070021,-5.92088,-4.5017,3.86078,0.978207945,-0.19958445,-0.06298812
1764762734.070021,-5.92088,-4.5017,3.86078,0.978207945,-0.19958445,-0.06298812
1764762734.070021,-5.92088,-4.5017,3.86078,0.978207945,-0.19958445,-0.06298812
1764762734.070021,-4.91372,-4.1965,4.76112,0.97973382,-0.2001948,-0.063903645
1764762734.070021,-4.91372,-4.1965,4.76112,0.97973382,-0.2001948,-0.063903645
1764762734.070021,-4.91372,-4.1965,4.76112,0.97973382,-0.2001948,-0.063903645
1764762734.070021,-4.91372,-4.1965,4.76112,0.97973382,-0.2001948,-0.063903645
1764762734.070021,-4.91372,-4.1965,4.76112,0.97973382,-0.2001948,-0.063903645
1764762734.070021,-4.91372,-4.1965,4.76112,0.97973382,-0.2001948,-0.063903645
1764762734.1167052,-4.91372,-4.1965,4.76112,0.97973382,-0.2001948,-0.063903645
1764762734.1167052,-4.91372,-4.1965,4.76112,0.97973382,-0.2001948,-0.063903645
1764762734.1167052,-4.91372,-4.1965,4.76112,0.97973382,-0.2001948,-0.063903645
1764762734.1167052,-4.91372,-4.1965,4.76112,0.97973382,-0.2001948,-0.063903645
1764762734.1167052,-4.715339999999999,-4.15072,5.1121,0.97948968,-0.20031687,-0.066589185
1764762734.1167052,-4.715339999999999,-4.15072,5.1121,0.97948968,-0.20031687,-0.066589185
1764762734.1167052,-4.715339999999999,-4.15072,5.1121,0.97948968,-0.20031687,-0.066589185
1764762734.1167052,-4.715339999999999,-4.15072,5.1121,0.97948968,-0.20031687,-0.066589185
1764762734.1167052,-4.715339999999999,-4.15072,5.1121,0.97948968,-0.20031687,-0.066589185
1764762734.1167052,-4.715339999999999,-4.15072,5.1121,0.97948968,-0.20031687,-0.066589185
1764762734.1167052,-4.715339999999999,-4.15072,5.1121,0.97948968,-0.20031687,-0.066589185
1764762734.1167052,-4.715339999999999,-4.15072,5.1121,0.97948968,-0.20031687,-0.066589185
1764762734.1167052,-4.715339999999999,-4.15072,5.1121,0.97948968,-0.20031687,-0.066589185
1764762734.1167052,-4.715339999999999,-4.15072,5.1121,0.97948968,-0.20031687,-0.066589185
1764762734.1167052,-4.18124,-3.44876,4.97476,0.979916925,-0.201232395,-0.067809885
1764762734.1167052,-4.18124,-3.44876,4.97476,0.979916925,-0.201232395,-0.067809885
1764762734.1167052,-4.18124,-3.44876,4.97476,0.979916925,-0.201232395,-0.067809885
1764762734.1167052,-4.18124,-3.44876,4.97476,0.979916925,-0.201232395,-0.067809885
1764762734.1167052,-4.18124,-3.44876,4.97476,0.979916925,-0.201232395,-0.067809885
1764762734.1167052,-4.18124,-3.44876,4.97476,0.979916925,-0.201232395,-0.067809885
1764762734.1638052,-4.18124,-3.44876,4.97476,0.979916925,-0.201232395,-0.067809885
1764762734.1638052,-4.18124,-3.44876,4.97476,0.979916925,-0.201232395,-0.067809885
1764762734.1638052,-4.18124,-3.44876,4.97476,0.979916925,-0.201232395,-0.067809885
1764762734.1638052,-4.18124,-3.44876,4.97476,0.979916925,-0.201232395,-0.067809885
1764762734.1638052,-3.92182,-2.30426,4.74586,0.98083245,-0.20068308,-0.0683592
1764762734.1638052,-3.92182,-2.30426,4.74586,0.98083245,-0.20068308,-0.0683592
1764762734.1638052,-3.92182,-2.30426,4.74586,0.98083245,-0.20068308,-0.0683592
1764762734.1638052,-3.92182,-2.30426,4.74586,0.98083245,-0.20068308,-0.0683592
1764762734.1638052,-3.92182,-2.30426,4.74586,0.98083245,-0.20068308,-0.0683592
1764762734.1638052,-3.92182,-2.30426,4.74586,0.98083245,-0.20068308,-0.0683592
1764762734.1638052,-3.92182,-2.30426,4.74586,0.98083245,-0.20068308,-0.0683592
1764762734.1638052,-3.92182,-2.30426,4.74586,0.98083245,-0.20068308,-0.0683592
1764762734.1638052,-3.92182,-2.30426,4.74586,0.98083245,-0.20068308,-0.0683592
1764762734.1638052,-3.92182,-2.30426,4.74586,0.98083245,-0.20068308,-0.0683592
1764762734.1638052,-4.5017,-2.1364,4.53222,0.979794855,-0.19909617,-0.06982404
1764762734.1638052,-4.5017,-2.1364,4.53222,0.979794855,-0.19909617,-0.06982404
1764762734.1638052,-4.5017,-2.1364,4.53222,0.979794855,-0.19909617,-0.06982404
1764762734.1638052,-4.5017,-2.1364,4.53222,0.979794855,-0.19909617,-0.06982404
1764762734.1638052,-4.5017,-2.1364,4.53222,0.979794855,-0.19909617,-0.06982404
1764762734.1638052,-4.5017,-2.1364,4.53222,0.979794855,-0.19909617,-0.06982404
1764762734.1638052,-4.5017,-2.1364,4.53222,0.979794855,-0.19909617,-0.06982404
1764762734.1638052,-4.5017,-2.1364,4.53222,0.979794855,-0.19909617,-0.06982404
1764762734.1638052,-4.5017,-2.1364,4.53222,0.979794855,-0.19909617,-0.06982404
1764762734.1638052,-4.5017,-2.1364,4.53222,0.979794855,-0.19909617,-0.06982404
1764762734.1638052,-4.39488,-1.69386,3.93708,0.981259695,-0.19799754,-0.071105775
1764762734.1638052,-4.39488,-1.69386,3.93708,0.981259695,-0.19799754,-0.071105775
1764762734.2108798,-4.39488,-1.69386,3.93708,0.981259695,-0.19799754,-0.071105775
1764762734.2108798,-4.39488,-1.69386,3.93708,0.981259695,-0.19799754,-0.071105775
1764762734.2108798,-4.39488,-1.69386,3.93708,0.981259695,-0.19799754,-0.071105775
1764762734.2108798,-4.39488,-1.69386,3.93708,0.981259695,-0.19799754,-0.071105775
1764762734.2108798,-4.39488,-1.69386,3.93708,0.981259695,-0.19799754,-0.071105775
1764762734.2108798,-4.39488,-1.69386,3.93708,0.981259695,-0.19799754,-0.071105775
1764762734.2108798,-4.39488,-1.69386,3.93708,0.981259695,-0.19799754,-0.071105775
1764762734.2108798,-4.39488,-1.69386,3.93708,0.981259695,-0.19799754,-0.071105775
1764762734.2108798,-4.76112,-0.9919,3.7387,0.98132073,-0.20007273,-0.07055646
1764762734.2108798,-4.76112,-0.9919,3.7387,0.98132073,-0.20007273,-0.07055646
1764762734.2108798,-4.76112,-0.9919,3.7387,0.98132073,-0.20007273,-0.07055646
1764762734.2108798,-4.76112,-0.9919,3.7387,0.98132073,-0.20007273,-0.07055646
1764762734.2108798,-4.76112,-0.9919,3.7387,0.98132073,-0.20007273,-0.07055646
1764762734.2108798,-4.76112,-0.9919,3.7387,0.98132073,-0.20007273,-0.07055646
1764762734.2108798,-4.76112,-0.9919,3.7387,0.98132073,-0.20007273,-0.07055646
1764762734.2108798,-4.76112,-0.9919,3.7387,0.98132073,-0.20007273,-0.07055646
1764762734.2108798,-4.76112,-0.9919,3.7387,0.98132073,-0.20007273,-0.07055646
1764762734.2108798,-4.76112,-0.9919,3.7387,0.98132073,-0.20007273,-0.07055646
1764762734.2108798,-4.13546,-1.81594,4.31858,0.977109315,-0.20239206,-0.07153302
1764762734.2108798,-4.13546,-1.81594,4.31858,0.977109315,-0.20239206,-0.07153302
1764762734.2108798,-4.13546,-1.81594,4.31858,0.977109315,-0.20239206,-0.07153302
1764762734.2108798,-4.13546,-1.81594,4.31858,0.977109315,-0.20239206,-0.07153302
1764762734.2577453,-4.13546,-1.81594,4.31858,0.977109315,-0.20239206,-0.07153302
1764762734.2577453,-4.13546,-1.81594,4.31858,0.977109315,-0.20239206,-0.07153302
1764762734.2577453,-4.13546,-1.81594,4.31858,0.977109315,-0.20239206,-0.07153302
1764762734.2577453,-4.13546,-1.81594,4.31858,0.977109315,-0.20239206,-0.07153302
1764762734.2577453,-4.13546,-1.81594,4.31858,0.977109315,-0.20239206,-0.07153302
1764762734.2577453,-4.13546,-1.81594,4.31858,0.977109315,-0.20239206,-0.07153302
1764762734.2577453,-4.97476,-2.91466,4.33384,0.97558344,-0.203917935,-0.073425105
1764762734.2577453,-4.97476,-2.91466,4.33384,0.97558344,-0.203917935,-0.073425105
1764762734.2577453,-4.97476,-2.91466,4.33384,0.97558344,-0.203917935,-0.073425105
1764762734.2577453,-4.97476,-2.91466,4.33384,0.97558344,-0.203917935,-0.073425105
1764762734.2577453,-4.97476,-2.91466,4.33384,0.97558344,-0.203917935,-0.073425105
1764762734.2577453,-4.97476,-2.91466,4.33384,0.97558344,-0.203917935,-0.073425105
1764762734.2577453,-4.97476,-2.91466,4.33384,0.97558344,-0.203917935,-0.073425105
1764762734.2577453,-4.97476,-2.91466,4.33384,0.97558344,-0.203917935,-0.073425105
1764762734.2577453,-4.97476,-2.91466,4.33384,0.97558344,-0.203917935,-0.073425105
1764762734.2577453,-4.97476,-2.91466,4.33384,0.97558344,-0.203917935,-0.073425105
1764762734.2577453,-5.00528,-3.75396,3.90656,0.97741449,-0.205871055,-0.07495098
1764762734.2577453,-5.00528,-3.75396,3.90656,0.97741449,-0.205871055,-0.07495098
1764762734.2577453,-5.00528,-3.75396,3.90656,0.97741449,-0.205871055,-0.07495098
1764762734.2577453,-5.00528,-3.75396,3.90656,0.97741449,-0.205871055,-0.07495098
1764762734.2577453,-5.00528,-3.75396,3.90656,0.97741449,-0.205871055,-0.07495098
1764762734.2577453,-5.00528,-3.75396,3.90656,0.97741449,-0.205871055,-0.07495098
1764762734.2577453,-5.00528,-3.75396,3.90656,0.97741449,-0.205871055,-0.07495098
1764762734.2577453,-5.00528,-3.75396,3.90656,0.97741449,-0.205871055,-0.07495098
1764762734.2577453,-5.00528,-3.75396,3.90656,0.97741449,-0.205871055,-0.07495098
1764762734.2577453,-5.00528,-3.75396,3.90656,0.97741449,-0.205871055,-0.07495098
1764762734.3019707,-4.60852,-3.15882,3.72344,0.978452085,-0.20617623,-0.075622365
1764762734.3019707,-4.60852,-3.15882,3.72344,0.978452085,-0.20617623,-0.075622365
1764762734.3019707,-4.60852,-3.15882,3.72344,0.978452085,-0.20617623,-0.075622365
1764762734.3019707,-4.60852,-3.15882,3.72344,0.978452085,-0.20617623,-0.075622365
1764762734.3019707,-4.60852,-3.15882,3.72344,0.978452085,-0.20617623,-0.075622365
1764762734.3019707,-4.60852,-3.15882,3.72344,0.978452085,-0.20617623,-0.075622365
1764762734.3019707,-4.60852,-3.15882,3.72344,0.978452085,-0.20617623,-0.075622365
1764762734.3019707,-4.60852,-3.15882,3.72344,0.978452085,-0.20617623,-0.075622365
1764762734.3019707,-4.60852,-3.15882,3.72344,0.978452085,-0.20617623,-0.075622365
1764762734.3019707,-4.60852,-3.15882,3.72344,0.978452085,-0.20617623,-0.075622365
1764762734.3019707,-4.07442,-2.5179,4.13546,0.97741449,-0.20764107,-0.075622365
1764762734.3019707,-4.07442,-2.5179,4.13546,0.97741449,-0.20764107,-0.075622365
1764762734.3019707,-4.07442,-2.5179,4.13546,0.97741449,-0.20764107,-0.075622365
1764762734.3019707,-4.07442,-2.5179,4.13546,0.97741449,-0.20764107,-0.075622365
1764762734.3019707,-4.07442,-2.5179,4.13546,0.97741449,-0.20764107,-0.075622365
1764762734.3019707,-4.07442,-2.5179,4.13546,0.97741449,-0.20764107,-0.075622365
1764762734.3019707,-4.07442,-2.5179,4.13546,0.97741449,-0.20764107,-0.075622365
1764762734.3019707,-4.07442,-2.5179,4.13546,0.97741449,-0.20764107,-0.075622365
1764762734.3019707,-4.07442,-2.5179,4.13546,0.97741449,-0.20764107,-0.075622365
1764762734.3019707,-4.07442,-2.5179,4.13546,0.97741449,-0.20764107,-0.075622365
1764762734.3019707,-3.79974,-5.73776,6.516019999999999,0.9692358,-0.207335895,-0.07727031
1764762734.3019707,-3.79974,-5.73776,6.516019999999999,0.9692358,-0.207335895,-0.07727031
1764762734.3491347,-3.79974,-5.73776,6.516019999999999,0.9692358,-0.207335895,-0.07727031
1764762734.3491347,-3.79974,-5.73776,6.516019999999999,0.9692358,-0.207335895,-0.07727031
1764762734.3491347,-3.79974,-5.73776,6.516019999999999,0.9692358,-0.207335895,-0.07727031
1764762734.3491347,-3.79974,-5.73776,6.516019999999999,0.9692358,-0.207335895,-0.07727031
1764762734.3491347,-3.79974,-5.73776,6.516019999999999,0.9692358,-0.207335895,-0.07727031
1764762734.3491347,-3.79974,-5.73776,6.516019999999999,0.9692358,-0.207335895,-0.07727031
1764762734.3491347,-3.79974,-5.73776,6.516019999999999,0.9692358,-0.207335895,-0.07727031
1764762734.3491347,-3.79974,-5.73776,6.516019999999999,0.9692358,-0.207335895,-0.07727031
1764762734.3491347,-5.371519999999999,-11.32292,11.26188,0.95837157,-0.203307585,-0.078918255
1764762734.3491347,-5.371519999999999,-11.32292,11.26188,0.95837157,-0.203307585,-0.078918255
1764762734.3491347,-5.371519999999999,-11.32292,11.26188,0.95837157,-0.203307585,-0.078918255
1764762734.3491347,-5.371519999999999,-11.32292,11.26188,0.95837157,-0.203307585,-0.078918255
1764762734.3491347,-5.371519999999999,-11.32292,11.26188,0.95837157,-0.203307585,-0.078918255
1764762734.3491347,-5.371519999999999,-11.32292,11.26188,0.95837157,-0.203307585,-0.078918255
1764762734.3491347,-5.371519999999999,-11.32292,11.26188,0.95837157,-0.203307585,-0.078918255
1764762734.3491347,-5.371519999999999,-11.32292,11.26188,0.95837157,-0.203307585,-0.078918255
1764762734.3491347,-5.371519999999999,-11.32292,11.26188,0.95837157,-0.203307585,-0.078918255
1764762734.3491347,-5.371519999999999,-11.32292,11.26188,0.95837157,-0.203307585,-0.078918255
1764762734.3491347,-8.05728,-14.39018,14.93954,0.95910399,-0.20239206,-0.07885722
1764762734.3491347,-8.05728,-14.39018,14.93954,0.95910399,-0.20239206,-0.07885722
1764762734.3491347,-8.05728,-14.39018,14.93954,0.95910399,-0.20239206,-0.07885722
1764762734.3491347,-8.05728,-14.39018,14.93954,0.95910399,-0.20239206,-0.07885722
1764762734.3491347,-8.05728,-14.39018,14.93954,0.95910399,-0.20239206,-0.07885722
1764762734.3491347,-8.05728,-14.39018,14.93954,0.95910399,-0.20239206,-0.07885722
1764762734.3957264,-8.05728,-14.39018,14.93954,0.95910399,-0.20239206,-0.07885722
1764762734.3957264,-8.05728,-14.39018,14.93954,0.95910399,-0.20239206,-0.07885722
1764762734.3957264,-8.05728,-14.39018,14.93954,0.95910399,-0.20239206,-0.07885722
1764762734.3957264,-8.05728,-14.39018,14.93954,0.95910399,-0.20239206,-0.07885722
1764762734.3957264,-9.82744,-14.6496,16.633399999999998,0.96655026,-0.204406215,-0.07763652
1764762734.3957264,-9.82744,-14.6496,16.633399999999998,0.96655026,-0.204406215,-0.07763652
1764762734.3957264,-9.82744,-14.6496,16.633399999999998,0.96655026,-0.204406215,-0.07763652
1764762734.3957264,-9.82744,-14.6496,16.633399999999998,0.96655026,-0.204406215,-0.07763652
1764762734.3957264,-9.82744,-14.6496,16.633399999999998,0.96655026,-0.204406215,-0.07763652
1764762734.3957264,-9.82744,-14.6496,16.633399999999998,0.96655026,-0.204406215,-0.07763652
1764762734.3967452,-9.82744,-14.6496,16.633399999999998,0.96655026,-0.204406215,-0.07763652
1764762734.3967452,-9.82744,-14.6496,16.633399999999998,0.96655026,-0.204406215,-0.07763652
1764762734.3967452,-9.82744,-14.6496,16.633399999999998,0.96655026,-0.204406215,-0.07763652
1764762734.3967452,-9.82744,-14.6496,16.633399999999998,0.96655026,-0.204406215,-0.07763652
1764762734.3967452,-7.065379999999999,-15.73306,18.35778,0.96789303,-0.21569769,-0.07897929
1764762734.3967452,-7.065379999999999,-15.73306,18.35778,0.96789303,-0.21569769,-0.07897929
1764762734.3967452,-7.065379999999999,-15.73306,18.35778,0.96789303,-0.21569769,-0.07897929
1764762734.3967452,-7.065379999999999,-15.73306,18.35778,0.96789303,-0.21569769,-0.07897929
1764762734.3967452,-7.065379999999999,-15.73306,18.35778,0.96789303,-0.21569769,-0.07897929
1764762734.3967452,-7.065379999999999,-15.73306,18.35778,0.96789303,-0.21569769,-0.07897929
1764762734.3967452,-7.065379999999999,-15.73306,18.35778,0.96789303,-0.21569769,-0.07897929
1764762734.3967452,-7.065379999999999,-15.73306,18.35778,0.96789303,-0.21569769,-0.07897929
1764762734.4417646,-7.065379999999999,-15.73306,18.35778,0.96789303,-0.21569769,-0.07897929
1764762734.4417646,-7.065379999999999,-15.73306,18.35778,0.96789303,-0.21569769,-0.07897929
1764762734.4417646,-6.027699999999999,-15.99248,16.69444,0.97350825,-0.219054615,-0.082458285
1764762734.4417646,-6.027699999999999,-15.99248,16.69444,0.97350825,-0.219054615,-0.082458285
1764762734.4417646,-6.027699999999999,-15.99248,16.69444,0.97350825,-0.219054615,-0.082458285
1764762734.4417646,-6.027699999999999,-15.99248,16.69444,0.97350825,-0.219054615,-0.082458285
1764762734.4417646,-6.027699999999999,-15.99248,16.69444,0.97350825,-0.219054615,-0.082458285
1764762734.4417646,-6.027699999999999,-15.99248,16.69444,0.97350825,-0.219054615,-0.082458285
1764762734.4417646,-6.027699999999999,-15.99248,16.69444,0.97350825,-0.219054615,-0.082458285
1764762734.4417646,-6.027699999999999,-15.99248,16.69444,0.97350825,-0.219054615,-0.082458285
1764762734.4417646,-6.027699999999999,-15.99248,16.69444,0.97350825,-0.219054615,-0.082458285
1764762734.4417646,-6.027699999999999,-15.99248,16.69444,0.97350825,-0.219054615,-0.082458285
1764762734.4417646,-4.56274,-15.13792,14.60382,0.977597595,-0.222106365,-0.085632105
1764762734.4417646,-4.56274,-15.13792,14.60382,0.977597595,-0.222106365,-0.085632105
1764762734.4417646,-4.56274,-15.13792,14.60382,0.977597595,-0.222106365,-0.085632105
1764762734.4417646,-4.56274,-15.13792,14.60382,0.977597595,-0.222106365,-0.085632105
1764762734.4417646,-4.56274,-15.13792,14.60382,0.977597595,-0.222106365,-0.085632105
1764762734.4417646,-4.56274,-15.13792,14.60382,0.977597595,-0.222106365,-0.085632105
1764762734.4417646,-4.56274,-15.13792,14.60382,0.977597595,-0.222106365,-0.085632105
1764762734.4417646,-4.56274,-15.13792,14.60382,0.977597595,-0.222106365,-0.085632105
1764762734.4417646,-4.56274,-15.13792,14.60382,0.977597595,-0.222106365,-0.085632105
1764762734.4417646,-4.56274,-15.13792,14.60382,0.977597595,-0.222106365,-0.085632105
1764762734.4883635,-2.88414,-14.16128,12.00962,0.979794855,-0.225890535,-0.087951435
1764762734.4883635,-2.88414,-14.16128,12.00962,0.979794855,-0.225890535,-0.087951435
1764762734.4883635,-2.88414,-14.16128,12.00962,0.979794855,-0.225890535,-0.087951435
1764762734.4883635,-2.88414,-14.16128,12.00962,0.979794855,-0.225890535,-0.087951435
1764762734.4883635,-2.88414,-14.16128,12.00962,0.979794855,-0.225890535,-0.087951435
1764762734.4883635,-2.88414,-14.16128,12.00962,0.979794855,-0.225890535,-0.087951435
1764762734.4883635,-2.88414,-14.16128,12.00962,0.979794855,-0.225890535,-0.087951435
1764762734.4883635,-2.88414,-14.16128,12.00962,0.979794855,-0.225890535,-0.087951435
1764762734.4883635,-2.88414,-14.16128,12.00962,0.979794855,-0.225890535,-0.087951435
1764762734.4883635,-2.88414,-14.16128,12.00962,0.979794855,-0.225890535,-0.087951435
1764762734.4883635,-2.31952,-11.85702,11.70442,0.97973382,-0.22570743,-0.090881115
1764762734.4883635,-2.31952,-11.85702,11.70442,0.97973382,-0.22570743,-0.090881115
1764762734.4883635,-2.31952,-11.85702,11.70442,0.97973382,-0.22570743,-0.090881115
1764762734.4883635,-2.31952,-11.85702,11.70442,0.97973382,-0.22570743,-0.090881115
1764762734.4883635,-2.31952,-11.85702,11.70442,0.97973382,-0.22570743,-0.090881115
1764762734.4883635,-2.31952,-11.85702,11.70442,0.97973382,-0.22570743,-0.090881115
1764762734.4883635,-2.31952,-11.85702,11.70442,0.97973382,-0.22570743,-0.090881115
1764762734.4883635,-2.31952,-11.85702,11.70442,0.97973382,-0.22570743,-0.090881115
1764762734.4883635,-2.31952,-11.85702,11.70442,0.97973382,-0.22570743,-0.090881115
1764762734.4883635,-2.31952,-11.85702,11.70442,0.97973382,-0.22570743,-0.090881115
1764762734.5349684,-3.18934,-11.00246,11.56708,0.97839105,-0.224547765,-0.094421145
1764762734.5349684,-3.18934,-11.00246,11.56708,0.97839105,-0.224547765,-0.094421145
1764762734.5349684,-3.18934,-11.00246,11.56708,0.97839105,-0.224547765,-0.094421145
1764762734.5349684,-3.18934,-11.00246,11.56708,0.97839105,-0.224547765,-0.094421145
1764762734.5349684,-3.18934,-11.00246,11.56708,0.97839105,-0.224547765,-0.094421145
1764762734.5349684,-3.18934,-11.00246,11.56708,0.97839105,-0.224547765,-0.094421145
1764762734.5349684,-3.18934,-11.00246,11.56708,0.97839105,-0.224547765,-0.094421145
1764762734.5349684,-3.18934,-11.00246,11.56708,0.97839105,-0.224547765,-0.094421145
1764762734.5349684,-3.18934,-11.00246,11.56708,0.97839105,-0.224547765,-0.094421145
1764762734.5349684,-3.18934,-11.00246,11.56708,0.97839105,-0.224547765,-0.094421145
1764762734.5349684,-4.303319999999999,-9.47646,12.6658,0.97582758,-0.224913975,-0.097106685
1764762734.5349684,-4.303319999999999,-9.47646,12.6658,0.97582758,-0.224913975,-0.097106685
1764762734.5349684,-4.303319999999999,-9.47646,12.6658,0.97582758,-0.224913975,-0.097106685
1764762734.5349684,-4.303319999999999,-9.47646,12.6658,0.97582758,-0.224913975,-0.097106685
1764762734.5349684,-4.303319999999999,-9.47646,12.6658,0.97582758,-0.224913975,-0.097106685
1764762734.5349684,-4.303319999999999,-9.47646,12.6658,0.97582758,-0.224913975,-0.097106685
1764762734.5349684,-4.303319999999999,-9.47646,12.6658,0.97582758,-0.224913975,-0.097106685
1764762734.5349684,-4.303319999999999,-9.47646,12.6658,0.97582758,-0.224913975,-0.097106685
1764762734.5349684,-4.303319999999999,-9.47646,12.6658,0.97582758,-0.224913975,-0.097106685
1764762734.5349684,-4.303319999999999,-9.47646,12.6658,0.97582758,-0.224913975,-0.097106685
1764762734.5349684,-5.7988,-8.82028,13.36776,0.97399653,-0.226134675,-0.099792225
1764762734.5349684,-5.7988,-8.82028,13.36776,0.97399653,-0.226134675,-0.099792225
1764762734.5349684,-5.7988,-8.82028,13.36776,0.97399653,-0.226134675,-0.099792225
1764762734.5349684,-5.7988,-8.82028,13.36776,0.97399653,-0.226134675,-0.099792225
1764762734.5349684,-5.7988,-8.82028,13.36776,0.97399653,-0.226134675,-0.099792225
1764762734.5349684,-5.7988,-8.82028,13.36776,0.97399653,-0.226134675,-0.099792225
1764762734.5349684,-5.7988,-8.82028,13.36776,0.97399653,-0.226134675,-0.099792225
1764762734.5349684,-5.7988,-8.82028,13.36776,0.97399653,-0.226134675,-0.099792225
1764762734.5824344,-5.7988,-8.82028,13.36776,0.97399653,-0.226134675,-0.099792225
1764762734.5824344,-5.7988,-8.82028,13.36776,0.97399653,-0.226134675,-0.099792225
1764762734.5824344,-6.821219999999999,-8.05728,12.25378,0.971860305,-0.22656192,-0.10144017
1764762734.5824344,-6.821219999999999,-8.05728,12.25378,0.971860305,-0.22656192,-0.10144017
1764762734.5824344,-6.821219999999999,-8.05728,12.25378,0.971860305,-0.22656192,-0.10144017
1764762734.5824344,-6.821219999999999,-8.05728,12.25378,0.971860305,-0.22656192,-0.10144017
1764762734.5824344,-6.821219999999999,-8.05728,12.25378,0.971860305,-0.22656192,-0.10144017
1764762734.5824344,-6.821219999999999,-8.05728,12.25378,0.971860305,-0.22656192,-0.10144017
1764762734.5824344,-6.821219999999999,-8.05728,12.25378,0.971860305,-0.22656192,-0.10144017
1764762734.5824344,-6.821219999999999,-8.05728,12.25378,0.971860305,-0.22656192,-0.10144017
1764762734.5824344,-6.821219999999999,-8.05728,12.25378,0.971860305,-0.22656192,-0.10144017
1764762734.5824344,-6.821219999999999,-8.05728,12.25378,0.971860305,-0.22656192,-0.10144017
1764762734.5824344,-8.28618,-7.507919999999999,10.74304,0.97228755,-0.22863711,-0.10266087
1764762734.5824344,-8.28618,-7.507919999999999,10.74304,0.97228755,-0.22863711,-0.10266087
1764762734.5824344,-8.28618,-7.507919999999999,10.74304,0.97228755,-0.22863711,-0.10266087
1764762734.5824344,-8.28618,-7.507919999999999,10.74304,0.97228755,-0.22863711,-0.10266087
