Timestamp,GyroX,GyroY,GyroZ,AccX,AccY,AccZ
1764764681.126868,-3.1283,-42.59066,36.30354,0.875669145,-0.3820791,-0.31115643
1764764681.126868,-3.1283,-42.59066,36.30354,0.875669145,-0.3820791,-0.31115643
1764764681.126868,-3.1283,-42.59066,36.30354,0.875669145,-0.3820791,-0.31115643
1764764681.126868,-3.1283,-42.59066,36.30354,0.875669145,-0.3820791,-0.31115643
1764764681.126868,-3.1283,-42.59066,36.30354,0.875669145,-0.3820791,-0.31115643
1764764681.126868,-3.1283,-42.59066,36.30354,0.875669145,-0.3820791,-0.31115643
1764764681.126868,-3.1283,-42.59066,36.30354,0.875669145,-0.3820791,-0.31115643
1764764681.126868,-3.1283,-42.59066,36.30354,0.875669145,-0.3820791,-0.31115643
1764764681.126868,-3.1283,-42.59066,36.30354,0.875669145,-0.3820791,-0.31115643
1764764681.126868,-3.1283,-42.59066,36.30354,0.875669145,-0.3820791,-0.31115643
1764764681.126868,-6.271859999999999,-41.59876,37.02076,0.878110545,-0.385802235,-0.317565105
1764764681.126868,-6.271859999999999,-41.59876,37.02076,0.878110545,-0.385802235,-0.317565105
1764764681.126868,-6.271859999999999,-41.59876,37.02076,0.878110545,-0.385802235,-0.317565105
1764764681.126868,-6.271859999999999,-41.59876,37.02076,0.878110545,-0.385802235,-0.317565105
1764764681.126868,-6.271859999999999,-41.59876,37.02076,0.878110545,-0.385802235,-0.317565105
1764764681.126868,-6.271859999999999,-41.59876,37.02076,0.878110545,-0.385802235,-0.317565105
1764764681.126868,-6.271859999999999,-41.59876,37.02076,0.878110545,-0.385802235,-0.317565105
1764764681.126868,-6.271859999999999,-41.59876,37.02076,0.878110545,-0.385802235,-0.317565105
1764764681.126868,-6.271859999999999,-41.59876,37.02076,0.878110545,-0.385802235,-0.317565105
1764764681.126868,-6.271859999999999,-41.59876,37.02076,0.878110545,-0.385802235,-0.317565105
1764764681.126868,-8.942359999999999,-39.17242,38.18052,0.879087105,-0.391173315,-0.323912745
1764764681.1279,-8.942359999999999,-39.17242,38.18052,0.879087105,-0.391173315,-0.323912745
1764764681.1279,-8.942359999999999,-39.17242,38.18052,0.879087105,-0.391173315,-0.323912745
1764764681.1279,-8.942359999999999,-39.17242,38.18052,0.879087105,-0.391173315,-0.323912745
1764764681.1741996,-8.942359999999999,-39.17242,38.18052,0.879087105,-0.391173315,-0.323912745
1764764681.1741996,-8.942359999999999,-39.17242,38.18052,0.879087105,-0.391173315,-0.323912745
1764764681.1741996,-8.942359999999999,-39.17242,38.18052,0.879087105,-0.391173315,-0.323912745
1764764681.1741996,-8.942359999999999,-39.17242,38.18052,0.879087105,-0.391173315,-0.323912745
1764764681.1741996,-8.942359999999999,-39.17242,38.18052,0.879087105,-0.391173315,-0.323912745
1764764681.1741996,-8.942359999999999,-39.17242,38.18052,0.879087105,-0.391173315,-0.323912745
1764764681.1741996,-10.39206,-36.53244,39.40132,0.87853779,-0.39868062,-0.329894175
1764764681.1741996,-10.39206,-36.53244,39.40132,0.87853779,-0.39868062,-0.329894175
1764764681.1741996,-10.39206,-36.53244,39.40132,0.87853779,-0.39868062,-0.329894175
1764764681.1752093,-10.39206,-36.53244,39.40132,0.87853779,-0.39868062,-0.329894175
1764764681.1752093,-10.39206,-36.53244,39.40132,0.87853779,-0.39868062,-0.329894175
1764764681.1752093,-10.39206,-36.53244,39.40132,0.87853779,-0.39868062,-0.329894175
1764764681.1752093,-10.39206,-36.53244,39.40132,0.87853779,-0.39868062,-0.329894175
1764764681.1752093,-10.39206,-36.53244,39.40132,0.87853779,-0.39868062,-0.329894175
1764764681.1752093,-10.39206,-36.53244,39.40132,0.87853779,-0.39868062,-0.329894175
1764764681.1752093,-10.39206,-36.53244,39.40132,0.87853779,-0.39868062,-0.329894175
1764764681.1752093,-11.46026,-34.99118,40.94258,0.87438741,-0.404967225,-0.337706655
1764764681.1752093,-11.46026,-34.99118,40.94258,0.87438741,-0.404967225,-0.337706655
1764764681.1752093,-11.46026,-34.99118,40.94258,0.87438741,-0.404967225,-0.337706655
1764764681.1752093,-11.46026,-34.99118,40.94258,0.87438741,-0.404967225,-0.337706655
1764764681.1752093,-11.46026,-34.99118,40.94258,0.87438741,-0.404967225,-0.337706655
1764764681.1752093,-11.46026,-34.99118,40.94258,0.87438741,-0.404967225,-0.337706655
1764764681.217021,-11.46026,-34.99118,40.94258,0.87438741,-0.404967225,-0.337706655
1764764681.217021,-11.46026,-34.99118,40.94258,0.87438741,-0.404967225,-0.337706655
1764764681.217021,-11.46026,-34.99118,40.94258,0.87438741,-0.404967225,-0.337706655
1764764681.2182465,-11.46026,-34.99118,40.94258,0.87438741,-0.404967225,-0.337706655
1764764681.2182465,-11.79598,-34.777539999999995,42.8043,0.868467015,-0.415709385,-0.343932225
1764764681.2182465,-11.79598,-34.777539999999995,42.8043,0.868467015,-0.415709385,-0.343932225
1764764681.2182465,-11.79598,-34.777539999999995,42.8043,0.868467015,-0.415709385,-0.343932225
1764764681.2182465,-11.79598,-34.777539999999995,42.8043,0.868467015,-0.415709385,-0.343932225
1764764681.2182465,-11.79598,-34.777539999999995,42.8043,0.868467015,-0.415709385,-0.343932225
1764764681.2182465,-11.79598,-34.777539999999995,42.8043,0.868467015,-0.415709385,-0.343932225
1764764681.2182465,-11.79598,-34.777539999999995,42.8043,0.868467015,-0.415709385,-0.343932225
1764764681.2182465,-11.79598,-34.777539999999995,42.8043,0.868467015,-0.415709385,-0.343932225
1764764681.2182465,-11.79598,-34.777539999999995,42.8043,0.868467015,-0.415709385,-0.343932225
1764764681.2182465,-11.79598,-34.777539999999995,42.8043,0.868467015,-0.415709385,-0.343932225
1764764681.2182465,-10.2242,-33.09894,42.97216,0.86706321,-0.427183965,-0.34802157
1764764681.2182465,-10.2242,-33.09894,42.97216,0.86706321,-0.427183965,-0.34802157
1764764681.2182465,-10.2242,-33.09894,42.97216,0.86706321,-0.427183965,-0.34802157
1764764681.2182465,-10.2242,-33.09894,42.97216,0.86706321,-0.427183965,-0.34802157
1764764681.2182465,-10.2242,-33.09894,42.97216,0.86706321,-0.427183965,-0.34802157
1764764681.2182465,-10.2242,-33.09894,42.97216,0.86706321,-0.427183965,-0.34802157
1764764681.2182465,-10.2242,-33.09894,42.97216,0.86706321,-0.427183965,-0.34802157
1764764681.2182465,-10.2242,-33.09894,42.97216,0.86706321,-0.427183965,-0.34802157
1764764681.2659287,-10.2242,-33.09894,42.97216,0.86706321,-0.427183965,-0.34802157
1764764681.2659287,-10.2242,-33.09894,42.97216,0.86706321,-0.427183965,-0.34802157
1764764681.2659287,-6.05822,-31.77132,40.91206,0.867734595,-0.44018442,-0.350157795
1764764681.2659287,-6.05822,-31.77132,40.91206,0.867734595,-0.44018442,-0.350157795
1764764681.2659287,-6.05822,-31.77132,40.91206,0.867734595,-0.44018442,-0.350157795
1764764681.2659287,-6.05822,-31.77132,40.91206,0.867734595,-0.44018442,-0.350157795
1764764681.2659287,-6.05822,-31.77132,40.91206,0.867734595,-0.44018442,-0.350157795
1764764681.2659287,-6.05822,-31.77132,40.91206,0.867734595,-0.44018442,-0.350157795
1764764681.2659287,-6.05822,-31.77132,40.91206,0.867734595,-0.44018442,-0.350157795
1764764681.2659287,-6.05822,-31.77132,40.91206,0.867734595,-0.44018442,-0.350157795
1764764681.2659287,-6.05822,-31.77132,40.91206,0.867734595,-0.44018442,-0.350157795
1764764681.2659287,-6.05822,-31.77132,40.91206,0.867734595,-0.44018442,-0.350157795
1764764681.2659287,-1.23606,-32.25964,39.35554,0.861631095,-0.45385626,-0.35229402
1764764681.2659287,-1.23606,-32.25964,39.35554,0.861631095,-0.45385626,-0.35229402
1764764681.2659287,-1.23606,-32.25964,39.35554,0.861631095,-0.45385626,-0.35229402
1764764681.2659287,-1.23606,-32.25964,39.35554,0.861631095,-0.45385626,-0.35229402
1764764681.2669432,-1.23606,-32.25964,39.35554,0.861631095,-0.45385626,-0.35229402
1764764681.2669432,-1.23606,-32.25964,39.35554,0.861631095,-0.45385626,-0.35229402
1764764681.2669432,-1.23606,-32.25964,39.35554,0.861631095,-0.45385626,-0.35229402
1764764681.2669432,-1.23606,-32.25964,39.35554,0.861631095,-0.45385626,-0.35229402
1764764681.2669432,-1.23606,-32.25964,39.35554,0.861631095,-0.45385626,-0.35229402
1764764681.2669432,-1.23606,-32.25964,39.35554,0.861631095,-0.45385626,-0.35229402
1764764681.2669432,2.3653,-34.075579999999995,36.73082,0.854917245,-0.46105839,-0.35742096
1764764681.2669432,2.3653,-34.075579999999995,36.73082,0.854917245,-0.46105839,-0.35742096
1764764681.313875,2.3653,-34.075579999999995,36.73082,0.854917245,-0.46105839,-0.35742096
1764764681.313875,2.3653,-34.075579999999995,36.73082,0.854917245,-0.46105839,-0.35742096
1764764681.313875,2.3653,-34.075579999999995,36.73082,0.854917245,-0.46105839,-0.35742096
1764764681.313875,2.3653,-34.075579999999995,36.73082,0.854917245,-0.46105839,-0.35742096
1764764681.313875,2.3653,-34.075579999999995,36.73082,0.854917245,-0.46105839,-0.35742096
1764764681.313875,2.3653,-34.075579999999995,36.73082,0.854917245,-0.46105839,-0.35742096
1764764681.313875,2.3653,-34.075579999999995,36.73082,0.854917245,-0.46105839,-0.35742096
1764764681.313875,2.3653,-34.075579999999995,36.73082,0.854917245,-0.46105839,-0.35742096
1764764681.313875,3.99812,-34.7165,31.02358,0.852719985,-0.460142865,-0.36291411
1764764681.313875,3.99812,-34.7165,31.02358,0.852719985,-0.460142865,-0.36291411
1764764681.313875,3.99812,-34.7165,31.02358,0.852719985,-0.460142865,-0.36291411
1764764681.313875,3.99812,-34.7165,31.02358,0.852719985,-0.460142865,-0.36291411
1764764681.313875,3.99812,-34.7165,31.02358,0.852719985,-0.460142865,-0.36291411
1764764681.313875,3.99812,-34.7165,31.02358,0.852719985,-0.460142865,-0.36291411
1764764681.313875,3.99812,-34.7165,31.02358,0.852719985,-0.460142865,-0.36291411
1764764681.313875,3.99812,-34.7165,31.02358,0.852719985,-0.460142865,-0.36291411
1764764681.313875,3.99812,-34.7165,31.02358,0.852719985,-0.460142865,-0.36291411
1764764681.313875,3.99812,-34.7165,31.02358,0.852719985,-0.460142865,-0.36291411
1764764681.313875,4.959499999999999,-33.20576,24.85854,0.852353775,-0.459776655,-0.367613805
1764764681.313875,4.959499999999999,-33.20576,24.85854,0.852353775,-0.459776655,-0.367613805
1764764681.313875,4.959499999999999,-33.20576,24.85854,0.852353775,-0.459776655,-0.367613805
1764764681.313875,4.959499999999999,-33.20576,24.85854,0.852353775,-0.459776655,-0.367613805
1764764681.3574722,4.959499999999999,-33.20576,24.85854,0.852353775,-0.459776655,-0.367613805
1764764681.3574722,4.959499999999999,-33.20576,24.85854,0.852353775,-0.459776655,-0.367613805
1764764681.3574722,4.959499999999999,-33.20576,24.85854,0.852353775,-0.459776655,-0.367613805
1764764681.3574722,4.959499999999999,-33.20576,24.85854,0.852353775,-0.459776655,-0.367613805
1764764681.3574722,4.959499999999999,-33.20576,24.85854,0.852353775,-0.459776655,-0.367613805
1764764681.3574722,4.959499999999999,-33.20576,24.85854,0.852353775,-0.459776655,-0.367613805
1764764681.3574722,5.02054,-31.1304,22.23382,0.85168239,-0.4614246,-0.372984885
1764764681.3574722,5.02054,-31.1304,22.23382,0.85168239,-0.4614246,-0.372984885
1764764681.3574722,5.02054,-31.1304,22.23382,0.85168239,-0.4614246,-0.372984885
1764764681.3574722,5.02054,-31.1304,22.23382,0.85168239,-0.4614246,-0.372984885
1764764681.3574722,5.02054,-31.1304,22.23382,0.85168239,-0.4614246,-0.372984885
1764764681.3574722,5.02054,-31.1304,22.23382,0.85168239,-0.4614246,-0.372984885
1764764681.3574722,5.02054,-31.1304,22.23382,0.85168239,-0.4614246,-0.372984885
1764764681.3574722,5.02054,-31.1304,22.23382,0.85168239,-0.4614246,-0.372984885
1764764681.3574722,5.02054,-31.1304,22.23382,0.85168239,-0.4614246,-0.372984885
1764764681.3588254,5.02054,-31.1304,22.23382,0.85168239,-0.4614246,-0.372984885
1764764681.3588254,4.53222,-27.13228,21.2114,0.85168239,-0.46301151,-0.37829493
1764764681.3588254,4.53222,-27.13228,21.2114,0.85168239,-0.46301151,-0.37829493
1764764681.3588254,4.53222,-27.13228,21.2114,0.85168239,-0.46301151,-0.37829493
1764764681.3588254,4.53222,-27.13228,21.2114,0.85168239,-0.46301151,-0.37829493
1764764681.3588254,4.53222,-27.13228,21.2114,0.85168239,-0.46301151,-0.37829493
1764764681.3588254,4.53222,-27.13228,21.2114,0.85168239,-0.46301151,-0.37829493
1764764681.3588254,4.53222,-27.13228,21.2114,0.85168239,-0.46301151,-0.37829493
1764764681.3588254,4.53222,-27.13228,21.2114,0.85168239,-0.46301151,-0.37829493
1764764681.4076145,4.53222,-27.13228,21.2114,0.85168239,-0.46301151,-0.37829493
1764764681.4076145,4.53222,-27.13228,21.2114,0.85168239,-0.46301151,-0.37829493
1764764681.4076145,4.01338,-22.5085,20.35684,0.85107204,-0.46411014,-0.38281152
1764764681.4076145,4.01338,-22.5085,20.35684,0.85107204,-0.46411014,-0.38281152
1764764681.4076145,4.01338,-22.5085,20.35684,0.85107204,-0.46411014,-0.38281152
1764764681.4076145,4.01338,-22.5085,20.35684,0.85107204,-0.46411014,-0.38281152
1764764681.4076145,4.01338,-22.5085,20.35684,0.85107204,-0.46411014,-0.38281152
1764764681.4076145,4.01338,-22.5085,20.35684,0.85107204,-0.46411014,-0.38281152
1764764681.4086246,4.01338,-22.5085,20.35684,0.85107204,-0.46411014,-0.38281152
1764764681.4086246,4.01338,-22.5085,20.35684,0.85107204,-0.46411014,-0.38281152
1764764681.4086246,4.01338,-22.5085,20.35684,0.85107204,-0.46411014,-0.38281152
1764764681.4086246,4.01338,-22.5085,20.35684,0.85107204,-0.46411014,-0.38281152
1764764681.4086246,3.41824,-19.075,19.27338,0.84521268,-0.466612575,-0.3881826
1764764681.4086246,3.41824,-19.075,19.27338,0.84521268,-0.466612575,-0.3881826
1764764681.4086246,3.41824,-19.075,19.27338,0.84521268,-0.466612575,-0.3881826
1764764681.4086246,3.41824,-19.075,19.27338,0.84521268,-0.466612575,-0.3881826
1764764681.4086246,3.41824,-19.075,19.27338,0.84521268,-0.466612575,-0.3881826
1764764681.4086246,3.41824,-19.075,19.27338,0.84521268,-0.466612575,-0.3881826
1764764681.4086246,3.41824,-19.075,19.27338,0.84521268,-0.466612575,-0.3881826
1764764681.4086246,3.41824,-19.075,19.27338,0.84521268,-0.466612575,-0.3881826
1764764681.4086246,3.41824,-19.075,19.27338,0.84521268,-0.466612575,-0.3881826
1764764681.4086246,3.41824,-19.075,19.27338,0.84521268,-0.466612575,-0.3881826
1764764681.4086246,2.45686,-17.38114,19.54806,0.835752255,-0.47082399,-0.39196677
1764764681.4086246,2.45686,-17.38114,19.54806,0.835752255,-0.47082399,-0.39196677
1764764681.4511385,2.45686,-17.38114,19.54806,0.835752255,-0.47082399,-0.39196677
1764764681.4511385,2.45686,-17.38114,19.54806,0.835752255,-0.47082399,-0.39196677
1764764681.4511385,2.45686,-17.38114,19.54806,0.835752255,-0.47082399,-0.39196677
1764764681.4511385,2.45686,-17.38114,19.54806,0.835752255,-0.47082399,-0.39196677
1764764681.4511385,2.45686,-17.38114,19.54806,0.835752255,-0.47082399,-0.39196677
1764764681.4511385,2.45686,-17.38114,19.54806,0.835752255,-0.47082399,-0.39196677
1764764681.4511385,2.45686,-17.38114,19.54806,0.835752255,-0.47082399,-0.39196677
1764764681.4511385,2.45686,-17.38114,19.54806,0.835752255,-0.47082399,-0.39196677
1764764681.4511385,3.21986,-15.04636,19.18182,0.8309915250000001,-0.47814819,-0.395811975
1764764681.4511385,3.21986,-15.04636,19.18182,0.8309915250000001,-0.47814819,-0.395811975
1764764681.4511385,3.21986,-15.04636,19.18182,0.8309915250000001,-0.47814819,-0.395811975
1764764681.4511385,3.21986,-15.04636,19.18182,0.8309915250000001,-0.47814819,-0.395811975
1764764681.452145,3.21986,-15.04636,19.18182,0.8309915250000001,-0.47814819,-0.395811975
1764764681.452145,3.21986,-15.04636,19.18182,0.8309915250000001,-0.47814819,-0.395811975
1764764681.452145,3.21986,-15.04636,19.18182,0.8309915250000001,-0.47814819,-0.395811975
1764764681.452145,3.21986,-15.04636,19.18182,0.8309915250000001,-0.47814819,-0.395811975
1764764681.452145,3.21986,-15.04636,19.18182,0.8309915250000001,-0.47814819,-0.395811975
1764764681.452145,3.21986,-15.04636,19.18182,0.8309915250000001,-0.47814819,-0.395811975
1764764681.452145,5.1121,-10.17842,17.762639999999998,0.830381175,-0.485777565,-0.398741655
1764764681.452145,5.1121,-10.17842,17.762639999999998,0.830381175,-0.485777565,-0.398741655
1764764681.452145,5.1121,-10.17842,17.762639999999998,0.830381175,-0.485777565,-0.398741655
1764764681.452145,5.1121,-10.17842,17.762639999999998,0.830381175,-0.485777565,-0.398741655
1764764681.4944277,5.1121,-10.17842,17.762639999999998,0.830381175,-0.485777565,-0.398741655
1764764681.4944277,5.1121,-10.17842,17.762639999999998,0.830381175,-0.485777565,-0.398741655
1764764681.495444,5.1121,-10.17842,17.762639999999998,0.830381175,-0.485777565,-0.398741655
1764764681.495444,5.1121,-10.17842,17.762639999999998,0.830381175,-0.485777565,-0.398741655
1764764681.495444,5.1121,-10.17842,17.762639999999998,0.830381175,-0.485777565,-0.398741655
1764764681.495444,5.1121,-10.17842,17.762639999999998,0.830381175,-0.485777565,-0.398741655
1764764681.495444,7.752079999999999,-5.96666,13.56614,0.827451495,-0.491636925,-0.403014105
1764764681.495444,7.752079999999999,-5.96666,13.56614,0.827451495,-0.491636925,-0.403014105
1764764681.495444,7.752079999999999,-5.96666,13.56614,0.827451495,-0.491636925,-0.403014105
1764764681.495444,7.752079999999999,-5.96666,13.56614,0.827451495,-0.491636925,-0.403014105
1764764681.495444,7.752079999999999,-5.96666,13.56614,0.827451495,-0.491636925,-0.403014105
1764764681.495444,7.752079999999999,-5.96666,13.56614,0.827451495,-0.491636925,-0.403014105
1764764681.495444,7.752079999999999,-5.96666,13.56614,0.827451495,-0.491636925,-0.403014105
1764764681.495444,7.752079999999999,-5.96666,13.56614,0.827451495,-0.491636925,-0.403014105
1764764681.495444,7.752079999999999,-5.96666,13.56614,0.827451495,-0.491636925,-0.403014105
1764764681.4964454,7.752079999999999,-5.96666,13.56614,0.827451495,-0.491636925,-0.403014105
1764764681.4964454,10.23946,-2.5942,8.19462,0.82446078,-0.496153515,-0.40673724
1764764681.4964454,10.23946,-2.5942,8.19462,0.82446078,-0.496153515,-0.40673724
1764764681.4964454,10.23946,-2.5942,8.19462,0.82446078,-0.496153515,-0.40673724
1764764681.4964454,10.23946,-2.5942,8.19462,0.82446078,-0.496153515,-0.40673724
1764764681.4964454,10.23946,-2.5942,8.19462,0.82446078,-0.496153515,-0.40673724
1764764681.4964454,10.23946,-2.5942,8.19462,0.82446078,-0.496153515,-0.40673724
1764764681.4964454,10.23946,-2.5942,8.19462,0.82446078,-0.496153515,-0.40673724
1764764681.4964454,10.23946,-2.5942,8.19462,0.82446078,-0.496153515,-0.40673724
1764764681.5428314,10.23946,-2.5942,8.19462,0.82446078,-0.496153515,-0.40673724
1764764681.5433462,10.23946,-2.5942,8.19462,0.82446078,-0.496153515,-0.40673724
1764764681.5433462,12.86418,-0.24416,5.8751,0.81811314,-0.50390496,-0.410094165
1764764681.5433462,12.86418,-0.24416,5.8751,0.81811314,-0.50390496,-0.410094165
1764764681.5433462,12.86418,-0.24416,5.8751,0.81811314,-0.50390496,-0.410094165
1764764681.5433462,12.86418,-0.24416,5.8751,0.81811314,-0.50390496,-0.410094165
1764764681.5433462,12.86418,-0.24416,5.8751,0.81811314,-0.50390496,-0.410094165
1764764681.5433462,12.86418,-0.24416,5.8751,0.81811314,-0.50390496,-0.410094165
1764764681.5433462,12.86418,-0.24416,5.8751,0.81811314,-0.50390496,-0.410094165
1764764681.5433462,12.86418,-0.24416,5.8751,0.81811314,-0.50390496,-0.410094165
1764764681.5433462,12.86418,-0.24416,5.8751,0.81811314,-0.50390496,-0.410094165
1764764681.5433462,12.86418,-0.24416,5.8751,0.81811314,-0.50390496,-0.410094165
1764764681.5433462,14.58856,2.289,7.79786,0.810483765,-0.50988639,-0.4125966
1764764681.5433462,14.58856,2.289,7.79786,0.810483765,-0.50988639,-0.4125966
1764764681.5433462,14.58856,2.289,7.79786,0.810483765,-0.50988639,-0.4125966
1764764681.5433462,14.58856,2.289,7.79786,0.810483765,-0.50988639,-0.4125966
1764764681.5433462,14.58856,2.289,7.79786,0.810483765,-0.50988639,-0.4125966
1764764681.5433462,14.58856,2.289,7.79786,0.810483765,-0.50988639,-0.4125966
1764764681.5433462,14.58856,2.289,7.79786,0.810483765,-0.50988639,-0.4125966
1764764681.5433462,14.58856,2.289,7.79786,0.810483765,-0.50988639,-0.4125966
1764764681.5433462,14.58856,2.289,7.79786,0.810483765,-0.50988639,-0.4125966
1764764681.5433462,14.58856,2.289,7.79786,0.810483765,-0.50988639,-0.4125966
1764764681.5433462,13.94764,2.48738,10.97194,0.799741605,-0.51061881,-0.41308488
1764764681.5433462,13.94764,2.48738,10.97194,0.799741605,-0.51061881,-0.41308488
1764764681.5899663,13.94764,2.48738,10.97194,0.799741605,-0.51061881,-0.41308488
1764764681.5899663,13.94764,2.48738,10.97194,0.799741605,-0.51061881,-0.41308488
1764764681.5899663,13.94764,2.48738,10.97194,0.799741605,-0.51061881,-0.41308488
1764764681.5899663,13.94764,2.48738,10.97194,0.799741605,-0.51061881,-0.41308488
1764764681.5899663,13.94764,2.48738,10.97194,0.799741605,-0.51061881,-0.41308488
1764764681.5899663,13.94764,2.48738,10.97194,0.799741605,-0.51061881,-0.41308488
1764764681.5899663,13.94764,2.48738,10.97194,0.799741605,-0.51061881,-0.41308488
1764764681.5899663,13.94764,2.48738,10.97194,0.799741605,-0.51061881,-0.41308488
1764764681.5899663,12.40638,0.9919,13.21516,0.78869427,-0.507994305,-0.41149797
1764764681.5899663,12.40638,0.9919,13.21516,0.78869427,-0.507994305,-0.41149797
1764764681.5899663,12.40638,0.9919,13.21516,0.78869427,-0.507994305,-0.41149797
1764764681.5899663,12.40638,0.9919,13.21516,0.78869427,-0.507994305,-0.41149797
1764764681.5899663,12.40638,0.9919,13.21516,0.78869427,-0.507994305,-0.41149797
1764764681.5899663,12.40638,0.9919,13.21516,0.78869427,-0.507994305,-0.41149797
1764764681.5899663,12.40638,0.9919,13.21516,0.78869427,-0.507994305,-0.41149797
1764764681.5899663,12.40638,0.9919,13.21516,0.78869427,-0.507994305,-0.41149797
1764764681.5899663,12.40638,0.9919,13.21516,0.78869427,-0.507994305,-0.41149797
1764764681.5899663,12.40638,0.9919,13.21516,0.78869427,-0.507994305,-0.41149797
1764764681.5899663,9.33912,-1.7549,15.519419999999998,0.780088335,-0.50549187,-0.40930071
1764764681.5899663,9.33912,-1.7549,15.519419999999998,0.780088335,-0.50549187,-0.40930071
1764764681.5899663,9.33912,-1.7549,15.519419999999998,0.780088335,-0.50549187,-0.40930071
1764764681.5899663,9.33912,-1.7549,15.519419999999998,0.780088335,-0.50549187,-0.40930071
1764764681.6358209,9.33912,-1.7549,15.519419999999998,0.780088335,-0.50549187,-0.40930071
1764764681.6358209,9.33912,-1.7549,15.519419999999998,0.780088335,-0.50549187,-0.40930071
1764764681.637195,9.33912,-1.7549,15.519419999999998,0.780088335,-0.50549187,-0.40930071
1764764681.637195,9.33912,-1.7549,15.519419999999998,0.780088335,-0.50549187,-0.40930071
1764764681.637195,9.33912,-1.7549,15.519419999999998,0.780088335,-0.50549187,-0.40930071
1764764681.637195,9.33912,-1.7549,15.519419999999998,0.780088335,-0.50549187,-0.40930071
1764764681.637195,5.67672,-4.07442,16.28242,0.7733744850000001,-0.5041491,-0.40600482
1764764681.637195,5.67672,-4.07442,16.28242,0.7733744850000001,-0.5041491,-0.40600482
1764764681.637195,5.67672,-4.07442,16.28242,0.7733744850000001,-0.5041491,-0.40600482
1764764681.637195,5.67672,-4.07442,16.28242,0.7733744850000001,-0.5041491,-0.40600482
1764764681.637195,5.67672,-4.07442,16.28242,0.7733744850000001,-0.5041491,-0.40600482
1764764681.637195,5.67672,-4.07442,16.28242,0.7733744850000001,-0.5041491,-0.40600482
1764764681.637195,5.67672,-4.07442,16.28242,0.7733744850000001,-0.5041491,-0.40600482
1764764681.637195,5.67672,-4.07442,16.28242,0.7733744850000001,-0.5041491,-0.40600482
1764764681.637195,5.67672,-4.07442,16.28242,0.7733744850000001,-0.5041491,-0.40600482
1764764681.637195,5.67672,-4.07442,16.28242,0.7733744850000001,-0.5041491,-0.40600482
1764764681.637195,2.02958,-7.065379999999999,16.66392,0.7712382600000001,-0.50366082,-0.40344135
1764764681.637195,2.02958,-7.065379999999999,16.66392,0.7712382600000001,-0.50366082,-0.40344135
1764764681.637195,2.02958,-7.065379999999999,16.66392,0.7712382600000001,-0.50366082,-0.40344135
1764764681.637195,2.02958,-7.065379999999999,16.66392,0.7712382600000001,-0.50366082,-0.40344135
1764764681.637195,2.02958,-7.065379999999999,16.66392,0.7712382600000001,-0.50366082,-0.40344135
1764764681.637195,2.02958,-7.065379999999999,16.66392,0.7712382600000001,-0.50366082,-0.40344135
1764764681.683668,2.02958,-7.065379999999999,16.66392,0.7712382600000001,-0.50366082,-0.40344135
1764764681.683668,2.02958,-7.065379999999999,16.66392,0.7712382600000001,-0.50366082,-0.40344135
1764764681.683668,2.02958,-7.065379999999999,16.66392,0.7712382600000001,-0.50366082,-0.40344135
1764764681.683668,2.02958,-7.065379999999999,16.66392,0.7712382600000001,-0.50366082,-0.40344135
1764764681.683668,0.57988,-9.32386,17.07594,0.772642065,-0.507750165,-0.400694775
1764764681.683668,0.57988,-9.32386,17.07594,0.772642065,-0.507750165,-0.400694775
1764764681.683668,0.57988,-9.32386,17.07594,0.772642065,-0.507750165,-0.400694775
1764764681.683668,0.57988,-9.32386,17.07594,0.772642065,-0.507750165,-0.400694775
1764764681.683668,0.57988,-9.32386,17.07594,0.772642065,-0.507750165,-0.400694775
1764764681.683668,0.57988,-9.32386,17.07594,0.772642065,-0.507750165,-0.400694775
1764764681.683668,0.57988,-9.32386,17.07594,0.772642065,-0.507750165,-0.400694775
1764764681.683668,0.57988,-9.32386,17.07594,0.772642065,-0.507750165,-0.400694775
1764764681.683668,0.57988,-9.32386,17.07594,0.772642065,-0.507750165,-0.400694775
1764764681.683668,0.57988,-9.32386,17.07594,0.772642065,-0.507750165,-0.400694775
1764764681.683668,0.85456,-9.3086,19.24286,0.775205535,-0.512022615,-0.400328565
1764764681.683668,0.85456,-9.3086,19.24286,0.775205535,-0.512022615,-0.400328565
1764764681.683668,0.85456,-9.3086,19.24286,0.775205535,-0.512022615,-0.400328565
1764764681.683668,0.85456,-9.3086,19.24286,0.775205535,-0.512022615,-0.400328565
1764764681.683668,0.85456,-9.3086,19.24286,0.775205535,-0.512022615,-0.400328565
1764764681.683668,0.85456,-9.3086,19.24286,0.775205535,-0.512022615,-0.400328565
1764764681.683668,0.85456,-9.3086,19.24286,0.775205535,-0.512022615,-0.400328565
1764764681.683668,0.85456,-9.3086,19.24286,0.775205535,-0.512022615,-0.400328565
1764764681.683668,0.85456,-9.3086,19.24286,0.775205535,-0.512022615,-0.400328565
1764764681.683668,0.85456,-9.3086,19.24286,0.775205535,-0.512022615,-0.400328565
1764764681.683668,-0.74774,-10.95668,19.89904,0.775327605,-0.51293814,-0.403502385
1764764681.683668,-0.74774,-10.95668,19.89904,0.775327605,-0.51293814,-0.403502385
1764764681.726833,-0.74774,-10.95668,19.89904,0.775327605,-0.51293814,-0.403502385
1764764681.726833,-0.74774,-10.95668,19.89904,0.775327605,-0.51293814,-0.403502385
1764764681.727345,-0.74774,-10.95668,19.89904,0.775327605,-0.51293814,-0.403502385
1764764681.727345,-0.74774,-10.95668,19.89904,0.775327605,-0.51293814,-0.403502385
1764764681.727345,-0.74774,-10.95668,19.89904,0.775327605,-0.51293814,-0.403502385
1764764681.727345,-0.74774,-10.95668,19.89904,0.775327605,-0.51293814,-0.403502385
1764764681.727345,-0.74774,-10.95668,19.89904,0.775327605,-0.51293814,-0.403502385
1764764681.727345,-0.74774,-10.95668,19.89904,0.775327605,-0.51293814,-0.403502385
1764764681.727345,-1.46496,-12.52846,21.25718,0.77746383,-0.515318505,-0.40612689
1764764681.727345,-1.46496,-12.52846,21.25718,0.77746383,-0.515318505,-0.40612689
1764764681.727345,-1.46496,-12.52846,21.25718,0.77746383,-0.515318505,-0.40612689
1764764681.727345,-1.46496,-12.52846,21.25718,0.77746383,-0.515318505,-0.40612689
1764764681.727345,-1.46496,-12.52846,21.25718,0.77746383,-0.515318505,-0.40612689
1764764681.727345,-1.46496,-12.52846,21.25718,0.77746383,-0.515318505,-0.40612689
1764764681.727345,-1.46496,-12.52846,21.25718,0.77746383,-0.515318505,-0.40612689
1764764681.727345,-1.46496,-12.52846,21.25718,0.77746383,-0.515318505,-0.40612689
1764764681.727345,-1.46496,-12.52846,21.25718,0.77746383,-0.515318505,-0.40612689
1764764681.727345,-1.46496,-12.52846,21.25718,0.77746383,-0.515318505,-0.40612689
1764764681.7283523,-2.3653,-10.92616,22.99682,0.782651805,-0.519346815,-0.407652765
1764764681.7283523,-2.3653,-10.92616,22.99682,0.782651805,-0.519346815,-0.407652765
1764764681.7746072,-2.3653,-10.92616,22.99682,0.782651805,-0.519346815,-0.407652765
1764764681.7746072,-2.3653,-10.92616,22.99682,0.782651805,-0.519346815,-0.407652765
1764764681.7746072,-2.3653,-10.92616,22.99682,0.782651805,-0.519346815,-0.407652765
1764764681.7746072,-2.3653,-10.92616,22.99682,0.782651805,-0.519346815,-0.407652765
1764764681.7746072,-2.3653,-10.92616,22.99682,0.782651805,-0.519346815,-0.407652765
1764764681.7746072,-2.3653,-10.92616,22.99682,0.782651805,-0.519346815,-0.407652765
1764764681.7746072,-2.3653,-10.92616,22.99682,0.782651805,-0.519346815,-0.407652765
1764764681.7746072,-2.3653,-10.92616,22.99682,0.782651805,-0.519346815,-0.407652765
1764764681.7746072,-3.60136,-6.790699999999999,22.29486,0.7927225800000001,-0.519346815,-0.40722552
1764764681.7746072,-3.60136,-6.790699999999999,22.29486,0.7927225800000001,-0.519346815,-0.40722552
1764764681.7746072,-3.60136,-6.790699999999999,22.29486,0.7927225800000001,-0.519346815,-0.40722552
1764764681.7750971,-3.60136,-6.790699999999999,22.29486,0.7927225800000001,-0.519346815,-0.40722552
1764764681.7750971,-3.60136,-6.790699999999999,22.29486,0.7927225800000001,-0.519346815,-0.40722552
1764764681.7750971,-3.60136,-6.790699999999999,22.29486,0.7927225800000001,-0.519346815,-0.40722552
1764764681.7750971,-3.60136,-6.790699999999999,22.29486,0.7927225800000001,-0.519346815,-0.40722552
1764764681.7750971,-3.60136,-6.790699999999999,22.29486,0.7927225800000001,-0.519346815,-0.40722552
1764764681.7750971,-3.60136,-6.790699999999999,22.29486,0.7927225800000001,-0.519346815,-0.40722552
1764764681.7750971,-3.60136,-6.790699999999999,22.29486,0.7927225800000001,-0.519346815,-0.40722552
1764764681.7750971,-5.478339999999999,-3.08252,18.20518,0.798398835,-0.51928578,-0.40795794
1764764681.7750971,-5.478339999999999,-3.08252,18.20518,0.798398835,-0.51928578,-0.40795794
1764764681.7750971,-5.478339999999999,-3.08252,18.20518,0.798398835,-0.51928578,-0.40795794
1764764681.7750971,-5.478339999999999,-3.08252,18.20518,0.798398835,-0.51928578,-0.40795794
1764764681.7750971,-5.478339999999999,-3.08252,18.20518,0.798398835,-0.51928578,-0.40795794
1764764681.7750971,-5.478339999999999,-3.08252,18.20518,0.798398835,-0.51928578,-0.40795794
1764764681.8208978,-5.478339999999999,-3.08252,18.20518,0.798398835,-0.51928578,-0.40795794
1764764681.8208978,-5.478339999999999,-3.08252,18.20518,0.798398835,-0.51928578,-0.40795794
1764764681.8208978,-5.478339999999999,-3.08252,18.20518,0.798398835,-0.51928578,-0.40795794
1764764681.8208978,-5.478339999999999,-3.08252,18.20518,0.798398835,-0.51928578,-0.40795794
1764764681.8208978,-5.43256,-0.88508,16.435019999999998,0.79504191,-0.5228258100000001,-0.4077138
1764764681.8208978,-5.43256,-0.88508,16.435019999999998,0.79504191,-0.5228258100000001,-0.4077138
1764764681.8208978,-5.43256,-0.88508,16.435019999999998,0.79504191,-0.5228258100000001,-0.4077138
1764764681.8208978,-5.43256,-0.88508,16.435019999999998,0.79504191,-0.5228258100000001,-0.4077138
1764764681.8208978,-5.43256,-0.88508,16.435019999999998,0.79504191,-0.5228258100000001,-0.4077138
1764764681.8208978,-5.43256,-0.88508,16.435019999999998,0.79504191,-0.5228258100000001,-0.4077138
1764764681.8208978,-5.43256,-0.88508,16.435019999999998,0.79504191,-0.5228258100000001,-0.4077138
1764764681.8208978,-5.43256,-0.88508,16.435019999999998,0.79504191,-0.5228258100000001,-0.4077138
1764764681.8208978,-5.43256,-0.88508,16.435019999999998,0.79504191,-0.5228258100000001,-0.4077138
1764764681.8208978,-5.43256,-0.88508,16.435019999999998,0.79504191,-0.5228258100000001,-0.4077138
1764764681.8208978,-5.82932,-0.01526,16.19086,0.788267025,-0.527891715,-0.408018975
1764764681.8208978,-5.82932,-0.01526,16.19086,0.788267025,-0.527891715,-0.408018975
1764764681.8208978,-5.82932,-0.01526,16.19086,0.788267025,-0.527891715,-0.408018975
1764764681.8208978,-5.82932,-0.01526,16.19086,0.788267025,-0.527891715,-0.408018975
1764764681.8208978,-5.82932,-0.01526,16.19086,0.788267025,-0.527891715,-0.408018975
1764764681.8208978,-5.82932,-0.01526,16.19086,0.788267025,-0.527891715,-0.408018975
1764764681.8208978,-5.82932,-0.01526,16.19086,0.788267025,-0.527891715,-0.408018975
1764764681.8223493,-5.82932,-0.01526,16.19086,0.788267025,-0.527891715,-0.408018975
1764764681.8223493,-5.82932,-0.01526,16.19086,0.788267025,-0.527891715,-0.408018975
1764764681.8223493,-5.82932,-0.01526,16.19086,0.788267025,-0.527891715,-0.408018975
1764764681.8687067,-6.1803,0.65618,15.54994,0.78515424,-0.530211045,-0.40746966
1764764681.8687067,-6.1803,0.65618,15.54994,0.78515424,-0.530211045,-0.40746966
1764764681.8687067,-6.1803,0.65618,15.54994,0.78515424,-0.530211045,-0.40746966
1764764681.8687067,-6.1803,0.65618,15.54994,0.78515424,-0.530211045,-0.40746966
1764764681.8687067,-6.1803,0.65618,15.54994,0.78515424,-0.530211045,-0.40746966
1764764681.8687067,-6.1803,0.65618,15.54994,0.78515424,-0.530211045,-0.40746966
1764764681.8687067,-6.1803,0.65618,15.54994,0.78515424,-0.530211045,-0.40746966
1764764681.8687067,-6.1803,0.65618,15.54994,0.78515424,-0.530211045,-0.40746966
1764764681.8687067,-6.1803,0.65618,15.54994,0.78515424,-0.530211045,-0.40746966
1764764681.8687067,-6.1803,0.65618,15.54994,0.78515424,-0.530211045,-0.40746966
1764764681.8687067,-6.45498,2.04484,11.70442,0.78722943,-0.53039415,-0.40588275
1764764681.8687067,-6.45498,2.04484,11.70442,0.78722943,-0.53039415,-0.40588275
1764764681.8687067,-6.45498,2.04484,11.70442,0.78722943,-0.53039415,-0.40588275
1764764681.8687067,-6.45498,2.04484,11.70442,0.78722943,-0.53039415,-0.40588275
1764764681.8687067,-6.45498,2.04484,11.70442,0.78722943,-0.53039415,-0.40588275
1764764681.8687067,-6.45498,2.04484,11.70442,0.78722943,-0.53039415,-0.40588275
1764764681.8687067,-6.45498,2.04484,11.70442,0.78722943,-0.53039415,-0.40588275
1764764681.8687067,-6.45498,2.04484,11.70442,0.78722943,-0.53039415,-0.40588275
1764764681.8687067,-6.45498,2.04484,11.70442,0.78722943,-0.53039415,-0.40588275
1764764681.8697128,-6.45498,2.04484,11.70442,0.78722943,-0.53039415,-0.40588275
1764764681.8697128,-5.85984,3.02148,6.77544,0.7873515,-0.532530375,-0.40515033
1764764681.8697128,-5.85984,3.02148,6.77544,0.7873515,-0.532530375,-0.40515033
1764764681.8697128,-5.85984,3.02148,6.77544,0.7873515,-0.532530375,-0.40515033
1764764681.8697128,-5.85984,3.02148,6.77544,0.7873515,-0.532530375,-0.40515033
1764764681.9123352,-5.85984,3.02148,6.77544,0.7873515,-0.532530375,-0.40515033
1764764681.9123352,-5.85984,3.02148,6.77544,0.7873515,-0.532530375,-0.40515033
1764764681.9123352,-5.85984,3.02148,6.77544,0.7873515,-0.532530375,-0.40515033
1764764681.9123352,-5.85984,3.02148,6.77544,0.7873515,-0.532530375,-0.40515033
1764764681.9123352,-5.85984,3.02148,6.77544,0.7873515,-0.532530375,-0.40515033
1764764681.9123352,-5.85984,3.02148,6.77544,0.7873515,-0.532530375,-0.40515033
1764764681.9123352,-4.01338,3.3572,2.70102,0.786069765,-0.539366295,-0.405455505
1764764681.9123352,-4.01338,3.3572,2.70102,0.786069765,-0.539366295,-0.405455505
1764764681.9123352,-4.01338,3.3572,2.70102,0.786069765,-0.539366295,-0.405455505
1764764681.9123352,-4.01338,3.3572,2.70102,0.786069765,-0.539366295,-0.405455505
1764764681.9123352,-4.01338,3.3572,2.70102,0.786069765,-0.539366295,-0.405455505
1764764681.9123352,-4.01338,3.3572,2.70102,0.786069765,-0.539366295,-0.405455505
1764764681.9123352,-4.01338,3.3572,2.70102,0.786069765,-0.539366295,-0.405455505
1764764681.9123352,-4.01338,3.3572,2.70102,0.786069765,-0.539366295,-0.405455505
1764764681.9123352,-4.01338,3.3572,2.70102,0.786069765,-0.539366295,-0.405455505
1764764681.9123352,-4.01338,3.3572,2.70102,0.786069765,-0.539366295,-0.405455505
1764764681.9123352,-1.87698,3.93708,-1.05294,0.78429975,-0.544859445,-0.40551654
1764764681.9123352,-1.87698,3.93708,-1.05294,0.78429975,-0.544859445,-0.40551654
1764764681.9123352,-1.87698,3.93708,-1.05294,0.78429975,-0.544859445,-0.40551654
1764764681.9123352,-1.87698,3.93708,-1.05294,0.78429975,-0.544859445,-0.40551654
1764764681.9621143,-1.87698,3.93708,-1.05294,0.78429975,-0.544859445,-0.40551654
1764764681.9621143,-1.87698,3.93708,-1.05294,0.78429975,-0.544859445,-0.40551654
1764764681.9621143,-1.87698,3.93708,-1.05294,0.78429975,-0.544859445,-0.40551654
1764764681.9621143,-1.87698,3.93708,-1.05294,0.78429975,-0.544859445,-0.40551654
1764764681.9631202,-1.87698,3.93708,-1.05294,0.78429975,-0.544859445,-0.40551654
1764764681.9631202,-1.87698,3.93708,-1.05294,0.78429975,-0.544859445,-0.40551654
1764764681.9631202,-1.48022,4.36436,-4.715339999999999,0.782407665,-0.54553083,-0.40661517
1764764681.9631202,-1.48022,4.36436,-4.715339999999999,0.782407665,-0.54553083,-0.40661517
1764764681.9631202,-1.48022,4.36436,-4.715339999999999,0.782407665,-0.54553083,-0.40661517
1764764681.9631202,-1.48022,4.36436,-4.715339999999999,0.782407665,-0.54553083,-0.40661517
1764764681.9631202,-1.48022,4.36436,-4.715339999999999,0.782407665,-0.54553083,-0.40661517
1764764681.9631202,-1.48022,4.36436,-4.715339999999999,0.782407665,-0.54553083,-0.40661517
1764764681.9631202,-1.48022,4.36436,-4.715339999999999,0.782407665,-0.54553083,-0.40661517
1764764681.9631202,-1.48022,4.36436,-4.715339999999999,0.782407665,-0.54553083,-0.40661517
1764764681.9631202,-1.48022,4.36436,-4.715339999999999,0.782407665,-0.54553083,-0.40661517
1764764681.9631202,-1.48022,4.36436,-4.715339999999999,0.782407665,-0.54553083,-0.40661517
1764764681.9631202,-2.24322,4.41014,-7.49266,0.780820755,-0.544737375,-0.406309995
1764764681.9631202,-2.24322,4.41014,-7.49266,0.780820755,-0.544737375,-0.406309995
1764764681.9631202,-2.24322,4.41014,-7.49266,0.780820755,-0.544737375,-0.406309995
1764764681.9631202,-2.24322,4.41014,-7.49266,0.780820755,-0.544737375,-0.406309995
1764764681.9631202,-2.24322,4.41014,-7.49266,0.780820755,-0.544737375,-0.406309995
1764764681.9631202,-2.24322,4.41014,-7.49266,0.780820755,-0.544737375,-0.406309995
1764764681.9631202,-2.24322,4.41014,-7.49266,0.780820755,-0.544737375,-0.406309995
1764764681.9631202,-2.24322,4.41014,-7.49266,0.780820755,-0.544737375,-0.406309995
1764764681.9631202,-2.24322,4.41014,-7.49266,0.780820755,-0.544737375,-0.406309995
1764764681.9631202,-2.24322,4.41014,-7.49266,0.780820755,-0.544737375,-0.406309995
1764764682.0064542,-4.47118,4.959499999999999,-8.95762,0.77721969,-0.53991561,-0.40576068
1764764682.0064542,-4.47118,4.959499999999999,-8.95762,0.77721969,-0.53991561,-0.40576068
1764764682.0064542,-4.47118,4.959499999999999,-8.95762,0.77721969,-0.53991561,-0.40576068
1764764682.0064542,-4.47118,4.959499999999999,-8.95762,0.77721969,-0.53991561,-0.40576068
1764764682.0064542,-4.47118,4.959499999999999,-8.95762,0.77721969,-0.53991561,-0.40576068
1764764682.0064542,-4.47118,4.959499999999999,-8.95762,0.77721969,-0.53991561,-0.40576068
1764764682.0064542,-4.47118,4.959499999999999,-8.95762,0.77721969,-0.53991561,-0.40576068
1764764682.0074625,-4.47118,4.959499999999999,-8.95762,0.77721969,-0.53991561,-0.40576068
1764764682.0074625,-4.47118,4.959499999999999,-8.95762,0.77721969,-0.53991561,-0.40576068
1764764682.0074625,-4.47118,4.959499999999999,-8.95762,0.77721969,-0.53991561,-0.40576068
1764764682.0074625,-8.34722,5.27996,-9.43068,0.773740695,-0.53417832,-0.404967225
1764764682.0074625,-8.34722,5.27996,-9.43068,0.773740695,-0.53417832,-0.404967225
1764764682.0074625,-8.34722,5.27996,-9.43068,0.773740695,-0.53417832,-0.404967225
1764764682.0079296,-8.34722,5.27996,-9.43068,0.773740695,-0.53417832,-0.404967225
1764764682.0079296,-8.34722,5.27996,-9.43068,0.773740695,-0.53417832,-0.404967225
1764764682.0079296,-8.34722,5.27996,-9.43068,0.773740695,-0.53417832,-0.404967225
1764764682.0079296,-8.34722,5.27996,-9.43068,0.773740695,-0.53417832,-0.404967225
1764764682.0079296,-8.34722,5.27996,-9.43068,0.773740695,-0.53417832,-0.404967225
1764764682.0079296,-8.34722,5.27996,-9.43068,0.773740695,-0.53417832,-0.404967225
1764764682.0084622,-8.34722,5.27996,-9.43068,0.773740695,-0.53417832,-0.404967225
1764764682.0084622,-12.23852,4.89846,-10.25472,0.77050584,-0.52905138,-0.40441791
1764764682.0084622,-12.23852,4.89846,-10.25472,0.77050584,-0.52905138,-0.40441791
1764764682.0549486,-12.23852,4.89846,-10.25472,0.77050584,-0.52905138,-0.40441791
1764764682.0549486,-12.23852,4.89846,-10.25472,0.77050584,-0.52905138,-0.40441791
1764764682.0549486,-12.23852,4.89846,-10.25472,0.77050584,-0.52905138,-0.40441791
1764764682.0549486,-12.23852,4.89846,-10.25472,0.77050584,-0.52905138,-0.40441791
1764764682.0549486,-12.23852,4.89846,-10.25472,0.77050584,-0.52905138,-0.40441791
1764764682.0549486,-12.23852,4.89846,-10.25472,0.77050584,-0.52905138,-0.40441791
1764764682.0549486,-12.23852,4.89846,-10.25472,0.77050584,-0.52905138,-0.40441791
1764764682.0559516,-12.23852,4.89846,-10.25472,0.77050584,-0.52905138,-0.40441791
1764764682.0559516,-15.1837,4.1965,-10.92616,0.768735825,-0.528135855,-0.403990665
1764764682.0559516,-15.1837,4.1965,-10.92616,0.768735825,-0.528135855,-0.403990665
1764764682.0559516,-15.1837,4.1965,-10.92616,0.768735825,-0.528135855,-0.403990665
1764764682.0559516,-15.1837,4.1965,-10.92616,0.768735825,-0.528135855,-0.403990665
1764764682.0559516,-15.1837,4.1965,-10.92616,0.768735825,-0.528135855,-0.403990665
1764764682.0559516,-15.1837,4.1965,-10.92616,0.768735825,-0.528135855,-0.403990665
1764764682.0559516,-15.1837,4.1965,-10.92616,0.768735825,-0.528135855,-0.403990665
1764764682.0559516,-15.1837,4.1965,-10.92616,0.768735825,-0.528135855,-0.403990665
1764764682.0559516,-15.1837,4.1965,-10.92616,0.768735825,-0.528135855,-0.403990665
1764764682.0559516,-15.1837,4.1965,-10.92616,0.768735825,-0.528135855,-0.403990665
1764764682.0559516,-17.3964,3.64714,-11.55182,0.770322735,-0.528135855,-0.403624455
1764764682.0559516,-17.3964,3.64714,-11.55182,0.770322735,-0.528135855,-0.403624455
1764764682.0559516,-17.3964,3.64714,-11.55182,0.770322735,-0.528135855,-0.403624455
1764764682.0559516,-17.3964,3.64714,-11.55182,0.770322735,-0.528135855,-0.403624455
1764764682.0998068,-17.3964,3.64714,-11.55182,0.770322735,-0.528135855,-0.403624455
1764764682.0998068,-17.3964,3.64714,-11.55182,0.770322735,-0.528135855,-0.403624455
1764764682.0998068,-17.3964,3.64714,-11.55182,0.770322735,-0.528135855,-0.403624455
1764764682.0998068,-17.3964,3.64714,-11.55182,0.770322735,-0.528135855,-0.403624455
1764764682.0998068,-17.3964,3.64714,-11.55182,0.770322735,-0.528135855,-0.403624455
1764764682.0998068,-17.3964,3.64714,-11.55182,0.770322735,-0.528135855,-0.403624455
1764764682.0998068,-18.22044,3.23512,-13.39828,0.77367966,-0.529966905,-0.403502385
1764764682.0998068,-18.22044,3.23512,-13.39828,0.77367966,-0.529966905,-0.403502385
1764764682.0998068,-18.22044,3.23512,-13.39828,0.77367966,-0.529966905,-0.403502385
1764764682.0998068,-18.22044,3.23512,-13.39828,0.77367966,-0.529966905,-0.403502385
1764764682.0998068,-18.22044,3.23512,-13.39828,0.77367966,-0.529966905,-0.403502385
1764764682.0998068,-18.22044,3.23512,-13.39828,0.77367966,-0.529966905,-0.403502385
1764764682.0998068,-18.22044,3.23512,-13.39828,0.77367966,-0.529966905,-0.403502385
1764764682.0998068,-18.22044,3.23512,-13.39828,0.77367966,-0.529966905,-0.403502385
1764764682.100834,-18.22044,3.23512,-13.39828,0.77367966,-0.529966905,-0.403502385
1764764682.100834,-18.22044,3.23512,-13.39828,0.77367966,-0.529966905,-0.403502385
1764764682.100834,-19.80748,3.40298,-14.84798,0.77502243,-0.52966173,-0.40502826
1764764682.100834,-19.80748,3.40298,-14.84798,0.77502243,-0.52966173,-0.40502826
1764764682.100834,-19.80748,3.40298,-14.84798,0.77502243,-0.52966173,-0.40502826
1764764682.100834,-19.80748,3.40298,-14.84798,0.77502243,-0.52966173,-0.40502826
1764764682.100834,-19.80748,3.40298,-14.84798,0.77502243,-0.52966173,-0.40502826
1764764682.100834,-19.80748,3.40298,-14.84798,0.77502243,-0.52966173,-0.40502826
1764764682.100834,-19.80748,3.40298,-14.84798,0.77502243,-0.52966173,-0.40502826
1764764682.100834,-19.80748,3.40298,-14.84798,0.77502243,-0.52966173,-0.40502826
1764764682.100834,-19.80748,3.40298,-14.84798,0.77502243,-0.52966173,-0.40502826
1764764682.100834,-19.80748,3.40298,-14.84798,0.77502243,-0.52966173,-0.40502826
1764764682.1448307,-20.26528,2.70102,-15.91618,0.77612106,-0.5280748200000001,-0.406676205
1764764682.1448307,-20.26528,2.70102,-15.91618,0.77612106,-0.5280748200000001,-0.406676205
1764764682.1448307,-20.26528,2.70102,-15.91618,0.77612106,-0.5280748200000001,-0.406676205
1764764682.1448307,-20.26528,2.70102,-15.91618,0.77612106,-0.5280748200000001,-0.406676205
1764764682.1448307,-20.26528,2.70102,-15.91618,0.77612106,-0.5280748200000001,-0.406676205
1764764682.1448307,-20.26528,2.70102,-15.91618,0.77612106,-0.5280748200000001,-0.406676205
1764764682.1448307,-20.26528,2.70102,-15.91618,0.77612106,-0.5280748200000001,-0.406676205
1764764682.1448307,-20.26528,2.70102,-15.91618,0.77612106,-0.5280748200000001,-0.406676205
1764764682.1448307,-20.26528,2.70102,-15.91618,0.77612106,-0.5280748200000001,-0.406676205
1764764682.1448307,-20.26528,2.70102,-15.91618,0.77612106,-0.5280748200000001,-0.406676205
1764764682.1448307,-20.15846,3.5861,-15.22948,0.78027144,-0.527281365,-0.40856829
1764764682.1458335,-20.15846,3.5861,-15.22948,0.78027144,-0.527281365,-0.40856829
1764764682.1458335,-20.15846,3.5861,-15.22948,0.78027144,-0.527281365,-0.40856829
1764764682.1458335,-20.15846,3.5861,-15.22948,0.78027144,-0.527281365,-0.40856829
1764764682.1458335,-20.15846,3.5861,-15.22948,0.78027144,-0.527281365,-0.40856829
1764764682.1458335,-20.15846,3.5861,-15.22948,0.78027144,-0.527281365,-0.40856829
1764764682.1458335,-20.15846,3.5861,-15.22948,0.78027144,-0.527281365,-0.40856829
1764764682.1458335,-20.15846,3.5861,-15.22948,0.78027144,-0.527281365,-0.40856829
1764764682.1458335,-20.15846,3.5861,-15.22948,0.78027144,-0.527281365,-0.40856829
1764764682.1458335,-20.15846,3.5861,-15.22948,0.78027144,-0.527281365,-0.40856829
1764764682.1458335,-19.36494,5.9514,-14.60382,0.786069765,-0.525938595,-0.40930071
1764764682.1458335,-19.36494,5.9514,-14.60382,0.786069765,-0.525938595,-0.40930071
1764764682.192796,-19.36494,5.9514,-14.60382,0.786069765,-0.525938595,-0.40930071
1764764682.192796,-19.36494,5.9514,-14.60382,0.786069765,-0.525938595,-0.40930071
1764764682.192796,-19.36494,5.9514,-14.60382,0.786069765,-0.525938595,-0.40930071
1764764682.192796,-19.36494,5.9514,-14.60382,0.786069765,-0.525938595,-0.40930071
1764764682.192796,-19.36494,5.9514,-14.60382,0.786069765,-0.525938595,-0.40930071
1764764682.192796,-19.36494,5.9514,-14.60382,0.786069765,-0.525938595,-0.40930071
1764764682.192796,-19.36494,5.9514,-14.60382,0.786069765,-0.525938595,-0.40930071
1764764682.192796,-19.36494,5.9514,-14.60382,0.786069765,-0.525938595,-0.40930071
1764764682.1933107,-18.80032,7.12642,-13.32198,0.788511165,-0.52404651,-0.41088762
1764764682.1933107,-18.80032,7.12642,-13.32198,0.788511165,-0.52404651,-0.41088762
1764764682.1933107,-18.80032,7.12642,-13.32198,0.788511165,-0.52404651,-0.41088762
1764764682.1933107,-18.80032,7.12642,-13.32198,0.788511165,-0.52404651,-0.41088762
1764764682.1933107,-18.80032,7.12642,-13.32198,0.788511165,-0.52404651,-0.41088762
1764764682.1933107,-18.80032,7.12642,-13.32198,0.788511165,-0.52404651,-0.41088762
1764764682.1933107,-18.80032,7.12642,-13.32198,0.788511165,-0.52404651,-0.41088762
1764764682.1933107,-18.80032,7.12642,-13.32198,0.788511165,-0.52404651,-0.41088762
1764764682.1933107,-18.80032,7.12642,-13.32198,0.788511165,-0.52404651,-0.41088762
1764764682.1933107,-18.80032,7.12642,-13.32198,0.788511165,-0.52404651,-0.41088762
1764764682.1933107,-18.1594,6.9433,-13.8866,0.78796185,-0.520323375,-0.412413495
1764764682.1933107,-18.1594,6.9433,-13.8866,0.78796185,-0.520323375,-0.412413495
1764764682.1933107,-18.1594,6.9433,-13.8866,0.78796185,-0.520323375,-0.412413495
1764764682.1933107,-18.1594,6.9433,-13.8866,0.78796185,-0.520323375,-0.412413495
1764764682.1933107,-18.1594,6.9433,-13.8866,0.78796185,-0.520323375,-0.412413495
1764764682.1933107,-18.1594,6.9433,-13.8866,0.78796185,-0.520323375,-0.412413495
1764764682.2409718,-18.1594,6.9433,-13.8866,0.78796185,-0.520323375,-0.412413495
1764764682.2409718,-18.1594,6.9433,-13.8866,0.78796185,-0.520323375,-0.412413495
1764764682.2409718,-18.1594,6.9433,-13.8866,0.78796185,-0.520323375,-0.412413495
1764764682.2409718,-18.1594,6.9433,-13.8866,0.78796185,-0.520323375,-0.412413495
1764764682.2409718,-17.335359999999998,6.9433,-15.12266,0.788999445,-0.513731595,-0.41296281
1764764682.2409718,-17.335359999999998,6.9433,-15.12266,0.788999445,-0.513731595,-0.41296281
1764764682.2409718,-17.335359999999998,6.9433,-15.12266,0.788999445,-0.513731595,-0.41296281
1764764682.2409718,-17.335359999999998,6.9433,-15.12266,0.788999445,-0.513731595,-0.41296281
1764764682.2409718,-17.335359999999998,6.9433,-15.12266,0.788999445,-0.513731595,-0.41296281
1764764682.2409718,-17.335359999999998,6.9433,-15.12266,0.788999445,-0.513731595,-0.41296281
1764764682.2409718,-17.335359999999998,6.9433,-15.12266,0.788999445,-0.513731595,-0.41296281
1764764682.241677,-17.335359999999998,6.9433,-15.12266,0.788999445,-0.513731595,-0.41296281
1764764682.241677,-17.335359999999998,6.9433,-15.12266,0.788999445,-0.513731595,-0.41296281
1764764682.241677,-17.335359999999998,6.9433,-15.12266,0.788999445,-0.513731595,-0.41296281
1764764682.241677,-15.382079999999998,8.042019999999999,-16.938599999999997,0.793455,-0.511656405,-0.41210832
1764764682.241677,-15.382079999999998,8.042019999999999,-16.938599999999997,0.793455,-0.511656405,-0.41210832
1764764682.241677,-15.382079999999998,8.042019999999999,-16.938599999999997,0.793455,-0.511656405,-0.41210832
1764764682.241677,-15.382079999999998,8.042019999999999,-16.938599999999997,0.793455,-0.511656405,-0.41210832
1764764682.241677,-15.382079999999998,8.042019999999999,-16.938599999999997,0.793455,-0.511656405,-0.41210832
1764764682.241677,-15.382079999999998,8.042019999999999,-16.938599999999997,0.793455,-0.511656405,-0.41210832
1764764682.241677,-15.382079999999998,8.042019999999999,-16.938599999999997,0.793455,-0.511656405,-0.41210832
1764764682.241677,-15.382079999999998,8.042019999999999,-16.938599999999997,0.793455,-0.511656405,-0.41210832
1764764682.2872868,-15.382079999999998,8.042019999999999,-16.938599999999997,0.793455,-0.511656405,-0.41210832
1764764682.2872868,-15.382079999999998,8.042019999999999,-16.938599999999997,0.793455,-0.511656405,-0.41210832
1764764682.2872868,-12.80314,9.3849,-17.56426,0.79894815,-0.51074088,-0.41088762
1764764682.2872868,-12.80314,9.3849,-17.56426,0.79894815,-0.51074088,-0.41088762
1764764682.2872868,-12.80314,9.3849,-17.56426,0.79894815,-0.51074088,-0.41088762
1764764682.2872868,-12.80314,9.3849,-17.56426,0.79894815,-0.51074088,-0.41088762
1764764682.2872868,-12.80314,9.3849,-17.56426,0.79894815,-0.51074088,-0.41088762
1764764682.2872868,-12.80314,9.3849,-17.56426,0.79894815,-0.51074088,-0.41088762
1764764682.2872868,-12.80314,9.3849,-17.56426,0.79894815,-0.51074088,-0.41088762
1764764682.2872868,-12.80314,9.3849,-17.56426,0.79894815,-0.51074088,-0.41088762
1764764682.2872868,-12.80314,9.3849,-17.56426,0.79894815,-0.51074088,-0.41088762
1764764682.2872868,-12.80314,9.3849,-17.56426,0.79894815,-0.51074088,-0.41088762
1764764682.2872868,-10.57518,10.46836,-18.1594,0.80175576,-0.50768913,-0.41064348
1764764682.2872868,-10.57518,10.46836,-18.1594,0.80175576,-0.50768913,-0.41064348
1764764682.2885644,-10.57518,10.46836,-18.1594,0.80175576,-0.50768913,-0.41064348
1764764682.2885644,-10.57518,10.46836,-18.1594,0.80175576,-0.50768913,-0.41064348
1764764682.2885644,-10.57518,10.46836,-18.1594,0.80175576,-0.50768913,-0.41064348
1764764682.2885644,-10.57518,10.46836,-18.1594,0.80175576,-0.50768913,-0.41064348
1764764682.2885644,-10.57518,10.46836,-18.1594,0.80175576,-0.50768913,-0.41064348
1764764682.2885644,-10.57518,10.46836,-18.1594,0.80175576,-0.50768913,-0.41064348
1764764682.2885644,-10.57518,10.46836,-18.1594,0.80175576,-0.50768913,-0.41064348
1764764682.2885644,-10.57518,10.46836,-18.1594,0.80175576,-0.50768913,-0.41064348
1764764682.2885644,-9.49172,11.35344,-18.47986,0.8021830050000001,-0.501768735,-0.41052141
1764764682.2885644,-9.49172,11.35344,-18.47986,0.8021830050000001,-0.501768735,-0.41052141
1764764682.3337016,-9.49172,11.35344,-18.47986,0.8021830050000001,-0.501768735,-0.41052141
1764764682.33424,-9.49172,11.35344,-18.47986,0.8021830050000001,-0.501768735,-0.41052141
1764764682.33424,-9.49172,11.35344,-18.47986,0.8021830050000001,-0.501768735,-0.41052141
1764764682.33424,-9.49172,11.35344,-18.47986,0.8021830050000001,-0.501768735,-0.41052141
1764764682.33424,-9.49172,11.35344,-18.47986,0.8021830050000001,-0.501768735,-0.41052141
1764764682.33424,-9.49172,11.35344,-18.47986,0.8021830050000001,-0.501768735,-0.41052141
1764764682.33424,-9.49172,11.35344,-18.47986,0.8021830050000001,-0.501768735,-0.41052141
1764764682.33424,-9.49172,11.35344,-18.47986,0.8021830050000001,-0.501768735,-0.41052141
1764764682.33424,-9.36964,10.88038,-19.59384,0.80126748,-0.493956255,-0.41088762
1764764682.33424,-9.36964,10.88038,-19.59384,0.80126748,-0.493956255,-0.41088762
1764764682.33424,-9.36964,10.88038,-19.59384,0.80126748,-0.493956255,-0.41088762
1764764682.33424,-9.36964,10.88038,-19.59384,0.80126748,-0.493956255,-0.41088762
1764764682.33424,-9.36964,10.88038,-19.59384,0.80126748,-0.493956255,-0.41088762
1764764682.33424,-9.36964,10.88038,-19.59384,0.80126748,-0.493956255,-0.41088762
1764764682.33424,-9.36964,10.88038,-19.59384,0.80126748,-0.493956255,-0.41088762
1764764682.33424,-9.36964,10.88038,-19.59384,0.80126748,-0.493956255,-0.41088762
1764764682.33424,-9.36964,10.88038,-19.59384,0.80126748,-0.493956255,-0.41088762
1764764682.33424,-9.36964,10.88038,-19.59384,0.80126748,-0.493956255,-0.41088762
1764764682.33424,-9.85796,10.3768,-20.6773,0.801328515,-0.48681516,-0.41003313
1764764682.33424,-9.85796,10.3768,-20.6773,0.801328515,-0.48681516,-0.41003313
1764764682.33424,-9.85796,10.3768,-20.6773,0.801328515,-0.48681516,-0.41003313
1764764682.33424,-9.85796,10.3768,-20.6773,0.801328515,-0.48681516,-0.41003313
1764764682.33424,-9.85796,10.3768,-20.6773,0.801328515,-0.48681516,-0.41003313
1764764682.33424,-9.85796,10.3768,-20.6773,0.801328515,-0.48681516,-0.41003313
1764764682.3806994,-9.85796,10.3768,-20.6773,0.801328515,-0.48681516,-0.41003313
1764764682.3806994,-9.85796,10.3768,-20.6773,0.801328515,-0.48681516,-0.41003313
1764764682.3806994,-9.85796,10.3768,-20.6773,0.801328515,-0.48681516,-0.41003313
1764764682.3806994,-9.85796,10.3768,-20.6773,0.801328515,-0.48681516,-0.41003313
1764764682.3806994,-10.71252,10.19368,-20.99776,0.80187783,-0.483580305,-0.40869036
1764764682.3806994,-10.71252,10.19368,-20.99776,0.80187783,-0.483580305,-0.40869036
1764764682.3806994,-10.71252,10.19368,-20.99776,0.80187783,-0.483580305,-0.40869036
1764764682.3806994,-10.71252,10.19368,-20.99776,0.80187783,-0.483580305,-0.40869036
1764764682.3806994,-10.71252,10.19368,-20.99776,0.80187783,-0.483580305,-0.40869036
1764764682.3806994,-10.71252,10.19368,-20.99776,0.80187783,-0.483580305,-0.40869036
1764764682.3806994,-10.71252,10.19368,-20.99776,0.80187783,-0.483580305,-0.40869036
1764764682.3806994,-10.71252,10.19368,-20.99776,0.80187783,-0.483580305,-0.40869036
1764764682.3806994,-10.71252,10.19368,-20.99776,0.80187783,-0.483580305,-0.40869036
1764764682.3806994,-10.71252,10.19368,-20.99776,0.80187783,-0.483580305,-0.40869036
1764764682.3806994,-10.81934,11.18558,-20.08216,0.8048075100000001,-0.481749255,-0.407530695
1764764682.3806994,-10.81934,11.18558,-20.08216,0.8048075100000001,-0.481749255,-0.407530695
1764764682.3817048,-10.81934,11.18558,-20.08216,0.8048075100000001,-0.481749255,-0.407530695
1764764682.3817048,-10.81934,11.18558,-20.08216,0.8048075100000001,-0.481749255,-0.407530695
1764764682.3817048,-10.81934,11.18558,-20.08216,0.8048075100000001,-0.481749255,-0.407530695
1764764682.3817048,-10.81934,11.18558,-20.08216,0.8048075100000001,-0.481749255,-0.407530695
1764764682.3817048,-10.81934,11.18558,-20.08216,0.8048075100000001,-0.481749255,-0.407530695
1764764682.3817048,-10.81934,11.18558,-20.08216,0.8048075100000001,-0.481749255,-0.407530695
1764764682.3817048,-10.81934,11.18558,-20.08216,0.8048075100000001,-0.481749255,-0.407530695
1764764682.3817048,-10.81934,11.18558,-20.08216,0.8048075100000001,-0.481749255,-0.407530695
1764764682.4243662,-12.02488,7.81312,-19.02922,0.8093241,-0.47802612,-0.40820208
1764764682.4243662,-12.02488,7.81312,-19.02922,0.8093241,-0.47802612,-0.40820208
1764764682.4243662,-12.02488,7.81312,-19.02922,0.8093241,-0.47802612,-0.40820208
1764764682.4243662,-12.02488,7.81312,-19.02922,0.8093241,-0.47802612,-0.40820208
1764764682.424878,-12.02488,7.81312,-19.02922,0.8093241,-0.47802612,-0.40820208
1764764682.424878,-12.02488,7.81312,-19.02922,0.8093241,-0.47802612,-0.40820208
1764764682.424878,-12.02488,7.81312,-19.02922,0.8093241,-0.47802612,-0.40820208
1764764682.424878,-12.02488,7.81312,-19.02922,0.8093241,-0.47802612,-0.40820208
1764764682.424878,-12.02488,7.81312,-19.02922,0.8093241,-0.47802612,-0.40820208
1764764682.424878,-12.02488,7.81312,-19.02922,0.8093241,-0.47802612,-0.40820208
1764764682.424878,-13.53562,12.22326,-18.63246,0.81188757,-0.473326425,-0.40905657
1764764682.424878,-13.53562,12.22326,-18.63246,0.81188757,-0.473326425,-0.40905657
1764764682.424878,-13.53562,12.22326,-18.63246,0.81188757,-0.473326425,-0.40905657
1764764682.424878,-13.53562,12.22326,-18.63246,0.81188757,-0.473326425,-0.40905657
1764764682.424878,-13.53562,12.22326,-18.63246,0.81188757,-0.473326425,-0.40905657
1764764682.424878,-13.53562,12.22326,-18.63246,0.81188757,-0.473326425,-0.40905657
1764764682.424878,-13.53562,12.22326,-18.63246,0.81188757,-0.473326425,-0.40905657
1764764682.424878,-13.53562,12.22326,-18.63246,0.81188757,-0.473326425,-0.40905657
1764764682.424878,-13.53562,12.22326,-18.63246,0.81188757,-0.473326425,-0.40905657
1764764682.424878,-13.53562,12.22326,-18.63246,0.81188757,-0.473326425,-0.40905657
1764764682.424878,-14.32914,12.2843,-17.961019999999998,0.81310827,-0.47021364,-0.408507255
1764764682.424878,-14.32914,12.2843,-17.961019999999998,0.81310827,-0.47021364,-0.408507255
1764764682.4709716,-14.32914,12.2843,-17.961019999999998,0.81310827,-0.47021364,-0.408507255
1764764682.4709716,-14.32914,12.2843,-17.961019999999998,0.81310827,-0.47021364,-0.408507255
1764764682.4709716,-14.32914,12.2843,-17.961019999999998,0.81310827,-0.47021364,-0.408507255
1764764682.4709716,-14.32914,12.2843,-17.961019999999998,0.81310827,-0.47021364,-0.408507255
1764764682.4709716,-14.32914,12.2843,-17.961019999999998,0.81310827,-0.47021364,-0.408507255
1764764682.4709716,-14.32914,12.2843,-17.961019999999998,0.81310827,-0.47021364,-0.408507255
1764764682.4709716,-14.32914,12.2843,-17.961019999999998,0.81310827,-0.47021364,-0.408507255
1764764682.4709716,-14.32914,12.2843,-17.961019999999998,0.81310827,-0.47021364,-0.408507255
1764764682.4709716,-13.33724,13.24568,-17.27432,0.8154276,-0.470030535,-0.407042415
1764764682.4709716,-13.33724,13.24568,-17.27432,0.8154276,-0.470030535,-0.407042415
1764764682.4709716,-13.33724,13.24568,-17.27432,0.8154276,-0.470030535,-0.407042415
1764764682.4709716,-13.33724,13.24568,-17.27432,0.8154276,-0.470030535,-0.407042415
1764764682.4709716,-13.33724,13.24568,-17.27432,0.8154276,-0.470030535,-0.407042415
1764764682.4709716,-13.33724,13.24568,-17.27432,0.8154276,-0.470030535,-0.407042415
1764764682.4714806,-13.33724,13.24568,-17.27432,0.8154276,-0.470030535,-0.407042415
1764764682.4714806,-13.33724,13.24568,-17.27432,0.8154276,-0.470030535,-0.407042415
1764764682.4714806,-13.33724,13.24568,-17.27432,0.8154276,-0.470030535,-0.407042415
1764764682.4714806,-13.33724,13.24568,-17.27432,0.8154276,-0.470030535,-0.407042415
1764764682.4714806,-11.03298,13.38302,-16.19086,0.81640416,-0.470396745,-0.405211365
1764764682.4714806,-11.03298,13.38302,-16.19086,0.81640416,-0.470396745,-0.405211365
1764764682.4714806,-11.03298,13.38302,-16.19086,0.81640416,-0.470396745,-0.405211365
1764764682.4714806,-11.03298,13.38302,-16.19086,0.81640416,-0.470396745,-0.405211365
1764764682.4714806,-11.03298,13.38302,-16.19086,0.81640416,-0.470396745,-0.405211365
1764764682.4714806,-11.03298,13.38302,-16.19086,0.81640416,-0.470396745,-0.405211365
1764764682.5208237,-11.03298,13.38302,-16.19086,0.81640416,-0.470396745,-0.405211365
1764764682.5208237,-11.03298,13.38302,-16.19086,0.81640416,-0.470396745,-0.405211365
1764764682.5208237,-11.03298,13.38302,-16.19086,0.81640416,-0.470396745,-0.405211365
1764764682.5208237,-11.03298,13.38302,-16.19086,0.81640416,-0.470396745,-0.405211365
1764764682.5208237,-8.0878,13.44406,-14.98532,0.8166483,-0.4699695,-0.404112735
1764764682.5208237,-8.0878,13.44406,-14.98532,0.8166483,-0.4699695,-0.404112735
1764764682.5208237,-8.0878,13.44406,-14.98532,0.8166483,-0.4699695,-0.404112735
1764764682.5208237,-8.0878,13.44406,-14.98532,0.8166483,-0.4699695,-0.404112735
1764764682.5208237,-8.0878,13.44406,-14.98532,0.8166483,-0.4699695,-0.404112735
1764764682.5208237,-8.0878,13.44406,-14.98532,0.8166483,-0.4699695,-0.404112735
1764764682.5208237,-8.0878,13.44406,-14.98532,0.8166483,-0.4699695,-0.404112735
1764764682.5208237,-8.0878,13.44406,-14.98532,0.8166483,-0.4699695,-0.404112735
1764764682.5208237,-8.0878,13.44406,-14.98532,0.8166483,-0.4699695,-0.404112735
1764764682.5208237,-8.0878,13.44406,-14.98532,0.8166483,-0.4699695,-0.404112735
1764764682.5208237,-5.82932,12.84892,-14.10024,0.818174175,-0.46728396,-0.40319721
1764764682.5208237,-5.82932,12.84892,-14.10024,0.818174175,-0.46728396,-0.40319721
1764764682.5208237,-5.82932,12.84892,-14.10024,0.818174175,-0.46728396,-0.40319721
1764764682.5208237,-5.82932,12.84892,-14.10024,0.818174175,-0.46728396,-0.40319721
1764764682.5208237,-5.82932,12.84892,-14.10024,0.818174175,-0.46728396,-0.40319721
1764764682.5208237,-5.82932,12.84892,-14.10024,0.818174175,-0.46728396,-0.40319721
1764764682.5208237,-5.82932,12.84892,-14.10024,0.818174175,-0.46728396,-0.40319721
1764764682.5208237,-5.82932,12.84892,-14.10024,0.818174175,-0.46728396,-0.40319721
1764764682.5679324,-5.82932,12.84892,-14.10024,0.818174175,-0.46728396,-0.40319721
1764764682.5679324,-5.82932,12.84892,-14.10024,0.818174175,-0.46728396,-0.40319721
1764764682.5679324,-5.234179999999999,12.25378,-14.51226,0.820981785,-0.461119425,-0.402281685
1764764682.5679324,-5.234179999999999,12.25378,-14.51226,0.820981785,-0.461119425,-0.402281685
1764764682.5679324,-5.234179999999999,12.25378,-14.51226,0.820981785,-0.461119425,-0.402281685
1764764682.5679324,-5.234179999999999,12.25378,-14.51226,0.820981785,-0.461119425,-0.402281685
1764764682.5679324,-5.234179999999999,12.25378,-14.51226,0.820981785,-0.461119425,-0.402281685
1764764682.5679324,-5.234179999999999,12.25378,-14.51226,0.820981785,-0.461119425,-0.402281685
1764764682.5679324,-5.234179999999999,12.25378,-14.51226,0.820981785,-0.461119425,-0.402281685
1764764682.5679324,-5.234179999999999,12.25378,-14.51226,0.820981785,-0.461119425,-0.402281685
1764764682.5679324,-5.234179999999999,12.25378,-14.51226,0.820981785,-0.461119425,-0.402281685
1764764682.5679324,-5.234179999999999,12.25378,-14.51226,0.820981785,-0.461119425,-0.402281685
1764764682.5679324,-4.86794,11.76546,-15.39734,0.8236673250000001,-0.456236625,-0.399962355
1764764682.5679324,-4.86794,11.76546,-15.39734,0.8236673250000001,-0.456236625,-0.399962355
1764764682.5679324,-4.86794,11.76546,-15.39734,0.8236673250000001,-0.456236625,-0.399962355
1764764682.5679324,-4.86794,11.76546,-15.39734,0.8236673250000001,-0.456236625,-0.399962355
1764764682.614422,-4.86794,11.76546,-15.39734,0.8236673250000001,-0.456236625,-0.399962355
1764764682.614422,-4.86794,11.76546,-15.39734,0.8236673250000001,-0.456236625,-0.399962355
1764764682.614422,-4.86794,11.76546,-15.39734,0.8236673250000001,-0.456236625,-0.399962355
1764764682.614422,-4.86794,11.76546,-15.39734,0.8236673250000001,-0.456236625,-0.399962355
1764764682.614422,-4.86794,11.76546,-15.39734,0.8236673250000001,-0.456236625,-0.399962355
1764764682.614957,-4.86794,11.76546,-15.39734,0.8236673250000001,-0.456236625,-0.399962355
1764764682.614957,-4.959499999999999,12.23852,-15.22948,0.825620445,-0.45202521,-0.398131305
1764764682.614957,-4.959499999999999,12.23852,-15.22948,0.825620445,-0.45202521,-0.398131305
1764764682.614957,-4.959499999999999,12.23852,-15.22948,0.825620445,-0.45202521,-0.398131305
1764764682.614957,-4.959499999999999,12.23852,-15.22948,0.825620445,-0.45202521,-0.398131305
1764764682.614957,-4.959499999999999,12.23852,-15.22948,0.825620445,-0.45202521,-0.398131305
1764764682.614957,-4.959499999999999,12.23852,-15.22948,0.825620445,-0.45202521,-0.398131305
1764764682.614957,-4.959499999999999,12.23852,-15.22948,0.825620445,-0.45202521,-0.398131305
1764764682.614957,-4.959499999999999,12.23852,-15.22948,0.825620445,-0.45202521,-0.398131305
1764764682.614957,-4.959499999999999,12.23852,-15.22948,0.825620445,-0.45202521,-0.398131305
1764764682.614957,-4.959499999999999,12.23852,-15.22948,0.825620445,-0.45202521,-0.398131305
1764764682.614957,-6.01244,11.7502,-15.47364,0.828672195,-0.448057935,-0.396056115
1764764682.614957,-6.01244,11.7502,-15.47364,0.828672195,-0.448057935,-0.396056115
1764764682.614957,-6.01244,11.7502,-15.47364,0.828672195,-0.448057935,-0.396056115
1764764682.614957,-6.01244,11.7502,-15.47364,0.828672195,-0.448057935,-0.396056115
1764764682.614957,-6.01244,11.7502,-15.47364,0.828672195,-0.448057935,-0.396056115
1764764682.614957,-6.01244,11.7502,-15.47364,0.828672195,-0.448057935,-0.396056115
1764764682.614957,-6.01244,11.7502,-15.47364,0.828672195,-0.448057935,-0.396056115
1764764682.614957,-6.01244,11.7502,-15.47364,0.828672195,-0.448057935,-0.396056115
1764764682.614957,-6.01244,11.7502,-15.47364,0.828672195,-0.448057935,-0.396056115
1764764682.614957,-6.01244,11.7502,-15.47364,0.828672195,-0.448057935,-0.396056115
1764764682.614957,-7.3248,11.8265,-15.7178,0.832212225,-0.44409066,-0.39453024
1764764682.614957,-7.3248,11.8265,-15.7178,0.832212225,-0.44409066,-0.39453024
1764764682.614957,-7.3248,11.8265,-15.7178,0.832212225,-0.44409066,-0.39453024
1764764682.614957,-7.3248,11.8265,-15.7178,0.832212225,-0.44409066,-0.39453024
1764764682.614957,-7.3248,11.8265,-15.7178,0.832212225,-0.44409066,-0.39453024
1764764682.614957,-7.3248,11.8265,-15.7178,0.832212225,-0.44409066,-0.39453024
1764764682.661658,-7.3248,11.8265,-15.7178,0.832212225,-0.44409066,-0.39453024
1764764682.661658,-7.3248,11.8265,-15.7178,0.832212225,-0.44409066,-0.39453024
1764764682.661658,-7.3248,11.8265,-15.7178,0.832212225,-0.44409066,-0.39453024
1764764682.661658,-7.3248,11.8265,-15.7178,0.832212225,-0.44409066,-0.39453024
1764764682.661658,-7.63,12.29956,-16.84704,0.8356912200000001,-0.44018442,-0.39294333
1764764682.661658,-7.63,12.29956,-16.84704,0.8356912200000001,-0.44018442,-0.39294333
1764764682.661658,-7.63,12.29956,-16.84704,0.8356912200000001,-0.44018442,-0.39294333
1764764682.661658,-7.63,12.29956,-16.84704,0.8356912200000001,-0.44018442,-0.39294333
1764764682.661658,-7.63,12.29956,-16.84704,0.8356912200000001,-0.44018442,-0.39294333
1764764682.662189,-7.63,12.29956,-16.84704,0.8356912200000001,-0.44018442,-0.39294333
1764764682.662189,-7.63,12.29956,-16.84704,0.8356912200000001,-0.44018442,-0.39294333
1764764682.662189,-7.63,12.29956,-16.84704,0.8356912200000001,-0.44018442,-0.39294333
1764764682.662189,-7.63,12.29956,-16.84704,0.8356912200000001,-0.44018442,-0.39294333
1764764682.662189,-7.63,12.29956,-16.84704,0.8356912200000001,-0.44018442,-0.39294333
1764764682.662189,-7.38584,13.2762,-17.213279999999997,0.837705375,-0.43762095,-0.391295385
1764764682.662189,-7.38584,13.2762,-17.213279999999997,0.837705375,-0.43762095,-0.391295385
1764764682.662189,-7.38584,13.2762,-17.213279999999997,0.837705375,-0.43762095,-0.391295385
1764764682.662189,-7.38584,13.2762,-17.213279999999997,0.837705375,-0.43762095,-0.391295385
1764764682.662189,-7.38584,13.2762,-17.213279999999997,0.837705375,-0.43762095,-0.391295385
1764764682.662189,-7.38584,13.2762,-17.213279999999997,0.837705375,-0.43762095,-0.391295385
1764764682.662189,-7.38584,13.2762,-17.213279999999997,0.837705375,-0.43762095,-0.391295385
1764764682.662189,-7.38584,13.2762,-17.213279999999997,0.837705375,-0.43762095,-0.391295385
1764764682.662189,-7.38584,13.2762,-17.213279999999997,0.837705375,-0.43762095,-0.391295385
1764764682.662189,-7.38584,13.2762,-17.213279999999997,0.837705375,-0.43762095,-0.391295385
1764764682.708526,-7.340059999999999,14.069719999999998,-16.12982,0.838804005,-0.4382313,-0.389342265
1764764682.708526,-7.340059999999999,14.069719999999998,-16.12982,0.838804005,-0.4382313,-0.389342265
1764764682.708526,-7.340059999999999,14.069719999999998,-16.12982,0.838804005,-0.4382313,-0.389342265
1764764682.708526,-7.340059999999999,14.069719999999998,-16.12982,0.838804005,-0.4382313,-0.389342265
1764764682.708526,-7.340059999999999,14.069719999999998,-16.12982,0.838804005,-0.4382313,-0.389342265
1764764682.708526,-7.340059999999999,14.069719999999998,-16.12982,0.838804005,-0.4382313,-0.389342265
1764764682.708526,-7.340059999999999,14.069719999999998,-16.12982,0.838804005,-0.4382313,-0.389342265
1764764682.708526,-7.340059999999999,14.069719999999998,-16.12982,0.838804005,-0.4382313,-0.389342265
1764764682.708526,-7.340059999999999,14.069719999999998,-16.12982,0.838804005,-0.4382313,-0.389342265
1764764682.708526,-7.340059999999999,14.069719999999998,-16.12982,0.838804005,-0.4382313,-0.389342265
1764764682.708526,-7.87416,14.0392,-14.74116,0.83874297,-0.43664439,-0.388487775
1764764682.708526,-7.87416,14.0392,-14.74116,0.83874297,-0.43664439,-0.388487775
1764764682.708526,-7.87416,14.0392,-14.74116,0.83874297,-0.43664439,-0.388487775
1764764682.708526,-7.87416,14.0392,-14.74116,0.83874297,-0.43664439,-0.388487775
1764764682.708526,-7.87416,14.0392,-14.74116,0.83874297,-0.43664439,-0.388487775
1764764682.7090335,-7.87416,14.0392,-14.74116,0.83874297,-0.43664439,-0.388487775
1764764682.7090335,-7.87416,14.0392,-14.74116,0.83874297,-0.43664439,-0.388487775
1764764682.7090335,-7.87416,14.0392,-14.74116,0.83874297,-0.43664439,-0.388487775
1764764682.7090335,-7.87416,14.0392,-14.74116,0.83874297,-0.43664439,-0.388487775
1764764682.7090335,-7.87416,14.0392,-14.74116,0.83874297,-0.43664439,-0.388487775
1764764682.7090335,-8.28618,14.92428,-11.94858,0.841245405,-0.433531605,-0.386168445
1764764682.7090335,-8.28618,14.92428,-11.94858,0.841245405,-0.433531605,-0.386168445
1764764682.7090335,-8.28618,14.92428,-11.94858,0.841245405,-0.433531605,-0.386168445
1764764682.7090335,-8.28618,14.92428,-11.94858,0.841245405,-0.433531605,-0.386168445
1764764682.75558,-8.28618,14.92428,-11.94858,0.841245405,-0.433531605,-0.386168445
1764764682.75558,-8.28618,14.92428,-11.94858,0.841245405,-0.433531605,-0.386168445
1764764682.75558,-8.28618,14.92428,-11.94858,0.841245405,-0.433531605,-0.386168445
1764764682.75558,-8.28618,14.92428,-11.94858,0.841245405,-0.433531605,-0.386168445
1764764682.75558,-8.28618,14.92428,-11.94858,0.841245405,-0.433531605,-0.386168445
1764764682.75558,-8.28618,14.92428,-11.94858,0.841245405,-0.433531605,-0.386168445
1764764682.7569983,-9.58328,16.633399999999998,-8.43878,0.84423612,-0.42956433,-0.38537499
1764764682.7569983,-9.58328,16.633399999999998,-8.43878,0.84423612,-0.42956433,-0.38537499
1764764682.7569983,-9.58328,16.633399999999998,-8.43878,0.84423612,-0.42956433,-0.38537499
1764764682.7569983,-9.58328,16.633399999999998,-8.43878,0.84423612,-0.42956433,-0.38537499
1764764682.7569983,-9.58328,16.633399999999998,-8.43878,0.84423612,-0.42956433,-0.38537499
1764764682.7569983,-9.58328,16.633399999999998,-8.43878,0.84423612,-0.42956433,-0.38537499
1764764682.7569983,-9.58328,16.633399999999998,-8.43878,0.84423612,-0.42956433,-0.38537499
1764764682.7569983,-9.58328,16.633399999999998,-8.43878,0.84423612,-0.42956433,-0.38537499
1764764682.7569983,-9.58328,16.633399999999998,-8.43878,0.84423612,-0.42956433,-0.38537499
1764764682.7569983,-9.58328,16.633399999999998,-8.43878,0.84423612,-0.42956433,-0.38537499
1764764682.7569983,-11.26188,20.02112,-3.55558,0.849668235,-0.427550175,-0.38439843
1764764682.7569983,-11.26188,20.02112,-3.55558,0.849668235,-0.427550175,-0.38439843
1764764682.7569983,-11.26188,20.02112,-3.55558,0.849668235,-0.427550175,-0.38439843
1764764682.7580986,-11.26188,20.02112,-3.55558,0.849668235,-0.427550175,-0.38439843
1764764682.7580986,-11.26188,20.02112,-3.55558,0.849668235,-0.427550175,-0.38439843
1764764682.7580986,-11.26188,20.02112,-3.55558,0.849668235,-0.427550175,-0.38439843
1764764682.7580986,-11.26188,20.02112,-3.55558,0.849668235,-0.427550175,-0.38439843
1764764682.7580986,-11.26188,20.02112,-3.55558,0.849668235,-0.427550175,-0.38439843
1764764682.7998352,-11.26188,20.02112,-3.55558,0.849668235,-0.427550175,-0.38439843
1764764682.7998352,-11.26188,20.02112,-3.55558,0.849668235,-0.427550175,-0.38439843
1764764682.7998352,-11.87228,21.2877,2.77732,0.849668235,-0.42883191,-0.38391015
1764764682.8018591,-11.87228,21.2877,2.77732,0.849668235,-0.42883191,-0.38391015
1764764682.8018591,-11.87228,21.2877,2.77732,0.849668235,-0.42883191,-0.38391015
1764764682.8018591,-11.87228,21.2877,2.77732,0.849668235,-0.42883191,-0.38391015
1764764682.8018591,-11.87228,21.2877,2.77732,0.849668235,-0.42883191,-0.38391015
1764764682.8018591,-11.87228,21.2877,2.77732,0.849668235,-0.42883191,-0.38391015
1764764682.8018591,-11.87228,21.2877,2.77732,0.849668235,-0.42883191,-0.38391015
1764764682.8018591,-11.87228,21.2877,2.77732,0.849668235,-0.42883191,-0.38391015
1764764682.8018591,-11.87228,21.2877,2.77732,0.849668235,-0.42883191,-0.38391015
1764764682.8018591,-11.87228,21.2877,2.77732,0.849668235,-0.42883191,-0.38391015
1764764682.8018591,-9.73588,22.5085,8.2404,0.848081325,-0.43115124,-0.380309085
1764764682.8018591,-9.73588,22.5085,8.2404,0.848081325,-0.43115124,-0.380309085
1764764682.8018591,-9.73588,22.5085,8.2404,0.848081325,-0.43115124,-0.380309085
1764764682.8018591,-9.73588,22.5085,8.2404,0.848081325,-0.43115124,-0.380309085
1764764682.8018591,-9.73588,22.5085,8.2404,0.848081325,-0.43115124,-0.380309085
1764764682.8018591,-9.73588,22.5085,8.2404,0.848081325,-0.43115124,-0.380309085
1764764682.8018591,-9.73588,22.5085,8.2404,0.848081325,-0.43115124,-0.380309085
1764764682.8023715,-9.73588,22.5085,8.2404,0.848081325,-0.43115124,-0.380309085
1764764682.8488753,-9.73588,22.5085,8.2404,0.848081325,-0.43115124,-0.380309085
1764764682.8488753,-9.73588,22.5085,8.2404,0.848081325,-0.43115124,-0.380309085
1764764682.8488753,-5.96666,21.8981,9.14074,0.84484647,-0.432555045,-0.375914565
1764764682.8488753,-5.96666,21.8981,9.14074,0.84484647,-0.432555045,-0.375914565
1764764682.8504074,-5.96666,21.8981,9.14074,0.84484647,-0.432555045,-0.375914565
1764764682.8504074,-5.96666,21.8981,9.14074,0.84484647,-0.432555045,-0.375914565
1764764682.8504074,-5.96666,21.8981,9.14074,0.84484647,-0.432555045,-0.375914565
1764764682.8504074,-5.96666,21.8981,9.14074,0.84484647,-0.432555045,-0.375914565
1764764682.8504074,-5.96666,21.8981,9.14074,0.84484647,-0.432555045,-0.375914565
1764764682.8504074,-5.96666,21.8981,9.14074,0.84484647,-0.432555045,-0.375914565
1764764682.8504074,-5.96666,21.8981,9.14074,0.84484647,-0.432555045,-0.375914565
1764764682.8504074,-5.96666,21.8981,9.14074,0.84484647,-0.432555045,-0.375914565
1764764682.8504074,-0.9003399999999999,19.44124,6.53128,0.8420388600000001,-0.434630235,-0.370665555
1764764682.8504074,-0.9003399999999999,19.44124,6.53128,0.8420388600000001,-0.434630235,-0.370665555
1764764682.8504074,-0.9003399999999999,19.44124,6.53128,0.8420388600000001,-0.434630235,-0.370665555
1764764682.8504074,-0.9003399999999999,19.44124,6.53128,0.8420388600000001,-0.434630235,-0.370665555
1764764682.8504074,-0.9003399999999999,19.44124,6.53128,0.8420388600000001,-0.434630235,-0.370665555
1764764682.8504074,-0.9003399999999999,19.44124,6.53128,0.8420388600000001,-0.434630235,-0.370665555
1764764682.8504074,-0.9003399999999999,19.44124,6.53128,0.8420388600000001,-0.434630235,-0.370665555
1764764682.8504074,-0.9003399999999999,19.44124,6.53128,0.8420388600000001,-0.434630235,-0.370665555
1764764682.8504074,-0.9003399999999999,19.44124,6.53128,0.8420388600000001,-0.434630235,-0.370665555
1764764682.8504074,-0.9003399999999999,19.44124,6.53128,0.8420388600000001,-0.434630235,-0.370665555
1764764682.8504074,3.52506,14.29862,2.6705,0.838681935,-0.43737681,-0.36718656
1764764682.8504074,3.52506,14.29862,2.6705,0.838681935,-0.43737681,-0.36718656
1764764682.893339,3.52506,14.29862,2.6705,0.838681935,-0.43737681,-0.36718656
1764764682.893339,3.52506,14.29862,2.6705,0.838681935,-0.43737681,-0.36718656
1764764682.893339,3.52506,14.29862,2.6705,0.838681935,-0.43737681,-0.36718656
1764764682.893339,3.52506,14.29862,2.6705,0.838681935,-0.43737681,-0.36718656
1764764682.893339,3.52506,14.29862,2.6705,0.838681935,-0.43737681,-0.36718656
1764764682.893339,3.52506,14.29862,2.6705,0.838681935,-0.43737681,-0.36718656
1764764682.893339,3.52506,14.29862,2.6705,0.838681935,-0.43737681,-0.36718656
1764764682.893339,3.52506,14.29862,2.6705,0.838681935,-0.43737681,-0.36718656
1764764682.893339,5.67672,10.17842,-1.6022999999999998,0.838681935,-0.43835337,-0.36401274
1764764682.893339,5.67672,10.17842,-1.6022999999999998,0.838681935,-0.43835337,-0.36401274
1764764682.893339,5.67672,10.17842,-1.6022999999999998,0.838681935,-0.43835337,-0.36401274
1764764682.894395,5.67672,10.17842,-1.6022999999999998,0.838681935,-0.43835337,-0.36401274
1764764682.894395,5.67672,10.17842,-1.6022999999999998,0.838681935,-0.43835337,-0.36401274
1764764682.894395,5.67672,10.17842,-1.6022999999999998,0.838681935,-0.43835337,-0.36401274
1764764682.894395,5.67672,10.17842,-1.6022999999999998,0.838681935,-0.43835337,-0.36401274
1764764682.894395,5.67672,10.17842,-1.6022999999999998,0.838681935,-0.43835337,-0.36401274
1764764682.894395,5.67672,10.17842,-1.6022999999999998,0.838681935,-0.43835337,-0.36401274
1764764682.894395,5.67672,10.17842,-1.6022999999999998,0.838681935,-0.43835337,-0.36401274
1764764682.894395,5.96666,7.76734,-4.39488,0.8425271400000001,-0.43749888,-0.362120655
1764764682.894395,5.96666,7.76734,-4.39488,0.8425271400000001,-0.43749888,-0.362120655
1764764682.894395,5.96666,7.76734,-4.39488,0.8425271400000001,-0.43749888,-0.362120655
1764764682.8953938,5.96666,7.76734,-4.39488,0.8425271400000001,-0.43749888,-0.362120655
1764764682.8953938,5.96666,7.76734,-4.39488,0.8425271400000001,-0.43749888,-0.362120655
1764764682.8953938,5.96666,7.76734,-4.39488,0.8425271400000001,-0.43749888,-0.362120655
1764764682.9434872,5.96666,7.76734,-4.39488,0.8425271400000001,-0.43749888,-0.362120655
1764764682.9434872,5.96666,7.76734,-4.39488,0.8425271400000001,-0.43749888,-0.362120655
1764764682.9434872,5.96666,7.76734,-4.39488,0.8425271400000001,-0.43749888,-0.362120655
1764764682.9434872,5.96666,7.76734,-4.39488,0.8425271400000001,-0.43749888,-0.362120655
1764764682.9434872,3.52506,6.66862,-6.28712,0.84667752,-0.43151745,-0.361998585
1764764682.9434872,3.52506,6.66862,-6.28712,0.84667752,-0.43151745,-0.361998585
1764764682.9434872,3.52506,6.66862,-6.28712,0.84667752,-0.43151745,-0.361998585
1764764682.9434872,3.52506,6.66862,-6.28712,0.84667752,-0.43151745,-0.361998585
1764764682.9434872,3.52506,6.66862,-6.28712,0.84667752,-0.43151745,-0.361998585
1764764682.9434872,3.52506,6.66862,-6.28712,0.84667752,-0.43151745,-0.361998585
1764764682.9434872,3.52506,6.66862,-6.28712,0.84667752,-0.43151745,-0.361998585
1764764682.9434872,3.52506,6.66862,-6.28712,0.84667752,-0.43151745,-0.361998585
1764764682.9434872,3.52506,6.66862,-6.28712,0.84667752,-0.43151745,-0.361998585
1764764682.9434872,3.52506,6.66862,-6.28712,0.84667752,-0.43151745,-0.361998585
1764764682.9434872,1.15976,7.63,-7.56896,0.85400172,-0.42663465,-0.360899955
1764764682.9434872,1.15976,7.63,-7.56896,0.85400172,-0.42663465,-0.360899955
1764764682.9434872,1.15976,7.63,-7.56896,0.85400172,-0.42663465,-0.360899955
1764764682.9434872,1.15976,7.63,-7.56896,0.85400172,-0.42663465,-0.360899955
1764764682.9434872,1.15976,7.63,-7.56896,0.85400172,-0.42663465,-0.360899955
1764764682.9434872,1.15976,7.63,-7.56896,0.85400172,-0.42663465,-0.360899955
1764764682.9434872,1.15976,7.63,-7.56896,0.85400172,-0.42663465,-0.360899955
1764764682.9434872,1.15976,7.63,-7.56896,0.85400172,-0.42663465,-0.360899955
1764764682.9434872,1.15976,7.63,-7.56896,0.85400172,-0.42663465,-0.360899955
1764764682.9434872,1.15976,7.63,-7.56896,0.85400172,-0.42663465,-0.360899955
1764764682.990304,-0.18312,10.92616,-6.88226,0.859433835,-0.42675672,-0.35900787
1764764682.990304,-0.18312,10.92616,-6.88226,0.859433835,-0.42675672,-0.35900787
1764764682.990304,-0.18312,10.92616,-6.88226,0.859433835,-0.42675672,-0.35900787
1764764682.990304,-0.18312,10.92616,-6.88226,0.859433835,-0.42675672,-0.35900787
1764764682.990304,-0.18312,10.92616,-6.88226,0.859433835,-0.42675672,-0.35900787
1764764682.990304,-0.18312,10.92616,-6.88226,0.859433835,-0.42675672,-0.35900787
1764764682.990304,-0.18312,10.92616,-6.88226,0.859433835,-0.42675672,-0.35900787
1764764682.990304,-0.18312,10.92616,-6.88226,0.859433835,-0.42675672,-0.35900787
1764764682.990304,-0.18312,10.92616,-6.88226,0.859433835,-0.42675672,-0.35900787
1764764682.990304,-0.18312,10.92616,-6.88226,0.859433835,-0.42675672,-0.35900787
1764764682.990304,2.38056,12.83366,-4.22702,0.8581521,-0.43078503,-0.35607819
1764764682.990304,2.38056,12.83366,-4.22702,0.8581521,-0.43078503,-0.35607819
1764764682.990304,2.38056,12.83366,-4.22702,0.8581521,-0.43078503,-0.35607819
1764764682.990304,2.38056,12.83366,-4.22702,0.8581521,-0.43078503,-0.35607819
1764764682.990304,2.38056,12.83366,-4.22702,0.8581521,-0.43078503,-0.35607819
1764764682.990304,2.38056,12.83366,-4.22702,0.8581521,-0.43078503,-0.35607819
1764764682.990304,2.38056,12.83366,-4.22702,0.8581521,-0.43078503,-0.35607819
1764764682.990304,2.38056,12.83366,-4.22702,0.8581521,-0.43078503,-0.35607819
1764764682.990304,2.38056,12.83366,-4.22702,0.8581521,-0.43078503,-0.35607819
1764764682.990304,2.38056,12.83366,-4.22702,0.8581521,-0.43078503,-0.35607819
1764764682.9914012,8.19462,13.6577,2.38056,0.853208265,-0.440367525,-0.3527823
1764764682.9914012,8.19462,13.6577,2.38056,0.853208265,-0.440367525,-0.3527823
1764764682.9914012,8.19462,13.6577,2.38056,0.853208265,-0.440367525,-0.3527823
1764764682.9914012,8.19462,13.6577,2.38056,0.853208265,-0.440367525,-0.3527823
1764764683.0373087,8.19462,13.6577,2.38056,0.853208265,-0.440367525,-0.3527823
1764764683.0373087,8.19462,13.6577,2.38056,0.853208265,-0.440367525,-0.3527823
1764764683.0373087,8.19462,13.6577,2.38056,0.853208265,-0.440367525,-0.3527823
1764764683.0373087,8.19462,13.6577,2.38056,0.853208265,-0.440367525,-0.3527823
1764764683.0373087,8.19462,13.6577,2.38056,0.853208265,-0.440367525,-0.3527823
1764764683.0373087,8.19462,13.6577,2.38056,0.853208265,-0.440367525,-0.3527823
1764764683.0373087,12.8184,14.60382,10.5294,0.848935815,-0.4443348,-0.352232985
1764764683.0373087,12.8184,14.60382,10.5294,0.848935815,-0.4443348,-0.352232985
1764764683.038489,12.8184,14.60382,10.5294,0.848935815,-0.4443348,-0.352232985
1764764683.038489,12.8184,14.60382,10.5294,0.848935815,-0.4443348,-0.352232985
1764764683.038489,12.8184,14.60382,10.5294,0.848935815,-0.4443348,-0.352232985
1764764683.038489,12.8184,14.60382,10.5294,0.848935815,-0.4443348,-0.352232985
1764764683.038489,12.8184,14.60382,10.5294,0.848935815,-0.4443348,-0.352232985
1764764683.038489,12.8184,14.60382,10.5294,0.848935815,-0.4443348,-0.352232985
1764764683.038489,12.8184,14.60382,10.5294,0.848935815,-0.4443348,-0.352232985
1764764683.038489,12.8184,14.60382,10.5294,0.848935815,-0.4443348,-0.352232985
1764764683.038489,13.26094,12.68106,16.312939999999998,0.84692166,-0.441832365,-0.35424714
1764764683.038489,13.26094,12.68106,16.312939999999998,0.84692166,-0.441832365,-0.35424714
1764764683.038489,13.26094,12.68106,16.312939999999998,0.84692166,-0.441832365,-0.35424714
1764764683.038489,13.26094,12.68106,16.312939999999998,0.84692166,-0.441832365,-0.35424714
1764764683.038489,13.26094,12.68106,16.312939999999998,0.84692166,-0.441832365,-0.35424714
1764764683.038489,13.26094,12.68106,16.312939999999998,0.84692166,-0.441832365,-0.35424714
1764764683.038489,13.26094,12.68106,16.312939999999998,0.84692166,-0.441832365,-0.35424714
1764764683.038489,13.26094,12.68106,16.312939999999998,0.84692166,-0.441832365,-0.35424714
1764764683.0855994,13.26094,12.68106,16.312939999999998,0.84692166,-0.441832365,-0.35424714
1764764683.0855994,13.26094,12.68106,16.312939999999998,0.84692166,-0.441832365,-0.35424714
1764764683.0855994,12.37586,11.07876,19.6854,0.847837185,-0.439757175,-0.35558991
1764764683.0855994,12.37586,11.07876,19.6854,0.847837185,-0.439757175,-0.35558991
1764764683.0855994,12.37586,11.07876,19.6854,0.847837185,-0.439757175,-0.35558991
1764764683.0855994,12.37586,11.07876,19.6854,0.847837185,-0.439757175,-0.35558991
1764764683.0855994,12.37586,11.07876,19.6854,0.847837185,-0.439757175,-0.35558991
1764764683.0855994,12.37586,11.07876,19.6854,0.847837185,-0.439757175,-0.35558991
1764764683.0855994,12.37586,11.07876,19.6854,0.847837185,-0.439757175,-0.35558991
1764764683.086629,12.37586,11.07876,19.6854,0.847837185,-0.439757175,-0.35558991
1764764683.086629,12.37586,11.07876,19.6854,0.847837185,-0.439757175,-0.35558991
1764764683.086629,12.37586,11.07876,19.6854,0.847837185,-0.439757175,-0.35558991
1764764683.086629,11.24662,10.04108,20.00586,0.84948513,-0.43798716,-0.352599195
1764764683.086629,11.24662,10.04108,20.00586,0.84948513,-0.43798716,-0.352599195
1764764683.086629,11.24662,10.04108,20.00586,0.84948513,-0.43798716,-0.352599195
1764764683.086629,11.24662,10.04108,20.00586,0.84948513,-0.43798716,-0.352599195
1764764683.086629,11.24662,10.04108,20.00586,0.84948513,-0.43798716,-0.352599195
1764764683.086629,11.24662,10.04108,20.00586,0.84948513,-0.43798716,-0.352599195
1764764683.086629,11.24662,10.04108,20.00586,0.84948513,-0.43798716,-0.352599195
1764764683.086629,11.24662,10.04108,20.00586,0.84948513,-0.43798716,-0.352599195
1764764683.086629,11.24662,10.04108,20.00586,0.84948513,-0.43798716,-0.352599195
1764764683.086629,11.24662,10.04108,20.00586,0.84948513,-0.43798716,-0.352599195
1764764683.086629,11.17032,11.55182,17.15224,0.852719985,-0.43737681,-0.346983975
1764764683.086629,11.17032,11.55182,17.15224,0.852719985,-0.43737681,-0.346983975
1764764683.1326697,11.17032,11.55182,17.15224,0.852719985,-0.43737681,-0.346983975
1764764683.1326697,11.17032,11.55182,17.15224,0.852719985,-0.43737681,-0.346983975
1764764683.1326697,11.17032,11.55182,17.15224,0.852719985,-0.43737681,-0.346983975
1764764683.1326697,11.17032,11.55182,17.15224,0.852719985,-0.43737681,-0.346983975
1764764683.1326697,11.17032,11.55182,17.15224,0.852719985,-0.43737681,-0.346983975
1764764683.1326697,11.17032,11.55182,17.15224,0.852719985,-0.43737681,-0.346983975
1764764683.1326697,11.17032,11.55182,17.15224,0.852719985,-0.43737681,-0.346983975
1764764683.1326697,11.17032,11.55182,17.15224,0.852719985,-0.43737681,-0.346983975
1764764683.1326697,10.69726,13.44406,10.49888,0.858457275,-0.439024755,-0.34362705
1764764683.133682,10.69726,13.44406,10.49888,0.858457275,-0.439024755,-0.34362705
1764764683.133682,10.69726,13.44406,10.49888,0.858457275,-0.439024755,-0.34362705
1764764683.133682,10.69726,13.44406,10.49888,0.858457275,-0.439024755,-0.34362705
1764764683.133682,10.69726,13.44406,10.49888,0.858457275,-0.439024755,-0.34362705
1764764683.133682,10.69726,13.44406,10.49888,0.858457275,-0.439024755,-0.34362705
1764764683.133682,10.69726,13.44406,10.49888,0.858457275,-0.439024755,-0.34362705
1764764683.133682,10.69726,13.44406,10.49888,0.858457275,-0.439024755,-0.34362705
1764764683.133682,10.69726,13.44406,10.49888,0.858457275,-0.439024755,-0.34362705
1764764683.133682,10.69726,13.44406,10.49888,0.858457275,-0.439024755,-0.34362705
1764764683.133682,10.65148,15.82462,5.20366,0.86315697,-0.44238168,-0.341002545
1764764683.133682,10.65148,15.82462,5.20366,0.86315697,-0.44238168,-0.341002545
1764764683.133682,10.65148,15.82462,5.20366,0.86315697,-0.44238168,-0.341002545
1764764683.133682,10.65148,15.82462,5.20366,0.86315697,-0.44238168,-0.341002545
1764764683.1775925,10.65148,15.82462,5.20366,0.86315697,-0.44238168,-0.341002545
1764764683.1775925,10.65148,15.82462,5.20366,0.86315697,-0.44238168,-0.341002545
1764764683.1775925,10.65148,15.82462,5.20366,0.86315697,-0.44238168,-0.341002545
1764764683.1775925,10.65148,15.82462,5.20366,0.86315697,-0.44238168,-0.341002545
1764764683.1775925,10.65148,15.82462,5.20366,0.86315697,-0.44238168,-0.341002545
1764764683.1775925,10.65148,15.82462,5.20366,0.86315697,-0.44238168,-0.341002545
1764764683.1775925,11.27714,16.80126,1.25132,0.860532465,-0.44775276,-0.33715734
1764764683.1775925,11.27714,16.80126,1.25132,0.860532465,-0.44775276,-0.33715734
1764764683.1775925,11.27714,16.80126,1.25132,0.860532465,-0.44775276,-0.33715734
1764764683.1775925,11.27714,16.80126,1.25132,0.860532465,-0.44775276,-0.33715734
1764764683.1793375,11.27714,16.80126,1.25132,0.860532465,-0.44775276,-0.33715734
1764764683.1793375,11.27714,16.80126,1.25132,0.860532465,-0.44775276,-0.33715734
1764764683.1793375,11.27714,16.80126,1.25132,0.860532465,-0.44775276,-0.33715734
1764764683.1793375,11.27714,16.80126,1.25132,0.860532465,-0.44775276,-0.33715734
1764764683.1793375,11.27714,16.80126,1.25132,0.860532465,-0.44775276,-0.33715734
1764764683.1793375,11.27714,16.80126,1.25132,0.860532465,-0.44775276,-0.33715734
1764764683.1798613,11.18558,17.18276,-0.56462,0.8569314,-0.45104865,-0.33532629
1764764683.1798613,11.18558,17.18276,-0.56462,0.8569314,-0.45104865,-0.33532629
1764764683.1798613,11.18558,17.18276,-0.56462,0.8569314,-0.45104865,-0.33532629
1764764683.1798613,11.18558,17.18276,-0.56462,0.8569314,-0.45104865,-0.33532629
1764764683.1798613,11.18558,17.18276,-0.56462,0.8569314,-0.45104865,-0.33532629
1764764683.1798613,11.18558,17.18276,-0.56462,0.8569314,-0.45104865,-0.33532629
1764764683.1798613,11.18558,17.18276,-0.56462,0.8569314,-0.45104865,-0.33532629
1764764683.1798613,11.18558,17.18276,-0.56462,0.8569314,-0.45104865,-0.33532629
1764764683.2271335,11.18558,17.18276,-0.56462,0.8569314,-0.45104865,-0.33532629
1764764683.2271335,11.18558,17.18276,-0.56462,0.8569314,-0.45104865,-0.33532629
1764764683.2271335,11.01772,17.136979999999998,-1.84646,0.85741968,-0.454527645,-0.333800415
1764764683.2271335,11.01772,17.136979999999998,-1.84646,0.85741968,-0.454527645,-0.333800415
1764764683.2271335,11.01772,17.136979999999998,-1.84646,0.85741968,-0.454527645,-0.333800415
1764764683.2271335,11.01772,17.136979999999998,-1.84646,0.85741968,-0.454527645,-0.333800415
1764764683.2271335,11.01772,17.136979999999998,-1.84646,0.85741968,-0.454527645,-0.333800415
1764764683.2271335,11.01772,17.136979999999998,-1.84646,0.85741968,-0.454527645,-0.333800415
1764764683.2271335,11.01772,17.136979999999998,-1.84646,0.85741968,-0.454527645,-0.333800415
1764764683.2271335,11.01772,17.136979999999998,-1.84646,0.85741968,-0.454527645,-0.333800415
1764764683.2271335,11.01772,17.136979999999998,-1.84646,0.85741968,-0.454527645,-0.333800415
1764764683.2271335,11.01772,17.136979999999998,-1.84646,0.85741968,-0.454527645,-0.333800415
1764764683.2271335,13.36776,20.86042,-3.2809,0.8650490550000001,-0.45922734,-0.329039685
1764764683.2271335,13.36776,20.86042,-3.2809,0.8650490550000001,-0.45922734,-0.329039685
1764764683.2271335,13.36776,20.86042,-3.2809,0.8650490550000001,-0.45922734,-0.329039685
1764764683.2271335,13.36776,20.86042,-3.2809,0.8650490550000001,-0.45922734,-0.329039685
1764764683.2271335,13.36776,20.86042,-3.2809,0.8650490550000001,-0.45922734,-0.329039685
1764764683.2271335,13.36776,20.86042,-3.2809,0.8650490550000001,-0.45922734,-0.329039685
1764764683.2271335,13.36776,20.86042,-3.2809,0.8650490550000001,-0.45922734,-0.329039685
1764764683.2271335,13.36776,20.86042,-3.2809,0.8650490550000001,-0.45922734,-0.329039685
1764764683.2271335,13.36776,20.86042,-3.2809,0.8650490550000001,-0.45922734,-0.329039685
1764764683.2271335,13.36776,20.86042,-3.2809,0.8650490550000001,-0.45922734,-0.329039685
1764764683.2738097,16.80126,24.84328,-4.16598,0.87194601,-0.462950475,-0.323424465
1764764683.2738097,16.80126,24.84328,-4.16598,0.87194601,-0.462950475,-0.323424465
1764764683.2738097,16.80126,24.84328,-4.16598,0.87194601,-0.462950475,-0.323424465
1764764683.2738097,16.80126,24.84328,-4.16598,0.87194601,-0.462950475,-0.323424465
1764764683.2738097,16.80126,24.84328,-4.16598,0.87194601,-0.462950475,-0.323424465
1764764683.2738097,16.80126,24.84328,-4.16598,0.87194601,-0.462950475,-0.323424465
1764764683.2738097,16.80126,24.84328,-4.16598,0.87194601,-0.462950475,-0.323424465
1764764683.2738097,16.80126,24.84328,-4.16598,0.87194601,-0.462950475,-0.323424465
1764764683.2738097,16.80126,24.84328,-4.16598,0.87194601,-0.462950475,-0.323424465
1764764683.2738097,16.80126,24.84328,-4.16598,0.87194601,-0.462950475,-0.323424465
1764764683.2738097,20.73834,27.6969,-5.98192,0.87194601,-0.464659455,-0.31750407
1764764683.2738097,20.73834,27.6969,-5.98192,0.87194601,-0.464659455,-0.31750407
1764764683.2738097,20.73834,27.6969,-5.98192,0.87194601,-0.464659455,-0.31750407
1764764683.2738097,20.73834,27.6969,-5.98192,0.87194601,-0.464659455,-0.31750407
1764764683.2738097,20.73834,27.6969,-5.98192,0.87194601,-0.464659455,-0.31750407
1764764683.2738097,20.73834,27.6969,-5.98192,0.87194601,-0.464659455,-0.31750407
1764764683.2738097,20.73834,27.6969,-5.98192,0.87194601,-0.464659455,-0.31750407
1764764683.2738097,20.73834,27.6969,-5.98192,0.87194601,-0.464659455,-0.31750407
1764764683.2738097,20.73834,27.6969,-5.98192,0.87194601,-0.464659455,-0.31750407
1764764683.2738097,20.73834,27.6969,-5.98192,0.87194601,-0.464659455,-0.31750407
1764764683.2738097,25.24004,28.994,-6.50076,0.869077365,-0.46557498,-0.31091229
1764764683.2738097,25.24004,28.994,-6.50076,0.869077365,-0.46557498,-0.31091229
1764764683.2738097,25.24004,28.994,-6.50076,0.869077365,-0.46557498,-0.31091229
1764764683.2738097,25.24004,28.994,-6.50076,0.869077365,-0.46557498,-0.31091229
1764764683.3187375,25.24004,28.994,-6.50076,0.869077365,-0.46557498,-0.31091229
1764764683.3187375,25.24004,28.994,-6.50076,0.869077365,-0.46557498,-0.31091229
1764764683.3187375,25.24004,28.994,-6.50076,0.869077365,-0.46557498,-0.31091229
1764764683.3187375,25.24004,28.994,-6.50076,0.869077365,-0.46557498,-0.31091229
1764764683.3187375,25.24004,28.994,-6.50076,0.869077365,-0.46557498,-0.31091229
1764764683.3187375,25.24004,28.994,-6.50076,0.869077365,-0.46557498,-0.31091229
1764764683.3187375,30.7489,32.427499999999995,-6.14978,0.87121359,-0.468077415,-0.30126876
1764764683.3187375,30.7489,32.427499999999995,-6.14978,0.87121359,-0.468077415,-0.30126876
1764764683.3187375,30.7489,32.427499999999995,-6.14978,0.87121359,-0.468077415,-0.30126876
1764764683.3187375,30.7489,32.427499999999995,-6.14978,0.87121359,-0.468077415,-0.30126876
1764764683.3187375,30.7489,32.427499999999995,-6.14978,0.87121359,-0.468077415,-0.30126876
1764764683.3187375,30.7489,32.427499999999995,-6.14978,0.87121359,-0.468077415,-0.30126876
1764764683.3187375,30.7489,32.427499999999995,-6.14978,0.87121359,-0.468077415,-0.30126876
1764764683.3187375,30.7489,32.427499999999995,-6.14978,0.87121359,-0.468077415,-0.30126876
1764764683.3187375,30.7489,32.427499999999995,-6.14978,0.87121359,-0.468077415,-0.30126876
1764764683.3187375,30.7489,32.427499999999995,-6.14978,0.87121359,-0.468077415,-0.30126876
1764764683.3187375,34.15188,34.96066,-6.77544,0.874082235,-0.467467065,-0.29589768
1764764683.3187375,34.15188,34.96066,-6.77544,0.874082235,-0.467467065,-0.29589768
1764764683.3187375,34.15188,34.96066,-6.77544,0.874082235,-0.467467065,-0.29589768
1764764683.3187375,34.15188,34.96066,-6.77544,0.874082235,-0.467467065,-0.29589768
1764764683.3187375,34.15188,34.96066,-6.77544,0.874082235,-0.467467065,-0.29589768
1764764683.3187375,34.15188,34.96066,-6.77544,0.874082235,-0.467467065,-0.29589768
1764764683.3187375,34.15188,34.96066,-6.77544,0.874082235,-0.467467065,-0.29589768
1764764683.3187375,34.15188,34.96066,-6.77544,0.874082235,-0.467467065,-0.29589768
1764764683.3656187,34.15188,34.96066,-6.77544,0.874082235,-0.467467065,-0.29589768
1764764683.3656187,34.15188,34.96066,-6.77544,0.874082235,-0.467467065,-0.29589768
1764764683.3656187,35.67788,34.06032,-6.89752,0.871030485,-0.46337772,-0.2917473
1764764683.3656187,35.67788,34.06032,-6.89752,0.871030485,-0.46337772,-0.2917473
1764764683.3656187,35.67788,34.06032,-6.89752,0.871030485,-0.46337772,-0.2917473
1764764683.3656187,35.67788,34.06032,-6.89752,0.871030485,-0.46337772,-0.2917473
1764764683.3656187,35.67788,34.06032,-6.89752,0.871030485,-0.46337772,-0.2917473
1764764683.3656187,35.67788,34.06032,-6.89752,0.871030485,-0.46337772,-0.2917473
1764764683.3656187,35.67788,34.06032,-6.89752,0.871030485,-0.46337772,-0.2917473
1764764683.3656187,35.67788,34.06032,-6.89752,0.871030485,-0.46337772,-0.2917473
1764764683.3656187,35.67788,34.06032,-6.89752,0.871030485,-0.46337772,-0.2917473
1764764683.3656187,35.67788,34.06032,-6.89752,0.871030485,-0.46337772,-0.2917473
1764764683.3656187,36.7003,32.076519999999995,-6.271859999999999,0.8679177,-0.459654585,-0.2856438
1764764683.3656187,36.7003,32.076519999999995,-6.271859999999999,0.8679177,-0.459654585,-0.2856438
1764764683.3656187,36.7003,32.076519999999995,-6.271859999999999,0.8679177,-0.459654585,-0.2856438
1764764683.3656187,36.7003,32.076519999999995,-6.271859999999999,0.8679177,-0.459654585,-0.2856438
1764764683.3656187,36.7003,32.076519999999995,-6.271859999999999,0.8679177,-0.459654585,-0.2856438
1764764683.3656187,36.7003,32.076519999999995,-6.271859999999999,0.8679177,-0.459654585,-0.2856438
1764764683.3656187,36.7003,32.076519999999995,-6.271859999999999,0.8679177,-0.459654585,-0.2856438
1764764683.3656187,36.7003,32.076519999999995,-6.271859999999999,0.8679177,-0.459654585,-0.2856438
1764764683.3656187,36.7003,32.076519999999995,-6.271859999999999,0.8679177,-0.459654585,-0.2856438
1764764683.3671577,36.7003,32.076519999999995,-6.271859999999999,0.8679177,-0.459654585,-0.2856438
1764764683.4133642,37.78376,31.29826,-4.86794,0.866880105,-0.458067675,-0.278014425
1764764683.4133642,37.78376,31.29826,-4.86794,0.866880105,-0.458067675,-0.278014425
1764764683.4133642,37.78376,31.29826,-4.86794,0.866880105,-0.458067675,-0.278014425
1764764683.4133642,37.78376,31.29826,-4.86794,0.866880105,-0.458067675,-0.278014425
1764764683.4133642,37.78376,31.29826,-4.86794,0.866880105,-0.458067675,-0.278014425
1764764683.4133642,37.78376,31.29826,-4.86794,0.866880105,-0.458067675,-0.278014425
1764764683.4133642,37.78376,31.29826,-4.86794,0.866880105,-0.458067675,-0.278014425
1764764683.4133642,37.78376,31.29826,-4.86794,0.866880105,-0.458067675,-0.278014425
1764764683.4133642,37.78376,31.29826,-4.86794,0.866880105,-0.458067675,-0.278014425
1764764683.4133642,37.78376,31.29826,-4.86794,0.866880105,-0.458067675,-0.278014425
1764764683.4133642,39.72178,31.11514,-3.5861,0.86816184,-0.45800664,-0.268737105
1764764683.4133642,39.72178,31.11514,-3.5861,0.86816184,-0.45800664,-0.268737105
1764764683.4133642,39.72178,31.11514,-3.5861,0.86816184,-0.45800664,-0.268737105
1764764683.4133642,39.72178,31.11514,-3.5861,0.86816184,-0.45800664,-0.268737105
1764764683.4133642,39.72178,31.11514,-3.5861,0.86816184,-0.45800664,-0.268737105
1764764683.4133642,39.72178,31.11514,-3.5861,0.86816184,-0.45800664,-0.268737105
1764764683.4133642,39.72178,31.11514,-3.5861,0.86816184,-0.45800664,-0.268737105
1764764683.4133642,39.72178,31.11514,-3.5861,0.86816184,-0.45800664,-0.268737105
1764764683.4133642,39.72178,31.11514,-3.5861,0.86816184,-0.45800664,-0.268737105
1764764683.4133642,39.72178,31.11514,-3.5861,0.86816184,-0.45800664,-0.268737105
1764764683.4133642,41.00362,30.42844,-3.18934,0.868833225,-0.45727422,-0.26098566
1764764683.4133642,41.00362,30.42844,-3.18934,0.868833225,-0.45727422,-0.26098566
1764764683.4133642,41.00362,30.42844,-3.18934,0.868833225,-0.45727422,-0.26098566
1764764683.4133642,41.00362,30.42844,-3.18934,0.868833225,-0.45727422,-0.26098566
1764764683.4576662,41.00362,30.42844,-3.18934,0.868833225,-0.45727422,-0.26098566
1764764683.458177,41.00362,30.42844,-3.18934,0.868833225,-0.45727422,-0.26098566
1764764683.458177,41.00362,30.42844,-3.18934,0.868833225,-0.45727422,-0.26098566
1764764683.458177,41.00362,30.42844,-3.18934,0.868833225,-0.45727422,-0.26098566
1764764683.458177,41.00362,30.42844,-3.18934,0.868833225,-0.45727422,-0.26098566
1764764683.458177,41.00362,30.42844,-3.18934,0.868833225,-0.45727422,-0.26098566
1764764683.458177,42.2702,29.97064,-1.7549,0.8691384,-0.45739629,-0.25305111
1764764683.458177,42.2702,29.97064,-1.7549,0.8691384,-0.45739629,-0.25305111
1764764683.458177,42.2702,29.97064,-1.7549,0.8691384,-0.45739629,-0.25305111
1764764683.458177,42.2702,29.97064,-1.7549,0.8691384,-0.45739629,-0.25305111
1764764683.458177,42.2702,29.97064,-1.7549,0.8691384,-0.45739629,-0.25305111
1764764683.458177,42.2702,29.97064,-1.7549,0.8691384,-0.45739629,-0.25305111
1764764683.458177,42.2702,29.97064,-1.7549,0.8691384,-0.45739629,-0.25305111
1764764683.458177,42.2702,29.97064,-1.7549,0.8691384,-0.45739629,-0.25305111
1764764683.458177,42.2702,29.97064,-1.7549,0.8691384,-0.45739629,-0.25305111
1764764683.458177,42.2702,29.97064,-1.7549,0.8691384,-0.45739629,-0.25305111
1764764683.458177,43.1858,29.2992,-1.12924,0.870908415,-0.45825078,-0.246276225
1764764683.458177,43.1858,29.2992,-1.12924,0.870908415,-0.45825078,-0.246276225
1764764683.458177,43.1858,29.2992,-1.12924,0.870908415,-0.45825078,-0.246276225
1764764683.458177,43.1858,29.2992,-1.12924,0.870908415,-0.45825078,-0.246276225
1764764683.458177,43.1858,29.2992,-1.12924,0.870908415,-0.45825078,-0.246276225
1764764683.458177,43.1858,29.2992,-1.12924,0.870908415,-0.45825078,-0.246276225
1764764683.458177,43.1858,29.2992,-1.12924,0.870908415,-0.45825078,-0.246276225
1764764683.458177,43.1858,29.2992,-1.12924,0.870908415,-0.45825078,-0.246276225
1764764683.50475,43.1858,29.2992,-1.12924,0.870908415,-0.45825078,-0.246276225
1764764683.50475,43.1858,29.2992,-1.12924,0.870908415,-0.45825078,-0.246276225
1764764683.50475,43.81146,29.9096,-0.36624,0.872373255,-0.457335255,-0.23876892
1764764683.50475,43.81146,29.9096,-0.36624,0.872373255,-0.457335255,-0.23876892
1764764683.50475,43.81146,29.9096,-0.36624,0.872373255,-0.457335255,-0.23876892
1764764683.50475,43.81146,29.9096,-0.36624,0.872373255,-0.457335255,-0.23876892
1764764683.50475,43.81146,29.9096,-0.36624,0.872373255,-0.457335255,-0.23876892
1764764683.50475,43.81146,29.9096,-0.36624,0.872373255,-0.457335255,-0.23876892
1764764683.50475,43.81146,29.9096,-0.36624,0.872373255,-0.457335255,-0.23876892
1764764683.50475,43.81146,29.9096,-0.36624,0.872373255,-0.457335255,-0.23876892
1764764683.50475,43.81146,29.9096,-0.36624,0.872373255,-0.457335255,-0.23876892
1764764683.50475,43.81146,29.9096,-0.36624,0.872373255,-0.457335255,-0.23876892
1764764683.50475,44.23874,29.54336,-0.6714399999999999,0.87389913,-0.456114555,-0.232848525
1764764683.50475,44.23874,29.54336,-0.6714399999999999,0.87389913,-0.456114555,-0.232848525
1764764683.50475,44.23874,29.54336,-0.6714399999999999,0.87389913,-0.456114555,-0.232848525
1764764683.50475,44.23874,29.54336,-0.6714399999999999,0.87389913,-0.456114555,-0.232848525
1764764683.50475,44.23874,29.54336,-0.6714399999999999,0.87389913,-0.456114555,-0.232848525
1764764683.50475,44.23874,29.54336,-0.6714399999999999,0.87389913,-0.456114555,-0.232848525
1764764683.5057652,44.23874,29.54336,-0.6714399999999999,0.87389913,-0.456114555,-0.232848525
1764764683.5057652,44.23874,29.54336,-0.6714399999999999,0.87389913,-0.456114555,-0.232848525
1764764683.5057652,44.23874,29.54336,-0.6714399999999999,0.87389913,-0.456114555,-0.232848525
1764764683.5057652,44.23874,29.54336,-0.6714399999999999,0.87389913,-0.456114555,-0.232848525
1764764683.5519078,43.99458,29.94012,-1.2055399999999998,0.87695088,-0.455382135,-0.227233305
1764764683.5519078,43.99458,29.94012,-1.2055399999999998,0.87695088,-0.455382135,-0.227233305
1764764683.5519078,43.99458,29.94012,-1.2055399999999998,0.87695088,-0.455382135,-0.227233305
1764764683.5519078,43.99458,29.94012,-1.2055399999999998,0.87695088,-0.455382135,-0.227233305
1764764683.5519078,43.99458,29.94012,-1.2055399999999998,0.87695088,-0.455382135,-0.227233305
1764764683.5519078,43.99458,29.94012,-1.2055399999999998,0.87695088,-0.455382135,-0.227233305
1764764683.5519078,43.99458,29.94012,-1.2055399999999998,0.87695088,-0.455382135,-0.227233305
1764764683.5519078,43.99458,29.94012,-1.2055399999999998,0.87695088,-0.455382135,-0.227233305
1764764683.5519078,43.99458,29.94012,-1.2055399999999998,0.87695088,-0.455382135,-0.227233305
1764764683.5519078,43.99458,29.94012,-1.2055399999999998,0.87695088,-0.455382135,-0.227233305
1764764683.5519078,42.25494,28.21574,-2.6705,0.8764626,-0.454039365,-0.22265568
1764764683.5519078,42.25494,28.21574,-2.6705,0.8764626,-0.454039365,-0.22265568
1764764683.5519078,42.25494,28.21574,-2.6705,0.8764626,-0.454039365,-0.22265568
1764764683.5519078,42.25494,28.21574,-2.6705,0.8764626,-0.454039365,-0.22265568
1764764683.5519078,42.25494,28.21574,-2.6705,0.8764626,-0.454039365,-0.22265568
1764764683.5519078,42.25494,28.21574,-2.6705,0.8764626,-0.454039365,-0.22265568
1764764683.5519078,42.25494,28.21574,-2.6705,0.8764626,-0.454039365,-0.22265568
1764764683.5519078,42.25494,28.21574,-2.6705,0.8764626,-0.454039365,-0.22265568
1764764683.5519078,42.25494,28.21574,-2.6705,0.8764626,-0.454039365,-0.22265568
1764764683.5519078,42.25494,28.21574,-2.6705,0.8764626,-0.454039365,-0.22265568
1764764683.5519078,40.19484,25.77414,-4.01338,0.87463155,-0.451353825,-0.216369075
1764764683.5519078,40.19484,25.77414,-4.01338,0.87463155,-0.451353825,-0.216369075
1764764683.5519078,40.19484,25.77414,-4.01338,0.87463155,-0.451353825,-0.216369075
1764764683.5519078,40.19484,25.77414,-4.01338,0.87463155,-0.451353825,-0.216369075
1764764683.598884,40.19484,25.77414,-4.01338,0.87463155,-0.451353825,-0.216369075
1764764683.598884,40.19484,25.77414,-4.01338,0.87463155,-0.451353825,-0.216369075
1764764683.598884,40.19484,25.77414,-4.01338,0.87463155,-0.451353825,-0.216369075
1764764683.598884,40.19484,25.77414,-4.01338,0.87463155,-0.451353825,-0.216369075
1764764683.598884,40.19484,25.77414,-4.01338,0.87463155,-0.451353825,-0.216369075
1764764683.598884,40.19484,25.77414,-4.01338,0.87463155,-0.451353825,-0.216369075
1764764683.598884,39.5997,26.84234,-5.1884,0.878354685,-0.45226935,-0.206481405
1764764683.598884,39.5997,26.84234,-5.1884,0.878354685,-0.45226935,-0.206481405
1764764683.598884,39.5997,26.84234,-5.1884,0.878354685,-0.45226935,-0.206481405
1764764683.5994048,39.5997,26.84234,-5.1884,0.878354685,-0.45226935,-0.206481405
1764764683.5994048,39.5997,26.84234,-5.1884,0.878354685,-0.45226935,-0.206481405
1764764683.5994048,39.5997,26.84234,-5.1884,0.878354685,-0.45226935,-0.206481405
1764764683.5994048,39.5997,26.84234,-5.1884,0.878354685,-0.45226935,-0.206481405
1764764683.5994048,39.5997,26.84234,-5.1884,0.878354685,-0.45226935,-0.206481405
1764764683.5994048,39.5997,26.84234,-5.1884,0.878354685,-0.45226935,-0.206481405
1764764683.5994048,39.5997,26.84234,-5.1884,0.878354685,-0.45226935,-0.206481405
1764764683.5994048,39.78282,28.58198,-8.1641,0.8837868,-0.45361212,-0.198302715
1764764683.5994048,39.78282,28.58198,-8.1641,0.8837868,-0.45361212,-0.198302715
1764764683.5994048,39.78282,28.58198,-8.1641,0.8837868,-0.45361212,-0.198302715
1764764683.5994048,39.78282,28.58198,-8.1641,0.8837868,-0.45361212,-0.198302715
1764764683.5994048,39.78282,28.58198,-8.1641,0.8837868,-0.45361212,-0.198302715
1764764683.5994048,39.78282,28.58198,-8.1641,0.8837868,-0.45361212,-0.198302715
1764764683.5994048,39.78282,28.58198,-8.1641,0.8837868,-0.45361212,-0.198302715
1764764683.5994048,39.78282,28.58198,-8.1641,0.8837868,-0.45361212,-0.198302715
1764764683.6454804,39.78282,28.58198,-8.1641,0.8837868,-0.45361212,-0.198302715
1764764683.6454804,39.78282,28.58198,-8.1641,0.8837868,-0.45361212,-0.198302715
1764764683.6454804,37.9211,27.14754,-11.47552,0.885068535,-0.45226935,-0.192321285
1764764683.6465178,37.9211,27.14754,-11.47552,0.885068535,-0.45226935,-0.192321285
1764764683.6465178,37.9211,27.14754,-11.47552,0.885068535,-0.45226935,-0.192321285
1764764683.6465178,37.9211,27.14754,-11.47552,0.885068535,-0.45226935,-0.192321285
1764764683.6465178,37.9211,27.14754,-11.47552,0.885068535,-0.45226935,-0.192321285
1764764683.6465178,37.9211,27.14754,-11.47552,0.885068535,-0.45226935,-0.192321285
1764764683.6465178,37.9211,27.14754,-11.47552,0.885068535,-0.45226935,-0.192321285
1764764683.6465178,37.9211,27.14754,-11.47552,0.885068535,-0.45226935,-0.192321285
1764764683.6475372,37.9211,27.14754,-11.47552,0.885068535,-0.45226935,-0.192321285
1764764683.6475372,37.9211,27.14754,-11.47552,0.885068535,-0.45226935,-0.192321285
1764764683.6485367,36.51718,26.4761,-14.66486,0.884580255,-0.45239142,-0.183898455
1764764683.6485367,36.51718,26.4761,-14.66486,0.884580255,-0.45239142,-0.183898455
1764764683.6485367,36.51718,26.4761,-14.66486,0.884580255,-0.45239142,-0.183898455
1764764683.6485367,36.51718,26.4761,-14.66486,0.884580255,-0.45239142,-0.183898455
1764764683.6485367,36.51718,26.4761,-14.66486,0.884580255,-0.45239142,-0.183898455
1764764683.6485367,36.51718,26.4761,-14.66486,0.884580255,-0.45239142,-0.183898455
1764764683.6485367,36.51718,26.4761,-14.66486,0.884580255,-0.45239142,-0.183898455
1764764683.6485367,36.51718,26.4761,-14.66486,0.884580255,-0.45239142,-0.183898455
1764764683.6485367,36.51718,26.4761,-14.66486,0.884580255,-0.45239142,-0.183898455
1764764683.6485367,36.51718,26.4761,-14.66486,0.884580255,-0.45239142,-0.183898455
1764764683.6485367,34.28922,24.06502,-17.4727,0.88207782,-0.451964175,-0.17687943
1764764683.6485367,34.28922,24.06502,-17.4727,0.88207782,-0.451964175,-0.17687943
1764764683.6942923,34.28922,24.06502,-17.4727,0.88207782,-0.451964175,-0.17687943
1764764683.6942923,34.28922,24.06502,-17.4727,0.88207782,-0.451964175,-0.17687943
1764764683.6942923,34.28922,24.06502,-17.4727,0.88207782,-0.451964175,-0.17687943
1764764683.6942923,34.28922,24.06502,-17.4727,0.88207782,-0.451964175,-0.17687943
1764764683.6942923,34.28922,24.06502,-17.4727,0.88207782,-0.451964175,-0.17687943
1764764683.6942923,34.28922,24.06502,-17.4727,0.88207782,-0.451964175,-0.17687943
1764764683.6942923,34.28922,24.06502,-17.4727,0.88207782,-0.451964175,-0.17687943
1764764683.6942923,34.28922,24.06502,-17.4727,0.88207782,-0.451964175,-0.17687943
1764764683.6942923,30.03168,21.40978,-18.52564,0.882993345,-0.450133125,-0.1721187
1764764683.6953125,30.03168,21.40978,-18.52564,0.882993345,-0.450133125,-0.1721187
1764764683.6953125,30.03168,21.40978,-18.52564,0.882993345,-0.450133125,-0.1721187
1764764683.6953125,30.03168,21.40978,-18.52564,0.882993345,-0.450133125,-0.1721187
1764764683.6953125,30.03168,21.40978,-18.52564,0.882993345,-0.450133125,-0.1721187
1764764683.6953125,30.03168,21.40978,-18.52564,0.882993345,-0.450133125,-0.1721187
1764764683.6953125,30.03168,21.40978,-18.52564,0.882993345,-0.450133125,-0.1721187
1764764683.6953125,30.03168,21.40978,-18.52564,0.882993345,-0.450133125,-0.1721187
1764764683.6953125,30.03168,21.40978,-18.52564,0.882993345,-0.450133125,-0.1721187
1764764683.6963043,30.03168,21.40978,-18.52564,0.882993345,-0.450133125,-0.1721187
1764764683.6963043,25.72836,21.62342,-20.601,0.89086686,-0.44592171,-0.164733465
1764764683.6963043,25.72836,21.62342,-20.601,0.89086686,-0.44592171,-0.164733465
1764764683.6963043,25.72836,21.62342,-20.601,0.89086686,-0.44592171,-0.164733465
1764764683.6963043,25.72836,21.62342,-20.601,0.89086686,-0.44592171,-0.164733465
1764764683.6963043,25.72836,21.62342,-20.601,0.89086686,-0.44592171,-0.164733465
1764764683.6963043,25.72836,21.62342,-20.601,0.89086686,-0.44592171,-0.164733465
1764764683.7410817,25.72836,21.62342,-20.601,0.89086686,-0.44592171,-0.164733465
1764764683.7410817,25.72836,21.62342,-20.601,0.89086686,-0.44592171,-0.164733465
1764764683.7410817,25.72836,21.62342,-20.601,0.89086686,-0.44592171,-0.164733465
1764764683.7410817,25.72836,21.62342,-20.601,0.89086686,-0.44592171,-0.164733465
1764764683.7410817,22.49324,24.85854,-22.52376,0.89904555,-0.44128305,-0.15600546
1764764683.7410817,22.49324,24.85854,-22.52376,0.89904555,-0.44128305,-0.15600546
1764764683.7410817,22.49324,24.85854,-22.52376,0.89904555,-0.44128305,-0.15600546
1764764683.7410817,22.49324,24.85854,-22.52376,0.89904555,-0.44128305,-0.15600546
1764764683.7410817,22.49324,24.85854,-22.52376,0.89904555,-0.44128305,-0.15600546
1764764683.7410817,22.49324,24.85854,-22.52376,0.89904555,-0.44128305,-0.15600546
1764764683.7410817,22.49324,24.85854,-22.52376,0.89904555,-0.44128305,-0.15600546
1764764683.7410817,22.49324,24.85854,-22.52376,0.89904555,-0.44128305,-0.15600546
1764764683.7410817,22.49324,24.85854,-22.52376,0.89904555,-0.44128305,-0.15600546
1764764683.7410817,22.49324,24.85854,-22.52376,0.89904555,-0.44128305,-0.15600546
1764764683.7410817,19.24286,27.72742,-24.44652,0.901425915,-0.437559915,-0.14941368
1764764683.7410817,19.24286,27.72742,-24.44652,0.901425915,-0.437559915,-0.14941368
1764764683.7410817,19.24286,27.72742,-24.44652,0.901425915,-0.437559915,-0.14941368
1764764683.7410817,19.24286,27.72742,-24.44652,0.901425915,-0.437559915,-0.14941368
1764764683.7410817,19.24286,27.72742,-24.44652,0.901425915,-0.437559915,-0.14941368
1764764683.7410817,19.24286,27.72742,-24.44652,0.901425915,-0.437559915,-0.14941368
1764764683.7410817,19.24286,27.72742,-24.44652,0.901425915,-0.437559915,-0.14941368
1764764683.7410817,19.24286,27.72742,-24.44652,0.901425915,-0.437559915,-0.14941368
1764764683.785082,19.24286,27.72742,-24.44652,0.901425915,-0.437559915,-0.14941368
1764764683.785082,19.24286,27.72742,-24.44652,0.901425915,-0.437559915,-0.14941368
1764764683.785082,16.785999999999998,28.49042,-23.56144,0.89892348,-0.43713267,-0.143371215
1764764683.785082,16.785999999999998,28.49042,-23.56144,0.89892348,-0.43713267,-0.143371215
1764764683.785082,16.785999999999998,28.49042,-23.56144,0.89892348,-0.43713267,-0.143371215
1764764683.785082,16.785999999999998,28.49042,-23.56144,0.89892348,-0.43713267,-0.143371215
1764764683.785082,16.785999999999998,28.49042,-23.56144,0.89892348,-0.43713267,-0.143371215
1764764683.785082,16.785999999999998,28.49042,-23.56144,0.89892348,-0.43713267,-0.143371215
1764764683.785082,16.785999999999998,28.49042,-23.56144,0.89892348,-0.43713267,-0.143371215
1764764683.785082,16.785999999999998,28.49042,-23.56144,0.89892348,-0.43713267,-0.143371215
1764764683.785082,16.785999999999998,28.49042,-23.56144,0.89892348,-0.43713267,-0.143371215
1764764683.785082,16.785999999999998,28.49042,-23.56144,0.89892348,-0.43713267,-0.143371215
1764764683.785082,17.1675,28.97874,-20.73834,0.8944068900000001,-0.442320645,-0.135070455
1764764683.785082,17.1675,28.97874,-20.73834,0.8944068900000001,-0.442320645,-0.135070455
1764764683.785082,17.1675,28.97874,-20.73834,0.8944068900000001,-0.442320645,-0.135070455
1764764683.785082,17.1675,28.97874,-20.73834,0.8944068900000001,-0.442320645,-0.135070455
1764764683.785082,17.1675,28.97874,-20.73834,0.8944068900000001,-0.442320645,-0.135070455
1764764683.785082,17.1675,28.97874,-20.73834,0.8944068900000001,-0.442320645,-0.135070455
1764764683.785082,17.1675,28.97874,-20.73834,0.8944068900000001,-0.442320645,-0.135070455
1764764683.785082,17.1675,28.97874,-20.73834,0.8944068900000001,-0.442320645,-0.135070455
1764764683.785082,17.1675,28.97874,-20.73834,0.8944068900000001,-0.442320645,-0.135070455
1764764683.785082,17.1675,28.97874,-20.73834,0.8944068900000001,-0.442320645,-0.135070455
1764764683.8323224,19.94482,29.39076,-19.21234,0.893003085,-0.450133125,-0.125182785
1764764683.8323224,19.94482,29.39076,-19.21234,0.893003085,-0.450133125,-0.125182785
1764764683.8323224,19.94482,29.39076,-19.21234,0.893003085,-0.450133125,-0.125182785
1764764683.8323224,19.94482,29.39076,-19.21234,0.893003085,-0.450133125,-0.125182785
1764764683.8323224,19.94482,29.39076,-19.21234,0.893003085,-0.450133125,-0.125182785
1764764683.8323224,19.94482,29.39076,-19.21234,0.893003085,-0.450133125,-0.125182785
1764764683.8323224,19.94482,29.39076,-19.21234,0.893003085,-0.450133125,-0.125182785
1764764683.8334084,19.94482,29.39076,-19.21234,0.893003085,-0.450133125,-0.125182785
1764764683.8334084,19.94482,29.39076,-19.21234,0.893003085,-0.450133125,-0.125182785
1764764683.8334084,19.94482,29.39076,-19.21234,0.893003085,-0.450133125,-0.125182785
1764764683.8334084,23.1189,28.03262,-21.53186,0.89526138,-0.45056037,-0.118713075
1764764683.8334084,23.1189,28.03262,-21.53186,0.89526138,-0.45056037,-0.118713075
1764764683.8334084,23.1189,28.03262,-21.53186,0.89526138,-0.45056037,-0.118713075
1764764683.8334084,23.1189,28.03262,-21.53186,0.89526138,-0.45056037,-0.118713075
1764764683.8334084,23.1189,28.03262,-21.53186,0.89526138,-0.45056037,-0.118713075
1764764683.8334084,23.1189,28.03262,-21.53186,0.89526138,-0.45056037,-0.118713075
1764764683.8334084,23.1189,28.03262,-21.53186,0.89526138,-0.45056037,-0.118713075
1764764683.8334084,23.1189,28.03262,-21.53186,0.89526138,-0.45056037,-0.118713075
1764764683.8334084,23.1189,28.03262,-21.53186,0.89526138,-0.45056037,-0.118713075
1764764683.8334084,23.1189,28.03262,-21.53186,0.89526138,-0.45056037,-0.118713075
1764764683.8334084,24.0345,26.61344,-26.94916,0.90112074,-0.445250325,-0.1135251
1764764683.8334084,24.0345,26.61344,-26.94916,0.90112074,-0.445250325,-0.1135251
1764764683.8334084,24.0345,26.61344,-26.94916,0.90112074,-0.445250325,-0.1135251
1764764683.8334084,24.0345,26.61344,-26.94916,0.90112074,-0.445250325,-0.1135251
1764764683.8777514,24.0345,26.61344,-26.94916,0.90112074,-0.445250325,-0.1135251
1764764683.8777514,24.0345,26.61344,-26.94916,0.90112074,-0.445250325,-0.1135251
1764764683.8777514,24.0345,26.61344,-26.94916,0.90112074,-0.445250325,-0.1135251
1764764683.8777514,24.0345,26.61344,-26.94916,0.90112074,-0.445250325,-0.1135251
1764764683.8777514,24.0345,26.61344,-26.94916,0.90112074,-0.445250325,-0.1135251
1764764683.8777514,24.0345,26.61344,-26.94916,0.90112074,-0.445250325,-0.1135251
1764764683.8777514,24.24814,23.92768,-32.41224,0.90148695,-0.438170265,-0.10876437
1764764683.8777514,24.24814,23.92768,-32.41224,0.90148695,-0.438170265,-0.10876437
1764764683.8777514,24.24814,23.92768,-32.41224,0.90148695,-0.438170265,-0.10876437
1764764683.8777514,24.24814,23.92768,-32.41224,0.90148695,-0.438170265,-0.10876437
1764764683.8777514,24.24814,23.92768,-32.41224,0.90148695,-0.438170265,-0.10876437
1764764683.8777514,24.24814,23.92768,-32.41224,0.90148695,-0.438170265,-0.10876437
1764764683.8777514,24.24814,23.92768,-32.41224,0.90148695,-0.438170265,-0.10876437
1764764683.8777514,24.24814,23.92768,-32.41224,0.90148695,-0.438170265,-0.10876437
1764764683.8777514,24.24814,23.92768,-32.41224,0.90148695,-0.438170265,-0.10876437
1764764683.8777514,24.24814,23.92768,-32.41224,0.90148695,-0.438170265,-0.10876437
1764764683.8777514,25.36212,20.92146,-33.724599999999995,0.89611587,-0.43444713,-0.10156224
1764764683.8777514,25.36212,20.92146,-33.724599999999995,0.89611587,-0.43444713,-0.10156224
1764764683.8777514,25.36212,20.92146,-33.724599999999995,0.89611587,-0.43444713,-0.10156224
1764764683.8777514,25.36212,20.92146,-33.724599999999995,0.89611587,-0.43444713,-0.10156224
1764764683.8777514,25.36212,20.92146,-33.724599999999995,0.89611587,-0.43444713,-0.10156224
1764764683.8777514,25.36212,20.92146,-33.724599999999995,0.89611587,-0.43444713,-0.10156224
1764764683.8777514,25.36212,20.92146,-33.724599999999995,0.89611587,-0.43444713,-0.10156224
1764764683.8777514,25.36212,20.92146,-33.724599999999995,0.89611587,-0.43444713,-0.10156224
1764764683.9254217,25.36212,20.92146,-33.724599999999995,0.89611587,-0.43444713,-0.10156224
1764764683.9254217,25.36212,20.92146,-33.724599999999995,0.89611587,-0.43444713,-0.10156224
1764764683.9254217,25.49946,16.87756,-30.70312,0.88842546,-0.430846065,-0.09582495
1764764683.9254217,25.49946,16.87756,-30.70312,0.88842546,-0.430846065,-0.09582495
1764764683.9254217,25.49946,16.87756,-30.70312,0.88842546,-0.430846065,-0.09582495
1764764683.9254217,25.49946,16.87756,-30.70312,0.88842546,-0.430846065,-0.09582495
1764764683.9254217,25.49946,16.87756,-30.70312,0.88842546,-0.430846065,-0.09582495
1764764683.9254217,25.49946,16.87756,-30.70312,0.88842546,-0.430846065,-0.09582495
1764764683.9254217,25.49946,16.87756,-30.70312,0.88842546,-0.430846065,-0.09582495
1764764683.9254217,25.49946,16.87756,-30.70312,0.88842546,-0.430846065,-0.09582495
1764764683.9254217,25.49946,16.87756,-30.70312,0.88842546,-0.430846065,-0.09582495
1764764683.9254217,25.49946,16.87756,-30.70312,0.88842546,-0.430846065,-0.09582495
1764764683.9254217,25.92674,12.26904,-24.81276,0.88281024,-0.426329475,-0.089904555
1764764683.9254217,25.92674,12.26904,-24.81276,0.88281024,-0.426329475,-0.089904555
