Timestamp,GyroX,GyroY,GyroZ,AccX,AccY,AccZ
1764762653.7476745,-5.06632,0.59514,-0.3357199999999999,-0.906064575,0.395445765,-0.06994611
1764762653.7476745,-5.00528,0.65618,-0.54936,-0.906430785,0.39587301,-0.07006818
1764762653.7476745,-5.00528,0.65618,-0.54936,-0.906430785,0.39587301,-0.07006818
1764762653.7476745,-5.00528,0.65618,-0.54936,-0.906430785,0.39587301,-0.07006818
1764762653.7476745,-5.00528,0.65618,-0.54936,-0.906430785,0.39587301,-0.07006818
1764762653.7476745,-5.00528,0.65618,-0.54936,-0.906430785,0.39587301,-0.07006818
1764762653.7476745,-5.00528,0.65618,-0.54936,-0.906430785,0.39587301,-0.07006818
1764762653.7476745,-5.00528,0.65618,-0.54936,-0.906430785,0.39587301,-0.07006818
1764762653.7476745,-5.00528,0.65618,-0.54936,-0.906430785,0.39587301,-0.07006818
1764762653.7476745,-5.00528,0.65618,-0.54936,-0.906430785,0.39587301,-0.07006818
1764762653.7476745,-5.00528,0.65618,-0.54936,-0.906430785,0.39587301,-0.07006818
1764762653.7476745,-4.94424,0.56462,-0.3509799999999999,-0.905576295,0.396300255,-0.07128888
1764762653.7476745,-4.94424,0.56462,-0.3509799999999999,-0.905576295,0.396300255,-0.07128888
1764762653.7476745,-4.94424,0.56462,-0.3509799999999999,-0.905576295,0.396300255,-0.07128888
1764762653.7476745,-4.94424,0.56462,-0.3509799999999999,-0.905576295,0.396300255,-0.07128888
1764762653.7476745,-4.94424,0.56462,-0.3509799999999999,-0.905576295,0.396300255,-0.07128888
1764762653.7476745,-4.94424,0.56462,-0.3509799999999999,-0.905576295,0.396300255,-0.07128888
1764762653.7476745,-4.94424,0.56462,-0.3509799999999999,-0.905576295,0.396300255,-0.07128888
1764762653.7476745,-4.94424,0.56462,-0.3509799999999999,-0.905576295,0.396300255,-0.07128888
1764762653.7476745,-4.94424,0.56462,-0.3509799999999999,-0.905576295,0.396300255,-0.07128888
1764762653.7476745,-4.94424,0.56462,-0.3509799999999999,-0.905576295,0.396300255,-0.07128888
1764762653.7476745,-5.21892,0.3204599999999999,-0.50358,-0.90490491,0.39611715,-0.070983705
1764762653.7476745,-5.21892,0.3204599999999999,-0.50358,-0.90490491,0.39611715,-0.070983705
1764762653.7955446,-5.21892,0.3204599999999999,-0.50358,-0.90490491,0.39611715,-0.070983705
1764762653.7955446,-5.21892,0.3204599999999999,-0.50358,-0.90490491,0.39611715,-0.070983705
1764762653.7955446,-5.21892,0.3204599999999999,-0.50358,-0.90490491,0.39611715,-0.070983705
1764762653.7955446,-5.21892,0.3204599999999999,-0.50358,-0.90490491,0.39611715,-0.070983705
1764762653.7955446,-5.21892,0.3204599999999999,-0.50358,-0.90490491,0.39611715,-0.070983705
1764762653.7955446,-5.21892,0.3204599999999999,-0.50358,-0.90490491,0.39611715,-0.070983705
1764762653.7955446,-5.21892,0.3204599999999999,-0.50358,-0.90490491,0.39611715,-0.070983705
1764762653.7955446,-5.21892,0.3204599999999999,-0.50358,-0.90490491,0.39611715,-0.070983705
1764762653.7955446,-5.06632,0.85456,-0.5341,-0.905210085,0.396056115,-0.071471985
1764762653.7955446,-5.06632,0.85456,-0.5341,-0.905210085,0.396056115,-0.071471985
1764762653.7955446,-5.06632,0.85456,-0.5341,-0.905210085,0.396056115,-0.071471985
1764762653.7955446,-5.06632,0.85456,-0.5341,-0.905210085,0.396056115,-0.071471985
1764762653.7955446,-5.06632,0.85456,-0.5341,-0.905210085,0.396056115,-0.071471985
1764762653.7965496,-5.06632,0.85456,-0.5341,-0.905210085,0.396056115,-0.071471985
1764762653.7965496,-5.06632,0.85456,-0.5341,-0.905210085,0.396056115,-0.071471985
1764762653.7965496,-5.06632,0.85456,-0.5341,-0.905210085,0.396056115,-0.071471985
1764762653.7965496,-5.06632,0.85456,-0.5341,-0.905210085,0.396056115,-0.071471985
1764762653.7975488,-5.06632,0.85456,-0.5341,-0.905210085,0.396056115,-0.071471985
1764762653.7975488,-6.271859999999999,0.77826,-0.62566,-0.904599735,0.397520955,-0.07153302
1764762653.7975488,-6.271859999999999,0.77826,-0.62566,-0.904599735,0.397520955,-0.07153302
1764762653.7975488,-6.271859999999999,0.77826,-0.62566,-0.904599735,0.397520955,-0.07153302
1764762653.7975488,-6.271859999999999,0.77826,-0.62566,-0.904599735,0.397520955,-0.07153302
1764762653.7975488,-6.271859999999999,0.77826,-0.62566,-0.904599735,0.397520955,-0.07153302
1764762653.7975488,-6.271859999999999,0.77826,-0.62566,-0.904599735,0.397520955,-0.07153302
1764762653.844474,-6.271859999999999,0.77826,-0.62566,-0.904599735,0.397520955,-0.07153302
1764762653.844474,-6.271859999999999,0.77826,-0.62566,-0.904599735,0.397520955,-0.07153302
1764762653.844474,-6.271859999999999,0.77826,-0.62566,-0.904599735,0.397520955,-0.07153302
1764762653.844474,-6.271859999999999,0.77826,-0.62566,-0.904599735,0.397520955,-0.07153302
1764762653.844474,-7.08064,1.19028,-0.82404,-0.904843875,0.39904683,-0.07189923
1764762653.844474,-7.08064,1.19028,-0.82404,-0.904843875,0.39904683,-0.07189923
1764762653.844474,-7.08064,1.19028,-0.82404,-0.904843875,0.39904683,-0.07189923
1764762653.844474,-7.08064,1.19028,-0.82404,-0.904843875,0.39904683,-0.07189923
1764762653.844474,-7.08064,1.19028,-0.82404,-0.904843875,0.39904683,-0.07189923
1764762653.844474,-7.08064,1.19028,-0.82404,-0.904843875,0.39904683,-0.07189923
1764762653.844474,-7.08064,1.19028,-0.82404,-0.904843875,0.39904683,-0.07189923
1764762653.844474,-7.08064,1.19028,-0.82404,-0.904843875,0.39904683,-0.07189923
1764762653.844474,-7.08064,1.19028,-0.82404,-0.904843875,0.39904683,-0.07189923
1764762653.844474,-7.08064,1.19028,-0.82404,-0.904843875,0.39904683,-0.07189923
1764762653.844474,-8.89658,1.7549,-0.71722,-0.90466077,0.40002339,-0.072936825
1764762653.844474,-8.89658,1.7549,-0.71722,-0.90466077,0.40002339,-0.072936825
1764762653.844474,-8.89658,1.7549,-0.71722,-0.90466077,0.40002339,-0.072936825
1764762653.844474,-8.89658,1.7549,-0.71722,-0.90466077,0.40002339,-0.072936825
1764762653.844474,-8.89658,1.7549,-0.71722,-0.90466077,0.40002339,-0.072936825
1764762653.844474,-8.89658,1.7549,-0.71722,-0.90466077,0.40002339,-0.072936825
1764762653.844474,-8.89658,1.7549,-0.71722,-0.90466077,0.40002339,-0.072936825
1764762653.844474,-8.89658,1.7549,-0.71722,-0.90466077,0.40002339,-0.072936825
1764762653.8911378,-8.89658,1.7549,-0.71722,-0.90466077,0.40002339,-0.072936825
1764762653.8911378,-8.89658,1.7549,-0.71722,-0.90466077,0.40002339,-0.072936825
1764762653.8911378,-9.72062,2.73154,0.51884,-0.904721805,0.40075581,-0.07287579
1764762653.8911378,-9.72062,2.73154,0.51884,-0.904721805,0.40075581,-0.07287579
1764762653.8911378,-9.72062,2.73154,0.51884,-0.904721805,0.40075581,-0.07287579
1764762653.8911378,-9.72062,2.73154,0.51884,-0.904721805,0.40075581,-0.07287579
1764762653.8911378,-9.72062,2.73154,0.51884,-0.904721805,0.40075581,-0.07287579
1764762653.8911378,-9.72062,2.73154,0.51884,-0.904721805,0.40075581,-0.07287579
1764762653.8911378,-9.72062,2.73154,0.51884,-0.904721805,0.40075581,-0.07287579
1764762653.8911378,-9.72062,2.73154,0.51884,-0.904721805,0.40075581,-0.07287579
1764762653.8911378,-9.72062,2.73154,0.51884,-0.904721805,0.40075581,-0.07287579
1764762653.8911378,-9.72062,2.73154,0.51884,-0.904721805,0.40075581,-0.07287579
1764762653.8911378,-8.89658,2.35004,1.72438,-0.904355595,0.397398885,-0.072692685
1764762653.892146,-8.89658,2.35004,1.72438,-0.904355595,0.397398885,-0.072692685
1764762653.892146,-8.89658,2.35004,1.72438,-0.904355595,0.397398885,-0.072692685
1764762653.892146,-8.89658,2.35004,1.72438,-0.904355595,0.397398885,-0.072692685
1764762653.892146,-8.89658,2.35004,1.72438,-0.904355595,0.397398885,-0.072692685
1764762653.892146,-8.89658,2.35004,1.72438,-0.904355595,0.397398885,-0.072692685
1764762653.892146,-8.89658,2.35004,1.72438,-0.904355595,0.397398885,-0.072692685
1764762653.892146,-8.89658,2.35004,1.72438,-0.904355595,0.397398885,-0.072692685
1764762653.892146,-8.89658,2.35004,1.72438,-0.904355595,0.397398885,-0.072692685
1764762653.892146,-8.89658,2.35004,1.72438,-0.904355595,0.397398885,-0.072692685
1764762653.892146,-5.70724,1.61756,1.7549,-0.90380628,0.39099021,-0.070739565
1764762653.892146,-5.70724,1.61756,1.7549,-0.90380628,0.39099021,-0.070739565
1764762653.9345253,-5.70724,1.61756,1.7549,-0.90380628,0.39099021,-0.070739565
1764762653.9345253,-5.70724,1.61756,1.7549,-0.90380628,0.39099021,-0.070739565
1764762653.9345253,-5.70724,1.61756,1.7549,-0.90380628,0.39099021,-0.070739565
1764762653.9345253,-5.70724,1.61756,1.7549,-0.90380628,0.39099021,-0.070739565
1764762653.9345253,-5.70724,1.61756,1.7549,-0.90380628,0.39099021,-0.070739565
1764762653.9345253,-5.70724,1.61756,1.7549,-0.90380628,0.39099021,-0.070739565
1764762653.9345253,-5.70724,1.61756,1.7549,-0.90380628,0.39099021,-0.070739565
1764762653.9345253,-5.70724,1.61756,1.7549,-0.90380628,0.39099021,-0.070739565
1764762653.9345253,-3.92182,0.6409199999999999,1.8312,-0.90502698,0.38720604,-0.07006818
1764762653.9345253,-3.92182,0.6409199999999999,1.8312,-0.90502698,0.38720604,-0.07006818
1764762653.9345253,-3.92182,0.6409199999999999,1.8312,-0.90502698,0.38720604,-0.07006818
1764762653.9345253,-3.92182,0.6409199999999999,1.8312,-0.90502698,0.38720604,-0.07006818
1764762653.9345253,-3.92182,0.6409199999999999,1.8312,-0.90502698,0.38720604,-0.07006818
1764762653.9345253,-3.92182,0.6409199999999999,1.8312,-0.90502698,0.38720604,-0.07006818
1764762653.9345253,-3.92182,0.6409199999999999,1.8312,-0.90502698,0.38720604,-0.07006818
1764762653.9345253,-3.92182,0.6409199999999999,1.8312,-0.90502698,0.38720604,-0.07006818
1764762653.9345253,-3.92182,0.6409199999999999,1.8312,-0.90502698,0.38720604,-0.07006818
1764762653.9345253,-3.92182,0.6409199999999999,1.8312,-0.90502698,0.38720604,-0.07006818
1764762653.9345253,-4.70008,0.47306,0.9919,-0.90710217,0.390318825,-0.069396795
1764762653.9345253,-4.70008,0.47306,0.9919,-0.90710217,0.390318825,-0.069396795
1764762653.9345253,-4.70008,0.47306,0.9919,-0.90710217,0.390318825,-0.069396795
1764762653.9345253,-4.70008,0.47306,0.9919,-0.90710217,0.390318825,-0.069396795
1764762653.9358442,-4.70008,0.47306,0.9919,-0.90710217,0.390318825,-0.069396795
1764762653.9358442,-4.70008,0.47306,0.9919,-0.90710217,0.390318825,-0.069396795
1764762653.9823756,-4.70008,0.47306,0.9919,-0.90710217,0.390318825,-0.069396795
1764762653.9823756,-4.70008,0.47306,0.9919,-0.90710217,0.390318825,-0.069396795
1764762653.9823756,-4.70008,0.47306,0.9919,-0.90710217,0.390318825,-0.069396795
1764762653.9823756,-4.70008,0.47306,0.9919,-0.90710217,0.390318825,-0.069396795
1764762653.9823756,-4.8832,0.8392999999999999,0.13734,-0.90807873,0.39636129,-0.06811506
1764762653.9823756,-4.8832,0.8392999999999999,0.13734,-0.90807873,0.39636129,-0.06811506
1764762653.9823756,-4.8832,0.8392999999999999,0.13734,-0.90807873,0.39636129,-0.06811506
1764762653.9823756,-4.8832,0.8392999999999999,0.13734,-0.90807873,0.39636129,-0.06811506
1764762653.9823756,-4.8832,0.8392999999999999,0.13734,-0.90807873,0.39636129,-0.06811506
1764762653.9823756,-4.8832,0.8392999999999999,0.13734,-0.90807873,0.39636129,-0.06811506
1764762653.9823756,-4.8832,0.8392999999999999,0.13734,-0.90807873,0.39636129,-0.06811506
1764762653.9823756,-4.8832,0.8392999999999999,0.13734,-0.90807873,0.39636129,-0.06811506
1764762653.9823756,-4.8832,0.8392999999999999,0.13734,-0.90807873,0.39636129,-0.06811506
1764762653.9823756,-4.8832,0.8392999999999999,0.13734,-0.90807873,0.39636129,-0.06811506
1764762653.9823756,-5.24944,-0.01526,0.0,-0.907529415,0.397276815,-0.06640608
1764762653.9823756,-5.24944,-0.01526,0.0,-0.907529415,0.397276815,-0.06640608
1764762653.9823756,-5.24944,-0.01526,0.0,-0.907529415,0.397276815,-0.06640608
1764762653.9823756,-5.24944,-0.01526,0.0,-0.907529415,0.397276815,-0.06640608
1764762653.9823756,-5.24944,-0.01526,0.0,-0.907529415,0.397276815,-0.06640608
1764762653.9823756,-5.24944,-0.01526,0.0,-0.907529415,0.397276815,-0.06640608
1764762653.9823756,-5.24944,-0.01526,0.0,-0.907529415,0.397276815,-0.06640608
1764762653.9823756,-5.24944,-0.01526,0.0,-0.907529415,0.397276815,-0.06640608
1764762654.0285702,-5.24944,-0.01526,0.0,-0.907529415,0.397276815,-0.06640608
1764762654.0285702,-5.24944,-0.01526,0.0,-0.907529415,0.397276815,-0.06640608
1764762654.0285702,-4.13546,-0.2289,0.39676,-0.9057594,0.394347135,-0.067199535
1764762654.0285702,-4.13546,-0.2289,0.39676,-0.9057594,0.394347135,-0.067199535
1764762654.0285702,-4.13546,-0.2289,0.39676,-0.9057594,0.394347135,-0.067199535
1764762654.0285702,-4.13546,-0.2289,0.39676,-0.9057594,0.394347135,-0.067199535
1764762654.0285702,-4.13546,-0.2289,0.39676,-0.9057594,0.394347135,-0.067199535
1764762654.0285702,-4.13546,-0.2289,0.39676,-0.9057594,0.394347135,-0.067199535
1764762654.0285702,-4.13546,-0.2289,0.39676,-0.9057594,0.394347135,-0.067199535
1764762654.0285702,-4.13546,-0.2289,0.39676,-0.9057594,0.394347135,-0.067199535
1764762654.0285702,-4.13546,-0.2289,0.39676,-0.9057594,0.394347135,-0.067199535
1764762654.0285702,-4.13546,-0.2289,0.39676,-0.9057594,0.394347135,-0.067199535
1764762654.0285702,-3.55558,0.77826,1.6786,-0.904599735,0.39269919,-0.070617495
1764762654.0285702,-3.55558,0.77826,1.6786,-0.904599735,0.39269919,-0.070617495
1764762654.0285702,-3.55558,0.77826,1.6786,-0.904599735,0.39269919,-0.070617495
1764762654.0285702,-3.55558,0.77826,1.6786,-0.904599735,0.39269919,-0.070617495
1764762654.0285702,-3.55558,0.77826,1.6786,-0.904599735,0.39269919,-0.070617495
1764762654.0285702,-3.55558,0.77826,1.6786,-0.904599735,0.39269919,-0.070617495
1764762654.0285702,-3.55558,0.77826,1.6786,-0.904599735,0.39269919,-0.070617495
1764762654.0285702,-3.55558,0.77826,1.6786,-0.904599735,0.39269919,-0.070617495
1764762654.0285702,-3.55558,0.77826,1.6786,-0.904599735,0.39269919,-0.070617495
1764762654.0285702,-3.55558,0.77826,1.6786,-0.904599735,0.39269919,-0.070617495
1764762654.0285702,-4.715339999999999,0.9003399999999999,1.12924,-0.904599735,0.39294333,-0.071716125
1764762654.0295844,-4.715339999999999,0.9003399999999999,1.12924,-0.904599735,0.39294333,-0.071716125
1764762654.076891,-4.715339999999999,0.9003399999999999,1.12924,-0.904599735,0.39294333,-0.071716125
1764762654.076891,-4.715339999999999,0.9003399999999999,1.12924,-0.904599735,0.39294333,-0.071716125
1764762654.076891,-4.715339999999999,0.9003399999999999,1.12924,-0.904599735,0.39294333,-0.071716125
1764762654.076891,-4.715339999999999,0.9003399999999999,1.12924,-0.904599735,0.39294333,-0.071716125
1764762654.076891,-4.715339999999999,0.9003399999999999,1.12924,-0.904599735,0.39294333,-0.071716125
1764762654.076891,-4.715339999999999,0.9003399999999999,1.12924,-0.904599735,0.39294333,-0.071716125
1764762654.076891,-4.715339999999999,0.9003399999999999,1.12924,-0.904599735,0.39294333,-0.071716125
1764762654.076891,-4.715339999999999,0.9003399999999999,1.12924,-0.904599735,0.39294333,-0.071716125
1764762654.076891,-4.94424,0.73248,-0.3051999999999999,-0.905088015,0.392027805,-0.068298165
1764762654.076891,-4.94424,0.73248,-0.3051999999999999,-0.905088015,0.392027805,-0.068298165
1764762654.076891,-4.94424,0.73248,-0.3051999999999999,-0.905088015,0.392027805,-0.068298165
1764762654.076891,-4.94424,0.73248,-0.3051999999999999,-0.905088015,0.392027805,-0.068298165
1764762654.076891,-4.94424,0.73248,-0.3051999999999999,-0.905088015,0.392027805,-0.068298165
1764762654.076891,-4.94424,0.73248,-0.3051999999999999,-0.905088015,0.392027805,-0.068298165
1764762654.076891,-4.94424,0.73248,-0.3051999999999999,-0.905088015,0.392027805,-0.068298165
1764762654.076891,-4.94424,0.73248,-0.3051999999999999,-0.905088015,0.392027805,-0.068298165
1764762654.076891,-4.94424,0.73248,-0.3051999999999999,-0.905088015,0.392027805,-0.068298165
1764762654.076891,-4.94424,0.73248,-0.3051999999999999,-0.905088015,0.392027805,-0.068298165
1764762654.076891,-4.07442,0.6714399999999999,-0.6409199999999999,-0.905942505,0.39172263,-0.06616194
1764762654.076891,-4.07442,0.6714399999999999,-0.6409199999999999,-0.905942505,0.39172263,-0.06616194
1764762654.076891,-4.07442,0.6714399999999999,-0.6409199999999999,-0.905942505,0.39172263,-0.06616194
1764762654.076891,-4.07442,0.6714399999999999,-0.6409199999999999,-0.905942505,0.39172263,-0.06616194
1764762654.076891,-4.07442,0.6714399999999999,-0.6409199999999999,-0.905942505,0.39172263,-0.06616194
1764762654.076891,-4.07442,0.6714399999999999,-0.6409199999999999,-0.905942505,0.39172263,-0.06616194
1764762654.1234636,-4.07442,0.6714399999999999,-0.6409199999999999,-0.905942505,0.39172263,-0.06616194
1764762654.1234636,-4.07442,0.6714399999999999,-0.6409199999999999,-0.905942505,0.39172263,-0.06616194
1764762654.1234636,-4.07442,0.6714399999999999,-0.6409199999999999,-0.905942505,0.39172263,-0.06616194
1764762654.1234636,-4.07442,0.6714399999999999,-0.6409199999999999,-0.905942505,0.39172263,-0.06616194
1764762654.1234636,-2.38056,0.74774,0.04578,-0.90551526,0.393248505,-0.067931955
1764762654.1234636,-2.38056,0.74774,0.04578,-0.90551526,0.393248505,-0.067931955
1764762654.1234636,-2.38056,0.74774,0.04578,-0.90551526,0.393248505,-0.067931955
1764762654.1234636,-2.38056,0.74774,0.04578,-0.90551526,0.393248505,-0.067931955
1764762654.1234636,-2.38056,0.74774,0.04578,-0.90551526,0.393248505,-0.067931955
1764762654.1234636,-2.38056,0.74774,0.04578,-0.90551526,0.393248505,-0.067931955
1764762654.1234636,-2.38056,0.74774,0.04578,-0.90551526,0.393248505,-0.067931955
1764762654.1234636,-2.38056,0.74774,0.04578,-0.90551526,0.393248505,-0.067931955
1764762654.1234636,-2.38056,0.74774,0.04578,-0.90551526,0.393248505,-0.067931955
1764762654.1234636,-2.38056,0.74774,0.04578,-0.90551526,0.393248505,-0.067931955
1764762654.1234636,-1.96854,1.2971,0.8698199999999999,-0.90478284,0.396300255,-0.07128888
1764762654.1234636,-1.96854,1.2971,0.8698199999999999,-0.90478284,0.396300255,-0.07128888
1764762654.1234636,-1.96854,1.2971,0.8698199999999999,-0.90478284,0.396300255,-0.07128888
1764762654.1234636,-1.96854,1.2971,0.8698199999999999,-0.90478284,0.396300255,-0.07128888
1764762654.1234636,-1.96854,1.2971,0.8698199999999999,-0.90478284,0.396300255,-0.07128888
1764762654.1234636,-1.96854,1.2971,0.8698199999999999,-0.90478284,0.396300255,-0.07128888
1764762654.1234636,-1.96854,1.2971,0.8698199999999999,-0.90478284,0.396300255,-0.07128888
1764762654.1234636,-1.96854,1.2971,0.8698199999999999,-0.90478284,0.396300255,-0.07128888
1764762654.1679697,-1.96854,1.2971,0.8698199999999999,-0.90478284,0.396300255,-0.07128888
1764762654.1679697,-1.96854,1.2971,0.8698199999999999,-0.90478284,0.396300255,-0.07128888
1764762654.1679697,-2.71628,1.09872,0.06104,-0.90319593,0.397154745,-0.071960265
1764762654.1679697,-2.71628,1.09872,0.06104,-0.90319593,0.397154745,-0.071960265
1764762654.1679697,-2.71628,1.09872,0.06104,-0.90319593,0.397154745,-0.071960265
1764762654.1679697,-2.71628,1.09872,0.06104,-0.90319593,0.397154745,-0.071960265
1764762654.1679697,-2.71628,1.09872,0.06104,-0.90319593,0.397154745,-0.071960265
1764762654.1679697,-2.71628,1.09872,0.06104,-0.90319593,0.397154745,-0.071960265
1764762654.1679697,-2.71628,1.09872,0.06104,-0.90319593,0.397154745,-0.071960265
1764762654.1684957,-2.71628,1.09872,0.06104,-0.90319593,0.397154745,-0.071960265
1764762654.1684957,-2.71628,1.09872,0.06104,-0.90319593,0.397154745,-0.071960265
1764762654.1684957,-2.71628,1.09872,0.06104,-0.90319593,0.397154745,-0.071960265
1764762654.1684957,-4.76112,1.12924,0.04578,-0.903134895,0.39807027,-0.070983705
1764762654.1684957,-4.76112,1.12924,0.04578,-0.903134895,0.39807027,-0.070983705
1764762654.1684957,-4.76112,1.12924,0.04578,-0.903134895,0.39807027,-0.070983705
1764762654.1684957,-4.76112,1.12924,0.04578,-0.903134895,0.39807027,-0.070983705
1764762654.1684957,-4.76112,1.12924,0.04578,-0.903134895,0.39807027,-0.070983705
1764762654.1684957,-4.76112,1.12924,0.04578,-0.903134895,0.39807027,-0.070983705
1764762654.1684957,-4.76112,1.12924,0.04578,-0.903134895,0.39807027,-0.070983705
1764762654.1684957,-4.76112,1.12924,0.04578,-0.903134895,0.39807027,-0.070983705
1764762654.1684957,-4.76112,1.12924,0.04578,-0.903134895,0.39807027,-0.070983705
1764762654.1684957,-4.76112,1.12924,0.04578,-0.903134895,0.39807027,-0.070983705
1764762654.215622,-4.47118,1.6633399999999998,0.3204599999999999,-0.90514905,0.39868062,-0.069763005
1764762654.215622,-4.47118,1.6633399999999998,0.3204599999999999,-0.90514905,0.39868062,-0.069763005
1764762654.215622,-4.47118,1.6633399999999998,0.3204599999999999,-0.90514905,0.39868062,-0.069763005
1764762654.215622,-4.47118,1.6633399999999998,0.3204599999999999,-0.90514905,0.39868062,-0.069763005
1764762654.215622,-4.47118,1.6633399999999998,0.3204599999999999,-0.90514905,0.39868062,-0.069763005
1764762654.215622,-4.47118,1.6633399999999998,0.3204599999999999,-0.90514905,0.39868062,-0.069763005
1764762654.215622,-4.47118,1.6633399999999998,0.3204599999999999,-0.90514905,0.39868062,-0.069763005
1764762654.215622,-4.47118,1.6633399999999998,0.3204599999999999,-0.90514905,0.39868062,-0.069763005
1764762654.215622,-4.47118,1.6633399999999998,0.3204599999999999,-0.90514905,0.39868062,-0.069763005
1764762654.215622,-4.47118,1.6633399999999998,0.3204599999999999,-0.90514905,0.39868062,-0.069763005
1764762654.215622,-4.5017,0.62566,0.48832,-0.90649182,0.397887165,-0.070007145
1764762654.216626,-4.5017,0.62566,0.48832,-0.90649182,0.397887165,-0.070007145
1764762654.216626,-4.5017,0.62566,0.48832,-0.90649182,0.397887165,-0.070007145
1764762654.216626,-4.5017,0.62566,0.48832,-0.90649182,0.397887165,-0.070007145
1764762654.216626,-4.5017,0.62566,0.48832,-0.90649182,0.397887165,-0.070007145
1764762654.216626,-4.5017,0.62566,0.48832,-0.90649182,0.397887165,-0.070007145
1764762654.216626,-4.5017,0.62566,0.48832,-0.90649182,0.397887165,-0.070007145
1764762654.216626,-4.5017,0.62566,0.48832,-0.90649182,0.397887165,-0.070007145
1764762654.216626,-4.5017,0.62566,0.48832,-0.90649182,0.397887165,-0.070007145
1764762654.216626,-4.5017,0.62566,0.48832,-0.90649182,0.397887165,-0.070007145
1764762654.2176266,-4.45592,0.97664,0.19838,-0.906796995,0.39562887,-0.070251285
1764762654.2176266,-4.45592,0.97664,0.19838,-0.906796995,0.39562887,-0.070251285
1764762654.2176266,-4.45592,0.97664,0.19838,-0.906796995,0.39562887,-0.070251285
1764762654.2176266,-4.45592,0.97664,0.19838,-0.906796995,0.39562887,-0.070251285
1764762654.260131,-4.45592,0.97664,0.19838,-0.906796995,0.39562887,-0.070251285
1764762654.260131,-4.45592,0.97664,0.19838,-0.906796995,0.39562887,-0.070251285
1764762654.260131,-4.45592,0.97664,0.19838,-0.906796995,0.39562887,-0.070251285
1764762654.260131,-4.45592,0.97664,0.19838,-0.906796995,0.39562887,-0.070251285
1764762654.2606645,-4.45592,0.97664,0.19838,-0.906796995,0.39562887,-0.070251285
1764762654.2606645,-4.45592,0.97664,0.19838,-0.906796995,0.39562887,-0.070251285
1764762654.2606645,-3.44876,0.59514,0.3509799999999999,-0.904599735,0.394591275,-0.07116681
1764762654.2606645,-3.44876,0.59514,0.3509799999999999,-0.904599735,0.394591275,-0.07116681
1764762654.2606645,-3.44876,0.59514,0.3509799999999999,-0.904599735,0.394591275,-0.07116681
1764762654.2606645,-3.44876,0.59514,0.3509799999999999,-0.904599735,0.394591275,-0.07116681
1764762654.2606645,-3.44876,0.59514,0.3509799999999999,-0.904599735,0.394591275,-0.07116681
1764762654.2606645,-3.44876,0.59514,0.3509799999999999,-0.904599735,0.394591275,-0.07116681
1764762654.2606645,-3.44876,0.59514,0.3509799999999999,-0.904599735,0.394591275,-0.07116681
1764762654.2606645,-3.44876,0.59514,0.3509799999999999,-0.904599735,0.394591275,-0.07116681
1764762654.2606645,-3.44876,0.59514,0.3509799999999999,-0.904599735,0.394591275,-0.07116681
1764762654.2606645,-3.44876,0.59514,0.3509799999999999,-0.904599735,0.394591275,-0.07116681
1764762654.2616832,-2.85362,1.19028,0.6867,-0.903867315,0.393858855,-0.071960265
1764762654.2616832,-2.85362,1.19028,0.6867,-0.903867315,0.393858855,-0.071960265
1764762654.2616832,-2.85362,1.19028,0.6867,-0.903867315,0.393858855,-0.071960265
1764762654.2616832,-2.85362,1.19028,0.6867,-0.903867315,0.393858855,-0.071960265
1764762654.2616832,-2.85362,1.19028,0.6867,-0.903867315,0.393858855,-0.071960265
1764762654.2616832,-2.85362,1.19028,0.6867,-0.903867315,0.393858855,-0.071960265
1764762654.307567,-2.85362,1.19028,0.6867,-0.903867315,0.393858855,-0.071960265
1764762654.307567,-2.85362,1.19028,0.6867,-0.903867315,0.393858855,-0.071960265
1764762654.307567,-2.85362,1.19028,0.6867,-0.903867315,0.393858855,-0.071960265
1764762654.307567,-2.85362,1.19028,0.6867,-0.903867315,0.393858855,-0.071960265
1764762654.3085918,-3.5861,0.7019599999999999,0.74774,-0.905088015,0.393614715,-0.07153302
1764762654.3085918,-3.5861,0.7019599999999999,0.74774,-0.905088015,0.393614715,-0.07153302
1764762654.3085918,-3.5861,0.7019599999999999,0.74774,-0.905088015,0.393614715,-0.07153302
1764762654.3085918,-3.5861,0.7019599999999999,0.74774,-0.905088015,0.393614715,-0.07153302
1764762654.3085918,-3.5861,0.7019599999999999,0.74774,-0.905088015,0.393614715,-0.07153302
1764762654.3085918,-3.5861,0.7019599999999999,0.74774,-0.905088015,0.393614715,-0.07153302
1764762654.3085918,-3.5861,0.7019599999999999,0.74774,-0.905088015,0.393614715,-0.07153302
1764762654.3085918,-3.5861,0.7019599999999999,0.74774,-0.905088015,0.393614715,-0.07153302
1764762654.3085918,-3.5861,0.7019599999999999,0.74774,-0.905088015,0.393614715,-0.07153302
1764762654.3085918,-3.5861,0.7019599999999999,0.74774,-0.905088015,0.393614715,-0.07153302
1764762654.3085918,-3.60136,0.39676,0.13734,-0.906796995,0.392882295,-0.070129215
1764762654.3085918,-3.60136,0.39676,0.13734,-0.906796995,0.392882295,-0.070129215
1764762654.3085918,-3.60136,0.39676,0.13734,-0.906796995,0.392882295,-0.070129215
1764762654.3085918,-3.60136,0.39676,0.13734,-0.906796995,0.392882295,-0.070129215
1764762654.3085918,-3.60136,0.39676,0.13734,-0.906796995,0.392882295,-0.070129215
1764762654.3085918,-3.60136,0.39676,0.13734,-0.906796995,0.392882295,-0.070129215
1764762654.3085918,-3.60136,0.39676,0.13734,-0.906796995,0.392882295,-0.070129215
1764762654.3085918,-3.60136,0.39676,0.13734,-0.906796995,0.392882295,-0.070129215
1764762654.3085918,-3.60136,0.39676,0.13734,-0.906796995,0.392882295,-0.070129215
1764762654.3085918,-3.60136,0.39676,0.13734,-0.906796995,0.392882295,-0.070129215
1764762654.3085918,-2.8994,0.01526,0.28994,-0.906919065,0.3930654,-0.069274725
1764762654.3085918,-2.8994,0.01526,0.28994,-0.906919065,0.3930654,-0.069274725
1764762654.3546722,-2.8994,0.01526,0.28994,-0.906919065,0.3930654,-0.069274725
1764762654.3546722,-2.8994,0.01526,0.28994,-0.906919065,0.3930654,-0.069274725
1764762654.3546722,-2.8994,0.01526,0.28994,-0.906919065,0.3930654,-0.069274725
1764762654.3546722,-2.8994,0.01526,0.28994,-0.906919065,0.3930654,-0.069274725
1764762654.3546722,-2.8994,0.01526,0.28994,-0.906919065,0.3930654,-0.069274725
1764762654.3546722,-2.8994,0.01526,0.28994,-0.906919065,0.3930654,-0.069274725
1764762654.3546722,-2.8994,0.01526,0.28994,-0.906919065,0.3930654,-0.069274725
1764762654.3546722,-2.8994,0.01526,0.28994,-0.906919065,0.3930654,-0.069274725
1764762654.3556902,-2.45686,0.36624,0.10682,-0.906064575,0.393370575,-0.069396795
1764762654.3556902,-2.45686,0.36624,0.10682,-0.906064575,0.393370575,-0.069396795
1764762654.3556902,-2.45686,0.36624,0.10682,-0.906064575,0.393370575,-0.069396795
1764762654.3556902,-2.45686,0.36624,0.10682,-0.906064575,0.393370575,-0.069396795
1764762654.3556902,-2.45686,0.36624,0.10682,-0.906064575,0.393370575,-0.069396795
1764762654.3556902,-2.45686,0.36624,0.10682,-0.906064575,0.393370575,-0.069396795
1764762654.3556902,-2.45686,0.36624,0.10682,-0.906064575,0.393370575,-0.069396795
1764762654.3556902,-2.45686,0.36624,0.10682,-0.906064575,0.393370575,-0.069396795
1764762654.3556902,-2.45686,0.36624,0.10682,-0.906064575,0.393370575,-0.069396795
1764762654.3556902,-2.45686,0.36624,0.10682,-0.906064575,0.393370575,-0.069396795
1764762654.3556902,-2.53316,0.2289,-0.25942,-0.905088015,0.39440817,-0.07031232
1764762654.3556902,-2.53316,0.2289,-0.25942,-0.905088015,0.39440817,-0.07031232
1764762654.3556902,-2.53316,0.2289,-0.25942,-0.905088015,0.39440817,-0.07031232
1764762654.3556902,-2.53316,0.2289,-0.25942,-0.905088015,0.39440817,-0.07031232
1764762654.3556902,-2.53316,0.2289,-0.25942,-0.905088015,0.39440817,-0.07031232
1764762654.3556902,-2.53316,0.2289,-0.25942,-0.905088015,0.39440817,-0.07031232
1764762654.4028008,-2.53316,0.2289,-0.25942,-0.905088015,0.39440817,-0.07031232
1764762654.4028008,-2.53316,0.2289,-0.25942,-0.905088015,0.39440817,-0.07031232
1764762654.4028008,-2.53316,0.2289,-0.25942,-0.905088015,0.39440817,-0.07031232
1764762654.4028008,-2.53316,0.2289,-0.25942,-0.905088015,0.39440817,-0.07031232
1764762654.4028008,-2.73154,0.7019599999999999,-0.09156,-0.90514905,0.39514059,-0.07116681
1764762654.4028008,-2.73154,0.7019599999999999,-0.09156,-0.90514905,0.39514059,-0.07116681
1764762654.4028008,-2.73154,0.7019599999999999,-0.09156,-0.90514905,0.39514059,-0.07116681
1764762654.4028008,-2.73154,0.7019599999999999,-0.09156,-0.90514905,0.39514059,-0.07116681
1764762654.4028008,-2.73154,0.7019599999999999,-0.09156,-0.90514905,0.39514059,-0.07116681
1764762654.4028008,-2.73154,0.7019599999999999,-0.09156,-0.90514905,0.39514059,-0.07116681
1764762654.4028008,-2.73154,0.7019599999999999,-0.09156,-0.90514905,0.39514059,-0.07116681
1764762654.4028008,-2.73154,0.7019599999999999,-0.09156,-0.90514905,0.39514059,-0.07116681
1764762654.4028008,-2.73154,0.7019599999999999,-0.09156,-0.90514905,0.39514059,-0.07116681
1764762654.4028008,-2.73154,0.7019599999999999,-0.09156,-0.90514905,0.39514059,-0.07116681
1764762654.4028008,-3.41824,0.85456,-0.10682,-0.90490491,0.396910605,-0.071838195
1764762654.4028008,-3.41824,0.85456,-0.10682,-0.90490491,0.396910605,-0.071838195
1764762654.4028008,-3.41824,0.85456,-0.10682,-0.90490491,0.396910605,-0.071838195
1764762654.4028008,-3.41824,0.85456,-0.10682,-0.90490491,0.396910605,-0.071838195
1764762654.4028008,-3.41824,0.85456,-0.10682,-0.90490491,0.396910605,-0.071838195
1764762654.4028008,-3.41824,0.85456,-0.10682,-0.90490491,0.396910605,-0.071838195
1764762654.4028008,-3.41824,0.85456,-0.10682,-0.90490491,0.396910605,-0.071838195
1764762654.4028008,-3.41824,0.85456,-0.10682,-0.90490491,0.396910605,-0.071838195
1764762654.4028008,-3.41824,0.85456,-0.10682,-0.90490491,0.396910605,-0.071838195
1764762654.4028008,-3.41824,0.85456,-0.10682,-0.90490491,0.396910605,-0.071838195
1764762654.4497664,-3.49454,0.6409199999999999,0.27468,-0.90478284,0.397032675,-0.07128888
1764762654.4497664,-3.49454,0.6409199999999999,0.27468,-0.90478284,0.397032675,-0.07128888
1764762654.4497664,-3.49454,0.6409199999999999,0.27468,-0.90478284,0.397032675,-0.07128888
1764762654.4497664,-3.49454,0.6409199999999999,0.27468,-0.90478284,0.397032675,-0.07128888
1764762654.4497664,-3.49454,0.6409199999999999,0.27468,-0.90478284,0.397032675,-0.07128888
1764762654.4497664,-3.49454,0.6409199999999999,0.27468,-0.90478284,0.397032675,-0.07128888
1764762654.4497664,-3.49454,0.6409199999999999,0.27468,-0.90478284,0.397032675,-0.07128888
1764762654.4497664,-3.49454,0.6409199999999999,0.27468,-0.90478284,0.397032675,-0.07128888
1764762654.4497664,-3.49454,0.6409199999999999,0.27468,-0.90478284,0.397032675,-0.07128888
1764762654.4497664,-3.49454,0.6409199999999999,0.27468,-0.90478284,0.397032675,-0.07128888
1764762654.4497664,-4.21176,1.2208,0.24416,-0.90514905,0.39611715,-0.071105775
1764762654.4497664,-4.21176,1.2208,0.24416,-0.90514905,0.39611715,-0.071105775
1764762654.4497664,-4.21176,1.2208,0.24416,-0.90514905,0.39611715,-0.071105775
1764762654.4497664,-4.21176,1.2208,0.24416,-0.90514905,0.39611715,-0.071105775
1764762654.4497664,-4.21176,1.2208,0.24416,-0.90514905,0.39611715,-0.071105775
1764762654.4497664,-4.21176,1.2208,0.24416,-0.90514905,0.39611715,-0.071105775
1764762654.4497664,-4.21176,1.2208,0.24416,-0.90514905,0.39611715,-0.071105775
1764762654.4507706,-4.21176,1.2208,0.24416,-0.90514905,0.39611715,-0.071105775
1764762654.4507706,-4.21176,1.2208,0.24416,-0.90514905,0.39611715,-0.071105775
1764762654.4507706,-4.21176,1.2208,0.24416,-0.90514905,0.39611715,-0.071105775
1764762654.4507706,-4.8832,1.23606,0.13734,-0.90588147,0.39575094,-0.07067853
1764762654.4507706,-4.8832,1.23606,0.13734,-0.90588147,0.39575094,-0.07067853
1764762654.4930532,-4.8832,1.23606,0.13734,-0.90588147,0.39575094,-0.07067853
1764762654.4930532,-4.8832,1.23606,0.13734,-0.90588147,0.39575094,-0.07067853
1764762654.4930532,-4.8832,1.23606,0.13734,-0.90588147,0.39575094,-0.07067853
1764762654.4930532,-4.8832,1.23606,0.13734,-0.90588147,0.39575094,-0.07067853
1764762654.4930532,-4.8832,1.23606,0.13734,-0.90588147,0.39575094,-0.07067853
1764762654.4930532,-4.8832,1.23606,0.13734,-0.90588147,0.39575094,-0.07067853
1764762654.4930532,-4.8832,1.23606,0.13734,-0.90588147,0.39575094,-0.07067853
1764762654.4930532,-4.8832,1.23606,0.13734,-0.90588147,0.39575094,-0.07067853
1764762654.49356,-2.94518,0.41202,0.10682,-0.90551526,0.394713345,-0.07116681
1764762654.49356,-2.94518,0.41202,0.10682,-0.90551526,0.394713345,-0.07116681
1764762654.49356,-2.94518,0.41202,0.10682,-0.90551526,0.394713345,-0.07116681
1764762654.49356,-2.94518,0.41202,0.10682,-0.90551526,0.394713345,-0.07116681
1764762654.49356,-2.94518,0.41202,0.10682,-0.90551526,0.394713345,-0.07116681
1764762654.49356,-2.94518,0.41202,0.10682,-0.90551526,0.394713345,-0.07116681
1764762654.49356,-2.94518,0.41202,0.10682,-0.90551526,0.394713345,-0.07116681
1764762654.49356,-2.94518,0.41202,0.10682,-0.90551526,0.394713345,-0.07116681
1764762654.49356,-2.94518,0.41202,0.10682,-0.90551526,0.394713345,-0.07116681
1764762654.49356,-2.94518,0.41202,0.10682,-0.90551526,0.394713345,-0.07116681
1764762654.49356,-2.31952,0.8392999999999999,0.19838,-0.90405042,0.39294333,-0.071838195
1764762654.49356,-2.31952,0.8392999999999999,0.19838,-0.90405042,0.39294333,-0.071838195
1764762654.49356,-2.31952,0.8392999999999999,0.19838,-0.90405042,0.39294333,-0.071838195
1764762654.49356,-2.31952,0.8392999999999999,0.19838,-0.90405042,0.39294333,-0.071838195
1764762654.5432382,-2.31952,0.8392999999999999,0.19838,-0.90405042,0.39294333,-0.071838195
1764762654.5432382,-2.31952,0.8392999999999999,0.19838,-0.90405042,0.39294333,-0.071838195
1764762654.5432382,-2.31952,0.8392999999999999,0.19838,-0.90405042,0.39294333,-0.071838195
1764762654.5432382,-2.31952,0.8392999999999999,0.19838,-0.90405042,0.39294333,-0.071838195
1764762654.5432382,-2.31952,0.8392999999999999,0.19838,-0.90405042,0.39294333,-0.071838195
1764762654.5432382,-2.31952,0.8392999999999999,0.19838,-0.90405042,0.39294333,-0.071838195
1764762654.5432382,-4.28806,0.9919,0.6714399999999999,-0.904111455,0.393858855,-0.07409649
1764762654.5432382,-4.28806,0.9919,0.6714399999999999,-0.904111455,0.393858855,-0.07409649
1764762654.5432382,-4.28806,0.9919,0.6714399999999999,-0.904111455,0.393858855,-0.07409649
1764762654.5432382,-4.28806,0.9919,0.6714399999999999,-0.904111455,0.393858855,-0.07409649
1764762654.5432382,-4.28806,0.9919,0.6714399999999999,-0.904111455,0.393858855,-0.07409649
1764762654.5432382,-4.28806,0.9919,0.6714399999999999,-0.904111455,0.393858855,-0.07409649
1764762654.5432382,-4.28806,0.9919,0.6714399999999999,-0.904111455,0.393858855,-0.07409649
1764762654.5432382,-4.28806,0.9919,0.6714399999999999,-0.904111455,0.393858855,-0.07409649
1764762654.5432382,-4.28806,0.9919,0.6714399999999999,-0.904111455,0.393858855,-0.07409649
1764762654.5432382,-4.28806,0.9919,0.6714399999999999,-0.904111455,0.393858855,-0.07409649
1764762654.5432382,-6.42446,1.23606,0.71722,-0.90685803,0.39745992,-0.074035455
1764762654.5432382,-6.42446,1.23606,0.71722,-0.90685803,0.39745992,-0.074035455
1764762654.5432382,-6.42446,1.23606,0.71722,-0.90685803,0.39745992,-0.074035455
1764762654.5432382,-6.42446,1.23606,0.71722,-0.90685803,0.39745992,-0.074035455
1764762654.5432382,-6.42446,1.23606,0.71722,-0.90685803,0.39745992,-0.074035455
1764762654.5432382,-6.42446,1.23606,0.71722,-0.90685803,0.39745992,-0.074035455
1764762654.586481,-6.42446,1.23606,0.71722,-0.90685803,0.39745992,-0.074035455
1764762654.586481,-6.42446,1.23606,0.71722,-0.90685803,0.39745992,-0.074035455
1764762654.586481,-6.42446,1.23606,0.71722,-0.90685803,0.39745992,-0.074035455
1764762654.586481,-6.42446,1.23606,0.71722,-0.90685803,0.39745992,-0.074035455
1764762654.586481,-5.35626,1.2055399999999998,0.96138,-0.9094215,0.397887165,-0.07067853
1764762654.586481,-5.35626,1.2055399999999998,0.96138,-0.9094215,0.397887165,-0.07067853
1764762654.586481,-5.35626,1.2055399999999998,0.96138,-0.9094215,0.397887165,-0.07067853
1764762654.586481,-5.35626,1.2055399999999998,0.96138,-0.9094215,0.397887165,-0.07067853
1764762654.586481,-5.35626,1.2055399999999998,0.96138,-0.9094215,0.397887165,-0.07067853
1764762654.586481,-5.35626,1.2055399999999998,0.96138,-0.9094215,0.397887165,-0.07067853
1764762654.586481,-5.35626,1.2055399999999998,0.96138,-0.9094215,0.397887165,-0.07067853
1764762654.586481,-5.35626,1.2055399999999998,0.96138,-0.9094215,0.397887165,-0.07067853
1764762654.586481,-5.35626,1.2055399999999998,0.96138,-0.9094215,0.397887165,-0.07067853
1764762654.586481,-5.35626,1.2055399999999998,0.96138,-0.9094215,0.397887165,-0.07067853
1764762654.586481,-3.92182,0.8087799999999999,0.4578,-0.908628045,0.394102995,-0.068542305
1764762654.586481,-3.92182,0.8087799999999999,0.4578,-0.908628045,0.394102995,-0.068542305
1764762654.586481,-3.92182,0.8087799999999999,0.4578,-0.908628045,0.394102995,-0.068542305
1764762654.586481,-3.92182,0.8087799999999999,0.4578,-0.908628045,0.394102995,-0.068542305
1764762654.586481,-3.92182,0.8087799999999999,0.4578,-0.908628045,0.394102995,-0.068542305
1764762654.586481,-3.92182,0.8087799999999999,0.4578,-0.908628045,0.394102995,-0.068542305
1764762654.586481,-3.92182,0.8087799999999999,0.4578,-0.908628045,0.394102995,-0.068542305
1764762654.586481,-3.92182,0.8087799999999999,0.4578,-0.908628045,0.394102995,-0.068542305
1764762654.586481,-3.92182,0.8087799999999999,0.4578,-0.908628045,0.394102995,-0.068542305
1764762654.586481,-3.92182,0.8087799999999999,0.4578,-0.908628045,0.394102995,-0.068542305
1764762654.586481,-2.2127,0.41202,0.8392999999999999,-0.90673596,0.39196677,-0.06994611
1764762654.586481,-2.2127,0.41202,0.8392999999999999,-0.90673596,0.39196677,-0.06994611
1764762654.6335306,-2.2127,0.41202,0.8392999999999999,-0.90673596,0.39196677,-0.06994611
1764762654.6335306,-2.2127,0.41202,0.8392999999999999,-0.90673596,0.39196677,-0.06994611
1764762654.6335306,-2.2127,0.41202,0.8392999999999999,-0.90673596,0.39196677,-0.06994611
1764762654.6335306,-2.2127,0.41202,0.8392999999999999,-0.90673596,0.39196677,-0.06994611
1764762654.6335306,-2.2127,0.41202,0.8392999999999999,-0.90673596,0.39196677,-0.06994611
1764762654.6335306,-2.2127,0.41202,0.8392999999999999,-0.90673596,0.39196677,-0.06994611
1764762654.6335306,-2.2127,0.41202,0.8392999999999999,-0.90673596,0.39196677,-0.06994611
1764762654.6335306,-2.2127,0.41202,0.8392999999999999,-0.90673596,0.39196677,-0.06994611
1764762654.6335306,-3.52506,0.88508,1.48022,-0.90514905,0.39343161,-0.07250958
1764762654.6335306,-3.52506,0.88508,1.48022,-0.90514905,0.39343161,-0.07250958
1764762654.6335306,-3.52506,0.88508,1.48022,-0.90514905,0.39343161,-0.07250958
1764762654.6335306,-3.52506,0.88508,1.48022,-0.90514905,0.39343161,-0.07250958
1764762654.6335306,-3.52506,0.88508,1.48022,-0.90514905,0.39343161,-0.07250958
1764762654.6335306,-3.52506,0.88508,1.48022,-0.90514905,0.39343161,-0.07250958
1764762654.6335306,-3.52506,0.88508,1.48022,-0.90514905,0.39343161,-0.07250958
1764762654.6335306,-3.52506,0.88508,1.48022,-0.90514905,0.39343161,-0.07250958
1764762654.6335306,-3.52506,0.88508,1.48022,-0.90514905,0.39343161,-0.07250958
1764762654.6335306,-3.52506,0.88508,1.48022,-0.90514905,0.39343161,-0.07250958
1764762654.6335306,-4.715339999999999,2.07536,1.17502,-0.903745245,0.3942861,-0.0720213
1764762654.6335306,-4.715339999999999,2.07536,1.17502,-0.903745245,0.3942861,-0.0720213
1764762654.6335306,-4.715339999999999,2.07536,1.17502,-0.903745245,0.3942861,-0.0720213
1764762654.6335306,-4.715339999999999,2.07536,1.17502,-0.903745245,0.3942861,-0.0720213
1764762654.6804411,-4.715339999999999,2.07536,1.17502,-0.903745245,0.3942861,-0.0720213
1764762654.6804411,-4.715339999999999,2.07536,1.17502,-0.903745245,0.3942861,-0.0720213
1764762654.6804411,-4.715339999999999,2.07536,1.17502,-0.903745245,0.3942861,-0.0720213
1764762654.6809604,-4.715339999999999,2.07536,1.17502,-0.903745245,0.3942861,-0.0720213
1764762654.6809604,-4.715339999999999,2.07536,1.17502,-0.903745245,0.3942861,-0.0720213
1764762654.6809604,-4.715339999999999,2.07536,1.17502,-0.903745245,0.3942861,-0.0720213
1764762654.6809604,-4.10494,1.72438,1.11398,-0.90380628,0.39404196,-0.070007145
1764762654.6809604,-4.10494,1.72438,1.11398,-0.90380628,0.39404196,-0.070007145
1764762654.6809604,-4.10494,1.72438,1.11398,-0.90380628,0.39404196,-0.070007145
1764762654.6809604,-4.10494,1.72438,1.11398,-0.90380628,0.39404196,-0.070007145
1764762654.6809604,-4.10494,1.72438,1.11398,-0.90380628,0.39404196,-0.070007145
1764762654.6809604,-4.10494,1.72438,1.11398,-0.90380628,0.39404196,-0.070007145
1764762654.6809604,-4.10494,1.72438,1.11398,-0.90380628,0.39404196,-0.070007145
1764762654.6809604,-4.10494,1.72438,1.11398,-0.90380628,0.39404196,-0.070007145
1764762654.6809604,-4.10494,1.72438,1.11398,-0.90380628,0.39404196,-0.070007145
1764762654.6809604,-4.10494,1.72438,1.11398,-0.90380628,0.39404196,-0.070007145
1764762654.6809604,-3.57084,0.85456,0.12208,-0.90563733,0.392394015,-0.068420235
1764762654.6809604,-3.57084,0.85456,0.12208,-0.90563733,0.392394015,-0.068420235
1764762654.6809604,-3.57084,0.85456,0.12208,-0.90563733,0.392394015,-0.068420235
1764762654.6809604,-3.57084,0.85456,0.12208,-0.90563733,0.392394015,-0.068420235
1764762654.6809604,-3.57084,0.85456,0.12208,-0.90563733,0.392394015,-0.068420235
1764762654.6809604,-3.57084,0.85456,0.12208,-0.90563733,0.392394015,-0.068420235
1764762654.6809604,-3.57084,0.85456,0.12208,-0.90563733,0.392394015,-0.068420235
1764762654.6809604,-3.57084,0.85456,0.12208,-0.90563733,0.392394015,-0.068420235
1764762654.7264097,-3.57084,0.85456,0.12208,-0.90563733,0.392394015,-0.068420235
1764762654.7264097,-3.57084,0.85456,0.12208,-0.90563733,0.392394015,-0.068420235
1764762654.7264097,-2.02958,0.50358,0.1525999999999999,-0.906796995,0.39013572,-0.06982404
1764762654.7264097,-2.02958,0.50358,0.1525999999999999,-0.906796995,0.39013572,-0.06982404
1764762654.7264097,-2.02958,0.50358,0.1525999999999999,-0.906796995,0.39013572,-0.06982404
1764762654.7264097,-2.02958,0.50358,0.1525999999999999,-0.906796995,0.39013572,-0.06982404
1764762654.7264097,-2.02958,0.50358,0.1525999999999999,-0.906796995,0.39013572,-0.06982404
1764762654.7264097,-2.02958,0.50358,0.1525999999999999,-0.906796995,0.39013572,-0.06982404
1764762654.7264097,-2.02958,0.50358,0.1525999999999999,-0.906796995,0.39013572,-0.06982404
1764762654.7264097,-2.02958,0.50358,0.1525999999999999,-0.906796995,0.39013572,-0.06982404
1764762654.7264097,-2.02958,0.50358,0.1525999999999999,-0.906796995,0.39013572,-0.06982404
1764762654.7264097,-2.02958,0.50358,0.1525999999999999,-0.906796995,0.39013572,-0.06982404
1764762654.7264097,-0.94612,0.62566,0.59514,-0.907651485,0.39245505,-0.0720213
1764762654.7264097,-0.94612,0.62566,0.59514,-0.907651485,0.39245505,-0.0720213
1764762654.7264097,-0.94612,0.62566,0.59514,-0.907651485,0.39245505,-0.0720213
1764762654.7264097,-0.94612,0.62566,0.59514,-0.907651485,0.39245505,-0.0720213
1764762654.7264097,-0.94612,0.62566,0.59514,-0.907651485,0.39245505,-0.0720213
1764762654.7264097,-0.94612,0.62566,0.59514,-0.907651485,0.39245505,-0.0720213
1764762654.7264097,-0.94612,0.62566,0.59514,-0.907651485,0.39245505,-0.0720213
1764762654.7264097,-0.94612,0.62566,0.59514,-0.907651485,0.39245505,-0.0720213
1764762654.7264097,-0.94612,0.62566,0.59514,-0.907651485,0.39245505,-0.0720213
1764762654.7264097,-0.94612,0.62566,0.59514,-0.907651485,0.39245505,-0.0720213
1764762654.7264097,-1.31236,1.35814,0.4578,-0.90478284,0.395445765,-0.073913385
1764762654.7264097,-1.31236,1.35814,0.4578,-0.90478284,0.395445765,-0.073913385
1764762654.773406,-1.31236,1.35814,0.4578,-0.90478284,0.395445765,-0.073913385
1764762654.773406,-1.31236,1.35814,0.4578,-0.90478284,0.395445765,-0.073913385
1764762654.773406,-1.31236,1.35814,0.4578,-0.90478284,0.395445765,-0.073913385
1764762654.773406,-1.31236,1.35814,0.4578,-0.90478284,0.395445765,-0.073913385
1764762654.773406,-1.31236,1.35814,0.4578,-0.90478284,0.395445765,-0.073913385
1764762654.773406,-1.31236,1.35814,0.4578,-0.90478284,0.395445765,-0.073913385
1764762654.773406,-1.31236,1.35814,0.4578,-0.90478284,0.395445765,-0.073913385
1764762654.773406,-1.31236,1.35814,0.4578,-0.90478284,0.395445765,-0.073913385
1764762654.773406,-2.8994,1.87698,1.4497,-0.903501105,0.398131305,-0.074767875
1764762654.773406,-2.8994,1.87698,1.4497,-0.903501105,0.398131305,-0.074767875
1764762654.773406,-2.8994,1.87698,1.4497,-0.903501105,0.398131305,-0.074767875
1764762654.773406,-2.8994,1.87698,1.4497,-0.903501105,0.398131305,-0.074767875
1764762654.7739265,-2.8994,1.87698,1.4497,-0.903501105,0.398131305,-0.074767875
1764762654.7739265,-2.8994,1.87698,1.4497,-0.903501105,0.398131305,-0.074767875
1764762654.7739265,-2.8994,1.87698,1.4497,-0.903501105,0.398131305,-0.074767875
1764762654.7739265,-2.8994,1.87698,1.4497,-0.903501105,0.398131305,-0.074767875
1764762654.7739265,-2.8994,1.87698,1.4497,-0.903501105,0.398131305,-0.074767875
1764762654.7739265,-2.8994,1.87698,1.4497,-0.903501105,0.398131305,-0.074767875
1764762654.7739265,-4.715339999999999,1.34288,0.96138,-0.90392835,0.39904683,-0.07311993
1764762654.7739265,-4.715339999999999,1.34288,0.96138,-0.90392835,0.39904683,-0.07311993
1764762654.8203905,-4.715339999999999,1.34288,0.96138,-0.90392835,0.39904683,-0.07311993
1764762654.8203905,-4.715339999999999,1.34288,0.96138,-0.90392835,0.39904683,-0.07311993
1764762654.8203905,-4.715339999999999,1.34288,0.96138,-0.90392835,0.39904683,-0.07311993
1764762654.8203905,-4.715339999999999,1.34288,0.96138,-0.90392835,0.39904683,-0.07311993
1764762654.8203905,-4.715339999999999,1.34288,0.96138,-0.90392835,0.39904683,-0.07311993
1764762654.8203905,-4.715339999999999,1.34288,0.96138,-0.90392835,0.39904683,-0.07311993
1764762654.8203905,-4.715339999999999,1.34288,0.96138,-0.90392835,0.39904683,-0.07311993
1764762654.8203905,-4.715339999999999,1.34288,0.96138,-0.90392835,0.39904683,-0.07311993
1764762654.8203905,-4.47118,0.9003399999999999,0.39676,-0.904233525,0.39660543,-0.07189923
1764762654.8203905,-4.47118,0.9003399999999999,0.39676,-0.904233525,0.39660543,-0.07189923
1764762654.8203905,-4.47118,0.9003399999999999,0.39676,-0.904233525,0.39660543,-0.07189923
1764762654.8203905,-4.47118,0.9003399999999999,0.39676,-0.904233525,0.39660543,-0.07189923
1764762654.8203905,-4.47118,0.9003399999999999,0.39676,-0.904233525,0.39660543,-0.07189923
1764762654.8203905,-4.47118,0.9003399999999999,0.39676,-0.904233525,0.39660543,-0.07189923
1764762654.8203905,-4.47118,0.9003399999999999,0.39676,-0.904233525,0.39660543,-0.07189923
1764762654.8203905,-4.47118,0.9003399999999999,0.39676,-0.904233525,0.39660543,-0.07189923
1764762654.8203905,-4.47118,0.9003399999999999,0.39676,-0.904233525,0.39660543,-0.07189923
1764762654.8203905,-4.47118,0.9003399999999999,0.39676,-0.904233525,0.39660543,-0.07189923
1764762654.8203905,-2.83836,0.93086,-0.06104,-0.905332155,0.39465231,-0.072814755
1764762654.8203905,-2.83836,0.93086,-0.06104,-0.905332155,0.39465231,-0.072814755
1764762654.8203905,-2.83836,0.93086,-0.06104,-0.905332155,0.39465231,-0.072814755
1764762654.8203905,-2.83836,0.93086,-0.06104,-0.905332155,0.39465231,-0.072814755
1764762654.8203905,-2.83836,0.93086,-0.06104,-0.905332155,0.39465231,-0.072814755
1764762654.8203905,-2.83836,0.93086,-0.06104,-0.905332155,0.39465231,-0.072814755
1764762654.8203905,-2.83836,0.93086,-0.06104,-0.905332155,0.39465231,-0.072814755
1764762654.8203905,-2.83836,0.93086,-0.06104,-0.905332155,0.39465231,-0.072814755
1764762654.8203905,-2.83836,0.93086,-0.06104,-0.905332155,0.39465231,-0.072814755
1764762654.8203905,-2.83836,0.93086,-0.06104,-0.905332155,0.39465231,-0.072814755
1764762654.8671024,-2.83836,0.8087799999999999,0.3204599999999999,-0.90478284,0.39562887,-0.074401665
1764762654.8671024,-2.83836,0.8087799999999999,0.3204599999999999,-0.90478284,0.39562887,-0.074401665
1764762654.8671024,-2.83836,0.8087799999999999,0.3204599999999999,-0.90478284,0.39562887,-0.074401665
1764762654.8671024,-2.83836,0.8087799999999999,0.3204599999999999,-0.90478284,0.39562887,-0.074401665
1764762654.8671024,-2.83836,0.8087799999999999,0.3204599999999999,-0.90478284,0.39562887,-0.074401665
1764762654.8671024,-2.83836,0.8087799999999999,0.3204599999999999,-0.90478284,0.39562887,-0.074401665
1764762654.8671024,-2.83836,0.8087799999999999,0.3204599999999999,-0.90478284,0.39562887,-0.074401665
1764762654.8671024,-2.83836,0.8087799999999999,0.3204599999999999,-0.90478284,0.39562887,-0.074401665
1764762654.8671024,-2.83836,0.8087799999999999,0.3204599999999999,-0.90478284,0.39562887,-0.074401665
1764762654.8671024,-2.83836,0.8087799999999999,0.3204599999999999,-0.90478284,0.39562887,-0.074401665
1764762654.8671024,-3.70818,1.46496,0.77826,-0.904599735,0.396178185,-0.075134085
1764762654.8671024,-3.70818,1.46496,0.77826,-0.904599735,0.396178185,-0.075134085
1764762654.8671024,-3.70818,1.46496,0.77826,-0.904599735,0.396178185,-0.075134085
1764762654.8671024,-3.70818,1.46496,0.77826,-0.904599735,0.396178185,-0.075134085
1764762654.8671024,-3.70818,1.46496,0.77826,-0.904599735,0.396178185,-0.075134085
1764762654.8671024,-3.70818,1.46496,0.77826,-0.904599735,0.396178185,-0.075134085
1764762654.8671024,-3.70818,1.46496,0.77826,-0.904599735,0.396178185,-0.075134085
1764762654.8671024,-3.70818,1.46496,0.77826,-0.904599735,0.396178185,-0.075134085
1764762654.8671024,-3.70818,1.46496,0.77826,-0.904599735,0.396178185,-0.075134085
1764762654.8671024,-3.70818,1.46496,0.77826,-0.904599735,0.396178185,-0.075134085
1764762654.9138944,-4.76112,1.11398,0.6714399999999999,-0.90502698,0.39648336,-0.074035455
1764762654.9138944,-4.76112,1.11398,0.6714399999999999,-0.90502698,0.39648336,-0.074035455
1764762654.9138944,-4.76112,1.11398,0.6714399999999999,-0.90502698,0.39648336,-0.074035455
1764762654.9138944,-4.76112,1.11398,0.6714399999999999,-0.90502698,0.39648336,-0.074035455
1764762654.9138944,-4.76112,1.11398,0.6714399999999999,-0.90502698,0.39648336,-0.074035455
1764762654.9138944,-4.76112,1.11398,0.6714399999999999,-0.90502698,0.39648336,-0.074035455
1764762654.9138944,-4.76112,1.11398,0.6714399999999999,-0.90502698,0.39648336,-0.074035455
1764762654.9138944,-4.76112,1.11398,0.6714399999999999,-0.90502698,0.39648336,-0.074035455
1764762654.9138944,-4.76112,1.11398,0.6714399999999999,-0.90502698,0.39648336,-0.074035455
1764762654.9138944,-4.76112,1.11398,0.6714399999999999,-0.90502698,0.39648336,-0.074035455
1764762654.9138944,-5.15788,0.96138,0.39676,-0.905942505,0.39599508,-0.072204405
1764762654.9138944,-5.15788,0.96138,0.39676,-0.905942505,0.39599508,-0.072204405
1764762654.9138944,-5.15788,0.96138,0.39676,-0.905942505,0.39599508,-0.072204405
1764762654.9138944,-5.15788,0.96138,0.39676,-0.905942505,0.39599508,-0.072204405
1764762654.9138944,-5.15788,0.96138,0.39676,-0.905942505,0.39599508,-0.072204405
1764762654.9138944,-5.15788,0.96138,0.39676,-0.905942505,0.39599508,-0.072204405
1764762654.9138944,-5.15788,0.96138,0.39676,-0.905942505,0.39599508,-0.072204405
1764762654.9138944,-5.15788,0.96138,0.39676,-0.905942505,0.39599508,-0.072204405
1764762654.9138944,-5.15788,0.96138,0.39676,-0.905942505,0.39599508,-0.072204405
1764762654.9138944,-5.15788,0.96138,0.39676,-0.905942505,0.39599508,-0.072204405
1764762654.9138944,-4.41014,0.62566,0.3509799999999999,-0.906186645,0.39404196,-0.072082335
1764762654.9138944,-4.41014,0.62566,0.3509799999999999,-0.906186645,0.39404196,-0.072082335
1764762654.9605846,-4.41014,0.62566,0.3509799999999999,-0.906186645,0.39404196,-0.072082335
1764762654.9605846,-4.41014,0.62566,0.3509799999999999,-0.906186645,0.39404196,-0.072082335
1764762654.9605846,-4.41014,0.62566,0.3509799999999999,-0.906186645,0.39404196,-0.072082335
1764762654.9605846,-4.41014,0.62566,0.3509799999999999,-0.906186645,0.39404196,-0.072082335
1764762654.9605846,-4.41014,0.62566,0.3509799999999999,-0.906186645,0.39404196,-0.072082335
1764762654.9605846,-4.41014,0.62566,0.3509799999999999,-0.906186645,0.39404196,-0.072082335
1764762654.9605846,-4.41014,0.62566,0.3509799999999999,-0.906186645,0.39404196,-0.072082335
1764762654.9605846,-4.41014,0.62566,0.3509799999999999,-0.906186645,0.39404196,-0.072082335
1764762654.9605846,-3.72344,1.12924,0.36624,-0.90612561,0.394102995,-0.07336407
1764762654.9605846,-3.72344,1.12924,0.36624,-0.90612561,0.394102995,-0.07336407
1764762654.9605846,-3.72344,1.12924,0.36624,-0.90612561,0.394102995,-0.07336407
1764762654.9605846,-3.72344,1.12924,0.36624,-0.90612561,0.394102995,-0.07336407
1764762654.9605846,-3.72344,1.12924,0.36624,-0.90612561,0.394102995,-0.07336407
1764762654.9605846,-3.72344,1.12924,0.36624,-0.90612561,0.394102995,-0.07336407
1764762654.9605846,-3.72344,1.12924,0.36624,-0.90612561,0.394102995,-0.07336407
1764762654.9605846,-3.72344,1.12924,0.36624,-0.90612561,0.394102995,-0.07336407
1764762654.9605846,-3.72344,1.12924,0.36624,-0.90612561,0.394102995,-0.07336407
1764762654.9605846,-3.72344,1.12924,0.36624,-0.90612561,0.394102995,-0.07336407
1764762654.9605846,-3.31142,1.09872,0.59514,-0.90490491,0.39367575,-0.07360821
1764762654.9605846,-3.31142,1.09872,0.59514,-0.90490491,0.39367575,-0.07360821
1764762654.9605846,-3.31142,1.09872,0.59514,-0.90490491,0.39367575,-0.07360821
1764762654.9605846,-3.31142,1.09872,0.59514,-0.90490491,0.39367575,-0.07360821
1764762654.9605846,-3.31142,1.09872,0.59514,-0.90490491,0.39367575,-0.07360821
1764762654.9605846,-3.31142,1.09872,0.59514,-0.90490491,0.39367575,-0.07360821
1764762654.9605846,-3.31142,1.09872,0.59514,-0.90490491,0.39367575,-0.07360821
1764762654.9605846,-3.31142,1.09872,0.59514,-0.90490491,0.39367575,-0.07360821
1764762655.0071297,-3.31142,1.09872,0.59514,-0.90490491,0.39367575,-0.07360821
1764762655.0071297,-3.31142,1.09872,0.59514,-0.90490491,0.39367575,-0.07360821
1764762655.0071297,-4.01338,0.88508,0.36624,-0.905210085,0.394835415,-0.07348614
1764762655.0071297,-4.01338,0.88508,0.36624,-0.905210085,0.394835415,-0.07348614
1764762655.008235,-4.01338,0.88508,0.36624,-0.905210085,0.394835415,-0.07348614
1764762655.008235,-4.01338,0.88508,0.36624,-0.905210085,0.394835415,-0.07348614
1764762655.008235,-4.01338,0.88508,0.36624,-0.905210085,0.394835415,-0.07348614
1764762655.008235,-4.01338,0.88508,0.36624,-0.905210085,0.394835415,-0.07348614
1764762655.008235,-4.01338,0.88508,0.36624,-0.905210085,0.394835415,-0.07348614
1764762655.008235,-4.01338,0.88508,0.36624,-0.905210085,0.394835415,-0.07348614
1764762655.008622,-4.01338,0.88508,0.36624,-0.905210085,0.394835415,-0.07348614
1764762655.008622,-4.01338,0.88508,0.36624,-0.905210085,0.394835415,-0.07348614
1764762655.008622,-4.76112,0.88508,0.09156,-0.90563733,0.39501852,-0.07311993
1764762655.008622,-4.76112,0.88508,0.09156,-0.90563733,0.39501852,-0.07311993
1764762655.008622,-4.76112,0.88508,0.09156,-0.90563733,0.39501852,-0.07311993
1764762655.008622,-4.76112,0.88508,0.09156,-0.90563733,0.39501852,-0.07311993
1764762655.008622,-4.76112,0.88508,0.09156,-0.90563733,0.39501852,-0.07311993
1764762655.008622,-4.76112,0.88508,0.09156,-0.90563733,0.39501852,-0.07311993
1764762655.008622,-4.76112,0.88508,0.09156,-0.90563733,0.39501852,-0.07311993
1764762655.008622,-4.76112,0.88508,0.09156,-0.90563733,0.39501852,-0.07311993
1764762655.008622,-4.76112,0.88508,0.09156,-0.90563733,0.39501852,-0.07311993
1764762655.008622,-4.76112,0.88508,0.09156,-0.90563733,0.39501852,-0.07311993
1764762655.052036,-5.66146,1.2208,0.06104,-0.905942505,0.395934045,-0.07275372
1764762655.0525532,-5.66146,1.2208,0.06104,-0.905942505,0.395934045,-0.07275372
1764762655.0525532,-5.66146,1.2208,0.06104,-0.905942505,0.395934045,-0.07275372
1764762655.0525532,-5.66146,1.2208,0.06104,-0.905942505,0.395934045,-0.07275372
1764762655.0525532,-5.66146,1.2208,0.06104,-0.905942505,0.395934045,-0.07275372
1764762655.0525532,-5.66146,1.2208,0.06104,-0.905942505,0.395934045,-0.07275372
1764762655.0525532,-5.66146,1.2208,0.06104,-0.905942505,0.395934045,-0.07275372
1764762655.0525532,-5.66146,1.2208,0.06104,-0.905942505,0.395934045,-0.07275372
1764762655.0525532,-5.66146,1.2208,0.06104,-0.905942505,0.395934045,-0.07275372
1764762655.0525532,-5.66146,1.2208,0.06104,-0.905942505,0.395934045,-0.07275372
1764762655.0525532,-7.00434,0.94612,0.18312,-0.905210085,0.397398885,-0.07214337
1764762655.0525532,-7.00434,0.94612,0.18312,-0.905210085,0.397398885,-0.07214337
1764762655.0525532,-7.00434,0.94612,0.18312,-0.905210085,0.397398885,-0.07214337
1764762655.0525532,-7.00434,0.94612,0.18312,-0.905210085,0.397398885,-0.07214337
1764762655.0525532,-7.00434,0.94612,0.18312,-0.905210085,0.397398885,-0.07214337
1764762655.0525532,-7.00434,0.94612,0.18312,-0.905210085,0.397398885,-0.07214337
1764762655.0525532,-7.00434,0.94612,0.18312,-0.905210085,0.397398885,-0.07214337
1764762655.0525532,-7.00434,0.94612,0.18312,-0.905210085,0.397398885,-0.07214337
1764762655.0525532,-7.00434,0.94612,0.18312,-0.905210085,0.397398885,-0.07214337
1764762655.0525532,-7.00434,0.94612,0.18312,-0.905210085,0.397398885,-0.07214337
1764762655.0525532,-5.753019999999999,0.13734,0.18312,-0.905454225,0.394469205,-0.07177716
1764762655.0525532,-5.753019999999999,0.13734,0.18312,-0.905454225,0.394469205,-0.07177716
1764762655.0525532,-5.753019999999999,0.13734,0.18312,-0.905454225,0.394469205,-0.07177716
1764762655.0525532,-5.753019999999999,0.13734,0.18312,-0.905454225,0.394469205,-0.07177716
1764762655.0996726,-5.753019999999999,0.13734,0.18312,-0.905454225,0.394469205,-0.07177716
1764762655.1001842,-5.753019999999999,0.13734,0.18312,-0.905454225,0.394469205,-0.07177716
1764762655.1001842,-5.753019999999999,0.13734,0.18312,-0.905454225,0.394469205,-0.07177716
1764762655.1001842,-5.753019999999999,0.13734,0.18312,-0.905454225,0.394469205,-0.07177716
1764762655.1007128,-5.753019999999999,0.13734,0.18312,-0.905454225,0.394469205,-0.07177716
1764762655.1007128,-5.753019999999999,0.13734,0.18312,-0.905454225,0.394469205,-0.07177716
1764762655.1007128,-5.08158,0.18312,-0.39676,-0.90502698,0.390318825,-0.07250958
1764762655.1007128,-5.08158,0.18312,-0.39676,-0.90502698,0.390318825,-0.07250958
1764762655.1007128,-5.08158,0.18312,-0.39676,-0.90502698,0.390318825,-0.07250958
1764762655.1007128,-5.08158,0.18312,-0.39676,-0.90502698,0.390318825,-0.07250958
1764762655.1007128,-5.08158,0.18312,-0.39676,-0.90502698,0.390318825,-0.07250958
1764762655.1007128,-5.08158,0.18312,-0.39676,-0.90502698,0.390318825,-0.07250958
1764762655.1007128,-5.08158,0.18312,-0.39676,-0.90502698,0.390318825,-0.07250958
1764762655.1007128,-5.08158,0.18312,-0.39676,-0.90502698,0.390318825,-0.07250958
1764762655.1007128,-5.08158,0.18312,-0.39676,-0.90502698,0.390318825,-0.07250958
1764762655.1007128,-5.08158,0.18312,-0.39676,-0.90502698,0.390318825,-0.07250958
1764762655.101737,-5.70724,0.04578,-0.1678599999999999,-0.904355595,0.39074607,-0.073791315
1764762655.101737,-5.70724,0.04578,-0.1678599999999999,-0.904355595,0.39074607,-0.073791315
1764762655.101737,-5.70724,0.04578,-0.1678599999999999,-0.904355595,0.39074607,-0.073791315
1764762655.101737,-5.70724,0.04578,-0.1678599999999999,-0.904355595,0.39074607,-0.073791315
1764762655.101737,-5.70724,0.04578,-0.1678599999999999,-0.904355595,0.39074607,-0.073791315
1764762655.101737,-5.70724,0.04578,-0.1678599999999999,-0.904355595,0.39074607,-0.073791315
1764762655.101737,-5.70724,0.04578,-0.1678599999999999,-0.904355595,0.39074607,-0.073791315
1764762655.101737,-5.70724,0.04578,-0.1678599999999999,-0.904355595,0.39074607,-0.073791315
1764762655.1446464,-5.70724,0.04578,-0.1678599999999999,-0.904355595,0.39074607,-0.073791315
1764762655.1446464,-5.70724,0.04578,-0.1678599999999999,-0.904355595,0.39074607,-0.073791315
1764762655.14519,-7.477399999999999,1.09872,0.1678599999999999,-0.905942505,0.3942861,-0.07495098
1764762655.14519,-7.477399999999999,1.09872,0.1678599999999999,-0.905942505,0.3942861,-0.07495098
1764762655.14519,-7.477399999999999,1.09872,0.1678599999999999,-0.905942505,0.3942861,-0.07495098
1764762655.14519,-7.477399999999999,1.09872,0.1678599999999999,-0.905942505,0.3942861,-0.07495098
1764762655.14519,-7.477399999999999,1.09872,0.1678599999999999,-0.905942505,0.3942861,-0.07495098
1764762655.14519,-7.477399999999999,1.09872,0.1678599999999999,-0.905942505,0.3942861,-0.07495098
1764762655.14519,-7.477399999999999,1.09872,0.1678599999999999,-0.905942505,0.3942861,-0.07495098
1764762655.14519,-7.477399999999999,1.09872,0.1678599999999999,-0.905942505,0.3942861,-0.07495098
1764762655.14519,-7.477399999999999,1.09872,0.1678599999999999,-0.905942505,0.3942861,-0.07495098
1764762655.14519,-7.477399999999999,1.09872,0.1678599999999999,-0.905942505,0.3942861,-0.07495098
1764762655.14519,-6.62284,0.763,0.8698199999999999,-0.907895625,0.397032675,-0.073242
1764762655.14519,-6.62284,0.763,0.8698199999999999,-0.907895625,0.397032675,-0.073242
1764762655.14519,-6.62284,0.763,0.8698199999999999,-0.907895625,0.397032675,-0.073242
1764762655.14519,-6.62284,0.763,0.8698199999999999,-0.907895625,0.397032675,-0.073242
1764762655.14519,-6.62284,0.763,0.8698199999999999,-0.907895625,0.397032675,-0.073242
1764762655.14519,-6.62284,0.763,0.8698199999999999,-0.907895625,0.397032675,-0.073242
1764762655.14519,-6.62284,0.763,0.8698199999999999,-0.907895625,0.397032675,-0.073242
1764762655.14519,-6.62284,0.763,0.8698199999999999,-0.907895625,0.397032675,-0.073242
1764762655.1927893,-6.62284,0.763,0.8698199999999999,-0.907895625,0.397032675,-0.073242
1764762655.1927893,-6.62284,0.763,0.8698199999999999,-0.907895625,0.397032675,-0.073242
1764762655.1927893,-5.98192,0.9156,0.41202,-0.90807873,0.395323695,-0.072082335
1764762655.1927893,-5.98192,0.9156,0.41202,-0.90807873,0.395323695,-0.072082335
1764762655.1927893,-5.98192,0.9156,0.41202,-0.90807873,0.395323695,-0.072082335
1764762655.1927893,-5.98192,0.9156,0.41202,-0.90807873,0.395323695,-0.072082335
1764762655.1927893,-5.98192,0.9156,0.41202,-0.90807873,0.395323695,-0.072082335
1764762655.1927893,-5.98192,0.9156,0.41202,-0.90807873,0.395323695,-0.072082335
1764762655.1927893,-5.98192,0.9156,0.41202,-0.90807873,0.395323695,-0.072082335
1764762655.1927893,-5.98192,0.9156,0.41202,-0.90807873,0.395323695,-0.072082335
1764762655.1927893,-5.98192,0.9156,0.41202,-0.90807873,0.395323695,-0.072082335
1764762655.1927893,-5.98192,0.9156,0.41202,-0.90807873,0.395323695,-0.072082335
1764762655.1927893,-5.4173,0.8087799999999999,0.57988,-0.906430785,0.39257712,-0.072692685
1764762655.1927893,-5.4173,0.8087799999999999,0.57988,-0.906430785,0.39257712,-0.072692685
1764762655.1927893,-5.4173,0.8087799999999999,0.57988,-0.906430785,0.39257712,-0.072692685
1764762655.1927893,-5.4173,0.8087799999999999,0.57988,-0.906430785,0.39257712,-0.072692685
1764762655.1927893,-5.4173,0.8087799999999999,0.57988,-0.906430785,0.39257712,-0.072692685
1764762655.1927893,-5.4173,0.8087799999999999,0.57988,-0.906430785,0.39257712,-0.072692685
1764762655.1927893,-5.4173,0.8087799999999999,0.57988,-0.906430785,0.39257712,-0.072692685
1764762655.1927893,-5.4173,0.8087799999999999,0.57988,-0.906430785,0.39257712,-0.072692685
1764762655.1927893,-5.4173,0.8087799999999999,0.57988,-0.906430785,0.39257712,-0.072692685
1764762655.1927893,-5.4173,0.8087799999999999,0.57988,-0.906430785,0.39257712,-0.072692685
1764762655.1927893,-5.44782,0.82404,1.26658,-0.90588147,0.39221091,-0.073242
1764762655.1927893,-5.44782,0.82404,1.26658,-0.90588147,0.39221091,-0.073242
1764762655.1927893,-5.44782,0.82404,1.26658,-0.90588147,0.39221091,-0.073242
1764762655.1927893,-5.44782,0.82404,1.26658,-0.90588147,0.39221091,-0.073242
1764762655.2428336,-5.44782,0.82404,1.26658,-0.90588147,0.39221091,-0.073242
1764762655.2428336,-5.44782,0.82404,1.26658,-0.90588147,0.39221091,-0.073242
1764762655.2428336,-5.44782,0.82404,1.26658,-0.90588147,0.39221091,-0.073242
1764762655.2428336,-5.44782,0.82404,1.26658,-0.90588147,0.39221091,-0.073242
1764762655.2428336,-5.44782,0.82404,1.26658,-0.90588147,0.39221091,-0.073242
1764762655.2428336,-5.44782,0.82404,1.26658,-0.90588147,0.39221091,-0.073242
1764762655.2428336,-6.867,1.73964,1.12924,-0.90539319,0.39367575,-0.073669245
1764762655.2428336,-6.867,1.73964,1.12924,-0.90539319,0.39367575,-0.073669245
1764762655.2428336,-6.867,1.73964,1.12924,-0.90539319,0.39367575,-0.073669245
1764762655.2428336,-6.867,1.73964,1.12924,-0.90539319,0.39367575,-0.073669245
1764762655.2428336,-6.867,1.73964,1.12924,-0.90539319,0.39367575,-0.073669245
1764762655.2428336,-6.867,1.73964,1.12924,-0.90539319,0.39367575,-0.073669245
1764762655.2428336,-6.867,1.73964,1.12924,-0.90539319,0.39367575,-0.073669245
1764762655.2428336,-6.867,1.73964,1.12924,-0.90539319,0.39367575,-0.073669245
1764762655.2428336,-6.867,1.73964,1.12924,-0.90539319,0.39367575,-0.073669245
1764762655.2428336,-6.867,1.73964,1.12924,-0.90539319,0.39367575,-0.073669245
1764762655.2428336,-6.134519999999999,1.2971,0.56462,-0.90502698,0.392882295,-0.0720213
1764762655.2428336,-6.134519999999999,1.2971,0.56462,-0.90502698,0.392882295,-0.0720213
1764762655.2428336,-6.134519999999999,1.2971,0.56462,-0.90502698,0.392882295,-0.0720213
1764762655.2428336,-6.134519999999999,1.2971,0.56462,-0.90502698,0.392882295,-0.0720213
1764762655.2428336,-6.134519999999999,1.2971,0.56462,-0.90502698,0.392882295,-0.0720213
1764762655.2428336,-6.134519999999999,1.2971,0.56462,-0.90502698,0.392882295,-0.0720213
1764762655.2428336,-6.134519999999999,1.2971,0.56462,-0.90502698,0.392882295,-0.0720213
1764762655.2428336,-6.134519999999999,1.2971,0.56462,-0.90502698,0.392882295,-0.0720213
1764762655.2904882,-6.134519999999999,1.2971,0.56462,-0.90502698,0.392882295,-0.0720213
1764762655.2904882,-6.134519999999999,1.2971,0.56462,-0.90502698,0.392882295,-0.0720213
1764762655.2904882,-5.21892,0.4578,0.47306,-0.905698365,0.392149875,-0.06994611
1764762655.2904882,-5.21892,0.4578,0.47306,-0.905698365,0.392149875,-0.06994611
1764762655.2904882,-5.21892,0.4578,0.47306,-0.905698365,0.392149875,-0.06994611
1764762655.2904882,-5.21892,0.4578,0.47306,-0.905698365,0.392149875,-0.06994611
1764762655.2904882,-5.21892,0.4578,0.47306,-0.905698365,0.392149875,-0.06994611
1764762655.2904882,-5.21892,0.4578,0.47306,-0.905698365,0.392149875,-0.06994611
1764762655.2904882,-5.21892,0.4578,0.47306,-0.905698365,0.392149875,-0.06994611
1764762655.2904882,-5.21892,0.4578,0.47306,-0.905698365,0.392149875,-0.06994611
1764762655.2904882,-5.21892,0.4578,0.47306,-0.905698365,0.392149875,-0.06994611
1764762655.2904882,-5.21892,0.4578,0.47306,-0.905698365,0.392149875,-0.06994611
1764762655.2904882,-3.90656,0.25942,0.56462,-0.907041135,0.39367575,-0.071227845
1764762655.2904882,-3.90656,0.25942,0.56462,-0.907041135,0.39367575,-0.071227845
1764762655.2914865,-3.90656,0.25942,0.56462,-0.907041135,0.39367575,-0.071227845
1764762655.2914865,-3.90656,0.25942,0.56462,-0.907041135,0.39367575,-0.071227845
1764762655.2914865,-3.90656,0.25942,0.56462,-0.907041135,0.39367575,-0.071227845
1764762655.2914865,-3.90656,0.25942,0.56462,-0.907041135,0.39367575,-0.071227845
1764762655.2914865,-3.90656,0.25942,0.56462,-0.907041135,0.39367575,-0.071227845
1764762655.2914865,-3.90656,0.25942,0.56462,-0.907041135,0.39367575,-0.071227845
1764762655.2914865,-3.90656,0.25942,0.56462,-0.907041135,0.39367575,-0.071227845
1764762655.2914865,-3.90656,0.25942,0.56462,-0.907041135,0.39367575,-0.071227845
1764762655.2914865,-3.86078,0.44254,0.93086,-0.906674925,0.396178185,-0.073425105
1764762655.2914865,-3.86078,0.44254,0.93086,-0.906674925,0.396178185,-0.073425105
1764762655.333577,-3.86078,0.44254,0.93086,-0.906674925,0.396178185,-0.073425105
1764762655.333577,-3.86078,0.44254,0.93086,-0.906674925,0.396178185,-0.073425105
1764762655.333577,-3.86078,0.44254,0.93086,-0.906674925,0.396178185,-0.073425105
1764762655.333577,-3.86078,0.44254,0.93086,-0.906674925,0.396178185,-0.073425105
1764762655.333577,-3.86078,0.44254,0.93086,-0.906674925,0.396178185,-0.073425105
1764762655.333577,-3.86078,0.44254,0.93086,-0.906674925,0.396178185,-0.073425105
1764762655.333577,-3.86078,0.44254,0.93086,-0.906674925,0.396178185,-0.073425105
1764762655.333577,-3.86078,0.44254,0.93086,-0.906674925,0.396178185,-0.073425105
1764762655.333577,-4.68482,0.62566,0.6409199999999999,-0.904721805,0.39721578,-0.07385235
1764762655.333577,-4.68482,0.62566,0.6409199999999999,-0.904721805,0.39721578,-0.07385235
1764762655.333577,-4.68482,0.62566,0.6409199999999999,-0.904721805,0.39721578,-0.07385235
1764762655.333577,-4.68482,0.62566,0.6409199999999999,-0.904721805,0.39721578,-0.07385235
1764762655.333577,-4.68482,0.62566,0.6409199999999999,-0.904721805,0.39721578,-0.07385235
1764762655.333577,-4.68482,0.62566,0.6409199999999999,-0.904721805,0.39721578,-0.07385235
1764762655.333577,-4.68482,0.62566,0.6409199999999999,-0.904721805,0.39721578,-0.07385235
1764762655.333577,-4.68482,0.62566,0.6409199999999999,-0.904721805,0.39721578,-0.07385235
1764762655.333577,-4.68482,0.62566,0.6409199999999999,-0.904721805,0.39721578,-0.07385235
1764762655.333577,-4.68482,0.62566,0.6409199999999999,-0.904721805,0.39721578,-0.07385235
1764762655.333577,-5.27996,0.82404,0.54936,-0.904233525,0.39648336,-0.07434063
1764762655.333577,-5.27996,0.82404,0.54936,-0.904233525,0.39648336,-0.07434063
1764762655.383481,-5.27996,0.82404,0.54936,-0.904233525,0.39648336,-0.07434063
1764762655.383481,-5.27996,0.82404,0.54936,-0.904233525,0.39648336,-0.07434063
1764762655.383481,-5.27996,0.82404,0.54936,-0.904233525,0.39648336,-0.07434063
1764762655.383481,-5.27996,0.82404,0.54936,-0.904233525,0.39648336,-0.07434063
1764762655.383481,-5.27996,0.82404,0.54936,-0.904233525,0.39648336,-0.07434063
1764762655.383481,-5.27996,0.82404,0.54936,-0.904233525,0.39648336,-0.07434063
1764762655.383481,-5.27996,0.82404,0.54936,-0.904233525,0.39648336,-0.07434063
1764762655.383481,-5.27996,0.82404,0.54936,-0.904233525,0.39648336,-0.07434063
1764762655.383481,-5.17314,0.96138,0.9156,-0.90478284,0.396056115,-0.072814755
1764762655.383481,-5.17314,0.96138,0.9156,-0.90478284,0.396056115,-0.072814755
1764762655.383481,-5.17314,0.96138,0.9156,-0.90478284,0.396056115,-0.072814755
1764762655.383481,-5.17314,0.96138,0.9156,-0.90478284,0.396056115,-0.072814755
1764762655.383481,-5.17314,0.96138,0.9156,-0.90478284,0.396056115,-0.072814755
1764762655.383481,-5.17314,0.96138,0.9156,-0.90478284,0.396056115,-0.072814755
1764762655.383481,-5.17314,0.96138,0.9156,-0.90478284,0.396056115,-0.072814755
1764762655.383481,-5.17314,0.96138,0.9156,-0.90478284,0.396056115,-0.072814755
1764762655.42679,-5.17314,0.96138,0.9156,-0.90478284,0.396056115,-0.072814755
1764762655.42679,-5.17314,0.96138,0.9156,-0.90478284,0.396056115,-0.072814755
1764762655.4273202,-4.70008,0.7019599999999999,0.73248,-0.9057594,0.394713345,-0.07226544
1764762655.4273202,-4.70008,0.7019599999999999,0.73248,-0.9057594,0.394713345,-0.07226544
1764762655.4273202,-4.70008,0.7019599999999999,0.73248,-0.9057594,0.394713345,-0.07226544
1764762655.4273202,-4.70008,0.7019599999999999,0.73248,-0.9057594,0.394713345,-0.07226544
1764762655.4273202,-4.70008,0.7019599999999999,0.73248,-0.9057594,0.394713345,-0.07226544
1764762655.4273202,-4.70008,0.7019599999999999,0.73248,-0.9057594,0.394713345,-0.07226544
1764762655.4273202,-4.70008,0.7019599999999999,0.73248,-0.9057594,0.394713345,-0.07226544
1764762655.4273202,-4.70008,0.7019599999999999,0.73248,-0.9057594,0.394713345,-0.07226544
1764762655.4273202,-4.70008,0.7019599999999999,0.73248,-0.9057594,0.394713345,-0.07226544
1764762655.4273202,-4.70008,0.7019599999999999,0.73248,-0.9057594,0.394713345,-0.07226544
1764762655.4273202,-4.21176,1.2055399999999998,0.12208,-0.90551526,0.394469205,-0.07214337
1764762655.4273202,-4.21176,1.2055399999999998,0.12208,-0.90551526,0.394469205,-0.07214337
1764762655.4273202,-4.21176,1.2055399999999998,0.12208,-0.90551526,0.394469205,-0.07214337
1764762655.4273202,-4.21176,1.2055399999999998,0.12208,-0.90551526,0.394469205,-0.07214337
1764762655.4283383,-4.21176,1.2055399999999998,0.12208,-0.90551526,0.394469205,-0.07214337
1764762655.4283383,-4.21176,1.2055399999999998,0.12208,-0.90551526,0.394469205,-0.07214337
1764762655.4283383,-4.21176,1.2055399999999998,0.12208,-0.90551526,0.394469205,-0.07214337
1764762655.4283383,-4.21176,1.2055399999999998,0.12208,-0.90551526,0.394469205,-0.07214337
1764762655.4283383,-4.21176,1.2055399999999998,0.12208,-0.90551526,0.394469205,-0.07214337
1764762655.4283383,-4.21176,1.2055399999999998,0.12208,-0.90551526,0.394469205,-0.07214337
1764762655.4283383,-3.815,0.54936,0.93086,-0.90490491,0.394591275,-0.07263165
1764762655.4283383,-3.815,0.54936,0.93086,-0.90490491,0.394591275,-0.07263165
1764762655.4283383,-3.815,0.54936,0.93086,-0.90490491,0.394591275,-0.07263165
1764762655.429347,-3.815,0.54936,0.93086,-0.90490491,0.394591275,-0.07263165
1764762655.429347,-3.815,0.54936,0.93086,-0.90490491,0.394591275,-0.07263165
1764762655.429347,-3.815,0.54936,0.93086,-0.90490491,0.394591275,-0.07263165
1764762655.429347,-3.815,0.54936,0.93086,-0.90490491,0.394591275,-0.07263165
1764762655.429347,-3.815,0.54936,0.93086,-0.90490491,0.394591275,-0.07263165
1764762655.429347,-3.815,0.54936,0.93086,-0.90490491,0.394591275,-0.07263165
1764762655.429347,-3.815,0.54936,0.93086,-0.90490491,0.394591275,-0.07263165
1764762655.429347,-4.8069,1.0682,0.94612,-0.90466077,0.39538473,-0.073058895
1764762655.4303467,-4.8069,1.0682,0.94612,-0.90466077,0.39538473,-0.073058895
1764762655.4303467,-4.8069,1.0682,0.94612,-0.90466077,0.39538473,-0.073058895
1764762655.4303467,-4.8069,1.0682,0.94612,-0.90466077,0.39538473,-0.073058895
1764762655.4742303,-4.8069,1.0682,0.94612,-0.90466077,0.39538473,-0.073058895
1764762655.4742303,-4.8069,1.0682,0.94612,-0.90466077,0.39538473,-0.073058895
1764762655.475258,-4.8069,1.0682,0.94612,-0.90466077,0.39538473,-0.073058895
1764762655.475258,-4.8069,1.0682,0.94612,-0.90466077,0.39538473,-0.073058895
1764762655.475258,-4.8069,1.0682,0.94612,-0.90466077,0.39538473,-0.073058895
1764762655.475258,-4.8069,1.0682,0.94612,-0.90466077,0.39538473,-0.073058895
1764762655.475258,-5.234179999999999,1.19028,0.8087799999999999,-0.905942505,0.39562887,-0.072692685
1764762655.475898,-5.234179999999999,1.19028,0.8087799999999999,-0.905942505,0.39562887,-0.072692685
1764762655.475898,-5.234179999999999,1.19028,0.8087799999999999,-0.905942505,0.39562887,-0.072692685
1764762655.475898,-5.234179999999999,1.19028,0.8087799999999999,-0.905942505,0.39562887,-0.072692685
1764762655.475898,-5.234179999999999,1.19028,0.8087799999999999,-0.905942505,0.39562887,-0.072692685
1764762655.475898,-5.234179999999999,1.19028,0.8087799999999999,-0.905942505,0.39562887,-0.072692685
1764762655.475898,-5.234179999999999,1.19028,0.8087799999999999,-0.905942505,0.39562887,-0.072692685
1764762655.475898,-5.234179999999999,1.19028,0.8087799999999999,-0.905942505,0.39562887,-0.072692685
1764762655.475898,-5.234179999999999,1.19028,0.8087799999999999,-0.905942505,0.39562887,-0.072692685
1764762655.475898,-5.234179999999999,1.19028,0.8087799999999999,-0.905942505,0.39562887,-0.072692685
1764762655.4762557,-5.4173,0.57988,1.11398,-0.9069801,0.39587301,-0.07141095
1764762655.4762557,-5.4173,0.57988,1.11398,-0.9069801,0.39587301,-0.07141095
1764762655.4762557,-5.4173,0.57988,1.11398,-0.9069801,0.39587301,-0.07141095
1764762655.4762557,-5.4173,0.57988,1.11398,-0.9069801,0.39587301,-0.07141095
1764762655.522271,-5.4173,0.57988,1.11398,-0.9069801,0.39587301,-0.07141095
1764762655.522271,-5.4173,0.57988,1.11398,-0.9069801,0.39587301,-0.07141095
1764762655.522271,-5.4173,0.57988,1.11398,-0.9069801,0.39587301,-0.07141095
1764762655.522271,-5.4173,0.57988,1.11398,-0.9069801,0.39587301,-0.07141095
1764762655.522271,-5.4173,0.57988,1.11398,-0.9069801,0.39587301,-0.07141095
1764762655.522271,-5.4173,0.57988,1.11398,-0.9069801,0.39587301,-0.07141095
1764762655.5232785,-5.02054,0.763,1.08346,-0.906186645,0.39538473,-0.07067853
1764762655.5232785,-5.02054,0.763,1.08346,-0.906186645,0.39538473,-0.07067853
1764762655.5232785,-5.02054,0.763,1.08346,-0.906186645,0.39538473,-0.07067853
1764762655.5232785,-5.02054,0.763,1.08346,-0.906186645,0.39538473,-0.07067853
1764762655.5232785,-5.02054,0.763,1.08346,-0.906186645,0.39538473,-0.07067853
1764762655.5232785,-5.02054,0.763,1.08346,-0.906186645,0.39538473,-0.07067853
1764762655.5232785,-5.02054,0.763,1.08346,-0.906186645,0.39538473,-0.07067853
1764762655.5232785,-5.02054,0.763,1.08346,-0.906186645,0.39538473,-0.07067853
1764762655.5232785,-5.02054,0.763,1.08346,-0.906186645,0.39538473,-0.07067853
1764762655.5232785,-5.02054,0.763,1.08346,-0.906186645,0.39538473,-0.07067853
1764762655.5232785,-4.54748,0.54936,0.94612,-0.905576295,0.394591275,-0.070983705
1764762655.5232785,-4.54748,0.54936,0.94612,-0.905576295,0.394591275,-0.070983705
1764762655.5232785,-4.54748,0.54936,0.94612,-0.905576295,0.394591275,-0.070983705
1764762655.5232785,-4.54748,0.54936,0.94612,-0.905576295,0.394591275,-0.070983705
1764762655.5232785,-4.54748,0.54936,0.94612,-0.905576295,0.394591275,-0.070983705
1764762655.5232785,-4.54748,0.54936,0.94612,-0.905576295,0.394591275,-0.070983705
1764762655.524788,-4.54748,0.54936,0.94612,-0.905576295,0.394591275,-0.070983705
1764762655.524788,-4.54748,0.54936,0.94612,-0.905576295,0.394591275,-0.070983705
1764762655.570856,-4.54748,0.54936,0.94612,-0.905576295,0.394591275,-0.070983705
1764762655.570856,-4.54748,0.54936,0.94612,-0.905576295,0.394591275,-0.070983705
1764762655.570856,-4.6543,0.6103999999999999,0.79352,-0.905210085,0.3942861,-0.072814755
1764762655.570856,-4.6543,0.6103999999999999,0.79352,-0.905210085,0.3942861,-0.072814755
1764762655.570856,-4.6543,0.6103999999999999,0.79352,-0.905210085,0.3942861,-0.072814755
1764762655.570856,-4.6543,0.6103999999999999,0.79352,-0.905210085,0.3942861,-0.072814755
1764762655.570856,-4.6543,0.6103999999999999,0.79352,-0.905210085,0.3942861,-0.072814755
1764762655.570856,-4.6543,0.6103999999999999,0.79352,-0.905210085,0.3942861,-0.072814755
1764762655.570856,-4.6543,0.6103999999999999,0.79352,-0.905210085,0.3942861,-0.072814755
1764762655.570856,-4.6543,0.6103999999999999,0.79352,-0.905210085,0.3942861,-0.072814755
1764762655.570856,-4.6543,0.6103999999999999,0.79352,-0.905210085,0.3942861,-0.072814755
1764762655.571364,-4.6543,0.6103999999999999,0.79352,-0.905210085,0.3942861,-0.072814755
1764762655.571364,-4.56274,0.71722,0.51884,-0.90539319,0.395445765,-0.073180965
1764762655.571364,-4.56274,0.71722,0.51884,-0.90539319,0.395445765,-0.073180965
1764762655.571364,-4.56274,0.71722,0.51884,-0.90539319,0.395445765,-0.073180965
1764762655.571364,-4.56274,0.71722,0.51884,-0.90539319,0.395445765,-0.073180965
1764762655.571364,-4.56274,0.71722,0.51884,-0.90539319,0.395445765,-0.073180965
1764762655.571364,-4.56274,0.71722,0.51884,-0.90539319,0.395445765,-0.073180965
1764762655.571364,-4.56274,0.71722,0.51884,-0.90539319,0.395445765,-0.073180965
1764762655.571364,-4.56274,0.71722,0.51884,-0.90539319,0.395445765,-0.073180965
1764762655.571364,-4.56274,0.71722,0.51884,-0.90539319,0.395445765,-0.073180965
1764762655.571364,-4.56274,0.71722,0.51884,-0.90539319,0.395445765,-0.073180965
1764762655.571364,-5.0358,0.94612,0.42728,-0.9045387,0.397887165,-0.07311993
1764762655.571364,-5.0358,0.94612,0.42728,-0.9045387,0.397887165,-0.07311993
1764762655.571364,-5.0358,0.94612,0.42728,-0.9045387,0.397887165,-0.07311993
1764762655.571364,-5.0358,0.94612,0.42728,-0.9045387,0.397887165,-0.07311993
1764762655.6179657,-5.0358,0.94612,0.42728,-0.9045387,0.397887165,-0.07311993
1764762655.6179657,-5.0358,0.94612,0.42728,-0.9045387,0.397887165,-0.07311993
1764762655.6179657,-5.0358,0.94612,0.42728,-0.9045387,0.397887165,-0.07311993
1764762655.6179657,-5.0358,0.94612,0.42728,-0.9045387,0.397887165,-0.07311993
1764762655.6179657,-5.0358,0.94612,0.42728,-0.9045387,0.397887165,-0.07311993
1764762655.6179657,-5.0358,0.94612,0.42728,-0.9045387,0.397887165,-0.07311993
1764762655.6179657,-4.56274,0.28994,0.71722,-0.90405042,0.397887165,-0.072570615
1764762655.6179657,-4.56274,0.28994,0.71722,-0.90405042,0.397887165,-0.072570615
1764762655.6179657,-4.56274,0.28994,0.71722,-0.90405042,0.397887165,-0.072570615
1764762655.6179657,-4.56274,0.28994,0.71722,-0.90405042,0.397887165,-0.072570615
1764762655.6179657,-4.56274,0.28994,0.71722,-0.90405042,0.397887165,-0.072570615
1764762655.6179657,-4.56274,0.28994,0.71722,-0.90405042,0.397887165,-0.072570615
1764762655.6179657,-4.56274,0.28994,0.71722,-0.90405042,0.397887165,-0.072570615
1764762655.6179657,-4.56274,0.28994,0.71722,-0.90405042,0.397887165,-0.072570615
1764762655.6179657,-4.56274,0.28994,0.71722,-0.90405042,0.397887165,-0.072570615
1764762655.6179657,-4.56274,0.28994,0.71722,-0.90405042,0.397887165,-0.072570615
1764762655.6179657,-5.1884,0.8698199999999999,0.21364,-0.903989385,0.39599508,-0.073242
1764762655.6179657,-5.1884,0.8698199999999999,0.21364,-0.903989385,0.39599508,-0.073242
1764762655.6179657,-5.1884,0.8698199999999999,0.21364,-0.903989385,0.39599508,-0.073242
1764762655.6179657,-5.1884,0.8698199999999999,0.21364,-0.903989385,0.39599508,-0.073242
1764762655.6179657,-5.1884,0.8698199999999999,0.21364,-0.903989385,0.39599508,-0.073242
1764762655.6179657,-5.1884,0.8698199999999999,0.21364,-0.903989385,0.39599508,-0.073242
1764762655.6646736,-5.1884,0.8698199999999999,0.21364,-0.903989385,0.39599508,-0.073242
1764762655.6646736,-5.1884,0.8698199999999999,0.21364,-0.903989385,0.39599508,-0.073242
1764762655.6646736,-5.1884,0.8698199999999999,0.21364,-0.903989385,0.39599508,-0.073242
1764762655.6646736,-5.1884,0.8698199999999999,0.21364,-0.903989385,0.39599508,-0.073242
1764762655.6646736,-5.73776,1.09872,0.44254,-0.90514905,0.39587301,-0.073058895
1764762655.6646736,-5.73776,1.09872,0.44254,-0.90514905,0.39587301,-0.073058895
1764762655.6646736,-5.73776,1.09872,0.44254,-0.90514905,0.39587301,-0.073058895
1764762655.6646736,-5.73776,1.09872,0.44254,-0.90514905,0.39587301,-0.073058895
1764762655.6646736,-5.73776,1.09872,0.44254,-0.90514905,0.39587301,-0.073058895
1764762655.6646736,-5.73776,1.09872,0.44254,-0.90514905,0.39587301,-0.073058895
1764762655.6646736,-5.73776,1.09872,0.44254,-0.90514905,0.39587301,-0.073058895
1764762655.6646736,-5.73776,1.09872,0.44254,-0.90514905,0.39587301,-0.073058895
1764762655.6646736,-5.73776,1.09872,0.44254,-0.90514905,0.39587301,-0.073058895
1764762655.6646736,-5.73776,1.09872,0.44254,-0.90514905,0.39587301,-0.073058895
1764762655.6646736,-5.15788,0.62566,0.25942,-0.90551526,0.39660543,-0.073303035
1764762655.6646736,-5.15788,0.62566,0.25942,-0.90551526,0.39660543,-0.073303035
1764762655.6646736,-5.15788,0.62566,0.25942,-0.90551526,0.39660543,-0.073303035
1764762655.6646736,-5.15788,0.62566,0.25942,-0.90551526,0.39660543,-0.073303035
1764762655.6646736,-5.15788,0.62566,0.25942,-0.90551526,0.39660543,-0.073303035
1764762655.6646736,-5.15788,0.62566,0.25942,-0.90551526,0.39660543,-0.073303035
1764762655.6646736,-5.15788,0.62566,0.25942,-0.90551526,0.39660543,-0.073303035
1764762655.6646736,-5.15788,0.62566,0.25942,-0.90551526,0.39660543,-0.073303035
1764762655.6646736,-5.15788,0.62566,0.25942,-0.90551526,0.39660543,-0.073303035
1764762655.6646736,-5.15788,0.62566,0.25942,-0.90551526,0.39660543,-0.073303035
1764762655.7115042,-4.2728,0.74774,-0.06104,-0.90441663,0.39636129,-0.07299786
1764762655.7115042,-4.2728,0.74774,-0.06104,-0.90441663,0.39636129,-0.07299786
1764762655.7115042,-4.2728,0.74774,-0.06104,-0.90441663,0.39636129,-0.07299786
1764762655.7125096,-4.2728,0.74774,-0.06104,-0.90441663,0.39636129,-0.07299786
1764762655.7125096,-4.2728,0.74774,-0.06104,-0.90441663,0.39636129,-0.07299786
1764762655.7125096,-4.2728,0.74774,-0.06104,-0.90441663,0.39636129,-0.07299786
1764762655.7125096,-4.2728,0.74774,-0.06104,-0.90441663,0.39636129,-0.07299786
1764762655.7125096,-4.2728,0.74774,-0.06104,-0.90441663,0.39636129,-0.07299786
1764762655.7125096,-4.2728,0.74774,-0.06104,-0.90441663,0.39636129,-0.07299786
1764762655.7125096,-4.2728,0.74774,-0.06104,-0.90441663,0.39636129,-0.07299786
1764762655.7125096,-5.234179999999999,0.6867,-0.01526,-0.903379035,0.395689905,-0.073547175
1764762655.7125096,-5.234179999999999,0.6867,-0.01526,-0.903379035,0.395689905,-0.073547175
1764762655.7125096,-5.234179999999999,0.6867,-0.01526,-0.903379035,0.395689905,-0.073547175
1764762655.7125096,-5.234179999999999,0.6867,-0.01526,-0.903379035,0.395689905,-0.073547175
1764762655.7125096,-5.234179999999999,0.6867,-0.01526,-0.903379035,0.395689905,-0.073547175
1764762655.7125096,-5.234179999999999,0.6867,-0.01526,-0.903379035,0.395689905,-0.073547175
1764762655.7125096,-5.234179999999999,0.6867,-0.01526,-0.903379035,0.395689905,-0.073547175
1764762655.7125096,-5.234179999999999,0.6867,-0.01526,-0.903379035,0.395689905,-0.073547175
1764762655.7125096,-5.234179999999999,0.6867,-0.01526,-0.903379035,0.395689905,-0.073547175
1764762655.7125096,-5.234179999999999,0.6867,-0.01526,-0.903379035,0.395689905,-0.073547175
1764762655.7125096,-5.753019999999999,0.44254,0.8698199999999999,-0.904843875,0.39611715,-0.07385235
1764762655.7125096,-5.753019999999999,0.44254,0.8698199999999999,-0.904843875,0.39611715,-0.07385235
1764762655.7125096,-5.753019999999999,0.44254,0.8698199999999999,-0.904843875,0.39611715,-0.07385235
1764762655.7125096,-5.753019999999999,0.44254,0.8698199999999999,-0.904843875,0.39611715,-0.07385235
1764762655.7549112,-5.753019999999999,0.44254,0.8698199999999999,-0.904843875,0.39611715,-0.07385235
1764762655.7549112,-5.753019999999999,0.44254,0.8698199999999999,-0.904843875,0.39611715,-0.07385235
1764762655.7549112,-5.753019999999999,0.44254,0.8698199999999999,-0.904843875,0.39611715,-0.07385235
1764762655.7549112,-5.753019999999999,0.44254,0.8698199999999999,-0.904843875,0.39611715,-0.07385235
1764762655.7549112,-5.753019999999999,0.44254,0.8698199999999999,-0.904843875,0.39611715,-0.07385235
1764762655.7549112,-5.753019999999999,0.44254,0.8698199999999999,-0.904843875,0.39611715,-0.07385235
1764762655.7549112,-5.15788,0.65618,0.28994,-0.905942505,0.39721578,-0.07263165
1764762655.7549112,-5.15788,0.65618,0.28994,-0.905942505,0.39721578,-0.07263165
1764762655.7549112,-5.15788,0.65618,0.28994,-0.905942505,0.39721578,-0.07263165
1764762655.7549112,-5.15788,0.65618,0.28994,-0.905942505,0.39721578,-0.07263165
1764762655.7549112,-5.15788,0.65618,0.28994,-0.905942505,0.39721578,-0.07263165
1764762655.7549112,-5.15788,0.65618,0.28994,-0.905942505,0.39721578,-0.07263165
1764762655.7549112,-5.15788,0.65618,0.28994,-0.905942505,0.39721578,-0.07263165
1764762655.7549112,-5.15788,0.65618,0.28994,-0.905942505,0.39721578,-0.07263165
1764762655.7549112,-5.15788,0.65618,0.28994,-0.905942505,0.39721578,-0.07263165
1764762655.7549112,-5.15788,0.65618,0.28994,-0.905942505,0.39721578,-0.07263165
1764762655.7549112,-4.48644,1.86172,-0.04578,-0.9057594,0.39709371,-0.07189923
1764762655.7549112,-4.48644,1.86172,-0.04578,-0.9057594,0.39709371,-0.07189923
1764762655.7549112,-4.48644,1.86172,-0.04578,-0.9057594,0.39709371,-0.07189923
1764762655.7549112,-4.48644,1.86172,-0.04578,-0.9057594,0.39709371,-0.07189923
1764762655.7549112,-4.48644,1.86172,-0.04578,-0.9057594,0.39709371,-0.07189923
1764762655.7549112,-4.48644,1.86172,-0.04578,-0.9057594,0.39709371,-0.07189923
1764762655.8014994,-4.48644,1.86172,-0.04578,-0.9057594,0.39709371,-0.07189923
1764762655.8014994,-4.48644,1.86172,-0.04578,-0.9057594,0.39709371,-0.07189923
1764762655.8025117,-4.48644,1.86172,-0.04578,-0.9057594,0.39709371,-0.07189923
1764762655.8025117,-4.48644,1.86172,-0.04578,-0.9057594,0.39709371,-0.07189923
1764762655.8025117,-4.41014,1.73964,-0.59514,-0.90502698,0.39599508,-0.072204405
1764762655.8025117,-4.41014,1.73964,-0.59514,-0.90502698,0.39599508,-0.072204405
1764762655.8025117,-4.41014,1.73964,-0.59514,-0.90502698,0.39599508,-0.072204405
1764762655.8025117,-4.41014,1.73964,-0.59514,-0.90502698,0.39599508,-0.072204405
1764762655.8025117,-4.41014,1.73964,-0.59514,-0.90502698,0.39599508,-0.072204405
1764762655.8025117,-4.41014,1.73964,-0.59514,-0.90502698,0.39599508,-0.072204405
1764762655.8025117,-4.41014,1.73964,-0.59514,-0.90502698,0.39599508,-0.072204405
1764762655.8025117,-4.41014,1.73964,-0.59514,-0.90502698,0.39599508,-0.072204405
1764762655.8025117,-4.41014,1.73964,-0.59514,-0.90502698,0.39599508,-0.072204405
1764762655.8025117,-4.41014,1.73964,-0.59514,-0.90502698,0.39599508,-0.072204405
1764762655.8025117,-4.6543,1.77016,1.54126,-0.904233525,0.39660543,-0.071716125
1764762655.8025117,-4.6543,1.77016,1.54126,-0.904233525,0.39660543,-0.071716125
1764762655.8025117,-4.6543,1.77016,1.54126,-0.904233525,0.39660543,-0.071716125
1764762655.8025117,-4.6543,1.77016,1.54126,-0.904233525,0.39660543,-0.071716125
1764762655.8025117,-4.6543,1.77016,1.54126,-0.904233525,0.39660543,-0.071716125
1764762655.8025117,-4.6543,1.77016,1.54126,-0.904233525,0.39660543,-0.071716125
1764762655.8025117,-4.6543,1.77016,1.54126,-0.904233525,0.39660543,-0.071716125
1764762655.8025117,-4.6543,1.77016,1.54126,-0.904233525,0.39660543,-0.071716125
1764762655.8490765,-4.6543,1.77016,1.54126,-0.904233525,0.39660543,-0.071716125
1764762655.8490765,-4.6543,1.77016,1.54126,-0.904233525,0.39660543,-0.071716125
1764762655.8490765,-5.78354,1.96854,1.81594,-0.90417249,0.39599508,-0.071349915
1764762655.8490765,-5.78354,1.96854,1.81594,-0.90417249,0.39599508,-0.071349915
1764762655.8490765,-5.78354,1.96854,1.81594,-0.90417249,0.39599508,-0.071349915
1764762655.8490765,-5.78354,1.96854,1.81594,-0.90417249,0.39599508,-0.071349915
1764762655.8490765,-5.78354,1.96854,1.81594,-0.90417249,0.39599508,-0.071349915
1764762655.8490765,-5.78354,1.96854,1.81594,-0.90417249,0.39599508,-0.071349915
1764762655.8490765,-5.78354,1.96854,1.81594,-0.90417249,0.39599508,-0.071349915
1764762655.8490765,-5.78354,1.96854,1.81594,-0.90417249,0.39599508,-0.071349915
1764762655.8490765,-5.78354,1.96854,1.81594,-0.90417249,0.39599508,-0.071349915
1764762655.8490765,-5.78354,1.96854,1.81594,-0.90417249,0.39599508,-0.071349915
1764762655.8490765,-5.44782,1.78542,0.8087799999999999,-0.905698365,0.39465231,-0.07153302
1764762655.8490765,-5.44782,1.78542,0.8087799999999999,-0.905698365,0.39465231,-0.07153302
1764762655.8490765,-5.44782,1.78542,0.8087799999999999,-0.905698365,0.39465231,-0.07153302
1764762655.8490765,-5.44782,1.78542,0.8087799999999999,-0.905698365,0.39465231,-0.07153302
1764762655.8506136,-5.44782,1.78542,0.8087799999999999,-0.905698365,0.39465231,-0.07153302
1764762655.8506136,-5.44782,1.78542,0.8087799999999999,-0.905698365,0.39465231,-0.07153302
1764762655.8506136,-5.44782,1.78542,0.8087799999999999,-0.905698365,0.39465231,-0.07153302
1764762655.8506136,-5.44782,1.78542,0.8087799999999999,-0.905698365,0.39465231,-0.07153302
1764762655.8506136,-5.44782,1.78542,0.8087799999999999,-0.905698365,0.39465231,-0.07153302
1764762655.8506136,-5.44782,1.78542,0.8087799999999999,-0.905698365,0.39465231,-0.07153302
1764762655.8506136,-5.12736,1.43444,0.7019599999999999,-0.905820435,0.39477438,-0.070739565
1764762655.8506136,-5.12736,1.43444,0.7019599999999999,-0.905820435,0.39477438,-0.070739565
1764762655.896591,-5.12736,1.43444,0.7019599999999999,-0.905820435,0.39477438,-0.070739565
1764762655.8971212,-5.12736,1.43444,0.7019599999999999,-0.905820435,0.39477438,-0.070739565
1764762655.8971212,-5.12736,1.43444,0.7019599999999999,-0.905820435,0.39477438,-0.070739565
1764762655.8971212,-5.12736,1.43444,0.7019599999999999,-0.905820435,0.39477438,-0.070739565
1764762655.8971212,-5.12736,1.43444,0.7019599999999999,-0.905820435,0.39477438,-0.070739565
1764762655.8971212,-5.12736,1.43444,0.7019599999999999,-0.905820435,0.39477438,-0.070739565
1764762655.8971212,-5.12736,1.43444,0.7019599999999999,-0.905820435,0.39477438,-0.070739565
1764762655.8971212,-5.12736,1.43444,0.7019599999999999,-0.905820435,0.39477438,-0.070739565
1764762655.8971212,-4.822159999999999,1.11398,0.85456,-0.905088015,0.395567835,-0.07055646
1764762655.8971212,-4.822159999999999,1.11398,0.85456,-0.905088015,0.395567835,-0.07055646
1764762655.8971212,-4.822159999999999,1.11398,0.85456,-0.905088015,0.395567835,-0.07055646
1764762655.8971212,-4.822159999999999,1.11398,0.85456,-0.905088015,0.395567835,-0.07055646
1764762655.8971212,-4.822159999999999,1.11398,0.85456,-0.905088015,0.395567835,-0.07055646
1764762655.8971212,-4.822159999999999,1.11398,0.85456,-0.905088015,0.395567835,-0.07055646
1764762655.8971212,-4.822159999999999,1.11398,0.85456,-0.905088015,0.395567835,-0.07055646
1764762655.8971212,-4.822159999999999,1.11398,0.85456,-0.905088015,0.395567835,-0.07055646
1764762655.8971212,-4.822159999999999,1.11398,0.85456,-0.905088015,0.395567835,-0.07055646
1764762655.8971212,-4.822159999999999,1.11398,0.85456,-0.905088015,0.395567835,-0.07055646
1764762655.8971212,-4.059159999999999,0.93086,1.23606,-0.905698365,0.39623922,-0.07055646
1764762655.8971212,-4.059159999999999,0.93086,1.23606,-0.905698365,0.39623922,-0.07055646
1764762655.8971212,-4.059159999999999,0.93086,1.23606,-0.905698365,0.39623922,-0.07055646
1764762655.8971212,-4.059159999999999,0.93086,1.23606,-0.905698365,0.39623922,-0.07055646
1764762655.9439647,-4.059159999999999,0.93086,1.23606,-0.905698365,0.39623922,-0.07055646
1764762655.9439647,-4.059159999999999,0.93086,1.23606,-0.905698365,0.39623922,-0.07055646
1764762655.9439647,-4.059159999999999,0.93086,1.23606,-0.905698365,0.39623922,-0.07055646
1764762655.9439647,-4.059159999999999,0.93086,1.23606,-0.905698365,0.39623922,-0.07055646
1764762655.9439647,-4.059159999999999,0.93086,1.23606,-0.905698365,0.39623922,-0.07055646
1764762655.9439647,-4.059159999999999,0.93086,1.23606,-0.905698365,0.39623922,-0.07055646
1764762655.9439647,-3.1283,1.2055399999999998,0.6714399999999999,-0.90441663,0.39587301,-0.071594055
1764762655.9445057,-3.1283,1.2055399999999998,0.6714399999999999,-0.90441663,0.39587301,-0.071594055
1764762655.9445057,-3.1283,1.2055399999999998,0.6714399999999999,-0.90441663,0.39587301,-0.071594055
1764762655.9445057,-3.1283,1.2055399999999998,0.6714399999999999,-0.90441663,0.39587301,-0.071594055
1764762655.9445057,-3.1283,1.2055399999999998,0.6714399999999999,-0.90441663,0.39587301,-0.071594055
1764762655.9445057,-3.1283,1.2055399999999998,0.6714399999999999,-0.90441663,0.39587301,-0.071594055
1764762655.9445057,-3.1283,1.2055399999999998,0.6714399999999999,-0.90441663,0.39587301,-0.071594055
1764762655.9445057,-3.1283,1.2055399999999998,0.6714399999999999,-0.90441663,0.39587301,-0.071594055
1764762655.9445057,-3.1283,1.2055399999999998,0.6714399999999999,-0.90441663,0.39587301,-0.071594055
1764762655.9445057,-3.1283,1.2055399999999998,0.6714399999999999,-0.90441663,0.39587301,-0.071594055
1764762655.9445057,-3.6624,1.15976,0.74774,-0.90380628,0.396178185,-0.073547175
1764762655.9445057,-3.6624,1.15976,0.74774,-0.90380628,0.396178185,-0.073547175
1764762655.9445057,-3.6624,1.15976,0.74774,-0.90380628,0.396178185,-0.073547175
1764762655.9445057,-3.6624,1.15976,0.74774,-0.90380628,0.396178185,-0.073547175
1764762655.9445057,-3.6624,1.15976,0.74774,-0.90380628,0.396178185,-0.073547175
1764762655.9445057,-3.6624,1.15976,0.74774,-0.90380628,0.396178185,-0.073547175
1764762655.9445057,-3.6624,1.15976,0.74774,-0.90380628,0.396178185,-0.073547175
1764762655.9445057,-3.6624,1.15976,0.74774,-0.90380628,0.396178185,-0.073547175
1764762655.9875216,-3.6624,1.15976,0.74774,-0.90380628,0.396178185,-0.073547175
1764762655.9875216,-3.6624,1.15976,0.74774,-0.90380628,0.396178185,-0.073547175
1764762655.9875216,-4.47118,1.51074,0.6409199999999999,-0.902524545,0.39770406,-0.073547175
1764762655.9875216,-4.47118,1.51074,0.6409199999999999,-0.902524545,0.39770406,-0.073547175
1764762655.9875216,-4.47118,1.51074,0.6409199999999999,-0.902524545,0.39770406,-0.073547175
1764762655.9875216,-4.47118,1.51074,0.6409199999999999,-0.902524545,0.39770406,-0.073547175
1764762655.9880254,-4.47118,1.51074,0.6409199999999999,-0.902524545,0.39770406,-0.073547175
1764762655.9880254,-4.47118,1.51074,0.6409199999999999,-0.902524545,0.39770406,-0.073547175
1764762655.9880254,-4.47118,1.51074,0.6409199999999999,-0.902524545,0.39770406,-0.073547175
1764762655.9880254,-4.47118,1.51074,0.6409199999999999,-0.902524545,0.39770406,-0.073547175
1764762655.9880254,-4.47118,1.51074,0.6409199999999999,-0.902524545,0.39770406,-0.073547175
1764762655.9880254,-4.47118,1.51074,0.6409199999999999,-0.902524545,0.39770406,-0.073547175
1764762655.9880254,-4.2728,0.79352,0.4578,-0.90392835,0.39770406,-0.072082335
1764762655.9880254,-4.2728,0.79352,0.4578,-0.90392835,0.39770406,-0.072082335
1764762655.9880254,-4.2728,0.79352,0.4578,-0.90392835,0.39770406,-0.072082335
1764762655.9880254,-4.2728,0.79352,0.4578,-0.90392835,0.39770406,-0.072082335
1764762655.9885385,-4.2728,0.79352,0.4578,-0.90392835,0.39770406,-0.072082335
1764762655.9885385,-4.2728,0.79352,0.4578,-0.90392835,0.39770406,-0.072082335
1764762655.9885385,-4.2728,0.79352,0.4578,-0.90392835,0.39770406,-0.072082335
1764762655.9885385,-4.2728,0.79352,0.4578,-0.90392835,0.39770406,-0.072082335
1764762655.9885385,-4.2728,0.79352,0.4578,-0.90392835,0.39770406,-0.072082335
1764762655.9885385,-4.2728,0.79352,0.4578,-0.90392835,0.39770406,-0.072082335
1764762655.9885385,-4.1965,0.51884,-0.1678599999999999,-0.90441663,0.39562887,-0.070861635
1764762655.9885385,-4.1965,0.51884,-0.1678599999999999,-0.90441663,0.39562887,-0.070861635
1764762655.9885385,-4.1965,0.51884,-0.1678599999999999,-0.90441663,0.39562887,-0.070861635
1764762655.9885385,-4.1965,0.51884,-0.1678599999999999,-0.90441663,0.39562887,-0.070861635
1764762656.0346694,-4.1965,0.51884,-0.1678599999999999,-0.90441663,0.39562887,-0.070861635
1764762656.0351872,-4.1965,0.51884,-0.1678599999999999,-0.90441663,0.39562887,-0.070861635
1764762656.0351872,-4.1965,0.51884,-0.1678599999999999,-0.90441663,0.39562887,-0.070861635
1764762656.0351872,-4.1965,0.51884,-0.1678599999999999,-0.90441663,0.39562887,-0.070861635
1764762656.0351872,-4.1965,0.51884,-0.1678599999999999,-0.90441663,0.39562887,-0.070861635
1764762656.0351872,-4.1965,0.51884,-0.1678599999999999,-0.90441663,0.39562887,-0.070861635
1764762656.0351872,-2.85362,0.7019599999999999,-0.12208,-0.90441663,0.39489645,-0.073058895
1764762656.0351872,-2.85362,0.7019599999999999,-0.12208,-0.90441663,0.39489645,-0.073058895
1764762656.0351872,-2.85362,0.7019599999999999,-0.12208,-0.90441663,0.39489645,-0.073058895
1764762656.0351872,-2.85362,0.7019599999999999,-0.12208,-0.90441663,0.39489645,-0.073058895
1764762656.0351872,-2.85362,0.7019599999999999,-0.12208,-0.90441663,0.39489645,-0.073058895
1764762656.0351872,-2.85362,0.7019599999999999,-0.12208,-0.90441663,0.39489645,-0.073058895
1764762656.0351872,-2.85362,0.7019599999999999,-0.12208,-0.90441663,0.39489645,-0.073058895
1764762656.0351872,-2.85362,0.7019599999999999,-0.12208,-0.90441663,0.39489645,-0.073058895
1764762656.0351872,-2.85362,0.7019599999999999,-0.12208,-0.90441663,0.39489645,-0.073058895
1764762656.0351872,-2.85362,0.7019599999999999,-0.12208,-0.90441663,0.39489645,-0.073058895
1764762656.0351872,-3.26564,1.0682,0.3357199999999999,-0.90417249,0.396300255,-0.074279595
1764762656.0351872,-3.26564,1.0682,0.3357199999999999,-0.90417249,0.396300255,-0.074279595
1764762656.0351872,-3.26564,1.0682,0.3357199999999999,-0.90417249,0.396300255,-0.074279595
1764762656.0351872,-3.26564,1.0682,0.3357199999999999,-0.90417249,0.396300255,-0.074279595
1764762656.0818548,-3.26564,1.0682,0.3357199999999999,-0.90417249,0.396300255,-0.074279595
1764762656.0818548,-3.26564,1.0682,0.3357199999999999,-0.90417249,0.396300255,-0.074279595
1764762656.0818548,-3.26564,1.0682,0.3357199999999999,-0.90417249,0.396300255,-0.074279595
1764762656.0818548,-3.26564,1.0682,0.3357199999999999,-0.90417249,0.396300255,-0.074279595
1764762656.0818548,-3.26564,1.0682,0.3357199999999999,-0.90417249,0.396300255,-0.074279595
1764762656.0818548,-3.26564,1.0682,0.3357199999999999,-0.90417249,0.396300255,-0.074279595
1764762656.0818548,-4.41014,1.19028,0.7019599999999999,-0.904233525,0.39758199,-0.074157525
1764762656.0818548,-4.41014,1.19028,0.7019599999999999,-0.904233525,0.39758199,-0.074157525
1764762656.0818548,-4.41014,1.19028,0.7019599999999999,-0.904233525,0.39758199,-0.074157525
1764762656.0818548,-4.41014,1.19028,0.7019599999999999,-0.904233525,0.39758199,-0.074157525
1764762656.0823977,-4.41014,1.19028,0.7019599999999999,-0.904233525,0.39758199,-0.074157525
1764762656.0823977,-4.41014,1.19028,0.7019599999999999,-0.904233525,0.39758199,-0.074157525
1764762656.0823977,-4.41014,1.19028,0.7019599999999999,-0.904233525,0.39758199,-0.074157525
1764762656.0823977,-4.41014,1.19028,0.7019599999999999,-0.904233525,0.39758199,-0.074157525
1764762656.0823977,-4.41014,1.19028,0.7019599999999999,-0.904233525,0.39758199,-0.074157525
1764762656.0823977,-4.41014,1.19028,0.7019599999999999,-0.904233525,0.39758199,-0.074157525
1764762656.0823977,-4.94424,0.88508,0.44254,-0.905942505,0.39782613,-0.07373028
1764762656.0823977,-4.94424,0.88508,0.44254,-0.905942505,0.39782613,-0.07373028
1764762656.0823977,-4.94424,0.88508,0.44254,-0.905942505,0.39782613,-0.07373028
1764762656.0823977,-4.94424,0.88508,0.44254,-0.905942505,0.39782613,-0.07373028
1764762656.0823977,-4.94424,0.88508,0.44254,-0.905942505,0.39782613,-0.07373028
1764762656.0823977,-4.94424,0.88508,0.44254,-0.905942505,0.39782613,-0.07373028
1764762656.0823977,-4.94424,0.88508,0.44254,-0.905942505,0.39782613,-0.07373028
1764762656.0823977,-4.94424,0.88508,0.44254,-0.905942505,0.39782613,-0.07373028
1764762656.128644,-4.94424,0.88508,0.44254,-0.905942505,0.39782613,-0.07373028
1764762656.128644,-4.94424,0.88508,0.44254,-0.905942505,0.39782613,-0.07373028
1764762656.1291544,-4.577999999999999,0.73248,0.42728,-0.906674925,0.39684957,-0.07275372
1764762656.1291544,-4.577999999999999,0.73248,0.42728,-0.906674925,0.39684957,-0.07275372
1764762656.1291544,-4.577999999999999,0.73248,0.42728,-0.906674925,0.39684957,-0.07275372
1764762656.1291544,-4.577999999999999,0.73248,0.42728,-0.906674925,0.39684957,-0.07275372
1764762656.1291544,-4.577999999999999,0.73248,0.42728,-0.906674925,0.39684957,-0.07275372
1764762656.1291544,-4.577999999999999,0.73248,0.42728,-0.906674925,0.39684957,-0.07275372
1764762656.1291544,-4.577999999999999,0.73248,0.42728,-0.906674925,0.39684957,-0.07275372
1764762656.1291544,-4.577999999999999,0.73248,0.42728,-0.906674925,0.39684957,-0.07275372
1764762656.1291544,-4.577999999999999,0.73248,0.42728,-0.906674925,0.39684957,-0.07275372
1764762656.1291544,-4.577999999999999,0.73248,0.42728,-0.906674925,0.39684957,-0.07275372
1764762656.1291544,-4.13546,0.59514,0.39676,-0.90624768,0.3955068,-0.072692685
1764762656.1291544,-4.13546,0.59514,0.39676,-0.90624768,0.3955068,-0.072692685
1764762656.1291544,-4.13546,0.59514,0.39676,-0.90624768,0.3955068,-0.072692685
1764762656.1291544,-4.13546,0.59514,0.39676,-0.90624768,0.3955068,-0.072692685
1764762656.1291544,-4.13546,0.59514,0.39676,-0.90624768,0.3955068,-0.072692685
1764762656.1291544,-4.13546,0.59514,0.39676,-0.90624768,0.3955068,-0.072692685
1764762656.1291544,-4.13546,0.59514,0.39676,-0.90624768,0.3955068,-0.072692685
1764762656.1296806,-4.13546,0.59514,0.39676,-0.90624768,0.3955068,-0.072692685
1764762656.1296806,-4.13546,0.59514,0.39676,-0.90624768,0.3955068,-0.072692685
1764762656.1296806,-4.13546,0.59514,0.39676,-0.90624768,0.3955068,-0.072692685
1764762656.1296806,-3.75396,0.09156,0.3357199999999999,-0.906308715,0.396544395,-0.072814755
1764762656.1296806,-3.75396,0.09156,0.3357199999999999,-0.906308715,0.396544395,-0.072814755
1764762656.1772847,-3.75396,0.09156,0.3357199999999999,-0.906308715,0.396544395,-0.072814755
1764762656.1772847,-3.75396,0.09156,0.3357199999999999,-0.906308715,0.396544395,-0.072814755
1764762656.1772847,-3.75396,0.09156,0.3357199999999999,-0.906308715,0.396544395,-0.072814755
1764762656.1772847,-3.75396,0.09156,0.3357199999999999,-0.906308715,0.396544395,-0.072814755
1764762656.1772847,-3.75396,0.09156,0.3357199999999999,-0.906308715,0.396544395,-0.072814755
1764762656.1772847,-3.75396,0.09156,0.3357199999999999,-0.906308715,0.396544395,-0.072814755
1764762656.1772847,-3.75396,0.09156,0.3357199999999999,-0.906308715,0.396544395,-0.072814755
1764762656.1772847,-3.75396,0.09156,0.3357199999999999,-0.906308715,0.396544395,-0.072814755
1764762656.1772847,-3.83026,0.48832,0.6867,-0.90490491,0.397887165,-0.073242
1764762656.1772847,-3.83026,0.48832,0.6867,-0.90490491,0.397887165,-0.073242
1764762656.1772847,-3.83026,0.48832,0.6867,-0.90490491,0.397887165,-0.073242
1764762656.1772847,-3.83026,0.48832,0.6867,-0.90490491,0.397887165,-0.073242
1764762656.1772847,-3.83026,0.48832,0.6867,-0.90490491,0.397887165,-0.073242
1764762656.1772847,-3.83026,0.48832,0.6867,-0.90490491,0.397887165,-0.073242
1764762656.1772847,-3.83026,0.48832,0.6867,-0.90490491,0.397887165,-0.073242
1764762656.1772847,-3.83026,0.48832,0.6867,-0.90490491,0.397887165,-0.073242
1764762656.1772847,-3.83026,0.48832,0.6867,-0.90490491,0.397887165,-0.073242
1764762656.1772847,-3.83026,0.48832,0.6867,-0.90490491,0.397887165,-0.073242
1764762656.1772847,-4.37962,0.9919,0.7019599999999999,-0.903379035,0.397765095,-0.073303035
1764762656.1772847,-4.37962,0.9919,0.7019599999999999,-0.903379035,0.397765095,-0.073303035
1764762656.1772847,-4.37962,0.9919,0.7019599999999999,-0.903379035,0.397765095,-0.073303035
1764762656.1783028,-4.37962,0.9919,0.7019599999999999,-0.903379035,0.397765095,-0.073303035
1764762656.1783028,-4.37962,0.9919,0.7019599999999999,-0.903379035,0.397765095,-0.073303035
1764762656.1783028,-4.37962,0.9919,0.7019599999999999,-0.903379035,0.397765095,-0.073303035
1764762656.2205176,-4.37962,0.9919,0.7019599999999999,-0.903379035,0.397765095,-0.073303035
1764762656.2205176,-4.37962,0.9919,0.7019599999999999,-0.903379035,0.397765095,-0.073303035
1764762656.2205176,-4.37962,0.9919,0.7019599999999999,-0.903379035,0.397765095,-0.073303035
1764762656.2205176,-4.37962,0.9919,0.7019599999999999,-0.903379035,0.397765095,-0.073303035
1764762656.2205176,-4.22702,0.8087799999999999,0.65618,-0.903623175,0.396544395,-0.073913385
1764762656.2205176,-4.22702,0.8087799999999999,0.65618,-0.903623175,0.396544395,-0.073913385
1764762656.2205176,-4.22702,0.8087799999999999,0.65618,-0.903623175,0.396544395,-0.073913385
1764762656.2205176,-4.22702,0.8087799999999999,0.65618,-0.903623175,0.396544395,-0.073913385
1764762656.2205176,-4.22702,0.8087799999999999,0.65618,-0.903623175,0.396544395,-0.073913385
1764762656.2205176,-4.22702,0.8087799999999999,0.65618,-0.903623175,0.396544395,-0.073913385
1764762656.2205176,-4.22702,0.8087799999999999,0.65618,-0.903623175,0.396544395,-0.073913385
1764762656.2205176,-4.22702,0.8087799999999999,0.65618,-0.903623175,0.396544395,-0.073913385
1764762656.2205176,-4.22702,0.8087799999999999,0.65618,-0.903623175,0.396544395,-0.073913385
1764762656.2205176,-4.22702,0.8087799999999999,0.65618,-0.903623175,0.396544395,-0.073913385
1764762656.2205176,-4.22702,0.6103999999999999,0.25942,-0.903501105,0.39587301,-0.07360821
1764762656.2205176,-4.22702,0.6103999999999999,0.25942,-0.903501105,0.39587301,-0.07360821
1764762656.2205176,-4.22702,0.6103999999999999,0.25942,-0.903501105,0.39587301,-0.07360821
1764762656.2205176,-4.22702,0.6103999999999999,0.25942,-0.903501105,0.39587301,-0.07360821
1764762656.2205176,-4.22702,0.6103999999999999,0.25942,-0.903501105,0.39587301,-0.07360821
1764762656.2205176,-4.22702,0.6103999999999999,0.25942,-0.903501105,0.39587301,-0.07360821
1764762656.2205176,-4.22702,0.6103999999999999,0.25942,-0.903501105,0.39587301,-0.07360821
1764762656.2205176,-4.22702,0.6103999999999999,0.25942,-0.903501105,0.39587301,-0.07360821
1764762656.2205176,-4.22702,0.6103999999999999,0.25942,-0.903501105,0.39587301,-0.07360821
1764762656.2205176,-4.22702,0.6103999999999999,0.25942,-0.903501105,0.39587301,-0.07360821
1764762656.267215,-4.31858,1.69386,0.2289,-0.9045387,0.396056115,-0.073425105
1764762656.267215,-4.31858,1.69386,0.2289,-0.9045387,0.396056115,-0.073425105
1764762656.267215,-4.31858,1.69386,0.2289,-0.9045387,0.396056115,-0.073425105
1764762656.267215,-4.31858,1.69386,0.2289,-0.9045387,0.396056115,-0.073425105
1764762656.267215,-4.31858,1.69386,0.2289,-0.9045387,0.396056115,-0.073425105
1764762656.267215,-4.31858,1.69386,0.2289,-0.9045387,0.396056115,-0.073425105
1764762656.267215,-4.31858,1.69386,0.2289,-0.9045387,0.396056115,-0.073425105
1764762656.267215,-4.31858,1.69386,0.2289,-0.9045387,0.396056115,-0.073425105
1764762656.267215,-4.31858,1.69386,0.2289,-0.9045387,0.396056115,-0.073425105
1764762656.267215,-4.31858,1.69386,0.2289,-0.9045387,0.396056115,-0.073425105
1764762656.267215,-2.60946,0.3204599999999999,-0.19838,-0.90673596,0.39489645,-0.0720213
1764762656.267215,-2.60946,0.3204599999999999,-0.19838,-0.90673596,0.39489645,-0.0720213
1764762656.267215,-2.60946,0.3204599999999999,-0.19838,-0.90673596,0.39489645,-0.0720213
1764762656.267215,-2.60946,0.3204599999999999,-0.19838,-0.90673596,0.39489645,-0.0720213
1764762656.267215,-2.60946,0.3204599999999999,-0.19838,-0.90673596,0.39489645,-0.0720213
1764762656.267215,-2.60946,0.3204599999999999,-0.19838,-0.90673596,0.39489645,-0.0720213
1764762656.2682436,-2.60946,0.3204599999999999,-0.19838,-0.90673596,0.39489645,-0.0720213
1764762656.2682436,-2.60946,0.3204599999999999,-0.19838,-0.90673596,0.39489645,-0.0720213
1764762656.2682436,-2.60946,0.3204599999999999,-0.19838,-0.90673596,0.39489645,-0.0720213
1764762656.2682436,-2.60946,0.3204599999999999,-0.19838,-0.90673596,0.39489645,-0.0720213
1764762656.314859,-1.84646,0.8087799999999999,-0.47306,-0.905698365,0.39355368,-0.073180965
1764762656.314859,-1.84646,0.8087799999999999,-0.47306,-0.905698365,0.39355368,-0.073180965
1764762656.314859,-1.84646,0.8087799999999999,-0.47306,-0.905698365,0.39355368,-0.073180965
1764762656.314859,-1.84646,0.8087799999999999,-0.47306,-0.905698365,0.39355368,-0.073180965
1764762656.314859,-1.84646,0.8087799999999999,-0.47306,-0.905698365,0.39355368,-0.073180965
1764762656.314859,-1.84646,0.8087799999999999,-0.47306,-0.905698365,0.39355368,-0.073180965
1764762656.314859,-1.84646,0.8087799999999999,-0.47306,-0.905698365,0.39355368,-0.073180965
1764762656.314859,-1.84646,0.8087799999999999,-0.47306,-0.905698365,0.39355368,-0.073180965
1764762656.314859,-1.84646,0.8087799999999999,-0.47306,-0.905698365,0.39355368,-0.073180965
1764762656.314859,-1.84646,0.8087799999999999,-0.47306,-0.905698365,0.39355368,-0.073180965
1764762656.314859,-0.85456,1.26658,-0.3815,-0.903318,0.39318747,-0.07495098
1764762656.314859,-0.85456,1.26658,-0.3815,-0.903318,0.39318747,-0.07495098
1764762656.314859,-0.85456,1.26658,-0.3815,-0.903318,0.39318747,-0.07495098
1764762656.3158636,-0.85456,1.26658,-0.3815,-0.903318,0.39318747,-0.07495098
1764762656.3158636,-0.85456,1.26658,-0.3815,-0.903318,0.39318747,-0.07495098
1764762656.3158636,-0.85456,1.26658,-0.3815,-0.903318,0.39318747,-0.07495098
1764762656.3158636,-0.85456,1.26658,-0.3815,-0.903318,0.39318747,-0.07495098
1764762656.3158636,-0.85456,1.26658,-0.3815,-0.903318,0.39318747,-0.07495098
1764762656.3158636,-0.85456,1.26658,-0.3815,-0.903318,0.39318747,-0.07495098
1764762656.3158636,-0.85456,1.26658,-0.3815,-0.903318,0.39318747,-0.07495098
1764762656.3158636,-2.41108,1.31236,-0.1525999999999999,-0.905088015,0.39440817,-0.075500295
1764762656.3158636,-2.41108,1.31236,-0.1525999999999999,-0.905088015,0.39440817,-0.075500295
1764762656.3158636,-2.41108,1.31236,-0.1525999999999999,-0.905088015,0.39440817,-0.075500295
1764762656.3158636,-2.41108,1.31236,-0.1525999999999999,-0.905088015,0.39440817,-0.075500295
1764762656.3158636,-2.41108,1.31236,-0.1525999999999999,-0.905088015,0.39440817,-0.075500295
1764762656.3158636,-2.41108,1.31236,-0.1525999999999999,-0.905088015,0.39440817,-0.075500295
1764762656.3620749,-2.41108,1.31236,-0.1525999999999999,-0.905088015,0.39440817,-0.075500295
1764762656.3620749,-2.41108,1.31236,-0.1525999999999999,-0.905088015,0.39440817,-0.075500295
1764762656.3620749,-2.41108,1.31236,-0.1525999999999999,-0.905088015,0.39440817,-0.075500295
1764762656.3620749,-2.41108,1.31236,-0.1525999999999999,-0.905088015,0.39440817,-0.075500295
1764762656.3620749,-2.25848,0.88508,-0.8087799999999999,-0.908505975,0.39489645,-0.07519512
1764762656.3620749,-2.25848,0.88508,-0.8087799999999999,-0.908505975,0.39489645,-0.07519512
1764762656.3620749,-2.25848,0.88508,-0.8087799999999999,-0.908505975,0.39489645,-0.07519512
1764762656.3620749,-2.25848,0.88508,-0.8087799999999999,-0.908505975,0.39489645,-0.07519512
1764762656.3620749,-2.25848,0.88508,-0.8087799999999999,-0.908505975,0.39489645,-0.07519512
1764762656.3620749,-2.25848,0.88508,-0.8087799999999999,-0.908505975,0.39489645,-0.07519512
1764762656.3620749,-2.25848,0.88508,-0.8087799999999999,-0.908505975,0.39489645,-0.07519512
1764762656.3620749,-2.25848,0.88508,-0.8087799999999999,-0.908505975,0.39489645,-0.07519512
1764762656.3620749,-2.25848,0.88508,-0.8087799999999999,-0.908505975,0.39489645,-0.07519512
1764762656.3620749,-2.25848,0.88508,-0.8087799999999999,-0.908505975,0.39489645,-0.07519512
1764762656.3620749,-1.00716,2.38056,-1.55652,-0.907407345,0.393980925,-0.075622365
1764762656.3620749,-1.00716,2.38056,-1.55652,-0.907407345,0.393980925,-0.075622365
1764762656.3620749,-1.00716,2.38056,-1.55652,-0.907407345,0.393980925,-0.075622365
1764762656.3620749,-1.00716,2.38056,-1.55652,-0.907407345,0.393980925,-0.075622365
1764762656.3620749,-1.00716,2.38056,-1.55652,-0.907407345,0.393980925,-0.075622365
1764762656.3620749,-1.00716,2.38056,-1.55652,-0.907407345,0.393980925,-0.075622365
1764762656.3620749,-1.00716,2.38056,-1.55652,-0.907407345,0.393980925,-0.075622365
1764762656.3620749,-1.00716,2.38056,-1.55652,-0.907407345,0.393980925,-0.075622365
1764762656.409007,-1.00716,2.38056,-1.55652,-0.907407345,0.393980925,-0.075622365
1764762656.409007,-1.00716,2.38056,-1.55652,-0.907407345,0.393980925,-0.075622365
1764762656.409007,-0.1525999999999999,1.84646,-1.23606,-0.904965945,0.39330954,-0.074279595
1764762656.409007,-0.1525999999999999,1.84646,-1.23606,-0.904965945,0.39330954,-0.074279595
1764762656.409007,-0.1525999999999999,1.84646,-1.23606,-0.904965945,0.39330954,-0.074279595
1764762656.409007,-0.1525999999999999,1.84646,-1.23606,-0.904965945,0.39330954,-0.074279595
1764762656.409007,-0.1525999999999999,1.84646,-1.23606,-0.904965945,0.39330954,-0.074279595
1764762656.409007,-0.1525999999999999,1.84646,-1.23606,-0.904965945,0.39330954,-0.074279595
1764762656.409525,-0.1525999999999999,1.84646,-1.23606,-0.904965945,0.39330954,-0.074279595
1764762656.409525,-0.1525999999999999,1.84646,-1.23606,-0.904965945,0.39330954,-0.074279595
1764762656.409525,-0.1525999999999999,1.84646,-1.23606,-0.904965945,0.39330954,-0.074279595
1764762656.409525,-0.1525999999999999,1.84646,-1.23606,-0.904965945,0.39330954,-0.074279595
1764762656.409525,0.41202,0.65618,0.3204599999999999,-0.90405042,0.395201625,-0.073425105
1764762656.409525,0.41202,0.65618,0.3204599999999999,-0.90405042,0.395201625,-0.073425105
1764762656.409525,0.41202,0.65618,0.3204599999999999,-0.90405042,0.395201625,-0.073425105
1764762656.409525,0.41202,0.65618,0.3204599999999999,-0.90405042,0.395201625,-0.073425105
1764762656.409525,0.41202,0.65618,0.3204599999999999,-0.90405042,0.395201625,-0.073425105
1764762656.409525,0.41202,0.65618,0.3204599999999999,-0.90405042,0.395201625,-0.073425105
1764762656.409525,0.41202,0.65618,0.3204599999999999,-0.90405042,0.395201625,-0.073425105
1764762656.409525,0.41202,0.65618,0.3204599999999999,-0.90405042,0.395201625,-0.073425105
1764762656.409525,0.41202,0.65618,0.3204599999999999,-0.90405042,0.395201625,-0.073425105
1764762656.409525,0.41202,0.65618,0.3204599999999999,-0.90405042,0.395201625,-0.073425105
1764762656.455683,-1.23606,0.27468,1.32762,-0.903134895,0.39904683,-0.07580547
1764762656.455683,-1.23606,0.27468,1.32762,-0.903134895,0.39904683,-0.07580547
1764762656.455683,-1.23606,0.27468,1.32762,-0.903134895,0.39904683,-0.07580547
1764762656.455683,-1.23606,0.27468,1.32762,-0.903134895,0.39904683,-0.07580547
1764762656.455683,-1.23606,0.27468,1.32762,-0.903134895,0.39904683,-0.07580547
1764762656.455683,-1.23606,0.27468,1.32762,-0.903134895,0.39904683,-0.07580547
1764762656.455683,-1.23606,0.27468,1.32762,-0.903134895,0.39904683,-0.07580547
1764762656.455683,-1.23606,0.27468,1.32762,-0.903134895,0.39904683,-0.07580547
1764762656.455683,-1.23606,0.27468,1.32762,-0.903134895,0.39904683,-0.07580547
1764762656.455683,-1.23606,0.27468,1.32762,-0.903134895,0.39904683,-0.07580547
1764762656.455683,-4.10494,0.9156,0.4578,-0.903623175,0.400938915,-0.078063765
1764762656.455683,-4.10494,0.9156,0.4578,-0.903623175,0.400938915,-0.078063765
1764762656.455683,-4.10494,0.9156,0.4578,-0.903623175,0.400938915,-0.078063765
1764762656.455683,-4.10494,0.9156,0.4578,-0.903623175,0.400938915,-0.078063765
1764762656.455683,-4.10494,0.9156,0.4578,-0.903623175,0.400938915,-0.078063765
1764762656.455683,-4.10494,0.9156,0.4578,-0.903623175,0.400938915,-0.078063765
1764762656.455683,-4.10494,0.9156,0.4578,-0.903623175,0.400938915,-0.078063765
1764762656.455683,-4.10494,0.9156,0.4578,-0.903623175,0.400938915,-0.078063765
1764762656.455683,-4.10494,0.9156,0.4578,-0.903623175,0.400938915,-0.078063765
1764762656.455683,-4.10494,0.9156,0.4578,-0.903623175,0.400938915,-0.078063765
1764762656.455683,-4.68482,1.12924,0.06104,-0.904477665,0.400328565,-0.076598925
1764762656.455683,-4.68482,1.12924,0.06104,-0.904477665,0.400328565,-0.076598925
1764762656.455683,-4.68482,1.12924,0.06104,-0.904477665,0.400328565,-0.076598925
1764762656.455683,-4.68482,1.12924,0.06104,-0.904477665,0.400328565,-0.076598925
1764762656.455683,-4.68482,1.12924,0.06104,-0.904477665,0.400328565,-0.076598925
1764762656.455683,-4.68482,1.12924,0.06104,-0.904477665,0.400328565,-0.076598925
1764762656.502791,-4.68482,1.12924,0.06104,-0.904477665,0.400328565,-0.076598925
1764762656.502791,-4.68482,1.12924,0.06104,-0.904477665,0.400328565,-0.076598925
1764762656.502791,-4.68482,1.12924,0.06104,-0.904477665,0.400328565,-0.076598925
1764762656.502791,-4.68482,1.12924,0.06104,-0.904477665,0.400328565,-0.076598925
1764762656.502791,-4.54748,0.25942,0.9003399999999999,-0.9045387,0.39880269,-0.07397442
1764762656.502791,-4.54748,0.25942,0.9003399999999999,-0.9045387,0.39880269,-0.07397442
1764762656.502791,-4.54748,0.25942,0.9003399999999999,-0.9045387,0.39880269,-0.07397442
1764762656.502791,-4.54748,0.25942,0.9003399999999999,-0.9045387,0.39880269,-0.07397442
1764762656.502791,-4.54748,0.25942,0.9003399999999999,-0.9045387,0.39880269,-0.07397442
1764762656.502791,-4.54748,0.25942,0.9003399999999999,-0.9045387,0.39880269,-0.07397442
1764762656.502791,-4.54748,0.25942,0.9003399999999999,-0.9045387,0.39880269,-0.07397442
1764762656.502791,-4.54748,0.25942,0.9003399999999999,-0.9045387,0.39880269,-0.07397442
1764762656.502791,-4.54748,0.25942,0.9003399999999999,-0.9045387,0.39880269,-0.07397442
1764762656.502791,-4.54748,0.25942,0.9003399999999999,-0.9045387,0.39880269,-0.07397442
1764762656.502791,-3.83026,0.06104,0.9156,-0.90624768,0.396666465,-0.073791315
1764762656.502791,-3.83026,0.06104,0.9156,-0.90624768,0.396666465,-0.073791315
1764762656.502791,-3.83026,0.06104,0.9156,-0.90624768,0.396666465,-0.073791315
1764762656.502791,-3.83026,0.06104,0.9156,-0.90624768,0.396666465,-0.073791315
1764762656.502791,-3.83026,0.06104,0.9156,-0.90624768,0.396666465,-0.073791315
1764762656.502791,-3.83026,0.06104,0.9156,-0.90624768,0.396666465,-0.073791315
1764762656.502791,-3.83026,0.06104,0.9156,-0.90624768,0.396666465,-0.073791315
1764762656.502791,-3.83026,0.06104,0.9156,-0.90624768,0.396666465,-0.073791315
1764762656.549479,-3.83026,0.06104,0.9156,-0.90624768,0.396666465,-0.073791315
1764762656.549479,-3.83026,0.06104,0.9156,-0.90624768,0.396666465,-0.073791315
1764762656.549479,-2.24322,0.25942,0.7019599999999999,-0.905576295,0.39538473,-0.075866505
1764762656.549479,-2.24322,0.25942,0.7019599999999999,-0.905576295,0.39538473,-0.075866505
1764762656.549479,-2.24322,0.25942,0.7019599999999999,-0.905576295,0.39538473,-0.075866505
1764762656.549479,-2.24322,0.25942,0.7019599999999999,-0.905576295,0.39538473,-0.075866505
1764762656.549479,-2.24322,0.25942,0.7019599999999999,-0.905576295,0.39538473,-0.075866505
1764762656.549479,-2.24322,0.25942,0.7019599999999999,-0.905576295,0.39538473,-0.075866505
