Timestamp,GyroX,GyroY,GyroZ,AccX,AccY,AccZ
1764764915.0495248,-6.08874,0.6103999999999999,0.12208,0.92846442,-0.34802157,-0.198058575
1764764915.0495248,-6.08874,0.6103999999999999,0.12208,0.92846442,-0.34802157,-0.198058575
1764764915.0495248,-6.08874,0.6103999999999999,0.12208,0.92846442,-0.34802157,-0.198058575
1764764915.0495248,-6.08874,0.6103999999999999,0.12208,0.92846442,-0.34802157,-0.198058575
1764764915.0495248,-6.08874,0.6103999999999999,0.12208,0.92846442,-0.34802157,-0.198058575
1764764915.0495248,-6.08874,0.6103999999999999,0.12208,0.92846442,-0.34802157,-0.198058575
1764764915.0495248,-6.08874,0.6103999999999999,0.12208,0.92846442,-0.34802157,-0.198058575
1764764915.0495248,-6.08874,0.6103999999999999,0.12208,0.92846442,-0.34802157,-0.198058575
1764764915.0495248,-5.55464,0.13734,0.2289,0.92712165,-0.348082605,-0.198058575
1764764915.0495248,-5.55464,0.13734,0.2289,0.92712165,-0.348082605,-0.198058575
1764764915.0495248,-5.55464,0.13734,0.2289,0.92712165,-0.348082605,-0.198058575
1764764915.0495248,-5.55464,0.13734,0.2289,0.92712165,-0.348082605,-0.198058575
1764764915.0495248,-5.55464,0.13734,0.2289,0.92712165,-0.348082605,-0.198058575
1764764915.0495248,-5.55464,0.13734,0.2289,0.92712165,-0.348082605,-0.198058575
1764764915.0495248,-5.55464,0.13734,0.2289,0.92712165,-0.348082605,-0.198058575
1764764915.0495248,-5.55464,0.13734,0.2289,0.92712165,-0.348082605,-0.198058575
1764764915.0495248,-5.55464,0.13734,0.2289,0.92712165,-0.348082605,-0.198058575
1764764915.0495248,-5.55464,0.13734,0.2289,0.92712165,-0.348082605,-0.198058575
1764764915.0495248,-5.43256,0.0762999999999999,-0.1678599999999999,0.92712165,-0.34716708,-0.19824168
1764764915.0495248,-5.43256,0.0762999999999999,-0.1678599999999999,0.92712165,-0.34716708,-0.19824168
1764764915.0495248,-5.43256,0.0762999999999999,-0.1678599999999999,0.92712165,-0.34716708,-0.19824168
1764764915.0495248,-5.43256,0.0762999999999999,-0.1678599999999999,0.92712165,-0.34716708,-0.19824168
1764764915.0858698,-5.43256,0.0762999999999999,-0.1678599999999999,0.92712165,-0.34716708,-0.19824168
1764764915.0858698,-5.43256,0.0762999999999999,-0.1678599999999999,0.92712165,-0.34716708,-0.19824168
1764764915.0858698,-5.43256,0.0762999999999999,-0.1678599999999999,0.92712165,-0.34716708,-0.19824168
1764764915.0858698,-5.43256,0.0762999999999999,-0.1678599999999999,0.92712165,-0.34716708,-0.19824168
1764764915.0858698,-5.43256,0.0762999999999999,-0.1678599999999999,0.92712165,-0.34716708,-0.19824168
1764764915.0858698,-5.43256,0.0762999999999999,-0.1678599999999999,0.92712165,-0.34716708,-0.19824168
1764764915.0858698,-5.1121,0.4578,-0.25942,0.928891665,-0.34777743,-0.197814435
1764764915.0858698,-5.1121,0.4578,-0.25942,0.928891665,-0.34777743,-0.197814435
1764764915.0858698,-5.1121,0.4578,-0.25942,0.928891665,-0.34777743,-0.197814435
1764764915.0858698,-5.1121,0.4578,-0.25942,0.928891665,-0.34777743,-0.197814435
1764764915.0858698,-5.1121,0.4578,-0.25942,0.928891665,-0.34777743,-0.197814435
1764764915.0858698,-5.1121,0.4578,-0.25942,0.928891665,-0.34777743,-0.197814435
1764764915.0858698,-5.1121,0.4578,-0.25942,0.928891665,-0.34777743,-0.197814435
1764764915.0858698,-5.1121,0.4578,-0.25942,0.928891665,-0.34777743,-0.197814435
1764764915.0874028,-5.1121,0.4578,-0.25942,0.928891665,-0.34777743,-0.197814435
1764764915.0874028,-5.1121,0.4578,-0.25942,0.928891665,-0.34777743,-0.197814435
1764764915.0874028,-4.45592,0.6867,0.36624,0.927426825,-0.350157795,-0.19824168
1764764915.0874028,-4.45592,0.6867,0.36624,0.927426825,-0.350157795,-0.19824168
1764764915.0874028,-4.45592,0.6867,0.36624,0.927426825,-0.350157795,-0.19824168
1764764915.0874028,-4.45592,0.6867,0.36624,0.927426825,-0.350157795,-0.19824168
1764764915.0874028,-4.45592,0.6867,0.36624,0.927426825,-0.350157795,-0.19824168
1764764915.0874028,-4.45592,0.6867,0.36624,0.927426825,-0.350157795,-0.19824168
1764764915.0874028,-4.45592,0.6867,0.36624,0.927426825,-0.350157795,-0.19824168
1764764915.0874028,-4.45592,0.6867,0.36624,0.927426825,-0.350157795,-0.19824168
1764764915.1340885,-4.45592,0.6867,0.36624,0.927426825,-0.350157795,-0.19824168
1764764915.1340885,-4.45592,0.6867,0.36624,0.927426825,-0.350157795,-0.19824168
1764764915.1340885,-2.83836,0.57988,1.32762,0.92455818,-0.35217195,-0.197936505
1764764915.1340885,-2.83836,0.57988,1.32762,0.92455818,-0.35217195,-0.197936505
1764764915.1340885,-2.83836,0.57988,1.32762,0.92455818,-0.35217195,-0.197936505
1764764915.1340885,-2.83836,0.57988,1.32762,0.92455818,-0.35217195,-0.197936505
1764764915.1340885,-2.83836,0.57988,1.32762,0.92455818,-0.35217195,-0.197936505
1764764915.1340885,-2.83836,0.57988,1.32762,0.92455818,-0.35217195,-0.197936505
1764764915.1340885,-2.83836,0.57988,1.32762,0.92455818,-0.35217195,-0.197936505
1764764915.1340885,-2.83836,0.57988,1.32762,0.92455818,-0.35217195,-0.197936505
1764764915.1340885,-2.83836,0.57988,1.32762,0.92455818,-0.35217195,-0.197936505
1764764915.1340885,-2.83836,0.57988,1.32762,0.92455818,-0.35217195,-0.197936505
1764764915.1340885,-2.3653,-0.3509799999999999,1.11398,0.92480232,-0.35253816,-0.19885203
1764764915.1340885,-2.3653,-0.3509799999999999,1.11398,0.92480232,-0.35253816,-0.19885203
1764764915.1340885,-2.3653,-0.3509799999999999,1.11398,0.92480232,-0.35253816,-0.19885203
1764764915.1340885,-2.3653,-0.3509799999999999,1.11398,0.92480232,-0.35253816,-0.19885203
1764764915.1340885,-2.3653,-0.3509799999999999,1.11398,0.92480232,-0.35253816,-0.19885203
1764764915.1340885,-2.3653,-0.3509799999999999,1.11398,0.92480232,-0.35253816,-0.19885203
1764764915.1340885,-2.3653,-0.3509799999999999,1.11398,0.92480232,-0.35253816,-0.19885203
1764764915.1340885,-2.3653,-0.3509799999999999,1.11398,0.92480232,-0.35253816,-0.19885203
1764764915.1340885,-2.3653,-0.3509799999999999,1.11398,0.92480232,-0.35253816,-0.19885203
1764764915.1340885,-2.3653,-0.3509799999999999,1.11398,0.92480232,-0.35253816,-0.19885203
1764764915.1807408,-3.37246,-1.17502,1.63282,0.924985425,-0.35143953,-0.199279275
1764764915.1807408,-3.37246,-1.17502,1.63282,0.924985425,-0.35143953,-0.199279275
1764764915.1807408,-3.37246,-1.17502,1.63282,0.924985425,-0.35143953,-0.199279275
1764764915.1807408,-3.37246,-1.17502,1.63282,0.924985425,-0.35143953,-0.199279275
1764764915.1807408,-3.37246,-1.17502,1.63282,0.924985425,-0.35143953,-0.199279275
1764764915.1807408,-3.37246,-1.17502,1.63282,0.924985425,-0.35143953,-0.199279275
1764764915.1807408,-3.37246,-1.17502,1.63282,0.924985425,-0.35143953,-0.199279275
1764764915.1807408,-3.37246,-1.17502,1.63282,0.924985425,-0.35143953,-0.199279275
1764764915.181753,-3.37246,-1.17502,1.63282,0.924985425,-0.35143953,-0.199279275
1764764915.181753,-3.37246,-1.17502,1.63282,0.924985425,-0.35143953,-0.199279275
1764764915.181753,-3.76922,-1.1445,2.16692,0.92577888,-0.352965405,-0.198668925
1764764915.181753,-3.76922,-1.1445,2.16692,0.92577888,-0.352965405,-0.198668925
1764764915.181753,-3.76922,-1.1445,2.16692,0.92577888,-0.352965405,-0.198668925
1764764915.181753,-3.76922,-1.1445,2.16692,0.92577888,-0.352965405,-0.198668925
1764764915.181753,-3.76922,-1.1445,2.16692,0.92577888,-0.352965405,-0.198668925
1764764915.181753,-3.76922,-1.1445,2.16692,0.92577888,-0.352965405,-0.198668925
1764764915.181753,-3.76922,-1.1445,2.16692,0.92577888,-0.352965405,-0.198668925
1764764915.181753,-3.76922,-1.1445,2.16692,0.92577888,-0.352965405,-0.198668925
1764764915.181753,-3.76922,-1.1445,2.16692,0.92577888,-0.352965405,-0.198668925
1764764915.181753,-3.76922,-1.1445,2.16692,0.92577888,-0.352965405,-0.198668925
1764764915.181753,-3.40298,-0.13734,1.9075,0.92638923,-0.35449128,-0.1965327
1764764915.181753,-3.40298,-0.13734,1.9075,0.92638923,-0.35449128,-0.1965327
1764764915.2283342,-3.40298,-0.13734,1.9075,0.92638923,-0.35449128,-0.1965327
1764764915.2283342,-3.40298,-0.13734,1.9075,0.92638923,-0.35449128,-0.1965327
1764764915.2283342,-3.40298,-0.13734,1.9075,0.92638923,-0.35449128,-0.1965327
1764764915.2283342,-3.40298,-0.13734,1.9075,0.92638923,-0.35449128,-0.1965327
1764764915.2283342,-3.40298,-0.13734,1.9075,0.92638923,-0.35449128,-0.1965327
1764764915.2283342,-3.40298,-0.13734,1.9075,0.92638923,-0.35449128,-0.1965327
1764764915.2283342,-3.40298,-0.13734,1.9075,0.92638923,-0.35449128,-0.1965327
1764764915.2283342,-3.40298,-0.13734,1.9075,0.92638923,-0.35449128,-0.1965327
1764764915.2283342,-3.86078,0.12208,0.0762999999999999,0.92504646,-0.349669515,-0.19677684
1764764915.2283342,-3.86078,0.12208,0.0762999999999999,0.92504646,-0.349669515,-0.19677684
1764764915.2283342,-3.86078,0.12208,0.0762999999999999,0.92504646,-0.349669515,-0.19677684
1764764915.2283342,-3.86078,0.12208,0.0762999999999999,0.92504646,-0.349669515,-0.19677684
1764764915.2283342,-3.86078,0.12208,0.0762999999999999,0.92504646,-0.349669515,-0.19677684
1764764915.2283342,-3.86078,0.12208,0.0762999999999999,0.92504646,-0.349669515,-0.19677684
1764764915.2283342,-3.86078,0.12208,0.0762999999999999,0.92504646,-0.349669515,-0.19677684
1764764915.2283342,-3.86078,0.12208,0.0762999999999999,0.92504646,-0.349669515,-0.19677684
1764764915.2283342,-3.86078,0.12208,0.0762999999999999,0.92504646,-0.349669515,-0.19677684
1764764915.2283342,-3.86078,0.12208,0.0762999999999999,0.92504646,-0.349669515,-0.19677684
1764764915.2283342,-6.07348,0.18312,-2.27374,0.924253005,-0.34167393,-0.200988255
1764764915.2283342,-6.07348,0.18312,-2.27374,0.924253005,-0.34167393,-0.200988255
1764764915.2283342,-6.07348,0.18312,-2.27374,0.924253005,-0.34167393,-0.200988255
1764764915.2283342,-6.07348,0.18312,-2.27374,0.924253005,-0.34167393,-0.200988255
1764764915.2283342,-6.07348,0.18312,-2.27374,0.924253005,-0.34167393,-0.200988255
1764764915.2283342,-6.07348,0.18312,-2.27374,0.924253005,-0.34167393,-0.200988255
1764764915.2749364,-6.07348,0.18312,-2.27374,0.924253005,-0.34167393,-0.200988255
1764764915.2749364,-6.07348,0.18312,-2.27374,0.924253005,-0.34167393,-0.200988255
1764764915.2749364,-6.07348,0.18312,-2.27374,0.924253005,-0.34167393,-0.200988255
1764764915.2749364,-6.07348,0.18312,-2.27374,0.924253005,-0.34167393,-0.200988255
1764764915.2749364,-8.33196,0.62566,-2.60946,0.926450265,-0.338561145,-0.20397897
1764764915.2754445,-8.33196,0.62566,-2.60946,0.926450265,-0.338561145,-0.20397897
1764764915.2754445,-8.33196,0.62566,-2.60946,0.926450265,-0.338561145,-0.20397897
1764764915.2754445,-8.33196,0.62566,-2.60946,0.926450265,-0.338561145,-0.20397897
1764764915.2754445,-8.33196,0.62566,-2.60946,0.926450265,-0.338561145,-0.20397897
1764764915.2754445,-8.33196,0.62566,-2.60946,0.926450265,-0.338561145,-0.20397897
1764764915.2754445,-8.33196,0.62566,-2.60946,0.926450265,-0.338561145,-0.20397897
1764764915.2754445,-8.33196,0.62566,-2.60946,0.926450265,-0.338561145,-0.20397897
1764764915.2754445,-8.33196,0.62566,-2.60946,0.926450265,-0.338561145,-0.20397897
1764764915.2754445,-8.33196,0.62566,-2.60946,0.926450265,-0.338561145,-0.20397897
1764764915.2754445,-9.9953,1.2055399999999998,-2.0601,0.929868225,-0.339049425,-0.206237265
1764764915.2754445,-9.9953,1.2055399999999998,-2.0601,0.929868225,-0.339049425,-0.206237265
1764764915.2754445,-9.9953,1.2055399999999998,-2.0601,0.929868225,-0.339049425,-0.206237265
1764764915.2754445,-9.9953,1.2055399999999998,-2.0601,0.929868225,-0.339049425,-0.206237265
1764764915.2754445,-9.9953,1.2055399999999998,-2.0601,0.929868225,-0.339049425,-0.206237265
1764764915.2754445,-9.9953,1.2055399999999998,-2.0601,0.929868225,-0.339049425,-0.206237265
1764764915.2754445,-9.9953,1.2055399999999998,-2.0601,0.929868225,-0.339049425,-0.206237265
1764764915.2754445,-9.9953,1.2055399999999998,-2.0601,0.929868225,-0.339049425,-0.206237265
1764764915.2754445,-9.9953,1.2055399999999998,-2.0601,0.929868225,-0.339049425,-0.206237265
1764764915.2754445,-9.9953,1.2055399999999998,-2.0601,0.929868225,-0.339049425,-0.206237265
1764764915.3231812,-10.17842,4.10494,-2.35004,0.93774174,-0.33850011,-0.20593209
1764764915.3231812,-10.17842,4.10494,-2.35004,0.93774174,-0.33850011,-0.20593209
1764764915.3231812,-10.17842,4.10494,-2.35004,0.93774174,-0.33850011,-0.20593209
1764764915.3231812,-10.17842,4.10494,-2.35004,0.93774174,-0.33850011,-0.20593209
1764764915.3231812,-10.17842,4.10494,-2.35004,0.93774174,-0.33850011,-0.20593209
1764764915.3231812,-10.17842,4.10494,-2.35004,0.93774174,-0.33850011,-0.20593209
1764764915.3231812,-10.17842,4.10494,-2.35004,0.93774174,-0.33850011,-0.20593209
1764764915.3231812,-10.17842,4.10494,-2.35004,0.93774174,-0.33850011,-0.20593209
1764764915.3231812,-10.17842,4.10494,-2.35004,0.93774174,-0.33850011,-0.20593209
1764764915.3231812,-10.17842,4.10494,-2.35004,0.93774174,-0.33850011,-0.20593209
1764764915.3231812,-8.42352,5.17314,-1.84646,0.94030521,-0.3442374,-0.20556588
1764764915.3231812,-8.42352,5.17314,-1.84646,0.94030521,-0.3442374,-0.20556588
1764764915.3231812,-8.42352,5.17314,-1.84646,0.94030521,-0.3442374,-0.20556588
1764764915.3231812,-8.42352,5.17314,-1.84646,0.94030521,-0.3442374,-0.20556588
1764764915.3231812,-8.42352,5.17314,-1.84646,0.94030521,-0.3442374,-0.20556588
1764764915.3231812,-8.42352,5.17314,-1.84646,0.94030521,-0.3442374,-0.20556588
1764764915.3231812,-8.42352,5.17314,-1.84646,0.94030521,-0.3442374,-0.20556588
1764764915.3231812,-8.42352,5.17314,-1.84646,0.94030521,-0.3442374,-0.20556588
1764764915.3231812,-8.42352,5.17314,-1.84646,0.94030521,-0.3442374,-0.20556588
1764764915.3231812,-8.42352,5.17314,-1.84646,0.94030521,-0.3442374,-0.20556588
1764764915.3231812,-4.89846,4.303319999999999,-0.03052,0.93786381,-0.35180574,-0.203673795
1764764915.3231812,-4.89846,4.303319999999999,-0.03052,0.93786381,-0.35180574,-0.203673795
1764764915.3231812,-4.89846,4.303319999999999,-0.03052,0.93786381,-0.35180574,-0.203673795
1764764915.3231812,-4.89846,4.303319999999999,-0.03052,0.93786381,-0.35180574,-0.203673795
1764764915.3650446,-4.89846,4.303319999999999,-0.03052,0.93786381,-0.35180574,-0.203673795
1764764915.3650446,-4.89846,4.303319999999999,-0.03052,0.93786381,-0.35180574,-0.203673795
1764764915.3650446,-4.89846,4.303319999999999,-0.03052,0.93786381,-0.35180574,-0.203673795
1764764915.3650446,-4.89846,4.303319999999999,-0.03052,0.93786381,-0.35180574,-0.203673795
1764764915.3650446,-4.89846,4.303319999999999,-0.03052,0.93786381,-0.35180574,-0.203673795
1764764915.3650446,-4.89846,4.303319999999999,-0.03052,0.93786381,-0.35180574,-0.203673795
1764764915.3650446,-0.48832,2.96044,0.36624,0.93102789,-0.35534577,-0.19958445
1764764915.3650446,-0.48832,2.96044,0.36624,0.93102789,-0.35534577,-0.19958445
1764764915.3650446,-0.48832,2.96044,0.36624,0.93102789,-0.35534577,-0.19958445
1764764915.3650446,-0.48832,2.96044,0.36624,0.93102789,-0.35534577,-0.19958445
1764764915.3660586,-0.48832,2.96044,0.36624,0.93102789,-0.35534577,-0.19958445
1764764915.3660586,-0.48832,2.96044,0.36624,0.93102789,-0.35534577,-0.19958445
1764764915.3660586,-0.48832,2.96044,0.36624,0.93102789,-0.35534577,-0.19958445
1764764915.3660586,-0.48832,2.96044,0.36624,0.93102789,-0.35534577,-0.19958445
1764764915.3660586,-0.48832,2.96044,0.36624,0.93102789,-0.35534577,-0.19958445
1764764915.3660586,-0.48832,2.96044,0.36624,0.93102789,-0.35534577,-0.19958445
1764764915.3660586,2.1364,0.1678599999999999,0.12208,0.92394783,-0.352599195,-0.197570295
1764764915.3660586,2.1364,0.1678599999999999,0.12208,0.92394783,-0.352599195,-0.197570295
1764764915.415649,2.1364,0.1678599999999999,0.12208,0.92394783,-0.352599195,-0.197570295
1764764915.415649,2.1364,0.1678599999999999,0.12208,0.92394783,-0.352599195,-0.197570295
1764764915.415649,2.1364,0.1678599999999999,0.12208,0.92394783,-0.352599195,-0.197570295
1764764915.415649,2.1364,0.1678599999999999,0.12208,0.92394783,-0.352599195,-0.197570295
1764764915.415649,2.1364,0.1678599999999999,0.12208,0.92394783,-0.352599195,-0.197570295
1764764915.415649,2.1364,0.1678599999999999,0.12208,0.92394783,-0.352599195,-0.197570295
1764764915.415649,2.1364,0.1678599999999999,0.12208,0.92394783,-0.352599195,-0.197570295
1764764915.415649,2.1364,0.1678599999999999,0.12208,0.92394783,-0.352599195,-0.197570295
1764764915.415649,1.17502,-2.53316,0.42728,0.918149505,-0.346495695,-0.19787547
1764764915.415649,1.17502,-2.53316,0.42728,0.918149505,-0.346495695,-0.19787547
1764764915.415649,1.17502,-2.53316,0.42728,0.918149505,-0.346495695,-0.19787547
1764764915.415649,1.17502,-2.53316,0.42728,0.918149505,-0.346495695,-0.19787547
1764764915.415649,1.17502,-2.53316,0.42728,0.918149505,-0.346495695,-0.19787547
1764764915.415649,1.17502,-2.53316,0.42728,0.918149505,-0.346495695,-0.19787547
1764764915.415649,1.17502,-2.53316,0.42728,0.918149505,-0.346495695,-0.19787547
1764764915.415649,1.17502,-2.53316,0.42728,0.918149505,-0.346495695,-0.19787547
1764764915.415649,1.17502,-2.53316,0.42728,0.918149505,-0.346495695,-0.19787547
1764764915.415649,1.17502,-2.53316,0.42728,0.918149505,-0.346495695,-0.19787547
1764764915.415649,-0.3051999999999999,-2.96044,1.48022,0.919736415,-0.343077735,-0.197936505
1764764915.415649,-0.3051999999999999,-2.96044,1.48022,0.919736415,-0.343077735,-0.197936505
1764764915.415649,-0.3051999999999999,-2.96044,1.48022,0.919736415,-0.343077735,-0.197936505
1764764915.415649,-0.3051999999999999,-2.96044,1.48022,0.919736415,-0.343077735,-0.197936505
1764764915.415649,-0.3051999999999999,-2.96044,1.48022,0.919736415,-0.343077735,-0.197936505
1764764915.415649,-0.3051999999999999,-2.96044,1.48022,0.919736415,-0.343077735,-0.197936505
1764764915.415649,-0.3051999999999999,-2.96044,1.48022,0.919736415,-0.343077735,-0.197936505
1764764915.415649,-0.3051999999999999,-2.96044,1.48022,0.919736415,-0.343077735,-0.197936505
1764764915.4166634,-0.3051999999999999,-2.96044,1.48022,0.919736415,-0.343077735,-0.197936505
1764764915.4166634,-0.3051999999999999,-2.96044,1.48022,0.919736415,-0.343077735,-0.197936505
1764764915.4593887,-2.83836,-1.86172,2.47212,0.924008865,-0.341246685,-0.198302715
1764764915.4593887,-2.83836,-1.86172,2.47212,0.924008865,-0.341246685,-0.198302715
1764764915.4593887,-2.83836,-1.86172,2.47212,0.924008865,-0.341246685,-0.198302715
1764764915.4593887,-2.83836,-1.86172,2.47212,0.924008865,-0.341246685,-0.198302715
1764764915.4593887,-2.83836,-1.86172,2.47212,0.924008865,-0.341246685,-0.198302715
1764764915.4593887,-2.83836,-1.86172,2.47212,0.924008865,-0.341246685,-0.198302715
1764764915.4593887,-2.83836,-1.86172,2.47212,0.924008865,-0.341246685,-0.198302715
1764764915.4593887,-2.83836,-1.86172,2.47212,0.924008865,-0.341246685,-0.198302715
1764764915.4593887,-2.83836,-1.86172,2.47212,0.924008865,-0.341246685,-0.198302715
1764764915.4593887,-2.83836,-1.86172,2.47212,0.924008865,-0.341246685,-0.198302715
1764764915.4593887,-5.371519999999999,-0.18312,2.63998,0.92822028,-0.339293565,-0.199279275
1764764915.459897,-5.371519999999999,-0.18312,2.63998,0.92822028,-0.339293565,-0.199279275
1764764915.459897,-5.371519999999999,-0.18312,2.63998,0.92822028,-0.339293565,-0.199279275
1764764915.459897,-5.371519999999999,-0.18312,2.63998,0.92822028,-0.339293565,-0.199279275
1764764915.459897,-5.371519999999999,-0.18312,2.63998,0.92822028,-0.339293565,-0.199279275
1764764915.459897,-5.371519999999999,-0.18312,2.63998,0.92822028,-0.339293565,-0.199279275
1764764915.459897,-5.371519999999999,-0.18312,2.63998,0.92822028,-0.339293565,-0.199279275
1764764915.459897,-5.371519999999999,-0.18312,2.63998,0.92822028,-0.339293565,-0.199279275
1764764915.459897,-5.371519999999999,-0.18312,2.63998,0.92822028,-0.339293565,-0.199279275
1764764915.459897,-5.371519999999999,-0.18312,2.63998,0.92822028,-0.339293565,-0.199279275
1764764915.459897,-7.691039999999999,0.62566,1.78542,0.929624085,-0.339903915,-0.20043894
1764764915.459897,-7.691039999999999,0.62566,1.78542,0.929624085,-0.339903915,-0.20043894
1764764915.459897,-7.691039999999999,0.62566,1.78542,0.929624085,-0.339903915,-0.20043894
1764764915.459897,-7.691039999999999,0.62566,1.78542,0.929624085,-0.339903915,-0.20043894
1764764915.510431,-7.691039999999999,0.62566,1.78542,0.929624085,-0.339903915,-0.20043894
1764764915.510431,-7.691039999999999,0.62566,1.78542,0.929624085,-0.339903915,-0.20043894
1764764915.510431,-7.691039999999999,0.62566,1.78542,0.929624085,-0.339903915,-0.20043894
1764764915.510431,-7.691039999999999,0.62566,1.78542,0.929624085,-0.339903915,-0.20043894
1764764915.510431,-7.691039999999999,0.62566,1.78542,0.929624085,-0.339903915,-0.20043894
1764764915.510431,-7.691039999999999,0.62566,1.78542,0.929624085,-0.339903915,-0.20043894
1764764915.510431,-8.78976,0.3357199999999999,0.93086,0.92834235,-0.33911046,-0.203307585
1764764915.510431,-8.78976,0.3357199999999999,0.93086,0.92834235,-0.33911046,-0.203307585
1764764915.510431,-8.78976,0.3357199999999999,0.93086,0.92834235,-0.33911046,-0.203307585
1764764915.510431,-8.78976,0.3357199999999999,0.93086,0.92834235,-0.33911046,-0.203307585
1764764915.510431,-8.78976,0.3357199999999999,0.93086,0.92834235,-0.33911046,-0.203307585
1764764915.510431,-8.78976,0.3357199999999999,0.93086,0.92834235,-0.33911046,-0.203307585
1764764915.510431,-8.78976,0.3357199999999999,0.93086,0.92834235,-0.33911046,-0.203307585
1764764915.510431,-8.78976,0.3357199999999999,0.93086,0.92834235,-0.33911046,-0.203307585
1764764915.510431,-8.78976,0.3357199999999999,0.93086,0.92834235,-0.33911046,-0.203307585
1764764915.510431,-8.78976,0.3357199999999999,0.93086,0.92834235,-0.33911046,-0.203307585
1764764915.510431,-9.27808,-0.25942,0.18312,0.927426825,-0.341979105,-0.205260705
1764764915.510431,-9.27808,-0.25942,0.18312,0.927426825,-0.341979105,-0.205260705
1764764915.510431,-9.27808,-0.25942,0.18312,0.927426825,-0.341979105,-0.205260705
1764764915.510431,-9.27808,-0.25942,0.18312,0.927426825,-0.341979105,-0.205260705
1764764915.510431,-9.27808,-0.25942,0.18312,0.927426825,-0.341979105,-0.205260705
1764764915.510431,-9.27808,-0.25942,0.18312,0.927426825,-0.341979105,-0.205260705
1764764915.510431,-9.27808,-0.25942,0.18312,0.927426825,-0.341979105,-0.205260705
1764764915.511452,-9.27808,-0.25942,0.18312,0.927426825,-0.341979105,-0.205260705
1764764915.5540202,-9.27808,-0.25942,0.18312,0.927426825,-0.341979105,-0.205260705
1764764915.5540202,-9.27808,-0.25942,0.18312,0.927426825,-0.341979105,-0.205260705
1764764915.5540202,-7.43162,0.1678599999999999,0.27468,0.930356505,-0.34728915,-0.204894495
1764764915.5540202,-7.43162,0.1678599999999999,0.27468,0.930356505,-0.34728915,-0.204894495
1764764915.5540202,-7.43162,0.1678599999999999,0.27468,0.930356505,-0.34728915,-0.204894495
1764764915.5550268,-7.43162,0.1678599999999999,0.27468,0.930356505,-0.34728915,-0.204894495
1764764915.5550268,-7.43162,0.1678599999999999,0.27468,0.930356505,-0.34728915,-0.204894495
1764764915.5550268,-7.43162,0.1678599999999999,0.27468,0.930356505,-0.34728915,-0.204894495
1764764915.5550268,-7.43162,0.1678599999999999,0.27468,0.930356505,-0.34728915,-0.204894495
1764764915.5550268,-7.43162,0.1678599999999999,0.27468,0.930356505,-0.34728915,-0.204894495
1764764915.5550268,-7.43162,0.1678599999999999,0.27468,0.930356505,-0.34728915,-0.204894495
1764764915.5550268,-7.43162,0.1678599999999999,0.27468,0.930356505,-0.34728915,-0.204894495
1764764915.5550268,-4.5017,0.8392999999999999,0.3509799999999999,0.930966855,-0.351744705,-0.204162075
1764764915.5550268,-4.5017,0.8392999999999999,0.3509799999999999,0.930966855,-0.351744705,-0.204162075
1764764915.5550268,-4.5017,0.8392999999999999,0.3509799999999999,0.930966855,-0.351744705,-0.204162075
1764764915.5550268,-4.5017,0.8392999999999999,0.3509799999999999,0.930966855,-0.351744705,-0.204162075
1764764915.5550268,-4.5017,0.8392999999999999,0.3509799999999999,0.930966855,-0.351744705,-0.204162075
1764764915.5550268,-4.5017,0.8392999999999999,0.3509799999999999,0.930966855,-0.351744705,-0.204162075
1764764915.5550268,-4.5017,0.8392999999999999,0.3509799999999999,0.930966855,-0.351744705,-0.204162075
1764764915.5550268,-4.5017,0.8392999999999999,0.3509799999999999,0.930966855,-0.351744705,-0.204162075
1764764915.5550268,-4.5017,0.8392999999999999,0.3509799999999999,0.930966855,-0.351744705,-0.204162075
1764764915.5550268,-4.5017,0.8392999999999999,0.3509799999999999,0.930966855,-0.351744705,-0.204162075
1764764915.6009152,-2.27374,1.2208,0.73248,0.92846442,-0.354064035,-0.20312448
1764764915.6009152,-2.27374,1.2208,0.73248,0.92846442,-0.354064035,-0.20312448
1764764915.6009152,-2.27374,1.2208,0.73248,0.92846442,-0.354064035,-0.20312448
1764764915.6009152,-2.27374,1.2208,0.73248,0.92846442,-0.354064035,-0.20312448
1764764915.6009152,-2.27374,1.2208,0.73248,0.92846442,-0.354064035,-0.20312448
1764764915.6009152,-2.27374,1.2208,0.73248,0.92846442,-0.354064035,-0.20312448
1764764915.6009152,-2.27374,1.2208,0.73248,0.92846442,-0.354064035,-0.20312448
1764764915.6009152,-2.27374,1.2208,0.73248,0.92846442,-0.354064035,-0.20312448
1764764915.6009152,-2.27374,1.2208,0.73248,0.92846442,-0.354064035,-0.20312448
1764764915.6009152,-2.27374,1.2208,0.73248,0.92846442,-0.354064035,-0.20312448
1764764915.6009152,-0.50358,0.96138,0.8392999999999999,0.927426825,-0.353209545,-0.202575165
1764764915.6009152,-0.50358,0.96138,0.8392999999999999,0.927426825,-0.353209545,-0.202575165
1764764915.6009152,-0.50358,0.96138,0.8392999999999999,0.927426825,-0.353209545,-0.202575165
1764764915.6009152,-0.50358,0.96138,0.8392999999999999,0.927426825,-0.353209545,-0.202575165
1764764915.6009152,-0.50358,0.96138,0.8392999999999999,0.927426825,-0.353209545,-0.202575165
1764764915.6009152,-0.50358,0.96138,0.8392999999999999,0.927426825,-0.353209545,-0.202575165
1764764915.6009152,-0.50358,0.96138,0.8392999999999999,0.927426825,-0.353209545,-0.202575165
1764764915.6009152,-0.50358,0.96138,0.8392999999999999,0.927426825,-0.353209545,-0.202575165
1764764915.6009152,-0.50358,0.96138,0.8392999999999999,0.927426825,-0.353209545,-0.202575165
1764764915.6009152,-0.50358,0.96138,0.8392999999999999,0.927426825,-0.353209545,-0.202575165
1764764915.6009152,-0.73248,0.94612,0.48832,0.926572335,-0.349303305,-0.20312448
1764764915.6009152,-0.73248,0.94612,0.48832,0.926572335,-0.349303305,-0.20312448
1764764915.6009152,-0.73248,0.94612,0.48832,0.926572335,-0.349303305,-0.20312448
1764764915.6009152,-0.73248,0.94612,0.48832,0.926572335,-0.349303305,-0.20312448
1764764915.6487665,-0.73248,0.94612,0.48832,0.926572335,-0.349303305,-0.20312448
1764764915.6487665,-0.73248,0.94612,0.48832,0.926572335,-0.349303305,-0.20312448
1764764915.6487665,-0.73248,0.94612,0.48832,0.926572335,-0.349303305,-0.20312448
1764764915.6487665,-0.73248,0.94612,0.48832,0.926572335,-0.349303305,-0.20312448
1764764915.6487665,-0.73248,0.94612,0.48832,0.926572335,-0.349303305,-0.20312448
1764764915.6487665,-0.73248,0.94612,0.48832,0.926572335,-0.349303305,-0.20312448
1764764915.6487665,-1.72438,1.2055399999999998,0.10682,0.925351635,-0.3454581,-0.203795865
1764764915.6487665,-1.72438,1.2055399999999998,0.10682,0.925351635,-0.3454581,-0.203795865
1764764915.6487665,-1.72438,1.2055399999999998,0.10682,0.925351635,-0.3454581,-0.203795865
1764764915.6487665,-1.72438,1.2055399999999998,0.10682,0.925351635,-0.3454581,-0.203795865
1764764915.6487665,-1.72438,1.2055399999999998,0.10682,0.925351635,-0.3454581,-0.203795865
1764764915.6487665,-1.72438,1.2055399999999998,0.10682,0.925351635,-0.3454581,-0.203795865
1764764915.6487665,-1.72438,1.2055399999999998,0.10682,0.925351635,-0.3454581,-0.203795865
1764764915.6487665,-1.72438,1.2055399999999998,0.10682,0.925351635,-0.3454581,-0.203795865
1764764915.6487665,-1.72438,1.2055399999999998,0.10682,0.925351635,-0.3454581,-0.203795865
1764764915.6487665,-1.72438,1.2055399999999998,0.10682,0.925351635,-0.3454581,-0.203795865
1764764915.6487665,-2.92992,2.12114,0.3815,0.92712165,-0.345152925,-0.20361276
1764764915.6487665,-2.92992,2.12114,0.3815,0.92712165,-0.345152925,-0.20361276
1764764915.6487665,-2.92992,2.12114,0.3815,0.92712165,-0.345152925,-0.20361276
1764764915.6487665,-2.92992,2.12114,0.3815,0.92712165,-0.345152925,-0.20361276
1764764915.6487665,-2.92992,2.12114,0.3815,0.92712165,-0.345152925,-0.20361276
1764764915.6487665,-2.92992,2.12114,0.3815,0.92712165,-0.345152925,-0.20361276
1764764915.6487665,-2.92992,2.12114,0.3815,0.92712165,-0.345152925,-0.20361276
1764764915.6487665,-2.92992,2.12114,0.3815,0.92712165,-0.345152925,-0.20361276
1764764915.6951432,-2.92992,2.12114,0.3815,0.92712165,-0.345152925,-0.20361276
1764764915.696166,-2.92992,2.12114,0.3815,0.92712165,-0.345152925,-0.20361276
1764764915.696166,-3.2046,2.45686,-0.28994,0.929990295,-0.34802157,-0.20251413
1764764915.696166,-3.2046,2.45686,-0.28994,0.929990295,-0.34802157,-0.20251413
1764764915.696166,-3.2046,2.45686,-0.28994,0.929990295,-0.34802157,-0.20251413
1764764915.696166,-3.2046,2.45686,-0.28994,0.929990295,-0.34802157,-0.20251413
1764764915.696166,-3.2046,2.45686,-0.28994,0.929990295,-0.34802157,-0.20251413
1764764915.696166,-3.2046,2.45686,-0.28994,0.929990295,-0.34802157,-0.20251413
1764764915.696166,-3.2046,2.45686,-0.28994,0.929990295,-0.34802157,-0.20251413
1764764915.696166,-3.2046,2.45686,-0.28994,0.929990295,-0.34802157,-0.20251413
1764764915.697163,-3.2046,2.45686,-0.28994,0.929990295,-0.34802157,-0.20251413
1764764915.697163,-3.2046,2.45686,-0.28994,0.929990295,-0.34802157,-0.20251413
1764764915.697163,-2.19744,2.42634,-0.93086,0.92956305,-0.350035725,-0.200377905
1764764915.697163,-2.19744,2.42634,-0.93086,0.92956305,-0.350035725,-0.200377905
1764764915.697163,-2.19744,2.42634,-0.93086,0.92956305,-0.350035725,-0.200377905
1764764915.697163,-2.19744,2.42634,-0.93086,0.92956305,-0.350035725,-0.200377905
1764764915.697163,-2.19744,2.42634,-0.93086,0.92956305,-0.350035725,-0.200377905
1764764915.697163,-2.19744,2.42634,-0.93086,0.92956305,-0.350035725,-0.200377905
1764764915.697163,-2.19744,2.42634,-0.93086,0.92956305,-0.350035725,-0.200377905
1764764915.697163,-2.19744,2.42634,-0.93086,0.92956305,-0.350035725,-0.200377905
1764764915.697163,-2.19744,2.42634,-0.93086,0.92956305,-0.350035725,-0.200377905
1764764915.697163,-2.19744,2.42634,-0.93086,0.92956305,-0.350035725,-0.200377905
1764764915.7411003,-1.34288,1.54126,-1.526,0.92602302,-0.349547445,-0.19958445
1764764915.7411003,-1.34288,1.54126,-1.526,0.92602302,-0.349547445,-0.19958445
1764764915.7411003,-1.34288,1.54126,-1.526,0.92602302,-0.349547445,-0.19958445
1764764915.7411003,-1.34288,1.54126,-1.526,0.92602302,-0.349547445,-0.19958445
1764764915.7411003,-1.34288,1.54126,-1.526,0.92602302,-0.349547445,-0.19958445
1764764915.7411003,-1.34288,1.54126,-1.526,0.92602302,-0.349547445,-0.19958445
1764764915.7411003,-1.34288,1.54126,-1.526,0.92602302,-0.349547445,-0.19958445
1764764915.7411003,-1.34288,1.54126,-1.526,0.92602302,-0.349547445,-0.19958445
1764764915.7411003,-1.34288,1.54126,-1.526,0.92602302,-0.349547445,-0.19958445
1764764915.7411003,-1.34288,1.54126,-1.526,0.92602302,-0.349547445,-0.19958445
1764764915.7411003,-1.57178,0.4578,-1.09872,0.923520585,-0.34765536,-0.201232395
1764764915.7411003,-1.57178,0.4578,-1.09872,0.923520585,-0.34765536,-0.201232395
1764764915.7411003,-1.57178,0.4578,-1.09872,0.923520585,-0.34765536,-0.201232395
1764764915.7411003,-1.57178,0.4578,-1.09872,0.923520585,-0.34765536,-0.201232395
1764764915.7411003,-1.57178,0.4578,-1.09872,0.923520585,-0.34765536,-0.201232395
1764764915.7411003,-1.57178,0.4578,-1.09872,0.923520585,-0.34765536,-0.201232395
1764764915.7411003,-1.57178,0.4578,-1.09872,0.923520585,-0.34765536,-0.201232395
1764764915.7411003,-1.57178,0.4578,-1.09872,0.923520585,-0.34765536,-0.201232395
1764764915.7411003,-1.57178,0.4578,-1.09872,0.923520585,-0.34765536,-0.201232395
1764764915.7411003,-1.57178,0.4578,-1.09872,0.923520585,-0.34765536,-0.201232395
1764764915.7411003,-3.08252,-0.51884,-1.19028,0.924008865,-0.34496982,-0.202575165
1764764915.7411003,-3.08252,-0.51884,-1.19028,0.924008865,-0.34496982,-0.202575165
1764764915.7411003,-3.08252,-0.51884,-1.19028,0.924008865,-0.34496982,-0.202575165
1764764915.7421112,-3.08252,-0.51884,-1.19028,0.924008865,-0.34496982,-0.202575165
1764764915.7870796,-3.08252,-0.51884,-1.19028,0.924008865,-0.34496982,-0.202575165
1764764915.7870796,-3.08252,-0.51884,-1.19028,0.924008865,-0.34496982,-0.202575165
1764764915.7870796,-3.08252,-0.51884,-1.19028,0.924008865,-0.34496982,-0.202575165
1764764915.7870796,-3.08252,-0.51884,-1.19028,0.924008865,-0.34496982,-0.202575165
1764764915.7870796,-3.08252,-0.51884,-1.19028,0.924008865,-0.34496982,-0.202575165
1764764915.7878218,-3.08252,-0.51884,-1.19028,0.924008865,-0.34496982,-0.202575165
1764764915.7878218,-4.08968,0.06104,-1.19028,0.927182685,-0.342833595,-0.203063445
1764764915.7878218,-4.08968,0.06104,-1.19028,0.927182685,-0.342833595,-0.203063445
1764764915.7878218,-4.08968,0.06104,-1.19028,0.927182685,-0.342833595,-0.203063445
1764764915.7878218,-4.08968,0.06104,-1.19028,0.927182685,-0.342833595,-0.203063445
1764764915.7878218,-4.08968,0.06104,-1.19028,0.927182685,-0.342833595,-0.203063445
1764764915.7878218,-4.08968,0.06104,-1.19028,0.927182685,-0.342833595,-0.203063445
1764764915.7878218,-4.08968,0.06104,-1.19028,0.927182685,-0.342833595,-0.203063445
1764764915.7878218,-4.08968,0.06104,-1.19028,0.927182685,-0.342833595,-0.203063445
1764764915.7878218,-4.08968,0.06104,-1.19028,0.927182685,-0.342833595,-0.203063445
1764764915.7878218,-4.08968,0.06104,-1.19028,0.927182685,-0.342833595,-0.203063445
1764764915.7878218,-4.440659999999999,2.04484,-0.6103999999999999,0.93102789,-0.342589455,-0.20239206
1764764915.7878218,-4.440659999999999,2.04484,-0.6103999999999999,0.93102789,-0.342589455,-0.20239206
1764764915.7878218,-4.440659999999999,2.04484,-0.6103999999999999,0.93102789,-0.342589455,-0.20239206
1764764915.7878218,-4.440659999999999,2.04484,-0.6103999999999999,0.93102789,-0.342589455,-0.20239206
1764764915.7890673,-4.440659999999999,2.04484,-0.6103999999999999,0.93102789,-0.342589455,-0.20239206
1764764915.7890673,-4.440659999999999,2.04484,-0.6103999999999999,0.93102789,-0.342589455,-0.20239206
1764764915.7890673,-4.440659999999999,2.04484,-0.6103999999999999,0.93102789,-0.342589455,-0.20239206
1764764915.7890673,-4.440659999999999,2.04484,-0.6103999999999999,0.93102789,-0.342589455,-0.20239206
1764764915.8359983,-4.440659999999999,2.04484,-0.6103999999999999,0.93102789,-0.342589455,-0.20239206
1764764915.8359983,-4.440659999999999,2.04484,-0.6103999999999999,0.93102789,-0.342589455,-0.20239206
1764764915.8359983,-5.32574,3.052,-0.56462,0.932431695,-0.34204014,-0.201964815
1764764915.8359983,-5.32574,3.052,-0.56462,0.932431695,-0.34204014,-0.201964815
1764764915.8359983,-5.32574,3.052,-0.56462,0.932431695,-0.34204014,-0.201964815
1764764915.8359983,-5.32574,3.052,-0.56462,0.932431695,-0.34204014,-0.201964815
1764764915.8359983,-5.32574,3.052,-0.56462,0.932431695,-0.34204014,-0.201964815
1764764915.8359983,-5.32574,3.052,-0.56462,0.932431695,-0.34204014,-0.201964815
1764764915.8359983,-5.32574,3.052,-0.56462,0.932431695,-0.34204014,-0.201964815
1764764915.8359983,-5.32574,3.052,-0.56462,0.932431695,-0.34204014,-0.201964815
1764764915.8359983,-5.32574,3.052,-0.56462,0.932431695,-0.34204014,-0.201964815
1764764915.8359983,-5.32574,3.052,-0.56462,0.932431695,-0.34204014,-0.201964815
1764764915.8359983,-5.17314,2.62472,-0.88508,0.931210995,-0.342345315,-0.201598605
1764764915.8359983,-5.17314,2.62472,-0.88508,0.931210995,-0.342345315,-0.201598605
1764764915.8359983,-5.17314,2.62472,-0.88508,0.931210995,-0.342345315,-0.201598605
1764764915.8359983,-5.17314,2.62472,-0.88508,0.931210995,-0.342345315,-0.201598605
1764764915.8359983,-5.17314,2.62472,-0.88508,0.931210995,-0.342345315,-0.201598605
1764764915.8359983,-5.17314,2.62472,-0.88508,0.931210995,-0.342345315,-0.201598605
1764764915.8359983,-5.17314,2.62472,-0.88508,0.931210995,-0.342345315,-0.201598605
1764764915.8359983,-5.17314,2.62472,-0.88508,0.931210995,-0.342345315,-0.201598605
1764764915.8359983,-5.17314,2.62472,-0.88508,0.931210995,-0.342345315,-0.201598605
1764764915.8359983,-5.17314,2.62472,-0.88508,0.931210995,-0.342345315,-0.201598605
1764764915.8789375,-4.7306,2.15166,-1.25132,0.929257875,-0.3430167,-0.199889625
1764764915.8789375,-4.7306,2.15166,-1.25132,0.929257875,-0.3430167,-0.199889625
1764764915.8789375,-4.7306,2.15166,-1.25132,0.929257875,-0.3430167,-0.199889625
1764764915.8789375,-4.7306,2.15166,-1.25132,0.929257875,-0.3430167,-0.199889625
1764764915.8789375,-4.7306,2.15166,-1.25132,0.929257875,-0.3430167,-0.199889625
1764764915.8789375,-4.7306,2.15166,-1.25132,0.929257875,-0.3430167,-0.199889625
1764764915.8789375,-4.7306,2.15166,-1.25132,0.929257875,-0.3430167,-0.199889625
1764764915.8789375,-4.7306,2.15166,-1.25132,0.929257875,-0.3430167,-0.199889625
1764764915.8789375,-4.7306,2.15166,-1.25132,0.929257875,-0.3430167,-0.199889625
1764764915.8789375,-4.7306,2.15166,-1.25132,0.929257875,-0.3430167,-0.199889625
1764764915.8789375,-4.83742,2.01432,-1.6786,0.92809821,-0.34240635,-0.19921824
1764764915.8789375,-4.83742,2.01432,-1.6786,0.92809821,-0.34240635,-0.19921824
1764764915.8789375,-4.83742,2.01432,-1.6786,0.92809821,-0.34240635,-0.19921824
1764764915.8789375,-4.83742,2.01432,-1.6786,0.92809821,-0.34240635,-0.19921824
1764764915.8789375,-4.83742,2.01432,-1.6786,0.92809821,-0.34240635,-0.19921824
1764764915.8789375,-4.83742,2.01432,-1.6786,0.92809821,-0.34240635,-0.19921824
1764764915.8789375,-4.83742,2.01432,-1.6786,0.92809821,-0.34240635,-0.19921824
1764764915.8789375,-4.83742,2.01432,-1.6786,0.92809821,-0.34240635,-0.19921824
1764764915.8789375,-4.83742,2.01432,-1.6786,0.92809821,-0.34240635,-0.19921824
1764764915.8789375,-4.83742,2.01432,-1.6786,0.92809821,-0.34240635,-0.19921824
1764764915.8789375,-5.32574,1.87698,-1.8312,0.929013735,-0.3405753,-0.19946238
1764764915.8789375,-5.32574,1.87698,-1.8312,0.929013735,-0.3405753,-0.19946238
1764764915.8789375,-5.32574,1.87698,-1.8312,0.929013735,-0.3405753,-0.19946238
1764764915.8789375,-5.32574,1.87698,-1.8312,0.929013735,-0.3405753,-0.19946238
1764764915.8789375,-5.32574,1.87698,-1.8312,0.929013735,-0.3405753,-0.19946238
1764764915.8789375,-5.32574,1.87698,-1.8312,0.929013735,-0.3405753,-0.19946238
1764764915.9258237,-5.32574,1.87698,-1.8312,0.929013735,-0.3405753,-0.19946238
1764764915.9258237,-5.32574,1.87698,-1.8312,0.929013735,-0.3405753,-0.19946238
1764764915.9258237,-5.32574,1.87698,-1.8312,0.929013735,-0.3405753,-0.19946238
1764764915.9258237,-5.32574,1.87698,-1.8312,0.929013735,-0.3405753,-0.19946238
1764764915.9258237,-6.821219999999999,1.48022,-1.31236,0.93041754,-0.33911046,-0.20007273
1764764915.9258237,-6.821219999999999,1.48022,-1.31236,0.93041754,-0.33911046,-0.20007273
1764764915.9258237,-6.821219999999999,1.48022,-1.31236,0.93041754,-0.33911046,-0.20007273
1764764915.9258237,-6.821219999999999,1.48022,-1.31236,0.93041754,-0.33911046,-0.20007273
1764764915.9258237,-6.821219999999999,1.48022,-1.31236,0.93041754,-0.33911046,-0.20007273
1764764915.9258237,-6.821219999999999,1.48022,-1.31236,0.93041754,-0.33911046,-0.20007273
1764764915.9258237,-6.821219999999999,1.48022,-1.31236,0.93041754,-0.33911046,-0.20007273
1764764915.9258237,-6.821219999999999,1.48022,-1.31236,0.93041754,-0.33911046,-0.20007273
1764764915.9258237,-6.821219999999999,1.48022,-1.31236,0.93041754,-0.33911046,-0.20007273
1764764915.9258237,-6.821219999999999,1.48022,-1.31236,0.93041754,-0.33911046,-0.20007273
1764764915.9258237,-7.98098,1.43444,-1.32762,0.930234435,-0.33788976,-0.20007273
1764764915.9258237,-7.98098,1.43444,-1.32762,0.930234435,-0.33788976,-0.20007273
1764764915.9258237,-7.98098,1.43444,-1.32762,0.930234435,-0.33788976,-0.20007273
1764764915.9258237,-7.98098,1.43444,-1.32762,0.930234435,-0.33788976,-0.20007273
1764764915.9258237,-7.98098,1.43444,-1.32762,0.930234435,-0.33788976,-0.20007273
1764764915.9258237,-7.98098,1.43444,-1.32762,0.930234435,-0.33788976,-0.20007273
1764764915.972813,-7.98098,1.43444,-1.32762,0.930234435,-0.33788976,-0.20007273
1764764915.972813,-7.98098,1.43444,-1.32762,0.930234435,-0.33788976,-0.20007273
1764764915.972813,-7.98098,1.43444,-1.32762,0.930234435,-0.33788976,-0.20007273
1764764915.972813,-7.98098,1.43444,-1.32762,0.930234435,-0.33788976,-0.20007273
1764764915.972813,-8.40826,0.9156,-0.6103999999999999,0.92944098,-0.33886632,-0.19982859
1764764915.972813,-8.40826,0.9156,-0.6103999999999999,0.92944098,-0.33886632,-0.19982859
1764764915.972813,-8.40826,0.9156,-0.6103999999999999,0.92944098,-0.33886632,-0.19982859
1764764915.972813,-8.40826,0.9156,-0.6103999999999999,0.92944098,-0.33886632,-0.19982859
1764764915.972813,-8.40826,0.9156,-0.6103999999999999,0.92944098,-0.33886632,-0.19982859
1764764915.972813,-8.40826,0.9156,-0.6103999999999999,0.92944098,-0.33886632,-0.19982859
1764764915.9738224,-8.40826,0.9156,-0.6103999999999999,0.92944098,-0.33886632,-0.19982859
1764764915.9738224,-8.40826,0.9156,-0.6103999999999999,0.92944098,-0.33886632,-0.19982859
1764764915.9738224,-8.40826,0.9156,-0.6103999999999999,0.92944098,-0.33886632,-0.19982859
1764764915.9738224,-8.40826,0.9156,-0.6103999999999999,0.92944098,-0.33886632,-0.19982859
1764764915.9738224,-7.996239999999999,0.41202,0.10682,0.92797614,-0.34081944,-0.19970652
1764764915.9738224,-7.996239999999999,0.41202,0.10682,0.92797614,-0.34081944,-0.19970652
1764764915.9738224,-7.996239999999999,0.41202,0.10682,0.92797614,-0.34081944,-0.19970652
1764764915.9738224,-7.996239999999999,0.41202,0.10682,0.92797614,-0.34081944,-0.19970652
1764764915.9738224,-7.996239999999999,0.41202,0.10682,0.92797614,-0.34081944,-0.19970652
1764764915.9738224,-7.996239999999999,0.41202,0.10682,0.92797614,-0.34081944,-0.19970652
1764764915.9748204,-7.996239999999999,0.41202,0.10682,0.92797614,-0.34081944,-0.19970652
1764764915.9748204,-7.996239999999999,0.41202,0.10682,0.92797614,-0.34081944,-0.19970652
1764764915.9748204,-7.996239999999999,0.41202,0.10682,0.92797614,-0.34081944,-0.19970652
1764764915.9748204,-7.996239999999999,0.41202,0.10682,0.92797614,-0.34081944,-0.19970652
1764764915.9757855,-7.79786,-0.62566,-0.56462,0.926816475,-0.340636335,-0.200499975
1764764915.9757855,-7.79786,-0.62566,-0.56462,0.926816475,-0.340636335,-0.200499975
1764764916.018809,-7.79786,-0.62566,-0.56462,0.926816475,-0.340636335,-0.200499975
1764764916.018809,-7.79786,-0.62566,-0.56462,0.926816475,-0.340636335,-0.200499975
1764764916.018809,-7.79786,-0.62566,-0.56462,0.926816475,-0.340636335,-0.200499975
1764764916.018809,-7.79786,-0.62566,-0.56462,0.926816475,-0.340636335,-0.200499975
1764764916.0198214,-7.79786,-0.62566,-0.56462,0.926816475,-0.340636335,-0.200499975
1764764916.0198214,-7.79786,-0.62566,-0.56462,0.926816475,-0.340636335,-0.200499975
1764764916.0198214,-7.79786,-0.62566,-0.56462,0.926816475,-0.340636335,-0.200499975
1764764916.0198214,-7.79786,-0.62566,-0.56462,0.926816475,-0.340636335,-0.200499975
1764764916.0198214,-6.69914,-1.32762,-0.57988,0.928037175,-0.341490825,-0.200622045
1764764916.0198214,-6.69914,-1.32762,-0.57988,0.928037175,-0.341490825,-0.200622045
1764764916.0198214,-6.69914,-1.32762,-0.57988,0.928037175,-0.341490825,-0.200622045
1764764916.0198214,-6.69914,-1.32762,-0.57988,0.928037175,-0.341490825,-0.200622045
1764764916.0198214,-6.69914,-1.32762,-0.57988,0.928037175,-0.341490825,-0.200622045
1764764916.0198214,-6.69914,-1.32762,-0.57988,0.928037175,-0.341490825,-0.200622045
1764764916.0198214,-6.69914,-1.32762,-0.57988,0.928037175,-0.341490825,-0.200622045
1764764916.0198214,-6.69914,-1.32762,-0.57988,0.928037175,-0.341490825,-0.200622045
1764764916.0198214,-6.69914,-1.32762,-0.57988,0.928037175,-0.341490825,-0.200622045
1764764916.0198214,-6.69914,-1.32762,-0.57988,0.928037175,-0.341490825,-0.200622045
1764764916.0198214,-5.508859999999999,-0.93086,-0.7019599999999999,0.928891665,-0.34289463,-0.20031687
1764764916.0198214,-5.508859999999999,-0.93086,-0.7019599999999999,0.928891665,-0.34289463,-0.20031687
1764764916.0198214,-5.508859999999999,-0.93086,-0.7019599999999999,0.928891665,-0.34289463,-0.20031687
1764764916.0213542,-5.508859999999999,-0.93086,-0.7019599999999999,0.928891665,-0.34289463,-0.20031687
1764764916.0642931,-5.508859999999999,-0.93086,-0.7019599999999999,0.928891665,-0.34289463,-0.20031687
1764764916.0642931,-5.508859999999999,-0.93086,-0.7019599999999999,0.928891665,-0.34289463,-0.20031687
1764764916.0642931,-5.508859999999999,-0.93086,-0.7019599999999999,0.928891665,-0.34289463,-0.20031687
1764764916.0642931,-5.508859999999999,-0.93086,-0.7019599999999999,0.928891665,-0.34289463,-0.20031687
1764764916.0642931,-5.508859999999999,-0.93086,-0.7019599999999999,0.928891665,-0.34289463,-0.20031687
1764764916.0642931,-5.508859999999999,-0.93086,-0.7019599999999999,0.928891665,-0.34289463,-0.20031687
1764764916.0642931,-4.6543,-0.42728,-0.79352,0.92980719,-0.34240635,-0.20129343
1764764916.0642931,-4.6543,-0.42728,-0.79352,0.92980719,-0.34240635,-0.20129343
1764764916.0642931,-4.6543,-0.42728,-0.79352,0.92980719,-0.34240635,-0.20129343
1764764916.0642931,-4.6543,-0.42728,-0.79352,0.92980719,-0.34240635,-0.20129343
1764764916.0642931,-4.6543,-0.42728,-0.79352,0.92980719,-0.34240635,-0.20129343
1764764916.0642931,-4.6543,-0.42728,-0.79352,0.92980719,-0.34240635,-0.20129343
1764764916.0653062,-4.6543,-0.42728,-0.79352,0.92980719,-0.34240635,-0.20129343
1764764916.0653062,-4.6543,-0.42728,-0.79352,0.92980719,-0.34240635,-0.20129343
1764764916.0653062,-4.6543,-0.42728,-0.79352,0.92980719,-0.34240635,-0.20129343
1764764916.0653062,-4.6543,-0.42728,-0.79352,0.92980719,-0.34240635,-0.20129343
1764764916.0653062,-4.25754,3.8913,-0.73248,0.931088925,-0.341124615,-0.20312448
1764764916.0653062,-4.25754,3.8913,-0.73248,0.931088925,-0.341124615,-0.20312448
1764764916.0653062,-4.25754,3.8913,-0.73248,0.931088925,-0.341124615,-0.20312448
1764764916.0653062,-4.25754,3.8913,-0.73248,0.931088925,-0.341124615,-0.20312448
1764764916.0653062,-4.25754,3.8913,-0.73248,0.931088925,-0.341124615,-0.20312448
1764764916.0653062,-4.25754,3.8913,-0.73248,0.931088925,-0.341124615,-0.20312448
1764764916.111642,-4.25754,3.8913,-0.73248,0.931088925,-0.341124615,-0.20312448
1764764916.111642,-4.25754,3.8913,-0.73248,0.931088925,-0.341124615,-0.20312448
1764764916.111642,-4.25754,3.8913,-0.73248,0.931088925,-0.341124615,-0.20312448
1764764916.111642,-4.25754,3.8913,-0.73248,0.931088925,-0.341124615,-0.20312448
1764764916.112857,-4.70008,-0.04578,-0.6714399999999999,0.9313941,-0.33959874,-0.20422311
1764764916.112857,-4.70008,-0.04578,-0.6714399999999999,0.9313941,-0.33959874,-0.20422311
1764764916.112857,-4.70008,-0.04578,-0.6714399999999999,0.9313941,-0.33959874,-0.20422311
1764764916.112857,-4.70008,-0.04578,-0.6714399999999999,0.9313941,-0.33959874,-0.20422311
1764764916.112857,-4.70008,-0.04578,-0.6714399999999999,0.9313941,-0.33959874,-0.20422311
1764764916.112857,-4.70008,-0.04578,-0.6714399999999999,0.9313941,-0.33959874,-0.20422311
1764764916.112857,-4.70008,-0.04578,-0.6714399999999999,0.9313941,-0.33959874,-0.20422311
1764764916.112857,-4.70008,-0.04578,-0.6714399999999999,0.9313941,-0.33959874,-0.20422311
1764764916.112857,-4.70008,-0.04578,-0.6714399999999999,0.9313941,-0.33959874,-0.20422311
1764764916.112857,-4.70008,-0.04578,-0.6714399999999999,0.9313941,-0.33959874,-0.20422311
1764764916.112857,-5.20366,0.65618,-0.65618,0.930112365,-0.337828725,-0.20519967
1764764916.112857,-5.20366,0.65618,-0.65618,0.930112365,-0.337828725,-0.20519967
1764764916.112857,-5.20366,0.65618,-0.65618,0.930112365,-0.337828725,-0.20519967
1764764916.112857,-5.20366,0.65618,-0.65618,0.930112365,-0.337828725,-0.20519967
1764764916.112857,-5.20366,0.65618,-0.65618,0.930112365,-0.337828725,-0.20519967
1764764916.112857,-5.20366,0.65618,-0.65618,0.930112365,-0.337828725,-0.20519967
1764764916.112857,-5.20366,0.65618,-0.65618,0.930112365,-0.337828725,-0.20519967
1764764916.112857,-5.20366,0.65618,-0.65618,0.930112365,-0.337828725,-0.20519967
1764764916.112857,-5.20366,0.65618,-0.65618,0.930112365,-0.337828725,-0.20519967
1764764916.112857,-5.20366,0.65618,-0.65618,0.930112365,-0.337828725,-0.20519967
1764764916.1588497,-5.753019999999999,0.56462,-1.08346,0.92968512,-0.33581457,-0.205748985
1764764916.1588497,-5.753019999999999,0.56462,-1.08346,0.92968512,-0.33581457,-0.205748985
1764764916.1588497,-5.753019999999999,0.56462,-1.08346,0.92968512,-0.33581457,-0.205748985
1764764916.1588497,-5.753019999999999,0.56462,-1.08346,0.92968512,-0.33581457,-0.205748985
1764764916.1588497,-5.753019999999999,0.56462,-1.08346,0.92968512,-0.33581457,-0.205748985
1764764916.1588497,-5.753019999999999,0.56462,-1.08346,0.92968512,-0.33581457,-0.205748985
1764764916.1588497,-5.753019999999999,0.56462,-1.08346,0.92968512,-0.33581457,-0.205748985
1764764916.1588497,-5.753019999999999,0.56462,-1.08346,0.92968512,-0.33581457,-0.205748985
1764764916.159374,-5.753019999999999,0.56462,-1.08346,0.92968512,-0.33581457,-0.205748985
1764764916.159374,-5.753019999999999,0.56462,-1.08346,0.92968512,-0.33581457,-0.205748985
1764764916.159374,-5.5699,1.4039199999999998,-0.62566,0.931821345,-0.33776769,-0.205871055
1764764916.159374,-5.5699,1.4039199999999998,-0.62566,0.931821345,-0.33776769,-0.205871055
1764764916.159374,-5.5699,1.4039199999999998,-0.62566,0.931821345,-0.33776769,-0.205871055
1764764916.159374,-5.5699,1.4039199999999998,-0.62566,0.931821345,-0.33776769,-0.205871055
1764764916.159374,-5.5699,1.4039199999999998,-0.62566,0.931821345,-0.33776769,-0.205871055
1764764916.159374,-5.5699,1.4039199999999998,-0.62566,0.931821345,-0.33776769,-0.205871055
1764764916.159374,-5.5699,1.4039199999999998,-0.62566,0.931821345,-0.33776769,-0.205871055
1764764916.159374,-5.5699,1.4039199999999998,-0.62566,0.931821345,-0.33776769,-0.205871055
1764764916.159374,-5.5699,1.4039199999999998,-0.62566,0.931821345,-0.33776769,-0.205871055
1764764916.159374,-5.5699,1.4039199999999998,-0.62566,0.931821345,-0.33776769,-0.205871055
1764764916.2067416,-5.340999999999999,1.49548,-0.8087799999999999,0.93224859,-0.339659775,-0.20581002
1764764916.2067416,-5.340999999999999,1.49548,-0.8087799999999999,0.93224859,-0.339659775,-0.20581002
1764764916.2067416,-5.340999999999999,1.49548,-0.8087799999999999,0.93224859,-0.339659775,-0.20581002
1764764916.2067416,-5.340999999999999,1.49548,-0.8087799999999999,0.93224859,-0.339659775,-0.20581002
1764764916.2067416,-5.340999999999999,1.49548,-0.8087799999999999,0.93224859,-0.339659775,-0.20581002
1764764916.2067416,-5.340999999999999,1.49548,-0.8087799999999999,0.93224859,-0.339659775,-0.20581002
1764764916.2067416,-5.340999999999999,1.49548,-0.8087799999999999,0.93224859,-0.339659775,-0.20581002
1764764916.2067416,-5.340999999999999,1.49548,-0.8087799999999999,0.93224859,-0.339659775,-0.20581002
1764764916.2067416,-5.340999999999999,1.49548,-0.8087799999999999,0.93224859,-0.339659775,-0.20581002
1764764916.2067416,-5.340999999999999,1.49548,-0.8087799999999999,0.93224859,-0.339659775,-0.20581002
1764764916.2067416,-4.28806,1.58704,-1.11398,0.932309625,-0.33972081,-0.20519967
1764764916.2067416,-4.28806,1.58704,-1.11398,0.932309625,-0.33972081,-0.20519967
1764764916.207749,-4.28806,1.58704,-1.11398,0.932309625,-0.33972081,-0.20519967
1764764916.207749,-4.28806,1.58704,-1.11398,0.932309625,-0.33972081,-0.20519967
1764764916.207749,-4.28806,1.58704,-1.11398,0.932309625,-0.33972081,-0.20519967
1764764916.207749,-4.28806,1.58704,-1.11398,0.932309625,-0.33972081,-0.20519967
1764764916.207749,-4.28806,1.58704,-1.11398,0.932309625,-0.33972081,-0.20519967
1764764916.207749,-4.28806,1.58704,-1.11398,0.932309625,-0.33972081,-0.20519967
1764764916.207749,-4.28806,1.58704,-1.11398,0.932309625,-0.33972081,-0.20519967
1764764916.207749,-4.28806,1.58704,-1.11398,0.932309625,-0.33972081,-0.20519967
1764764916.207749,-4.02864,1.38866,-1.15976,0.92968512,-0.338805285,-0.2050776
1764764916.207749,-4.02864,1.38866,-1.15976,0.92968512,-0.338805285,-0.2050776
1764764916.207749,-4.02864,1.38866,-1.15976,0.92968512,-0.338805285,-0.2050776
1764764916.207749,-4.02864,1.38866,-1.15976,0.92968512,-0.338805285,-0.2050776
1764764916.207749,-4.02864,1.38866,-1.15976,0.92968512,-0.338805285,-0.2050776
1764764916.207749,-4.02864,1.38866,-1.15976,0.92968512,-0.338805285,-0.2050776
1764764916.2557762,-4.02864,1.38866,-1.15976,0.92968512,-0.338805285,-0.2050776
1764764916.2557762,-4.02864,1.38866,-1.15976,0.92968512,-0.338805285,-0.2050776
1764764916.2557762,-4.02864,1.38866,-1.15976,0.92968512,-0.338805285,-0.2050776
1764764916.2557762,-4.02864,1.38866,-1.15976,0.92968512,-0.338805285,-0.2050776
1764764916.2557762,-4.48644,0.94612,-0.8698199999999999,0.92760993,-0.33630285,-0.205626915
1764764916.2557762,-4.48644,0.94612,-0.8698199999999999,0.92760993,-0.33630285,-0.205626915
1764764916.2557762,-4.48644,0.94612,-0.8698199999999999,0.92760993,-0.33630285,-0.205626915
1764764916.2557762,-4.48644,0.94612,-0.8698199999999999,0.92760993,-0.33630285,-0.205626915
1764764916.2557762,-4.48644,0.94612,-0.8698199999999999,0.92760993,-0.33630285,-0.205626915
1764764916.2557762,-4.48644,0.94612,-0.8698199999999999,0.92760993,-0.33630285,-0.205626915
1764764916.2557762,-4.48644,0.94612,-0.8698199999999999,0.92760993,-0.33630285,-0.205626915
1764764916.2557762,-4.48644,0.94612,-0.8698199999999999,0.92760993,-0.33630285,-0.205626915
1764764916.2557762,-4.48644,0.94612,-0.8698199999999999,0.92760993,-0.33630285,-0.205626915
1764764916.2557762,-4.48644,0.94612,-0.8698199999999999,0.92760993,-0.33630285,-0.205626915
1764764916.2557762,-4.54748,1.49548,-0.6103999999999999,0.927915105,-0.335021115,-0.206115195
1764764916.2557762,-4.54748,1.49548,-0.6103999999999999,0.927915105,-0.335021115,-0.206115195
1764764916.2557762,-4.54748,1.49548,-0.6103999999999999,0.927915105,-0.335021115,-0.206115195
1764764916.2557762,-4.54748,1.49548,-0.6103999999999999,0.927915105,-0.335021115,-0.206115195
1764764916.2557762,-4.54748,1.49548,-0.6103999999999999,0.927915105,-0.335021115,-0.206115195
1764764916.2557762,-4.54748,1.49548,-0.6103999999999999,0.927915105,-0.335021115,-0.206115195
1764764916.2557762,-4.54748,1.49548,-0.6103999999999999,0.927915105,-0.335021115,-0.206115195
1764764916.2557762,-4.54748,1.49548,-0.6103999999999999,0.927915105,-0.335021115,-0.206115195
1764764916.2557762,-4.54748,1.49548,-0.6103999999999999,0.927915105,-0.335021115,-0.206115195
1764764916.2557762,-4.54748,1.49548,-0.6103999999999999,0.927915105,-0.335021115,-0.206115195
1764764916.256792,-5.21892,1.34288,-0.12208,0.930356505,-0.334776975,-0.20642037
1764764916.256792,-5.21892,1.34288,-0.12208,0.930356505,-0.334776975,-0.20642037
1764764916.3020084,-5.21892,1.34288,-0.12208,0.930356505,-0.334776975,-0.20642037
1764764916.3020084,-5.21892,1.34288,-0.12208,0.930356505,-0.334776975,-0.20642037
1764764916.3020084,-5.21892,1.34288,-0.12208,0.930356505,-0.334776975,-0.20642037
1764764916.3020084,-5.21892,1.34288,-0.12208,0.930356505,-0.334776975,-0.20642037
1764764916.3020084,-5.21892,1.34288,-0.12208,0.930356505,-0.334776975,-0.20642037
1764764916.3020084,-5.21892,1.34288,-0.12208,0.930356505,-0.334776975,-0.20642037
1764764916.3020084,-5.21892,1.34288,-0.12208,0.930356505,-0.334776975,-0.20642037
1764764916.3020084,-5.21892,1.34288,-0.12208,0.930356505,-0.334776975,-0.20642037
1764764916.3020084,-5.371519999999999,1.57178,-0.06104,0.931210995,-0.33520422,-0.206359335
1764764916.3020084,-5.371519999999999,1.57178,-0.06104,0.931210995,-0.33520422,-0.206359335
1764764916.3020084,-5.371519999999999,1.57178,-0.06104,0.931210995,-0.33520422,-0.206359335
1764764916.3020084,-5.371519999999999,1.57178,-0.06104,0.931210995,-0.33520422,-0.206359335
1764764916.3020084,-5.371519999999999,1.57178,-0.06104,0.931210995,-0.33520422,-0.206359335
1764764916.3020084,-5.371519999999999,1.57178,-0.06104,0.931210995,-0.33520422,-0.206359335
1764764916.3020084,-5.371519999999999,1.57178,-0.06104,0.931210995,-0.33520422,-0.206359335
1764764916.3020084,-5.371519999999999,1.57178,-0.06104,0.931210995,-0.33520422,-0.206359335
1764764916.3020084,-5.371519999999999,1.57178,-0.06104,0.931210995,-0.33520422,-0.206359335
1764764916.3020084,-5.371519999999999,1.57178,-0.06104,0.931210995,-0.33520422,-0.206359335
1764764916.3020084,-4.77638,1.4497,0.1678599999999999,0.928159245,-0.33630285,-0.20568795
1764764916.3020084,-4.77638,1.4497,0.1678599999999999,0.928159245,-0.33630285,-0.20568795
1764764916.3020084,-4.77638,1.4497,0.1678599999999999,0.928159245,-0.33630285,-0.20568795
1764764916.3020084,-4.77638,1.4497,0.1678599999999999,0.928159245,-0.33630285,-0.20568795
1764764916.3020084,-4.77638,1.4497,0.1678599999999999,0.928159245,-0.33630285,-0.20568795
1764764916.3020084,-4.77638,1.4497,0.1678599999999999,0.928159245,-0.33630285,-0.20568795
1764764916.345749,-4.77638,1.4497,0.1678599999999999,0.928159245,-0.33630285,-0.20568795
1764764916.345749,-4.77638,1.4497,0.1678599999999999,0.928159245,-0.33630285,-0.20568795
1764764916.3476672,-4.77638,1.4497,0.1678599999999999,0.928159245,-0.33630285,-0.20568795
1764764916.3476672,-4.77638,1.4497,0.1678599999999999,0.928159245,-0.33630285,-0.20568795
1764764916.3476672,-4.68482,0.36624,0.03052,0.92638923,-0.33618078,-0.20519967
1764764916.3476672,-4.68482,0.36624,0.03052,0.92638923,-0.33618078,-0.20519967
1764764916.3476672,-4.68482,0.36624,0.03052,0.92638923,-0.33618078,-0.20519967
1764764916.3476672,-4.68482,0.36624,0.03052,0.92638923,-0.33618078,-0.20519967
1764764916.3476672,-4.68482,0.36624,0.03052,0.92638923,-0.33618078,-0.20519967
1764764916.3476672,-4.68482,0.36624,0.03052,0.92638923,-0.33618078,-0.20519967
1764764916.34898,-4.68482,0.36624,0.03052,0.92638923,-0.33618078,-0.20519967
1764764916.34898,-4.68482,0.36624,0.03052,0.92638923,-0.33618078,-0.20519967
1764764916.34898,-4.68482,0.36624,0.03052,0.92638923,-0.33618078,-0.20519967
1764764916.34898,-4.68482,0.36624,0.03052,0.92638923,-0.33618078,-0.20519967
1764764916.34898,-4.852679999999999,-0.88508,-0.57988,0.926816475,-0.336485955,-0.20666451
1764764916.34898,-4.852679999999999,-0.88508,-0.57988,0.926816475,-0.336485955,-0.20666451
1764764916.34898,-4.852679999999999,-0.88508,-0.57988,0.926816475,-0.336485955,-0.20666451
1764764916.34898,-4.852679999999999,-0.88508,-0.57988,0.926816475,-0.336485955,-0.20666451
1764764916.34898,-4.852679999999999,-0.88508,-0.57988,0.926816475,-0.336485955,-0.20666451
1764764916.34898,-4.852679999999999,-0.88508,-0.57988,0.926816475,-0.336485955,-0.20666451
1764764916.34898,-4.852679999999999,-0.88508,-0.57988,0.926816475,-0.336485955,-0.20666451
1764764916.34898,-4.852679999999999,-0.88508,-0.57988,0.926816475,-0.336485955,-0.20666451
1764764916.3959544,-4.852679999999999,-0.88508,-0.57988,0.926816475,-0.336485955,-0.20666451
1764764916.3959544,-4.852679999999999,-0.88508,-0.57988,0.926816475,-0.336485955,-0.20666451
1764764916.3959544,-4.36436,-1.11398,-1.41918,0.932065485,-0.33679113,-0.20666451
1764764916.3959544,-4.36436,-1.11398,-1.41918,0.932065485,-0.33679113,-0.20666451
1764764916.3959544,-4.36436,-1.11398,-1.41918,0.932065485,-0.33679113,-0.20666451
1764764916.3959544,-4.36436,-1.11398,-1.41918,0.932065485,-0.33679113,-0.20666451
1764764916.3959544,-4.36436,-1.11398,-1.41918,0.932065485,-0.33679113,-0.20666451
1764764916.3959544,-4.36436,-1.11398,-1.41918,0.932065485,-0.33679113,-0.20666451
1764764916.3959544,-4.36436,-1.11398,-1.41918,0.932065485,-0.33679113,-0.20666451
1764764916.3959544,-4.36436,-1.11398,-1.41918,0.932065485,-0.33679113,-0.20666451
1764764916.3959544,-4.36436,-1.11398,-1.41918,0.932065485,-0.33679113,-0.20666451
1764764916.3959544,-4.36436,-1.11398,-1.41918,0.932065485,-0.33679113,-0.20666451
1764764916.3959544,-4.37962,-0.04578,-2.25848,0.93371343,-0.335631465,-0.20532174
1764764916.3959544,-4.37962,-0.04578,-2.25848,0.93371343,-0.335631465,-0.20532174
1764764916.3959544,-4.37962,-0.04578,-2.25848,0.93371343,-0.335631465,-0.20532174
1764764916.3959544,-4.37962,-0.04578,-2.25848,0.93371343,-0.335631465,-0.20532174
1764764916.3959544,-4.37962,-0.04578,-2.25848,0.93371343,-0.335631465,-0.20532174
1764764916.3959544,-4.37962,-0.04578,-2.25848,0.93371343,-0.335631465,-0.20532174
1764764916.3959544,-4.37962,-0.04578,-2.25848,0.93371343,-0.335631465,-0.20532174
1764764916.3959544,-4.37962,-0.04578,-2.25848,0.93371343,-0.335631465,-0.20532174
1764764916.3959544,-4.37962,-0.04578,-2.25848,0.93371343,-0.335631465,-0.20532174
1764764916.3959544,-4.37962,-0.04578,-2.25848,0.93371343,-0.335631465,-0.20532174
1764764916.444261,-3.83026,1.2971,-2.31952,0.93273687,-0.33373938,-0.20568795
1764764916.444261,-3.83026,1.2971,-2.31952,0.93273687,-0.33373938,-0.20568795
1764764916.444261,-3.83026,1.2971,-2.31952,0.93273687,-0.33373938,-0.20568795
1764764916.444261,-3.83026,1.2971,-2.31952,0.93273687,-0.33373938,-0.20568795
1764764916.444261,-3.83026,1.2971,-2.31952,0.93273687,-0.33373938,-0.20568795
1764764916.444261,-3.83026,1.2971,-2.31952,0.93273687,-0.33373938,-0.20568795
1764764916.444261,-3.83026,1.2971,-2.31952,0.93273687,-0.33373938,-0.20568795
1764764916.444261,-3.83026,1.2971,-2.31952,0.93273687,-0.33373938,-0.20568795
1764764916.444261,-3.83026,1.2971,-2.31952,0.93273687,-0.33373938,-0.20568795
1764764916.444261,-3.83026,1.2971,-2.31952,0.93273687,-0.33373938,-0.20568795
1764764916.444261,-4.1965,1.55652,-1.54126,0.93322515,-0.332823855,-0.2062983
1764764916.444261,-4.1965,1.55652,-1.54126,0.93322515,-0.332823855,-0.2062983
1764764916.444261,-4.1965,1.55652,-1.54126,0.93322515,-0.332823855,-0.2062983
1764764916.444261,-4.1965,1.55652,-1.54126,0.93322515,-0.332823855,-0.2062983
1764764916.444261,-4.1965,1.55652,-1.54126,0.93322515,-0.332823855,-0.2062983
1764764916.444261,-4.1965,1.55652,-1.54126,0.93322515,-0.332823855,-0.2062983
1764764916.444261,-4.1965,1.55652,-1.54126,0.93322515,-0.332823855,-0.2062983
1764764916.444261,-4.1965,1.55652,-1.54126,0.93322515,-0.332823855,-0.2062983
1764764916.444768,-4.1965,1.55652,-1.54126,0.93322515,-0.332823855,-0.2062983
1764764916.444768,-4.1965,1.55652,-1.54126,0.93322515,-0.332823855,-0.2062983
1764764916.444768,-3.87604,2.63998,-1.63282,0.935117235,-0.33288489,-0.205871055
1764764916.444768,-3.87604,2.63998,-1.63282,0.935117235,-0.33288489,-0.205871055
1764764916.444768,-3.87604,2.63998,-1.63282,0.935117235,-0.33288489,-0.205871055
1764764916.444768,-3.87604,2.63998,-1.63282,0.935117235,-0.33288489,-0.205871055
1764764916.488235,-3.87604,2.63998,-1.63282,0.935117235,-0.33288489,-0.205871055
1764764916.488235,-3.87604,2.63998,-1.63282,0.935117235,-0.33288489,-0.205871055
1764764916.488235,-3.87604,2.63998,-1.63282,0.935117235,-0.33288489,-0.205871055
1764764916.488235,-3.87604,2.63998,-1.63282,0.935117235,-0.33288489,-0.205871055
1764764916.488235,-3.87604,2.63998,-1.63282,0.935117235,-0.33288489,-0.205871055
1764764916.488235,-3.87604,2.63998,-1.63282,0.935117235,-0.33288489,-0.205871055
1764764916.488235,-3.2809,2.62472,-1.61756,0.93420171,-0.33398352,-0.20483346
1764764916.488235,-3.2809,2.62472,-1.61756,0.93420171,-0.33398352,-0.20483346
1764764916.488235,-3.2809,2.62472,-1.61756,0.93420171,-0.33398352,-0.20483346
1764764916.488235,-3.2809,2.62472,-1.61756,0.93420171,-0.33398352,-0.20483346
1764764916.488235,-3.2809,2.62472,-1.61756,0.93420171,-0.33398352,-0.20483346
1764764916.488235,-3.2809,2.62472,-1.61756,0.93420171,-0.33398352,-0.20483346
1764764916.488235,-3.2809,2.62472,-1.61756,0.93420171,-0.33398352,-0.20483346
1764764916.4890509,-3.2809,2.62472,-1.61756,0.93420171,-0.33398352,-0.20483346
1764764916.4890509,-3.2809,2.62472,-1.61756,0.93420171,-0.33398352,-0.20483346
1764764916.4890509,-3.2809,2.62472,-1.61756,0.93420171,-0.33398352,-0.20483346
1764764916.4890509,-2.73154,1.77016,-1.1445,0.931577205,-0.33422766,-0.20446725
1764764916.4890509,-2.73154,1.77016,-1.1445,0.931577205,-0.33422766,-0.20446725
1764764916.4890509,-2.73154,1.77016,-1.1445,0.931577205,-0.33422766,-0.20446725
1764764916.4890509,-2.73154,1.77016,-1.1445,0.931577205,-0.33422766,-0.20446725
1764764916.4890509,-2.73154,1.77016,-1.1445,0.931577205,-0.33422766,-0.20446725
1764764916.4890509,-2.73154,1.77016,-1.1445,0.931577205,-0.33422766,-0.20446725
1764764916.490059,-2.73154,1.77016,-1.1445,0.931577205,-0.33422766,-0.20446725
1764764916.490059,-2.73154,1.77016,-1.1445,0.931577205,-0.33422766,-0.20446725
1764764916.536519,-2.73154,1.77016,-1.1445,0.931577205,-0.33422766,-0.20446725
1764764916.536519,-2.73154,1.77016,-1.1445,0.931577205,-0.33422766,-0.20446725
1764764916.536519,-2.2127,1.34288,-1.00716,0.930600645,-0.334532835,-0.203429655
1764764916.536519,-2.2127,1.34288,-1.00716,0.930600645,-0.334532835,-0.203429655
1764764916.536519,-2.2127,1.34288,-1.00716,0.930600645,-0.334532835,-0.203429655
1764764916.536519,-2.2127,1.34288,-1.00716,0.930600645,-0.334532835,-0.203429655
1764764916.536519,-2.2127,1.34288,-1.00716,0.930600645,-0.334532835,-0.203429655
1764764916.536519,-2.2127,1.34288,-1.00716,0.930600645,-0.334532835,-0.203429655
1764764916.536519,-2.2127,1.34288,-1.00716,0.930600645,-0.334532835,-0.203429655
1764764916.537042,-2.2127,1.34288,-1.00716,0.930600645,-0.334532835,-0.203429655
1764764916.537042,-2.2127,1.34288,-1.00716,0.930600645,-0.334532835,-0.203429655
1764764916.537042,-2.2127,1.34288,-1.00716,0.930600645,-0.334532835,-0.203429655
1764764916.537042,-2.5942,1.02242,-0.48832,0.93090582,-0.33422766,-0.20349069
1764764916.537042,-2.5942,1.02242,-0.48832,0.93090582,-0.33422766,-0.20349069
1764764916.537042,-2.5942,1.02242,-0.48832,0.93090582,-0.33422766,-0.20349069
1764764916.537042,-2.5942,1.02242,-0.48832,0.93090582,-0.33422766,-0.20349069
1764764916.537042,-2.5942,1.02242,-0.48832,0.93090582,-0.33422766,-0.20349069
1764764916.537042,-2.5942,1.02242,-0.48832,0.93090582,-0.33422766,-0.20349069
1764764916.537042,-2.5942,1.02242,-0.48832,0.93090582,-0.33422766,-0.20349069
1764764916.537042,-2.5942,1.02242,-0.48832,0.93090582,-0.33422766,-0.20349069
1764764916.537042,-2.5942,1.02242,-0.48832,0.93090582,-0.33422766,-0.20349069
1764764916.537042,-2.5942,1.02242,-0.48832,0.93090582,-0.33422766,-0.20349069
1764764916.537042,-3.98286,0.57988,0.04578,0.9289527,-0.330016245,-0.20410104
1764764916.537042,-3.98286,0.57988,0.04578,0.9289527,-0.330016245,-0.20410104
1764764916.583698,-3.98286,0.57988,0.04578,0.9289527,-0.330016245,-0.20410104
1764764916.583698,-3.98286,0.57988,0.04578,0.9289527,-0.330016245,-0.20410104
1764764916.583698,-3.98286,0.57988,0.04578,0.9289527,-0.330016245,-0.20410104
1764764916.583698,-3.98286,0.57988,0.04578,0.9289527,-0.330016245,-0.20410104
1764764916.583698,-3.98286,0.57988,0.04578,0.9289527,-0.330016245,-0.20410104
1764764916.583698,-3.98286,0.57988,0.04578,0.9289527,-0.330016245,-0.20410104
1764764916.583698,-3.98286,0.57988,0.04578,0.9289527,-0.330016245,-0.20410104
1764764916.583698,-3.98286,0.57988,0.04578,0.9289527,-0.330016245,-0.20410104
1764764916.583698,-5.8751,1.28184,1.3734,0.929135805,-0.329039685,-0.205871055
1764764916.583698,-5.8751,1.28184,1.3734,0.929135805,-0.329039685,-0.205871055
1764764916.583698,-5.8751,1.28184,1.3734,0.929135805,-0.329039685,-0.205871055
1764764916.583698,-5.8751,1.28184,1.3734,0.929135805,-0.329039685,-0.205871055
1764764916.583698,-5.8751,1.28184,1.3734,0.929135805,-0.329039685,-0.205871055
1764764916.583698,-5.8751,1.28184,1.3734,0.929135805,-0.329039685,-0.205871055
1764764916.583698,-5.8751,1.28184,1.3734,0.929135805,-0.329039685,-0.205871055
1764764916.583698,-5.8751,1.28184,1.3734,0.929135805,-0.329039685,-0.205871055
1764764916.583698,-5.8751,1.28184,1.3734,0.929135805,-0.329039685,-0.205871055
1764764916.583698,-5.8751,1.28184,1.3734,0.929135805,-0.329039685,-0.205871055
1764764916.583698,-7.52318,0.6409199999999999,1.57178,0.930722715,-0.328307265,-0.20703072
1764764916.583698,-7.52318,0.6409199999999999,1.57178,0.930722715,-0.328307265,-0.20703072
1764764916.5857835,-7.52318,0.6409199999999999,1.57178,0.930722715,-0.328307265,-0.20703072
1764764916.5857835,-7.52318,0.6409199999999999,1.57178,0.930722715,-0.328307265,-0.20703072
1764764916.5857835,-7.52318,0.6409199999999999,1.57178,0.930722715,-0.328307265,-0.20703072
1764764916.5857835,-7.52318,0.6409199999999999,1.57178,0.930722715,-0.328307265,-0.20703072
1764764916.6322105,-7.52318,0.6409199999999999,1.57178,0.930722715,-0.328307265,-0.20703072
1764764916.6322105,-7.52318,0.6409199999999999,1.57178,0.930722715,-0.328307265,-0.20703072
1764764916.6322105,-7.52318,0.6409199999999999,1.57178,0.930722715,-0.328307265,-0.20703072
1764764916.6322105,-7.52318,0.6409199999999999,1.57178,0.930722715,-0.328307265,-0.20703072
1764764916.6322105,-7.90468,1.00716,1.28184,0.93249273,-0.32983314,-0.207457965
1764764916.6322105,-7.90468,1.00716,1.28184,0.93249273,-0.32983314,-0.207457965
1764764916.6322105,-7.90468,1.00716,1.28184,0.93249273,-0.32983314,-0.207457965
1764764916.6322105,-7.90468,1.00716,1.28184,0.93249273,-0.32983314,-0.207457965
1764764916.6322105,-7.90468,1.00716,1.28184,0.93249273,-0.32983314,-0.207457965
1764764916.6322105,-7.90468,1.00716,1.28184,0.93249273,-0.32983314,-0.207457965
1764764916.6322105,-7.90468,1.00716,1.28184,0.93249273,-0.32983314,-0.207457965
1764764916.6322105,-7.90468,1.00716,1.28184,0.93249273,-0.32983314,-0.207457965
1764764916.6322105,-7.90468,1.00716,1.28184,0.93249273,-0.32983314,-0.207457965
1764764916.6322105,-7.90468,1.00716,1.28184,0.93249273,-0.32983314,-0.207457965
1764764916.6322105,-6.928039999999999,1.02242,1.1445,0.93249273,-0.334044555,-0.206969685
1764764916.6322105,-6.928039999999999,1.02242,1.1445,0.93249273,-0.334044555,-0.206969685
1764764916.6322105,-6.928039999999999,1.02242,1.1445,0.93249273,-0.334044555,-0.206969685
1764764916.6322105,-6.928039999999999,1.02242,1.1445,0.93249273,-0.334044555,-0.206969685
1764764916.6322105,-6.928039999999999,1.02242,1.1445,0.93249273,-0.334044555,-0.206969685
1764764916.6322105,-6.928039999999999,1.02242,1.1445,0.93249273,-0.334044555,-0.206969685
1764764916.6322105,-6.928039999999999,1.02242,1.1445,0.93249273,-0.334044555,-0.206969685
1764764916.6322105,-6.928039999999999,1.02242,1.1445,0.93249273,-0.334044555,-0.206969685
1764764916.6758838,-6.928039999999999,1.02242,1.1445,0.93249273,-0.334044555,-0.206969685
1764764916.6758838,-6.928039999999999,1.02242,1.1445,0.93249273,-0.334044555,-0.206969685
1764764916.6758838,-5.371519999999999,1.0682,0.39676,0.932309625,-0.336608025,-0.206115195
1764764916.6758838,-5.371519999999999,1.0682,0.39676,0.932309625,-0.336608025,-0.206115195
1764764916.6758838,-5.371519999999999,1.0682,0.39676,0.932309625,-0.336608025,-0.206115195
1764764916.6758838,-5.371519999999999,1.0682,0.39676,0.932309625,-0.336608025,-0.206115195
1764764916.6758838,-5.371519999999999,1.0682,0.39676,0.932309625,-0.336608025,-0.206115195
1764764916.6758838,-5.371519999999999,1.0682,0.39676,0.932309625,-0.336608025,-0.206115195
1764764916.6758838,-5.371519999999999,1.0682,0.39676,0.932309625,-0.336608025,-0.206115195
1764764916.6758838,-5.371519999999999,1.0682,0.39676,0.932309625,-0.336608025,-0.206115195
1764764916.6758838,-5.371519999999999,1.0682,0.39676,0.932309625,-0.336608025,-0.206115195
1764764916.6758838,-5.371519999999999,1.0682,0.39676,0.932309625,-0.336608025,-0.206115195
1764764916.6758838,-4.37962,1.2971,-0.04578,0.93163824,-0.337218375,-0.20544381
1764764916.6758838,-4.37962,1.2971,-0.04578,0.93163824,-0.337218375,-0.20544381
1764764916.6758838,-4.37962,1.2971,-0.04578,0.93163824,-0.337218375,-0.20544381
1764764916.6758838,-4.37962,1.2971,-0.04578,0.93163824,-0.337218375,-0.20544381
1764764916.6768944,-4.37962,1.2971,-0.04578,0.93163824,-0.337218375,-0.20544381
1764764916.6768944,-4.37962,1.2971,-0.04578,0.93163824,-0.337218375,-0.20544381
1764764916.6768944,-4.37962,1.2971,-0.04578,0.93163824,-0.337218375,-0.20544381
1764764916.6768944,-4.37962,1.2971,-0.04578,0.93163824,-0.337218375,-0.20544381
1764764916.6768944,-4.37962,1.2971,-0.04578,0.93163824,-0.337218375,-0.20544381
1764764916.6768944,-4.37962,1.2971,-0.04578,0.93163824,-0.337218375,-0.20544381
1764764916.6768944,-3.52506,0.88508,-0.9003399999999999,0.93078375,-0.335265255,-0.20556588
1764764916.6768944,-3.52506,0.88508,-0.9003399999999999,0.93078375,-0.335265255,-0.20556588
1764764916.7236128,-3.52506,0.88508,-0.9003399999999999,0.93078375,-0.335265255,-0.20556588
1764764916.7236128,-3.52506,0.88508,-0.9003399999999999,0.93078375,-0.335265255,-0.20556588
1764764916.7236128,-3.52506,0.88508,-0.9003399999999999,0.93078375,-0.335265255,-0.20556588
1764764916.7236128,-3.52506,0.88508,-0.9003399999999999,0.93078375,-0.335265255,-0.20556588
1764764916.7236128,-3.52506,0.88508,-0.9003399999999999,0.93078375,-0.335265255,-0.20556588
1764764916.7236128,-3.52506,0.88508,-0.9003399999999999,0.93078375,-0.335265255,-0.20556588
1764764916.7236128,-3.52506,0.88508,-0.9003399999999999,0.93078375,-0.335265255,-0.20556588
1764764916.7236128,-3.52506,0.88508,-0.9003399999999999,0.93078375,-0.335265255,-0.20556588
1764764916.7236128,-3.99812,0.96138,-1.4039199999999998,0.930600645,-0.33349524,-0.205626915
1764764916.7236128,-3.99812,0.96138,-1.4039199999999998,0.930600645,-0.33349524,-0.205626915
1764764916.7236128,-3.99812,0.96138,-1.4039199999999998,0.930600645,-0.33349524,-0.205626915
1764764916.7236128,-3.99812,0.96138,-1.4039199999999998,0.930600645,-0.33349524,-0.205626915
1764764916.7236128,-3.99812,0.96138,-1.4039199999999998,0.930600645,-0.33349524,-0.205626915
1764764916.7236128,-3.99812,0.96138,-1.4039199999999998,0.930600645,-0.33349524,-0.205626915
1764764916.7236128,-3.99812,0.96138,-1.4039199999999998,0.930600645,-0.33349524,-0.205626915
1764764916.7251298,-3.99812,0.96138,-1.4039199999999998,0.930600645,-0.33349524,-0.205626915
1764764916.7251298,-3.99812,0.96138,-1.4039199999999998,0.930600645,-0.33349524,-0.205626915
1764764916.7251298,-3.99812,0.96138,-1.4039199999999998,0.930600645,-0.33349524,-0.205626915
1764764916.7251298,-4.01338,1.35814,-1.28184,0.931088925,-0.3320304,-0.206115195
1764764916.7251298,-4.01338,1.35814,-1.28184,0.931088925,-0.3320304,-0.206115195
1764764916.7251298,-4.01338,1.35814,-1.28184,0.931088925,-0.3320304,-0.206115195
1764764916.7251298,-4.01338,1.35814,-1.28184,0.931088925,-0.3320304,-0.206115195
1764764916.7251298,-4.01338,1.35814,-1.28184,0.931088925,-0.3320304,-0.206115195
1764764916.726135,-4.01338,1.35814,-1.28184,0.931088925,-0.3320304,-0.206115195
1764764916.7731924,-4.01338,1.35814,-1.28184,0.931088925,-0.3320304,-0.206115195
1764764916.7731924,-4.01338,1.35814,-1.28184,0.931088925,-0.3320304,-0.206115195
1764764916.7731924,-4.01338,1.35814,-1.28184,0.931088925,-0.3320304,-0.206115195
1764764916.7731924,-4.01338,1.35814,-1.28184,0.931088925,-0.3320304,-0.206115195
1764764916.7731924,-5.05106,2.07536,-1.64808,0.93371343,-0.33032142,-0.20666451
1764764916.7731924,-5.05106,2.07536,-1.64808,0.93371343,-0.33032142,-0.20666451
1764764916.7731924,-5.05106,2.07536,-1.64808,0.93371343,-0.33032142,-0.20666451
1764764916.774208,-5.05106,2.07536,-1.64808,0.93371343,-0.33032142,-0.20666451
1764764916.774208,-5.05106,2.07536,-1.64808,0.93371343,-0.33032142,-0.20666451
1764764916.774208,-5.05106,2.07536,-1.64808,0.93371343,-0.33032142,-0.20666451
1764764916.774208,-5.05106,2.07536,-1.64808,0.93371343,-0.33032142,-0.20666451
1764764916.774208,-5.05106,2.07536,-1.64808,0.93371343,-0.33032142,-0.20666451
1764764916.774208,-5.05106,2.07536,-1.64808,0.93371343,-0.33032142,-0.20666451
1764764916.774208,-5.05106,2.07536,-1.64808,0.93371343,-0.33032142,-0.20666451
1764764916.774208,-5.43256,2.54842,-1.25132,0.934873095,-0.33007728,-0.206847615
1764764916.774208,-5.43256,2.54842,-1.25132,0.934873095,-0.33007728,-0.206847615
1764764916.774208,-5.43256,2.54842,-1.25132,0.934873095,-0.33007728,-0.206847615
1764764916.774208,-5.43256,2.54842,-1.25132,0.934873095,-0.33007728,-0.206847615
1764764916.774208,-5.43256,2.54842,-1.25132,0.934873095,-0.33007728,-0.206847615
1764764916.774208,-5.43256,2.54842,-1.25132,0.934873095,-0.33007728,-0.206847615
1764764916.7752235,-5.43256,2.54842,-1.25132,0.934873095,-0.33007728,-0.206847615
1764764916.7752235,-5.43256,2.54842,-1.25132,0.934873095,-0.33007728,-0.206847615
1764764916.8174386,-5.43256,2.54842,-1.25132,0.934873095,-0.33007728,-0.206847615
1764764916.8174386,-5.43256,2.54842,-1.25132,0.934873095,-0.33007728,-0.206847615
1764764916.8174386,-6.07348,2.62472,-1.03768,0.93420171,-0.33044349,-0.20666451
1764764916.8174386,-6.07348,2.62472,-1.03768,0.93420171,-0.33044349,-0.20666451
1764764916.8184614,-6.07348,2.62472,-1.03768,0.93420171,-0.33044349,-0.20666451
1764764916.8184614,-6.07348,2.62472,-1.03768,0.93420171,-0.33044349,-0.20666451
1764764916.8184614,-6.07348,2.62472,-1.03768,0.93420171,-0.33044349,-0.20666451
1764764916.8184614,-6.07348,2.62472,-1.03768,0.93420171,-0.33044349,-0.20666451
1764764916.8184614,-6.07348,2.62472,-1.03768,0.93420171,-0.33044349,-0.20666451
1764764916.8184614,-6.07348,2.62472,-1.03768,0.93420171,-0.33044349,-0.20666451
1764764916.8184614,-6.07348,2.62472,-1.03768,0.93420171,-0.33044349,-0.20666451
1764764916.8184614,-6.07348,2.62472,-1.03768,0.93420171,-0.33044349,-0.20666451
1764764916.8184614,-5.7988,2.39582,-1.58704,0.93310308,-0.32910072,-0.2062983
1764764916.8184614,-5.7988,2.39582,-1.58704,0.93310308,-0.32910072,-0.2062983
1764764916.8184614,-5.7988,2.39582,-1.58704,0.93310308,-0.32910072,-0.2062983
1764764916.8184614,-5.7988,2.39582,-1.58704,0.93310308,-0.32910072,-0.2062983
1764764916.8184614,-5.7988,2.39582,-1.58704,0.93310308,-0.32910072,-0.2062983
1764764916.8184614,-5.7988,2.39582,-1.58704,0.93310308,-0.32910072,-0.2062983
1764764916.8184614,-5.7988,2.39582,-1.58704,0.93310308,-0.32910072,-0.2062983
1764764916.8184614,-5.7988,2.39582,-1.58704,0.93310308,-0.32910072,-0.2062983
1764764916.8184614,-5.7988,2.39582,-1.58704,0.93310308,-0.32910072,-0.2062983
1764764916.8184614,-5.7988,2.39582,-1.58704,0.93310308,-0.32910072,-0.2062983
1764764916.8184614,-6.22608,2.19744,-2.10588,0.931821345,-0.32849037,-0.206237265
1764764916.8184614,-6.22608,2.19744,-2.10588,0.931821345,-0.32849037,-0.206237265
1764764916.864949,-6.22608,2.19744,-2.10588,0.931821345,-0.32849037,-0.206237265
1764764916.864949,-6.22608,2.19744,-2.10588,0.931821345,-0.32849037,-0.206237265
1764764916.864949,-6.22608,2.19744,-2.10588,0.931821345,-0.32849037,-0.206237265
1764764916.864949,-6.22608,2.19744,-2.10588,0.931821345,-0.32849037,-0.206237265
1764764916.864949,-6.22608,2.19744,-2.10588,0.931821345,-0.32849037,-0.206237265
1764764916.864949,-6.22608,2.19744,-2.10588,0.931821345,-0.32849037,-0.206237265
1764764916.864949,-6.22608,2.19744,-2.10588,0.931821345,-0.32849037,-0.206237265
1764764916.864949,-6.22608,2.19744,-2.10588,0.931821345,-0.32849037,-0.206237265
1764764916.864949,-7.11116,1.87698,-1.7549,0.93346929,-0.32800209,-0.2062983
1764764916.864949,-7.11116,1.87698,-1.7549,0.93346929,-0.32800209,-0.2062983
1764764916.864949,-7.11116,1.87698,-1.7549,0.93346929,-0.32800209,-0.2062983
1764764916.864949,-7.11116,1.87698,-1.7549,0.93346929,-0.32800209,-0.2062983
1764764916.864949,-7.11116,1.87698,-1.7549,0.93346929,-0.32800209,-0.2062983
1764764916.864949,-7.11116,1.87698,-1.7549,0.93346929,-0.32800209,-0.2062983
1764764916.864949,-7.11116,1.87698,-1.7549,0.93346929,-0.32800209,-0.2062983
1764764916.864949,-7.11116,1.87698,-1.7549,0.93346929,-0.32800209,-0.2062983
1764764916.864949,-7.11116,1.87698,-1.7549,0.93346929,-0.32800209,-0.2062983
1764764916.864949,-7.11116,1.87698,-1.7549,0.93346929,-0.32800209,-0.2062983
1764764916.864949,-8.27092,2.16692,-1.51074,0.934140675,-0.328429335,-0.20605416
1764764916.864949,-8.27092,2.16692,-1.51074,0.934140675,-0.328429335,-0.20605416
1764764916.864949,-8.27092,2.16692,-1.51074,0.934140675,-0.328429335,-0.20605416
1764764916.8654618,-8.27092,2.16692,-1.51074,0.934140675,-0.328429335,-0.20605416
1764764916.8654618,-8.27092,2.16692,-1.51074,0.934140675,-0.328429335,-0.20605416
1764764916.8654618,-8.27092,2.16692,-1.51074,0.934140675,-0.328429335,-0.20605416
1764764916.913106,-8.27092,2.16692,-1.51074,0.934140675,-0.328429335,-0.20605416
1764764916.913106,-8.27092,2.16692,-1.51074,0.934140675,-0.328429335,-0.20605416
1764764916.913106,-8.27092,2.16692,-1.51074,0.934140675,-0.328429335,-0.20605416
1764764916.913106,-8.27092,2.16692,-1.51074,0.934140675,-0.328429335,-0.20605416
1764764916.913106,-9.18652,2.99096,-0.56462,0.93249273,-0.32873451,-0.204894495
1764764916.913106,-9.18652,2.99096,-0.56462,0.93249273,-0.32873451,-0.204894495
1764764916.913106,-9.18652,2.99096,-0.56462,0.93249273,-0.32873451,-0.204894495
1764764916.913106,-9.18652,2.99096,-0.56462,0.93249273,-0.32873451,-0.204894495
1764764916.913106,-9.18652,2.99096,-0.56462,0.93249273,-0.32873451,-0.204894495
1764764916.913106,-9.18652,2.99096,-0.56462,0.93249273,-0.32873451,-0.204894495
1764764916.913106,-9.18652,2.99096,-0.56462,0.93249273,-0.32873451,-0.204894495
1764764916.913106,-9.18652,2.99096,-0.56462,0.93249273,-0.32873451,-0.204894495
1764764916.913106,-9.18652,2.99096,-0.56462,0.93249273,-0.32873451,-0.204894495
1764764916.913106,-9.18652,2.99096,-0.56462,0.93249273,-0.32873451,-0.204894495
1764764916.913106,-10.10212,2.48738,-1.73964,0.931577205,-0.3259269,-0.20495553
1764764916.913106,-10.10212,2.48738,-1.73964,0.931577205,-0.3259269,-0.20495553
1764764916.913106,-10.10212,2.48738,-1.73964,0.931577205,-0.3259269,-0.20495553
1764764916.913106,-10.10212,2.48738,-1.73964,0.931577205,-0.3259269,-0.20495553
1764764916.913106,-10.10212,2.48738,-1.73964,0.931577205,-0.3259269,-0.20495553
1764764916.913106,-10.10212,2.48738,-1.73964,0.931577205,-0.3259269,-0.20495553
1764764916.913106,-10.10212,2.48738,-1.73964,0.931577205,-0.3259269,-0.20495553
1764764916.913106,-10.10212,2.48738,-1.73964,0.931577205,-0.3259269,-0.20495553
1764764916.9597478,-10.10212,2.48738,-1.73964,0.931577205,-0.3259269,-0.20495553
1764764916.9597478,-10.10212,2.48738,-1.73964,0.931577205,-0.3259269,-0.20495553
1764764916.9597478,-11.47552,1.6633399999999998,-2.73154,0.929746155,-0.32617104,-0.20532174
1764764916.9602702,-11.47552,1.6633399999999998,-2.73154,0.929746155,-0.32617104,-0.20532174
1764764916.9602702,-11.47552,1.6633399999999998,-2.73154,0.929746155,-0.32617104,-0.20532174
1764764916.9602702,-11.47552,1.6633399999999998,-2.73154,0.929746155,-0.32617104,-0.20532174
1764764916.9602702,-11.47552,1.6633399999999998,-2.73154,0.929746155,-0.32617104,-0.20532174
1764764916.9602702,-11.47552,1.6633399999999998,-2.73154,0.929746155,-0.32617104,-0.20532174
1764764916.9602702,-11.47552,1.6633399999999998,-2.73154,0.929746155,-0.32617104,-0.20532174
1764764916.9602702,-11.47552,1.6633399999999998,-2.73154,0.929746155,-0.32617104,-0.20532174
1764764916.9602702,-11.47552,1.6633399999999998,-2.73154,0.929746155,-0.32617104,-0.20532174
1764764916.9602702,-11.47552,1.6633399999999998,-2.73154,0.929746155,-0.32617104,-0.20532174
1764764916.9602702,-12.22326,0.18312,-3.815,0.930112365,-0.32604897,-0.206115195
1764764916.9602702,-12.22326,0.18312,-3.815,0.930112365,-0.32604897,-0.206115195
1764764916.9602702,-12.22326,0.18312,-3.815,0.930112365,-0.32604897,-0.206115195
1764764916.9602702,-12.22326,0.18312,-3.815,0.930112365,-0.32604897,-0.206115195
1764764916.9602702,-12.22326,0.18312,-3.815,0.930112365,-0.32604897,-0.206115195
1764764916.9602702,-12.22326,0.18312,-3.815,0.930112365,-0.32604897,-0.206115195
1764764916.9602702,-12.22326,0.18312,-3.815,0.930112365,-0.32604897,-0.206115195
1764764916.9602702,-12.22326,0.18312,-3.815,0.930112365,-0.32604897,-0.206115195
1764764916.9602702,-12.22326,0.18312,-3.815,0.930112365,-0.32604897,-0.206115195
1764764916.9602702,-12.22326,0.18312,-3.815,0.930112365,-0.32604897,-0.206115195
1764764916.9602702,-13.1236,0.1525999999999999,-4.715339999999999,0.932431695,-0.32519448,-0.20544381
1764764916.9602702,-13.1236,0.1525999999999999,-4.715339999999999,0.932431695,-0.32519448,-0.20544381
1764764917.009029,-13.1236,0.1525999999999999,-4.715339999999999,0.932431695,-0.32519448,-0.20544381
1764764917.009029,-13.1236,0.1525999999999999,-4.715339999999999,0.932431695,-0.32519448,-0.20544381
1764764917.009029,-13.1236,0.1525999999999999,-4.715339999999999,0.932431695,-0.32519448,-0.20544381
1764764917.009029,-13.1236,0.1525999999999999,-4.715339999999999,0.932431695,-0.32519448,-0.20544381
1764764917.009029,-13.1236,0.1525999999999999,-4.715339999999999,0.932431695,-0.32519448,-0.20544381
1764764917.009029,-13.1236,0.1525999999999999,-4.715339999999999,0.932431695,-0.32519448,-0.20544381
1764764917.009029,-13.1236,0.1525999999999999,-4.715339999999999,0.932431695,-0.32519448,-0.20544381
1764764917.009029,-13.1236,0.1525999999999999,-4.715339999999999,0.932431695,-0.32519448,-0.20544381
1764764917.009029,-13.07782,0.79352,-5.40204,0.93566655,-0.32653725,-0.205260705
1764764917.009029,-13.07782,0.79352,-5.40204,0.93566655,-0.32653725,-0.205260705
1764764917.010036,-13.07782,0.79352,-5.40204,0.93566655,-0.32653725,-0.205260705
1764764917.010036,-13.07782,0.79352,-5.40204,0.93566655,-0.32653725,-0.205260705
1764764917.010036,-13.07782,0.79352,-5.40204,0.93566655,-0.32653725,-0.205260705
1764764917.010036,-13.07782,0.79352,-5.40204,0.93566655,-0.32653725,-0.205260705
1764764917.010036,-13.07782,0.79352,-5.40204,0.93566655,-0.32653725,-0.205260705
1764764917.010036,-13.07782,0.79352,-5.40204,0.93566655,-0.32653725,-0.205260705
1764764917.010036,-13.07782,0.79352,-5.40204,0.93566655,-0.32653725,-0.205260705
1764764917.010036,-13.07782,0.79352,-5.40204,0.93566655,-0.32653725,-0.205260705
1764764917.010036,-12.62002,1.46496,-5.85984,0.936582075,-0.32641518,-0.20458932
1764764917.010036,-12.62002,1.46496,-5.85984,0.936582075,-0.32641518,-0.20458932
1764764917.010036,-12.62002,1.46496,-5.85984,0.936582075,-0.32641518,-0.20458932
1764764917.010036,-12.62002,1.46496,-5.85984,0.936582075,-0.32641518,-0.20458932
1764764917.010036,-12.62002,1.46496,-5.85984,0.936582075,-0.32641518,-0.20458932
1764764917.010036,-12.62002,1.46496,-5.85984,0.936582075,-0.32641518,-0.20458932
1764764917.0531075,-12.62002,1.46496,-5.85984,0.936582075,-0.32641518,-0.20458932
1764764917.0531075,-12.62002,1.46496,-5.85984,0.936582075,-0.32641518,-0.20458932
1764764917.0531075,-12.62002,1.46496,-5.85984,0.936582075,-0.32641518,-0.20458932
1764764917.0531075,-12.62002,1.46496,-5.85984,0.936582075,-0.32641518,-0.20458932
1764764917.0531075,-11.58234,1.46496,-6.72966,0.93517827,-0.323058255,-0.20446725
1764764917.0531075,-11.58234,1.46496,-6.72966,0.93517827,-0.323058255,-0.20446725
1764764917.0531075,-11.58234,1.46496,-6.72966,0.93517827,-0.323058255,-0.20446725
1764764917.0531075,-11.58234,1.46496,-6.72966,0.93517827,-0.323058255,-0.20446725
1764764917.0531075,-11.58234,1.46496,-6.72966,0.93517827,-0.323058255,-0.20446725
1764764917.0531075,-11.58234,1.46496,-6.72966,0.93517827,-0.323058255,-0.20446725
1764764917.0531075,-11.58234,1.46496,-6.72966,0.93517827,-0.323058255,-0.20446725
1764764917.0531075,-11.58234,1.46496,-6.72966,0.93517827,-0.323058255,-0.20446725
1764764917.0531075,-11.58234,1.46496,-6.72966,0.93517827,-0.323058255,-0.20446725
1764764917.0531075,-11.58234,1.46496,-6.72966,0.93517827,-0.323058255,-0.20446725
1764764917.0531075,-11.03298,1.00716,-7.46214,0.93334722,-0.3198234,-0.2050776
1764764917.0531075,-11.03298,1.00716,-7.46214,0.93334722,-0.3198234,-0.2050776
1764764917.0531075,-11.03298,1.00716,-7.46214,0.93334722,-0.3198234,-0.2050776
1764764917.0541136,-11.03298,1.00716,-7.46214,0.93334722,-0.3198234,-0.2050776
1764764917.0541136,-11.03298,1.00716,-7.46214,0.93334722,-0.3198234,-0.2050776
1764764917.0541136,-11.03298,1.00716,-7.46214,0.93334722,-0.3198234,-0.2050776
1764764917.0541136,-11.03298,1.00716,-7.46214,0.93334722,-0.3198234,-0.2050776
1764764917.0541136,-11.03298,1.00716,-7.46214,0.93334722,-0.3198234,-0.2050776
1764764917.0541136,-11.03298,1.00716,-7.46214,0.93334722,-0.3198234,-0.2050776
1764764917.0541136,-11.03298,1.00716,-7.46214,0.93334722,-0.3198234,-0.2050776
1764764917.0541136,-10.13264,0.9003399999999999,-7.691039999999999,0.932919975,-0.31872477,-0.20593209
1764764917.0541136,-10.13264,0.9003399999999999,-7.691039999999999,0.932919975,-0.31872477,-0.20593209
1764764917.1009054,-10.13264,0.9003399999999999,-7.691039999999999,0.932919975,-0.31872477,-0.20593209
1764764917.1009054,-10.13264,0.9003399999999999,-7.691039999999999,0.932919975,-0.31872477,-0.20593209
1764764917.1021192,-10.13264,0.9003399999999999,-7.691039999999999,0.932919975,-0.31872477,-0.20593209
1764764917.1021192,-10.13264,0.9003399999999999,-7.691039999999999,0.932919975,-0.31872477,-0.20593209
1764764917.1021192,-10.13264,0.9003399999999999,-7.691039999999999,0.932919975,-0.31872477,-0.20593209
1764764917.1021192,-10.13264,0.9003399999999999,-7.691039999999999,0.932919975,-0.31872477,-0.20593209
1764764917.1021192,-10.13264,0.9003399999999999,-7.691039999999999,0.932919975,-0.31872477,-0.20593209
1764764917.1021192,-10.13264,0.9003399999999999,-7.691039999999999,0.932919975,-0.31872477,-0.20593209
1764764917.1021192,-8.6219,0.13734,-6.21082,0.934140675,-0.320372715,-0.20703072
1764764917.1021192,-8.6219,0.13734,-6.21082,0.934140675,-0.320372715,-0.20703072
1764764917.1021192,-8.6219,0.13734,-6.21082,0.934140675,-0.320372715,-0.20703072
1764764917.1021192,-8.6219,0.13734,-6.21082,0.934140675,-0.320372715,-0.20703072
1764764917.1021192,-8.6219,0.13734,-6.21082,0.934140675,-0.320372715,-0.20703072
1764764917.1021192,-8.6219,0.13734,-6.21082,0.934140675,-0.320372715,-0.20703072
1764764917.1021192,-8.6219,0.13734,-6.21082,0.934140675,-0.320372715,-0.20703072
1764764917.1021192,-8.6219,0.13734,-6.21082,0.934140675,-0.320372715,-0.20703072
1764764917.1021192,-8.6219,0.13734,-6.21082,0.934140675,-0.320372715,-0.20703072
1764764917.1021192,-8.6219,0.13734,-6.21082,0.934140675,-0.320372715,-0.20703072
1764764917.1021192,-7.59948,0.27468,-5.15788,0.938291055,-0.32141031,-0.20739693
1764764917.1021192,-7.59948,0.27468,-5.15788,0.938291055,-0.32141031,-0.20739693
1764764917.1021192,-7.59948,0.27468,-5.15788,0.938291055,-0.32141031,-0.20739693
1764764917.1021192,-7.59948,0.27468,-5.15788,0.938291055,-0.32141031,-0.20739693
1764764917.1457212,-7.59948,0.27468,-5.15788,0.938291055,-0.32141031,-0.20739693
1764764917.1457212,-7.59948,0.27468,-5.15788,0.938291055,-0.32141031,-0.20739693
1764764917.1457212,-7.59948,0.27468,-5.15788,0.938291055,-0.32141031,-0.20739693
1764764917.1457212,-7.59948,0.27468,-5.15788,0.938291055,-0.32141031,-0.20739693
1764764917.1457212,-7.59948,0.27468,-5.15788,0.938291055,-0.32141031,-0.20739693
1764764917.1457212,-7.59948,0.27468,-5.15788,0.938291055,-0.32141031,-0.20739693
1764764917.1457212,-5.82932,1.61756,-4.5017,0.94018314,-0.320006505,-0.20678658
1764764917.1457212,-5.82932,1.61756,-4.5017,0.94018314,-0.320006505,-0.20678658
1764764917.1457212,-5.82932,1.61756,-4.5017,0.94018314,-0.320006505,-0.20678658
1764764917.1457212,-5.82932,1.61756,-4.5017,0.94018314,-0.320006505,-0.20678658
1764764917.1457212,-5.82932,1.61756,-4.5017,0.94018314,-0.320006505,-0.20678658
1764764917.1457212,-5.82932,1.61756,-4.5017,0.94018314,-0.320006505,-0.20678658
1764764917.1457212,-5.82932,1.61756,-4.5017,0.94018314,-0.320006505,-0.20678658
1764764917.1457212,-5.82932,1.61756,-4.5017,0.94018314,-0.320006505,-0.20678658
1764764917.1467786,-5.82932,1.61756,-4.5017,0.94018314,-0.320006505,-0.20678658
1764764917.1467786,-5.82932,1.61756,-4.5017,0.94018314,-0.320006505,-0.20678658
1764764917.1467786,-5.508859999999999,2.19744,-2.80784,0.93957279,-0.31884684,-0.207091755
1764764917.1467786,-5.508859999999999,2.19744,-2.80784,0.93957279,-0.31884684,-0.207091755
1764764917.1467786,-5.508859999999999,2.19744,-2.80784,0.93957279,-0.31884684,-0.207091755
1764764917.1467786,-5.508859999999999,2.19744,-2.80784,0.93957279,-0.31884684,-0.207091755
1764764917.1467786,-5.508859999999999,2.19744,-2.80784,0.93957279,-0.31884684,-0.207091755
1764764917.1467786,-5.508859999999999,2.19744,-2.80784,0.93957279,-0.31884684,-0.207091755
1764764917.1959517,-5.508859999999999,2.19744,-2.80784,0.93957279,-0.31884684,-0.207091755
1764764917.1959517,-5.508859999999999,2.19744,-2.80784,0.93957279,-0.31884684,-0.207091755
1764764917.1959517,-5.508859999999999,2.19744,-2.80784,0.93957279,-0.31884684,-0.207091755
1764764917.1959517,-5.508859999999999,2.19744,-2.80784,0.93957279,-0.31884684,-0.207091755
1764764917.1959517,-5.73776,1.64808,-1.3734,0.93530034,-0.31628337,-0.20739693
1764764917.1959517,-5.73776,1.64808,-1.3734,0.93530034,-0.31628337,-0.20739693
1764764917.1959517,-5.73776,1.64808,-1.3734,0.93530034,-0.31628337,-0.20739693
1764764917.1959517,-5.73776,1.64808,-1.3734,0.93530034,-0.31628337,-0.20739693
1764764917.1959517,-5.73776,1.64808,-1.3734,0.93530034,-0.31628337,-0.20739693
1764764917.1959517,-5.73776,1.64808,-1.3734,0.93530034,-0.31628337,-0.20739693
1764764917.1959517,-5.73776,1.64808,-1.3734,0.93530034,-0.31628337,-0.20739693
1764764917.1959517,-5.73776,1.64808,-1.3734,0.93530034,-0.31628337,-0.20739693
1764764917.1959517,-5.73776,1.64808,-1.3734,0.93530034,-0.31628337,-0.20739693
1764764917.1959517,-5.73776,1.64808,-1.3734,0.93530034,-0.31628337,-0.20739693
1764764917.1959517,-7.263759999999999,0.763,-1.31236,0.932553765,-0.312316095,-0.208190385
1764764917.1959517,-7.263759999999999,0.763,-1.31236,0.932553765,-0.312316095,-0.208190385
1764764917.1959517,-7.263759999999999,0.763,-1.31236,0.932553765,-0.312316095,-0.208190385
1764764917.1959517,-7.263759999999999,0.763,-1.31236,0.932553765,-0.312316095,-0.208190385
1764764917.1959517,-7.263759999999999,0.763,-1.31236,0.932553765,-0.312316095,-0.208190385
1764764917.1959517,-7.263759999999999,0.763,-1.31236,0.932553765,-0.312316095,-0.208190385
1764764917.1959517,-7.263759999999999,0.763,-1.31236,0.932553765,-0.312316095,-0.208190385
1764764917.1959517,-7.263759999999999,0.763,-1.31236,0.932553765,-0.312316095,-0.208190385
1764764917.1959517,-7.263759999999999,0.763,-1.31236,0.932553765,-0.312316095,-0.208190385
1764764917.1959517,-7.263759999999999,0.763,-1.31236,0.932553765,-0.312316095,-0.208190385
1764764917.240272,-7.76734,-0.0762999999999999,-0.71722,0.93310308,-0.311583675,-0.20898384
1764764917.240272,-7.76734,-0.0762999999999999,-0.71722,0.93310308,-0.311583675,-0.20898384
1764764917.240272,-7.76734,-0.0762999999999999,-0.71722,0.93310308,-0.311583675,-0.20898384
1764764917.240272,-7.76734,-0.0762999999999999,-0.71722,0.93310308,-0.311583675,-0.20898384
1764764917.240272,-7.76734,-0.0762999999999999,-0.71722,0.93310308,-0.311583675,-0.20898384
1764764917.240272,-7.76734,-0.0762999999999999,-0.71722,0.93310308,-0.311583675,-0.20898384
1764764917.240272,-7.76734,-0.0762999999999999,-0.71722,0.93310308,-0.311583675,-0.20898384
1764764917.240272,-7.76734,-0.0762999999999999,-0.71722,0.93310308,-0.311583675,-0.20898384
1764764917.240272,-7.76734,-0.0762999999999999,-0.71722,0.93310308,-0.311583675,-0.20898384
1764764917.240272,-7.76734,-0.0762999999999999,-0.71722,0.93310308,-0.311583675,-0.20898384
1764764917.240272,-8.118319999999999,0.3509799999999999,-0.3509799999999999,0.93456792,-0.31286541,-0.208678665
1764764917.240272,-8.118319999999999,0.3509799999999999,-0.3509799999999999,0.93456792,-0.31286541,-0.208678665
1764764917.240272,-8.118319999999999,0.3509799999999999,-0.3509799999999999,0.93456792,-0.31286541,-0.208678665
1764764917.240272,-8.118319999999999,0.3509799999999999,-0.3509799999999999,0.93456792,-0.31286541,-0.208678665
1764764917.240272,-8.118319999999999,0.3509799999999999,-0.3509799999999999,0.93456792,-0.31286541,-0.208678665
1764764917.240272,-8.118319999999999,0.3509799999999999,-0.3509799999999999,0.93456792,-0.31286541,-0.208678665
1764764917.240272,-8.118319999999999,0.3509799999999999,-0.3509799999999999,0.93456792,-0.31286541,-0.208678665
1764764917.240272,-8.118319999999999,0.3509799999999999,-0.3509799999999999,0.93456792,-0.31286541,-0.208678665
1764764917.240272,-8.118319999999999,0.3509799999999999,-0.3509799999999999,0.93456792,-0.31286541,-0.208678665
1764764917.240272,-8.118319999999999,0.3509799999999999,-0.3509799999999999,0.93456792,-0.31286541,-0.208678665
1764764917.240272,-7.81312,0.2289,-1.4039199999999998,0.93578862,-0.312804375,-0.208190385
1764764917.240272,-7.81312,0.2289,-1.4039199999999998,0.93578862,-0.312804375,-0.208190385
1764764917.240272,-7.81312,0.2289,-1.4039199999999998,0.93578862,-0.312804375,-0.208190385
1764764917.240272,-7.81312,0.2289,-1.4039199999999998,0.93578862,-0.312804375,-0.208190385
1764764917.240272,-7.81312,0.2289,-1.4039199999999998,0.93578862,-0.312804375,-0.208190385
1764764917.240272,-7.81312,0.2289,-1.4039199999999998,0.93578862,-0.312804375,-0.208190385
1764764917.287572,-7.81312,0.2289,-1.4039199999999998,0.93578862,-0.312804375,-0.208190385
1764764917.287572,-7.81312,0.2289,-1.4039199999999998,0.93578862,-0.312804375,-0.208190385
1764764917.287572,-7.81312,0.2289,-1.4039199999999998,0.93578862,-0.312804375,-0.208190385
1764764917.287572,-7.81312,0.2289,-1.4039199999999998,0.93578862,-0.312804375,-0.208190385
1764764917.287572,-8.0115,0.13734,-3.49454,0.936093795,-0.31103436,-0.20861763
1764764917.287572,-8.0115,0.13734,-3.49454,0.936093795,-0.31103436,-0.20861763
1764764917.287572,-8.0115,0.13734,-3.49454,0.936093795,-0.31103436,-0.20861763
1764764917.2885802,-8.0115,0.13734,-3.49454,0.936093795,-0.31103436,-0.20861763
1764764917.2885802,-8.0115,0.13734,-3.49454,0.936093795,-0.31103436,-0.20861763
1764764917.2885802,-8.0115,0.13734,-3.49454,0.936093795,-0.31103436,-0.20861763
1764764917.2885802,-8.0115,0.13734,-3.49454,0.936093795,-0.31103436,-0.20861763
1764764917.2885802,-8.0115,0.13734,-3.49454,0.936093795,-0.31103436,-0.20861763
1764764917.2885802,-8.0115,0.13734,-3.49454,0.936093795,-0.31103436,-0.20861763
1764764917.2885802,-8.0115,0.13734,-3.49454,0.936093795,-0.31103436,-0.20861763
1764764917.2885802,-8.5456,-0.3051999999999999,-2.96044,0.93530034,-0.310240905,-0.210753855
1764764917.2885802,-8.5456,-0.3051999999999999,-2.96044,0.93530034,-0.310240905,-0.210753855
1764764917.2885802,-8.5456,-0.3051999999999999,-2.96044,0.93530034,-0.310240905,-0.210753855
1764764917.2885802,-8.5456,-0.3051999999999999,-2.96044,0.93530034,-0.310240905,-0.210753855
1764764917.2885802,-8.5456,-0.3051999999999999,-2.96044,0.93530034,-0.310240905,-0.210753855
1764764917.2885802,-8.5456,-0.3051999999999999,-2.96044,0.93530034,-0.310240905,-0.210753855
1764764917.2885802,-8.5456,-0.3051999999999999,-2.96044,0.93530034,-0.310240905,-0.210753855
1764764917.2885802,-8.5456,-0.3051999999999999,-2.96044,0.93530034,-0.310240905,-0.210753855
1764764917.334926,-8.5456,-0.3051999999999999,-2.96044,0.93530034,-0.310240905,-0.210753855
1764764917.334926,-8.5456,-0.3051999999999999,-2.96044,0.93530034,-0.310240905,-0.210753855
1764764917.334926,-9.65958,-0.6714399999999999,-3.37246,0.93591069,-0.30920331,-0.212829045
1764764917.334926,-9.65958,-0.6714399999999999,-3.37246,0.93591069,-0.30920331,-0.212829045
1764764917.334926,-9.65958,-0.6714399999999999,-3.37246,0.93591069,-0.30920331,-0.212829045
1764764917.334926,-9.65958,-0.6714399999999999,-3.37246,0.93591069,-0.30920331,-0.212829045
1764764917.334926,-9.65958,-0.6714399999999999,-3.37246,0.93591069,-0.30920331,-0.212829045
1764764917.334926,-9.65958,-0.6714399999999999,-3.37246,0.93591069,-0.30920331,-0.212829045
1764764917.334926,-9.65958,-0.6714399999999999,-3.37246,0.93591069,-0.30920331,-0.212829045
1764764917.334926,-9.65958,-0.6714399999999999,-3.37246,0.93591069,-0.30920331,-0.212829045
1764764917.334926,-9.65958,-0.6714399999999999,-3.37246,0.93591069,-0.30920331,-0.212829045
1764764917.334926,-9.65958,-0.6714399999999999,-3.37246,0.93591069,-0.30920331,-0.212829045
1764764917.3363037,-10.62096,-0.2289,-3.34194,0.938046915,-0.308531925,-0.21337836
1764764917.3363037,-10.62096,-0.2289,-3.34194,0.938046915,-0.308531925,-0.21337836
1764764917.3363037,-10.62096,-0.2289,-3.34194,0.938046915,-0.308531925,-0.21337836
1764764917.3363037,-10.62096,-0.2289,-3.34194,0.938046915,-0.308531925,-0.21337836
1764764917.3363037,-10.62096,-0.2289,-3.34194,0.938046915,-0.308531925,-0.21337836
1764764917.3363037,-10.62096,-0.2289,-3.34194,0.938046915,-0.308531925,-0.21337836
1764764917.3363037,-10.62096,-0.2289,-3.34194,0.938046915,-0.308531925,-0.21337836
1764764917.3363037,-10.62096,-0.2289,-3.34194,0.938046915,-0.308531925,-0.21337836
1764764917.3808594,-10.62096,-0.2289,-3.34194,0.938046915,-0.308531925,-0.21337836
1764764917.3808594,-10.62096,-0.2289,-3.34194,0.938046915,-0.308531925,-0.21337836
1764764917.3808594,-11.26188,0.763,-4.47118,0.93945072,-0.306945015,-0.214293885
1764764917.3808594,-11.26188,0.763,-4.47118,0.93945072,-0.306945015,-0.214293885
1764764917.3808594,-11.26188,0.763,-4.47118,0.93945072,-0.306945015,-0.214293885
1764764917.3808594,-11.26188,0.763,-4.47118,0.93945072,-0.306945015,-0.214293885
1764764917.3808594,-11.26188,0.763,-4.47118,0.93945072,-0.306945015,-0.214293885
1764764917.3808594,-11.26188,0.763,-4.47118,0.93945072,-0.306945015,-0.214293885
1764764917.3808594,-11.26188,0.763,-4.47118,0.93945072,-0.306945015,-0.214293885
1764764917.3808594,-11.26188,0.763,-4.47118,0.93945072,-0.306945015,-0.214293885
1764764917.3808594,-11.26188,0.763,-4.47118,0.93945072,-0.306945015,-0.214293885
1764764917.3808594,-11.26188,0.763,-4.47118,0.93945072,-0.306945015,-0.214293885
1764764917.3808594,-11.33818,0.763,-5.35626,0.93798588,-0.307311225,-0.21569769
1764764917.3808594,-11.33818,0.763,-5.35626,0.93798588,-0.307311225,-0.21569769
1764764917.3808594,-11.33818,0.763,-5.35626,0.93798588,-0.307311225,-0.21569769
1764764917.3808594,-11.33818,0.763,-5.35626,0.93798588,-0.307311225,-0.21569769
1764764917.3808594,-11.33818,0.763,-5.35626,0.93798588,-0.307311225,-0.21569769
1764764917.381879,-11.33818,0.763,-5.35626,0.93798588,-0.307311225,-0.21569769
1764764917.381879,-11.33818,0.763,-5.35626,0.93798588,-0.307311225,-0.21569769
1764764917.381879,-11.33818,0.763,-5.35626,0.93798588,-0.307311225,-0.21569769
1764764917.381879,-11.33818,0.763,-5.35626,0.93798588,-0.307311225,-0.21569769
1764764917.381879,-11.33818,0.763,-5.35626,0.93798588,-0.307311225,-0.21569769
1764764917.381879,-10.62096,1.08346,-5.753019999999999,0.937924845,-0.307799505,-0.215514585
1764764917.381879,-10.62096,1.08346,-5.753019999999999,0.937924845,-0.307799505,-0.215514585
1764764917.381879,-10.62096,1.08346,-5.753019999999999,0.937924845,-0.307799505,-0.215514585
1764764917.381879,-10.62096,1.08346,-5.753019999999999,0.937924845,-0.307799505,-0.215514585
1764764917.4252107,-10.62096,1.08346,-5.753019999999999,0.937924845,-0.307799505,-0.215514585
1764764917.4252107,-10.62096,1.08346,-5.753019999999999,0.937924845,-0.307799505,-0.215514585
1764764917.4252107,-10.62096,1.08346,-5.753019999999999,0.937924845,-0.307799505,-0.215514585
1764764917.4252107,-10.62096,1.08346,-5.753019999999999,0.937924845,-0.307799505,-0.215514585
1764764917.4252107,-10.62096,1.08346,-5.753019999999999,0.937924845,-0.307799505,-0.215514585
1764764917.4252107,-10.62096,1.08346,-5.753019999999999,0.937924845,-0.307799505,-0.215514585
1764764917.4262266,-9.29334,0.93086,-6.77544,0.938779335,-0.30834882,-0.216002865
1764764917.4262266,-9.29334,0.93086,-6.77544,0.938779335,-0.30834882,-0.216002865
1764764917.4262266,-9.29334,0.93086,-6.77544,0.938779335,-0.30834882,-0.216002865
1764764917.4262266,-9.29334,0.93086,-6.77544,0.938779335,-0.30834882,-0.216002865
1764764917.4262266,-9.29334,0.93086,-6.77544,0.938779335,-0.30834882,-0.216002865
1764764917.4262266,-9.29334,0.93086,-6.77544,0.938779335,-0.30834882,-0.216002865
1764764917.4262266,-9.29334,0.93086,-6.77544,0.938779335,-0.30834882,-0.216002865
1764764917.4262266,-9.29334,0.93086,-6.77544,0.938779335,-0.30834882,-0.216002865
1764764917.4262266,-9.29334,0.93086,-6.77544,0.938779335,-0.30834882,-0.216002865
1764764917.4262266,-9.29334,0.93086,-6.77544,0.938779335,-0.30834882,-0.216002865
1764764917.4262266,-8.56086,1.23606,-7.889419999999999,0.940000035,-0.308653995,-0.21630804
1764764917.4262266,-8.56086,1.23606,-7.889419999999999,0.940000035,-0.308653995,-0.21630804
1764764917.4262266,-8.56086,1.23606,-7.889419999999999,0.940000035,-0.308653995,-0.21630804
1764764917.4262266,-8.56086,1.23606,-7.889419999999999,0.940000035,-0.308653995,-0.21630804
1764764917.4262266,-8.56086,1.23606,-7.889419999999999,0.940000035,-0.308653995,-0.21630804
1764764917.4262266,-8.56086,1.23606,-7.889419999999999,0.940000035,-0.308653995,-0.21630804
1764764917.472782,-8.56086,1.23606,-7.889419999999999,0.940000035,-0.308653995,-0.21630804
1764764917.472782,-8.56086,1.23606,-7.889419999999999,0.940000035,-0.308653995,-0.21630804
1764764917.472782,-8.56086,1.23606,-7.889419999999999,0.940000035,-0.308653995,-0.21630804
1764764917.472782,-8.56086,1.23606,-7.889419999999999,0.940000035,-0.308653995,-0.21630804
1764764917.472782,-7.41636,0.59514,-6.77544,0.93835209,-0.308653995,-0.21801702
1764764917.472782,-7.41636,0.59514,-6.77544,0.93835209,-0.308653995,-0.21801702
1764764917.472782,-7.41636,0.59514,-6.77544,0.93835209,-0.308653995,-0.21801702
1764764917.472782,-7.41636,0.59514,-6.77544,0.93835209,-0.308653995,-0.21801702
1764764917.472782,-7.41636,0.59514,-6.77544,0.93835209,-0.308653995,-0.21801702
1764764917.472782,-7.41636,0.59514,-6.77544,0.93835209,-0.308653995,-0.21801702
1764764917.472782,-7.41636,0.59514,-6.77544,0.93835209,-0.308653995,-0.21801702
1764764917.472782,-7.41636,0.59514,-6.77544,0.93835209,-0.308653995,-0.21801702
1764764917.472782,-7.41636,0.59514,-6.77544,0.93835209,-0.308653995,-0.21801702
1764764917.472782,-7.41636,0.59514,-6.77544,0.93835209,-0.308653995,-0.21801702
1764764917.473801,-7.3248,-0.3357199999999999,-3.69292,0.935117235,-0.30920331,-0.21948186
1764764917.473801,-7.3248,-0.3357199999999999,-3.69292,0.935117235,-0.30920331,-0.21948186
1764764917.473801,-7.3248,-0.3357199999999999,-3.69292,0.935117235,-0.30920331,-0.21948186
1764764917.473801,-7.3248,-0.3357199999999999,-3.69292,0.935117235,-0.30920331,-0.21948186
1764764917.473801,-7.3248,-0.3357199999999999,-3.69292,0.935117235,-0.30920331,-0.21948186
1764764917.473801,-7.3248,-0.3357199999999999,-3.69292,0.935117235,-0.30920331,-0.21948186
1764764917.473801,-7.3248,-0.3357199999999999,-3.69292,0.935117235,-0.30920331,-0.21948186
1764764917.473801,-7.3248,-0.3357199999999999,-3.69292,0.935117235,-0.30920331,-0.21948186
1764764917.5214696,-7.3248,-0.3357199999999999,-3.69292,0.935117235,-0.30920331,-0.21948186
1764764917.5214696,-7.3248,-0.3357199999999999,-3.69292,0.935117235,-0.30920331,-0.21948186
1764764917.5214696,-8.20988,-1.61756,-2.18218,0.934628955,-0.306212595,-0.22143498
1764764917.5214696,-8.20988,-1.61756,-2.18218,0.934628955,-0.306212595,-0.22143498
1764764917.5214696,-8.20988,-1.61756,-2.18218,0.934628955,-0.306212595,-0.22143498
1764764917.5214696,-8.20988,-1.61756,-2.18218,0.934628955,-0.306212595,-0.22143498
1764764917.5214696,-8.20988,-1.61756,-2.18218,0.934628955,-0.306212595,-0.22143498
1764764917.5214696,-8.20988,-1.61756,-2.18218,0.934628955,-0.306212595,-0.22143498
1764764917.5214696,-8.20988,-1.61756,-2.18218,0.934628955,-0.306212595,-0.22143498
1764764917.5214696,-8.20988,-1.61756,-2.18218,0.934628955,-0.306212595,-0.22143498
1764764917.5214696,-8.20988,-1.61756,-2.18218,0.934628955,-0.306212595,-0.22143498
1764764917.5214696,-8.20988,-1.61756,-2.18218,0.934628955,-0.306212595,-0.22143498
1764764917.5214696,-9.90374,-0.93086,-0.97664,0.936460005,-0.30090255,-0.22119084
1764764917.5214696,-9.90374,-0.93086,-0.97664,0.936460005,-0.30090255,-0.22119084
1764764917.5214696,-9.90374,-0.93086,-0.97664,0.936460005,-0.30090255,-0.22119084
1764764917.5214696,-9.90374,-0.93086,-0.97664,0.936460005,-0.30090255,-0.22119084
1764764917.5214696,-9.90374,-0.93086,-0.97664,0.936460005,-0.30090255,-0.22119084
1764764917.5214696,-9.90374,-0.93086,-0.97664,0.936460005,-0.30090255,-0.22119084
1764764917.5214696,-9.90374,-0.93086,-0.97664,0.936460005,-0.30090255,-0.22119084
1764764917.5214696,-9.90374,-0.93086,-0.97664,0.936460005,-0.30090255,-0.22119084
1764764917.5214696,-9.90374,-0.93086,-0.97664,0.936460005,-0.30090255,-0.22119084
1764764917.5214696,-9.90374,-0.93086,-0.97664,0.936460005,-0.30090255,-0.22119084
1764764917.569216,-10.89564,0.56462,-2.19744,0.941098665,-0.29736252,-0.22033635
1764764917.569216,-10.89564,0.56462,-2.19744,0.941098665,-0.29736252,-0.22033635
1764764917.569216,-10.89564,0.56462,-2.19744,0.941098665,-0.29736252,-0.22033635
1764764917.569216,-10.89564,0.56462,-2.19744,0.941098665,-0.29736252,-0.22033635
1764764917.569216,-10.89564,0.56462,-2.19744,0.941098665,-0.29736252,-0.22033635
1764764917.569216,-10.89564,0.56462,-2.19744,0.941098665,-0.29736252,-0.22033635
1764764917.569216,-10.89564,0.56462,-2.19744,0.941098665,-0.29736252,-0.22033635
1764764917.569216,-10.89564,0.56462,-2.19744,0.941098665,-0.29736252,-0.22033635
1764764917.569216,-10.89564,0.56462,-2.19744,0.941098665,-0.29736252,-0.22033635
1764764917.569216,-10.89564,0.56462,-2.19744,0.941098665,-0.29736252,-0.22033635
1764764917.569216,-10.59044,2.10588,-4.31858,0.945126975,-0.297057345,-0.21960393
1764764917.569216,-10.59044,2.10588,-4.31858,0.945126975,-0.297057345,-0.21960393
1764764917.569216,-10.59044,2.10588,-4.31858,0.945126975,-0.297057345,-0.21960393
1764764917.569216,-10.59044,2.10588,-4.31858,0.945126975,-0.297057345,-0.21960393
1764764917.569216,-10.59044,2.10588,-4.31858,0.945126975,-0.297057345,-0.21960393
1764764917.569216,-10.59044,2.10588,-4.31858,0.945126975,-0.297057345,-0.21960393
1764764917.5700216,-10.59044,2.10588,-4.31858,0.945126975,-0.297057345,-0.21960393
1764764917.5700216,-10.59044,2.10588,-4.31858,0.945126975,-0.297057345,-0.21960393
1764764917.5700216,-10.59044,2.10588,-4.31858,0.945126975,-0.297057345,-0.21960393
1764764917.5700216,-10.59044,2.10588,-4.31858,0.945126975,-0.297057345,-0.21960393
1764764917.5700216,-9.85796,3.69292,-6.04296,0.946958025,-0.29894943,-0.21789495
1764764917.5700216,-9.85796,3.69292,-6.04296,0.946958025,-0.29894943,-0.21789495
1764764917.5700216,-9.85796,3.69292,-6.04296,0.946958025,-0.29894943,-0.21789495
1764764917.5700216,-9.85796,3.69292,-6.04296,0.946958025,-0.29894943,-0.21789495
1764764917.5700216,-9.85796,3.69292,-6.04296,0.946958025,-0.29894943,-0.21789495
1764764917.5700216,-9.85796,3.69292,-6.04296,0.946958025,-0.29894943,-0.21789495
1764764917.614583,-9.85796,3.69292,-6.04296,0.946958025,-0.29894943,-0.21789495
1764764917.614583,-9.85796,3.69292,-6.04296,0.946958025,-0.29894943,-0.21789495
1764764917.614583,-9.85796,3.69292,-6.04296,0.946958025,-0.29894943,-0.21789495
1764764917.614583,-9.85796,3.69292,-6.04296,0.946958025,-0.29894943,-0.21789495
1764764917.614583,-8.8508,4.8832,-8.43878,0.94860597,-0.29882736,-0.217345635
1764764917.614583,-8.8508,4.8832,-8.43878,0.94860597,-0.29882736,-0.217345635
1764764917.614583,-8.8508,4.8832,-8.43878,0.94860597,-0.29882736,-0.217345635
1764764917.614583,-8.8508,4.8832,-8.43878,0.94860597,-0.29882736,-0.217345635
1764764917.614583,-8.8508,4.8832,-8.43878,0.94860597,-0.29882736,-0.217345635
1764764917.614583,-8.8508,4.8832,-8.43878,0.94860597,-0.29882736,-0.217345635
1764764917.614583,-8.8508,4.8832,-8.43878,0.94860597,-0.29882736,-0.217345635
1764764917.614583,-8.8508,4.8832,-8.43878,0.94860597,-0.29882736,-0.217345635
1764764917.614583,-8.8508,4.8832,-8.43878,0.94860597,-0.29882736,-0.217345635
1764764917.614583,-8.8508,4.8832,-8.43878,0.94860597,-0.29882736,-0.217345635
1764764917.614583,-8.37774,5.92088,-10.34628,0.94823976,-0.29577561,-0.21704046
1764764917.614583,-8.37774,5.92088,-10.34628,0.94823976,-0.29577561,-0.21704046
1764764917.614583,-8.37774,5.92088,-10.34628,0.94823976,-0.29577561,-0.21704046
1764764917.614583,-8.37774,5.92088,-10.34628,0.94823976,-0.29577561,-0.21704046
1764764917.614583,-8.37774,5.92088,-10.34628,0.94823976,-0.29577561,-0.21704046
1764764917.614583,-8.37774,5.92088,-10.34628,0.94823976,-0.29577561,-0.21704046
1764764917.614583,-8.37774,5.92088,-10.34628,0.94823976,-0.29577561,-0.21704046
1764764917.614583,-8.37774,5.92088,-10.34628,0.94823976,-0.29577561,-0.21704046
1764764917.6156018,-8.37774,5.92088,-10.34628,0.94823976,-0.29577561,-0.21704046
1764764917.6156018,-8.37774,5.92088,-10.34628,0.94823976,-0.29577561,-0.21704046
1764764917.6599412,-7.996239999999999,6.36342,-12.10118,0.945371115,-0.29125902,-0.217711845
1764764917.6630564,-7.996239999999999,6.36342,-12.10118,0.945371115,-0.29125902,-0.217711845
1764764917.6630564,-7.996239999999999,6.36342,-12.10118,0.945371115,-0.29125902,-0.217711845
1764764917.6630564,-7.996239999999999,6.36342,-12.10118,0.945371115,-0.29125902,-0.217711845
1764764917.6630564,-7.996239999999999,6.36342,-12.10118,0.945371115,-0.29125902,-0.217711845
1764764917.6630564,-7.996239999999999,6.36342,-12.10118,0.945371115,-0.29125902,-0.217711845
1764764917.6630564,-7.996239999999999,6.36342,-12.10118,0.945371115,-0.29125902,-0.217711845
1764764917.6630564,-7.996239999999999,6.36342,-12.10118,0.945371115,-0.29125902,-0.217711845
1764764917.6630564,-7.996239999999999,6.36342,-12.10118,0.945371115,-0.29125902,-0.217711845
1764764917.6630564,-7.996239999999999,6.36342,-12.10118,0.945371115,-0.29125902,-0.217711845
1764764917.6630564,-7.889419999999999,6.57706,-12.95574,0.94433352,-0.28771899,-0.217467705
1764764917.6630564,-7.889419999999999,6.57706,-12.95574,0.94433352,-0.28771899,-0.217467705
1764764917.6630564,-7.889419999999999,6.57706,-12.95574,0.94433352,-0.28771899,-0.217467705
1764764917.6642473,-7.889419999999999,6.57706,-12.95574,0.94433352,-0.28771899,-0.217467705
1764764917.6642473,-7.889419999999999,6.57706,-12.95574,0.94433352,-0.28771899,-0.217467705
1764764917.6642473,-7.889419999999999,6.57706,-12.95574,0.94433352,-0.28771899,-0.217467705
1764764917.6642473,-7.889419999999999,6.57706,-12.95574,0.94433352,-0.28771899,-0.217467705
1764764917.6642473,-7.889419999999999,6.57706,-12.95574,0.94433352,-0.28771899,-0.217467705
1764764917.6642473,-7.889419999999999,6.57706,-12.95574,0.94433352,-0.28771899,-0.217467705
1764764917.6642473,-7.889419999999999,6.57706,-12.95574,0.94433352,-0.28771899,-0.217467705
1764764917.6642473,-7.477399999999999,7.15694,-12.37586,0.944028345,-0.286071045,-0.217955985
1764764917.6647546,-7.477399999999999,7.15694,-12.37586,0.944028345,-0.286071045,-0.217955985
1764764917.707101,-7.477399999999999,7.15694,-12.37586,0.944028345,-0.286071045,-0.217955985
1764764917.707101,-7.477399999999999,7.15694,-12.37586,0.944028345,-0.286071045,-0.217955985
1764764917.707101,-7.477399999999999,7.15694,-12.37586,0.944028345,-0.286071045,-0.217955985
1764764917.707101,-7.477399999999999,7.15694,-12.37586,0.944028345,-0.286071045,-0.217955985
1764764917.707101,-7.477399999999999,7.15694,-12.37586,0.944028345,-0.286071045,-0.217955985
1764764917.707101,-7.477399999999999,7.15694,-12.37586,0.944028345,-0.286071045,-0.217955985
1764764917.707101,-7.477399999999999,7.15694,-12.37586,0.944028345,-0.286071045,-0.217955985
1764764917.707101,-7.477399999999999,7.15694,-12.37586,0.944028345,-0.286071045,-0.217955985
1764764917.707101,-6.790699999999999,7.05012,-11.38396,0.9448218,-0.284728275,-0.217467705
1764764917.707101,-6.790699999999999,7.05012,-11.38396,0.9448218,-0.284728275,-0.217467705
1764764917.707101,-6.790699999999999,7.05012,-11.38396,0.9448218,-0.284728275,-0.217467705
1764764917.707101,-6.790699999999999,7.05012,-11.38396,0.9448218,-0.284728275,-0.217467705
1764764917.7081084,-6.790699999999999,7.05012,-11.38396,0.9448218,-0.284728275,-0.217467705
1764764917.7081084,-6.790699999999999,7.05012,-11.38396,0.9448218,-0.284728275,-0.217467705
1764764917.7081084,-6.790699999999999,7.05012,-11.38396,0.9448218,-0.284728275,-0.217467705
1764764917.7081084,-6.790699999999999,7.05012,-11.38396,0.9448218,-0.284728275,-0.217467705
1764764917.7081084,-6.790699999999999,7.05012,-11.38396,0.9448218,-0.284728275,-0.217467705
1764764917.7081084,-6.790699999999999,7.05012,-11.38396,0.9448218,-0.284728275,-0.217467705
1764764917.7081084,-6.958559999999999,7.87416,-11.10928,0.946469745,-0.2832024,-0.216247005
1764764917.7081084,-6.958559999999999,7.87416,-11.10928,0.946469745,-0.2832024,-0.216247005
1764764917.7081084,-6.958559999999999,7.87416,-11.10928,0.946469745,-0.2832024,-0.216247005
1764764917.7081084,-6.958559999999999,7.87416,-11.10928,0.946469745,-0.2832024,-0.216247005
1764764917.7081084,-6.958559999999999,7.87416,-11.10928,0.946469745,-0.2832024,-0.216247005
1764764917.7081084,-6.958559999999999,7.87416,-11.10928,0.946469745,-0.2832024,-0.216247005
1764764917.7081084,-6.958559999999999,7.87416,-11.10928,0.946469745,-0.2832024,-0.216247005
1764764917.7081084,-6.958559999999999,7.87416,-11.10928,0.946469745,-0.2832024,-0.216247005
1764764917.7513497,-6.958559999999999,7.87416,-11.10928,0.946469745,-0.2832024,-0.216247005
1764764917.7513497,-6.958559999999999,7.87416,-11.10928,0.946469745,-0.2832024,-0.216247005
1764764917.7513497,-5.8751,7.828379999999999,-10.6057,0.948422865,-0.281920665,-0.21472113
1764764917.7513497,-5.8751,7.828379999999999,-10.6057,0.948422865,-0.281920665,-0.21472113
1764764917.7513497,-5.8751,7.828379999999999,-10.6057,0.948422865,-0.281920665,-0.21472113
1764764917.7513497,-5.8751,7.828379999999999,-10.6057,0.948422865,-0.281920665,-0.21472113
1764764917.7513497,-5.8751,7.828379999999999,-10.6057,0.948422865,-0.281920665,-0.21472113
1764764917.7513497,-5.8751,7.828379999999999,-10.6057,0.948422865,-0.281920665,-0.21472113
1764764917.7513497,-5.8751,7.828379999999999,-10.6057,0.948422865,-0.281920665,-0.21472113
1764764917.7513497,-5.8751,7.828379999999999,-10.6057,0.948422865,-0.281920665,-0.21472113
1764764917.7513497,-5.8751,7.828379999999999,-10.6057,0.948422865,-0.281920665,-0.21472113
1764764917.7513497,-5.8751,7.828379999999999,-10.6057,0.948422865,-0.281920665,-0.21472113
1764764917.7513497,-5.9514,6.683879999999999,-10.69726,0.94762941,-0.27819753,-0.21447699
1764764917.7513497,-5.9514,6.683879999999999,-10.69726,0.94762941,-0.27819753,-0.21447699
1764764917.7513497,-5.9514,6.683879999999999,-10.69726,0.94762941,-0.27819753,-0.21447699
1764764917.7530203,-5.9514,6.683879999999999,-10.69726,0.94762941,-0.27819753,-0.21447699
1764764917.7530203,-5.9514,6.683879999999999,-10.69726,0.94762941,-0.27819753,-0.21447699
1764764917.7530203,-5.9514,6.683879999999999,-10.69726,0.94762941,-0.27819753,-0.21447699
1764764917.7530203,-5.9514,6.683879999999999,-10.69726,0.94762941,-0.27819753,-0.21447699
1764764917.7530203,-5.9514,6.683879999999999,-10.69726,0.94762941,-0.27819753,-0.21447699
1764764917.7530203,-5.9514,6.683879999999999,-10.69726,0.94762941,-0.27819753,-0.21447699
1764764917.7530203,-5.9514,6.683879999999999,-10.69726,0.94762941,-0.27819753,-0.21447699
1764764917.799317,-5.8751,6.409199999999999,-10.682,0.948300795,-0.27404715,-0.21435492
1764764917.799317,-5.8751,6.409199999999999,-10.682,0.948300795,-0.27404715,-0.21435492
1764764917.7998345,-5.8751,6.409199999999999,-10.682,0.948300795,-0.27404715,-0.21435492
1764764917.7998345,-5.8751,6.409199999999999,-10.682,0.948300795,-0.27404715,-0.21435492
1764764917.7998345,-5.8751,6.409199999999999,-10.682,0.948300795,-0.27404715,-0.21435492
1764764917.7998345,-5.8751,6.409199999999999,-10.682,0.948300795,-0.27404715,-0.21435492
1764764917.7998345,-5.8751,6.409199999999999,-10.682,0.948300795,-0.27404715,-0.21435492
1764764917.7998345,-5.8751,6.409199999999999,-10.682,0.948300795,-0.27404715,-0.21435492
1764764917.7998345,-5.8751,6.409199999999999,-10.682,0.948300795,-0.27404715,-0.21435492
1764764917.7998345,-5.8751,6.409199999999999,-10.682,0.948300795,-0.27404715,-0.21435492
1764764917.7998345,-5.60042,6.89752,-10.42258,0.952084965,-0.27392508,-0.21313422
1764764917.7998345,-5.60042,6.89752,-10.42258,0.952084965,-0.27392508,-0.21313422
1764764917.7998345,-5.60042,6.89752,-10.42258,0.952084965,-0.27392508,-0.21313422
1764764917.7998345,-5.60042,6.89752,-10.42258,0.952084965,-0.27392508,-0.21313422
1764764917.8003583,-5.60042,6.89752,-10.42258,0.952084965,-0.27392508,-0.21313422
1764764917.8003583,-5.60042,6.89752,-10.42258,0.952084965,-0.27392508,-0.21313422
1764764917.8003583,-5.60042,6.89752,-10.42258,0.952084965,-0.27392508,-0.21313422
1764764917.8003583,-5.60042,6.89752,-10.42258,0.952084965,-0.27392508,-0.21313422
1764764917.8003583,-5.60042,6.89752,-10.42258,0.952084965,-0.27392508,-0.21313422
1764764917.8003583,-5.60042,6.89752,-10.42258,0.952084965,-0.27392508,-0.21313422
1764764917.8003583,-4.66956,8.255659999999999,-9.82744,0.95641845,-0.27307059,-0.211486275
1764764917.8003583,-4.66956,8.255659999999999,-9.82744,0.95641845,-0.27307059,-0.211486275
1764764917.8468895,-4.66956,8.255659999999999,-9.82744,0.95641845,-0.27307059,-0.211486275
1764764917.8468895,-4.66956,8.255659999999999,-9.82744,0.95641845,-0.27307059,-0.211486275
1764764917.8468895,-4.66956,8.255659999999999,-9.82744,0.95641845,-0.27307059,-0.211486275
1764764917.8468895,-4.66956,8.255659999999999,-9.82744,0.95641845,-0.27307059,-0.211486275
