Timestamp,GyroX,GyroY,GyroZ,AccX,AccY,AccZ
1764762731.7352753,-5.52412,0.6714399999999999,0.3051999999999999,-0.91845468,0.3527823,-0.107238495
1764762731.7352753,-5.52412,0.6714399999999999,0.3051999999999999,-0.91845468,0.3527823,-0.107238495
1764762731.7352753,-4.99002,0.9003399999999999,0.44254,-0.91845468,0.351256425,-0.106628145
1764762731.7352753,-4.99002,0.9003399999999999,0.44254,-0.91845468,0.351256425,-0.106628145
1764762731.7352753,-4.99002,0.9003399999999999,0.44254,-0.91845468,0.351256425,-0.106628145
1764762731.7352753,-4.99002,0.9003399999999999,0.44254,-0.91845468,0.351256425,-0.106628145
1764762731.7352753,-4.99002,0.9003399999999999,0.44254,-0.91845468,0.351256425,-0.106628145
1764762731.7352753,-4.99002,0.9003399999999999,0.44254,-0.91845468,0.351256425,-0.106628145
1764762731.7352753,-4.99002,0.9003399999999999,0.44254,-0.91845468,0.351256425,-0.106628145
1764762731.7352753,-4.99002,0.9003399999999999,0.44254,-0.91845468,0.351256425,-0.106628145
1764762731.7352753,-4.99002,0.9003399999999999,0.44254,-0.91845468,0.351256425,-0.106628145
1764762731.7352753,-4.99002,0.9003399999999999,0.44254,-0.91845468,0.351256425,-0.106628145
1764762731.7352753,-5.1884,-0.04578,0.06104,-0.91930917,0.35143953,-0.106506075
1764762731.7352753,-5.1884,-0.04578,0.06104,-0.91930917,0.35143953,-0.106506075
1764762731.7352753,-5.1884,-0.04578,0.06104,-0.91930917,0.35143953,-0.106506075
1764762731.7352753,-5.1884,-0.04578,0.06104,-0.91930917,0.35143953,-0.106506075
1764762731.7352753,-5.1884,-0.04578,0.06104,-0.91930917,0.35143953,-0.106506075
1764762731.7352753,-5.1884,-0.04578,0.06104,-0.91930917,0.35143953,-0.106506075
1764762731.7352753,-5.1884,-0.04578,0.06104,-0.91930917,0.35143953,-0.106506075
1764762731.7352753,-5.1884,-0.04578,0.06104,-0.91930917,0.35143953,-0.106506075
1764762731.7352753,-5.1884,-0.04578,0.06104,-0.91930917,0.35143953,-0.106506075
1764762731.7352753,-5.1884,-0.04578,0.06104,-0.91930917,0.35143953,-0.106506075
1764762731.7830637,-5.2647,0.44254,0.21364,-0.91882089,0.351134355,-0.10693332
1764762731.7830637,-5.2647,0.44254,0.21364,-0.91882089,0.351134355,-0.10693332
1764762731.7830637,-5.2647,0.44254,0.21364,-0.91882089,0.351134355,-0.10693332
1764762731.7830637,-5.2647,0.44254,0.21364,-0.91882089,0.351134355,-0.10693332
1764762731.7830637,-5.2647,0.44254,0.21364,-0.91882089,0.351134355,-0.10693332
1764762731.7830637,-5.2647,0.44254,0.21364,-0.91882089,0.351134355,-0.10693332
1764762731.7830637,-5.2647,0.44254,0.21364,-0.91882089,0.351134355,-0.10693332
1764762731.7830637,-5.2647,0.44254,0.21364,-0.91882089,0.351134355,-0.10693332
1764762731.7830637,-5.2647,0.44254,0.21364,-0.91882089,0.351134355,-0.10693332
1764762731.7830637,-5.2647,0.44254,0.21364,-0.91882089,0.351134355,-0.10693332
1764762731.7830637,-6.01244,-0.10682,-0.0762999999999999,-0.918759855,0.349791585,-0.10681125
1764762731.7830637,-6.01244,-0.10682,-0.0762999999999999,-0.918759855,0.349791585,-0.10681125
1764762731.7830637,-6.01244,-0.10682,-0.0762999999999999,-0.918759855,0.349791585,-0.10681125
1764762731.7830637,-6.01244,-0.10682,-0.0762999999999999,-0.918759855,0.349791585,-0.10681125
1764762731.7830637,-6.01244,-0.10682,-0.0762999999999999,-0.918759855,0.349791585,-0.10681125
1764762731.7830637,-6.01244,-0.10682,-0.0762999999999999,-0.918759855,0.349791585,-0.10681125
1764762731.7830637,-6.01244,-0.10682,-0.0762999999999999,-0.918759855,0.349791585,-0.10681125
1764762731.7830637,-6.01244,-0.10682,-0.0762999999999999,-0.918759855,0.349791585,-0.10681125
1764762731.7830637,-6.01244,-0.10682,-0.0762999999999999,-0.918759855,0.349791585,-0.10681125
1764762731.7830637,-6.01244,-0.10682,-0.0762999999999999,-0.918759855,0.349791585,-0.10681125
1764762731.7830637,-5.5699,-0.41202,-0.73248,-0.919614345,0.347350185,-0.10485813
1764762731.7830637,-5.5699,-0.41202,-0.73248,-0.919614345,0.347350185,-0.10485813
1764762731.8301616,-5.5699,-0.41202,-0.73248,-0.919614345,0.347350185,-0.10485813
1764762731.8301616,-5.5699,-0.41202,-0.73248,-0.919614345,0.347350185,-0.10485813
1764762731.8301616,-5.5699,-0.41202,-0.73248,-0.919614345,0.347350185,-0.10485813
1764762731.8301616,-5.5699,-0.41202,-0.73248,-0.919614345,0.347350185,-0.10485813
1764762731.8301616,-5.5699,-0.41202,-0.73248,-0.919614345,0.347350185,-0.10485813
1764762731.8301616,-5.5699,-0.41202,-0.73248,-0.919614345,0.347350185,-0.10485813
1764762731.8301616,-5.5699,-0.41202,-0.73248,-0.919614345,0.347350185,-0.10485813
1764762731.8301616,-5.5699,-0.41202,-0.73248,-0.919614345,0.347350185,-0.10485813
1764762731.8301616,-3.41824,-0.57988,-1.26658,-0.92089608,0.3466788,-0.103454325
1764762731.8301616,-3.41824,-0.57988,-1.26658,-0.92089608,0.3466788,-0.103454325
1764762731.8301616,-3.41824,-0.57988,-1.26658,-0.92089608,0.3466788,-0.103454325
1764762731.8301616,-3.41824,-0.57988,-1.26658,-0.92089608,0.3466788,-0.103454325
1764762731.8301616,-3.41824,-0.57988,-1.26658,-0.92089608,0.3466788,-0.103454325
1764762731.8301616,-3.41824,-0.57988,-1.26658,-0.92089608,0.3466788,-0.103454325
1764762731.8301616,-3.41824,-0.57988,-1.26658,-0.92089608,0.3466788,-0.103454325
1764762731.8301616,-3.41824,-0.57988,-1.26658,-0.92089608,0.3466788,-0.103454325
1764762731.8301616,-3.41824,-0.57988,-1.26658,-0.92089608,0.3466788,-0.103454325
1764762731.8301616,-3.41824,-0.57988,-1.26658,-0.92089608,0.3466788,-0.103454325
1764762731.8301616,-2.42634,-0.9919,-1.12924,-0.922055745,0.348570885,-0.103088115
1764762731.8301616,-2.42634,-0.9919,-1.12924,-0.922055745,0.348570885,-0.103088115
1764762731.8301616,-2.42634,-0.9919,-1.12924,-0.922055745,0.348570885,-0.103088115
1764762731.8301616,-2.42634,-0.9919,-1.12924,-0.922055745,0.348570885,-0.103088115
1764762731.8301616,-2.42634,-0.9919,-1.12924,-0.922055745,0.348570885,-0.103088115
1764762731.8312607,-2.42634,-0.9919,-1.12924,-0.922055745,0.348570885,-0.103088115
1764762731.873834,-2.42634,-0.9919,-1.12924,-0.922055745,0.348570885,-0.103088115
1764762731.873834,-2.42634,-0.9919,-1.12924,-0.922055745,0.348570885,-0.103088115
1764762731.873834,-2.42634,-0.9919,-1.12924,-0.922055745,0.348570885,-0.103088115
1764762731.873834,-2.42634,-0.9919,-1.12924,-0.922055745,0.348570885,-0.103088115
1764762731.873834,-2.41108,-0.74774,-0.44254,-0.921201255,0.35180574,-0.104797095
1764762731.873834,-2.41108,-0.74774,-0.44254,-0.921201255,0.35180574,-0.104797095
1764762731.873834,-2.41108,-0.74774,-0.44254,-0.921201255,0.35180574,-0.104797095
1764762731.873834,-2.41108,-0.74774,-0.44254,-0.921201255,0.35180574,-0.104797095
1764762731.873834,-2.41108,-0.74774,-0.44254,-0.921201255,0.35180574,-0.104797095
1764762731.873834,-2.41108,-0.74774,-0.44254,-0.921201255,0.35180574,-0.104797095
1764762731.873834,-2.41108,-0.74774,-0.44254,-0.921201255,0.35180574,-0.104797095
1764762731.873834,-2.41108,-0.74774,-0.44254,-0.921201255,0.35180574,-0.104797095
1764762731.873834,-2.41108,-0.74774,-0.44254,-0.921201255,0.35180574,-0.104797095
1764762731.873834,-2.41108,-0.74774,-0.44254,-0.921201255,0.35180574,-0.104797095
1764762731.873834,-3.37246,-0.50358,-0.24416,-0.920835045,0.35546784,-0.10571262
1764762731.873834,-3.37246,-0.50358,-0.24416,-0.920835045,0.35546784,-0.10571262
1764762731.873834,-3.37246,-0.50358,-0.24416,-0.920835045,0.35546784,-0.10571262
1764762731.873834,-3.37246,-0.50358,-0.24416,-0.920835045,0.35546784,-0.10571262
1764762731.873834,-3.37246,-0.50358,-0.24416,-0.920835045,0.35546784,-0.10571262
1764762731.873834,-3.37246,-0.50358,-0.24416,-0.920835045,0.35546784,-0.10571262
1764762731.873834,-3.37246,-0.50358,-0.24416,-0.920835045,0.35546784,-0.10571262
1764762731.873834,-3.37246,-0.50358,-0.24416,-0.920835045,0.35546784,-0.10571262
1764762731.919834,-3.37246,-0.50358,-0.24416,-0.920835045,0.35546784,-0.10571262
1764762731.9203453,-3.37246,-0.50358,-0.24416,-0.920835045,0.35546784,-0.10571262
1764762731.9203453,-4.21176,-0.06104,0.13734,-0.920835045,0.35754303,-0.105529515
1764762731.9203453,-4.21176,-0.06104,0.13734,-0.920835045,0.35754303,-0.105529515
1764762731.9203453,-4.21176,-0.06104,0.13734,-0.920835045,0.35754303,-0.105529515
1764762731.9203453,-4.21176,-0.06104,0.13734,-0.920835045,0.35754303,-0.105529515
1764762731.9203453,-4.21176,-0.06104,0.13734,-0.920835045,0.35754303,-0.105529515
1764762731.9203453,-4.21176,-0.06104,0.13734,-0.920835045,0.35754303,-0.105529515
1764762731.9203453,-4.21176,-0.06104,0.13734,-0.920835045,0.35754303,-0.105529515
1764762731.9203453,-4.21176,-0.06104,0.13734,-0.920835045,0.35754303,-0.105529515
1764762731.9203453,-4.21176,-0.06104,0.13734,-0.920835045,0.35754303,-0.105529515
1764762731.9203453,-4.21176,-0.06104,0.13734,-0.920835045,0.35754303,-0.105529515
1764762731.9203453,-6.22608,0.57988,0.10682,-0.919980555,0.3588858,-0.105041235
1764762731.9203453,-6.22608,0.57988,0.10682,-0.919980555,0.3588858,-0.105041235
1764762731.9203453,-6.22608,0.57988,0.10682,-0.919980555,0.3588858,-0.105041235
1764762731.9203453,-6.22608,0.57988,0.10682,-0.919980555,0.3588858,-0.105041235
1764762731.9203453,-6.22608,0.57988,0.10682,-0.919980555,0.3588858,-0.105041235
1764762731.9203453,-6.22608,0.57988,0.10682,-0.919980555,0.3588858,-0.105041235
1764762731.9203453,-6.22608,0.57988,0.10682,-0.919980555,0.3588858,-0.105041235
1764762731.9203453,-6.22608,0.57988,0.10682,-0.919980555,0.3588858,-0.105041235
1764762731.9203453,-6.22608,0.57988,0.10682,-0.919980555,0.3588858,-0.105041235
1764762731.9203453,-6.22608,0.57988,0.10682,-0.919980555,0.3588858,-0.105041235
1764762731.9203453,-7.79786,1.02242,0.39676,-0.920468835,0.35839752,-0.103820535
1764762731.9203453,-7.79786,1.02242,0.39676,-0.920468835,0.35839752,-0.103820535
1764762731.9203453,-7.79786,1.02242,0.39676,-0.920468835,0.35839752,-0.103820535
1764762731.9203453,-7.79786,1.02242,0.39676,-0.920468835,0.35839752,-0.103820535
1764762731.967323,-7.79786,1.02242,0.39676,-0.920468835,0.35839752,-0.103820535
1764762731.967839,-7.79786,1.02242,0.39676,-0.920468835,0.35839752,-0.103820535
1764762731.967839,-7.79786,1.02242,0.39676,-0.920468835,0.35839752,-0.103820535
1764762731.967839,-7.79786,1.02242,0.39676,-0.920468835,0.35839752,-0.103820535
1764762731.967839,-7.79786,1.02242,0.39676,-0.920468835,0.35839752,-0.103820535
1764762731.967839,-7.79786,1.02242,0.39676,-0.920468835,0.35839752,-0.103820535
1764762731.967839,-6.14978,0.41202,0.39676,-0.92126229,0.35449128,-0.10314915
1764762731.967839,-6.14978,0.41202,0.39676,-0.92126229,0.35449128,-0.10314915
1764762731.967839,-6.14978,0.41202,0.39676,-0.92126229,0.35449128,-0.10314915
1764762731.967839,-6.14978,0.41202,0.39676,-0.92126229,0.35449128,-0.10314915
1764762731.967839,-6.14978,0.41202,0.39676,-0.92126229,0.35449128,-0.10314915
1764762731.967839,-6.14978,0.41202,0.39676,-0.92126229,0.35449128,-0.10314915
1764762731.967839,-6.14978,0.41202,0.39676,-0.92126229,0.35449128,-0.10314915
1764762731.967839,-6.14978,0.41202,0.39676,-0.92126229,0.35449128,-0.10314915
1764762731.967839,-6.14978,0.41202,0.39676,-0.92126229,0.35449128,-0.10314915
1764762731.967839,-6.14978,0.41202,0.39676,-0.92126229,0.35449128,-0.10314915
1764762731.967839,-5.9514,0.2289,-0.51884,-0.920346765,0.35009676,-0.102233625
1764762731.967839,-5.9514,0.2289,-0.51884,-0.920346765,0.35009676,-0.102233625
1764762731.967839,-5.9514,0.2289,-0.51884,-0.920346765,0.35009676,-0.102233625
1764762731.967839,-5.9514,0.2289,-0.51884,-0.920346765,0.35009676,-0.102233625
1764762731.967839,-5.9514,0.2289,-0.51884,-0.920346765,0.35009676,-0.102233625
1764762731.967839,-5.9514,0.2289,-0.51884,-0.920346765,0.35009676,-0.102233625
1764762732.0133429,-5.9514,0.2289,-0.51884,-0.920346765,0.35009676,-0.102233625
1764762732.0133429,-5.9514,0.2289,-0.51884,-0.920346765,0.35009676,-0.102233625
1764762732.0133429,-5.9514,0.2289,-0.51884,-0.920346765,0.35009676,-0.102233625
1764762732.0133429,-5.9514,0.2289,-0.51884,-0.920346765,0.35009676,-0.102233625
1764762732.0133429,-7.034859999999999,-0.27468,-0.51884,-0.9191871,0.34960848,-0.10278294
1764762732.0133429,-7.034859999999999,-0.27468,-0.51884,-0.9191871,0.34960848,-0.10278294
1764762732.0133429,-7.034859999999999,-0.27468,-0.51884,-0.9191871,0.34960848,-0.10278294
1764762732.0133429,-7.034859999999999,-0.27468,-0.51884,-0.9191871,0.34960848,-0.10278294
1764762732.0138514,-7.034859999999999,-0.27468,-0.51884,-0.9191871,0.34960848,-0.10278294
1764762732.0138514,-7.034859999999999,-0.27468,-0.51884,-0.9191871,0.34960848,-0.10278294
1764762732.0138514,-7.034859999999999,-0.27468,-0.51884,-0.9191871,0.34960848,-0.10278294
1764762732.0138514,-7.034859999999999,-0.27468,-0.51884,-0.9191871,0.34960848,-0.10278294
1764762732.0138514,-7.034859999999999,-0.27468,-0.51884,-0.9191871,0.34960848,-0.10278294
1764762732.0138514,-7.034859999999999,-0.27468,-0.51884,-0.9191871,0.34960848,-0.10278294
1764762732.0138514,-7.370579999999999,-0.2289,-0.10682,-0.92248299,0.35192781,-0.103820535
1764762732.0138514,-7.370579999999999,-0.2289,-0.10682,-0.92248299,0.35192781,-0.103820535
1764762732.0138514,-7.370579999999999,-0.2289,-0.10682,-0.92248299,0.35192781,-0.103820535
1764762732.0138514,-7.370579999999999,-0.2289,-0.10682,-0.92248299,0.35192781,-0.103820535
1764762732.0138514,-7.370579999999999,-0.2289,-0.10682,-0.92248299,0.35192781,-0.103820535
1764762732.0138514,-7.370579999999999,-0.2289,-0.10682,-0.92248299,0.35192781,-0.103820535
1764762732.0138514,-7.370579999999999,-0.2289,-0.10682,-0.92248299,0.35192781,-0.103820535
1764762732.0138514,-7.370579999999999,-0.2289,-0.10682,-0.92248299,0.35192781,-0.103820535
1764762732.0593011,-7.370579999999999,-0.2289,-0.10682,-0.92248299,0.35192781,-0.103820535
1764762732.059816,-7.370579999999999,-0.2289,-0.10682,-0.92248299,0.35192781,-0.103820535
1764762732.059816,-5.44782,0.36624,0.0,-0.923276445,0.35266023,-0.103454325
1764762732.059816,-5.44782,0.36624,0.0,-0.923276445,0.35266023,-0.103454325
1764762732.059816,-5.44782,0.36624,0.0,-0.923276445,0.35266023,-0.103454325
1764762732.059816,-5.44782,0.36624,0.0,-0.923276445,0.35266023,-0.103454325
1764762732.059816,-5.44782,0.36624,0.0,-0.923276445,0.35266023,-0.103454325
1764762732.059816,-5.44782,0.36624,0.0,-0.923276445,0.35266023,-0.103454325
1764762732.059816,-5.44782,0.36624,0.0,-0.923276445,0.35266023,-0.103454325
1764762732.059816,-5.44782,0.36624,0.0,-0.923276445,0.35266023,-0.103454325
1764762732.059816,-5.44782,0.36624,0.0,-0.923276445,0.35266023,-0.103454325
1764762732.0607076,-5.44782,0.36624,0.0,-0.923276445,0.35266023,-0.103454325
1764762732.0607076,-3.87604,0.36624,-0.6714399999999999,-0.9228492,0.351012285,-0.10327122
1764762732.0607076,-3.87604,0.36624,-0.6714399999999999,-0.9228492,0.351012285,-0.10327122
1764762732.0607076,-3.87604,0.36624,-0.6714399999999999,-0.9228492,0.351012285,-0.10327122
1764762732.0607076,-3.87604,0.36624,-0.6714399999999999,-0.9228492,0.351012285,-0.10327122
1764762732.0607076,-3.87604,0.36624,-0.6714399999999999,-0.9228492,0.351012285,-0.10327122
1764762732.0607076,-3.87604,0.36624,-0.6714399999999999,-0.9228492,0.351012285,-0.10327122
1764762732.0607076,-3.87604,0.36624,-0.6714399999999999,-0.9228492,0.351012285,-0.10327122
1764762732.0607076,-3.87604,0.36624,-0.6714399999999999,-0.9228492,0.351012285,-0.10327122
1764762732.0607076,-3.87604,0.36624,-0.6714399999999999,-0.9228492,0.351012285,-0.10327122
1764762732.0607076,-3.87604,0.36624,-0.6714399999999999,-0.9228492,0.351012285,-0.10327122
1764762732.0607076,-3.57084,-0.18312,0.09156,-0.92175057,0.35046297,-0.10290501
1764762732.0607076,-3.57084,-0.18312,0.09156,-0.92175057,0.35046297,-0.10290501
1764762732.106593,-3.57084,-0.18312,0.09156,-0.92175057,0.35046297,-0.10290501
1764762732.106593,-3.57084,-0.18312,0.09156,-0.92175057,0.35046297,-0.10290501
1764762732.106593,-3.57084,-0.18312,0.09156,-0.92175057,0.35046297,-0.10290501
1764762732.106593,-3.57084,-0.18312,0.09156,-0.92175057,0.35046297,-0.10290501
1764762732.106593,-3.57084,-0.18312,0.09156,-0.92175057,0.35046297,-0.10290501
1764762732.106593,-3.57084,-0.18312,0.09156,-0.92175057,0.35046297,-0.10290501
1764762732.106593,-3.57084,-0.18312,0.09156,-0.92175057,0.35046297,-0.10290501
1764762732.106593,-3.57084,-0.18312,0.09156,-0.92175057,0.35046297,-0.10290501
1764762732.106593,-4.959499999999999,0.28994,0.73248,-0.91967538,0.351622635,-0.10266087
1764762732.106593,-4.959499999999999,0.28994,0.73248,-0.91967538,0.351622635,-0.10266087
1764762732.106593,-4.959499999999999,0.28994,0.73248,-0.91967538,0.351622635,-0.10266087
1764762732.106593,-4.959499999999999,0.28994,0.73248,-0.91967538,0.351622635,-0.10266087
1764762732.106593,-4.959499999999999,0.28994,0.73248,-0.91967538,0.351622635,-0.10266087
1764762732.106593,-4.959499999999999,0.28994,0.73248,-0.91967538,0.351622635,-0.10266087
1764762732.106593,-4.959499999999999,0.28994,0.73248,-0.91967538,0.351622635,-0.10266087
1764762732.106593,-4.959499999999999,0.28994,0.73248,-0.91967538,0.351622635,-0.10266087
1764762732.106593,-4.959499999999999,0.28994,0.73248,-0.91967538,0.351622635,-0.10266087
1764762732.106593,-4.959499999999999,0.28994,0.73248,-0.91967538,0.351622635,-0.10266087
1764762732.106593,-6.14978,0.71722,0.6103999999999999,-0.920224695,0.352477125,-0.10266087
1764762732.106593,-6.14978,0.71722,0.6103999999999999,-0.920224695,0.352477125,-0.10266087
1764762732.106593,-6.14978,0.71722,0.6103999999999999,-0.920224695,0.352477125,-0.10266087
1764762732.106593,-6.14978,0.71722,0.6103999999999999,-0.920224695,0.352477125,-0.10266087
1764762732.1540723,-6.14978,0.71722,0.6103999999999999,-0.920224695,0.352477125,-0.10266087
1764762732.1540723,-6.14978,0.71722,0.6103999999999999,-0.920224695,0.352477125,-0.10266087
1764762732.1540723,-6.14978,0.71722,0.6103999999999999,-0.920224695,0.352477125,-0.10266087
1764762732.1540723,-6.14978,0.71722,0.6103999999999999,-0.920224695,0.352477125,-0.10266087
1764762732.1540723,-6.14978,0.71722,0.6103999999999999,-0.920224695,0.352477125,-0.10266087
1764762732.1540723,-6.14978,0.71722,0.6103999999999999,-0.920224695,0.352477125,-0.10266087
1764762732.1540723,-5.84458,1.25132,0.36624,-0.92004159,0.35131746,-0.10205052
1764762732.1540723,-5.84458,1.25132,0.36624,-0.92004159,0.35131746,-0.10205052
1764762732.1540723,-5.84458,1.25132,0.36624,-0.92004159,0.35131746,-0.10205052
1764762732.1540723,-5.84458,1.25132,0.36624,-0.92004159,0.35131746,-0.10205052
1764762732.1540723,-5.84458,1.25132,0.36624,-0.92004159,0.35131746,-0.10205052
1764762732.1540723,-5.84458,1.25132,0.36624,-0.92004159,0.35131746,-0.10205052
1764762732.1540723,-5.84458,1.25132,0.36624,-0.92004159,0.35131746,-0.10205052
1764762732.1540723,-5.84458,1.25132,0.36624,-0.92004159,0.35131746,-0.10205052
1764762732.1540723,-5.84458,1.25132,0.36624,-0.92004159,0.35131746,-0.10205052
1764762732.1540723,-5.84458,1.25132,0.36624,-0.92004159,0.35131746,-0.10205052
1764762732.1540723,-5.234179999999999,0.8392999999999999,0.28994,-0.919858485,0.350279865,-0.10241673
1764762732.1540723,-5.234179999999999,0.8392999999999999,0.28994,-0.919858485,0.350279865,-0.10241673
1764762732.1540723,-5.234179999999999,0.8392999999999999,0.28994,-0.919858485,0.350279865,-0.10241673
1764762732.1540723,-5.234179999999999,0.8392999999999999,0.28994,-0.919858485,0.350279865,-0.10241673
1764762732.1540723,-5.234179999999999,0.8392999999999999,0.28994,-0.919858485,0.350279865,-0.10241673
1764762732.1540723,-5.234179999999999,0.8392999999999999,0.28994,-0.919858485,0.350279865,-0.10241673
1764762732.1540723,-5.234179999999999,0.8392999999999999,0.28994,-0.919858485,0.350279865,-0.10241673
1764762732.1540723,-5.234179999999999,0.8392999999999999,0.28994,-0.919858485,0.350279865,-0.10241673
1764762732.200623,-5.234179999999999,0.8392999999999999,0.28994,-0.919858485,0.350279865,-0.10241673
1764762732.200623,-5.234179999999999,0.8392999999999999,0.28994,-0.919858485,0.350279865,-0.10241673
1764762732.200623,-4.47118,0.79352,1.02242,-0.92260506,0.350279865,-0.101989485
1764762732.200623,-4.47118,0.79352,1.02242,-0.92260506,0.350279865,-0.101989485
1764762732.200623,-4.47118,0.79352,1.02242,-0.92260506,0.350279865,-0.101989485
1764762732.200623,-4.47118,0.79352,1.02242,-0.92260506,0.350279865,-0.101989485
1764762732.200623,-4.47118,0.79352,1.02242,-0.92260506,0.350279865,-0.101989485
1764762732.2016337,-4.47118,0.79352,1.02242,-0.92260506,0.350279865,-0.101989485
1764762732.2016337,-4.47118,0.79352,1.02242,-0.92260506,0.350279865,-0.101989485
1764762732.2016337,-4.47118,0.79352,1.02242,-0.92260506,0.350279865,-0.101989485
1764762732.2016337,-4.47118,0.79352,1.02242,-0.92260506,0.350279865,-0.101989485
1764762732.2016337,-4.47118,0.79352,1.02242,-0.92260506,0.350279865,-0.101989485
1764762732.2016337,-3.44876,0.27468,0.3204599999999999,-0.923154375,0.350890215,-0.10217259
1764762732.2016337,-3.44876,0.27468,0.3204599999999999,-0.923154375,0.350890215,-0.10217259
1764762732.2016337,-3.44876,0.27468,0.3204599999999999,-0.923154375,0.350890215,-0.10217259
1764762732.2016337,-3.44876,0.27468,0.3204599999999999,-0.923154375,0.350890215,-0.10217259
1764762732.2016337,-3.44876,0.27468,0.3204599999999999,-0.923154375,0.350890215,-0.10217259
1764762732.2016337,-3.44876,0.27468,0.3204599999999999,-0.923154375,0.350890215,-0.10217259
1764762732.2016337,-3.44876,0.27468,0.3204599999999999,-0.923154375,0.350890215,-0.10217259
1764762732.2016337,-3.44876,0.27468,0.3204599999999999,-0.923154375,0.350890215,-0.10217259
1764762732.202632,-3.44876,0.27468,0.3204599999999999,-0.923154375,0.350890215,-0.10217259
1764762732.202632,-3.44876,0.27468,0.3204599999999999,-0.923154375,0.350890215,-0.10217259
1764762732.202632,-5.08158,1.08346,0.85456,-0.922177815,0.353453685,-0.103332255
1764762732.202632,-5.08158,1.08346,0.85456,-0.922177815,0.353453685,-0.103332255
1764762732.2446246,-5.08158,1.08346,0.85456,-0.922177815,0.353453685,-0.103332255
1764762732.2446246,-5.08158,1.08346,0.85456,-0.922177815,0.353453685,-0.103332255
1764762732.2446246,-5.08158,1.08346,0.85456,-0.922177815,0.353453685,-0.103332255
1764762732.2446246,-5.08158,1.08346,0.85456,-0.922177815,0.353453685,-0.103332255
1764762732.2446246,-5.08158,1.08346,0.85456,-0.922177815,0.353453685,-0.103332255
1764762732.2446246,-5.08158,1.08346,0.85456,-0.922177815,0.353453685,-0.103332255
1764762732.2446246,-5.08158,1.08346,0.85456,-0.922177815,0.353453685,-0.103332255
1764762732.2446246,-5.08158,1.08346,0.85456,-0.922177815,0.353453685,-0.103332255
1764762732.2446246,-5.76828,0.71722,0.763,-0.920712975,0.355773015,-0.10485813
1764762732.2446246,-5.76828,0.71722,0.763,-0.920712975,0.355773015,-0.10485813
1764762732.2446246,-5.76828,0.71722,0.763,-0.920712975,0.355773015,-0.10485813
1764762732.2446246,-5.76828,0.71722,0.763,-0.920712975,0.355773015,-0.10485813
1764762732.2446246,-5.76828,0.71722,0.763,-0.920712975,0.355773015,-0.10485813
1764762732.2446246,-5.76828,0.71722,0.763,-0.920712975,0.355773015,-0.10485813
1764762732.2446246,-5.76828,0.71722,0.763,-0.920712975,0.355773015,-0.10485813
1764762732.246096,-5.76828,0.71722,0.763,-0.920712975,0.355773015,-0.10485813
1764762732.246096,-5.76828,0.71722,0.763,-0.920712975,0.355773015,-0.10485813
1764762732.246096,-5.76828,0.71722,0.763,-0.920712975,0.355773015,-0.10485813
1764762732.246096,-5.340999999999999,1.00716,0.77826,-0.92077401,0.356139225,-0.10351536
1764762732.246096,-5.340999999999999,1.00716,0.77826,-0.92077401,0.356139225,-0.10351536
1764762732.246096,-5.340999999999999,1.00716,0.77826,-0.92077401,0.356139225,-0.10351536
1764762732.246096,-5.340999999999999,1.00716,0.77826,-0.92077401,0.356139225,-0.10351536
1764762732.246096,-5.340999999999999,1.00716,0.77826,-0.92077401,0.356139225,-0.10351536
1764762732.246096,-5.340999999999999,1.00716,0.77826,-0.92077401,0.356139225,-0.10351536
1764762732.292945,-5.340999999999999,1.00716,0.77826,-0.92077401,0.356139225,-0.10351536
1764762732.292945,-5.340999999999999,1.00716,0.77826,-0.92077401,0.356139225,-0.10351536
1764762732.292945,-5.340999999999999,1.00716,0.77826,-0.92077401,0.356139225,-0.10351536
1764762732.292945,-5.340999999999999,1.00716,0.77826,-0.92077401,0.356139225,-0.10351536
1764762732.292945,-3.95234,0.5341,0.2289,-0.921323325,0.35241609,-0.102599835
1764762732.292945,-3.95234,0.5341,0.2289,-0.921323325,0.35241609,-0.102599835
1764762732.292945,-3.95234,0.5341,0.2289,-0.921323325,0.35241609,-0.102599835
1764762732.292945,-3.95234,0.5341,0.2289,-0.921323325,0.35241609,-0.102599835
1764762732.293451,-3.95234,0.5341,0.2289,-0.921323325,0.35241609,-0.102599835
1764762732.293451,-3.95234,0.5341,0.2289,-0.921323325,0.35241609,-0.102599835
1764762732.293451,-3.95234,0.5341,0.2289,-0.921323325,0.35241609,-0.102599835
1764762732.293451,-3.95234,0.5341,0.2289,-0.921323325,0.35241609,-0.102599835
1764762732.293451,-3.95234,0.5341,0.2289,-0.921323325,0.35241609,-0.102599835
1764762732.293451,-3.95234,0.5341,0.2289,-0.921323325,0.35241609,-0.102599835
1764762732.293451,-2.86888,0.36624,0.18312,-0.92150643,0.348815025,-0.101623275
1764762732.293451,-2.86888,0.36624,0.18312,-0.92150643,0.348815025,-0.101623275
1764762732.293451,-2.86888,0.36624,0.18312,-0.92150643,0.348815025,-0.101623275
1764762732.293451,-2.86888,0.36624,0.18312,-0.92150643,0.348815025,-0.101623275
1764762732.293451,-2.86888,0.36624,0.18312,-0.92150643,0.348815025,-0.101623275
1764762732.293451,-2.86888,0.36624,0.18312,-0.92150643,0.348815025,-0.101623275
1764762732.293451,-2.86888,0.36624,0.18312,-0.92150643,0.348815025,-0.101623275
1764762732.293451,-2.86888,0.36624,0.18312,-0.92150643,0.348815025,-0.101623275
1764762732.293451,-2.86888,0.36624,0.18312,-0.92150643,0.348815025,-0.101623275
1764762732.293451,-2.86888,0.36624,0.18312,-0.92150643,0.348815025,-0.101623275
1764762732.338828,-2.76206,0.5341,0.96138,-0.920590905,0.34973055,-0.10241673
1764762732.338828,-2.76206,0.5341,0.96138,-0.920590905,0.34973055,-0.10241673
1764762732.338828,-2.76206,0.5341,0.96138,-0.920590905,0.34973055,-0.10241673
1764762732.338828,-2.76206,0.5341,0.96138,-0.920590905,0.34973055,-0.10241673
1764762732.338828,-2.76206,0.5341,0.96138,-0.920590905,0.34973055,-0.10241673
1764762732.338828,-2.76206,0.5341,0.96138,-0.920590905,0.34973055,-0.10241673
1764762732.338828,-2.76206,0.5341,0.96138,-0.920590905,0.34973055,-0.10241673
1764762732.338828,-2.76206,0.5341,0.96138,-0.920590905,0.34973055,-0.10241673
1764762732.338828,-2.76206,0.5341,0.96138,-0.920590905,0.34973055,-0.10241673
1764762732.338828,-2.76206,0.5341,0.96138,-0.920590905,0.34973055,-0.10241673
1764762732.3401806,-4.33384,0.9003399999999999,1.32762,-0.91979745,0.353331615,-0.102233625
1764762732.3401806,-4.33384,0.9003399999999999,1.32762,-0.91979745,0.353331615,-0.102233625
1764762732.3401806,-4.33384,0.9003399999999999,1.32762,-0.91979745,0.353331615,-0.102233625
1764762732.3401806,-4.33384,0.9003399999999999,1.32762,-0.91979745,0.353331615,-0.102233625
1764762732.3401806,-4.33384,0.9003399999999999,1.32762,-0.91979745,0.353331615,-0.102233625
1764762732.3401806,-4.33384,0.9003399999999999,1.32762,-0.91979745,0.353331615,-0.102233625
1764762732.3401806,-4.33384,0.9003399999999999,1.32762,-0.91979745,0.353331615,-0.102233625
1764762732.3401806,-4.33384,0.9003399999999999,1.32762,-0.91979745,0.353331615,-0.102233625
1764762732.3401806,-4.33384,0.9003399999999999,1.32762,-0.91979745,0.353331615,-0.102233625
1764762732.3401806,-4.33384,0.9003399999999999,1.32762,-0.91979745,0.353331615,-0.102233625
1764762732.3401806,-4.54748,0.65618,0.9003399999999999,-0.921689535,0.354674385,-0.101623275
1764762732.3401806,-4.54748,0.65618,0.9003399999999999,-0.921689535,0.354674385,-0.101623275
1764762732.386506,-4.54748,0.65618,0.9003399999999999,-0.921689535,0.354674385,-0.101623275
1764762732.386506,-4.54748,0.65618,0.9003399999999999,-0.921689535,0.354674385,-0.101623275
1764762732.386506,-4.54748,0.65618,0.9003399999999999,-0.921689535,0.354674385,-0.101623275
1764762732.386506,-4.54748,0.65618,0.9003399999999999,-0.921689535,0.354674385,-0.101623275
1764762732.386506,-4.54748,0.65618,0.9003399999999999,-0.921689535,0.354674385,-0.101623275
1764762732.386506,-4.54748,0.65618,0.9003399999999999,-0.921689535,0.354674385,-0.101623275
1764762732.387514,-4.54748,0.65618,0.9003399999999999,-0.921689535,0.354674385,-0.101623275
1764762732.387514,-4.54748,0.65618,0.9003399999999999,-0.921689535,0.354674385,-0.101623275
1764762732.387514,-6.11926,0.8698199999999999,0.73248,-0.92223885,0.353819895,-0.10241673
1764762732.387514,-6.11926,0.8698199999999999,0.73248,-0.92223885,0.353819895,-0.10241673
1764762732.387514,-6.11926,0.8698199999999999,0.73248,-0.92223885,0.353819895,-0.10241673
1764762732.387514,-6.11926,0.8698199999999999,0.73248,-0.92223885,0.353819895,-0.10241673
1764762732.387514,-6.11926,0.8698199999999999,0.73248,-0.92223885,0.353819895,-0.10241673
1764762732.387514,-6.11926,0.8698199999999999,0.73248,-0.92223885,0.353819895,-0.10241673
1764762732.387514,-6.11926,0.8698199999999999,0.73248,-0.92223885,0.353819895,-0.10241673
1764762732.387514,-6.11926,0.8698199999999999,0.73248,-0.92223885,0.353819895,-0.10241673
1764762732.387514,-6.11926,0.8698199999999999,0.73248,-0.92223885,0.353819895,-0.10241673
1764762732.387514,-6.11926,0.8698199999999999,0.73248,-0.92223885,0.353819895,-0.10241673
1764762732.387514,-5.890359999999999,0.93086,0.47306,-0.921201255,0.35449128,-0.103332255
1764762732.387514,-5.890359999999999,0.93086,0.47306,-0.921201255,0.35449128,-0.103332255
1764762732.387514,-5.890359999999999,0.93086,0.47306,-0.921201255,0.35449128,-0.103332255
1764762732.387514,-5.890359999999999,0.93086,0.47306,-0.921201255,0.35449128,-0.103332255
1764762732.4345586,-5.890359999999999,0.93086,0.47306,-0.921201255,0.35449128,-0.103332255
1764762732.4345586,-5.890359999999999,0.93086,0.47306,-0.921201255,0.35449128,-0.103332255
1764762732.4345586,-5.890359999999999,0.93086,0.47306,-0.921201255,0.35449128,-0.103332255
1764762732.4345586,-5.890359999999999,0.93086,0.47306,-0.921201255,0.35449128,-0.103332255
1764762732.4345586,-5.890359999999999,0.93086,0.47306,-0.921201255,0.35449128,-0.103332255
1764762732.4345586,-5.890359999999999,0.93086,0.47306,-0.921201255,0.35449128,-0.103332255
1764762732.4345586,-5.44782,0.82404,0.9919,-0.919980555,0.354552315,-0.10351536
1764762732.4345586,-5.44782,0.82404,0.9919,-0.919980555,0.354552315,-0.10351536
1764762732.4345586,-5.44782,0.82404,0.9919,-0.919980555,0.354552315,-0.10351536
1764762732.4345586,-5.44782,0.82404,0.9919,-0.919980555,0.354552315,-0.10351536
1764762732.4345586,-5.44782,0.82404,0.9919,-0.919980555,0.354552315,-0.10351536
1764762732.4345586,-5.44782,0.82404,0.9919,-0.919980555,0.354552315,-0.10351536
1764762732.4345586,-5.44782,0.82404,0.9919,-0.919980555,0.354552315,-0.10351536
1764762732.4345586,-5.44782,0.82404,0.9919,-0.919980555,0.354552315,-0.10351536
1764762732.4345586,-5.44782,0.82404,0.9919,-0.919980555,0.354552315,-0.10351536
1764762732.4345586,-5.44782,0.82404,0.9919,-0.919980555,0.354552315,-0.10351536
1764762732.4345586,-5.32574,1.3734,0.6867,-0.92004159,0.352843335,-0.10229466
1764762732.4345586,-5.32574,1.3734,0.6867,-0.92004159,0.352843335,-0.10229466
1764762732.4345586,-5.32574,1.3734,0.6867,-0.92004159,0.352843335,-0.10229466
1764762732.4345586,-5.32574,1.3734,0.6867,-0.92004159,0.352843335,-0.10229466
1764762732.4345586,-5.32574,1.3734,0.6867,-0.92004159,0.352843335,-0.10229466
1764762732.4345586,-5.32574,1.3734,0.6867,-0.92004159,0.352843335,-0.10229466
1764762732.4345586,-5.32574,1.3734,0.6867,-0.92004159,0.352843335,-0.10229466
1764762732.4345586,-5.32574,1.3734,0.6867,-0.92004159,0.352843335,-0.10229466
1764762732.480761,-5.32574,1.3734,0.6867,-0.92004159,0.352843335,-0.10229466
1764762732.480761,-5.32574,1.3734,0.6867,-0.92004159,0.352843335,-0.10229466
1764762732.480761,-4.4254,1.09872,0.28994,-0.920468835,0.351378495,-0.101623275
1764762732.480761,-4.4254,1.09872,0.28994,-0.920468835,0.351378495,-0.101623275
1764762732.480761,-4.4254,1.09872,0.28994,-0.920468835,0.351378495,-0.101623275
1764762732.480761,-4.4254,1.09872,0.28994,-0.920468835,0.351378495,-0.101623275
1764762732.480761,-4.4254,1.09872,0.28994,-0.920468835,0.351378495,-0.101623275
1764762732.480761,-4.4254,1.09872,0.28994,-0.920468835,0.351378495,-0.101623275
1764762732.480761,-4.4254,1.09872,0.28994,-0.920468835,0.351378495,-0.101623275
1764762732.480761,-4.4254,1.09872,0.28994,-0.920468835,0.351378495,-0.101623275
1764762732.480761,-4.4254,1.09872,0.28994,-0.920468835,0.351378495,-0.101623275
1764762732.480761,-4.4254,1.09872,0.28994,-0.920468835,0.351378495,-0.101623275
1764762732.480761,-4.31858,0.74774,-0.3051999999999999,-0.919858485,0.35082918,-0.10119603
1764762732.480761,-4.31858,0.74774,-0.3051999999999999,-0.919858485,0.35082918,-0.10119603
1764762732.480761,-4.31858,0.74774,-0.3051999999999999,-0.919858485,0.35082918,-0.10119603
1764762732.480761,-4.31858,0.74774,-0.3051999999999999,-0.919858485,0.35082918,-0.10119603
1764762732.480761,-4.31858,0.74774,-0.3051999999999999,-0.919858485,0.35082918,-0.10119603
1764762732.480761,-4.31858,0.74774,-0.3051999999999999,-0.919858485,0.35082918,-0.10119603
1764762732.480761,-4.31858,0.74774,-0.3051999999999999,-0.919858485,0.35082918,-0.10119603
1764762732.480761,-4.31858,0.74774,-0.3051999999999999,-0.919858485,0.35082918,-0.10119603
1764762732.480761,-4.31858,0.74774,-0.3051999999999999,-0.919858485,0.35082918,-0.10119603
1764762732.480761,-4.31858,0.74774,-0.3051999999999999,-0.919858485,0.35082918,-0.10119603
1764762732.5276554,-5.53938,0.2289,-0.27468,-0.91943124,0.351988845,-0.100524645
1764762732.5276554,-5.53938,0.2289,-0.27468,-0.91943124,0.351988845,-0.100524645
1764762732.5276554,-5.53938,0.2289,-0.27468,-0.91943124,0.351988845,-0.100524645
1764762732.5276554,-5.53938,0.2289,-0.27468,-0.91943124,0.351988845,-0.100524645
1764762732.5276554,-5.53938,0.2289,-0.27468,-0.91943124,0.351988845,-0.100524645
1764762732.5276554,-5.53938,0.2289,-0.27468,-0.91943124,0.351988845,-0.100524645
1764762732.5276554,-5.53938,0.2289,-0.27468,-0.91943124,0.351988845,-0.100524645
1764762732.5276554,-5.53938,0.2289,-0.27468,-0.91943124,0.351988845,-0.100524645
1764762732.5276554,-5.53938,0.2289,-0.27468,-0.91943124,0.351988845,-0.100524645
1764762732.5276554,-5.53938,0.2289,-0.27468,-0.91943124,0.351988845,-0.100524645
1764762732.5276554,-3.9676,0.1678599999999999,-0.54936,-0.92101815,0.352965405,-0.10119603
1764762732.5276554,-3.9676,0.1678599999999999,-0.54936,-0.92101815,0.352965405,-0.10119603
1764762732.5276554,-3.9676,0.1678599999999999,-0.54936,-0.92101815,0.352965405,-0.10119603
1764762732.5276554,-3.9676,0.1678599999999999,-0.54936,-0.92101815,0.352965405,-0.10119603
1764762732.5276554,-3.9676,0.1678599999999999,-0.54936,-0.92101815,0.352965405,-0.10119603
1764762732.5276554,-3.9676,0.1678599999999999,-0.54936,-0.92101815,0.352965405,-0.10119603
1764762732.5276554,-3.9676,0.1678599999999999,-0.54936,-0.92101815,0.352965405,-0.10119603
1764762732.5276554,-3.9676,0.1678599999999999,-0.54936,-0.92101815,0.352965405,-0.10119603
1764762732.5276554,-3.9676,0.1678599999999999,-0.54936,-0.92101815,0.352965405,-0.10119603
1764762732.5276554,-3.9676,0.1678599999999999,-0.54936,-0.92101815,0.352965405,-0.10119603
1764762732.5276554,-2.62472,0.71722,0.03052,-0.91967538,0.352843335,-0.10302708
1764762732.5276554,-2.62472,0.71722,0.03052,-0.91967538,0.352843335,-0.10302708
1764762732.5276554,-2.62472,0.71722,0.03052,-0.91967538,0.352843335,-0.10302708
1764762732.5276554,-2.62472,0.71722,0.03052,-0.91967538,0.352843335,-0.10302708
1764762732.574003,-2.62472,0.71722,0.03052,-0.91967538,0.352843335,-0.10302708
1764762732.5747972,-2.62472,0.71722,0.03052,-0.91967538,0.352843335,-0.10302708
1764762732.5747972,-2.62472,0.71722,0.03052,-0.91967538,0.352843335,-0.10302708
1764762732.5747972,-2.62472,0.71722,0.03052,-0.91967538,0.352843335,-0.10302708
1764762732.5747972,-2.62472,0.71722,0.03052,-0.91967538,0.352843335,-0.10302708
1764762732.5747972,-2.62472,0.71722,0.03052,-0.91967538,0.352843335,-0.10302708
1764762732.5747972,-5.24944,1.32762,-0.03052,-0.91808847,0.35351472,-0.103454325
1764762732.5747972,-5.24944,1.32762,-0.03052,-0.91808847,0.35351472,-0.103454325
1764762732.5747972,-5.24944,1.32762,-0.03052,-0.91808847,0.35351472,-0.103454325
1764762732.5747972,-5.24944,1.32762,-0.03052,-0.91808847,0.35351472,-0.103454325
1764762732.5747972,-5.24944,1.32762,-0.03052,-0.91808847,0.35351472,-0.103454325
1764762732.5747972,-5.24944,1.32762,-0.03052,-0.91808847,0.35351472,-0.103454325
1764762732.5747972,-5.24944,1.32762,-0.03052,-0.91808847,0.35351472,-0.103454325
1764762732.5747972,-5.24944,1.32762,-0.03052,-0.91808847,0.35351472,-0.103454325
1764762732.5747972,-5.24944,1.32762,-0.03052,-0.91808847,0.35351472,-0.103454325
1764762732.5747972,-5.24944,1.32762,-0.03052,-0.91808847,0.35351472,-0.103454325
1764762732.5747972,-7.095899999999999,0.6103999999999999,1.05294,-0.920957115,0.355162665,-0.102599835
1764762732.5747972,-7.095899999999999,0.6103999999999999,1.05294,-0.920957115,0.355162665,-0.102599835
1764762732.5747972,-7.095899999999999,0.6103999999999999,1.05294,-0.920957115,0.355162665,-0.102599835
1764762732.5747972,-7.095899999999999,0.6103999999999999,1.05294,-0.920957115,0.355162665,-0.102599835
1764762732.5747972,-7.095899999999999,0.6103999999999999,1.05294,-0.920957115,0.355162665,-0.102599835
1764762732.5747972,-7.095899999999999,0.6103999999999999,1.05294,-0.920957115,0.355162665,-0.102599835
1764762732.5747972,-7.095899999999999,0.6103999999999999,1.05294,-0.920957115,0.355162665,-0.102599835
1764762732.5747972,-7.095899999999999,0.6103999999999999,1.05294,-0.920957115,0.355162665,-0.102599835
1764762732.618504,-7.095899999999999,0.6103999999999999,1.05294,-0.920957115,0.355162665,-0.102599835
1764762732.618504,-7.095899999999999,0.6103999999999999,1.05294,-0.920957115,0.355162665,-0.102599835
1764762732.618504,-6.027699999999999,0.65618,0.41202,-0.92455818,0.354918525,-0.101745345
1764762732.618504,-6.027699999999999,0.65618,0.41202,-0.92455818,0.354918525,-0.101745345
1764762732.618504,-6.027699999999999,0.65618,0.41202,-0.92455818,0.354918525,-0.101745345
1764762732.618504,-6.027699999999999,0.65618,0.41202,-0.92455818,0.354918525,-0.101745345
1764762732.618504,-6.027699999999999,0.65618,0.41202,-0.92455818,0.354918525,-0.101745345
1764762732.618504,-6.027699999999999,0.65618,0.41202,-0.92455818,0.354918525,-0.101745345
1764762732.618504,-6.027699999999999,0.65618,0.41202,-0.92455818,0.354918525,-0.101745345
1764762732.618504,-6.027699999999999,0.65618,0.41202,-0.92455818,0.354918525,-0.101745345
1764762732.618504,-6.027699999999999,0.65618,0.41202,-0.92455818,0.354918525,-0.101745345
1764762732.618504,-6.027699999999999,0.65618,0.41202,-0.92455818,0.354918525,-0.101745345
1764762732.618504,-4.92898,1.38866,-0.4578,-0.922910235,0.351622635,-0.102599835
1764762732.618504,-4.92898,1.38866,-0.4578,-0.922910235,0.351622635,-0.102599835
1764762732.618504,-4.92898,1.38866,-0.4578,-0.922910235,0.351622635,-0.102599835
1764762732.618504,-4.92898,1.38866,-0.4578,-0.922910235,0.351622635,-0.102599835
1764762732.6200123,-4.92898,1.38866,-0.4578,-0.922910235,0.351622635,-0.102599835
1764762732.6200123,-4.92898,1.38866,-0.4578,-0.922910235,0.351622635,-0.102599835
1764762732.6200123,-4.92898,1.38866,-0.4578,-0.922910235,0.351622635,-0.102599835
1764762732.6200123,-4.92898,1.38866,-0.4578,-0.922910235,0.351622635,-0.102599835
1764762732.6200123,-4.92898,1.38866,-0.4578,-0.922910235,0.351622635,-0.102599835
1764762732.6200123,-4.92898,1.38866,-0.4578,-0.922910235,0.351622635,-0.102599835
1764762732.6200123,-4.1965,0.62566,-0.96138,-0.92138436,0.35082918,-0.102721905
1764762732.6200123,-4.1965,0.62566,-0.96138,-0.92138436,0.35082918,-0.102721905
1764762732.6664891,-4.1965,0.62566,-0.96138,-0.92138436,0.35082918,-0.102721905
1764762732.6664891,-4.1965,0.62566,-0.96138,-0.92138436,0.35082918,-0.102721905
1764762732.6664891,-4.1965,0.62566,-0.96138,-0.92138436,0.35082918,-0.102721905
1764762732.6664891,-4.1965,0.62566,-0.96138,-0.92138436,0.35082918,-0.102721905
1764762732.6664891,-4.1965,0.62566,-0.96138,-0.92138436,0.35082918,-0.102721905
1764762732.6664891,-4.1965,0.62566,-0.96138,-0.92138436,0.35082918,-0.102721905
1764762732.6664891,-4.1965,0.62566,-0.96138,-0.92138436,0.35082918,-0.102721905
1764762732.6664891,-4.1965,0.62566,-0.96138,-0.92138436,0.35082918,-0.102721905
1764762732.6664891,-5.15788,0.96138,0.8087799999999999,-0.920712975,0.353331615,-0.10205052
1764762732.6664891,-5.15788,0.96138,0.8087799999999999,-0.920712975,0.353331615,-0.10205052
1764762732.6664891,-5.15788,0.96138,0.8087799999999999,-0.920712975,0.353331615,-0.10205052
1764762732.6664891,-5.15788,0.96138,0.8087799999999999,-0.920712975,0.353331615,-0.10205052
1764762732.6664891,-5.15788,0.96138,0.8087799999999999,-0.920712975,0.353331615,-0.10205052
1764762732.6664891,-5.15788,0.96138,0.8087799999999999,-0.920712975,0.353331615,-0.10205052
1764762732.6664891,-5.15788,0.96138,0.8087799999999999,-0.920712975,0.353331615,-0.10205052
1764762732.6664891,-5.15788,0.96138,0.8087799999999999,-0.920712975,0.353331615,-0.10205052
1764762732.6664891,-5.15788,0.96138,0.8087799999999999,-0.920712975,0.353331615,-0.10205052
1764762732.6664891,-5.15788,0.96138,0.8087799999999999,-0.920712975,0.353331615,-0.10205052
1764762732.6664891,-6.516019999999999,1.43444,1.34288,-0.92077401,0.354430245,-0.10302708
1764762732.6664891,-6.516019999999999,1.43444,1.34288,-0.92077401,0.354430245,-0.10302708
1764762732.6664891,-6.516019999999999,1.43444,1.34288,-0.92077401,0.354430245,-0.10302708
1764762732.6664891,-6.516019999999999,1.43444,1.34288,-0.92077401,0.354430245,-0.10302708
1764762732.6664891,-6.516019999999999,1.43444,1.34288,-0.92077401,0.354430245,-0.10302708
1764762732.6664891,-6.516019999999999,1.43444,1.34288,-0.92077401,0.354430245,-0.10302708
1764762732.713923,-6.516019999999999,1.43444,1.34288,-0.92077401,0.354430245,-0.10302708
1764762732.713923,-6.516019999999999,1.43444,1.34288,-0.92077401,0.354430245,-0.10302708
1764762732.713923,-6.516019999999999,1.43444,1.34288,-0.92077401,0.354430245,-0.10302708
1764762732.713923,-6.516019999999999,1.43444,1.34288,-0.92077401,0.354430245,-0.10302708
1764762732.713923,-6.74492,1.15976,0.6103999999999999,-0.92114022,0.353453685,-0.10229466
1764762732.713923,-6.74492,1.15976,0.6103999999999999,-0.92114022,0.353453685,-0.10229466
1764762732.713923,-6.74492,1.15976,0.6103999999999999,-0.92114022,0.353453685,-0.10229466
1764762732.713923,-6.74492,1.15976,0.6103999999999999,-0.92114022,0.353453685,-0.10229466
1764762732.713923,-6.74492,1.15976,0.6103999999999999,-0.92114022,0.353453685,-0.10229466
1764762732.713923,-6.74492,1.15976,0.6103999999999999,-0.92114022,0.353453685,-0.10229466
1764762732.713923,-6.74492,1.15976,0.6103999999999999,-0.92114022,0.353453685,-0.10229466
1764762732.713923,-6.74492,1.15976,0.6103999999999999,-0.92114022,0.353453685,-0.10229466
1764762732.713923,-6.74492,1.15976,0.6103999999999999,-0.92114022,0.353453685,-0.10229466
1764762732.713923,-6.74492,1.15976,0.6103999999999999,-0.92114022,0.353453685,-0.10229466
1764762732.713923,-6.2566,0.59514,0.2289,-0.9204078,0.35229402,-0.10034154
1764762732.713923,-6.2566,0.59514,0.2289,-0.9204078,0.35229402,-0.10034154
1764762732.713923,-6.2566,0.59514,0.2289,-0.9204078,0.35229402,-0.10034154
1764762732.7144468,-6.2566,0.59514,0.2289,-0.9204078,0.35229402,-0.10034154
1764762732.7144468,-6.2566,0.59514,0.2289,-0.9204078,0.35229402,-0.10034154
1764762732.7144468,-6.2566,0.59514,0.2289,-0.9204078,0.35229402,-0.10034154
1764762732.7144468,-6.2566,0.59514,0.2289,-0.9204078,0.35229402,-0.10034154
1764762732.7144468,-6.2566,0.59514,0.2289,-0.9204078,0.35229402,-0.10034154
1764762732.7606635,-6.2566,0.59514,0.2289,-0.9204078,0.35229402,-0.10034154
1764762732.7606635,-6.2566,0.59514,0.2289,-0.9204078,0.35229402,-0.10034154
1764762732.7606635,-5.753019999999999,0.57988,0.27468,-0.921933675,0.35204988,-0.100768785
1764762732.7611804,-5.753019999999999,0.57988,0.27468,-0.921933675,0.35204988,-0.100768785
1764762732.7611804,-5.753019999999999,0.57988,0.27468,-0.921933675,0.35204988,-0.100768785
1764762732.7611804,-5.753019999999999,0.57988,0.27468,-0.921933675,0.35204988,-0.100768785
1764762732.7611804,-5.753019999999999,0.57988,0.27468,-0.921933675,0.35204988,-0.100768785
1764762732.7611804,-5.753019999999999,0.57988,0.27468,-0.921933675,0.35204988,-0.100768785
1764762732.7611804,-5.753019999999999,0.57988,0.27468,-0.921933675,0.35204988,-0.100768785
1764762732.7611804,-5.753019999999999,0.57988,0.27468,-0.921933675,0.35204988,-0.100768785
1764762732.7611804,-5.753019999999999,0.57988,0.27468,-0.921933675,0.35204988,-0.100768785
1764762732.7611804,-5.753019999999999,0.57988,0.27468,-0.921933675,0.35204988,-0.100768785
1764762732.7611804,-4.1965,0.5341,0.06104,-0.922544025,0.351378495,-0.10107396
1764762732.7611804,-4.1965,0.5341,0.06104,-0.922544025,0.351378495,-0.10107396
1764762732.7611804,-4.1965,0.5341,0.06104,-0.922544025,0.351378495,-0.10107396
1764762732.7611804,-4.1965,0.5341,0.06104,-0.922544025,0.351378495,-0.10107396
1764762732.7611804,-4.1965,0.5341,0.06104,-0.922544025,0.351378495,-0.10107396
1764762732.7611804,-4.1965,0.5341,0.06104,-0.922544025,0.351378495,-0.10107396
1764762732.7611804,-4.1965,0.5341,0.06104,-0.922544025,0.351378495,-0.10107396
1764762732.7611804,-4.1965,0.5341,0.06104,-0.922544025,0.351378495,-0.10107396
1764762732.7611804,-4.1965,0.5341,0.06104,-0.922544025,0.351378495,-0.10107396
1764762732.7611804,-4.1965,0.5341,0.06104,-0.922544025,0.351378495,-0.10107396
1764762732.7611804,-4.10494,0.82404,0.42728,-0.921323325,0.3491202,-0.10082982
1764762732.7611804,-4.10494,0.82404,0.42728,-0.921323325,0.3491202,-0.10082982
1764762732.807879,-4.10494,0.82404,0.42728,-0.921323325,0.3491202,-0.10082982
1764762732.807879,-4.10494,0.82404,0.42728,-0.921323325,0.3491202,-0.10082982
1764762732.807879,-4.10494,0.82404,0.42728,-0.921323325,0.3491202,-0.10082982
1764762732.807879,-4.10494,0.82404,0.42728,-0.921323325,0.3491202,-0.10082982
1764762732.807879,-4.10494,0.82404,0.42728,-0.921323325,0.3491202,-0.10082982
1764762732.807879,-4.10494,0.82404,0.42728,-0.921323325,0.3491202,-0.10082982
1764762732.807879,-4.10494,0.82404,0.42728,-0.921323325,0.3491202,-0.10082982
1764762732.807879,-4.10494,0.82404,0.42728,-0.921323325,0.3491202,-0.10082982
1764762732.807879,-4.3491,0.10682,0.3357199999999999,-0.92150643,0.349547445,-0.10021947
1764762732.8083854,-4.3491,0.10682,0.3357199999999999,-0.92150643,0.349547445,-0.10021947
1764762732.8083854,-4.3491,0.10682,0.3357199999999999,-0.92150643,0.349547445,-0.10021947
1764762732.8083854,-4.3491,0.10682,0.3357199999999999,-0.92150643,0.349547445,-0.10021947
1764762732.8083854,-4.3491,0.10682,0.3357199999999999,-0.92150643,0.349547445,-0.10021947
1764762732.8083854,-4.3491,0.10682,0.3357199999999999,-0.92150643,0.349547445,-0.10021947
1764762732.8083854,-4.3491,0.10682,0.3357199999999999,-0.92150643,0.349547445,-0.10021947
1764762732.8083854,-4.3491,0.10682,0.3357199999999999,-0.92150643,0.349547445,-0.10021947
1764762732.8083854,-4.3491,0.10682,0.3357199999999999,-0.92150643,0.349547445,-0.10021947
1764762732.8083854,-4.3491,0.10682,0.3357199999999999,-0.92150643,0.349547445,-0.10021947
1764762732.8083854,-4.08968,0.48832,0.47306,-0.92187264,0.35253816,-0.10021947
1764762732.8083854,-4.08968,0.48832,0.47306,-0.92187264,0.35253816,-0.10021947
1764762732.8083854,-4.08968,0.48832,0.47306,-0.92187264,0.35253816,-0.10021947
1764762732.8083854,-4.08968,0.48832,0.47306,-0.92187264,0.35253816,-0.10021947
1764762732.8083854,-4.08968,0.48832,0.47306,-0.92187264,0.35253816,-0.10021947
1764762732.8083854,-4.08968,0.48832,0.47306,-0.92187264,0.35253816,-0.10021947
1764762732.8544333,-4.08968,0.48832,0.47306,-0.92187264,0.35253816,-0.10021947
1764762732.8544333,-4.08968,0.48832,0.47306,-0.92187264,0.35253816,-0.10021947
1764762732.8544333,-4.08968,0.48832,0.47306,-0.92187264,0.35253816,-0.10021947
1764762732.8544333,-4.08968,0.48832,0.47306,-0.92187264,0.35253816,-0.10021947
1764762732.8544333,-4.18124,0.9003399999999999,0.74774,-0.92126229,0.355162665,-0.10082982
1764762732.8544333,-4.18124,0.9003399999999999,0.74774,-0.92126229,0.355162665,-0.10082982
1764762732.8544333,-4.18124,0.9003399999999999,0.74774,-0.92126229,0.355162665,-0.10082982
1764762732.8544333,-4.18124,0.9003399999999999,0.74774,-0.92126229,0.355162665,-0.10082982
1764762732.8544333,-4.18124,0.9003399999999999,0.74774,-0.92126229,0.355162665,-0.10082982
1764762732.8544333,-4.18124,0.9003399999999999,0.74774,-0.92126229,0.355162665,-0.10082982
1764762732.8544333,-4.18124,0.9003399999999999,0.74774,-0.92126229,0.355162665,-0.10082982
1764762732.8544333,-4.18124,0.9003399999999999,0.74774,-0.92126229,0.355162665,-0.10082982
1764762732.8544333,-4.18124,0.9003399999999999,0.74774,-0.92126229,0.355162665,-0.10082982
1764762732.8544333,-4.18124,0.9003399999999999,0.74774,-0.92126229,0.355162665,-0.10082982
1764762732.8544333,-4.31858,0.82404,0.763,-0.920590905,0.35546784,-0.10107396
1764762732.8544333,-4.31858,0.82404,0.763,-0.920590905,0.35546784,-0.10107396
1764762732.8544333,-4.31858,0.82404,0.763,-0.920590905,0.35546784,-0.10107396
1764762732.8554392,-4.31858,0.82404,0.763,-0.920590905,0.35546784,-0.10107396
1764762732.8554392,-4.31858,0.82404,0.763,-0.920590905,0.35546784,-0.10107396
1764762732.8554392,-4.31858,0.82404,0.763,-0.920590905,0.35546784,-0.10107396
1764762732.8554392,-4.31858,0.82404,0.763,-0.920590905,0.35546784,-0.10107396
1764762732.8554392,-4.31858,0.82404,0.763,-0.920590905,0.35546784,-0.10107396
1764762732.9018009,-4.31858,0.82404,0.763,-0.920590905,0.35546784,-0.10107396
1764762732.9018009,-4.31858,0.82404,0.763,-0.920590905,0.35546784,-0.10107396
1764762732.9018009,-4.76112,0.6409199999999999,0.88508,-0.920224695,0.35388093,-0.10034154
1764762732.9018009,-4.76112,0.6409199999999999,0.88508,-0.920224695,0.35388093,-0.10034154
1764762732.9018009,-4.76112,0.6409199999999999,0.88508,-0.920224695,0.35388093,-0.10034154
1764762732.9018009,-4.76112,0.6409199999999999,0.88508,-0.920224695,0.35388093,-0.10034154
1764762732.9018009,-4.76112,0.6409199999999999,0.88508,-0.920224695,0.35388093,-0.10034154
1764762732.9018009,-4.76112,0.6409199999999999,0.88508,-0.920224695,0.35388093,-0.10034154
1764762732.9018009,-4.76112,0.6409199999999999,0.88508,-0.920224695,0.35388093,-0.10034154
1764762732.9018009,-4.76112,0.6409199999999999,0.88508,-0.920224695,0.35388093,-0.10034154
1764762732.9018009,-4.76112,0.6409199999999999,0.88508,-0.920224695,0.35388093,-0.10034154
1764762732.9018009,-4.76112,0.6409199999999999,0.88508,-0.920224695,0.35388093,-0.10034154
1764762732.9018009,-4.51696,0.41202,0.96138,-0.91991952,0.35131746,-0.101257065
1764762732.9018009,-4.51696,0.41202,0.96138,-0.91991952,0.35131746,-0.101257065
1764762732.9018009,-4.51696,0.41202,0.96138,-0.91991952,0.35131746,-0.101257065
1764762732.9018009,-4.51696,0.41202,0.96138,-0.91991952,0.35131746,-0.101257065
1764762732.9018009,-4.51696,0.41202,0.96138,-0.91991952,0.35131746,-0.101257065
1764762732.9018009,-4.51696,0.41202,0.96138,-0.91991952,0.35131746,-0.101257065
1764762732.9018009,-4.51696,0.41202,0.96138,-0.91991952,0.35131746,-0.101257065
1764762732.9018009,-4.51696,0.41202,0.96138,-0.91991952,0.35131746,-0.101257065
1764762732.9018009,-4.51696,0.41202,0.96138,-0.91991952,0.35131746,-0.101257065
1764762732.9018009,-4.51696,0.41202,0.96138,-0.91991952,0.35131746,-0.101257065
1764762732.9450705,-4.91372,0.8698199999999999,0.73248,-0.920957115,0.35107332,-0.101134995
1764762732.9450705,-4.91372,0.8698199999999999,0.73248,-0.920957115,0.35107332,-0.101134995
1764762732.9450705,-4.91372,0.8698199999999999,0.73248,-0.920957115,0.35107332,-0.101134995
1764762732.9450705,-4.91372,0.8698199999999999,0.73248,-0.920957115,0.35107332,-0.101134995
1764762732.9450705,-4.91372,0.8698199999999999,0.73248,-0.920957115,0.35107332,-0.101134995
1764762732.9450705,-4.91372,0.8698199999999999,0.73248,-0.920957115,0.35107332,-0.101134995
1764762732.9450705,-4.91372,0.8698199999999999,0.73248,-0.920957115,0.35107332,-0.101134995
1764762732.9450705,-4.91372,0.8698199999999999,0.73248,-0.920957115,0.35107332,-0.101134995
1764762732.9450705,-4.91372,0.8698199999999999,0.73248,-0.920957115,0.35107332,-0.101134995
1764762732.9450705,-4.91372,0.8698199999999999,0.73248,-0.920957115,0.35107332,-0.101134995
1764762732.9450705,-4.4254,0.48832,-0.03052,-0.921201255,0.351012285,-0.100036365
1764762732.9450705,-4.4254,0.48832,-0.03052,-0.921201255,0.351012285,-0.100036365
1764762732.9450705,-4.4254,0.48832,-0.03052,-0.921201255,0.351012285,-0.100036365
1764762732.9450705,-4.4254,0.48832,-0.03052,-0.921201255,0.351012285,-0.100036365
1764762732.9450705,-4.4254,0.48832,-0.03052,-0.921201255,0.351012285,-0.100036365
1764762732.9450705,-4.4254,0.48832,-0.03052,-0.921201255,0.351012285,-0.100036365
1764762732.9450705,-4.4254,0.48832,-0.03052,-0.921201255,0.351012285,-0.100036365
1764762732.9450705,-4.4254,0.48832,-0.03052,-0.921201255,0.351012285,-0.100036365
1764762732.9450705,-4.4254,0.48832,-0.03052,-0.921201255,0.351012285,-0.100036365
1764762732.9450705,-4.4254,0.48832,-0.03052,-0.921201255,0.351012285,-0.100036365
1764762732.9450705,-4.2728,0.47306,0.50358,-0.920835045,0.35107332,-0.09985326
1764762732.9450705,-4.2728,0.47306,0.50358,-0.920835045,0.35107332,-0.09985326
1764762732.9450705,-4.2728,0.47306,0.50358,-0.920835045,0.35107332,-0.09985326
1764762732.9450705,-4.2728,0.47306,0.50358,-0.920835045,0.35107332,-0.09985326
1764762732.9958022,-4.2728,0.47306,0.50358,-0.920835045,0.35107332,-0.09985326
1764762732.9958022,-4.2728,0.47306,0.50358,-0.920835045,0.35107332,-0.09985326
1764762732.9958022,-4.2728,0.47306,0.50358,-0.920835045,0.35107332,-0.09985326
1764762732.9958022,-4.2728,0.47306,0.50358,-0.920835045,0.35107332,-0.09985326
1764762732.9958022,-4.2728,0.47306,0.50358,-0.920835045,0.35107332,-0.09985326
1764762732.9958022,-4.2728,0.47306,0.50358,-0.920835045,0.35107332,-0.09985326
1764762732.9958022,-4.01338,0.57988,0.85456,-0.92052987,0.351012285,-0.101134995
1764762732.9958022,-4.01338,0.57988,0.85456,-0.92052987,0.351012285,-0.101134995
1764762732.9958022,-4.01338,0.57988,0.85456,-0.92052987,0.351012285,-0.101134995
1764762732.9958022,-4.01338,0.57988,0.85456,-0.92052987,0.351012285,-0.101134995
1764762732.9958022,-4.01338,0.57988,0.85456,-0.92052987,0.351012285,-0.101134995
1764762732.9958022,-4.01338,0.57988,0.85456,-0.92052987,0.351012285,-0.101134995
1764762732.9958022,-4.01338,0.57988,0.85456,-0.92052987,0.351012285,-0.101134995
1764762732.9958022,-4.01338,0.57988,0.85456,-0.92052987,0.351012285,-0.101134995
1764762732.9958022,-4.01338,0.57988,0.85456,-0.92052987,0.351012285,-0.101134995
1764762732.9958022,-4.01338,0.57988,0.85456,-0.92052987,0.351012285,-0.101134995
1764762732.9958022,-4.15072,1.08346,0.79352,-0.92004159,0.351378495,-0.10229466
1764762732.9958022,-4.15072,1.08346,0.79352,-0.92004159,0.351378495,-0.10229466
1764762732.9958022,-4.15072,1.08346,0.79352,-0.92004159,0.351378495,-0.10229466
1764762732.9958022,-4.15072,1.08346,0.79352,-0.92004159,0.351378495,-0.10229466
1764762732.9958022,-4.15072,1.08346,0.79352,-0.92004159,0.351378495,-0.10229466
1764762732.9958022,-4.15072,1.08346,0.79352,-0.92004159,0.351378495,-0.10229466
1764762732.9958022,-4.15072,1.08346,0.79352,-0.92004159,0.351378495,-0.10229466
1764762732.9958022,-4.15072,1.08346,0.79352,-0.92004159,0.351378495,-0.10229466
1764762733.0390856,-4.15072,1.08346,0.79352,-0.92004159,0.351378495,-0.10229466
1764762733.0390856,-4.15072,1.08346,0.79352,-0.92004159,0.351378495,-0.10229466
1764762733.0390856,-3.86078,1.2055399999999998,0.44254,-0.919736415,0.351744705,-0.10168431
1764762733.0390856,-3.86078,1.2055399999999998,0.44254,-0.919736415,0.351744705,-0.10168431
1764762733.0390856,-3.86078,1.2055399999999998,0.44254,-0.919736415,0.351744705,-0.10168431
1764762733.0390856,-3.86078,1.2055399999999998,0.44254,-0.919736415,0.351744705,-0.10168431
1764762733.0390856,-3.86078,1.2055399999999998,0.44254,-0.919736415,0.351744705,-0.10168431
1764762733.0390856,-3.86078,1.2055399999999998,0.44254,-0.919736415,0.351744705,-0.10168431
1764762733.0390856,-3.86078,1.2055399999999998,0.44254,-0.919736415,0.351744705,-0.10168431
1764762733.0396044,-3.86078,1.2055399999999998,0.44254,-0.919736415,0.351744705,-0.10168431
1764762733.0396044,-3.86078,1.2055399999999998,0.44254,-0.919736415,0.351744705,-0.10168431
1764762733.0396044,-3.86078,1.2055399999999998,0.44254,-0.919736415,0.351744705,-0.10168431
1764762733.0396044,-3.98286,1.09872,0.54936,-0.919736415,0.352355055,-0.10144017
1764762733.0396044,-3.98286,1.09872,0.54936,-0.919736415,0.352355055,-0.10144017
1764762733.0396044,-3.98286,1.09872,0.54936,-0.919736415,0.352355055,-0.10144017
1764762733.0396044,-3.98286,1.09872,0.54936,-0.919736415,0.352355055,-0.10144017
1764762733.0396044,-3.98286,1.09872,0.54936,-0.919736415,0.352355055,-0.10144017
1764762733.0396044,-3.98286,1.09872,0.54936,-0.919736415,0.352355055,-0.10144017
1764762733.0396044,-3.98286,1.09872,0.54936,-0.919736415,0.352355055,-0.10144017
1764762733.0396044,-3.98286,1.09872,0.54936,-0.919736415,0.352355055,-0.10144017
1764762733.0396044,-3.98286,1.09872,0.54936,-0.919736415,0.352355055,-0.10144017
1764762733.0396044,-3.98286,1.09872,0.54936,-0.919736415,0.352355055,-0.10144017
1764762733.0396044,-5.96666,0.48832,0.3051999999999999,-0.920346765,0.35412507,-0.100280505
1764762733.0396044,-5.96666,0.48832,0.3051999999999999,-0.920346765,0.35412507,-0.100280505
1764762733.085297,-5.96666,0.48832,0.3051999999999999,-0.920346765,0.35412507,-0.100280505
1764762733.085297,-5.96666,0.48832,0.3051999999999999,-0.920346765,0.35412507,-0.100280505
1764762733.085297,-5.96666,0.48832,0.3051999999999999,-0.920346765,0.35412507,-0.100280505
1764762733.085297,-5.96666,0.48832,0.3051999999999999,-0.920346765,0.35412507,-0.100280505
1764762733.085297,-5.96666,0.48832,0.3051999999999999,-0.920346765,0.35412507,-0.100280505
1764762733.085297,-5.96666,0.48832,0.3051999999999999,-0.920346765,0.35412507,-0.100280505
1764762733.085297,-5.96666,0.48832,0.3051999999999999,-0.920346765,0.35412507,-0.100280505
1764762733.085297,-5.96666,0.48832,0.3051999999999999,-0.920346765,0.35412507,-0.100280505
1764762733.085297,-5.17314,-0.42728,-0.12208,-0.92089608,0.354186105,-0.099792225
1764762733.085297,-5.17314,-0.42728,-0.12208,-0.92089608,0.354186105,-0.099792225
1764762733.085297,-5.17314,-0.42728,-0.12208,-0.92089608,0.354186105,-0.099792225
1764762733.085297,-5.17314,-0.42728,-0.12208,-0.92089608,0.354186105,-0.099792225
1764762733.085297,-5.17314,-0.42728,-0.12208,-0.92089608,0.354186105,-0.099792225
1764762733.085297,-5.17314,-0.42728,-0.12208,-0.92089608,0.354186105,-0.099792225
1764762733.085297,-5.17314,-0.42728,-0.12208,-0.92089608,0.354186105,-0.099792225
1764762733.085297,-5.17314,-0.42728,-0.12208,-0.92089608,0.354186105,-0.099792225
1764762733.085297,-5.17314,-0.42728,-0.12208,-0.92089608,0.354186105,-0.099792225
1764762733.085297,-5.17314,-0.42728,-0.12208,-0.92089608,0.354186105,-0.099792225
1764762733.085297,-3.93708,0.24416,-0.51884,-0.92016366,0.352355055,-0.102355695
1764762733.085297,-3.93708,0.24416,-0.51884,-0.92016366,0.352355055,-0.102355695
1764762733.085297,-3.93708,0.24416,-0.51884,-0.92016366,0.352355055,-0.102355695
1764762733.085297,-3.93708,0.24416,-0.51884,-0.92016366,0.352355055,-0.102355695
1764762733.132165,-3.93708,0.24416,-0.51884,-0.92016366,0.352355055,-0.102355695
1764762733.132165,-3.93708,0.24416,-0.51884,-0.92016366,0.352355055,-0.102355695
1764762733.132165,-3.93708,0.24416,-0.51884,-0.92016366,0.352355055,-0.102355695
1764762733.132165,-3.93708,0.24416,-0.51884,-0.92016366,0.352355055,-0.102355695
1764762733.132165,-3.93708,0.24416,-0.51884,-0.92016366,0.352355055,-0.102355695
1764762733.132165,-3.93708,0.24416,-0.51884,-0.92016366,0.352355055,-0.102355695
1764762733.132165,-4.54748,0.8698199999999999,-0.06104,-0.91894296,0.35314851,-0.103454325
1764762733.132165,-4.54748,0.8698199999999999,-0.06104,-0.91894296,0.35314851,-0.103454325
1764762733.132165,-4.54748,0.8698199999999999,-0.06104,-0.91894296,0.35314851,-0.103454325
1764762733.132165,-4.54748,0.8698199999999999,-0.06104,-0.91894296,0.35314851,-0.103454325
1764762733.132165,-4.54748,0.8698199999999999,-0.06104,-0.91894296,0.35314851,-0.103454325
1764762733.132165,-4.54748,0.8698199999999999,-0.06104,-0.91894296,0.35314851,-0.103454325
1764762733.132165,-4.54748,0.8698199999999999,-0.06104,-0.91894296,0.35314851,-0.103454325
1764762733.132165,-4.54748,0.8698199999999999,-0.06104,-0.91894296,0.35314851,-0.103454325
1764762733.132165,-4.54748,0.8698199999999999,-0.06104,-0.91894296,0.35314851,-0.103454325
1764762733.132165,-4.54748,0.8698199999999999,-0.06104,-0.91894296,0.35314851,-0.103454325
1764762733.132165,-7.00434,0.6867,0.59514,-0.921079185,0.355895085,-0.103332255
1764762733.132165,-7.00434,0.6867,0.59514,-0.921079185,0.355895085,-0.103332255
1764762733.132165,-7.00434,0.6867,0.59514,-0.921079185,0.355895085,-0.103332255
1764762733.132165,-7.00434,0.6867,0.59514,-0.921079185,0.355895085,-0.103332255
1764762733.132165,-7.00434,0.6867,0.59514,-0.921079185,0.355895085,-0.103332255
1764762733.132165,-7.00434,0.6867,0.59514,-0.921079185,0.355895085,-0.103332255
1764762733.1789446,-7.00434,0.6867,0.59514,-0.921079185,0.355895085,-0.103332255
1764762733.1789446,-7.00434,0.6867,0.59514,-0.921079185,0.355895085,-0.103332255
1764762733.1789446,-7.00434,0.6867,0.59514,-0.921079185,0.355895085,-0.103332255
1764762733.1789446,-7.00434,0.6867,0.59514,-0.921079185,0.355895085,-0.103332255
1764762733.1789446,-6.165039999999999,0.51884,0.39676,-0.923276445,0.35693268,-0.101501205
1764762733.1789446,-6.165039999999999,0.51884,0.39676,-0.923276445,0.35693268,-0.101501205
1764762733.1789446,-6.165039999999999,0.51884,0.39676,-0.923276445,0.35693268,-0.101501205
1764762733.1789446,-6.165039999999999,0.51884,0.39676,-0.923276445,0.35693268,-0.101501205
1764762733.1789446,-6.165039999999999,0.51884,0.39676,-0.923276445,0.35693268,-0.101501205
1764762733.1789446,-6.165039999999999,0.51884,0.39676,-0.923276445,0.35693268,-0.101501205
1764762733.1789446,-6.165039999999999,0.51884,0.39676,-0.923276445,0.35693268,-0.101501205
1764762733.1789446,-6.165039999999999,0.51884,0.39676,-0.923276445,0.35693268,-0.101501205
1764762733.1789446,-6.165039999999999,0.51884,0.39676,-0.923276445,0.35693268,-0.101501205
1764762733.1789446,-6.165039999999999,0.51884,0.39676,-0.923276445,0.35693268,-0.101501205
1764762733.1789446,-5.76828,0.71722,-0.12208,-0.92297127,0.354186105,-0.099670155
1764762733.1789446,-5.76828,0.71722,-0.12208,-0.92297127,0.354186105,-0.099670155
1764762733.1789446,-5.76828,0.71722,-0.12208,-0.92297127,0.354186105,-0.099670155
1764762733.1789446,-5.76828,0.71722,-0.12208,-0.92297127,0.354186105,-0.099670155
1764762733.1789446,-5.76828,0.71722,-0.12208,-0.92297127,0.354186105,-0.099670155
1764762733.1789446,-5.76828,0.71722,-0.12208,-0.92297127,0.354186105,-0.099670155
1764762733.1789446,-5.76828,0.71722,-0.12208,-0.92297127,0.354186105,-0.099670155
1764762733.1789446,-5.76828,0.71722,-0.12208,-0.92297127,0.354186105,-0.099670155
1764762733.1789446,-5.76828,0.71722,-0.12208,-0.92297127,0.354186105,-0.099670155
1764762733.1789446,-5.76828,0.71722,-0.12208,-0.92297127,0.354186105,-0.099670155
1764762733.2255845,-5.21892,0.42728,-0.3509799999999999,-0.92052987,0.35131746,-0.09997533
1764762733.2255845,-5.21892,0.42728,-0.3509799999999999,-0.92052987,0.35131746,-0.09997533
1764762733.2255845,-5.21892,0.42728,-0.3509799999999999,-0.92052987,0.35131746,-0.09997533
1764762733.2255845,-5.21892,0.42728,-0.3509799999999999,-0.92052987,0.35131746,-0.09997533
1764762733.2255845,-5.21892,0.42728,-0.3509799999999999,-0.92052987,0.35131746,-0.09997533
1764762733.2255845,-5.21892,0.42728,-0.3509799999999999,-0.92052987,0.35131746,-0.09997533
1764762733.2255845,-5.21892,0.42728,-0.3509799999999999,-0.92052987,0.35131746,-0.09997533
1764762733.2255845,-5.21892,0.42728,-0.3509799999999999,-0.92052987,0.35131746,-0.09997533
1764762733.2255845,-5.21892,0.42728,-0.3509799999999999,-0.92052987,0.35131746,-0.09997533
1764762733.2255845,-5.21892,0.42728,-0.3509799999999999,-0.92052987,0.35131746,-0.09997533
1764762733.2255845,-4.94424,1.2208,0.9003399999999999,-0.918637785,0.350646075,-0.1000974
1764762733.2255845,-4.94424,1.2208,0.9003399999999999,-0.918637785,0.350646075,-0.1000974
1764762733.2255845,-4.94424,1.2208,0.9003399999999999,-0.918637785,0.350646075,-0.1000974
1764762733.2255845,-4.94424,1.2208,0.9003399999999999,-0.918637785,0.350646075,-0.1000974
1764762733.2255845,-4.94424,1.2208,0.9003399999999999,-0.918637785,0.350646075,-0.1000974
1764762733.2255845,-4.94424,1.2208,0.9003399999999999,-0.918637785,0.350646075,-0.1000974
1764762733.2260923,-4.94424,1.2208,0.9003399999999999,-0.918637785,0.350646075,-0.1000974
1764762733.2260923,-4.94424,1.2208,0.9003399999999999,-0.918637785,0.350646075,-0.1000974
1764762733.2260923,-4.94424,1.2208,0.9003399999999999,-0.918637785,0.350646075,-0.1000974
1764762733.2260923,-4.94424,1.2208,0.9003399999999999,-0.918637785,0.350646075,-0.1000974
1764762733.2260923,-4.51696,1.38866,1.15976,-0.919858485,0.349181235,-0.100280505
1764762733.2260923,-4.51696,1.38866,1.15976,-0.919858485,0.349181235,-0.100280505
1764762733.2260923,-4.51696,1.38866,1.15976,-0.919858485,0.349181235,-0.100280505
1764762733.2260923,-4.51696,1.38866,1.15976,-0.919858485,0.349181235,-0.100280505
1764762733.2750838,-4.51696,1.38866,1.15976,-0.919858485,0.349181235,-0.100280505
1764762733.2750838,-4.51696,1.38866,1.15976,-0.919858485,0.349181235,-0.100280505
1764762733.2750838,-4.51696,1.38866,1.15976,-0.919858485,0.349181235,-0.100280505
1764762733.2750838,-4.51696,1.38866,1.15976,-0.919858485,0.349181235,-0.100280505
1764762733.2750838,-4.51696,1.38866,1.15976,-0.919858485,0.349181235,-0.100280505
1764762733.2750838,-4.51696,1.38866,1.15976,-0.919858485,0.349181235,-0.100280505
1764762733.2750838,-4.059159999999999,1.87698,1.2971,-0.922910235,0.348448815,-0.101134995
1764762733.2750838,-4.059159999999999,1.87698,1.2971,-0.922910235,0.348448815,-0.101134995
1764762733.2750838,-4.059159999999999,1.87698,1.2971,-0.922910235,0.348448815,-0.101134995
1764762733.2750838,-4.059159999999999,1.87698,1.2971,-0.922910235,0.348448815,-0.101134995
1764762733.2750838,-4.059159999999999,1.87698,1.2971,-0.922910235,0.348448815,-0.101134995
1764762733.2750838,-4.059159999999999,1.87698,1.2971,-0.922910235,0.348448815,-0.101134995
1764762733.2750838,-4.059159999999999,1.87698,1.2971,-0.922910235,0.348448815,-0.101134995
1764762733.2750838,-4.059159999999999,1.87698,1.2971,-0.922910235,0.348448815,-0.101134995
1764762733.2750838,-4.059159999999999,1.87698,1.2971,-0.922910235,0.348448815,-0.101134995
1764762733.2750838,-4.059159999999999,1.87698,1.2971,-0.922910235,0.348448815,-0.101134995
1764762733.2750838,-3.87604,1.63282,0.94612,-0.92199471,0.34948641,-0.10095189
1764762733.2750838,-3.87604,1.63282,0.94612,-0.92199471,0.34948641,-0.10095189
1764762733.2750838,-3.87604,1.63282,0.94612,-0.92199471,0.34948641,-0.10095189
1764762733.2750838,-3.87604,1.63282,0.94612,-0.92199471,0.34948641,-0.10095189
1764762733.2750838,-3.87604,1.63282,0.94612,-0.92199471,0.34948641,-0.10095189
1764762733.2750838,-3.87604,1.63282,0.94612,-0.92199471,0.34948641,-0.10095189
1764762733.2750838,-3.87604,1.63282,0.94612,-0.92199471,0.34948641,-0.10095189
1764762733.2750838,-3.87604,1.63282,0.94612,-0.92199471,0.34948641,-0.10095189
1764762733.3184838,-3.87604,1.63282,0.94612,-0.92199471,0.34948641,-0.10095189
1764762733.3184838,-3.87604,1.63282,0.94612,-0.92199471,0.34948641,-0.10095189
1764762733.3184838,-3.86078,1.41918,0.4578,-0.92150643,0.35131746,-0.09936498
1764762733.3184838,-3.86078,1.41918,0.4578,-0.92150643,0.35131746,-0.09936498
1764762733.3184838,-3.86078,1.41918,0.4578,-0.92150643,0.35131746,-0.09936498
1764762733.3184838,-3.86078,1.41918,0.4578,-0.92150643,0.35131746,-0.09936498
1764762733.3184838,-3.86078,1.41918,0.4578,-0.92150643,0.35131746,-0.09936498
1764762733.3184838,-3.86078,1.41918,0.4578,-0.92150643,0.35131746,-0.09936498
1764762733.3184838,-3.86078,1.41918,0.4578,-0.92150643,0.35131746,-0.09936498
1764762733.3184838,-3.86078,1.41918,0.4578,-0.92150643,0.35131746,-0.09936498
1764762733.319523,-3.86078,1.41918,0.4578,-0.92150643,0.35131746,-0.09936498
1764762733.319523,-3.86078,1.41918,0.4578,-0.92150643,0.35131746,-0.09936498
1764762733.319523,-2.33478,0.9919,0.09156,-0.921567465,0.35192781,-0.09960912
1764762733.319523,-2.33478,0.9919,0.09156,-0.921567465,0.35192781,-0.09960912
1764762733.319523,-2.33478,0.9919,0.09156,-0.921567465,0.35192781,-0.09960912
1764762733.319523,-2.33478,0.9919,0.09156,-0.921567465,0.35192781,-0.09960912
1764762733.319523,-2.33478,0.9919,0.09156,-0.921567465,0.35192781,-0.09960912
1764762733.319523,-2.33478,0.9919,0.09156,-0.921567465,0.35192781,-0.09960912
1764762733.319523,-2.33478,0.9919,0.09156,-0.921567465,0.35192781,-0.09960912
1764762733.319523,-2.33478,0.9919,0.09156,-0.921567465,0.35192781,-0.09960912
1764762733.3207338,-2.33478,0.9919,0.09156,-0.921567465,0.35192781,-0.09960912
1764762733.3207338,-2.33478,0.9919,0.09156,-0.921567465,0.35192781,-0.09960912
1764762733.3207338,-1.55652,1.6022999999999998,-0.3509799999999999,-0.919492275,0.35095125,-0.09973119
1764762733.3207338,-1.55652,1.6022999999999998,-0.3509799999999999,-0.919492275,0.35095125,-0.09973119
1764762733.3678803,-1.55652,1.6022999999999998,-0.3509799999999999,-0.919492275,0.35095125,-0.09973119
1764762733.3689616,-1.55652,1.6022999999999998,-0.3509799999999999,-0.919492275,0.35095125,-0.09973119
1764762733.3689616,-1.55652,1.6022999999999998,-0.3509799999999999,-0.919492275,0.35095125,-0.09973119
1764762733.3689616,-1.55652,1.6022999999999998,-0.3509799999999999,-0.919492275,0.35095125,-0.09973119
1764762733.3689616,-1.55652,1.6022999999999998,-0.3509799999999999,-0.919492275,0.35095125,-0.09973119
1764762733.3689616,-1.55652,1.6022999999999998,-0.3509799999999999,-0.919492275,0.35095125,-0.09973119
1764762733.3689616,-1.55652,1.6022999999999998,-0.3509799999999999,-0.919492275,0.35095125,-0.09973119
1764762733.3689616,-1.55652,1.6022999999999998,-0.3509799999999999,-0.919492275,0.35095125,-0.09973119
1764762733.3689616,-1.58704,0.65618,0.12208,-0.920835045,0.352965405,-0.101134995
1764762733.3689616,-1.58704,0.65618,0.12208,-0.920835045,0.352965405,-0.101134995
1764762733.3689616,-1.58704,0.65618,0.12208,-0.920835045,0.352965405,-0.101134995
1764762733.3689616,-1.58704,0.65618,0.12208,-0.920835045,0.352965405,-0.101134995
1764762733.3689616,-1.58704,0.65618,0.12208,-0.920835045,0.352965405,-0.101134995
1764762733.3699589,-1.58704,0.65618,0.12208,-0.920835045,0.352965405,-0.101134995
1764762733.3699589,-1.58704,0.65618,0.12208,-0.920835045,0.352965405,-0.101134995
1764762733.3699589,-1.58704,0.65618,0.12208,-0.920835045,0.352965405,-0.101134995
1764762733.3699589,-1.58704,0.65618,0.12208,-0.920835045,0.352965405,-0.101134995
1764762733.3699589,-1.58704,0.65618,0.12208,-0.920835045,0.352965405,-0.101134995
1764762733.3699589,-3.34194,2.07536,0.03052,-0.91967538,0.35681061,-0.105285375
1764762733.3699589,-3.34194,2.07536,0.03052,-0.91967538,0.35681061,-0.105285375
1764762733.3708713,-3.34194,2.07536,0.03052,-0.91967538,0.35681061,-0.105285375
1764762733.3708713,-3.34194,2.07536,0.03052,-0.91967538,0.35681061,-0.105285375
1764762733.4131808,-3.34194,2.07536,0.03052,-0.91967538,0.35681061,-0.105285375
1764762733.4131808,-3.34194,2.07536,0.03052,-0.91967538,0.35681061,-0.105285375
1764762733.4131808,-3.34194,2.07536,0.03052,-0.91967538,0.35681061,-0.105285375
1764762733.4131808,-3.34194,2.07536,0.03052,-0.91967538,0.35681061,-0.105285375
1764762733.4131808,-3.34194,2.07536,0.03052,-0.91967538,0.35681061,-0.105285375
1764762733.4131808,-3.34194,2.07536,0.03052,-0.91967538,0.35681061,-0.105285375
1764762733.4131808,-4.77638,2.33478,0.4578,-0.920224695,0.359435115,-0.10644504
1764762733.4131808,-4.77638,2.33478,0.4578,-0.920224695,0.359435115,-0.10644504
1764762733.4131808,-4.77638,2.33478,0.4578,-0.920224695,0.359435115,-0.10644504
1764762733.4131808,-4.77638,2.33478,0.4578,-0.920224695,0.359435115,-0.10644504
1764762733.4131808,-4.77638,2.33478,0.4578,-0.920224695,0.359435115,-0.10644504
1764762733.4131808,-4.77638,2.33478,0.4578,-0.920224695,0.359435115,-0.10644504
1764762733.4131808,-4.77638,2.33478,0.4578,-0.920224695,0.359435115,-0.10644504
1764762733.4131808,-4.77638,2.33478,0.4578,-0.920224695,0.359435115,-0.10644504
1764762733.4131808,-4.77638,2.33478,0.4578,-0.920224695,0.359435115,-0.10644504
1764762733.4131808,-4.77638,2.33478,0.4578,-0.920224695,0.359435115,-0.10644504
1764762733.4131808,-4.7306,1.12924,0.10682,-0.92114022,0.358458555,-0.10180638
1764762733.4131808,-4.7306,1.12924,0.10682,-0.92114022,0.358458555,-0.10180638
1764762733.4131808,-4.7306,1.12924,0.10682,-0.92114022,0.358458555,-0.10180638
1764762733.4131808,-4.7306,1.12924,0.10682,-0.92114022,0.358458555,-0.10180638
1764762733.4131808,-4.7306,1.12924,0.10682,-0.92114022,0.358458555,-0.10180638
1764762733.4131808,-4.7306,1.12924,0.10682,-0.92114022,0.358458555,-0.10180638
1764762733.4131808,-4.7306,1.12924,0.10682,-0.92114022,0.358458555,-0.10180638
1764762733.4131808,-4.7306,1.12924,0.10682,-0.92114022,0.358458555,-0.10180638
1764762733.4605894,-4.7306,1.12924,0.10682,-0.92114022,0.358458555,-0.10180638
1764762733.4605894,-4.7306,1.12924,0.10682,-0.92114022,0.358458555,-0.10180638
1764762733.4605894,-3.37246,-0.04578,0.06104,-0.921079185,0.353331615,-0.09948705
1764762733.4605894,-3.37246,-0.04578,0.06104,-0.921079185,0.353331615,-0.09948705
1764762733.4605894,-3.37246,-0.04578,0.06104,-0.921079185,0.353331615,-0.09948705
1764762733.4605894,-3.37246,-0.04578,0.06104,-0.921079185,0.353331615,-0.09948705
1764762733.4605894,-3.37246,-0.04578,0.06104,-0.921079185,0.353331615,-0.09948705
1764762733.4605894,-3.37246,-0.04578,0.06104,-0.921079185,0.353331615,-0.09948705
1764762733.4605894,-3.37246,-0.04578,0.06104,-0.921079185,0.353331615,-0.09948705
1764762733.4605894,-3.37246,-0.04578,0.06104,-0.921079185,0.353331615,-0.09948705
1764762733.4605894,-3.37246,-0.04578,0.06104,-0.921079185,0.353331615,-0.09948705
1764762733.4605894,-3.37246,-0.04578,0.06104,-0.921079185,0.353331615,-0.09948705
1764762733.4605894,-2.9757,0.21364,-0.01526,-0.921445395,0.350768145,-0.10107396
1764762733.4605894,-2.9757,0.21364,-0.01526,-0.921445395,0.350768145,-0.10107396
1764762733.4605894,-2.9757,0.21364,-0.01526,-0.921445395,0.350768145,-0.10107396
1764762733.4605894,-2.9757,0.21364,-0.01526,-0.921445395,0.350768145,-0.10107396
1764762733.4605894,-2.9757,0.21364,-0.01526,-0.921445395,0.350768145,-0.10107396
1764762733.4605894,-2.9757,0.21364,-0.01526,-0.921445395,0.350768145,-0.10107396
1764762733.4605894,-2.9757,0.21364,-0.01526,-0.921445395,0.350768145,-0.10107396
1764762733.4605894,-2.9757,0.21364,-0.01526,-0.921445395,0.350768145,-0.10107396
1764762733.4605894,-2.9757,0.21364,-0.01526,-0.921445395,0.350768145,-0.10107396
1764762733.4605894,-2.9757,0.21364,-0.01526,-0.921445395,0.350768145,-0.10107396
1764762733.50345,-3.72344,0.24416,0.42728,-0.922055745,0.35253816,-0.103088115
1764762733.5039582,-3.72344,0.24416,0.42728,-0.922055745,0.35253816,-0.103088115
1764762733.5039582,-3.72344,0.24416,0.42728,-0.922055745,0.35253816,-0.103088115
1764762733.5039582,-3.72344,0.24416,0.42728,-0.922055745,0.35253816,-0.103088115
1764762733.5039582,-3.72344,0.24416,0.42728,-0.922055745,0.35253816,-0.103088115
1764762733.5039582,-3.72344,0.24416,0.42728,-0.922055745,0.35253816,-0.103088115
1764762733.5039582,-3.72344,0.24416,0.42728,-0.922055745,0.35253816,-0.103088115
1764762733.5039582,-3.72344,0.24416,0.42728,-0.922055745,0.35253816,-0.103088115
1764762733.5039582,-3.72344,0.24416,0.42728,-0.922055745,0.35253816,-0.103088115
1764762733.5039582,-3.72344,0.24416,0.42728,-0.922055745,0.35253816,-0.103088115
1764762733.5039582,-4.8832,0.57988,-0.13734,-0.921445395,0.352965405,-0.10266087
1764762733.5039582,-4.8832,0.57988,-0.13734,-0.921445395,0.352965405,-0.10266087
1764762733.5039582,-4.8832,0.57988,-0.13734,-0.921445395,0.352965405,-0.10266087
1764762733.5039582,-4.8832,0.57988,-0.13734,-0.921445395,0.352965405,-0.10266087
1764762733.5039582,-4.8832,0.57988,-0.13734,-0.921445395,0.352965405,-0.10266087
1764762733.5039582,-4.8832,0.57988,-0.13734,-0.921445395,0.352965405,-0.10266087
1764762733.5039582,-4.8832,0.57988,-0.13734,-0.921445395,0.352965405,-0.10266087
1764762733.5039582,-4.8832,0.57988,-0.13734,-0.921445395,0.352965405,-0.10266087
1764762733.5039582,-4.8832,0.57988,-0.13734,-0.921445395,0.352965405,-0.10266087
1764762733.5039582,-4.8832,0.57988,-0.13734,-0.921445395,0.352965405,-0.10266087
1764762733.5039582,-4.77638,1.17502,0.09156,-0.921201255,0.35070711,-0.10180638
1764762733.5039582,-4.77638,1.17502,0.09156,-0.921201255,0.35070711,-0.10180638
1764762733.5532117,-4.77638,1.17502,0.09156,-0.921201255,0.35070711,-0.10180638
1764762733.5532117,-4.77638,1.17502,0.09156,-0.921201255,0.35070711,-0.10180638
1764762733.5532117,-4.77638,1.17502,0.09156,-0.921201255,0.35070711,-0.10180638
1764762733.5532117,-4.77638,1.17502,0.09156,-0.921201255,0.35070711,-0.10180638
1764762733.5532117,-4.77638,1.17502,0.09156,-0.921201255,0.35070711,-0.10180638
1764762733.5532117,-4.77638,1.17502,0.09156,-0.921201255,0.35070711,-0.10180638
1764762733.5532117,-4.77638,1.17502,0.09156,-0.921201255,0.35070711,-0.10180638
1764762733.5532117,-4.77638,1.17502,0.09156,-0.921201255,0.35070711,-0.10180638
1764762733.5532117,-3.67766,0.93086,0.3051999999999999,-0.920957115,0.34985262,-0.101012925
1764762733.5532117,-3.67766,0.93086,0.3051999999999999,-0.920957115,0.34985262,-0.101012925
1764762733.5532117,-3.67766,0.93086,0.3051999999999999,-0.920957115,0.34985262,-0.101012925
1764762733.5532117,-3.67766,0.93086,0.3051999999999999,-0.920957115,0.34985262,-0.101012925
1764762733.5532117,-3.67766,0.93086,0.3051999999999999,-0.920957115,0.34985262,-0.101012925
1764762733.5532117,-3.67766,0.93086,0.3051999999999999,-0.920957115,0.34985262,-0.101012925
1764762733.5532117,-3.67766,0.93086,0.3051999999999999,-0.920957115,0.34985262,-0.101012925
1764762733.5532117,-3.67766,0.93086,0.3051999999999999,-0.920957115,0.34985262,-0.101012925
1764762733.5532117,-3.67766,0.93086,0.3051999999999999,-0.920957115,0.34985262,-0.101012925
1764762733.5532117,-3.67766,0.93086,0.3051999999999999,-0.920957115,0.34985262,-0.101012925
1764762733.5532117,-2.8994,0.36624,0.3204599999999999,-0.92211678,0.349547445,-0.1000974
1764762733.5532117,-2.8994,0.36624,0.3204599999999999,-0.92211678,0.349547445,-0.1000974
1764762733.5532117,-2.8994,0.36624,0.3204599999999999,-0.92211678,0.349547445,-0.1000974
1764762733.5532117,-2.8994,0.36624,0.3204599999999999,-0.92211678,0.349547445,-0.1000974
1764762733.5532117,-2.8994,0.36624,0.3204599999999999,-0.92211678,0.349547445,-0.1000974
1764762733.5532117,-2.8994,0.36624,0.3204599999999999,-0.92211678,0.349547445,-0.1000974
1764762733.5966802,-2.8994,0.36624,0.3204599999999999,-0.92211678,0.349547445,-0.1000974
1764762733.5966802,-2.8994,0.36624,0.3204599999999999,-0.92211678,0.349547445,-0.1000974
1764762733.5966802,-2.8994,0.36624,0.3204599999999999,-0.92211678,0.349547445,-0.1000974
1764762733.5966802,-2.8994,0.36624,0.3204599999999999,-0.92211678,0.349547445,-0.1000974
1764762733.5966802,-2.33478,0.0762999999999999,-0.24416,-0.92236092,0.34997469,-0.100646715
1764762733.5966802,-2.33478,0.0762999999999999,-0.24416,-0.92236092,0.34997469,-0.100646715
1764762733.5966802,-2.33478,0.0762999999999999,-0.24416,-0.92236092,0.34997469,-0.100646715
1764762733.5966802,-2.33478,0.0762999999999999,-0.24416,-0.92236092,0.34997469,-0.100646715
1764762733.5966802,-2.33478,0.0762999999999999,-0.24416,-0.92236092,0.34997469,-0.100646715
1764762733.5966802,-2.33478,0.0762999999999999,-0.24416,-0.92236092,0.34997469,-0.100646715
1764762733.5966802,-2.33478,0.0762999999999999,-0.24416,-0.92236092,0.34997469,-0.100646715
1764762733.5966802,-2.33478,0.0762999999999999,-0.24416,-0.92236092,0.34997469,-0.100646715
1764762733.5979712,-2.33478,0.0762999999999999,-0.24416,-0.92236092,0.34997469,-0.100646715
1764762733.5979712,-2.33478,0.0762999999999999,-0.24416,-0.92236092,0.34997469,-0.100646715
1764762733.5979712,-4.15072,0.88508,-0.48832,-0.919614345,0.35314851,-0.10205052
1764762733.598476,-4.15072,0.88508,-0.48832,-0.919614345,0.35314851,-0.10205052
1764762733.598476,-4.15072,0.88508,-0.48832,-0.919614345,0.35314851,-0.10205052
1764762733.598476,-4.15072,0.88508,-0.48832,-0.919614345,0.35314851,-0.10205052
1764762733.598476,-4.15072,0.88508,-0.48832,-0.919614345,0.35314851,-0.10205052
1764762733.598476,-4.15072,0.88508,-0.48832,-0.919614345,0.35314851,-0.10205052
1764762733.598476,-4.15072,0.88508,-0.48832,-0.919614345,0.35314851,-0.10205052
1764762733.598476,-4.15072,0.88508,-0.48832,-0.919614345,0.35314851,-0.10205052
1764762733.647325,-4.15072,0.88508,-0.48832,-0.919614345,0.35314851,-0.10205052
1764762733.647325,-4.15072,0.88508,-0.48832,-0.919614345,0.35314851,-0.10205052
1764762733.647325,-8.392999999999999,1.64808,-0.24416,-0.918393645,0.35790924,-0.10229466
1764762733.647325,-8.392999999999999,1.64808,-0.24416,-0.918393645,0.35790924,-0.10229466
1764762733.647325,-8.392999999999999,1.64808,-0.24416,-0.918393645,0.35790924,-0.10229466
1764762733.647325,-8.392999999999999,1.64808,-0.24416,-0.918393645,0.35790924,-0.10229466
1764762733.647325,-8.392999999999999,1.64808,-0.24416,-0.918393645,0.35790924,-0.10229466
1764762733.647325,-8.392999999999999,1.64808,-0.24416,-0.918393645,0.35790924,-0.10229466
1764762733.647325,-8.392999999999999,1.64808,-0.24416,-0.918393645,0.35790924,-0.10229466
1764762733.647325,-8.392999999999999,1.64808,-0.24416,-0.918393645,0.35790924,-0.10229466
1764762733.647325,-8.392999999999999,1.64808,-0.24416,-0.918393645,0.35790924,-0.10229466
1764762733.647325,-8.392999999999999,1.64808,-0.24416,-0.918393645,0.35790924,-0.10229466
1764762733.647325,-8.40826,1.00716,-0.51884,-0.919003995,0.358824765,-0.10144017
1764762733.647325,-8.40826,1.00716,-0.51884,-0.919003995,0.358824765,-0.10144017
1764762733.647325,-8.40826,1.00716,-0.51884,-0.919003995,0.358824765,-0.10144017
1764762733.647325,-8.40826,1.00716,-0.51884,-0.919003995,0.358824765,-0.10144017
1764762733.647325,-8.40826,1.00716,-0.51884,-0.919003995,0.358824765,-0.10144017
1764762733.647325,-8.40826,1.00716,-0.51884,-0.919003995,0.358824765,-0.10144017
1764762733.647325,-8.40826,1.00716,-0.51884,-0.919003995,0.358824765,-0.10144017
1764762733.647325,-8.40826,1.00716,-0.51884,-0.919003995,0.358824765,-0.10144017
1764762733.647325,-8.40826,1.00716,-0.51884,-0.919003995,0.358824765,-0.10144017
1764762733.647325,-8.40826,1.00716,-0.51884,-0.919003995,0.358824765,-0.10144017
1764762733.647325,-6.104,0.79352,-0.42728,-0.919614345,0.354308175,-0.101745345
1764762733.647325,-6.104,0.79352,-0.42728,-0.919614345,0.354308175,-0.101745345
1764762733.689628,-6.104,0.79352,-0.42728,-0.919614345,0.354308175,-0.101745345
1764762733.689628,-6.104,0.79352,-0.42728,-0.919614345,0.354308175,-0.101745345
1764762733.6906648,-6.104,0.79352,-0.42728,-0.919614345,0.354308175,-0.101745345
1764762733.6906648,-6.104,0.79352,-0.42728,-0.919614345,0.354308175,-0.101745345
1764762733.6906648,-6.104,0.79352,-0.42728,-0.919614345,0.354308175,-0.101745345
1764762733.6906648,-6.104,0.79352,-0.42728,-0.919614345,0.354308175,-0.101745345
1764762733.6906648,-6.104,0.79352,-0.42728,-0.919614345,0.354308175,-0.101745345
1764762733.6906648,-6.104,0.79352,-0.42728,-0.919614345,0.354308175,-0.101745345
1764762733.6906648,-5.96666,1.15976,-0.25942,-0.919614345,0.35168367,-0.102355695
1764762733.6906648,-5.96666,1.15976,-0.25942,-0.919614345,0.35168367,-0.102355695
1764762733.6906648,-5.96666,1.15976,-0.25942,-0.919614345,0.35168367,-0.102355695
1764762733.6906648,-5.96666,1.15976,-0.25942,-0.919614345,0.35168367,-0.102355695
1764762733.6906648,-5.96666,1.15976,-0.25942,-0.919614345,0.35168367,-0.102355695
1764762733.6906648,-5.96666,1.15976,-0.25942,-0.919614345,0.35168367,-0.102355695
1764762733.6906648,-5.96666,1.15976,-0.25942,-0.919614345,0.35168367,-0.102355695
1764762733.6906648,-5.96666,1.15976,-0.25942,-0.919614345,0.35168367,-0.102355695
1764762733.6906648,-5.96666,1.15976,-0.25942,-0.919614345,0.35168367,-0.102355695
1764762733.6906648,-5.96666,1.15976,-0.25942,-0.919614345,0.35168367,-0.102355695
1764762733.6920245,-8.30144,2.04484,0.3815,-0.919858485,0.353819895,-0.1037595
1764762733.6920245,-8.30144,2.04484,0.3815,-0.919858485,0.353819895,-0.1037595
1764762733.6920245,-8.30144,2.04484,0.3815,-0.919858485,0.353819895,-0.1037595
1764762733.6920245,-8.30144,2.04484,0.3815,-0.919858485,0.353819895,-0.1037595
1764762733.7382631,-8.30144,2.04484,0.3815,-0.919858485,0.353819895,-0.1037595
1764762733.7382631,-8.30144,2.04484,0.3815,-0.919858485,0.353819895,-0.1037595
1764762733.7382631,-8.30144,2.04484,0.3815,-0.919858485,0.353819895,-0.1037595
1764762733.7382631,-8.30144,2.04484,0.3815,-0.919858485,0.353819895,-0.1037595
1764762733.7382631,-8.30144,2.04484,0.3815,-0.919858485,0.353819895,-0.1037595
1764762733.7382631,-8.30144,2.04484,0.3815,-0.919858485,0.353819895,-0.1037595
1764762733.7382631,-8.255659999999999,2.24322,1.08346,-0.92199471,0.35558991,-0.101501205
1764762733.7382631,-8.255659999999999,2.24322,1.08346,-0.92199471,0.35558991,-0.101501205
1764762733.7382631,-8.255659999999999,2.24322,1.08346,-0.92199471,0.35558991,-0.101501205
1764762733.7382631,-8.255659999999999,2.24322,1.08346,-0.92199471,0.35558991,-0.101501205
1764762733.7382631,-8.255659999999999,2.24322,1.08346,-0.92199471,0.35558991,-0.101501205
1764762733.7382631,-8.255659999999999,2.24322,1.08346,-0.92199471,0.35558991,-0.101501205
1764762733.7382631,-8.255659999999999,2.24322,1.08346,-0.92199471,0.35558991,-0.101501205
1764762733.7382631,-8.255659999999999,2.24322,1.08346,-0.92199471,0.35558991,-0.101501205
1764762733.7382631,-8.255659999999999,2.24322,1.08346,-0.92199471,0.35558991,-0.101501205
1764762733.7382631,-8.255659999999999,2.24322,1.08346,-0.92199471,0.35558991,-0.101501205
1764762733.7382631,-4.83742,1.9075,0.1678599999999999,-0.92321541,0.35070711,-0.09777807
1764762733.7382631,-4.83742,1.9075,0.1678599999999999,-0.92321541,0.35070711,-0.09777807
1764762733.739795,-4.83742,1.9075,0.1678599999999999,-0.92321541,0.35070711,-0.09777807
1764762733.739795,-4.83742,1.9075,0.1678599999999999,-0.92321541,0.35070711,-0.09777807
1764762733.739795,-4.83742,1.9075,0.1678599999999999,-0.92321541,0.35070711,-0.09777807
1764762733.740373,-4.83742,1.9075,0.1678599999999999,-0.92321541,0.35070711,-0.09777807
1764762733.740373,-4.83742,1.9075,0.1678599999999999,-0.92321541,0.35070711,-0.09777807
1764762733.740373,-4.83742,1.9075,0.1678599999999999,-0.92321541,0.35070711,-0.09777807
1764762733.740373,-4.83742,1.9075,0.1678599999999999,-0.92321541,0.35070711,-0.09777807
1764762733.740373,-4.83742,1.9075,0.1678599999999999,-0.92321541,0.35070711,-0.09777807
1764762733.78784,-3.08252,1.17502,-0.6103999999999999,-0.922666095,0.34570224,-0.097472895
1764762733.78784,-3.08252,1.17502,-0.6103999999999999,-0.922666095,0.34570224,-0.097472895
1764762733.78784,-3.08252,1.17502,-0.6103999999999999,-0.922666095,0.34570224,-0.097472895
1764762733.78784,-3.08252,1.17502,-0.6103999999999999,-0.922666095,0.34570224,-0.097472895
1764762733.78784,-3.08252,1.17502,-0.6103999999999999,-0.922666095,0.34570224,-0.097472895
1764762733.78784,-3.08252,1.17502,-0.6103999999999999,-0.922666095,0.34570224,-0.097472895
1764762733.78784,-3.08252,1.17502,-0.6103999999999999,-0.922666095,0.34570224,-0.097472895
1764762733.78784,-3.08252,1.17502,-0.6103999999999999,-0.922666095,0.34570224,-0.097472895
1764762733.78784,-3.08252,1.17502,-0.6103999999999999,-0.922666095,0.34570224,-0.097472895
1764762733.78784,-3.08252,1.17502,-0.6103999999999999,-0.922666095,0.34570224,-0.097472895
1764762733.78784,-3.02148,1.08346,0.9156,-0.921079185,0.34765536,-0.098815665
1764762733.78784,-3.02148,1.08346,0.9156,-0.921079185,0.34765536,-0.098815665
1764762733.78784,-3.02148,1.08346,0.9156,-0.921079185,0.34765536,-0.098815665
1764762733.78784,-3.02148,1.08346,0.9156,-0.921079185,0.34765536,-0.098815665
1764762733.78784,-3.02148,1.08346,0.9156,-0.921079185,0.34765536,-0.098815665
1764762733.78784,-3.02148,1.08346,0.9156,-0.921079185,0.34765536,-0.098815665
1764762733.78784,-3.02148,1.08346,0.9156,-0.921079185,0.34765536,-0.098815665
1764762733.78784,-3.02148,1.08346,0.9156,-0.921079185,0.34765536,-0.098815665
1764762733.78784,-3.02148,1.08346,0.9156,-0.921079185,0.34765536,-0.098815665
1764762733.78784,-3.02148,1.08346,0.9156,-0.921079185,0.34765536,-0.098815665
1764762733.78784,-4.2728,1.99906,1.32762,-0.919492275,0.350157795,-0.10082982
1764762733.78784,-4.2728,1.99906,1.32762,-0.919492275,0.350157795,-0.10082982
1764762733.78784,-4.2728,1.99906,1.32762,-0.919492275,0.350157795,-0.10082982
1764762733.78784,-4.2728,1.99906,1.32762,-0.919492275,0.350157795,-0.10082982
1764762733.834885,-4.2728,1.99906,1.32762,-0.919492275,0.350157795,-0.10082982
1764762733.834885,-4.2728,1.99906,1.32762,-0.919492275,0.350157795,-0.10082982
1764762733.834885,-4.2728,1.99906,1.32762,-0.919492275,0.350157795,-0.10082982
1764762733.834885,-4.2728,1.99906,1.32762,-0.919492275,0.350157795,-0.10082982
1764762733.834885,-4.2728,1.99906,1.32762,-0.919492275,0.350157795,-0.10082982
1764762733.834885,-4.2728,1.99906,1.32762,-0.919492275,0.350157795,-0.10082982
1764762733.834885,-4.63904,1.64808,0.6867,-0.919736415,0.3491202,-0.101623275
1764762733.834885,-4.63904,1.64808,0.6867,-0.919736415,0.3491202,-0.101623275
1764762733.834885,-4.63904,1.64808,0.6867,-0.919736415,0.3491202,-0.101623275
1764762733.834885,-4.63904,1.64808,0.6867,-0.919736415,0.3491202,-0.101623275
1764762733.834885,-4.63904,1.64808,0.6867,-0.919736415,0.3491202,-0.101623275
1764762733.834885,-4.63904,1.64808,0.6867,-0.919736415,0.3491202,-0.101623275
1764762733.834885,-4.63904,1.64808,0.6867,-0.919736415,0.3491202,-0.101623275
1764762733.834885,-4.63904,1.64808,0.6867,-0.919736415,0.3491202,-0.101623275
1764762733.834885,-4.63904,1.64808,0.6867,-0.919736415,0.3491202,-0.101623275
1764762733.834885,-4.63904,1.64808,0.6867,-0.919736415,0.3491202,-0.101623275
1764762733.834885,-3.15882,1.05294,-0.3509799999999999,-0.9204078,0.347472255,-0.1013181
1764762733.834885,-3.15882,1.05294,-0.3509799999999999,-0.9204078,0.347472255,-0.1013181
1764762733.834885,-3.15882,1.05294,-0.3509799999999999,-0.9204078,0.347472255,-0.1013181
1764762733.834885,-3.15882,1.05294,-0.3509799999999999,-0.9204078,0.347472255,-0.1013181
1764762733.834885,-3.15882,1.05294,-0.3509799999999999,-0.9204078,0.347472255,-0.1013181
1764762733.8359003,-3.15882,1.05294,-0.3509799999999999,-0.9204078,0.347472255,-0.1013181
1764762733.8359003,-3.15882,1.05294,-0.3509799999999999,-0.9204078,0.347472255,-0.1013181
1764762733.8359003,-3.15882,1.05294,-0.3509799999999999,-0.9204078,0.347472255,-0.1013181
1764762733.8824384,-3.15882,1.05294,-0.3509799999999999,-0.9204078,0.347472255,-0.1013181
1764762733.8824384,-3.15882,1.05294,-0.3509799999999999,-0.9204078,0.347472255,-0.1013181
1764762733.8824384,-1.78542,0.97664,-0.09156,-0.92077401,0.347350185,-0.101012925
1764762733.8824384,-1.78542,0.97664,-0.09156,-0.92077401,0.347350185,-0.101012925
1764762733.8824384,-1.78542,0.97664,-0.09156,-0.92077401,0.347350185,-0.101012925
1764762733.8824384,-1.78542,0.97664,-0.09156,-0.92077401,0.347350185,-0.101012925
1764762733.8824384,-1.78542,0.97664,-0.09156,-0.92077401,0.347350185,-0.101012925
1764762733.8824384,-1.78542,0.97664,-0.09156,-0.92077401,0.347350185,-0.101012925
1764762733.8824384,-1.78542,0.97664,-0.09156,-0.92077401,0.347350185,-0.101012925
1764762733.8824384,-1.78542,0.97664,-0.09156,-0.92077401,0.347350185,-0.101012925
1764762733.8824384,-1.78542,0.97664,-0.09156,-0.92077401,0.347350185,-0.101012925
1764762733.8824384,-1.78542,0.97664,-0.09156,-0.92077401,0.347350185,-0.101012925
1764762733.8824384,-0.82404,1.12924,0.01526,-0.92089608,0.348082605,-0.10241673
1764762733.8824384,-0.82404,1.12924,0.01526,-0.92089608,0.348082605,-0.10241673
1764762733.8824384,-0.82404,1.12924,0.01526,-0.92089608,0.348082605,-0.10241673
1764762733.8824384,-0.82404,1.12924,0.01526,-0.92089608,0.348082605,-0.10241673
1764762733.8824384,-0.82404,1.12924,0.01526,-0.92089608,0.348082605,-0.10241673
1764762733.8824384,-0.82404,1.12924,0.01526,-0.92089608,0.348082605,-0.10241673
1764762733.8824384,-0.82404,1.12924,0.01526,-0.92089608,0.348082605,-0.10241673
1764762733.8824384,-0.82404,1.12924,0.01526,-0.92089608,0.348082605,-0.10241673
1764762733.8824384,-0.82404,1.12924,0.01526,-0.92089608,0.348082605,-0.10241673
1764762733.8824384,-0.82404,1.12924,0.01526,-0.92089608,0.348082605,-0.10241673
1764762733.8824384,-1.48022,2.04484,0.2289,-0.91955331,0.34899813,-0.1037595
1764762733.8824384,-1.48022,2.04484,0.2289,-0.91955331,0.34899813,-0.1037595
1764762733.929069,-1.48022,2.04484,0.2289,-0.91955331,0.34899813,-0.1037595
1764762733.929069,-1.48022,2.04484,0.2289,-0.91955331,0.34899813,-0.1037595
1764762733.929069,-1.48022,2.04484,0.2289,-0.91955331,0.34899813,-0.1037595
1764762733.929069,-1.48022,2.04484,0.2289,-0.91955331,0.34899813,-0.1037595
1764762733.929069,-1.48022,2.04484,0.2289,-0.91955331,0.34899813,-0.1037595
1764762733.929069,-1.48022,2.04484,0.2289,-0.91955331,0.34899813,-0.1037595
1764762733.929069,-1.48022,2.04484,0.2289,-0.91955331,0.34899813,-0.1037595
1764762733.929069,-1.48022,2.04484,0.2289,-0.91955331,0.34899813,-0.1037595
1764762733.929069,-2.5942,1.38866,0.04578,-0.919736415,0.34997469,-0.104552955
1764762733.929069,-2.5942,1.38866,0.04578,-0.919736415,0.34997469,-0.104552955
1764762733.929069,-2.5942,1.38866,0.04578,-0.919736415,0.34997469,-0.104552955
1764762733.929069,-2.5942,1.38866,0.04578,-0.919736415,0.34997469,-0.104552955
1764762733.929069,-2.5942,1.38866,0.04578,-0.919736415,0.34997469,-0.104552955
1764762733.929069,-2.5942,1.38866,0.04578,-0.919736415,0.34997469,-0.104552955
1764762733.929069,-2.5942,1.38866,0.04578,-0.919736415,0.34997469,-0.104552955
1764762733.929069,-2.5942,1.38866,0.04578,-0.919736415,0.34997469,-0.104552955
1764762733.929069,-2.5942,1.38866,0.04578,-0.919736415,0.34997469,-0.104552955
1764762733.929069,-2.5942,1.38866,0.04578,-0.919736415,0.34997469,-0.104552955
1764762733.929069,-2.1364,1.1445,-0.6714399999999999,-0.92065194,0.352110915,-0.103088115
1764762733.929069,-2.1364,1.1445,-0.6714399999999999,-0.92065194,0.352110915,-0.103088115
1764762733.930091,-2.1364,1.1445,-0.6714399999999999,-0.92065194,0.352110915,-0.103088115
1764762733.930091,-2.1364,1.1445,-0.6714399999999999,-0.92065194,0.352110915,-0.103088115
1764762733.930091,-2.1364,1.1445,-0.6714399999999999,-0.92065194,0.352110915,-0.103088115
1764762733.930091,-2.1364,1.1445,-0.6714399999999999,-0.92065194,0.352110915,-0.103088115
1764762733.9770913,-2.1364,1.1445,-0.6714399999999999,-0.92065194,0.352110915,-0.103088115
1764762733.9770913,-2.1364,1.1445,-0.6714399999999999,-0.92065194,0.352110915,-0.103088115
1764762733.9770913,-2.1364,1.1445,-0.6714399999999999,-0.92065194,0.352110915,-0.103088115
1764762733.9770913,-2.1364,1.1445,-0.6714399999999999,-0.92065194,0.352110915,-0.103088115
1764762733.9770913,-2.09062,1.31236,-0.6103999999999999,-0.92150643,0.35314851,-0.10314915
1764762733.9770913,-2.09062,1.31236,-0.6103999999999999,-0.92150643,0.35314851,-0.10314915
1764762733.9770913,-2.09062,1.31236,-0.6103999999999999,-0.92150643,0.35314851,-0.10314915
1764762733.9770913,-2.09062,1.31236,-0.6103999999999999,-0.92150643,0.35314851,-0.10314915
1764762733.9770913,-2.09062,1.31236,-0.6103999999999999,-0.92150643,0.35314851,-0.10314915
1764762733.9770913,-2.09062,1.31236,-0.6103999999999999,-0.92150643,0.35314851,-0.10314915
1764762733.9770913,-2.09062,1.31236,-0.6103999999999999,-0.92150643,0.35314851,-0.10314915
1764762733.9770913,-2.09062,1.31236,-0.6103999999999999,-0.92150643,0.35314851,-0.10314915
1764762733.9770913,-2.09062,1.31236,-0.6103999999999999,-0.92150643,0.35314851,-0.10314915
1764762733.9770913,-2.09062,1.31236,-0.6103999999999999,-0.92150643,0.35314851,-0.10314915
1764762733.9770913,-1.34288,0.85456,0.06104,-0.921201255,0.353575755,-0.104430885
1764762733.9770913,-1.34288,0.85456,0.06104,-0.921201255,0.353575755,-0.104430885
1764762733.9770913,-1.34288,0.85456,0.06104,-0.921201255,0.353575755,-0.104430885
1764762733.9770913,-1.34288,0.85456,0.06104,-0.921201255,0.353575755,-0.104430885
1764762733.9770913,-1.34288,0.85456,0.06104,-0.921201255,0.353575755,-0.104430885
1764762733.9770913,-1.34288,0.85456,0.06104,-0.921201255,0.353575755,-0.104430885
1764762733.9770913,-1.34288,0.85456,0.06104,-0.921201255,0.353575755,-0.104430885
1764762733.9770913,-1.34288,0.85456,0.06104,-0.921201255,0.353575755,-0.104430885
1764762733.9770913,-1.34288,0.85456,0.06104,-0.921201255,0.353575755,-0.104430885
1764762733.9770913,-1.34288,0.85456,0.06104,-0.921201255,0.353575755,-0.104430885
1764762734.02079,-2.0601,1.4497,0.13734,-0.920346765,0.352843335,-0.10510227
1764762734.02079,-2.0601,1.4497,0.13734,-0.920346765,0.352843335,-0.10510227
1764762734.02079,-2.0601,1.4497,0.13734,-0.920346765,0.352843335,-0.10510227
1764762734.02079,-2.0601,1.4497,0.13734,-0.920346765,0.352843335,-0.10510227
1764762734.02079,-2.0601,1.4497,0.13734,-0.920346765,0.352843335,-0.10510227
1764762734.02079,-2.0601,1.4497,0.13734,-0.920346765,0.352843335,-0.10510227
1764762734.02079,-2.0601,1.4497,0.13734,-0.920346765,0.352843335,-0.10510227
1764762734.02079,-2.0601,1.4497,0.13734,-0.920346765,0.352843335,-0.10510227
1764762734.02079,-2.0601,1.4497,0.13734,-0.920346765,0.352843335,-0.10510227
1764762734.02079,-2.0601,1.4497,0.13734,-0.920346765,0.352843335,-0.10510227
1764762734.02079,-2.289,1.55652,0.59514,-0.91955331,0.35046297,-0.10485813
1764762734.02079,-2.289,1.55652,0.59514,-0.91955331,0.35046297,-0.10485813
1764762734.02079,-2.289,1.55652,0.59514,-0.91955331,0.35046297,-0.10485813
1764762734.02079,-2.289,1.55652,0.59514,-0.91955331,0.35046297,-0.10485813
1764762734.02079,-2.289,1.55652,0.59514,-0.91955331,0.35046297,-0.10485813
1764762734.02079,-2.289,1.55652,0.59514,-0.91955331,0.35046297,-0.10485813
1764762734.02079,-2.289,1.55652,0.59514,-0.91955331,0.35046297,-0.10485813
1764762734.02079,-2.289,1.55652,0.59514,-0.91955331,0.35046297,-0.10485813
1764762734.02079,-2.289,1.55652,0.59514,-0.91955331,0.35046297,-0.10485813
1764762734.0223296,-2.289,1.55652,0.59514,-0.91955331,0.35046297,-0.10485813
1764762734.0223296,-1.8006799999999998,1.34288,-0.8087799999999999,-0.919736415,0.348692955,-0.10424778
1764762734.0223296,-1.8006799999999998,1.34288,-0.8087799999999999,-0.919736415,0.348692955,-0.10424778
1764762734.0679686,-1.8006799999999998,1.34288,-0.8087799999999999,-0.919736415,0.348692955,-0.10424778
1764762734.0679686,-1.8006799999999998,1.34288,-0.8087799999999999,-0.919736415,0.348692955,-0.10424778
1764762734.0679686,-1.8006799999999998,1.34288,-0.8087799999999999,-0.919736415,0.348692955,-0.10424778
1764762734.0679686,-1.8006799999999998,1.34288,-0.8087799999999999,-0.919736415,0.348692955,-0.10424778
1764762734.0679686,-1.8006799999999998,1.34288,-0.8087799999999999,-0.919736415,0.348692955,-0.10424778
1764762734.0679686,-1.8006799999999998,1.34288,-0.8087799999999999,-0.919736415,0.348692955,-0.10424778
1764762734.0679686,-1.8006799999999998,1.34288,-0.8087799999999999,-0.919736415,0.348692955,-0.10424778
1764762734.0679686,-1.8006799999999998,1.34288,-0.8087799999999999,-0.919736415,0.348692955,-0.10424778
1764762734.0679686,-0.57988,0.24416,-1.9075,-0.92150643,0.34509189,-0.10290501
1764762734.0679686,-0.57988,0.24416,-1.9075,-0.92150643,0.34509189,-0.10290501
1764762734.0679686,-0.57988,0.24416,-1.9075,-0.92150643,0.34509189,-0.10290501
1764762734.0679686,-0.57988,0.24416,-1.9075,-0.92150643,0.34509189,-0.10290501
1764762734.0679686,-0.57988,0.24416,-1.9075,-0.92150643,0.34509189,-0.10290501
1764762734.0679686,-0.57988,0.24416,-1.9075,-0.92150643,0.34509189,-0.10290501
1764762734.0679686,-0.57988,0.24416,-1.9075,-0.92150643,0.34509189,-0.10290501
1764762734.0679686,-0.57988,0.24416,-1.9075,-0.92150643,0.34509189,-0.10290501
1764762734.0679686,-0.57988,0.24416,-1.9075,-0.92150643,0.34509189,-0.10290501
1764762734.0679686,-0.57988,0.24416,-1.9075,-0.92150643,0.34509189,-0.10290501
1764762734.0679686,2.35004,0.0762999999999999,-3.46402,-0.923032305,0.33947667,-0.10058568
1764762734.0679686,2.35004,0.0762999999999999,-3.46402,-0.923032305,0.33947667,-0.10058568
1764762734.0679686,2.35004,0.0762999999999999,-3.46402,-0.923032305,0.33947667,-0.10058568
1764762734.0679686,2.35004,0.0762999999999999,-3.46402,-0.923032305,0.33947667,-0.10058568
1764762734.0679686,2.35004,0.0762999999999999,-3.46402,-0.923032305,0.33947667,-0.10058568
1764762734.0679686,2.35004,0.0762999999999999,-3.46402,-0.923032305,0.33947667,-0.10058568
1764762734.114688,2.35004,0.0762999999999999,-3.46402,-0.923032305,0.33947667,-0.10058568
1764762734.114688,2.35004,0.0762999999999999,-3.46402,-0.923032305,0.33947667,-0.10058568
1764762734.114688,2.35004,0.0762999999999999,-3.46402,-0.923032305,0.33947667,-0.10058568
1764762734.114688,2.35004,0.0762999999999999,-3.46402,-0.923032305,0.33947667,-0.10058568
1764762734.114688,3.90656,0.25942,-2.83836,-0.9240699,0.340025985,-0.101501205
1764762734.114688,3.90656,0.25942,-2.83836,-0.9240699,0.340025985,-0.101501205
1764762734.114688,3.90656,0.25942,-2.83836,-0.9240699,0.340025985,-0.101501205
1764762734.114688,3.90656,0.25942,-2.83836,-0.9240699,0.340025985,-0.101501205
1764762734.114688,3.90656,0.25942,-2.83836,-0.9240699,0.340025985,-0.101501205
1764762734.114688,3.90656,0.25942,-2.83836,-0.9240699,0.340025985,-0.101501205
1764762734.114688,3.90656,0.25942,-2.83836,-0.9240699,0.340025985,-0.101501205
1764762734.114688,3.90656,0.25942,-2.83836,-0.9240699,0.340025985,-0.101501205
1764762734.114688,3.90656,0.25942,-2.83836,-0.9240699,0.340025985,-0.101501205
1764762734.114688,3.90656,0.25942,-2.83836,-0.9240699,0.340025985,-0.101501205
1764762734.114688,4.10494,1.0682,-1.23606,-0.92382576,0.34484775,-0.103942605
1764762734.114688,4.10494,1.0682,-1.23606,-0.92382576,0.34484775,-0.103942605
1764762734.114688,4.10494,1.0682,-1.23606,-0.92382576,0.34484775,-0.103942605
1764762734.114688,4.10494,1.0682,-1.23606,-0.92382576,0.34484775,-0.103942605
1764762734.114688,4.10494,1.0682,-1.23606,-0.92382576,0.34484775,-0.103942605
1764762734.114688,4.10494,1.0682,-1.23606,-0.92382576,0.34484775,-0.103942605
1764762734.1157038,4.10494,1.0682,-1.23606,-0.92382576,0.34484775,-0.103942605
1764762734.1157038,4.10494,1.0682,-1.23606,-0.92382576,0.34484775,-0.103942605
1764762734.162274,4.10494,1.0682,-1.23606,-0.92382576,0.34484775,-0.103942605
1764762734.162274,4.10494,1.0682,-1.23606,-0.92382576,0.34484775,-0.103942605
1764762734.162274,2.8994,0.97664,0.03052,-0.92309334,0.35009676,-0.10644504
1764762734.162274,2.8994,0.97664,0.03052,-0.92309334,0.35009676,-0.10644504
1764762734.162274,2.8994,0.97664,0.03052,-0.92309334,0.35009676,-0.10644504
1764762734.162274,2.8994,0.97664,0.03052,-0.92309334,0.35009676,-0.10644504
1764762734.162274,2.8994,0.97664,0.03052,-0.92309334,0.35009676,-0.10644504
1764762734.162274,2.8994,0.97664,0.03052,-0.92309334,0.35009676,-0.10644504
1764762734.162274,2.8994,0.97664,0.03052,-0.92309334,0.35009676,-0.10644504
1764762734.162274,2.8994,0.97664,0.03052,-0.92309334,0.35009676,-0.10644504
1764762734.162274,2.8994,0.97664,0.03052,-0.92309334,0.35009676,-0.10644504
1764762734.162274,2.8994,0.97664,0.03052,-0.92309334,0.35009676,-0.10644504
1764762734.162274,-0.763,2.24322,1.31236,-0.922421955,0.356627505,-0.109435755
1764762734.162274,-0.763,2.24322,1.31236,-0.922421955,0.356627505,-0.109435755
1764762734.162274,-0.763,2.24322,1.31236,-0.922421955,0.356627505,-0.109435755
1764762734.162274,-0.763,2.24322,1.31236,-0.922421955,0.356627505,-0.109435755
1764762734.162274,-0.763,2.24322,1.31236,-0.922421955,0.356627505,-0.109435755
1764762734.162274,-0.763,2.24322,1.31236,-0.922421955,0.356627505,-0.109435755
1764762734.162274,-0.763,2.24322,1.31236,-0.922421955,0.356627505,-0.109435755
1764762734.162274,-0.763,2.24322,1.31236,-0.922421955,0.356627505,-0.109435755
1764762734.162274,-0.763,2.24322,1.31236,-0.922421955,0.356627505,-0.109435755
1764762734.162274,-0.763,2.24322,1.31236,-0.922421955,0.356627505,-0.109435755
1764762734.162274,-4.74586,3.26564,2.4416,-0.92114022,0.36279204,-0.110534385
1764762734.162274,-4.74586,3.26564,2.4416,-0.92114022,0.36279204,-0.110534385
1764762734.2093468,-4.74586,3.26564,2.4416,-0.92114022,0.36279204,-0.110534385
1764762734.2093468,-4.74586,3.26564,2.4416,-0.92114022,0.36279204,-0.110534385
1764762734.2098644,-4.74586,3.26564,2.4416,-0.92114022,0.36279204,-0.110534385
1764762734.2098644,-4.74586,3.26564,2.4416,-0.92114022,0.36279204,-0.110534385
1764762734.2098644,-4.74586,3.26564,2.4416,-0.92114022,0.36279204,-0.110534385
1764762734.2098644,-4.74586,3.26564,2.4416,-0.92114022,0.36279204,-0.110534385
1764762734.2098644,-4.74586,3.26564,2.4416,-0.92114022,0.36279204,-0.110534385
1764762734.2098644,-4.74586,3.26564,2.4416,-0.92114022,0.36279204,-0.110534385
1764762734.2098644,-5.38678,2.88414,2.99096,-0.921811605,0.36291411,-0.11071749
1764762734.2098644,-5.38678,2.88414,2.99096,-0.921811605,0.36291411,-0.11071749
1764762734.2098644,-5.38678,2.88414,2.99096,-0.921811605,0.36291411,-0.11071749
1764762734.2098644,-5.38678,2.88414,2.99096,-0.921811605,0.36291411,-0.11071749
1764762734.2098644,-5.38678,2.88414,2.99096,-0.921811605,0.36291411,-0.11071749
1764762734.2098644,-5.38678,2.88414,2.99096,-0.921811605,0.36291411,-0.11071749
1764762734.2098644,-5.38678,2.88414,2.99096,-0.921811605,0.36291411,-0.11071749
1764762734.2098644,-5.38678,2.88414,2.99096,-0.921811605,0.36291411,-0.11071749
1764762734.2098644,-5.38678,2.88414,2.99096,-0.921811605,0.36291411,-0.11071749
1764762734.2098644,-5.38678,2.88414,2.99096,-0.921811605,0.36291411,-0.11071749
1764762734.2098644,-6.43972,3.26564,2.19744,-0.921201255,0.35534577,-0.10974093
1764762734.2098644,-6.43972,3.26564,2.19744,-0.921201255,0.35534577,-0.10974093
1764762734.2098644,-6.43972,3.26564,2.19744,-0.921201255,0.35534577,-0.10974093
1764762734.2098644,-6.43972,3.26564,2.19744,-0.921201255,0.35534577,-0.10974093
1764762734.2098644,-6.43972,3.26564,2.19744,-0.921201255,0.35534577,-0.10974093
1764762734.2098644,-6.43972,3.26564,2.19744,-0.921201255,0.35534577,-0.10974093
1764762734.2561972,-6.43972,3.26564,2.19744,-0.921201255,0.35534577,-0.10974093
1764762734.2561972,-6.43972,3.26564,2.19744,-0.921201255,0.35534577,-0.10974093
1764762734.2567315,-6.43972,3.26564,2.19744,-0.921201255,0.35534577,-0.10974093
1764762734.2567315,-6.43972,3.26564,2.19744,-0.921201255,0.35534577,-0.10974093
1764762734.2567315,-6.59232,1.69386,1.2971,-0.921445395,0.350157795,-0.107848845
1764762734.2567315,-6.59232,1.69386,1.2971,-0.921445395,0.350157795,-0.107848845
1764762734.2567315,-6.59232,1.69386,1.2971,-0.921445395,0.350157795,-0.107848845
1764762734.2567315,-6.59232,1.69386,1.2971,-0.921445395,0.350157795,-0.107848845
1764762734.2567315,-6.59232,1.69386,1.2971,-0.921445395,0.350157795,-0.107848845
1764762734.2567315,-6.59232,1.69386,1.2971,-0.921445395,0.350157795,-0.107848845
1764762734.2567315,-6.59232,1.69386,1.2971,-0.921445395,0.350157795,-0.107848845
1764762734.2567315,-6.59232,1.69386,1.2971,-0.921445395,0.350157795,-0.107848845
1764762734.2567315,-6.59232,1.69386,1.2971,-0.921445395,0.350157795,-0.107848845
1764762734.2567315,-6.59232,1.69386,1.2971,-0.921445395,0.350157795,-0.107848845
1764762734.2567315,-6.11926,1.64808,1.2971,-0.922299885,0.348815025,-0.10778781
1764762734.2567315,-6.11926,1.64808,1.2971,-0.922299885,0.348815025,-0.10778781
1764762734.2567315,-6.11926,1.64808,1.2971,-0.922299885,0.348815025,-0.10778781
1764762734.2567315,-6.11926,1.64808,1.2971,-0.922299885,0.348815025,-0.10778781
1764762734.2567315,-6.11926,1.64808,1.2971,-0.922299885,0.348815025,-0.10778781
1764762734.2567315,-6.11926,1.64808,1.2971,-0.922299885,0.348815025,-0.10778781
1764762734.2567315,-6.11926,1.64808,1.2971,-0.922299885,0.348815025,-0.10778781
1764762734.2567315,-6.11926,1.64808,1.2971,-0.922299885,0.348815025,-0.10778781
1764762734.2567315,-6.11926,1.64808,1.2971,-0.922299885,0.348815025,-0.10778781
1764762734.2567315,-6.11926,1.64808,1.2971,-0.922299885,0.348815025,-0.10778781
1764762734.303498,-3.63188,1.05294,0.8392999999999999,-0.924008865,0.347106045,-0.108215055
1764762734.303498,-3.63188,1.05294,0.8392999999999999,-0.924008865,0.347106045,-0.108215055
1764762734.303498,-3.63188,1.05294,0.8392999999999999,-0.924008865,0.347106045,-0.108215055
1764762734.303498,-3.63188,1.05294,0.8392999999999999,-0.924008865,0.347106045,-0.108215055
1764762734.303498,-3.63188,1.05294,0.8392999999999999,-0.924008865,0.347106045,-0.108215055
1764762734.303498,-3.63188,1.05294,0.8392999999999999,-0.924008865,0.347106045,-0.108215055
1764762734.303498,-3.63188,1.05294,0.8392999999999999,-0.924008865,0.347106045,-0.108215055
1764762734.303498,-3.63188,1.05294,0.8392999999999999,-0.924008865,0.347106045,-0.108215055
1764762734.303498,-3.63188,1.05294,0.8392999999999999,-0.924008865,0.347106045,-0.108215055
1764762734.303498,-3.63188,1.05294,0.8392999999999999,-0.924008865,0.347106045,-0.108215055
1764762734.3040352,-1.92276,0.28994,-0.09156,-0.924741285,0.344176365,-0.10827609
1764762734.3040352,-1.92276,0.28994,-0.09156,-0.924741285,0.344176365,-0.10827609
1764762734.3040352,-1.92276,0.28994,-0.09156,-0.924741285,0.344176365,-0.10827609
1764762734.3040352,-1.92276,0.28994,-0.09156,-0.924741285,0.344176365,-0.10827609
1764762734.3040352,-1.92276,0.28994,-0.09156,-0.924741285,0.344176365,-0.10827609
1764762734.3040352,-1.92276,0.28994,-0.09156,-0.924741285,0.344176365,-0.10827609
1764762734.3040352,-1.92276,0.28994,-0.09156,-0.924741285,0.344176365,-0.10827609
1764762734.3040352,-1.92276,0.28994,-0.09156,-0.924741285,0.344176365,-0.10827609
1764762734.3040352,-1.92276,0.28994,-0.09156,-0.924741285,0.344176365,-0.10827609
1764762734.3040352,-1.92276,0.28994,-0.09156,-0.924741285,0.344176365,-0.10827609
1764762734.3040352,-3.34194,0.763,-0.42728,-0.92175057,0.34521396,-0.10839816
1764762734.3040352,-3.34194,0.763,-0.42728,-0.92175057,0.34521396,-0.10839816
1764762734.3476074,-3.34194,0.763,-0.42728,-0.92175057,0.34521396,-0.10839816
1764762734.3476074,-3.34194,0.763,-0.42728,-0.92175057,0.34521396,-0.10839816
1764762734.3476074,-3.34194,0.763,-0.42728,-0.92175057,0.34521396,-0.10839816
1764762734.3476074,-3.34194,0.763,-0.42728,-0.92175057,0.34521396,-0.10839816
1764762734.3476074,-3.34194,0.763,-0.42728,-0.92175057,0.34521396,-0.10839816
1764762734.3476074,-3.34194,0.763,-0.42728,-0.92175057,0.34521396,-0.10839816
1764762734.3476074,-3.34194,0.763,-0.42728,-0.92175057,0.34521396,-0.10839816
1764762734.3476074,-3.34194,0.763,-0.42728,-0.92175057,0.34521396,-0.10839816
1764762734.3476074,-5.890359999999999,0.8087799999999999,0.6103999999999999,-0.918637785,0.347960535,-0.106384005
1764762734.3476074,-5.890359999999999,0.8087799999999999,0.6103999999999999,-0.918637785,0.347960535,-0.106384005
1764762734.3476074,-5.890359999999999,0.8087799999999999,0.6103999999999999,-0.918637785,0.347960535,-0.106384005
1764762734.3476074,-5.890359999999999,0.8087799999999999,0.6103999999999999,-0.918637785,0.347960535,-0.106384005
1764762734.3476074,-5.890359999999999,0.8087799999999999,0.6103999999999999,-0.918637785,0.347960535,-0.106384005
1764762734.3476074,-5.890359999999999,0.8087799999999999,0.6103999999999999,-0.918637785,0.347960535,-0.106384005
1764762734.3491347,-5.890359999999999,0.8087799999999999,0.6103999999999999,-0.918637785,0.347960535,-0.106384005
1764762734.3491347,-5.890359999999999,0.8087799999999999,0.6103999999999999,-0.918637785,0.347960535,-0.106384005
1764762734.3491347,-5.890359999999999,0.8087799999999999,0.6103999999999999,-0.918637785,0.347960535,-0.106384005
1764762734.3491347,-5.890359999999999,0.8087799999999999,0.6103999999999999,-0.918637785,0.347960535,-0.106384005
1764762734.3491347,-6.69914,-0.3815,-0.1525999999999999,-0.9179664,0.347594325,-0.10473606
1764762734.3491347,-6.69914,-0.3815,-0.1525999999999999,-0.9179664,0.347594325,-0.10473606
1764762734.3491347,-6.69914,-0.3815,-0.1525999999999999,-0.9179664,0.347594325,-0.10473606
1764762734.3491347,-6.69914,-0.3815,-0.1525999999999999,-0.9179664,0.347594325,-0.10473606
1764762734.3491347,-6.69914,-0.3815,-0.1525999999999999,-0.9179664,0.347594325,-0.10473606
1764762734.3491347,-6.69914,-0.3815,-0.1525999999999999,-0.9179664,0.347594325,-0.10473606
1764762734.3957264,-6.69914,-0.3815,-0.1525999999999999,-0.9179664,0.347594325,-0.10473606
1764762734.3957264,-6.69914,-0.3815,-0.1525999999999999,-0.9179664,0.347594325,-0.10473606
1764762734.3957264,-6.69914,-0.3815,-0.1525999999999999,-0.9179664,0.347594325,-0.10473606
1764762734.3957264,-6.69914,-0.3815,-0.1525999999999999,-0.9179664,0.347594325,-0.10473606
1764762734.3957264,-5.58516,-1.35814,-0.5341,-0.920102625,0.34594638,-0.104552955
1764762734.3957264,-5.58516,-1.35814,-0.5341,-0.920102625,0.34594638,-0.104552955
1764762734.3957264,-5.58516,-1.35814,-0.5341,-0.920102625,0.34594638,-0.104552955
1764762734.3957264,-5.58516,-1.35814,-0.5341,-0.920102625,0.34594638,-0.104552955
1764762734.3957264,-5.58516,-1.35814,-0.5341,-0.920102625,0.34594638,-0.104552955
1764762734.3957264,-5.58516,-1.35814,-0.5341,-0.920102625,0.34594638,-0.104552955
1764762734.3957264,-5.58516,-1.35814,-0.5341,-0.920102625,0.34594638,-0.104552955
1764762734.3957264,-5.58516,-1.35814,-0.5341,-0.920102625,0.34594638,-0.104552955
1764762734.3957264,-5.58516,-1.35814,-0.5341,-0.920102625,0.34594638,-0.104552955
1764762734.3957264,-5.58516,-1.35814,-0.5341,-0.920102625,0.34594638,-0.104552955
1764762734.3957264,-4.22702,-1.6022999999999998,-0.01526,-0.924375075,0.348082605,-0.107726775
1764762734.3957264,-4.22702,-1.6022999999999998,-0.01526,-0.924375075,0.348082605,-0.107726775
1764762734.3957264,-4.22702,-1.6022999999999998,-0.01526,-0.924375075,0.348082605,-0.107726775
1764762734.3957264,-4.22702,-1.6022999999999998,-0.01526,-0.924375075,0.348082605,-0.107726775
1764762734.3957264,-4.22702,-1.6022999999999998,-0.01526,-0.924375075,0.348082605,-0.107726775
1764762734.3967452,-4.22702,-1.6022999999999998,-0.01526,-0.924375075,0.348082605,-0.107726775
1764762734.3967452,-4.22702,-1.6022999999999998,-0.01526,-0.924375075,0.348082605,-0.107726775
1764762734.3967452,-4.22702,-1.6022999999999998,-0.01526,-0.924375075,0.348082605,-0.107726775
1764762734.4428058,-4.22702,-1.6022999999999998,-0.01526,-0.924375075,0.348082605,-0.107726775
1764762734.4428058,-4.22702,-1.6022999999999998,-0.01526,-0.924375075,0.348082605,-0.107726775
1764762734.4428058,-5.4936,-0.25942,0.6867,-0.92431404,0.3527823,-0.11144991
1764762734.4428058,-5.4936,-0.25942,0.6867,-0.92431404,0.3527823,-0.11144991
1764762734.4428058,-5.4936,-0.25942,0.6867,-0.92431404,0.3527823,-0.11144991
1764762734.4428058,-5.4936,-0.25942,0.6867,-0.92431404,0.3527823,-0.11144991
1764762734.4428058,-5.4936,-0.25942,0.6867,-0.92431404,0.3527823,-0.11144991
1764762734.4428058,-5.4936,-0.25942,0.6867,-0.92431404,0.3527823,-0.11144991
1764762734.4428058,-5.4936,-0.25942,0.6867,-0.92431404,0.3527823,-0.11144991
1764762734.4428058,-5.4936,-0.25942,0.6867,-0.92431404,0.3527823,-0.11144991
1764762734.4428058,-5.4936,-0.25942,0.6867,-0.92431404,0.3527823,-0.11144991
1764762734.4428058,-5.4936,-0.25942,0.6867,-0.92431404,0.3527823,-0.11144991
1764762734.4428058,-6.88226,0.57988,1.09872,-0.92333748,0.354674385,-0.11035128
1764762734.4428058,-6.88226,0.57988,1.09872,-0.92333748,0.354674385,-0.11035128
1764762734.4428058,-6.88226,0.57988,1.09872,-0.92333748,0.354674385,-0.11035128
1764762734.4428058,-6.88226,0.57988,1.09872,-0.92333748,0.354674385,-0.11035128
1764762734.4428058,-6.88226,0.57988,1.09872,-0.92333748,0.354674385,-0.11035128
1764762734.4428058,-6.88226,0.57988,1.09872,-0.92333748,0.354674385,-0.11035128
1764762734.4428058,-6.88226,0.57988,1.09872,-0.92333748,0.354674385,-0.11035128
1764762734.4428058,-6.88226,0.57988,1.09872,-0.92333748,0.354674385,-0.11035128
1764762734.4428058,-6.88226,0.57988,1.09872,-0.92333748,0.354674385,-0.11035128
1764762734.4428058,-6.88226,0.57988,1.09872,-0.92333748,0.354674385,-0.11035128
1764762734.4428058,-6.790699999999999,0.25942,1.28184,-0.922299885,0.35046297,-0.10717746
1764762734.4428058,-6.790699999999999,0.25942,1.28184,-0.922299885,0.35046297,-0.10717746
1764762734.4428058,-6.790699999999999,0.25942,1.28184,-0.922299885,0.35046297,-0.10717746
1764762734.4428058,-6.790699999999999,0.25942,1.28184,-0.922299885,0.35046297,-0.10717746
1764762734.4908986,-6.790699999999999,0.25942,1.28184,-0.922299885,0.35046297,-0.10717746
1764762734.4908986,-6.790699999999999,0.25942,1.28184,-0.922299885,0.35046297,-0.10717746
1764762734.4908986,-6.790699999999999,0.25942,1.28184,-0.922299885,0.35046297,-0.10717746
1764762734.4908986,-6.790699999999999,0.25942,1.28184,-0.922299885,0.35046297,-0.10717746
1764762734.4908986,-6.790699999999999,0.25942,1.28184,-0.922299885,0.35046297,-0.10717746
1764762734.4908986,-6.790699999999999,0.25942,1.28184,-0.922299885,0.35046297,-0.10717746
1764762734.4908986,-4.852679999999999,-0.13734,1.28184,-0.92248299,0.34606845,-0.10717746
1764762734.4908986,-4.852679999999999,-0.13734,1.28184,-0.92248299,0.34606845,-0.10717746
1764762734.4908986,-4.852679999999999,-0.13734,1.28184,-0.92248299,0.34606845,-0.10717746
1764762734.4908986,-4.852679999999999,-0.13734,1.28184,-0.92248299,0.34606845,-0.10717746
1764762734.4908986,-4.852679999999999,-0.13734,1.28184,-0.92248299,0.34606845,-0.10717746
1764762734.4908986,-4.852679999999999,-0.13734,1.28184,-0.92248299,0.34606845,-0.10717746
1764762734.4908986,-4.852679999999999,-0.13734,1.28184,-0.92248299,0.34606845,-0.10717746
1764762734.4908986,-4.852679999999999,-0.13734,1.28184,-0.92248299,0.34606845,-0.10717746
1764762734.4908986,-4.852679999999999,-0.13734,1.28184,-0.92248299,0.34606845,-0.10717746
1764762734.4908986,-4.852679999999999,-0.13734,1.28184,-0.92248299,0.34606845,-0.10717746
1764762734.4908986,-5.1884,0.25942,0.6103999999999999,-0.921567465,0.34728915,-0.10815402
1764762734.4908986,-5.1884,0.25942,0.6103999999999999,-0.921567465,0.34728915,-0.10815402
1764762734.4908986,-5.1884,0.25942,0.6103999999999999,-0.921567465,0.34728915,-0.10815402
1764762734.4908986,-5.1884,0.25942,0.6103999999999999,-0.921567465,0.34728915,-0.10815402
1764762734.4908986,-5.1884,0.25942,0.6103999999999999,-0.921567465,0.34728915,-0.10815402
1764762734.4908986,-5.1884,0.25942,0.6103999999999999,-0.921567465,0.34728915,-0.10815402
1764762734.5374825,-5.1884,0.25942,0.6103999999999999,-0.921567465,0.34728915,-0.10815402
1764762734.5374825,-5.1884,0.25942,0.6103999999999999,-0.921567465,0.34728915,-0.10815402
1764762734.5374825,-5.1884,0.25942,0.6103999999999999,-0.921567465,0.34728915,-0.10815402
1764762734.5374825,-5.1884,0.25942,0.6103999999999999,-0.921567465,0.34728915,-0.10815402
1764762734.5374825,-5.90562,-0.09156,0.48832,-0.920835045,0.35107332,-0.10766574
1764762734.5374825,-5.90562,-0.09156,0.48832,-0.920835045,0.35107332,-0.10766574
1764762734.5374825,-5.90562,-0.09156,0.48832,-0.920835045,0.35107332,-0.10766574
1764762734.5374825,-5.90562,-0.09156,0.48832,-0.920835045,0.35107332,-0.10766574
1764762734.5374825,-5.90562,-0.09156,0.48832,-0.920835045,0.35107332,-0.10766574
1764762734.5374825,-5.90562,-0.09156,0.48832,-0.920835045,0.35107332,-0.10766574
1764762734.5374825,-5.90562,-0.09156,0.48832,-0.920835045,0.35107332,-0.10766574
1764762734.5374825,-5.90562,-0.09156,0.48832,-0.920835045,0.35107332,-0.10766574
1764762734.5374825,-5.90562,-0.09156,0.48832,-0.920835045,0.35107332,-0.10766574
1764762734.5374825,-5.90562,-0.09156,0.48832,-0.920835045,0.35107332,-0.10766574
1764762734.5374825,-6.867,0.06104,0.71722,-0.919980555,0.352599195,-0.10522434
1764762734.5374825,-6.867,0.06104,0.71722,-0.919980555,0.352599195,-0.10522434
1764762734.5374825,-6.867,0.06104,0.71722,-0.919980555,0.352599195,-0.10522434
1764762734.5374825,-6.867,0.06104,0.71722,-0.919980555,0.352599195,-0.10522434
1764762734.5374825,-6.867,0.06104,0.71722,-0.919980555,0.352599195,-0.10522434
1764762734.5374825,-6.867,0.06104,0.71722,-0.919980555,0.352599195,-0.10522434
1764762734.5379865,-6.867,0.06104,0.71722,-0.919980555,0.352599195,-0.10522434
1764762734.5379865,-6.867,0.06104,0.71722,-0.919980555,0.352599195,-0.10522434
