Timestamp,GyroX,GyroY,GyroZ,AccX,AccY,AccZ
1764764681.1279,-10.84986,-5.15788,-5.890359999999999,-0.897275535,0.35986236,-0.252623865
1764764681.1279,-10.84986,-5.15788,-5.890359999999999,-0.897275535,0.35986236,-0.252623865
1764764681.1279,-10.84986,-5.15788,-5.890359999999999,-0.897275535,0.35986236,-0.252623865
1764764681.1279,-10.84986,-5.15788,-5.890359999999999,-0.897275535,0.35986236,-0.252623865
1764764681.1279,-10.84986,-5.15788,-5.890359999999999,-0.897275535,0.35986236,-0.252623865
1764764681.1279,-10.84986,-5.15788,-5.890359999999999,-0.897275535,0.35986236,-0.252623865
1764764681.1279,-15.74832,-4.89846,-5.508859999999999,-0.896421045,0.359557185,-0.251281095
1764764681.1279,-15.74832,-4.89846,-5.508859999999999,-0.896421045,0.359557185,-0.251281095
1764764681.1279,-15.74832,-4.89846,-5.508859999999999,-0.896421045,0.359557185,-0.251281095
1764764681.1279,-15.74832,-4.89846,-5.508859999999999,-0.896421045,0.359557185,-0.251281095
1764764681.1279,-15.74832,-4.89846,-5.508859999999999,-0.896421045,0.359557185,-0.251281095
1764764681.1279,-15.74832,-4.89846,-5.508859999999999,-0.896421045,0.359557185,-0.251281095
1764764681.1279,-15.74832,-4.89846,-5.508859999999999,-0.896421045,0.359557185,-0.251281095
1764764681.1279,-15.74832,-4.89846,-5.508859999999999,-0.896421045,0.359557185,-0.251281095
1764764681.1279,-15.74832,-4.89846,-5.508859999999999,-0.896421045,0.359557185,-0.251281095
1764764681.1279,-15.74832,-4.89846,-5.508859999999999,-0.896421045,0.359557185,-0.251281095
1764764681.1279,-19.05974,-5.44782,-4.959499999999999,-0.899350725,0.358458555,-0.249205905
1764764681.1279,-19.05974,-5.44782,-4.959499999999999,-0.899350725,0.358458555,-0.249205905
1764764681.1279,-19.05974,-5.44782,-4.959499999999999,-0.899350725,0.358458555,-0.249205905
1764764681.1279,-19.05974,-5.44782,-4.959499999999999,-0.899350725,0.358458555,-0.249205905
1764764681.1279,-19.05974,-5.44782,-4.959499999999999,-0.899350725,0.358458555,-0.249205905
1764764681.1279,-19.05974,-5.44782,-4.959499999999999,-0.899350725,0.358458555,-0.249205905
1764764681.1279,-19.05974,-5.44782,-4.959499999999999,-0.899350725,0.358458555,-0.249205905
1764764681.1279,-19.05974,-5.44782,-4.959499999999999,-0.899350725,0.358458555,-0.249205905
1764764681.1706991,-19.05974,-5.44782,-4.959499999999999,-0.899350725,0.358458555,-0.249205905
1764764681.1706991,-19.05974,-5.44782,-4.959499999999999,-0.899350725,0.358458555,-0.249205905
1764764681.1706991,-22.2796,-6.14978,-3.72344,-0.905088015,0.35424714,-0.246398295
1764764681.1706991,-22.2796,-6.14978,-3.72344,-0.905088015,0.35424714,-0.246398295
1764764681.1706991,-22.2796,-6.14978,-3.72344,-0.905088015,0.35424714,-0.246398295
1764764681.1706991,-22.2796,-6.14978,-3.72344,-0.905088015,0.35424714,-0.246398295
1764764681.1706991,-22.2796,-6.14978,-3.72344,-0.905088015,0.35424714,-0.246398295
1764764681.1706991,-22.2796,-6.14978,-3.72344,-0.905088015,0.35424714,-0.246398295
1764764681.1706991,-22.2796,-6.14978,-3.72344,-0.905088015,0.35424714,-0.246398295
1764764681.1706991,-22.2796,-6.14978,-3.72344,-0.905088015,0.35424714,-0.246398295
1764764681.1706991,-22.2796,-6.14978,-3.72344,-0.905088015,0.35424714,-0.246398295
1764764681.1706991,-22.2796,-6.14978,-3.72344,-0.905088015,0.35424714,-0.246398295
1764764681.1706991,-20.72308,-5.35626,-2.85362,-0.907407345,0.348326745,-0.24145446
1764764681.1706991,-20.72308,-5.35626,-2.85362,-0.907407345,0.348326745,-0.24145446
1764764681.1706991,-20.72308,-5.35626,-2.85362,-0.907407345,0.348326745,-0.24145446
1764764681.1706991,-20.72308,-5.35626,-2.85362,-0.907407345,0.348326745,-0.24145446
1764764681.1706991,-20.72308,-5.35626,-2.85362,-0.907407345,0.348326745,-0.24145446
1764764681.1706991,-20.72308,-5.35626,-2.85362,-0.907407345,0.348326745,-0.24145446
1764764681.1706991,-20.72308,-5.35626,-2.85362,-0.907407345,0.348326745,-0.24145446
1764764681.1706991,-20.72308,-5.35626,-2.85362,-0.907407345,0.348326745,-0.24145446
1764764681.1706991,-20.72308,-5.35626,-2.85362,-0.907407345,0.348326745,-0.24145446
1764764681.17213,-20.72308,-5.35626,-2.85362,-0.907407345,0.348326745,-0.24145446
1764764681.217021,-16.038259999999998,-4.440659999999999,-3.14356,-0.910214955,0.340514265,-0.239440305
1764764681.217021,-16.038259999999998,-4.440659999999999,-3.14356,-0.910214955,0.340514265,-0.239440305
1764764681.217021,-16.038259999999998,-4.440659999999999,-3.14356,-0.910214955,0.340514265,-0.239440305
1764764681.217021,-16.038259999999998,-4.440659999999999,-3.14356,-0.910214955,0.340514265,-0.239440305
1764764681.217021,-16.038259999999998,-4.440659999999999,-3.14356,-0.910214955,0.340514265,-0.239440305
1764764681.217021,-16.038259999999998,-4.440659999999999,-3.14356,-0.910214955,0.340514265,-0.239440305
1764764681.2182465,-16.038259999999998,-4.440659999999999,-3.14356,-0.910214955,0.340514265,-0.239440305
1764764681.2182465,-16.038259999999998,-4.440659999999999,-3.14356,-0.910214955,0.340514265,-0.239440305
1764764681.2182465,-16.038259999999998,-4.440659999999999,-3.14356,-0.910214955,0.340514265,-0.239440305
1764764681.2182465,-16.038259999999998,-4.440659999999999,-3.14356,-0.910214955,0.340514265,-0.239440305
1764764681.2182465,-12.16222,-3.32668,0.09156,-0.915952245,0.336974235,-0.23644959
1764764681.2182465,-12.16222,-3.32668,0.09156,-0.915952245,0.336974235,-0.23644959
1764764681.2182465,-12.16222,-3.32668,0.09156,-0.915952245,0.336974235,-0.23644959
1764764681.2182465,-12.16222,-3.32668,0.09156,-0.915952245,0.336974235,-0.23644959
1764764681.2182465,-12.16222,-3.32668,0.09156,-0.915952245,0.336974235,-0.23644959
1764764681.2182465,-12.16222,-3.32668,0.09156,-0.915952245,0.336974235,-0.23644959
1764764681.2182465,-12.16222,-3.32668,0.09156,-0.915952245,0.336974235,-0.23644959
1764764681.2182465,-12.16222,-3.32668,0.09156,-0.915952245,0.336974235,-0.23644959
1764764681.2182465,-12.16222,-3.32668,0.09156,-0.915952245,0.336974235,-0.23644959
1764764681.2182465,-12.16222,-3.32668,0.09156,-0.915952245,0.336974235,-0.23644959
1764764681.2182465,-12.34534,-2.39582,4.08968,-0.922666095,0.34106358,-0.234679575
1764764681.2182465,-12.34534,-2.39582,4.08968,-0.922666095,0.34106358,-0.234679575
1764764681.2182465,-12.34534,-2.39582,4.08968,-0.922666095,0.34106358,-0.234679575
1764764681.2182465,-12.34534,-2.39582,4.08968,-0.922666095,0.34106358,-0.234679575
1764764681.2654169,-12.34534,-2.39582,4.08968,-0.922666095,0.34106358,-0.234679575
1764764681.2654169,-12.34534,-2.39582,4.08968,-0.922666095,0.34106358,-0.234679575
1764764681.2654169,-12.34534,-2.39582,4.08968,-0.922666095,0.34106358,-0.234679575
1764764681.2654169,-12.34534,-2.39582,4.08968,-0.922666095,0.34106358,-0.234679575
1764764681.2654169,-12.34534,-2.39582,4.08968,-0.922666095,0.34106358,-0.234679575
1764764681.2654169,-12.34534,-2.39582,4.08968,-0.922666095,0.34106358,-0.234679575
1764764681.2654169,-20.17372,-3.2809,8.042019999999999,-0.92858649,0.350524005,-0.234801645
1764764681.2659287,-20.17372,-3.2809,8.042019999999999,-0.92858649,0.350524005,-0.234801645
1764764681.2659287,-20.17372,-3.2809,8.042019999999999,-0.92858649,0.350524005,-0.234801645
1764764681.2659287,-20.17372,-3.2809,8.042019999999999,-0.92858649,0.350524005,-0.234801645
1764764681.2659287,-20.17372,-3.2809,8.042019999999999,-0.92858649,0.350524005,-0.234801645
1764764681.2659287,-20.17372,-3.2809,8.042019999999999,-0.92858649,0.350524005,-0.234801645
1764764681.2659287,-20.17372,-3.2809,8.042019999999999,-0.92858649,0.350524005,-0.234801645
1764764681.2659287,-20.17372,-3.2809,8.042019999999999,-0.92858649,0.350524005,-0.234801645
1764764681.2659287,-20.17372,-3.2809,8.042019999999999,-0.92858649,0.350524005,-0.234801645
1764764681.2659287,-20.17372,-3.2809,8.042019999999999,-0.92858649,0.350524005,-0.234801645
1764764681.2659287,-27.86476,-3.93708,6.9433,-0.92236092,0.353331615,-0.23181093
1764764681.2659287,-27.86476,-3.93708,6.9433,-0.92236092,0.353331615,-0.23181093
1764764681.2659287,-27.86476,-3.93708,6.9433,-0.92236092,0.353331615,-0.23181093
1764764681.2659287,-27.86476,-3.93708,6.9433,-0.92236092,0.353331615,-0.23181093
1764764681.2659287,-27.86476,-3.93708,6.9433,-0.92236092,0.353331615,-0.23181093
1764764681.2659287,-27.86476,-3.93708,6.9433,-0.92236092,0.353331615,-0.23181093
1764764681.3128693,-27.86476,-3.93708,6.9433,-0.92236092,0.353331615,-0.23181093
1764764681.3128693,-27.86476,-3.93708,6.9433,-0.92236092,0.353331615,-0.23181093
1764764681.3128693,-27.86476,-3.93708,6.9433,-0.92236092,0.353331615,-0.23181093
1764764681.3128693,-27.86476,-3.93708,6.9433,-0.92236092,0.353331615,-0.23181093
1764764681.3128693,-23.66826,-0.28994,5.82932,-0.905698365,0.343566015,-0.22802676
1764764681.3128693,-23.66826,-0.28994,5.82932,-0.905698365,0.343566015,-0.22802676
1764764681.3128693,-23.66826,-0.28994,5.82932,-0.905698365,0.343566015,-0.22802676
1764764681.3128693,-23.66826,-0.28994,5.82932,-0.905698365,0.343566015,-0.22802676
1764764681.3128693,-23.66826,-0.28994,5.82932,-0.905698365,0.343566015,-0.22802676
1764764681.3128693,-23.66826,-0.28994,5.82932,-0.905698365,0.343566015,-0.22802676
1764764681.3128693,-23.66826,-0.28994,5.82932,-0.905698365,0.343566015,-0.22802676
1764764681.3128693,-23.66826,-0.28994,5.82932,-0.905698365,0.343566015,-0.22802676
1764764681.3128693,-23.66826,-0.28994,5.82932,-0.905698365,0.343566015,-0.22802676
1764764681.3128693,-23.66826,-0.28994,5.82932,-0.905698365,0.343566015,-0.22802676
1764764681.3128693,-13.32198,1.526,4.852679999999999,-0.89733657,0.33471594,-0.224181555
1764764681.3128693,-13.32198,1.526,4.852679999999999,-0.89733657,0.33471594,-0.224181555
1764764681.3128693,-13.32198,1.526,4.852679999999999,-0.89733657,0.33471594,-0.224181555
1764764681.3128693,-13.32198,1.526,4.852679999999999,-0.89733657,0.33471594,-0.224181555
1764764681.3128693,-13.32198,1.526,4.852679999999999,-0.89733657,0.33471594,-0.224181555
1764764681.3128693,-13.32198,1.526,4.852679999999999,-0.89733657,0.33471594,-0.224181555
1764764681.3128693,-13.32198,1.526,4.852679999999999,-0.89733657,0.33471594,-0.224181555
1764764681.3128693,-13.32198,1.526,4.852679999999999,-0.89733657,0.33471594,-0.224181555
1764764681.3128693,-13.32198,1.526,4.852679999999999,-0.89733657,0.33471594,-0.224181555
1764764681.3128693,-13.32198,1.526,4.852679999999999,-0.89733657,0.33471594,-0.224181555
1764764681.3564656,-8.179359999999999,3.052,4.24228,-0.893735505,0.338439075,-0.220275315
1764764681.3564656,-8.179359999999999,3.052,4.24228,-0.893735505,0.338439075,-0.220275315
1764764681.3564656,-8.179359999999999,3.052,4.24228,-0.893735505,0.338439075,-0.220275315
1764764681.3564656,-8.179359999999999,3.052,4.24228,-0.893735505,0.338439075,-0.220275315
1764764681.3564656,-8.179359999999999,3.052,4.24228,-0.893735505,0.338439075,-0.220275315
1764764681.3564656,-8.179359999999999,3.052,4.24228,-0.893735505,0.338439075,-0.220275315
1764764681.3564656,-8.179359999999999,3.052,4.24228,-0.893735505,0.338439075,-0.220275315
1764764681.3564656,-8.179359999999999,3.052,4.24228,-0.893735505,0.338439075,-0.220275315
1764764681.3564656,-8.179359999999999,3.052,4.24228,-0.893735505,0.338439075,-0.220275315
1764764681.3564656,-8.179359999999999,3.052,4.24228,-0.893735505,0.338439075,-0.220275315
1764764681.3564656,-10.4531,3.5861,0.85456,-0.89379654,0.345885345,-0.2185053
1764764681.3564656,-10.4531,3.5861,0.85456,-0.89379654,0.345885345,-0.2185053
1764764681.3564656,-10.4531,3.5861,0.85456,-0.89379654,0.345885345,-0.2185053
1764764681.3564656,-10.4531,3.5861,0.85456,-0.89379654,0.345885345,-0.2185053
1764764681.3564656,-10.4531,3.5861,0.85456,-0.89379654,0.345885345,-0.2185053
1764764681.3564656,-10.4531,3.5861,0.85456,-0.89379654,0.345885345,-0.2185053
1764764681.3564656,-10.4531,3.5861,0.85456,-0.89379654,0.345885345,-0.2185053
1764764681.3564656,-10.4531,3.5861,0.85456,-0.89379654,0.345885345,-0.2185053
1764764681.3574722,-10.4531,3.5861,0.85456,-0.89379654,0.345885345,-0.2185053
1764764681.3574722,-10.4531,3.5861,0.85456,-0.89379654,0.345885345,-0.2185053
1764764681.3574722,-11.3687,4.13546,-0.04578,-0.895322415,0.349425375,-0.216491145
1764764681.3574722,-11.3687,4.13546,-0.04578,-0.895322415,0.349425375,-0.216491145
1764764681.3574722,-11.3687,4.13546,-0.04578,-0.895322415,0.349425375,-0.216491145
1764764681.3574722,-11.3687,4.13546,-0.04578,-0.895322415,0.349425375,-0.216491145
1764764681.407109,-11.3687,4.13546,-0.04578,-0.895322415,0.349425375,-0.216491145
1764764681.407109,-11.3687,4.13546,-0.04578,-0.895322415,0.349425375,-0.216491145
1764764681.407109,-11.3687,4.13546,-0.04578,-0.895322415,0.349425375,-0.216491145
1764764681.407109,-11.3687,4.13546,-0.04578,-0.895322415,0.349425375,-0.216491145
1764764681.407109,-11.3687,4.13546,-0.04578,-0.895322415,0.349425375,-0.216491145
1764764681.407109,-11.3687,4.13546,-0.04578,-0.895322415,0.349425375,-0.216491145
1764764681.407109,-10.0716,5.615679999999999,-0.8392999999999999,-0.89465103,0.34863192,-0.21447699
1764764681.407109,-10.0716,5.615679999999999,-0.8392999999999999,-0.89465103,0.34863192,-0.21447699
1764764681.407109,-10.0716,5.615679999999999,-0.8392999999999999,-0.89465103,0.34863192,-0.21447699
1764764681.407109,-10.0716,5.615679999999999,-0.8392999999999999,-0.89465103,0.34863192,-0.21447699
1764764681.407109,-10.0716,5.615679999999999,-0.8392999999999999,-0.89465103,0.34863192,-0.21447699
1764764681.407109,-10.0716,5.615679999999999,-0.8392999999999999,-0.89465103,0.34863192,-0.21447699
1764764681.4076145,-10.0716,5.615679999999999,-0.8392999999999999,-0.89465103,0.34863192,-0.21447699
1764764681.4076145,-10.0716,5.615679999999999,-0.8392999999999999,-0.89465103,0.34863192,-0.21447699
1764764681.4076145,-10.0716,5.615679999999999,-0.8392999999999999,-0.89465103,0.34863192,-0.21447699
1764764681.4076145,-10.0716,5.615679999999999,-0.8392999999999999,-0.89465103,0.34863192,-0.21447699
1764764681.4076145,-7.90468,5.66146,-0.7019599999999999,-0.89941176,0.349669515,-0.211364205
1764764681.4076145,-7.90468,5.66146,-0.7019599999999999,-0.89941176,0.349669515,-0.211364205
1764764681.4076145,-7.90468,5.66146,-0.7019599999999999,-0.89941176,0.349669515,-0.211364205
1764764681.4076145,-7.90468,5.66146,-0.7019599999999999,-0.89941176,0.349669515,-0.211364205
1764764681.4076145,-7.90468,5.66146,-0.7019599999999999,-0.89941176,0.349669515,-0.211364205
1764764681.4076145,-7.90468,5.66146,-0.7019599999999999,-0.89941176,0.349669515,-0.211364205
1764764681.4076145,-7.90468,5.66146,-0.7019599999999999,-0.89941176,0.349669515,-0.211364205
1764764681.4076145,-7.90468,5.66146,-0.7019599999999999,-0.89941176,0.349669515,-0.211364205
1764764681.450609,-7.90468,5.66146,-0.7019599999999999,-0.89941176,0.349669515,-0.211364205
1764764681.450609,-7.90468,5.66146,-0.7019599999999999,-0.89941176,0.349669515,-0.211364205
1764764681.450609,-5.14262,5.93614,-0.18312,-0.902646615,0.351500565,-0.20886177
1764764681.450609,-5.14262,5.93614,-0.18312,-0.902646615,0.351500565,-0.20886177
1764764681.450609,-5.14262,5.93614,-0.18312,-0.902646615,0.351500565,-0.20886177
1764764681.450609,-5.14262,5.93614,-0.18312,-0.902646615,0.351500565,-0.20886177
1764764681.450609,-5.14262,5.93614,-0.18312,-0.902646615,0.351500565,-0.20886177
1764764681.450609,-5.14262,5.93614,-0.18312,-0.902646615,0.351500565,-0.20886177
1764764681.450609,-5.14262,5.93614,-0.18312,-0.902646615,0.351500565,-0.20886177
1764764681.450609,-5.14262,5.93614,-0.18312,-0.902646615,0.351500565,-0.20886177
1764764681.450609,-5.14262,5.93614,-0.18312,-0.902646615,0.351500565,-0.20886177
1764764681.450609,-5.14262,5.93614,-0.18312,-0.902646615,0.351500565,-0.20886177
1764764681.450609,-0.93086,7.065379999999999,-0.0762999999999999,-0.90270765,0.350035725,-0.2062983
1764764681.450609,-0.93086,7.065379999999999,-0.0762999999999999,-0.90270765,0.350035725,-0.2062983
1764764681.450609,-0.93086,7.065379999999999,-0.0762999999999999,-0.90270765,0.350035725,-0.2062983
1764764681.450609,-0.93086,7.065379999999999,-0.0762999999999999,-0.90270765,0.350035725,-0.2062983
1764764681.450609,-0.93086,7.065379999999999,-0.0762999999999999,-0.90270765,0.350035725,-0.2062983
1764764681.450609,-0.93086,7.065379999999999,-0.0762999999999999,-0.90270765,0.350035725,-0.2062983
1764764681.450609,-0.93086,7.065379999999999,-0.0762999999999999,-0.90270765,0.350035725,-0.2062983
1764764681.450609,-0.93086,7.065379999999999,-0.0762999999999999,-0.90270765,0.350035725,-0.2062983
1764764681.497445,-0.93086,7.065379999999999,-0.0762999999999999,-0.90270765,0.350035725,-0.2062983
1764764681.497445,-0.93086,7.065379999999999,-0.0762999999999999,-0.90270765,0.350035725,-0.2062983
1764764681.497445,5.43256,7.87416,-0.85456,-0.90160902,0.34509189,-0.206359335
1764764681.497445,5.43256,7.87416,-0.85456,-0.90160902,0.34509189,-0.206359335
1764764681.497445,5.43256,7.87416,-0.85456,-0.90160902,0.34509189,-0.206359335
1764764681.497445,5.43256,7.87416,-0.85456,-0.90160902,0.34509189,-0.206359335
1764764681.497445,5.43256,7.87416,-0.85456,-0.90160902,0.34509189,-0.206359335
1764764681.497445,5.43256,7.87416,-0.85456,-0.90160902,0.34509189,-0.206359335
1764764681.497445,5.43256,7.87416,-0.85456,-0.90160902,0.34509189,-0.206359335
1764764681.497445,5.43256,7.87416,-0.85456,-0.90160902,0.34509189,-0.206359335
1764764681.497445,5.43256,7.87416,-0.85456,-0.90160902,0.34509189,-0.206359335
1764764681.497445,5.43256,7.87416,-0.85456,-0.90160902,0.34509189,-0.206359335
1764764681.497445,12.46742,8.10306,-1.0682,-0.901670055,0.34008702,-0.20764107
1764764681.497445,12.46742,8.10306,-1.0682,-0.901670055,0.34008702,-0.20764107
1764764681.497445,12.46742,8.10306,-1.0682,-0.901670055,0.34008702,-0.20764107
1764764681.497445,12.46742,8.10306,-1.0682,-0.901670055,0.34008702,-0.20764107
1764764681.497962,12.46742,8.10306,-1.0682,-0.901670055,0.34008702,-0.20764107
1764764681.497962,12.46742,8.10306,-1.0682,-0.901670055,0.34008702,-0.20764107
1764764681.497962,12.46742,8.10306,-1.0682,-0.901670055,0.34008702,-0.20764107
1764764681.497962,12.46742,8.10306,-1.0682,-0.901670055,0.34008702,-0.20764107
1764764681.497962,12.46742,8.10306,-1.0682,-0.901670055,0.34008702,-0.20764107
1764764681.497962,12.46742,8.10306,-1.0682,-0.901670055,0.34008702,-0.20764107
1764764681.497962,17.91524,7.782599999999999,-0.3815,-0.903012825,0.338561145,-0.210021435
1764764681.497962,17.91524,7.782599999999999,-0.3815,-0.903012825,0.338561145,-0.210021435
1764764681.5433462,17.91524,7.782599999999999,-0.3815,-0.903012825,0.338561145,-0.210021435
1764764681.5433462,17.91524,7.782599999999999,-0.3815,-0.903012825,0.338561145,-0.210021435
1764764681.5433462,17.91524,7.782599999999999,-0.3815,-0.903012825,0.338561145,-0.210021435
1764764681.5433462,17.91524,7.782599999999999,-0.3815,-0.903012825,0.338561145,-0.210021435
1764764681.5433462,17.91524,7.782599999999999,-0.3815,-0.903012825,0.338561145,-0.210021435
1764764681.5433462,17.91524,7.782599999999999,-0.3815,-0.903012825,0.338561145,-0.210021435
1764764681.5433462,17.91524,7.782599999999999,-0.3815,-0.903012825,0.338561145,-0.210021435
1764764681.5433462,17.91524,7.782599999999999,-0.3815,-0.903012825,0.338561145,-0.210021435
1764764681.5433462,20.28054,7.752079999999999,-0.8698199999999999,-0.9020973,0.34142979,-0.21289008
1764764681.5433462,20.28054,7.752079999999999,-0.8698199999999999,-0.9020973,0.34142979,-0.21289008
1764764681.5433462,20.28054,7.752079999999999,-0.8698199999999999,-0.9020973,0.34142979,-0.21289008
1764764681.5433462,20.28054,7.752079999999999,-0.8698199999999999,-0.9020973,0.34142979,-0.21289008
1764764681.5433462,20.28054,7.752079999999999,-0.8698199999999999,-0.9020973,0.34142979,-0.21289008
1764764681.5433462,20.28054,7.752079999999999,-0.8698199999999999,-0.9020973,0.34142979,-0.21289008
1764764681.5433462,20.28054,7.752079999999999,-0.8698199999999999,-0.9020973,0.34142979,-0.21289008
1764764681.5433462,20.28054,7.752079999999999,-0.8698199999999999,-0.9020973,0.34142979,-0.21289008
1764764681.5433462,20.28054,7.752079999999999,-0.8698199999999999,-0.9020973,0.34142979,-0.21289008
1764764681.5433462,20.28054,7.752079999999999,-0.8698199999999999,-0.9020973,0.34142979,-0.21289008
1764764681.544881,19.71592,7.996239999999999,-1.526,-0.90270765,0.34594638,-0.217833915
1764764681.544881,19.71592,7.996239999999999,-1.526,-0.90270765,0.34594638,-0.217833915
1764764681.544881,19.71592,7.996239999999999,-1.526,-0.90270765,0.34594638,-0.217833915
1764764681.544881,19.71592,7.996239999999999,-1.526,-0.90270765,0.34594638,-0.217833915
1764764681.544881,19.71592,7.996239999999999,-1.526,-0.90270765,0.34594638,-0.217833915
1764764681.544881,19.71592,7.996239999999999,-1.526,-0.90270765,0.34594638,-0.217833915
1764764681.5876632,19.71592,7.996239999999999,-1.526,-0.90270765,0.34594638,-0.217833915
1764764681.5876632,19.71592,7.996239999999999,-1.526,-0.90270765,0.34594638,-0.217833915
1764764681.5876632,19.71592,7.996239999999999,-1.526,-0.90270765,0.34594638,-0.217833915
1764764681.5876632,19.71592,7.996239999999999,-1.526,-0.90270765,0.34594638,-0.217833915
1764764681.5876632,17.335359999999998,7.46214,-2.01432,-0.90392835,0.3515616,-0.222106365
1764764681.5876632,17.335359999999998,7.46214,-2.01432,-0.90392835,0.3515616,-0.222106365
1764764681.5876632,17.335359999999998,7.46214,-2.01432,-0.90392835,0.3515616,-0.222106365
1764764681.5876632,17.335359999999998,7.46214,-2.01432,-0.90392835,0.3515616,-0.222106365
1764764681.5876632,17.335359999999998,7.46214,-2.01432,-0.90392835,0.3515616,-0.222106365
1764764681.5876632,17.335359999999998,7.46214,-2.01432,-0.90392835,0.3515616,-0.222106365
1764764681.5876632,17.335359999999998,7.46214,-2.01432,-0.90392835,0.3515616,-0.222106365
1764764681.5876632,17.335359999999998,7.46214,-2.01432,-0.90392835,0.3515616,-0.222106365
1764764681.5876632,17.335359999999998,7.46214,-2.01432,-0.90392835,0.3515616,-0.222106365
1764764681.5876632,17.335359999999998,7.46214,-2.01432,-0.90392835,0.3515616,-0.222106365
1764764681.5876632,14.77168,7.7063,-0.94612,-0.905820435,0.354003,-0.225158115
1764764681.5876632,14.77168,7.7063,-0.94612,-0.905820435,0.354003,-0.225158115
1764764681.5876632,14.77168,7.7063,-0.94612,-0.905820435,0.354003,-0.225158115
1764764681.5876632,14.77168,7.7063,-0.94612,-0.905820435,0.354003,-0.225158115
1764764681.5876632,14.77168,7.7063,-0.94612,-0.905820435,0.354003,-0.225158115
1764764681.5876632,14.77168,7.7063,-0.94612,-0.905820435,0.354003,-0.225158115
1764764681.5876632,14.77168,7.7063,-0.94612,-0.905820435,0.354003,-0.225158115
1764764681.5889485,14.77168,7.7063,-0.94612,-0.905820435,0.354003,-0.225158115
1764764681.6358209,14.77168,7.7063,-0.94612,-0.905820435,0.354003,-0.225158115
1764764681.6358209,14.77168,7.7063,-0.94612,-0.905820435,0.354003,-0.225158115
1764764681.6358209,13.59666,6.89752,-0.41202,-0.906186645,0.353575755,-0.228454005
1764764681.6358209,13.59666,6.89752,-0.41202,-0.906186645,0.353575755,-0.228454005
1764764681.6358209,13.59666,6.89752,-0.41202,-0.906186645,0.353575755,-0.228454005
1764764681.6358209,13.59666,6.89752,-0.41202,-0.906186645,0.353575755,-0.228454005
1764764681.6358209,13.59666,6.89752,-0.41202,-0.906186645,0.353575755,-0.228454005
1764764681.6358209,13.59666,6.89752,-0.41202,-0.906186645,0.353575755,-0.228454005
1764764681.6358209,13.59666,6.89752,-0.41202,-0.906186645,0.353575755,-0.228454005
1764764681.6358209,13.59666,6.89752,-0.41202,-0.906186645,0.353575755,-0.228454005
1764764681.6358209,13.59666,6.89752,-0.41202,-0.906186645,0.353575755,-0.228454005
1764764681.6358209,13.59666,6.89752,-0.41202,-0.906186645,0.353575755,-0.228454005
1764764681.6358209,11.38396,5.96666,0.56462,-0.90649182,0.353819895,-0.23254335
1764764681.6358209,11.38396,5.96666,0.56462,-0.90649182,0.353819895,-0.23254335
1764764681.6358209,11.38396,5.96666,0.56462,-0.90649182,0.353819895,-0.23254335
1764764681.6358209,11.38396,5.96666,0.56462,-0.90649182,0.353819895,-0.23254335
1764764681.6358209,11.38396,5.96666,0.56462,-0.90649182,0.353819895,-0.23254335
1764764681.6358209,11.38396,5.96666,0.56462,-0.90649182,0.353819895,-0.23254335
1764764681.6358209,11.38396,5.96666,0.56462,-0.90649182,0.353819895,-0.23254335
1764764681.6358209,11.38396,5.96666,0.56462,-0.90649182,0.353819895,-0.23254335
1764764681.6358209,11.38396,5.96666,0.56462,-0.90649182,0.353819895,-0.23254335
1764764681.6358209,11.38396,5.96666,0.56462,-0.90649182,0.353819895,-0.23254335
1764764681.6358209,8.1641,5.1121,-0.04578,-0.90783459,0.354186105,-0.236022345
1764764681.6358209,8.1641,5.1121,-0.04578,-0.90783459,0.354186105,-0.236022345
1764764681.6821344,8.1641,5.1121,-0.04578,-0.90783459,0.354186105,-0.236022345
1764764681.6821344,8.1641,5.1121,-0.04578,-0.90783459,0.354186105,-0.236022345
1764764681.6821344,8.1641,5.1121,-0.04578,-0.90783459,0.354186105,-0.236022345
1764764681.6821344,8.1641,5.1121,-0.04578,-0.90783459,0.354186105,-0.236022345
1764764681.6821344,8.1641,5.1121,-0.04578,-0.90783459,0.354186105,-0.236022345
1764764681.6821344,8.1641,5.1121,-0.04578,-0.90783459,0.354186105,-0.236022345
1764764681.682657,8.1641,5.1121,-0.04578,-0.90783459,0.354186105,-0.236022345
1764764681.682657,8.1641,5.1121,-0.04578,-0.90783459,0.354186105,-0.236022345
1764764681.682657,5.43256,4.01338,0.01526,-0.905942505,0.35351472,-0.23840271
1764764681.682657,5.43256,4.01338,0.01526,-0.905942505,0.35351472,-0.23840271
1764764681.682657,5.43256,4.01338,0.01526,-0.905942505,0.35351472,-0.23840271
1764764681.682657,5.43256,4.01338,0.01526,-0.905942505,0.35351472,-0.23840271
1764764681.682657,5.43256,4.01338,0.01526,-0.905942505,0.35351472,-0.23840271
1764764681.682657,5.43256,4.01338,0.01526,-0.905942505,0.35351472,-0.23840271
1764764681.682657,5.43256,4.01338,0.01526,-0.905942505,0.35351472,-0.23840271
1764764681.682657,5.43256,4.01338,0.01526,-0.905942505,0.35351472,-0.23840271
1764764681.682657,5.43256,4.01338,0.01526,-0.905942505,0.35351472,-0.23840271
1764764681.682657,5.43256,4.01338,0.01526,-0.905942505,0.35351472,-0.23840271
1764764681.682657,2.31952,2.62472,-1.38866,-0.90112074,0.351378495,-0.24316344
1764764681.682657,2.31952,2.62472,-1.38866,-0.90112074,0.351378495,-0.24316344
1764764681.682657,2.31952,2.62472,-1.38866,-0.90112074,0.351378495,-0.24316344
1764764681.682657,2.31952,2.62472,-1.38866,-0.90112074,0.351378495,-0.24316344
1764764681.682657,2.31952,2.62472,-1.38866,-0.90112074,0.351378495,-0.24316344
1764764681.682657,2.31952,2.62472,-1.38866,-0.90112074,0.351378495,-0.24316344
1764764681.7283523,2.31952,2.62472,-1.38866,-0.90112074,0.351378495,-0.24316344
1764764681.7283523,2.31952,2.62472,-1.38866,-0.90112074,0.351378495,-0.24316344
1764764681.7283523,2.31952,2.62472,-1.38866,-0.90112074,0.351378495,-0.24316344
1764764681.7283523,2.31952,2.62472,-1.38866,-0.90112074,0.351378495,-0.24316344
1764764681.7288587,-4.852679999999999,1.05294,-3.09778,-0.903318,0.354003,-0.24706968
1764764681.7288587,-4.852679999999999,1.05294,-3.09778,-0.903318,0.354003,-0.24706968
1764764681.7288587,-4.852679999999999,1.05294,-3.09778,-0.903318,0.354003,-0.24706968
1764764681.7288587,-4.852679999999999,1.05294,-3.09778,-0.903318,0.354003,-0.24706968
1764764681.7288587,-4.852679999999999,1.05294,-3.09778,-0.903318,0.354003,-0.24706968
1764764681.7288587,-4.852679999999999,1.05294,-3.09778,-0.903318,0.354003,-0.24706968
1764764681.7288587,-4.852679999999999,1.05294,-3.09778,-0.903318,0.354003,-0.24706968
1764764681.7288587,-4.852679999999999,1.05294,-3.09778,-0.903318,0.354003,-0.24706968
1764764681.7288587,-4.852679999999999,1.05294,-3.09778,-0.903318,0.354003,-0.24706968
1764764681.7288587,-4.852679999999999,1.05294,-3.09778,-0.903318,0.354003,-0.24706968
1764764681.7288587,-11.2924,-0.9156,-2.10588,-0.909482535,0.3564444,-0.247618995
1764764681.7288587,-11.2924,-0.9156,-2.10588,-0.909482535,0.3564444,-0.247618995
1764764681.7288587,-11.2924,-0.9156,-2.10588,-0.909482535,0.3564444,-0.247618995
1764764681.7288587,-11.2924,-0.9156,-2.10588,-0.909482535,0.3564444,-0.247618995
1764764681.7288587,-11.2924,-0.9156,-2.10588,-0.909482535,0.3564444,-0.247618995
1764764681.7288587,-11.2924,-0.9156,-2.10588,-0.909482535,0.3564444,-0.247618995
1764764681.7288587,-11.2924,-0.9156,-2.10588,-0.909482535,0.3564444,-0.247618995
1764764681.7288587,-11.2924,-0.9156,-2.10588,-0.909482535,0.3564444,-0.247618995
1764764681.7750971,-11.2924,-0.9156,-2.10588,-0.909482535,0.3564444,-0.247618995
1764764681.7750971,-11.2924,-0.9156,-2.10588,-0.909482535,0.3564444,-0.247618995
1764764681.7750971,-14.97006,-1.1445,-3.29616,-0.90832287,0.35607819,-0.24365172
1764764681.7750971,-14.97006,-1.1445,-3.29616,-0.90832287,0.35607819,-0.24365172
1764764681.7750971,-14.97006,-1.1445,-3.29616,-0.90832287,0.35607819,-0.24365172
1764764681.7750971,-14.97006,-1.1445,-3.29616,-0.90832287,0.35607819,-0.24365172
1764764681.7750971,-14.97006,-1.1445,-3.29616,-0.90832287,0.35607819,-0.24365172
1764764681.7750971,-14.97006,-1.1445,-3.29616,-0.90832287,0.35607819,-0.24365172
1764764681.7750971,-14.97006,-1.1445,-3.29616,-0.90832287,0.35607819,-0.24365172
1764764681.7750971,-14.97006,-1.1445,-3.29616,-0.90832287,0.35607819,-0.24365172
1764764681.7750971,-14.97006,-1.1445,-3.29616,-0.90832287,0.35607819,-0.24365172
1764764681.7750971,-14.97006,-1.1445,-3.29616,-0.90832287,0.35607819,-0.24365172
1764764681.7750971,-15.73306,0.62566,-4.1202,-0.903318,0.35204988,-0.23754822
1764764681.7750971,-15.73306,0.62566,-4.1202,-0.903318,0.35204988,-0.23754822
1764764681.7750971,-15.73306,0.62566,-4.1202,-0.903318,0.35204988,-0.23754822
1764764681.7750971,-15.73306,0.62566,-4.1202,-0.903318,0.35204988,-0.23754822
1764764681.7750971,-15.73306,0.62566,-4.1202,-0.903318,0.35204988,-0.23754822
1764764681.7750971,-15.73306,0.62566,-4.1202,-0.903318,0.35204988,-0.23754822
1764764681.7750971,-15.73306,0.62566,-4.1202,-0.903318,0.35204988,-0.23754822
1764764681.7750971,-15.73306,0.62566,-4.1202,-0.903318,0.35204988,-0.23754822
1764764681.7750971,-15.73306,0.62566,-4.1202,-0.903318,0.35204988,-0.23754822
1764764681.7750971,-15.73306,0.62566,-4.1202,-0.903318,0.35204988,-0.23754822
1764764681.7750971,-15.382079999999998,1.8006799999999998,-3.44876,-0.90282972,0.348204675,-0.23290956
1764764681.7750971,-15.382079999999998,1.8006799999999998,-3.44876,-0.90282972,0.348204675,-0.23290956
1764764681.8208978,-15.382079999999998,1.8006799999999998,-3.44876,-0.90282972,0.348204675,-0.23290956
1764764681.8208978,-15.382079999999998,1.8006799999999998,-3.44876,-0.90282972,0.348204675,-0.23290956
1764764681.8208978,-15.382079999999998,1.8006799999999998,-3.44876,-0.90282972,0.348204675,-0.23290956
1764764681.8208978,-15.382079999999998,1.8006799999999998,-3.44876,-0.90282972,0.348204675,-0.23290956
1764764681.8208978,-15.382079999999998,1.8006799999999998,-3.44876,-0.90282972,0.348204675,-0.23290956
1764764681.8208978,-15.382079999999998,1.8006799999999998,-3.44876,-0.90282972,0.348204675,-0.23290956
1764764681.8208978,-15.382079999999998,1.8006799999999998,-3.44876,-0.90282972,0.348204675,-0.23290956
1764764681.8208978,-15.382079999999998,1.8006799999999998,-3.44876,-0.90282972,0.348204675,-0.23290956
1764764681.8208978,-15.82462,2.22796,-2.10588,-0.906919065,0.346251555,-0.23046816
1764764681.8208978,-15.82462,2.22796,-2.10588,-0.906919065,0.346251555,-0.23046816
1764764681.8208978,-15.82462,2.22796,-2.10588,-0.906919065,0.346251555,-0.23046816
1764764681.8208978,-15.82462,2.22796,-2.10588,-0.906919065,0.346251555,-0.23046816
1764764681.8208978,-15.82462,2.22796,-2.10588,-0.906919065,0.346251555,-0.23046816
1764764681.8208978,-15.82462,2.22796,-2.10588,-0.906919065,0.346251555,-0.23046816
1764764681.8208978,-15.82462,2.22796,-2.10588,-0.906919065,0.346251555,-0.23046816
1764764681.8208978,-15.82462,2.22796,-2.10588,-0.906919065,0.346251555,-0.23046816
1764764681.8208978,-15.82462,2.22796,-2.10588,-0.906919065,0.346251555,-0.23046816
1764764681.8208978,-15.82462,2.22796,-2.10588,-0.906919065,0.346251555,-0.23046816
1764764681.8208978,-15.44312,3.67766,0.03052,-0.908261835,0.344786715,-0.22595157
1764764681.8208978,-15.44312,3.67766,0.03052,-0.908261835,0.344786715,-0.22595157
1764764681.8208978,-15.44312,3.67766,0.03052,-0.908261835,0.344786715,-0.22595157
1764764681.8208978,-15.44312,3.67766,0.03052,-0.908261835,0.344786715,-0.22595157
1764764681.8681908,-15.44312,3.67766,0.03052,-0.908261835,0.344786715,-0.22595157
1764764681.8681908,-15.44312,3.67766,0.03052,-0.908261835,0.344786715,-0.22595157
1764764681.8681908,-15.44312,3.67766,0.03052,-0.908261835,0.344786715,-0.22595157
1764764681.8681908,-15.44312,3.67766,0.03052,-0.908261835,0.344786715,-0.22595157
1764764681.8681908,-15.44312,3.67766,0.03052,-0.908261835,0.344786715,-0.22595157
1764764681.8681908,-15.44312,3.67766,0.03052,-0.908261835,0.344786715,-0.22595157
1764764681.8681908,-10.59044,5.35626,-1.0682,-0.90661389,0.33984288,-0.221984295
1764764681.8681908,-10.59044,5.35626,-1.0682,-0.90661389,0.33984288,-0.221984295
1764764681.8681908,-10.59044,5.35626,-1.0682,-0.90661389,0.33984288,-0.221984295
1764764681.8681908,-10.59044,5.35626,-1.0682,-0.90661389,0.33984288,-0.221984295
1764764681.8681908,-10.59044,5.35626,-1.0682,-0.90661389,0.33984288,-0.221984295
1764764681.8681908,-10.59044,5.35626,-1.0682,-0.90661389,0.33984288,-0.221984295
1764764681.8681908,-10.59044,5.35626,-1.0682,-0.90661389,0.33984288,-0.221984295
1764764681.8681908,-10.59044,5.35626,-1.0682,-0.90661389,0.33984288,-0.221984295
1764764681.8681908,-10.59044,5.35626,-1.0682,-0.90661389,0.33984288,-0.221984295
1764764681.8681908,-10.59044,5.35626,-1.0682,-0.90661389,0.33984288,-0.221984295
1764764681.8687067,-6.104,6.6381,0.21364,-0.905332155,0.336974235,-0.21862737
1764764681.8687067,-6.104,6.6381,0.21364,-0.905332155,0.336974235,-0.21862737
1764764681.8687067,-6.104,6.6381,0.21364,-0.905332155,0.336974235,-0.21862737
1764764681.8687067,-6.104,6.6381,0.21364,-0.905332155,0.336974235,-0.21862737
1764764681.8687067,-6.104,6.6381,0.21364,-0.905332155,0.336974235,-0.21862737
1764764681.8687067,-6.104,6.6381,0.21364,-0.905332155,0.336974235,-0.21862737
1764764681.91468,-6.104,6.6381,0.21364,-0.905332155,0.336974235,-0.21862737
1764764681.91468,-6.104,6.6381,0.21364,-0.905332155,0.336974235,-0.21862737
1764764681.91468,-6.104,6.6381,0.21364,-0.905332155,0.336974235,-0.21862737
1764764681.91468,-6.104,6.6381,0.21364,-0.905332155,0.336974235,-0.21862737
1764764681.91468,-3.37246,6.409199999999999,1.2055399999999998,-0.907285275,0.33801183,-0.218566335
1764764681.91468,-3.37246,6.409199999999999,1.2055399999999998,-0.907285275,0.33801183,-0.218566335
1764764681.91468,-3.37246,6.409199999999999,1.2055399999999998,-0.907285275,0.33801183,-0.218566335
1764764681.91468,-3.37246,6.409199999999999,1.2055399999999998,-0.907285275,0.33801183,-0.218566335
1764764681.91468,-3.37246,6.409199999999999,1.2055399999999998,-0.907285275,0.33801183,-0.218566335
1764764681.91468,-3.37246,6.409199999999999,1.2055399999999998,-0.907285275,0.33801183,-0.218566335
1764764681.91468,-3.37246,6.409199999999999,1.2055399999999998,-0.907285275,0.33801183,-0.218566335
1764764681.91468,-3.37246,6.409199999999999,1.2055399999999998,-0.907285275,0.33801183,-0.218566335
1764764681.91468,-3.37246,6.409199999999999,1.2055399999999998,-0.907285275,0.33801183,-0.218566335
1764764681.91468,-3.37246,6.409199999999999,1.2055399999999998,-0.907285275,0.33801183,-0.218566335
1764764681.91468,-2.07536,5.478339999999999,1.51074,-0.910092885,0.339781845,-0.22021428
1764764681.91468,-2.07536,5.478339999999999,1.51074,-0.910092885,0.339781845,-0.22021428
1764764681.91468,-2.07536,5.478339999999999,1.51074,-0.910092885,0.339781845,-0.22021428
1764764681.91468,-2.07536,5.478339999999999,1.51074,-0.910092885,0.339781845,-0.22021428
1764764681.91468,-2.07536,5.478339999999999,1.51074,-0.910092885,0.339781845,-0.22021428
1764764681.91468,-2.07536,5.478339999999999,1.51074,-0.910092885,0.339781845,-0.22021428
1764764681.91468,-2.07536,5.478339999999999,1.51074,-0.910092885,0.339781845,-0.22021428
1764764681.91468,-2.07536,5.478339999999999,1.51074,-0.910092885,0.339781845,-0.22021428
1764764681.91468,-2.07536,5.478339999999999,1.51074,-0.910092885,0.339781845,-0.22021428
1764764681.91468,-2.07536,5.478339999999999,1.51074,-0.910092885,0.339781845,-0.22021428
1764764681.9605873,-1.31236,4.440659999999999,2.53316,-0.91210704,0.34118565,-0.22253361
1764764681.9605873,-1.31236,4.440659999999999,2.53316,-0.91210704,0.34118565,-0.22253361
1764764681.9605873,-1.31236,4.440659999999999,2.53316,-0.91210704,0.34118565,-0.22253361
1764764681.9605873,-1.31236,4.440659999999999,2.53316,-0.91210704,0.34118565,-0.22253361
1764764681.9605873,-1.31236,4.440659999999999,2.53316,-0.91210704,0.34118565,-0.22253361
1764764681.9605873,-1.31236,4.440659999999999,2.53316,-0.91210704,0.34118565,-0.22253361
1764764681.9605873,-1.31236,4.440659999999999,2.53316,-0.91210704,0.34118565,-0.22253361
1764764681.9605873,-1.31236,4.440659999999999,2.53316,-0.91210704,0.34118565,-0.22253361
1764764681.9605873,-1.31236,4.440659999999999,2.53316,-0.91210704,0.34118565,-0.22253361
1764764681.9605873,-1.31236,4.440659999999999,2.53316,-0.91210704,0.34118565,-0.22253361
1764764681.9621143,0.04578,4.33384,3.6624,-0.911435655,0.342223245,-0.22265568
1764764681.9621143,0.04578,4.33384,3.6624,-0.911435655,0.342223245,-0.22265568
1764764681.9621143,0.04578,4.33384,3.6624,-0.911435655,0.342223245,-0.22265568
1764764681.9621143,0.04578,4.33384,3.6624,-0.911435655,0.342223245,-0.22265568
1764764681.9621143,0.04578,4.33384,3.6624,-0.911435655,0.342223245,-0.22265568
1764764681.9621143,0.04578,4.33384,3.6624,-0.911435655,0.342223245,-0.22265568
1764764681.9621143,0.04578,4.33384,3.6624,-0.911435655,0.342223245,-0.22265568
1764764681.9621143,0.04578,4.33384,3.6624,-0.911435655,0.342223245,-0.22265568
1764764681.9621143,0.04578,4.33384,3.6624,-0.911435655,0.342223245,-0.22265568
1764764681.9631202,0.04578,4.33384,3.6624,-0.911435655,0.342223245,-0.22265568
1764764681.9631202,0.6714399999999999,4.15072,3.57084,-0.908750115,0.343688085,-0.222594645
1764764681.9631202,0.6714399999999999,4.15072,3.57084,-0.908750115,0.343688085,-0.222594645
1764764681.9631202,0.6714399999999999,4.15072,3.57084,-0.908750115,0.343688085,-0.222594645
1764764681.9631202,0.6714399999999999,4.15072,3.57084,-0.908750115,0.343688085,-0.222594645
1764764682.0064542,0.6714399999999999,4.15072,3.57084,-0.908750115,0.343688085,-0.222594645
1764764682.0064542,0.6714399999999999,4.15072,3.57084,-0.908750115,0.343688085,-0.222594645
1764764682.0064542,0.6714399999999999,4.15072,3.57084,-0.908750115,0.343688085,-0.222594645
1764764682.0064542,0.6714399999999999,4.15072,3.57084,-0.908750115,0.343688085,-0.222594645
1764764682.0064542,0.6714399999999999,4.15072,3.57084,-0.908750115,0.343688085,-0.222594645
1764764682.0064542,0.6714399999999999,4.15072,3.57084,-0.908750115,0.343688085,-0.222594645
1764764682.0064542,0.77826,4.07442,3.41824,-0.907773555,0.34435947,-0.223082925
1764764682.0064542,0.77826,4.07442,3.41824,-0.907773555,0.34435947,-0.223082925
1764764682.0064542,0.77826,4.07442,3.41824,-0.907773555,0.34435947,-0.223082925
1764764682.0064542,0.77826,4.07442,3.41824,-0.907773555,0.34435947,-0.223082925
1764764682.0064542,0.77826,4.07442,3.41824,-0.907773555,0.34435947,-0.223082925
1764764682.0064542,0.77826,4.07442,3.41824,-0.907773555,0.34435947,-0.223082925
1764764682.0064542,0.77826,4.07442,3.41824,-0.907773555,0.34435947,-0.223082925
1764764682.0064542,0.77826,4.07442,3.41824,-0.907773555,0.34435947,-0.223082925
1764764682.0064542,0.77826,4.07442,3.41824,-0.907773555,0.34435947,-0.223082925
1764764682.0064542,0.77826,4.07442,3.41824,-0.907773555,0.34435947,-0.223082925
1764764682.0064542,1.6022999999999998,3.44876,2.56368,-0.905942505,0.344176365,-0.22485294
1764764682.0064542,1.6022999999999998,3.44876,2.56368,-0.905942505,0.344176365,-0.22485294
1764764682.0064542,1.6022999999999998,3.44876,2.56368,-0.905942505,0.344176365,-0.22485294
1764764682.0064542,1.6022999999999998,3.44876,2.56368,-0.905942505,0.344176365,-0.22485294
1764764682.0074625,1.6022999999999998,3.44876,2.56368,-0.905942505,0.344176365,-0.22485294
1764764682.0074625,1.6022999999999998,3.44876,2.56368,-0.905942505,0.344176365,-0.22485294
1764764682.0074625,1.6022999999999998,3.44876,2.56368,-0.905942505,0.344176365,-0.22485294
1764764682.0074625,1.6022999999999998,3.44876,2.56368,-0.905942505,0.344176365,-0.22485294
1764764682.0534322,1.6022999999999998,3.44876,2.56368,-0.905942505,0.344176365,-0.22485294
1764764682.0534322,1.6022999999999998,3.44876,2.56368,-0.905942505,0.344176365,-0.22485294
1764764682.0534322,1.54126,2.92992,2.47212,-0.904843875,0.345030855,-0.22656192
1764764682.0534322,1.54126,2.92992,2.47212,-0.904843875,0.345030855,-0.22656192
1764764682.0534322,1.54126,2.92992,2.47212,-0.904843875,0.345030855,-0.22656192
1764764682.0534322,1.54126,2.92992,2.47212,-0.904843875,0.345030855,-0.22656192
1764764682.0534322,1.54126,2.92992,2.47212,-0.904843875,0.345030855,-0.22656192
1764764682.0534322,1.54126,2.92992,2.47212,-0.904843875,0.345030855,-0.22656192
1764764682.0534322,1.54126,2.92992,2.47212,-0.904843875,0.345030855,-0.22656192
1764764682.0534322,1.54126,2.92992,2.47212,-0.904843875,0.345030855,-0.22656192
1764764682.0534322,1.54126,2.92992,2.47212,-0.904843875,0.345030855,-0.22656192
1764764682.0534322,1.54126,2.92992,2.47212,-0.904843875,0.345030855,-0.22656192
1764764682.0534322,-0.25942,2.6705,2.39582,-0.90441663,0.34777743,-0.227965725
1764764682.0534322,-0.25942,2.6705,2.39582,-0.90441663,0.34777743,-0.227965725
1764764682.0534322,-0.25942,2.6705,2.39582,-0.90441663,0.34777743,-0.227965725
1764764682.0534322,-0.25942,2.6705,2.39582,-0.90441663,0.34777743,-0.227965725
1764764682.0534322,-0.25942,2.6705,2.39582,-0.90441663,0.34777743,-0.227965725
1764764682.0534322,-0.25942,2.6705,2.39582,-0.90441663,0.34777743,-0.227965725
1764764682.0534322,-0.25942,2.6705,2.39582,-0.90441663,0.34777743,-0.227965725
1764764682.0534322,-0.25942,2.6705,2.39582,-0.90441663,0.34777743,-0.227965725
1764764682.100834,-0.25942,2.6705,2.39582,-0.90441663,0.34777743,-0.227965725
1764764682.100834,-0.25942,2.6705,2.39582,-0.90441663,0.34777743,-0.227965725
1764764682.100834,-2.25848,2.1364,2.01432,-0.903623175,0.350524005,-0.22875918
1764764682.100834,-2.25848,2.1364,2.01432,-0.903623175,0.350524005,-0.22875918
1764764682.100834,-2.25848,2.1364,2.01432,-0.903623175,0.350524005,-0.22875918
1764764682.100834,-2.25848,2.1364,2.01432,-0.903623175,0.350524005,-0.22875918
1764764682.100834,-2.25848,2.1364,2.01432,-0.903623175,0.350524005,-0.22875918
1764764682.100834,-2.25848,2.1364,2.01432,-0.903623175,0.350524005,-0.22875918
1764764682.100834,-2.25848,2.1364,2.01432,-0.903623175,0.350524005,-0.22875918
1764764682.100834,-2.25848,2.1364,2.01432,-0.903623175,0.350524005,-0.22875918
1764764682.100834,-2.25848,2.1364,2.01432,-0.903623175,0.350524005,-0.22875918
1764764682.100834,-2.25848,2.1364,2.01432,-0.903623175,0.350524005,-0.22875918
1764764682.100834,-3.44876,2.53316,1.49548,-0.90344007,0.35143953,-0.229186425
1764764682.100834,-3.44876,2.53316,1.49548,-0.90344007,0.35143953,-0.229186425
1764764682.100834,-3.44876,2.53316,1.49548,-0.90344007,0.35143953,-0.229186425
1764764682.100834,-3.44876,2.53316,1.49548,-0.90344007,0.35143953,-0.229186425
1764764682.100834,-3.44876,2.53316,1.49548,-0.90344007,0.35143953,-0.229186425
1764764682.101889,-3.44876,2.53316,1.49548,-0.90344007,0.35143953,-0.229186425
1764764682.101889,-3.44876,2.53316,1.49548,-0.90344007,0.35143953,-0.229186425
1764764682.101889,-3.44876,2.53316,1.49548,-0.90344007,0.35143953,-0.229186425
1764764682.101889,-3.44876,2.53316,1.49548,-0.90344007,0.35143953,-0.229186425
1764764682.101889,-3.44876,2.53316,1.49548,-0.90344007,0.35143953,-0.229186425
1764764682.101889,-4.37962,3.15882,0.7019599999999999,-0.90380628,0.35082918,-0.228942285
1764764682.101889,-4.37962,3.15882,0.7019599999999999,-0.90380628,0.35082918,-0.228942285
1764764682.101889,-4.37962,3.15882,0.7019599999999999,-0.90380628,0.35082918,-0.228942285
1764764682.101889,-4.37962,3.15882,0.7019599999999999,-0.90380628,0.35082918,-0.228942285
1764764682.1448307,-4.37962,3.15882,0.7019599999999999,-0.90380628,0.35082918,-0.228942285
1764764682.1448307,-4.37962,3.15882,0.7019599999999999,-0.90380628,0.35082918,-0.228942285
1764764682.1448307,-4.37962,3.15882,0.7019599999999999,-0.90380628,0.35082918,-0.228942285
1764764682.1448307,-4.37962,3.15882,0.7019599999999999,-0.90380628,0.35082918,-0.228942285
1764764682.1448307,-4.37962,3.15882,0.7019599999999999,-0.90380628,0.35082918,-0.228942285
1764764682.1448307,-4.37962,3.15882,0.7019599999999999,-0.90380628,0.35082918,-0.228942285
1764764682.1448307,-5.08158,2.91466,1.05294,-0.90600354,0.350646075,-0.228576075
1764764682.1448307,-5.08158,2.91466,1.05294,-0.90600354,0.350646075,-0.228576075
1764764682.1448307,-5.08158,2.91466,1.05294,-0.90600354,0.350646075,-0.228576075
1764764682.1448307,-5.08158,2.91466,1.05294,-0.90600354,0.350646075,-0.228576075
1764764682.1448307,-5.08158,2.91466,1.05294,-0.90600354,0.350646075,-0.228576075
1764764682.1448307,-5.08158,2.91466,1.05294,-0.90600354,0.350646075,-0.228576075
1764764682.1448307,-5.08158,2.91466,1.05294,-0.90600354,0.350646075,-0.228576075
1764764682.1448307,-5.08158,2.91466,1.05294,-0.90600354,0.350646075,-0.228576075
1764764682.1458335,-5.08158,2.91466,1.05294,-0.90600354,0.350646075,-0.228576075
1764764682.1458335,-5.08158,2.91466,1.05294,-0.90600354,0.350646075,-0.228576075
1764764682.1458335,-6.3329,3.31142,1.55652,-0.905454225,0.349669515,-0.22619571
1764764682.1458335,-6.3329,3.31142,1.55652,-0.905454225,0.349669515,-0.22619571
1764764682.1458335,-6.3329,3.31142,1.55652,-0.905454225,0.349669515,-0.22619571
1764764682.1458335,-6.3329,3.31142,1.55652,-0.905454225,0.349669515,-0.22619571
1764764682.1458335,-6.3329,3.31142,1.55652,-0.905454225,0.349669515,-0.22619571
1764764682.1458335,-6.3329,3.31142,1.55652,-0.905454225,0.349669515,-0.22619571
1764764682.1458335,-6.3329,3.31142,1.55652,-0.905454225,0.349669515,-0.22619571
1764764682.1458335,-6.3329,3.31142,1.55652,-0.905454225,0.349669515,-0.22619571
1764764682.192286,-6.3329,3.31142,1.55652,-0.905454225,0.349669515,-0.22619571
1764764682.192286,-6.3329,3.31142,1.55652,-0.905454225,0.349669515,-0.22619571
1764764682.192286,-3.98286,3.55558,-0.0762999999999999,-0.903256965,0.34704501,-0.22314396
1764764682.192286,-3.98286,3.55558,-0.0762999999999999,-0.903256965,0.34704501,-0.22314396
1764764682.192286,-3.98286,3.55558,-0.0762999999999999,-0.903256965,0.34704501,-0.22314396
1764764682.192286,-3.98286,3.55558,-0.0762999999999999,-0.903256965,0.34704501,-0.22314396
1764764682.192796,-3.98286,3.55558,-0.0762999999999999,-0.903256965,0.34704501,-0.22314396
1764764682.192796,-3.98286,3.55558,-0.0762999999999999,-0.903256965,0.34704501,-0.22314396
1764764682.192796,-3.98286,3.55558,-0.0762999999999999,-0.903256965,0.34704501,-0.22314396
1764764682.192796,-3.98286,3.55558,-0.0762999999999999,-0.903256965,0.34704501,-0.22314396
1764764682.1933107,-3.98286,3.55558,-0.0762999999999999,-0.903256965,0.34704501,-0.22314396
1764764682.1933107,-3.98286,3.55558,-0.0762999999999999,-0.903256965,0.34704501,-0.22314396
1764764682.1933107,-2.35004,3.75396,-1.17502,-0.90124281,0.345641205,-0.22180119
1764764682.1933107,-2.35004,3.75396,-1.17502,-0.90124281,0.345641205,-0.22180119
1764764682.1933107,-2.35004,3.75396,-1.17502,-0.90124281,0.345641205,-0.22180119
1764764682.1933107,-2.35004,3.75396,-1.17502,-0.90124281,0.345641205,-0.22180119
1764764682.1933107,-2.35004,3.75396,-1.17502,-0.90124281,0.345641205,-0.22180119
1764764682.1933107,-2.35004,3.75396,-1.17502,-0.90124281,0.345641205,-0.22180119
1764764682.1933107,-2.35004,3.75396,-1.17502,-0.90124281,0.345641205,-0.22180119
1764764682.1933107,-2.35004,3.75396,-1.17502,-0.90124281,0.345641205,-0.22180119
1764764682.1933107,-2.35004,3.75396,-1.17502,-0.90124281,0.345641205,-0.22180119
1764764682.1933107,-2.35004,3.75396,-1.17502,-0.90124281,0.345641205,-0.22180119
1764764682.2409718,-3.47928,4.91372,-0.12208,-0.902890755,0.34753329,-0.223204995
1764764682.2409718,-3.47928,4.91372,-0.12208,-0.902890755,0.34753329,-0.223204995
1764764682.2409718,-3.47928,4.91372,-0.12208,-0.902890755,0.34753329,-0.223204995
1764764682.2409718,-3.47928,4.91372,-0.12208,-0.902890755,0.34753329,-0.223204995
1764764682.2409718,-3.47928,4.91372,-0.12208,-0.902890755,0.34753329,-0.223204995
1764764682.2409718,-3.47928,4.91372,-0.12208,-0.902890755,0.34753329,-0.223204995
1764764682.2409718,-3.47928,4.91372,-0.12208,-0.902890755,0.34753329,-0.223204995
1764764682.2409718,-3.47928,4.91372,-0.12208,-0.902890755,0.34753329,-0.223204995
1764764682.2409718,-3.47928,4.91372,-0.12208,-0.902890755,0.34753329,-0.223204995
1764764682.2409718,-3.47928,4.91372,-0.12208,-0.902890755,0.34753329,-0.223204995
1764764682.2409718,-6.07348,4.01338,0.94612,-0.90807873,0.350401935,-0.22302189
1764764682.2409718,-6.07348,4.01338,0.94612,-0.90807873,0.350401935,-0.22302189
1764764682.2409718,-6.07348,4.01338,0.94612,-0.90807873,0.350401935,-0.22302189
1764764682.2409718,-6.07348,4.01338,0.94612,-0.90807873,0.350401935,-0.22302189
1764764682.2409718,-6.07348,4.01338,0.94612,-0.90807873,0.350401935,-0.22302189
1764764682.2409718,-6.07348,4.01338,0.94612,-0.90807873,0.350401935,-0.22302189
1764764682.2409718,-6.07348,4.01338,0.94612,-0.90807873,0.350401935,-0.22302189
1764764682.2409718,-6.07348,4.01338,0.94612,-0.90807873,0.350401935,-0.22302189
1764764682.2409718,-6.07348,4.01338,0.94612,-0.90807873,0.350401935,-0.22302189
1764764682.2409718,-6.07348,4.01338,0.94612,-0.90807873,0.350401935,-0.22302189
1764764682.2409718,-6.62284,0.0,1.7549,-0.908383905,0.351012285,-0.22131291
1764764682.2409718,-6.62284,0.0,1.7549,-0.908383905,0.351012285,-0.22131291
1764764682.2409718,-6.62284,0.0,1.7549,-0.908383905,0.351012285,-0.22131291
1764764682.2409718,-6.62284,0.0,1.7549,-0.908383905,0.351012285,-0.22131291
1764764682.2872868,-6.62284,0.0,1.7549,-0.908383905,0.351012285,-0.22131291
1764764682.2872868,-6.62284,0.0,1.7549,-0.908383905,0.351012285,-0.22131291
1764764682.2872868,-6.62284,0.0,1.7549,-0.908383905,0.351012285,-0.22131291
1764764682.2872868,-6.62284,0.0,1.7549,-0.908383905,0.351012285,-0.22131291
1764764682.2872868,-6.62284,0.0,1.7549,-0.908383905,0.351012285,-0.22131291
1764764682.2872868,-6.62284,0.0,1.7549,-0.908383905,0.351012285,-0.22131291
1764764682.2872868,-4.70008,3.15882,0.56462,-0.905332155,0.348937095,-0.2209467
1764764682.2872868,-4.70008,3.15882,0.56462,-0.905332155,0.348937095,-0.2209467
1764764682.2872868,-4.70008,3.15882,0.56462,-0.905332155,0.348937095,-0.2209467
1764764682.2872868,-4.70008,3.15882,0.56462,-0.905332155,0.348937095,-0.2209467
1764764682.2872868,-4.70008,3.15882,0.56462,-0.905332155,0.348937095,-0.2209467
1764764682.2872868,-4.70008,3.15882,0.56462,-0.905332155,0.348937095,-0.2209467
1764764682.2872868,-4.70008,3.15882,0.56462,-0.905332155,0.348937095,-0.2209467
1764764682.2872868,-4.70008,3.15882,0.56462,-0.905332155,0.348937095,-0.2209467
1764764682.2872868,-4.70008,3.15882,0.56462,-0.905332155,0.348937095,-0.2209467
1764764682.2872868,-4.70008,3.15882,0.56462,-0.905332155,0.348937095,-0.2209467
1764764682.2872868,-3.14356,2.42634,0.73248,-0.90502698,0.34692294,-0.22131291
1764764682.2872868,-3.14356,2.42634,0.73248,-0.90502698,0.34692294,-0.22131291
1764764682.2872868,-3.14356,2.42634,0.73248,-0.90502698,0.34692294,-0.22131291
1764764682.2872868,-3.14356,2.42634,0.73248,-0.90502698,0.34692294,-0.22131291
1764764682.2872868,-3.14356,2.42634,0.73248,-0.90502698,0.34692294,-0.22131291
1764764682.2872868,-3.14356,2.42634,0.73248,-0.90502698,0.34692294,-0.22131291
1764764682.2872868,-3.14356,2.42634,0.73248,-0.90502698,0.34692294,-0.22131291
1764764682.2872868,-3.14356,2.42634,0.73248,-0.90502698,0.34692294,-0.22131291
1764764682.334941,-3.14356,2.42634,0.73248,-0.90502698,0.34692294,-0.22131291
1764764682.334941,-3.14356,2.42634,0.73248,-0.90502698,0.34692294,-0.22131291
1764764682.334941,-1.35814,2.41108,1.15976,-0.904233525,0.346861905,-0.2209467
1764764682.334941,-1.35814,2.41108,1.15976,-0.904233525,0.346861905,-0.2209467
1764764682.334941,-1.35814,2.41108,1.15976,-0.904233525,0.346861905,-0.2209467
1764764682.334941,-1.35814,2.41108,1.15976,-0.904233525,0.346861905,-0.2209467
1764764682.334941,-1.35814,2.41108,1.15976,-0.904233525,0.346861905,-0.2209467
1764764682.334941,-1.35814,2.41108,1.15976,-0.904233525,0.346861905,-0.2209467
1764764682.334941,-1.35814,2.41108,1.15976,-0.904233525,0.346861905,-0.2209467
1764764682.334941,-1.35814,2.41108,1.15976,-0.904233525,0.346861905,-0.2209467
1764764682.334941,-1.35814,2.41108,1.15976,-0.904233525,0.346861905,-0.2209467
1764764682.334941,-1.35814,2.41108,1.15976,-0.904233525,0.346861905,-0.2209467
1764764682.334941,-0.21364,2.86888,1.03768,-0.902646615,0.3478995,-0.219420825
1764764682.334941,-0.21364,2.86888,1.03768,-0.902646615,0.3478995,-0.219420825
1764764682.334941,-0.21364,2.86888,1.03768,-0.902646615,0.3478995,-0.219420825
1764764682.334941,-0.21364,2.86888,1.03768,-0.902646615,0.3478995,-0.219420825
1764764682.334941,-0.21364,2.86888,1.03768,-0.902646615,0.3478995,-0.219420825
1764764682.334941,-0.21364,2.86888,1.03768,-0.902646615,0.3478995,-0.219420825
1764764682.334941,-0.21364,2.86888,1.03768,-0.902646615,0.3478995,-0.219420825
1764764682.334941,-0.21364,2.86888,1.03768,-0.902646615,0.3478995,-0.219420825
1764764682.334941,-0.21364,2.86888,1.03768,-0.902646615,0.3478995,-0.219420825
1764764682.334941,-0.21364,2.86888,1.03768,-0.902646615,0.3478995,-0.219420825
1764764682.379195,-0.8087799999999999,3.61662,0.62566,-0.90344007,0.34997469,-0.220275315
1764764682.379195,-0.8087799999999999,3.61662,0.62566,-0.90344007,0.34997469,-0.220275315
1764764682.379195,-0.8087799999999999,3.61662,0.62566,-0.90344007,0.34997469,-0.220275315
1764764682.379195,-0.8087799999999999,3.61662,0.62566,-0.90344007,0.34997469,-0.220275315
1764764682.379195,-0.8087799999999999,3.61662,0.62566,-0.90344007,0.34997469,-0.220275315
1764764682.379195,-0.8087799999999999,3.61662,0.62566,-0.90344007,0.34997469,-0.220275315
1764764682.379195,-0.8087799999999999,3.61662,0.62566,-0.90344007,0.34997469,-0.220275315
1764764682.379195,-0.8087799999999999,3.61662,0.62566,-0.90344007,0.34997469,-0.220275315
1764764682.379195,-0.8087799999999999,3.61662,0.62566,-0.90344007,0.34997469,-0.220275315
1764764682.379195,-0.8087799999999999,3.61662,0.62566,-0.90344007,0.34997469,-0.220275315
1764764682.379195,-2.18218,3.78448,1.26658,-0.905454225,0.35143953,-0.22180119
1764764682.379195,-2.18218,3.78448,1.26658,-0.905454225,0.35143953,-0.22180119
1764764682.379195,-2.18218,3.78448,1.26658,-0.905454225,0.35143953,-0.22180119
1764764682.379195,-2.18218,3.78448,1.26658,-0.905454225,0.35143953,-0.22180119
1764764682.379195,-2.18218,3.78448,1.26658,-0.905454225,0.35143953,-0.22180119
1764764682.379195,-2.18218,3.78448,1.26658,-0.905454225,0.35143953,-0.22180119
1764764682.379195,-2.18218,3.78448,1.26658,-0.905454225,0.35143953,-0.22180119
1764764682.379195,-2.18218,3.78448,1.26658,-0.905454225,0.35143953,-0.22180119
1764764682.379195,-2.18218,3.78448,1.26658,-0.905454225,0.35143953,-0.22180119
1764764682.379195,-2.18218,3.78448,1.26658,-0.905454225,0.35143953,-0.22180119
1764764682.379195,-3.5861,3.09778,1.38866,-0.906552855,0.351012285,-0.223204995
1764764682.379195,-3.5861,3.09778,1.38866,-0.906552855,0.351012285,-0.223204995
1764764682.379195,-3.5861,3.09778,1.38866,-0.906552855,0.351012285,-0.223204995
1764764682.379195,-3.5861,3.09778,1.38866,-0.906552855,0.351012285,-0.223204995
1764764682.4259026,-3.5861,3.09778,1.38866,-0.906552855,0.351012285,-0.223204995
1764764682.4259026,-3.5861,3.09778,1.38866,-0.906552855,0.351012285,-0.223204995
1764764682.4259026,-3.5861,3.09778,1.38866,-0.906552855,0.351012285,-0.223204995
1764764682.4259026,-3.5861,3.09778,1.38866,-0.906552855,0.351012285,-0.223204995
1764764682.4259026,-3.5861,3.09778,1.38866,-0.906552855,0.351012285,-0.223204995
1764764682.4259026,-3.5861,3.09778,1.38866,-0.906552855,0.351012285,-0.223204995
1764764682.4259026,-3.57084,3.49454,0.82404,-0.90417249,0.34985262,-0.22363224
1764764682.4259026,-3.57084,3.49454,0.82404,-0.90417249,0.34985262,-0.22363224
1764764682.4259026,-3.57084,3.49454,0.82404,-0.90417249,0.34985262,-0.22363224
1764764682.4259026,-3.57084,3.49454,0.82404,-0.90417249,0.34985262,-0.22363224
1764764682.4259026,-3.57084,3.49454,0.82404,-0.90417249,0.34985262,-0.22363224
1764764682.4259026,-3.57084,3.49454,0.82404,-0.90417249,0.34985262,-0.22363224
1764764682.4259026,-3.57084,3.49454,0.82404,-0.90417249,0.34985262,-0.22363224
1764764682.4259026,-3.57084,3.49454,0.82404,-0.90417249,0.34985262,-0.22363224
1764764682.4259026,-3.57084,3.49454,0.82404,-0.90417249,0.34985262,-0.22363224
1764764682.4259026,-3.57084,3.49454,0.82404,-0.90417249,0.34985262,-0.22363224
1764764682.4259026,-4.1965,3.34194,0.3357199999999999,-0.903134895,0.349547445,-0.22302189
1764764682.4259026,-4.1965,3.34194,0.3357199999999999,-0.903134895,0.349547445,-0.22302189
1764764682.4259026,-4.1965,3.34194,0.3357199999999999,-0.903134895,0.349547445,-0.22302189
1764764682.4259026,-4.1965,3.34194,0.3357199999999999,-0.903134895,0.349547445,-0.22302189
1764764682.4269152,-4.1965,3.34194,0.3357199999999999,-0.903134895,0.349547445,-0.22302189
1764764682.4269152,-4.1965,3.34194,0.3357199999999999,-0.903134895,0.349547445,-0.22302189
1764764682.4269152,-4.1965,3.34194,0.3357199999999999,-0.903134895,0.349547445,-0.22302189
1764764682.4269152,-4.1965,3.34194,0.3357199999999999,-0.903134895,0.349547445,-0.22302189
1764764682.4735303,-4.1965,3.34194,0.3357199999999999,-0.903134895,0.349547445,-0.22302189
1764764682.4735303,-4.1965,3.34194,0.3357199999999999,-0.903134895,0.349547445,-0.22302189
1764764682.4735303,-4.852679999999999,3.60136,0.1678599999999999,-0.903989385,0.35107332,-0.222960855
1764764682.4735303,-4.852679999999999,3.60136,0.1678599999999999,-0.903989385,0.35107332,-0.222960855
1764764682.4735303,-4.852679999999999,3.60136,0.1678599999999999,-0.903989385,0.35107332,-0.222960855
1764764682.4735303,-4.852679999999999,3.60136,0.1678599999999999,-0.903989385,0.35107332,-0.222960855
1764764682.4735303,-4.852679999999999,3.60136,0.1678599999999999,-0.903989385,0.35107332,-0.222960855
1764764682.4735303,-4.852679999999999,3.60136,0.1678599999999999,-0.903989385,0.35107332,-0.222960855
1764764682.4735303,-4.852679999999999,3.60136,0.1678599999999999,-0.903989385,0.35107332,-0.222960855
1764764682.4735303,-4.852679999999999,3.60136,0.1678599999999999,-0.903989385,0.35107332,-0.222960855
1764764682.4735303,-4.852679999999999,3.60136,0.1678599999999999,-0.903989385,0.35107332,-0.222960855
1764764682.4735303,-4.852679999999999,3.60136,0.1678599999999999,-0.903989385,0.35107332,-0.222960855
1764764682.4735303,-4.7306,3.55558,0.57988,-0.904233525,0.351012285,-0.22119084
1764764682.4735303,-4.7306,3.55558,0.57988,-0.904233525,0.351012285,-0.22119084
1764764682.4735303,-4.7306,3.55558,0.57988,-0.904233525,0.351012285,-0.22119084
1764764682.4735303,-4.7306,3.55558,0.57988,-0.904233525,0.351012285,-0.22119084
1764764682.4735303,-4.7306,3.55558,0.57988,-0.904233525,0.351012285,-0.22119084
1764764682.4735303,-4.7306,3.55558,0.57988,-0.904233525,0.351012285,-0.22119084
1764764682.4735303,-4.7306,3.55558,0.57988,-0.904233525,0.351012285,-0.22119084
1764764682.4735303,-4.7306,3.55558,0.57988,-0.904233525,0.351012285,-0.22119084
1764764682.4735303,-4.7306,3.55558,0.57988,-0.904233525,0.351012285,-0.22119084
1764764682.4735303,-4.7306,3.55558,0.57988,-0.904233525,0.351012285,-0.22119084
1764764682.519819,-4.25754,3.40298,0.04578,-0.904111455,0.35021883,-0.220397385
1764764682.519819,-4.25754,3.40298,0.04578,-0.904111455,0.35021883,-0.220397385
1764764682.519819,-4.25754,3.40298,0.04578,-0.904111455,0.35021883,-0.220397385
1764764682.519819,-4.25754,3.40298,0.04578,-0.904111455,0.35021883,-0.220397385
1764764682.519819,-4.25754,3.40298,0.04578,-0.904111455,0.35021883,-0.220397385
1764764682.519819,-4.25754,3.40298,0.04578,-0.904111455,0.35021883,-0.220397385
1764764682.519819,-4.25754,3.40298,0.04578,-0.904111455,0.35021883,-0.220397385
1764764682.5208237,-4.25754,3.40298,0.04578,-0.904111455,0.35021883,-0.220397385
1764764682.5208237,-4.25754,3.40298,0.04578,-0.904111455,0.35021883,-0.220397385
1764764682.5208237,-4.25754,3.40298,0.04578,-0.904111455,0.35021883,-0.220397385
1764764682.5208237,-3.23512,3.26564,-0.04578,-0.903745245,0.34960848,-0.22021428
1764764682.5208237,-3.23512,3.26564,-0.04578,-0.903745245,0.34960848,-0.22021428
1764764682.5208237,-3.23512,3.26564,-0.04578,-0.903745245,0.34960848,-0.22021428
1764764682.5208237,-3.23512,3.26564,-0.04578,-0.903745245,0.34960848,-0.22021428
1764764682.5208237,-3.23512,3.26564,-0.04578,-0.903745245,0.34960848,-0.22021428
1764764682.5208237,-3.23512,3.26564,-0.04578,-0.903745245,0.34960848,-0.22021428
1764764682.5208237,-3.23512,3.26564,-0.04578,-0.903745245,0.34960848,-0.22021428
1764764682.5208237,-3.23512,3.26564,-0.04578,-0.903745245,0.34960848,-0.22021428
1764764682.5208237,-3.23512,3.26564,-0.04578,-0.903745245,0.34960848,-0.22021428
1764764682.5208237,-3.23512,3.26564,-0.04578,-0.903745245,0.34960848,-0.22021428
1764764682.5208237,-2.12114,2.73154,0.09156,-0.904477665,0.349425375,-0.22009221
1764764682.5208237,-2.12114,2.73154,0.09156,-0.904477665,0.349425375,-0.22009221
1764764682.5208237,-2.12114,2.73154,0.09156,-0.904477665,0.349425375,-0.22009221
1764764682.5208237,-2.12114,2.73154,0.09156,-0.904477665,0.349425375,-0.22009221
1764764682.567407,-2.12114,2.73154,0.09156,-0.904477665,0.349425375,-0.22009221
1764764682.567407,-2.12114,2.73154,0.09156,-0.904477665,0.349425375,-0.22009221
1764764682.567407,-2.12114,2.73154,0.09156,-0.904477665,0.349425375,-0.22009221
1764764682.567407,-2.12114,2.73154,0.09156,-0.904477665,0.349425375,-0.22009221
1764764682.567407,-2.12114,2.73154,0.09156,-0.904477665,0.349425375,-0.22009221
1764764682.567407,-2.12114,2.73154,0.09156,-0.904477665,0.349425375,-0.22009221
1764764682.567407,-1.57178,2.86888,0.50358,-0.90527112,0.350401935,-0.21935979
1764764682.567407,-1.57178,2.86888,0.50358,-0.90527112,0.350401935,-0.21935979
1764764682.567407,-1.57178,2.86888,0.50358,-0.90527112,0.350401935,-0.21935979
1764764682.567407,-1.57178,2.86888,0.50358,-0.90527112,0.350401935,-0.21935979
1764764682.567407,-1.57178,2.86888,0.50358,-0.90527112,0.350401935,-0.21935979
1764764682.567407,-1.57178,2.86888,0.50358,-0.90527112,0.350401935,-0.21935979
1764764682.567407,-1.57178,2.86888,0.50358,-0.90527112,0.350401935,-0.21935979
1764764682.567407,-1.57178,2.86888,0.50358,-0.90527112,0.350401935,-0.21935979
1764764682.567407,-1.57178,2.86888,0.50358,-0.90527112,0.350401935,-0.21935979
1764764682.5679324,-1.57178,2.86888,0.50358,-0.90527112,0.350401935,-0.21935979
1764764682.5679324,-1.35814,2.77732,0.77826,-0.906552855,0.35192781,-0.219664965
1764764682.5679324,-1.35814,2.77732,0.77826,-0.906552855,0.35192781,-0.219664965
1764764682.5679324,-1.35814,2.77732,0.77826,-0.906552855,0.35192781,-0.219664965
1764764682.5679324,-1.35814,2.77732,0.77826,-0.906552855,0.35192781,-0.219664965
1764764682.5679324,-1.35814,2.77732,0.77826,-0.906552855,0.35192781,-0.219664965
1764764682.5679324,-1.35814,2.77732,0.77826,-0.906552855,0.35192781,-0.219664965
1764764682.5679324,-1.35814,2.77732,0.77826,-0.906552855,0.35192781,-0.219664965
1764764682.5679324,-1.35814,2.77732,0.77826,-0.906552855,0.35192781,-0.219664965
1764764682.614957,-1.35814,2.77732,0.77826,-0.906552855,0.35192781,-0.219664965
1764764682.614957,-1.35814,2.77732,0.77826,-0.906552855,0.35192781,-0.219664965
1764764682.614957,-2.5179,2.96044,1.4497,-0.90734631,0.35241609,-0.219787035
1764764682.614957,-2.5179,2.96044,1.4497,-0.90734631,0.35241609,-0.219787035
1764764682.614957,-2.5179,2.96044,1.4497,-0.90734631,0.35241609,-0.219787035
1764764682.614957,-2.5179,2.96044,1.4497,-0.90734631,0.35241609,-0.219787035
1764764682.6159725,-2.5179,2.96044,1.4497,-0.90734631,0.35241609,-0.219787035
1764764682.6159725,-2.5179,2.96044,1.4497,-0.90734631,0.35241609,-0.219787035
1764764682.6159725,-2.5179,2.96044,1.4497,-0.90734631,0.35241609,-0.219787035
1764764682.6159725,-2.5179,2.96044,1.4497,-0.90734631,0.35241609,-0.219787035
1764764682.6159725,-2.5179,2.96044,1.4497,-0.90734631,0.35241609,-0.219787035
1764764682.6159725,-2.5179,2.96044,1.4497,-0.90734631,0.35241609,-0.219787035
1764764682.6159725,-3.23512,1.78542,0.88508,-0.90649182,0.35363679,-0.219909105
1764764682.6159725,-3.23512,1.78542,0.88508,-0.90649182,0.35363679,-0.219909105
1764764682.6159725,-3.23512,1.78542,0.88508,-0.90649182,0.35363679,-0.219909105
1764764682.6159725,-3.23512,1.78542,0.88508,-0.90649182,0.35363679,-0.219909105
1764764682.6159725,-3.23512,1.78542,0.88508,-0.90649182,0.35363679,-0.219909105
1764764682.6159725,-3.23512,1.78542,0.88508,-0.90649182,0.35363679,-0.219909105
1764764682.6159725,-3.23512,1.78542,0.88508,-0.90649182,0.35363679,-0.219909105
1764764682.6159725,-3.23512,1.78542,0.88508,-0.90649182,0.35363679,-0.219909105
1764764682.6159725,-3.23512,1.78542,0.88508,-0.90649182,0.35363679,-0.219909105
1764764682.6159725,-3.23512,1.78542,0.88508,-0.90649182,0.35363679,-0.219909105
1764764682.6159725,-4.59326,2.5179,0.88508,-0.906186645,0.354064035,-0.22033635
1764764682.6159725,-4.59326,2.5179,0.88508,-0.906186645,0.354064035,-0.22033635
1764764682.662189,-4.59326,2.5179,0.88508,-0.906186645,0.354064035,-0.22033635
1764764682.662189,-4.59326,2.5179,0.88508,-0.906186645,0.354064035,-0.22033635
1764764682.662189,-4.59326,2.5179,0.88508,-0.906186645,0.354064035,-0.22033635
1764764682.662189,-4.59326,2.5179,0.88508,-0.906186645,0.354064035,-0.22033635
1764764682.662189,-4.59326,2.5179,0.88508,-0.906186645,0.354064035,-0.22033635
1764764682.662189,-4.59326,2.5179,0.88508,-0.906186645,0.354064035,-0.22033635
1764764682.662189,-4.59326,2.5179,0.88508,-0.906186645,0.354064035,-0.22033635
1764764682.662189,-4.59326,2.5179,0.88508,-0.906186645,0.354064035,-0.22033635
1764764682.662189,-6.21082,2.24322,0.77826,-0.907285275,0.354003,-0.22058049
1764764682.662189,-6.21082,2.24322,0.77826,-0.907285275,0.354003,-0.22058049
1764764682.662189,-6.21082,2.24322,0.77826,-0.907285275,0.354003,-0.22058049
1764764682.662189,-6.21082,2.24322,0.77826,-0.907285275,0.354003,-0.22058049
1764764682.662189,-6.21082,2.24322,0.77826,-0.907285275,0.354003,-0.22058049
1764764682.662189,-6.21082,2.24322,0.77826,-0.907285275,0.354003,-0.22058049
1764764682.662189,-6.21082,2.24322,0.77826,-0.907285275,0.354003,-0.22058049
1764764682.662189,-6.21082,2.24322,0.77826,-0.907285275,0.354003,-0.22058049
1764764682.662189,-6.21082,2.24322,0.77826,-0.907285275,0.354003,-0.22058049
1764764682.662189,-6.21082,2.24322,0.77826,-0.907285275,0.354003,-0.22058049
1764764682.663205,-5.76828,2.92992,0.73248,-0.90624768,0.35241609,-0.22045842
1764764682.663205,-5.76828,2.92992,0.73248,-0.90624768,0.35241609,-0.22045842
1764764682.663205,-5.76828,2.92992,0.73248,-0.90624768,0.35241609,-0.22045842
1764764682.663205,-5.76828,2.92992,0.73248,-0.90624768,0.35241609,-0.22045842
1764764682.709544,-5.76828,2.92992,0.73248,-0.90624768,0.35241609,-0.22045842
1764764682.709544,-5.76828,2.92992,0.73248,-0.90624768,0.35241609,-0.22045842
1764764682.709544,-5.76828,2.92992,0.73248,-0.90624768,0.35241609,-0.22045842
1764764682.709544,-5.76828,2.92992,0.73248,-0.90624768,0.35241609,-0.22045842
1764764682.709544,-5.76828,2.92992,0.73248,-0.90624768,0.35241609,-0.22045842
1764764682.709544,-5.76828,2.92992,0.73248,-0.90624768,0.35241609,-0.22045842
1764764682.709544,-4.54748,2.96044,0.27468,-0.903989385,0.34936434,-0.219176685
1764764682.709544,-4.54748,2.96044,0.27468,-0.903989385,0.34936434,-0.219176685
1764764682.709544,-4.54748,2.96044,0.27468,-0.903989385,0.34936434,-0.219176685
1764764682.709544,-4.54748,2.96044,0.27468,-0.903989385,0.34936434,-0.219176685
1764764682.709544,-4.54748,2.96044,0.27468,-0.903989385,0.34936434,-0.219176685
1764764682.709544,-4.54748,2.96044,0.27468,-0.903989385,0.34936434,-0.219176685
1764764682.709544,-4.54748,2.96044,0.27468,-0.903989385,0.34936434,-0.219176685
1764764682.709544,-4.54748,2.96044,0.27468,-0.903989385,0.34936434,-0.219176685
1764764682.709544,-4.54748,2.96044,0.27468,-0.903989385,0.34936434,-0.219176685
1764764682.709544,-4.54748,2.96044,0.27468,-0.903989385,0.34936434,-0.219176685
1764764682.7105763,-3.6624,3.26564,0.54936,-0.90429456,0.34899813,-0.217833915
1764764682.7105763,-3.6624,3.26564,0.54936,-0.90429456,0.34899813,-0.217833915
1764764682.7105763,-3.6624,3.26564,0.54936,-0.90429456,0.34899813,-0.217833915
1764764682.7105763,-3.6624,3.26564,0.54936,-0.90429456,0.34899813,-0.217833915
1764764682.7105763,-3.6624,3.26564,0.54936,-0.90429456,0.34899813,-0.217833915
1764764682.7105763,-3.6624,3.26564,0.54936,-0.90429456,0.34899813,-0.217833915
1764764682.7105763,-3.6624,3.26564,0.54936,-0.90429456,0.34899813,-0.217833915
1764764682.7105763,-3.6624,3.26564,0.54936,-0.90429456,0.34899813,-0.217833915
1764764682.75558,-3.6624,3.26564,0.54936,-0.90429456,0.34899813,-0.217833915
1764764682.75558,-3.6624,3.26564,0.54936,-0.90429456,0.34899813,-0.217833915
1764764682.75558,-4.18124,3.57084,2.31952,-0.90807873,0.351134355,-0.217589775
1764764682.75558,-4.18124,3.57084,2.31952,-0.90807873,0.351134355,-0.217589775
1764764682.75558,-4.18124,3.57084,2.31952,-0.90807873,0.351134355,-0.217589775
1764764682.75558,-4.18124,3.57084,2.31952,-0.90807873,0.351134355,-0.217589775
1764764682.75558,-4.18124,3.57084,2.31952,-0.90807873,0.351134355,-0.217589775
1764764682.75558,-4.18124,3.57084,2.31952,-0.90807873,0.351134355,-0.217589775
1764764682.75558,-4.18124,3.57084,2.31952,-0.90807873,0.351134355,-0.217589775
1764764682.7569983,-4.18124,3.57084,2.31952,-0.90807873,0.351134355,-0.217589775
1764764682.7569983,-4.18124,3.57084,2.31952,-0.90807873,0.351134355,-0.217589775
1764764682.7569983,-4.18124,3.57084,2.31952,-0.90807873,0.351134355,-0.217589775
1764764682.7569983,-4.21176,4.1965,2.2127,-0.908505975,0.351622635,-0.2172846
1764764682.7569983,-4.21176,4.1965,2.2127,-0.908505975,0.351622635,-0.2172846
1764764682.7569983,-4.21176,4.1965,2.2127,-0.908505975,0.351622635,-0.2172846
1764764682.7569983,-4.21176,4.1965,2.2127,-0.908505975,0.351622635,-0.2172846
1764764682.7569983,-4.21176,4.1965,2.2127,-0.908505975,0.351622635,-0.2172846
1764764682.7569983,-4.21176,4.1965,2.2127,-0.908505975,0.351622635,-0.2172846
1764764682.7569983,-4.21176,4.1965,2.2127,-0.908505975,0.351622635,-0.2172846
1764764682.7569983,-4.21176,4.1965,2.2127,-0.908505975,0.351622635,-0.2172846
1764764682.7569983,-4.21176,4.1965,2.2127,-0.908505975,0.351622635,-0.2172846
1764764682.7569983,-4.21176,4.1965,2.2127,-0.908505975,0.351622635,-0.2172846
1764764682.7569983,-4.13546,4.39488,1.19028,-0.906796995,0.350279865,-0.21655218
1764764682.7580986,-4.13546,4.39488,1.19028,-0.906796995,0.350279865,-0.21655218
1764764682.7998352,-4.13546,4.39488,1.19028,-0.906796995,0.350279865,-0.21655218
1764764682.7998352,-4.13546,4.39488,1.19028,-0.906796995,0.350279865,-0.21655218
1764764682.7998352,-4.13546,4.39488,1.19028,-0.906796995,0.350279865,-0.21655218
1764764682.8008547,-4.13546,4.39488,1.19028,-0.906796995,0.350279865,-0.21655218
1764764682.8008547,-4.13546,4.39488,1.19028,-0.906796995,0.350279865,-0.21655218
1764764682.8008547,-4.13546,4.39488,1.19028,-0.906796995,0.350279865,-0.21655218
1764764682.8008547,-4.13546,4.39488,1.19028,-0.906796995,0.350279865,-0.21655218
1764764682.8008547,-4.13546,4.39488,1.19028,-0.906796995,0.350279865,-0.21655218
1764764682.8008547,-3.87604,4.059159999999999,0.13734,-0.902646615,0.35058504,-0.21459906
1764764682.8008547,-3.87604,4.059159999999999,0.13734,-0.902646615,0.35058504,-0.21459906
1764764682.8008547,-3.87604,4.059159999999999,0.13734,-0.902646615,0.35058504,-0.21459906
1764764682.8008547,-3.87604,4.059159999999999,0.13734,-0.902646615,0.35058504,-0.21459906
1764764682.8008547,-3.87604,4.059159999999999,0.13734,-0.902646615,0.35058504,-0.21459906
1764764682.8008547,-3.87604,4.059159999999999,0.13734,-0.902646615,0.35058504,-0.21459906
1764764682.8008547,-3.87604,4.059159999999999,0.13734,-0.902646615,0.35058504,-0.21459906
1764764682.8008547,-3.87604,4.059159999999999,0.13734,-0.902646615,0.35058504,-0.21459906
1764764682.8008547,-3.87604,4.059159999999999,0.13734,-0.902646615,0.35058504,-0.21459906
1764764682.8008547,-3.87604,4.059159999999999,0.13734,-0.902646615,0.35058504,-0.21459906
1764764682.8008547,-4.48644,4.08968,-0.50358,-0.90075453,0.35009676,-0.2124018
1764764682.8018591,-4.48644,4.08968,-0.50358,-0.90075453,0.35009676,-0.2124018
1764764682.8018591,-4.48644,4.08968,-0.50358,-0.90075453,0.35009676,-0.2124018
1764764682.8023715,-4.48644,4.08968,-0.50358,-0.90075453,0.35009676,-0.2124018
1764764682.8488753,-4.48644,4.08968,-0.50358,-0.90075453,0.35009676,-0.2124018
1764764682.8488753,-4.48644,4.08968,-0.50358,-0.90075453,0.35009676,-0.2124018
1764764682.8488753,-4.48644,4.08968,-0.50358,-0.90075453,0.35009676,-0.2124018
1764764682.8488753,-4.48644,4.08968,-0.50358,-0.90075453,0.35009676,-0.2124018
1764764682.8488753,-4.48644,4.08968,-0.50358,-0.90075453,0.35009676,-0.2124018
1764764682.8488753,-4.48644,4.08968,-0.50358,-0.90075453,0.35009676,-0.2124018
1764764682.8488753,-3.55558,4.16598,-0.77826,-0.900083145,0.35021883,-0.210997995
1764764682.8488753,-3.55558,4.16598,-0.77826,-0.900083145,0.35021883,-0.210997995
1764764682.8488753,-3.55558,4.16598,-0.77826,-0.900083145,0.35021883,-0.210997995
1764764682.8488753,-3.55558,4.16598,-0.77826,-0.900083145,0.35021883,-0.210997995
1764764682.8488753,-3.55558,4.16598,-0.77826,-0.900083145,0.35021883,-0.210997995
1764764682.8488753,-3.55558,4.16598,-0.77826,-0.900083145,0.35021883,-0.210997995
1764764682.8488753,-3.55558,4.16598,-0.77826,-0.900083145,0.35021883,-0.210997995
1764764682.8488753,-3.55558,4.16598,-0.77826,-0.900083145,0.35021883,-0.210997995
1764764682.8488753,-3.55558,4.16598,-0.77826,-0.900083145,0.35021883,-0.210997995
1764764682.8488753,-3.55558,4.16598,-0.77826,-0.900083145,0.35021883,-0.210997995
1764764682.8488753,-1.8312,7.782599999999999,-0.39676,-0.903256965,0.35058504,-0.211364205
1764764682.8488753,-1.8312,7.782599999999999,-0.39676,-0.903256965,0.35058504,-0.211364205
1764764682.8488753,-1.8312,7.782599999999999,-0.39676,-0.903256965,0.35058504,-0.211364205
1764764682.8488753,-1.8312,7.782599999999999,-0.39676,-0.903256965,0.35058504,-0.211364205
1764764682.8488753,-1.8312,7.782599999999999,-0.39676,-0.903256965,0.35058504,-0.211364205
1764764682.8488753,-1.8312,7.782599999999999,-0.39676,-0.903256965,0.35058504,-0.211364205
1764764682.8504074,-1.8312,7.782599999999999,-0.39676,-0.903256965,0.35058504,-0.211364205
1764764682.8504074,-1.8312,7.782599999999999,-0.39676,-0.903256965,0.35058504,-0.211364205
1764764682.894395,-1.8312,7.782599999999999,-0.39676,-0.903256965,0.35058504,-0.211364205
1764764682.894395,-1.8312,7.782599999999999,-0.39676,-0.903256965,0.35058504,-0.211364205
1764764682.894395,-0.93086,3.18934,0.8392999999999999,-0.90807873,0.351744705,-0.211486275
1764764682.894395,-0.93086,3.18934,0.8392999999999999,-0.90807873,0.351744705,-0.211486275
1764764682.894395,-0.93086,3.18934,0.8392999999999999,-0.90807873,0.351744705,-0.211486275
1764764682.894395,-0.93086,3.18934,0.8392999999999999,-0.90807873,0.351744705,-0.211486275
1764764682.894395,-0.93086,3.18934,0.8392999999999999,-0.90807873,0.351744705,-0.211486275
1764764682.894395,-0.93086,3.18934,0.8392999999999999,-0.90807873,0.351744705,-0.211486275
1764764682.894395,-0.93086,3.18934,0.8392999999999999,-0.90807873,0.351744705,-0.211486275
1764764682.894395,-0.93086,3.18934,0.8392999999999999,-0.90807873,0.351744705,-0.211486275
1764764682.894395,-0.93086,3.18934,0.8392999999999999,-0.90807873,0.351744705,-0.211486275
1764764682.8953938,-0.93086,3.18934,0.8392999999999999,-0.90807873,0.351744705,-0.211486275
1764764682.8953938,1.12924,2.62472,1.99906,-0.90905529,0.351622635,-0.212340765
1764764682.8953938,1.12924,2.62472,1.99906,-0.90905529,0.351622635,-0.212340765
1764764682.8953938,1.12924,2.62472,1.99906,-0.90905529,0.351622635,-0.212340765
1764764682.8953938,1.12924,2.62472,1.99906,-0.90905529,0.351622635,-0.212340765
1764764682.8953938,1.12924,2.62472,1.99906,-0.90905529,0.351622635,-0.212340765
1764764682.8953938,1.12924,2.62472,1.99906,-0.90905529,0.351622635,-0.212340765
1764764682.8953938,1.12924,2.62472,1.99906,-0.90905529,0.351622635,-0.212340765
1764764682.8953938,1.12924,2.62472,1.99906,-0.90905529,0.351622635,-0.212340765
1764764682.8953938,1.12924,2.62472,1.99906,-0.90905529,0.351622635,-0.212340765
1764764682.8953938,1.12924,2.62472,1.99906,-0.90905529,0.351622635,-0.212340765
1764764682.9421408,1.69386,0.8698199999999999,1.55652,-0.9106422,0.350890215,-0.21398871
1764764682.9421408,1.69386,0.8698199999999999,1.55652,-0.9106422,0.350890215,-0.21398871
1764764682.9421408,1.69386,0.8698199999999999,1.55652,-0.9106422,0.350890215,-0.21398871
1764764682.9421408,1.69386,0.8698199999999999,1.55652,-0.9106422,0.350890215,-0.21398871
1764764682.9421408,1.69386,0.8698199999999999,1.55652,-0.9106422,0.350890215,-0.21398871
1764764682.9421408,1.69386,0.8698199999999999,1.55652,-0.9106422,0.350890215,-0.21398871
1764764682.9421408,1.69386,0.8698199999999999,1.55652,-0.9106422,0.350890215,-0.21398871
1764764682.9421408,1.69386,0.8698199999999999,1.55652,-0.9106422,0.350890215,-0.21398871
1764764682.9421408,1.69386,0.8698199999999999,1.55652,-0.9106422,0.350890215,-0.21398871
1764764682.9421408,1.69386,0.8698199999999999,1.55652,-0.9106422,0.350890215,-0.21398871
1764764682.9421408,1.43444,-0.12208,2.19744,-0.91003185,0.351866775,-0.21643011
1764764682.9421408,1.43444,-0.12208,2.19744,-0.91003185,0.351866775,-0.21643011
1764764682.9421408,1.43444,-0.12208,2.19744,-0.91003185,0.351866775,-0.21643011
1764764682.9421408,1.43444,-0.12208,2.19744,-0.91003185,0.351866775,-0.21643011
1764764682.9421408,1.43444,-0.12208,2.19744,-0.91003185,0.351866775,-0.21643011
1764764682.9421408,1.43444,-0.12208,2.19744,-0.91003185,0.351866775,-0.21643011
1764764682.9421408,1.43444,-0.12208,2.19744,-0.91003185,0.351866775,-0.21643011
1764764682.9421408,1.43444,-0.12208,2.19744,-0.91003185,0.351866775,-0.21643011
1764764682.9421408,1.43444,-0.12208,2.19744,-0.91003185,0.351866775,-0.21643011
1764764682.9421408,1.43444,-0.12208,2.19744,-0.91003185,0.351866775,-0.21643011
1764764682.9421408,-0.3051999999999999,-0.24416,1.64808,-0.90685803,0.35327058,-0.21752874
1764764682.9421408,-0.3051999999999999,-0.24416,1.64808,-0.90685803,0.35327058,-0.21752874
1764764682.9421408,-0.3051999999999999,-0.24416,1.64808,-0.90685803,0.35327058,-0.21752874
1764764682.9421408,-0.3051999999999999,-0.24416,1.64808,-0.90685803,0.35327058,-0.21752874
1764764682.9887793,-0.3051999999999999,-0.24416,1.64808,-0.90685803,0.35327058,-0.21752874
1764764682.9887793,-0.3051999999999999,-0.24416,1.64808,-0.90685803,0.35327058,-0.21752874
1764764682.9887793,-0.3051999999999999,-0.24416,1.64808,-0.90685803,0.35327058,-0.21752874
1764764682.9887793,-0.3051999999999999,-0.24416,1.64808,-0.90685803,0.35327058,-0.21752874
1764764682.9887793,-0.3051999999999999,-0.24416,1.64808,-0.90685803,0.35327058,-0.21752874
1764764682.9887793,-0.3051999999999999,-0.24416,1.64808,-0.90685803,0.35327058,-0.21752874
1764764682.9887793,-2.5942,0.59514,0.3357199999999999,-0.90380628,0.35424714,-0.21716253
1764764682.9887793,-2.5942,0.59514,0.3357199999999999,-0.90380628,0.35424714,-0.21716253
1764764682.9887793,-2.5942,0.59514,0.3357199999999999,-0.90380628,0.35424714,-0.21716253
1764764682.9887793,-2.5942,0.59514,0.3357199999999999,-0.90380628,0.35424714,-0.21716253
1764764682.9887793,-2.5942,0.59514,0.3357199999999999,-0.90380628,0.35424714,-0.21716253
1764764682.9887793,-2.5942,0.59514,0.3357199999999999,-0.90380628,0.35424714,-0.21716253
1764764682.9887793,-2.5942,0.59514,0.3357199999999999,-0.90380628,0.35424714,-0.21716253
1764764682.9887793,-2.5942,0.59514,0.3357199999999999,-0.90380628,0.35424714,-0.21716253
1764764682.9887793,-2.5942,0.59514,0.3357199999999999,-0.90380628,0.35424714,-0.21716253
1764764682.9887793,-2.5942,0.59514,0.3357199999999999,-0.90380628,0.35424714,-0.21716253
1764764682.9887793,-4.5017,1.78542,-0.9003399999999999,-0.900815565,0.353575755,-0.216979425
1764764682.9887793,-4.5017,1.78542,-0.9003399999999999,-0.900815565,0.353575755,-0.216979425
1764764682.9887793,-4.5017,1.78542,-0.9003399999999999,-0.900815565,0.353575755,-0.216979425
1764764682.9887793,-4.5017,1.78542,-0.9003399999999999,-0.900815565,0.353575755,-0.216979425
1764764682.9887793,-4.5017,1.78542,-0.9003399999999999,-0.900815565,0.353575755,-0.216979425
1764764682.9887793,-4.5017,1.78542,-0.9003399999999999,-0.900815565,0.353575755,-0.216979425
1764764682.9887793,-4.5017,1.78542,-0.9003399999999999,-0.900815565,0.353575755,-0.216979425
1764764682.9887793,-4.5017,1.78542,-0.9003399999999999,-0.900815565,0.353575755,-0.216979425
1764764683.0394857,-4.5017,1.78542,-0.9003399999999999,-0.900815565,0.353575755,-0.216979425
1764764683.0394857,-4.5017,1.78542,-0.9003399999999999,-0.900815565,0.353575755,-0.216979425
1764764683.0394857,-5.615679999999999,2.56368,-1.77016,-0.901059705,0.351134355,-0.21508734
1764764683.0394857,-5.615679999999999,2.56368,-1.77016,-0.901059705,0.351134355,-0.21508734
1764764683.0394857,-5.615679999999999,2.56368,-1.77016,-0.901059705,0.351134355,-0.21508734
1764764683.0394857,-5.615679999999999,2.56368,-1.77016,-0.901059705,0.351134355,-0.21508734
1764764683.0394857,-5.615679999999999,2.56368,-1.77016,-0.901059705,0.351134355,-0.21508734
1764764683.0394857,-5.615679999999999,2.56368,-1.77016,-0.901059705,0.351134355,-0.21508734
1764764683.0394857,-5.615679999999999,2.56368,-1.77016,-0.901059705,0.351134355,-0.21508734
1764764683.0394857,-5.615679999999999,2.56368,-1.77016,-0.901059705,0.351134355,-0.21508734
1764764683.0394857,-5.615679999999999,2.56368,-1.77016,-0.901059705,0.351134355,-0.21508734
1764764683.0394857,-5.615679999999999,2.56368,-1.77016,-0.901059705,0.351134355,-0.21508734
1764764683.0394857,-4.77638,3.93708,-1.7549,-0.90246351,0.350401935,-0.213683535
1764764683.0394857,-4.77638,3.93708,-1.7549,-0.90246351,0.350401935,-0.213683535
1764764683.0394857,-4.77638,3.93708,-1.7549,-0.90246351,0.350401935,-0.213683535
1764764683.0394857,-4.77638,3.93708,-1.7549,-0.90246351,0.350401935,-0.213683535
1764764683.0394857,-4.77638,3.93708,-1.7549,-0.90246351,0.350401935,-0.213683535
1764764683.0394857,-4.77638,3.93708,-1.7549,-0.90246351,0.350401935,-0.213683535
1764764683.0399957,-4.77638,3.93708,-1.7549,-0.90246351,0.350401935,-0.213683535
1764764683.0399957,-4.77638,3.93708,-1.7549,-0.90246351,0.350401935,-0.213683535
1764764683.0399957,-4.77638,3.93708,-1.7549,-0.90246351,0.350401935,-0.213683535
1764764683.0399957,-4.77638,3.93708,-1.7549,-0.90246351,0.350401935,-0.213683535
1764764683.0399957,-4.94424,4.8832,-1.61756,-0.90221937,0.35131746,-0.211974555
1764764683.0399957,-4.94424,4.8832,-1.61756,-0.90221937,0.35131746,-0.211974555
1764764683.0824995,-4.94424,4.8832,-1.61756,-0.90221937,0.35131746,-0.211974555
1764764683.0824995,-4.94424,4.8832,-1.61756,-0.90221937,0.35131746,-0.211974555
1764764683.0824995,-4.94424,4.8832,-1.61756,-0.90221937,0.35131746,-0.211974555
1764764683.0835395,-4.94424,4.8832,-1.61756,-0.90221937,0.35131746,-0.211974555
1764764683.0835395,-4.94424,4.8832,-1.61756,-0.90221937,0.35131746,-0.211974555
1764764683.0835395,-4.94424,4.8832,-1.61756,-0.90221937,0.35131746,-0.211974555
1764764683.0835395,-4.94424,4.8832,-1.61756,-0.90221937,0.35131746,-0.211974555
1764764683.0835395,-4.94424,4.8832,-1.61756,-0.90221937,0.35131746,-0.211974555
1764764683.0835395,-4.08968,5.0358,-1.58704,-0.903867315,0.35339265,-0.21191352
1764764683.0835395,-4.08968,5.0358,-1.58704,-0.903867315,0.35339265,-0.21191352
1764764683.0835395,-4.08968,5.0358,-1.58704,-0.903867315,0.35339265,-0.21191352
1764764683.0835395,-4.08968,5.0358,-1.58704,-0.903867315,0.35339265,-0.21191352
1764764683.0835395,-4.08968,5.0358,-1.58704,-0.903867315,0.35339265,-0.21191352
1764764683.0835395,-4.08968,5.0358,-1.58704,-0.903867315,0.35339265,-0.21191352
1764764683.0835395,-4.08968,5.0358,-1.58704,-0.903867315,0.35339265,-0.21191352
1764764683.0835395,-4.08968,5.0358,-1.58704,-0.903867315,0.35339265,-0.21191352
1764764683.0835395,-4.08968,5.0358,-1.58704,-0.903867315,0.35339265,-0.21191352
1764764683.0835395,-4.08968,5.0358,-1.58704,-0.903867315,0.35339265,-0.21191352
1764764683.0835395,-5.2647,3.87604,-0.6103999999999999,-0.90832287,0.35571198,-0.212584905
1764764683.0835395,-5.2647,3.87604,-0.6103999999999999,-0.90832287,0.35571198,-0.212584905
1764764683.0835395,-5.2647,3.87604,-0.6103999999999999,-0.90832287,0.35571198,-0.212584905
1764764683.0835395,-5.2647,3.87604,-0.6103999999999999,-0.90832287,0.35571198,-0.212584905
1764764683.0835395,-5.2647,3.87604,-0.6103999999999999,-0.90832287,0.35571198,-0.212584905
1764764683.0835395,-5.2647,3.87604,-0.6103999999999999,-0.90832287,0.35571198,-0.212584905
1764764683.1321547,-5.2647,3.87604,-0.6103999999999999,-0.90832287,0.35571198,-0.212584905
1764764683.1321547,-5.2647,3.87604,-0.6103999999999999,-0.90832287,0.35571198,-0.212584905
1764764683.1321547,-5.2647,3.87604,-0.6103999999999999,-0.90832287,0.35571198,-0.212584905
1764764683.1321547,-5.2647,3.87604,-0.6103999999999999,-0.90832287,0.35571198,-0.212584905
1764764683.1321547,-7.05012,2.31952,-0.0762999999999999,-0.909238395,0.358458555,-0.21276801
1764764683.1321547,-7.05012,2.31952,-0.0762999999999999,-0.909238395,0.358458555,-0.21276801
1764764683.1321547,-7.05012,2.31952,-0.0762999999999999,-0.909238395,0.358458555,-0.21276801
1764764683.1321547,-7.05012,2.31952,-0.0762999999999999,-0.909238395,0.358458555,-0.21276801
1764764683.1321547,-7.05012,2.31952,-0.0762999999999999,-0.909238395,0.358458555,-0.21276801
1764764683.1321547,-7.05012,2.31952,-0.0762999999999999,-0.909238395,0.358458555,-0.21276801
1764764683.1321547,-7.05012,2.31952,-0.0762999999999999,-0.909238395,0.358458555,-0.21276801
1764764683.1321547,-7.05012,2.31952,-0.0762999999999999,-0.909238395,0.358458555,-0.21276801
1764764683.1321547,-7.05012,2.31952,-0.0762999999999999,-0.909238395,0.358458555,-0.21276801
1764764683.1321547,-7.05012,2.31952,-0.0762999999999999,-0.909238395,0.358458555,-0.21276801
1764764683.1321547,-8.02676,1.93802,-0.3815,-0.90722424,0.358702695,-0.210509715
1764764683.1321547,-8.02676,1.93802,-0.3815,-0.90722424,0.358702695,-0.210509715
1764764683.1321547,-8.02676,1.93802,-0.3815,-0.90722424,0.358702695,-0.210509715
1764764683.1321547,-8.02676,1.93802,-0.3815,-0.90722424,0.358702695,-0.210509715
1764764683.1321547,-8.02676,1.93802,-0.3815,-0.90722424,0.358702695,-0.210509715
1764764683.1321547,-8.02676,1.93802,-0.3815,-0.90722424,0.358702695,-0.210509715
1764764683.1321547,-8.02676,1.93802,-0.3815,-0.90722424,0.358702695,-0.210509715
1764764683.1321547,-8.02676,1.93802,-0.3815,-0.90722424,0.358702695,-0.210509715
1764764683.1798613,-8.02676,1.93802,-0.3815,-0.90722424,0.358702695,-0.210509715
1764764683.1798613,-8.02676,1.93802,-0.3815,-0.90722424,0.358702695,-0.210509715
1764764683.1798613,-7.38584,1.89224,-0.94612,-0.90502698,0.356383365,-0.207457965
1764764683.1798613,-7.38584,1.89224,-0.94612,-0.90502698,0.356383365,-0.207457965
1764764683.1798613,-7.38584,1.89224,-0.94612,-0.90502698,0.356383365,-0.207457965
1764764683.1798613,-7.38584,1.89224,-0.94612,-0.90502698,0.356383365,-0.207457965
1764764683.1798613,-7.38584,1.89224,-0.94612,-0.90502698,0.356383365,-0.207457965
1764764683.1798613,-7.38584,1.89224,-0.94612,-0.90502698,0.356383365,-0.207457965
1764764683.1798613,-7.38584,1.89224,-0.94612,-0.90502698,0.356383365,-0.207457965
1764764683.1798613,-7.38584,1.89224,-0.94612,-0.90502698,0.356383365,-0.207457965
1764764683.1798613,-7.38584,1.89224,-0.94612,-0.90502698,0.356383365,-0.207457965
1764764683.1798613,-7.38584,1.89224,-0.94612,-0.90502698,0.356383365,-0.207457965
1764764683.1798613,-5.5699,1.58704,-0.9156,-0.904965945,0.35327058,-0.20519967
1764764683.1798613,-5.5699,1.58704,-0.9156,-0.904965945,0.35327058,-0.20519967
1764764683.1798613,-5.5699,1.58704,-0.9156,-0.904965945,0.35327058,-0.20519967
1764764683.1798613,-5.5699,1.58704,-0.9156,-0.904965945,0.35327058,-0.20519967
1764764683.1798613,-5.5699,1.58704,-0.9156,-0.904965945,0.35327058,-0.20519967
1764764683.1798613,-5.5699,1.58704,-0.9156,-0.904965945,0.35327058,-0.20519967
1764764683.1798613,-5.5699,1.58704,-0.9156,-0.904965945,0.35327058,-0.20519967
1764764683.1798613,-5.5699,1.58704,-0.9156,-0.904965945,0.35327058,-0.20519967
1764764683.1798613,-5.5699,1.58704,-0.9156,-0.904965945,0.35327058,-0.20519967
1764764683.1798613,-5.5699,1.58704,-0.9156,-0.904965945,0.35327058,-0.20519967
1764764683.1798613,-3.14356,2.2127,-0.2289,-0.90551526,0.349181235,-0.20568795
1764764683.1798613,-3.14356,2.2127,-0.2289,-0.90551526,0.349181235,-0.20568795
1764764683.2271335,-3.14356,2.2127,-0.2289,-0.90551526,0.349181235,-0.20568795
1764764683.2271335,-3.14356,2.2127,-0.2289,-0.90551526,0.349181235,-0.20568795
1764764683.2271335,-3.14356,2.2127,-0.2289,-0.90551526,0.349181235,-0.20568795
1764764683.2271335,-3.14356,2.2127,-0.2289,-0.90551526,0.349181235,-0.20568795
1764764683.2271335,-3.14356,2.2127,-0.2289,-0.90551526,0.349181235,-0.20568795
1764764683.2271335,-3.14356,2.2127,-0.2289,-0.90551526,0.349181235,-0.20568795
1764764683.2271335,-3.14356,2.2127,-0.2289,-0.90551526,0.349181235,-0.20568795
1764764683.2271335,-3.14356,2.2127,-0.2289,-0.90551526,0.349181235,-0.20568795
1764764683.2271335,-0.42728,2.18218,0.9003399999999999,-0.90881115,0.34558017,-0.20495553
1764764683.2271335,-0.42728,2.18218,0.9003399999999999,-0.90881115,0.34558017,-0.20495553
1764764683.2271335,-0.42728,2.18218,0.9003399999999999,-0.90881115,0.34558017,-0.20495553
1764764683.2271335,-0.42728,2.18218,0.9003399999999999,-0.90881115,0.34558017,-0.20495553
1764764683.2271335,-0.42728,2.18218,0.9003399999999999,-0.90881115,0.34558017,-0.20495553
1764764683.2271335,-0.42728,2.18218,0.9003399999999999,-0.90881115,0.34558017,-0.20495553
1764764683.2288785,-0.42728,2.18218,0.9003399999999999,-0.90881115,0.34558017,-0.20495553
1764764683.2288785,-0.42728,2.18218,0.9003399999999999,-0.90881115,0.34558017,-0.20495553
1764764683.2288785,-0.42728,2.18218,0.9003399999999999,-0.90881115,0.34558017,-0.20495553
1764764683.2288785,-0.42728,2.18218,0.9003399999999999,-0.90881115,0.34558017,-0.20495553
1764764683.2288785,1.9838,2.31952,1.57178,-0.90917736,0.344054295,-0.206359335
1764764683.2288785,1.9838,2.31952,1.57178,-0.90917736,0.344054295,-0.206359335
1764764683.2288785,1.9838,2.31952,1.57178,-0.90917736,0.344054295,-0.206359335
1764764683.2288785,1.9838,2.31952,1.57178,-0.90917736,0.344054295,-0.206359335
1764764683.2288785,1.9838,2.31952,1.57178,-0.90917736,0.344054295,-0.206359335
1764764683.2288785,1.9838,2.31952,1.57178,-0.90917736,0.344054295,-0.206359335
1764764683.2717662,1.9838,2.31952,1.57178,-0.90917736,0.344054295,-0.206359335
1764764683.2717662,1.9838,2.31952,1.57178,-0.90917736,0.344054295,-0.206359335
1764764683.2717662,1.9838,2.31952,1.57178,-0.90917736,0.344054295,-0.206359335
1764764683.2717662,1.9838,2.31952,1.57178,-0.90917736,0.344054295,-0.206359335
1764764683.2717662,3.34194,2.8231,0.65618,-0.905698365,0.34472568,-0.207091755
1764764683.2717662,3.34194,2.8231,0.65618,-0.905698365,0.34472568,-0.207091755
1764764683.2717662,3.34194,2.8231,0.65618,-0.905698365,0.34472568,-0.207091755
1764764683.2717662,3.34194,2.8231,0.65618,-0.905698365,0.34472568,-0.207091755
1764764683.2717662,3.34194,2.8231,0.65618,-0.905698365,0.34472568,-0.207091755
1764764683.2717662,3.34194,2.8231,0.65618,-0.905698365,0.34472568,-0.207091755
1764764683.2717662,3.34194,2.8231,0.65618,-0.905698365,0.34472568,-0.207091755
1764764683.2717662,3.34194,2.8231,0.65618,-0.905698365,0.34472568,-0.207091755
1764764683.2717662,3.34194,2.8231,0.65618,-0.905698365,0.34472568,-0.207091755
1764764683.2717662,3.34194,2.8231,0.65618,-0.905698365,0.34472568,-0.207091755
1764764683.2717662,3.75396,3.49454,-0.79352,-0.902646615,0.34570224,-0.206359335
1764764683.2717662,3.75396,3.49454,-0.79352,-0.902646615,0.34570224,-0.206359335
1764764683.2717662,3.75396,3.49454,-0.79352,-0.902646615,0.34570224,-0.206359335
1764764683.2717662,3.75396,3.49454,-0.79352,-0.902646615,0.34570224,-0.206359335
1764764683.2717662,3.75396,3.49454,-0.79352,-0.902646615,0.34570224,-0.206359335
1764764683.2717662,3.75396,3.49454,-0.79352,-0.902646615,0.34570224,-0.206359335
1764764683.2717662,3.75396,3.49454,-0.79352,-0.902646615,0.34570224,-0.206359335
1764764683.2717662,3.75396,3.49454,-0.79352,-0.902646615,0.34570224,-0.206359335
1764764683.2717662,3.75396,3.49454,-0.79352,-0.902646615,0.34570224,-0.206359335
1764764683.2717662,3.75396,3.49454,-0.79352,-0.902646615,0.34570224,-0.206359335
1764764683.320319,3.95234,3.98286,-1.87698,-0.90173109,0.3466788,-0.207519
1764764683.320319,3.95234,3.98286,-1.87698,-0.90173109,0.3466788,-0.207519
1764764683.320319,3.95234,3.98286,-1.87698,-0.90173109,0.3466788,-0.207519
1764764683.320319,3.95234,3.98286,-1.87698,-0.90173109,0.3466788,-0.207519
1764764683.320319,3.95234,3.98286,-1.87698,-0.90173109,0.3466788,-0.207519
1764764683.320319,3.95234,3.98286,-1.87698,-0.90173109,0.3466788,-0.207519
1764764683.320319,3.95234,3.98286,-1.87698,-0.90173109,0.3466788,-0.207519
1764764683.320319,3.95234,3.98286,-1.87698,-0.90173109,0.3466788,-0.207519
1764764683.320319,3.95234,3.98286,-1.87698,-0.90173109,0.3466788,-0.207519
1764764683.320319,3.95234,3.98286,-1.87698,-0.90173109,0.3466788,-0.207519
1764764683.320319,4.4254,5.66146,-2.63998,-0.90026625,0.3478995,-0.207824175
1764764683.320319,4.4254,5.66146,-2.63998,-0.90026625,0.3478995,-0.207824175
1764764683.320319,4.4254,5.66146,-2.63998,-0.90026625,0.3478995,-0.207824175
1764764683.320319,4.4254,5.66146,-2.63998,-0.90026625,0.3478995,-0.207824175
1764764683.320319,4.4254,5.66146,-2.63998,-0.90026625,0.3478995,-0.207824175
1764764683.320319,4.4254,5.66146,-2.63998,-0.90026625,0.3478995,-0.207824175
1764764683.320319,4.4254,5.66146,-2.63998,-0.90026625,0.3478995,-0.207824175
1764764683.320319,4.4254,5.66146,-2.63998,-0.90026625,0.3478995,-0.207824175
1764764683.320319,4.4254,5.66146,-2.63998,-0.90026625,0.3478995,-0.207824175
1764764683.320319,4.4254,5.66146,-2.63998,-0.90026625,0.3478995,-0.207824175
1764764683.320319,3.2809,5.31048,-2.8231,-0.899228655,0.35058504,-0.209655225
1764764683.320319,3.2809,5.31048,-2.8231,-0.899228655,0.35058504,-0.209655225
1764764683.320319,3.2809,5.31048,-2.8231,-0.899228655,0.35058504,-0.209655225
1764764683.320319,3.2809,5.31048,-2.8231,-0.899228655,0.35058504,-0.209655225
1764764683.3671577,3.2809,5.31048,-2.8231,-0.899228655,0.35058504,-0.209655225
1764764683.3671577,3.2809,5.31048,-2.8231,-0.899228655,0.35058504,-0.209655225
1764764683.3671577,3.2809,5.31048,-2.8231,-0.899228655,0.35058504,-0.209655225
1764764683.3671577,3.2809,5.31048,-2.8231,-0.899228655,0.35058504,-0.209655225
1764764683.3671577,3.2809,5.31048,-2.8231,-0.899228655,0.35058504,-0.209655225
1764764683.3681774,3.2809,5.31048,-2.8231,-0.899228655,0.35058504,-0.209655225
1764764683.3681774,2.19744,5.15788,-2.99096,-0.903379035,0.35192781,-0.21093696
1764764683.3681774,2.19744,5.15788,-2.99096,-0.903379035,0.35192781,-0.21093696
1764764683.3681774,2.19744,5.15788,-2.99096,-0.903379035,0.35192781,-0.21093696
1764764683.3681774,2.19744,5.15788,-2.99096,-0.903379035,0.35192781,-0.21093696
1764764683.3681774,2.19744,5.15788,-2.99096,-0.903379035,0.35192781,-0.21093696
1764764683.3681774,2.19744,5.15788,-2.99096,-0.903379035,0.35192781,-0.21093696
1764764683.3681774,2.19744,5.15788,-2.99096,-0.903379035,0.35192781,-0.21093696
1764764683.3681774,2.19744,5.15788,-2.99096,-0.903379035,0.35192781,-0.21093696
1764764683.3681774,2.19744,5.15788,-2.99096,-0.903379035,0.35192781,-0.21093696
1764764683.3681774,2.19744,5.15788,-2.99096,-0.903379035,0.35192781,-0.21093696
1764764683.3681774,1.23606,4.852679999999999,-0.9003399999999999,-0.907041135,0.35253816,-0.211242135
1764764683.3681774,1.23606,4.852679999999999,-0.9003399999999999,-0.907041135,0.35253816,-0.211242135
1764764683.3681774,1.23606,4.852679999999999,-0.9003399999999999,-0.907041135,0.35253816,-0.211242135
1764764683.3681774,1.23606,4.852679999999999,-0.9003399999999999,-0.907041135,0.35253816,-0.211242135
1764764683.4143844,1.23606,4.852679999999999,-0.9003399999999999,-0.907041135,0.35253816,-0.211242135
1764764683.4143844,1.23606,4.852679999999999,-0.9003399999999999,-0.907041135,0.35253816,-0.211242135
1764764683.4143844,1.23606,4.852679999999999,-0.9003399999999999,-0.907041135,0.35253816,-0.211242135
1764764683.4143844,1.23606,4.852679999999999,-0.9003399999999999,-0.907041135,0.35253816,-0.211242135
1764764683.4156754,1.23606,4.852679999999999,-0.9003399999999999,-0.907041135,0.35253816,-0.211242135
1764764683.4156754,1.23606,4.852679999999999,-0.9003399999999999,-0.907041135,0.35253816,-0.211242135
1764764683.4156754,1.31236,3.99812,-3.14356,-0.91015392,0.352477125,-0.21166938
1764764683.4156754,1.31236,3.99812,-3.14356,-0.91015392,0.352477125,-0.21166938
1764764683.4156754,1.31236,3.99812,-3.14356,-0.91015392,0.352477125,-0.21166938
1764764683.4156754,1.31236,3.99812,-3.14356,-0.91015392,0.352477125,-0.21166938
1764764683.4156754,1.31236,3.99812,-3.14356,-0.91015392,0.352477125,-0.21166938
1764764683.4156754,1.31236,3.99812,-3.14356,-0.91015392,0.352477125,-0.21166938
1764764683.4156754,1.31236,3.99812,-3.14356,-0.91015392,0.352477125,-0.21166938
1764764683.4156754,1.31236,3.99812,-3.14356,-0.91015392,0.352477125,-0.21166938
1764764683.4156754,1.31236,3.99812,-3.14356,-0.91015392,0.352477125,-0.21166938
1764764683.4156754,1.31236,3.99812,-3.14356,-0.91015392,0.352477125,-0.21166938
1764764683.4156754,1.08346,3.67766,-1.11398,-0.91210704,0.352721265,-0.21203559
1764764683.4156754,1.08346,3.67766,-1.11398,-0.91210704,0.352721265,-0.21203559
1764764683.4156754,1.08346,3.67766,-1.11398,-0.91210704,0.352721265,-0.21203559
1764764683.4156754,1.08346,3.67766,-1.11398,-0.91210704,0.352721265,-0.21203559
1764764683.4156754,1.08346,3.67766,-1.11398,-0.91210704,0.352721265,-0.21203559
1764764683.4156754,1.08346,3.67766,-1.11398,-0.91210704,0.352721265,-0.21203559
1764764683.4156754,1.08346,3.67766,-1.11398,-0.91210704,0.352721265,-0.21203559
1764764683.4156754,1.08346,3.67766,-1.11398,-0.91210704,0.352721265,-0.21203559
1764764683.4597197,1.08346,3.67766,-1.11398,-0.91210704,0.352721265,-0.21203559
1764764683.460761,1.08346,3.67766,-1.11398,-0.91210704,0.352721265,-0.21203559
1764764683.460761,-1.73964,3.60136,-1.3734,-0.91271739,0.353087475,-0.21215766
1764764683.460761,-1.73964,3.60136,-1.3734,-0.91271739,0.353087475,-0.21215766
1764764683.460761,-1.73964,3.60136,-1.3734,-0.91271739,0.353087475,-0.21215766
1764764683.460761,-1.73964,3.60136,-1.3734,-0.91271739,0.353087475,-0.21215766
1764764683.460761,-1.73964,3.60136,-1.3734,-0.91271739,0.353087475,-0.21215766
1764764683.460761,-1.73964,3.60136,-1.3734,-0.91271739,0.353087475,-0.21215766
1764764683.460761,-1.73964,3.60136,-1.3734,-0.91271739,0.353087475,-0.21215766
1764764683.460761,-1.73964,3.60136,-1.3734,-0.91271739,0.353087475,-0.21215766
1764764683.460761,-1.73964,3.60136,-1.3734,-0.91271739,0.353087475,-0.21215766
1764764683.460761,-1.73964,3.60136,-1.3734,-0.91271739,0.353087475,-0.21215766
1764764683.460761,-4.059159999999999,3.95234,-2.35004,-0.91210704,0.353087475,-0.211364205
1764764683.460761,-4.059159999999999,3.95234,-2.35004,-0.91210704,0.353087475,-0.211364205
1764764683.460761,-4.059159999999999,3.95234,-2.35004,-0.91210704,0.353087475,-0.211364205
1764764683.460761,-4.059159999999999,3.95234,-2.35004,-0.91210704,0.353087475,-0.211364205
1764764683.460761,-4.059159999999999,3.95234,-2.35004,-0.91210704,0.353087475,-0.211364205
1764764683.460761,-4.059159999999999,3.95234,-2.35004,-0.91210704,0.353087475,-0.211364205
1764764683.460761,-4.059159999999999,3.95234,-2.35004,-0.91210704,0.353087475,-0.211364205
1764764683.460761,-4.059159999999999,3.95234,-2.35004,-0.91210704,0.353087475,-0.211364205
1764764683.460761,-4.059159999999999,3.95234,-2.35004,-0.91210704,0.353087475,-0.211364205
1764764683.460761,-4.059159999999999,3.95234,-2.35004,-0.91210704,0.353087475,-0.211364205
1764764683.460761,-4.2728,4.86794,-1.43444,-0.908505975,0.35107332,-0.2087397
1764764683.460761,-4.2728,4.86794,-1.43444,-0.908505975,0.35107332,-0.2087397
1764764683.460761,-4.2728,4.86794,-1.43444,-0.908505975,0.35107332,-0.2087397
1764764683.460761,-4.2728,4.86794,-1.43444,-0.908505975,0.35107332,-0.2087397
1764764683.50475,-4.2728,4.86794,-1.43444,-0.908505975,0.35107332,-0.2087397
1764764683.50475,-4.2728,4.86794,-1.43444,-0.908505975,0.35107332,-0.2087397
1764764683.50475,-4.2728,4.86794,-1.43444,-0.908505975,0.35107332,-0.2087397
1764764683.50475,-4.2728,4.86794,-1.43444,-0.908505975,0.35107332,-0.2087397
1764764683.50475,-4.2728,4.86794,-1.43444,-0.908505975,0.35107332,-0.2087397
1764764683.5057652,-4.2728,4.86794,-1.43444,-0.908505975,0.35107332,-0.2087397
1764764683.5057652,-2.48738,5.615679999999999,-1.7549,-0.90466077,0.346861905,-0.205260705
1764764683.5057652,-2.48738,5.615679999999999,-1.7549,-0.90466077,0.346861905,-0.205260705
1764764683.5057652,-2.48738,5.615679999999999,-1.7549,-0.90466077,0.346861905,-0.205260705
1764764683.5057652,-2.48738,5.615679999999999,-1.7549,-0.90466077,0.346861905,-0.205260705
1764764683.5063298,-2.48738,5.615679999999999,-1.7549,-0.90466077,0.346861905,-0.205260705
1764764683.5063298,-2.48738,5.615679999999999,-1.7549,-0.90466077,0.346861905,-0.205260705
1764764683.5063298,-2.48738,5.615679999999999,-1.7549,-0.90466077,0.346861905,-0.205260705
1764764683.5063298,-2.48738,5.615679999999999,-1.7549,-0.90466077,0.346861905,-0.205260705
1764764683.5063298,-2.48738,5.615679999999999,-1.7549,-0.90466077,0.346861905,-0.205260705
1764764683.5063298,-2.48738,5.615679999999999,-1.7549,-0.90466077,0.346861905,-0.205260705
1764764683.5067742,1.28184,6.76018,-2.68576,-0.90173109,0.34020909,-0.2038569
1764764683.5067742,1.28184,6.76018,-2.68576,-0.90173109,0.34020909,-0.2038569
1764764683.5067742,1.28184,6.76018,-2.68576,-0.90173109,0.34020909,-0.2038569
1764764683.5067742,1.28184,6.76018,-2.68576,-0.90173109,0.34020909,-0.2038569
1764764683.5067742,1.28184,6.76018,-2.68576,-0.90173109,0.34020909,-0.2038569
1764764683.5067742,1.28184,6.76018,-2.68576,-0.90173109,0.34020909,-0.2038569
1764764683.5536351,1.28184,6.76018,-2.68576,-0.90173109,0.34020909,-0.2038569
1764764683.5536351,1.28184,6.76018,-2.68576,-0.90173109,0.34020909,-0.2038569
1764764683.5536351,1.28184,6.76018,-2.68576,-0.90173109,0.34020909,-0.2038569
1764764683.5536351,1.28184,6.76018,-2.68576,-0.90173109,0.34020909,-0.2038569
1764764683.5536351,4.47118,6.60758,-2.62472,-0.90148695,0.33642492,-0.20556588
1764764683.5536351,4.47118,6.60758,-2.62472,-0.90148695,0.33642492,-0.20556588
1764764683.5536351,4.47118,6.60758,-2.62472,-0.90148695,0.33642492,-0.20556588
1764764683.5536351,4.47118,6.60758,-2.62472,-0.90148695,0.33642492,-0.20556588
1764764683.5536351,4.47118,6.60758,-2.62472,-0.90148695,0.33642492,-0.20556588
1764764683.5536351,4.47118,6.60758,-2.62472,-0.90148695,0.33642492,-0.20556588
1764764683.5536351,4.47118,6.60758,-2.62472,-0.90148695,0.33642492,-0.20556588
1764764683.5536351,4.47118,6.60758,-2.62472,-0.90148695,0.33642492,-0.20556588
1764764683.5536351,4.47118,6.60758,-2.62472,-0.90148695,0.33642492,-0.20556588
1764764683.5536351,4.47118,6.60758,-2.62472,-0.90148695,0.33642492,-0.20556588
1764764683.5536351,6.36342,5.76828,-4.02864,-0.903256965,0.33654699,-0.207580035
1764764683.5536351,6.36342,5.76828,-4.02864,-0.903256965,0.33654699,-0.207580035
1764764683.5536351,6.36342,5.76828,-4.02864,-0.903256965,0.33654699,-0.207580035
1764764683.5536351,6.36342,5.76828,-4.02864,-0.903256965,0.33654699,-0.207580035
1764764683.5536351,6.36342,5.76828,-4.02864,-0.903256965,0.33654699,-0.207580035
1764764683.5536351,6.36342,5.76828,-4.02864,-0.903256965,0.33654699,-0.207580035
1764764683.5536351,6.36342,5.76828,-4.02864,-0.903256965,0.33654699,-0.207580035
1764764683.5536351,6.36342,5.76828,-4.02864,-0.903256965,0.33654699,-0.207580035
1764764683.5536351,6.36342,5.76828,-4.02864,-0.903256965,0.33654699,-0.207580035
1764764683.5536351,6.36342,5.76828,-4.02864,-0.903256965,0.33654699,-0.207580035
1764764683.600468,6.3329,4.25754,-3.3572,-0.906064575,0.340025985,-0.21032661
1764764683.600468,6.3329,4.25754,-3.3572,-0.906064575,0.340025985,-0.21032661
1764764683.600468,6.3329,4.25754,-3.3572,-0.906064575,0.340025985,-0.21032661
1764764683.600468,6.3329,4.25754,-3.3572,-0.906064575,0.340025985,-0.21032661
1764764683.600468,6.3329,4.25754,-3.3572,-0.906064575,0.340025985,-0.21032661
1764764683.600468,6.3329,4.25754,-3.3572,-0.906064575,0.340025985,-0.21032661
1764764683.600468,6.3329,4.25754,-3.3572,-0.906064575,0.340025985,-0.21032661
1764764683.600468,6.3329,4.25754,-3.3572,-0.906064575,0.340025985,-0.21032661
1764764683.600468,6.3329,4.25754,-3.3572,-0.906064575,0.340025985,-0.21032661
1764764683.600468,6.3329,4.25754,-3.3572,-0.906064575,0.340025985,-0.21032661
1764764683.600468,5.90562,3.76922,-2.5179,-0.912656355,0.343932225,-0.211852485
1764764683.600468,5.90562,3.76922,-2.5179,-0.912656355,0.343932225,-0.211852485
1764764683.600468,5.90562,3.76922,-2.5179,-0.912656355,0.343932225,-0.211852485
1764764683.600468,5.90562,3.76922,-2.5179,-0.912656355,0.343932225,-0.211852485
1764764683.600468,5.90562,3.76922,-2.5179,-0.912656355,0.343932225,-0.211852485
1764764683.600468,5.90562,3.76922,-2.5179,-0.912656355,0.343932225,-0.211852485
1764764683.600468,5.90562,3.76922,-2.5179,-0.912656355,0.343932225,-0.211852485
1764764683.600468,5.90562,3.76922,-2.5179,-0.912656355,0.343932225,-0.211852485
1764764683.600468,5.90562,3.76922,-2.5179,-0.912656355,0.343932225,-0.211852485
1764764683.601518,5.90562,3.76922,-2.5179,-0.912656355,0.343932225,-0.211852485
1764764683.601518,4.60852,2.70102,-0.9156,-0.920712975,0.347716395,-0.21398871
1764764683.601518,4.60852,2.70102,-0.9156,-0.920712975,0.347716395,-0.21398871
1764764683.601518,4.60852,2.70102,-0.9156,-0.920712975,0.347716395,-0.21398871
1764764683.601518,4.60852,2.70102,-0.9156,-0.920712975,0.347716395,-0.21398871
1764764683.6454804,4.60852,2.70102,-0.9156,-0.920712975,0.347716395,-0.21398871
1764764683.6465178,4.60852,2.70102,-0.9156,-0.920712975,0.347716395,-0.21398871
1764764683.6465178,4.60852,2.70102,-0.9156,-0.920712975,0.347716395,-0.21398871
1764764683.6465178,4.60852,2.70102,-0.9156,-0.920712975,0.347716395,-0.21398871
1764764683.6465178,4.60852,2.70102,-0.9156,-0.920712975,0.347716395,-0.21398871
1764764683.6465178,4.60852,2.70102,-0.9156,-0.920712975,0.347716395,-0.21398871
1764764683.6465178,3.2809,3.00622,0.4578,-0.922299885,0.348448815,-0.21569769
1764764683.6465178,3.2809,3.00622,0.4578,-0.922299885,0.348448815,-0.21569769
1764764683.6465178,3.2809,3.00622,0.4578,-0.922299885,0.348448815,-0.21569769
1764764683.6465178,3.2809,3.00622,0.4578,-0.922299885,0.348448815,-0.21569769
1764764683.6465178,3.2809,3.00622,0.4578,-0.922299885,0.348448815,-0.21569769
1764764683.6465178,3.2809,3.00622,0.4578,-0.922299885,0.348448815,-0.21569769
1764764683.6475372,3.2809,3.00622,0.4578,-0.922299885,0.348448815,-0.21569769
1764764683.6475372,3.2809,3.00622,0.4578,-0.922299885,0.348448815,-0.21569769
1764764683.6479433,3.2809,3.00622,0.4578,-0.922299885,0.348448815,-0.21569769
1764764683.6479433,3.2809,3.00622,0.4578,-0.922299885,0.348448815,-0.21569769
1764764683.6479433,3.15882,2.41108,2.33478,-0.91991952,0.34680087,-0.217467705
1764764683.6479433,3.15882,2.41108,2.33478,-0.91991952,0.34680087,-0.217467705
1764764683.6479433,3.15882,2.41108,2.33478,-0.91991952,0.34680087,-0.217467705
1764764683.6479433,3.15882,2.41108,2.33478,-0.91991952,0.34680087,-0.217467705
1764764683.6479433,3.15882,2.41108,2.33478,-0.91991952,0.34680087,-0.217467705
1764764683.6479433,3.15882,2.41108,2.33478,-0.91991952,0.34680087,-0.217467705
1764764683.6942923,3.15882,2.41108,2.33478,-0.91991952,0.34680087,-0.217467705
1764764683.6942923,3.15882,2.41108,2.33478,-0.91991952,0.34680087,-0.217467705
1764764683.6942923,3.15882,2.41108,2.33478,-0.91991952,0.34680087,-0.217467705
1764764683.6942923,3.15882,2.41108,2.33478,-0.91991952,0.34680087,-0.217467705
1764764683.6942923,1.03768,2.3653,3.17408,-0.91930917,0.34570224,-0.218688405
1764764683.6942923,1.03768,2.3653,3.17408,-0.91930917,0.34570224,-0.218688405
1764764683.6942923,1.03768,2.3653,3.17408,-0.91930917,0.34570224,-0.218688405
1764764683.6953125,1.03768,2.3653,3.17408,-0.91930917,0.34570224,-0.218688405
1764764683.6953125,1.03768,2.3653,3.17408,-0.91930917,0.34570224,-0.218688405
1764764683.6953125,1.03768,2.3653,3.17408,-0.91930917,0.34570224,-0.218688405
1764764683.6953125,1.03768,2.3653,3.17408,-0.91930917,0.34570224,-0.218688405
1764764683.6953125,1.03768,2.3653,3.17408,-0.91930917,0.34570224,-0.218688405
1764764683.6953125,1.03768,2.3653,3.17408,-0.91930917,0.34570224,-0.218688405
1764764683.6953125,1.03768,2.3653,3.17408,-0.91930917,0.34570224,-0.218688405
1764764683.6953125,-1.73964,1.4039199999999998,3.9676,-0.918637785,0.34594638,-0.220885665
1764764683.6953125,-1.73964,1.4039199999999998,3.9676,-0.918637785,0.34594638,-0.220885665
1764764683.6953125,-1.73964,1.4039199999999998,3.9676,-0.918637785,0.34594638,-0.220885665
1764764683.6963043,-1.73964,1.4039199999999998,3.9676,-0.918637785,0.34594638,-0.220885665
1764764683.6963043,-1.73964,1.4039199999999998,3.9676,-0.918637785,0.34594638,-0.220885665
1764764683.6963043,-1.73964,1.4039199999999998,3.9676,-0.918637785,0.34594638,-0.220885665
1764764683.6963043,-1.73964,1.4039199999999998,3.9676,-0.918637785,0.34594638,-0.220885665
1764764683.6963043,-1.73964,1.4039199999999998,3.9676,-0.918637785,0.34594638,-0.220885665
1764764683.6963043,-1.73964,1.4039199999999998,3.9676,-0.918637785,0.34594638,-0.220885665
1764764683.6963043,-1.73964,1.4039199999999998,3.9676,-0.918637785,0.34594638,-0.220885665
1764764683.7410817,-5.08158,1.51074,4.36436,-0.915525,0.348082605,-0.221740155
1764764683.7410817,-5.08158,1.51074,4.36436,-0.915525,0.348082605,-0.221740155
1764764683.7410817,-5.08158,1.51074,4.36436,-0.915525,0.348082605,-0.221740155
1764764683.7410817,-5.08158,1.51074,4.36436,-0.915525,0.348082605,-0.221740155
1764764683.7410817,-5.08158,1.51074,4.36436,-0.915525,0.348082605,-0.221740155
1764764683.7410817,-5.08158,1.51074,4.36436,-0.915525,0.348082605,-0.221740155
1764764683.7410817,-5.08158,1.51074,4.36436,-0.915525,0.348082605,-0.221740155
1764764683.7410817,-5.08158,1.51074,4.36436,-0.915525,0.348082605,-0.221740155
1764764683.7410817,-5.08158,1.51074,4.36436,-0.915525,0.348082605,-0.221740155
1764764683.7410817,-5.08158,1.51074,4.36436,-0.915525,0.348082605,-0.221740155
1764764683.7410817,-8.0878,1.11398,5.508859999999999,-0.914609475,0.34997469,-0.221740155
1764764683.7410817,-8.0878,1.11398,5.508859999999999,-0.914609475,0.34997469,-0.221740155
1764764683.7410817,-8.0878,1.11398,5.508859999999999,-0.914609475,0.34997469,-0.221740155
1764764683.7410817,-8.0878,1.11398,5.508859999999999,-0.914609475,0.34997469,-0.221740155
1764764683.7410817,-8.0878,1.11398,5.508859999999999,-0.914609475,0.34997469,-0.221740155
1764764683.7410817,-8.0878,1.11398,5.508859999999999,-0.914609475,0.34997469,-0.221740155
1764764683.7410817,-8.0878,1.11398,5.508859999999999,-0.914609475,0.34997469,-0.221740155
1764764683.7410817,-8.0878,1.11398,5.508859999999999,-0.914609475,0.34997469,-0.221740155
1764764683.7410817,-8.0878,1.11398,5.508859999999999,-0.914609475,0.34997469,-0.221740155
1764764683.7410817,-8.0878,1.11398,5.508859999999999,-0.914609475,0.34997469,-0.221740155
1764764683.7410817,-10.65148,1.55652,5.753019999999999,-0.91418223,0.350157795,-0.22009221
1764764683.7410817,-10.65148,1.55652,5.753019999999999,-0.91418223,0.350157795,-0.22009221
1764764683.7410817,-10.65148,1.55652,5.753019999999999,-0.91418223,0.350157795,-0.22009221
1764764683.7410817,-10.65148,1.55652,5.753019999999999,-0.91418223,0.350157795,-0.22009221
1764764683.786088,-10.65148,1.55652,5.753019999999999,-0.91418223,0.350157795,-0.22009221
1764764683.786088,-10.65148,1.55652,5.753019999999999,-0.91418223,0.350157795,-0.22009221
1764764683.786088,-10.65148,1.55652,5.753019999999999,-0.91418223,0.350157795,-0.22009221
1764764683.786088,-10.65148,1.55652,5.753019999999999,-0.91418223,0.350157795,-0.22009221
1764764683.786088,-10.65148,1.55652,5.753019999999999,-0.91418223,0.350157795,-0.22009221
1764764683.786088,-10.65148,1.55652,5.753019999999999,-0.91418223,0.350157795,-0.22009221
1764764683.786088,-12.5132,1.99906,7.11116,-0.91540293,0.352599195,-0.21777288
1764764683.786088,-12.5132,1.99906,7.11116,-0.91540293,0.352599195,-0.21777288
1764764683.786088,-12.5132,1.99906,7.11116,-0.91540293,0.352599195,-0.21777288
1764764683.786088,-12.5132,1.99906,7.11116,-0.91540293,0.352599195,-0.21777288
1764764683.786088,-12.5132,1.99906,7.11116,-0.91540293,0.352599195,-0.21777288
1764764683.786088,-12.5132,1.99906,7.11116,-0.91540293,0.352599195,-0.21777288
1764764683.786088,-12.5132,1.99906,7.11116,-0.91540293,0.352599195,-0.21777288
1764764683.786088,-12.5132,1.99906,7.11116,-0.91540293,0.352599195,-0.21777288
1764764683.786088,-12.5132,1.99906,7.11116,-0.91540293,0.352599195,-0.21777288
1764764683.786088,-12.5132,1.99906,7.11116,-0.91540293,0.352599195,-0.21777288
1764764683.786088,-15.82462,2.04484,11.46026,-0.926084055,0.35729889,-0.215270445
1764764683.786088,-15.82462,2.04484,11.46026,-0.926084055,0.35729889,-0.215270445
1764764683.786088,-15.82462,2.04484,11.46026,-0.926084055,0.35729889,-0.215270445
1764764683.786088,-15.82462,2.04484,11.46026,-0.926084055,0.35729889,-0.215270445
1764764683.786088,-15.82462,2.04484,11.46026,-0.926084055,0.35729889,-0.215270445
1764764683.786088,-15.82462,2.04484,11.46026,-0.926084055,0.35729889,-0.215270445
1764764683.8323224,-15.82462,2.04484,11.46026,-0.926084055,0.35729889,-0.215270445
1764764683.8323224,-15.82462,2.04484,11.46026,-0.926084055,0.35729889,-0.215270445
1764764683.8323224,-15.82462,2.04484,11.46026,-0.926084055,0.35729889,-0.215270445
1764764683.8323224,-15.82462,2.04484,11.46026,-0.926084055,0.35729889,-0.215270445
1764764683.8323224,-17.0912,1.35814,13.91712,-0.929990295,0.35668854,-0.210265575
1764764683.8323224,-17.0912,1.35814,13.91712,-0.929990295,0.35668854,-0.210265575
1764764683.8323224,-17.0912,1.35814,13.91712,-0.929990295,0.35668854,-0.210265575
1764764683.8323224,-17.0912,1.35814,13.91712,-0.929990295,0.35668854,-0.210265575
1764764683.8323224,-17.0912,1.35814,13.91712,-0.929990295,0.35668854,-0.210265575
1764764683.8323224,-17.0912,1.35814,13.91712,-0.929990295,0.35668854,-0.210265575
1764764683.8323224,-17.0912,1.35814,13.91712,-0.929990295,0.35668854,-0.210265575
1764764683.8323224,-17.0912,1.35814,13.91712,-0.929990295,0.35668854,-0.210265575
1764764683.8334084,-17.0912,1.35814,13.91712,-0.929990295,0.35668854,-0.210265575
1764764683.8334084,-17.0912,1.35814,13.91712,-0.929990295,0.35668854,-0.210265575
1764764683.8334084,-12.68106,2.5179,11.38396,-0.91747812,0.34997469,-0.20544381
1764764683.8334084,-12.68106,2.5179,11.38396,-0.91747812,0.34997469,-0.20544381
1764764683.8334084,-12.68106,2.5179,11.38396,-0.91747812,0.34997469,-0.20544381
1764764683.8334084,-12.68106,2.5179,11.38396,-0.91747812,0.34997469,-0.20544381
1764764683.8334084,-12.68106,2.5179,11.38396,-0.91747812,0.34997469,-0.20544381
1764764683.8334084,-12.68106,2.5179,11.38396,-0.91747812,0.34997469,-0.20544381
1764764683.8334084,-12.68106,2.5179,11.38396,-0.91747812,0.34997469,-0.20544381
1764764683.8334084,-12.68106,2.5179,11.38396,-0.91747812,0.34997469,-0.20544381
1764764683.8334084,-12.68106,2.5179,11.38396,-0.91747812,0.34997469,-0.20544381
1764764683.8334084,-12.68106,2.5179,11.38396,-0.91747812,0.34997469,-0.20544381
1764764683.8769343,-7.18746,4.577999999999999,8.530339999999999,-0.90234144,0.34448154,-0.201842745
1764764683.8769343,-7.18746,4.577999999999999,8.530339999999999,-0.90234144,0.34448154,-0.201842745
1764764683.8769343,-7.18746,4.577999999999999,8.530339999999999,-0.90234144,0.34448154,-0.201842745
1764764683.8769343,-7.18746,4.577999999999999,8.530339999999999,-0.90234144,0.34448154,-0.201842745
1764764683.8769343,-7.18746,4.577999999999999,8.530339999999999,-0.90234144,0.34448154,-0.201842745
1764764683.8769343,-7.18746,4.577999999999999,8.530339999999999,-0.90234144,0.34448154,-0.201842745
1764764683.8769343,-7.18746,4.577999999999999,8.530339999999999,-0.90234144,0.34448154,-0.201842745
1764764683.8769343,-7.18746,4.577999999999999,8.530339999999999,-0.90234144,0.34448154,-0.201842745
1764764683.8769343,-7.18746,4.577999999999999,8.530339999999999,-0.90234144,0.34448154,-0.201842745
1764764683.8769343,-7.18746,4.577999999999999,8.530339999999999,-0.90234144,0.34448154,-0.201842745
1764764683.8769343,-5.82932,4.08968,7.965719999999999,-0.8939186100000001,0.346129485,-0.20178171
1764764683.8769343,-5.82932,4.08968,7.965719999999999,-0.8939186100000001,0.346129485,-0.20178171
1764764683.8769343,-5.82932,4.08968,7.965719999999999,-0.8939186100000001,0.346129485,-0.20178171
1764764683.8769343,-5.82932,4.08968,7.965719999999999,-0.8939186100000001,0.346129485,-0.20178171
1764764683.8769343,-5.82932,4.08968,7.965719999999999,-0.8939186100000001,0.346129485,-0.20178171
1764764683.8769343,-5.82932,4.08968,7.965719999999999,-0.8939186100000001,0.346129485,-0.20178171
1764764683.8769343,-5.82932,4.08968,7.965719999999999,-0.8939186100000001,0.346129485,-0.20178171
1764764683.8769343,-5.82932,4.08968,7.965719999999999,-0.8939186100000001,0.346129485,-0.20178171
1764764683.8777514,-5.82932,4.08968,7.965719999999999,-0.8939186100000001,0.346129485,-0.20178171
1764764683.8777514,-5.82932,4.08968,7.965719999999999,-0.8939186100000001,0.346129485,-0.20178171
1764764683.8777514,-6.69914,3.61662,6.21082,-0.89184342,0.349669515,-0.20202585
1764764683.8777514,-6.69914,3.61662,6.21082,-0.89184342,0.349669515,-0.20202585
1764764683.924879,-6.69914,3.61662,6.21082,-0.89184342,0.349669515,-0.20202585
1764764683.924879,-6.69914,3.61662,6.21082,-0.89184342,0.349669515,-0.20202585
1764764683.924879,-6.69914,3.61662,6.21082,-0.89184342,0.349669515,-0.20202585
1764764683.924879,-6.69914,3.61662,6.21082,-0.89184342,0.349669515,-0.20202585
1764764683.924879,-6.69914,3.61662,6.21082,-0.89184342,0.349669515,-0.20202585
1764764683.924879,-6.69914,3.61662,6.21082,-0.89184342,0.349669515,-0.20202585
1764764683.924879,-6.69914,3.61662,6.21082,-0.89184342,0.349669515,-0.20202585
1764764683.924879,-6.69914,3.61662,6.21082,-0.89184342,0.349669515,-0.20202585
1764764683.924879,-6.43972,3.34194,4.24228,-0.89123307,0.351988845,-0.20288034
1764764683.924879,-6.43972,3.34194,4.24228,-0.89123307,0.351988845,-0.20288034
1764764683.924879,-6.43972,3.34194,4.24228,-0.89123307,0.351988845,-0.20288034
1764764683.924879,-6.43972,3.34194,4.24228,-0.89123307,0.351988845,-0.20288034
1764764683.924879,-6.43972,3.34194,4.24228,-0.89123307,0.351988845,-0.20288034
1764764683.924879,-6.43972,3.34194,4.24228,-0.89123307,0.351988845,-0.20288034
1764764683.924879,-6.43972,3.34194,4.24228,-0.89123307,0.351988845,-0.20288034
1764764683.924879,-6.43972,3.34194,4.24228,-0.89123307,0.351988845,-0.20288034
1764764683.9254217,-6.43972,3.34194,4.24228,-0.89123307,0.351988845,-0.20288034
1764764683.9254217,-6.43972,3.34194,4.24228,-0.89123307,0.351988845,-0.20288034
1764764683.9254217,-4.91372,1.1445,1.2055399999999998,-0.8928199800000001,0.351744705,-0.20397897
1764764683.9254217,-4.91372,1.1445,1.2055399999999998,-0.8928199800000001,0.351744705,-0.20397897
1764764683.9254217,-4.91372,1.1445,1.2055399999999998,-0.8928199800000001,0.351744705,-0.20397897
1764764683.9254217,-4.91372,1.1445,1.2055399999999998,-0.8928199800000001,0.351744705,-0.20397897
1764764683.971891,-4.91372,1.1445,1.2055399999999998,-0.8928199800000001,0.351744705,-0.20397897
1764764683.971891,-4.91372,1.1445,1.2055399999999998,-0.8928199800000001,0.351744705,-0.20397897
1764764683.971891,-4.91372,1.1445,1.2055399999999998,-0.8928199800000001,0.351744705,-0.20397897
1764764683.971891,-4.91372,1.1445,1.2055399999999998,-0.8928199800000001,0.351744705,-0.20397897
1764764683.971891,-4.91372,1.1445,1.2055399999999998,-0.8928199800000001,0.351744705,-0.20397897
1764764683.971891,-4.91372,1.1445,1.2055399999999998,-0.8928199800000001,0.351744705,-0.20397897
1764764683.971891,-2.2127,0.50358,0.96138,-0.8959938000000001,0.350157795,-0.20593209
