Timestamp,GyroX,GyroY,GyroZ,AccX,AccY,AccZ
1764433956.8890116,-0.73248,4.059159999999999,0.59514,0.61511073,-0.62560875,-0.494688675
1764433956.8890116,-0.73248,4.059159999999999,0.59514,0.61511073,-0.62560875,-0.494688675
1764433956.89053,-0.73248,4.059159999999999,0.59514,0.61511073,-0.62560875,-0.494688675
1764433956.89053,-0.73248,4.059159999999999,0.59514,0.61511073,-0.62560875,-0.494688675
1764433956.89053,-0.73248,4.059159999999999,0.59514,0.61511073,-0.62560875,-0.494688675
1764433956.89053,-0.73248,4.059159999999999,0.59514,0.61511073,-0.62560875,-0.494688675
1764433956.89053,-0.73248,4.059159999999999,0.59514,0.61511073,-0.62560875,-0.494688675
1764433956.89053,-0.73248,4.059159999999999,0.59514,0.61511073,-0.62560875,-0.494688675
1764433956.89053,-0.73248,4.059159999999999,0.59514,0.61511073,-0.62560875,-0.494688675
1764433956.89053,-0.73248,4.059159999999999,0.59514,0.61511073,-0.62560875,-0.494688675
1764433956.89053,-1.00716,3.86078,0.57988,0.614195205,-0.62438805,-0.495054885
1764433956.89053,-1.00716,3.86078,0.57988,0.614195205,-0.62438805,-0.495054885
1764433956.89053,-1.00716,3.86078,0.57988,0.614195205,-0.62438805,-0.495054885
1764433956.89053,-1.00716,3.86078,0.57988,0.614195205,-0.62438805,-0.495054885
1764433956.89053,-1.00716,3.86078,0.57988,0.614195205,-0.62438805,-0.495054885
1764433956.89053,-1.00716,3.86078,0.57988,0.614195205,-0.62438805,-0.495054885
1764433956.89053,-1.00716,3.86078,0.57988,0.614195205,-0.62438805,-0.495054885
1764433956.89053,-1.00716,3.86078,0.57988,0.614195205,-0.62438805,-0.495054885
1764433956.89053,-1.00716,3.86078,0.57988,0.614195205,-0.62438805,-0.495054885
1764433956.89053,-1.00716,3.86078,0.57988,0.614195205,-0.62438805,-0.495054885
1764433956.89053,-0.65618,3.69292,0.71722,0.614073135,-0.624937365,-0.494810745
1764433956.89053,-0.65618,3.69292,0.71722,0.614073135,-0.624937365,-0.494810745
1764433956.9352798,-0.65618,3.69292,0.71722,0.614073135,-0.624937365,-0.494810745
1764433956.9352798,-0.65618,3.69292,0.71722,0.614073135,-0.624937365,-0.494810745
1764433956.9352798,-0.65618,3.69292,0.71722,0.614073135,-0.624937365,-0.494810745
1764433956.9352798,-0.65618,3.69292,0.71722,0.614073135,-0.624937365,-0.494810745
1764433956.9352798,-0.65618,3.69292,0.71722,0.614073135,-0.624937365,-0.494810745
1764433956.9352798,-0.65618,3.69292,0.71722,0.614073135,-0.624937365,-0.494810745
1764433956.9362812,-0.65618,3.69292,0.71722,0.614073135,-0.624937365,-0.494810745
1764433956.9362812,-0.65618,3.69292,0.71722,0.614073135,-0.624937365,-0.494810745
1764433956.9362812,-0.50358,3.99812,0.51884,0.614317275,-0.624815295,-0.49450557
1764433956.9362812,-0.50358,3.99812,0.51884,0.614317275,-0.624815295,-0.49450557
1764433956.937278,-0.50358,3.99812,0.51884,0.614317275,-0.624815295,-0.49450557
1764433956.937278,-0.50358,3.99812,0.51884,0.614317275,-0.624815295,-0.49450557
1764433956.937278,-0.50358,3.99812,0.51884,0.614317275,-0.624815295,-0.49450557
1764433956.937278,-0.50358,3.99812,0.51884,0.614317275,-0.624815295,-0.49450557
1764433956.937278,-0.50358,3.99812,0.51884,0.614317275,-0.624815295,-0.49450557
1764433956.937278,-0.50358,3.99812,0.51884,0.614317275,-0.624815295,-0.49450557
1764433956.937278,-0.50358,3.99812,0.51884,0.614317275,-0.624815295,-0.49450557
1764433956.9382775,-0.50358,3.99812,0.51884,0.614317275,-0.624815295,-0.49450557
1764433956.9382775,-0.09156,3.3572,0.48832,0.614683485,-0.62560875,-0.494322465
1764433956.9382775,-0.09156,3.3572,0.48832,0.614683485,-0.62560875,-0.494322465
1764433956.9382775,-0.09156,3.3572,0.48832,0.614683485,-0.62560875,-0.494322465
1764433956.9382775,-0.09156,3.3572,0.48832,0.614683485,-0.62560875,-0.494322465
1764433956.9382775,-0.09156,3.3572,0.48832,0.614683485,-0.62560875,-0.494322465
1764433956.939279,-0.09156,3.3572,0.48832,0.614683485,-0.62560875,-0.494322465
1764433956.980074,-0.09156,3.3572,0.48832,0.614683485,-0.62560875,-0.494322465
1764433956.980074,-0.09156,3.3572,0.48832,0.614683485,-0.62560875,-0.494322465
1764433956.980074,-0.09156,3.3572,0.48832,0.614683485,-0.62560875,-0.494322465
1764433956.980074,-0.09156,3.3572,0.48832,0.614683485,-0.62560875,-0.494322465
1764433956.980074,-0.3509799999999999,3.78448,0.74774,0.61437831,-0.6255477150000001,-0.49474971
1764433956.980074,-0.3509799999999999,3.78448,0.74774,0.61437831,-0.6255477150000001,-0.49474971
1764433956.980074,-0.3509799999999999,3.78448,0.74774,0.61437831,-0.6255477150000001,-0.49474971
1764433956.980074,-0.3509799999999999,3.78448,0.74774,0.61437831,-0.6255477150000001,-0.49474971
1764433956.980074,-0.3509799999999999,3.78448,0.74774,0.61437831,-0.6255477150000001,-0.49474971
1764433956.9806082,-0.3509799999999999,3.78448,0.74774,0.61437831,-0.6255477150000001,-0.49474971
1764433956.9806082,-0.3509799999999999,3.78448,0.74774,0.61437831,-0.6255477150000001,-0.49474971
1764433956.9806082,-0.3509799999999999,3.78448,0.74774,0.61437831,-0.6255477150000001,-0.49474971
1764433956.9806082,-0.3509799999999999,3.78448,0.74774,0.61437831,-0.6255477150000001,-0.49474971
1764433956.9806082,-0.3509799999999999,3.78448,0.74774,0.61437831,-0.6255477150000001,-0.49474971
1764433956.9806082,-0.8392999999999999,3.60136,0.6409199999999999,0.613340715,-0.62560875,-0.494566605
1764433956.9806082,-0.8392999999999999,3.60136,0.6409199999999999,0.613340715,-0.62560875,-0.494566605
1764433956.9806082,-0.8392999999999999,3.60136,0.6409199999999999,0.613340715,-0.62560875,-0.494566605
1764433956.9806082,-0.8392999999999999,3.60136,0.6409199999999999,0.613340715,-0.62560875,-0.494566605
1764433956.9806082,-0.8392999999999999,3.60136,0.6409199999999999,0.613340715,-0.62560875,-0.494566605
1764433956.9806082,-0.8392999999999999,3.60136,0.6409199999999999,0.613340715,-0.62560875,-0.494566605
1764433956.9806082,-0.8392999999999999,3.60136,0.6409199999999999,0.613340715,-0.62560875,-0.494566605
1764433956.9806082,-0.8392999999999999,3.60136,0.6409199999999999,0.613340715,-0.62560875,-0.494566605
1764433956.9806082,-0.8392999999999999,3.60136,0.6409199999999999,0.613340715,-0.62560875,-0.494566605
1764433956.9806082,-0.8392999999999999,3.60136,0.6409199999999999,0.613340715,-0.62560875,-0.494566605
1764433957.0236175,-0.50358,3.69292,0.10682,0.614317275,-0.626035995,-0.494078325
1764433957.0236175,-0.50358,3.69292,0.10682,0.614317275,-0.626035995,-0.494078325
1764433957.0236175,-0.50358,3.69292,0.10682,0.614317275,-0.626035995,-0.494078325
1764433957.0236175,-0.50358,3.69292,0.10682,0.614317275,-0.626035995,-0.494078325
1764433957.0236175,-0.50358,3.69292,0.10682,0.614317275,-0.626035995,-0.494078325
1764433957.0246358,-0.50358,3.69292,0.10682,0.614317275,-0.626035995,-0.494078325
1764433957.0246358,-0.50358,3.69292,0.10682,0.614317275,-0.626035995,-0.494078325
1764433957.0246358,-0.50358,3.69292,0.10682,0.614317275,-0.626035995,-0.494078325
1764433957.0246358,-0.50358,3.69292,0.10682,0.614317275,-0.626035995,-0.494078325
1764433957.0246358,-0.50358,3.69292,0.10682,0.614317275,-0.626035995,-0.494078325
1764433957.0246358,-0.6409199999999999,3.4335,1.11398,0.614927625,-0.62524254,-0.49401729
1764433957.0246358,-0.6409199999999999,3.4335,1.11398,0.614927625,-0.62524254,-0.49401729
1764433957.0246358,-0.6409199999999999,3.4335,1.11398,0.614927625,-0.62524254,-0.49401729
1764433957.0246358,-0.6409199999999999,3.4335,1.11398,0.614927625,-0.62524254,-0.49401729
1764433957.0246358,-0.6409199999999999,3.4335,1.11398,0.614927625,-0.62524254,-0.49401729
1764433957.0246358,-0.6409199999999999,3.4335,1.11398,0.614927625,-0.62524254,-0.49401729
1764433957.0246358,-0.6409199999999999,3.4335,1.11398,0.614927625,-0.62524254,-0.49401729
1764433957.0246358,-0.6409199999999999,3.4335,1.11398,0.614927625,-0.62524254,-0.49401729
1764433957.0246358,-0.6409199999999999,3.4335,1.11398,0.614927625,-0.62524254,-0.49401729
1764433957.0246358,-0.6409199999999999,3.4335,1.11398,0.614927625,-0.62524254,-0.49401729
1764433957.071083,-0.77826,3.69292,0.6714399999999999,0.614683485,-0.62524254,-0.493590045
1764433957.071083,-0.77826,3.69292,0.6714399999999999,0.614683485,-0.62524254,-0.493590045
1764433957.071083,-0.77826,3.69292,0.6714399999999999,0.614683485,-0.62524254,-0.493590045
1764433957.071083,-0.77826,3.69292,0.6714399999999999,0.614683485,-0.62524254,-0.493590045
1764433957.071083,-0.77826,3.69292,0.6714399999999999,0.614683485,-0.62524254,-0.493590045
1764433957.071083,-0.77826,3.69292,0.6714399999999999,0.614683485,-0.62524254,-0.493590045
1764433957.071083,-0.77826,3.69292,0.6714399999999999,0.614683485,-0.62524254,-0.493590045
1764433957.071083,-0.77826,3.69292,0.6714399999999999,0.614683485,-0.62524254,-0.493590045
1764433957.071083,-0.77826,3.69292,0.6714399999999999,0.614683485,-0.62524254,-0.493590045
1764433957.071083,-0.77826,3.69292,0.6714399999999999,0.614683485,-0.62524254,-0.493590045
1764433957.071083,-0.82404,3.40298,0.4578,0.61474452,-0.6255477150000001,-0.49389522
1764433957.071083,-0.82404,3.40298,0.4578,0.61474452,-0.6255477150000001,-0.49389522
1764433957.071083,-0.82404,3.40298,0.4578,0.61474452,-0.6255477150000001,-0.49389522
1764433957.0720968,-0.82404,3.40298,0.4578,0.61474452,-0.6255477150000001,-0.49389522
1764433957.0720968,-0.82404,3.40298,0.4578,0.61474452,-0.6255477150000001,-0.49389522
1764433957.0720968,-0.82404,3.40298,0.4578,0.61474452,-0.6255477150000001,-0.49389522
1764433957.0720968,-0.82404,3.40298,0.4578,0.61474452,-0.6255477150000001,-0.49389522
1764433957.0720968,-0.82404,3.40298,0.4578,0.61474452,-0.6255477150000001,-0.49389522
1764433957.0720968,-0.82404,3.40298,0.4578,0.61474452,-0.6255477150000001,-0.49389522
1764433957.0720968,-0.82404,3.40298,0.4578,0.61474452,-0.6255477150000001,-0.49389522
1764433957.0720968,-0.51884,3.69292,0.50358,0.6150496950000001,-0.625425645,-0.49413936
1764433957.0720968,-0.51884,3.69292,0.50358,0.6150496950000001,-0.625425645,-0.49413936
1764433957.0720968,-0.51884,3.69292,0.50358,0.6150496950000001,-0.625425645,-0.49413936
1764433957.0720968,-0.51884,3.69292,0.50358,0.6150496950000001,-0.625425645,-0.49413936
1764433957.1145756,-0.51884,3.69292,0.50358,0.6150496950000001,-0.625425645,-0.49413936
1764433957.1145756,-0.51884,3.69292,0.50358,0.6150496950000001,-0.625425645,-0.49413936
1764433957.1145756,-0.51884,3.69292,0.50358,0.6150496950000001,-0.625425645,-0.49413936
1764433957.1145756,-0.51884,3.69292,0.50358,0.6150496950000001,-0.625425645,-0.49413936
1764433957.1145756,-0.51884,3.69292,0.50358,0.6150496950000001,-0.625425645,-0.49413936
1764433957.1145756,-0.51884,3.69292,0.50358,0.6150496950000001,-0.625425645,-0.49413936
1764433957.1145756,-0.71722,4.02864,0.36624,0.6150496950000001,-0.6255477150000001,-0.494322465
1764433957.1145756,-0.71722,4.02864,0.36624,0.6150496950000001,-0.6255477150000001,-0.494322465
1764433957.1145756,-0.71722,4.02864,0.36624,0.6150496950000001,-0.6255477150000001,-0.494322465
1764433957.1145756,-0.71722,4.02864,0.36624,0.6150496950000001,-0.6255477150000001,-0.494322465
1764433957.1145756,-0.71722,4.02864,0.36624,0.6150496950000001,-0.6255477150000001,-0.494322465
1764433957.1145756,-0.71722,4.02864,0.36624,0.6150496950000001,-0.6255477150000001,-0.494322465
1764433957.1145756,-0.71722,4.02864,0.36624,0.6150496950000001,-0.6255477150000001,-0.494322465
1764433957.1145756,-0.71722,4.02864,0.36624,0.6150496950000001,-0.6255477150000001,-0.494322465
1764433957.1145756,-0.71722,4.02864,0.36624,0.6150496950000001,-0.6255477150000001,-0.494322465
1764433957.1145756,-0.71722,4.02864,0.36624,0.6150496950000001,-0.6255477150000001,-0.494322465
1764433957.1145756,-0.8698199999999999,4.07442,0.41202,0.6150496950000001,-0.624937365,-0.49487178
1764433957.1145756,-0.8698199999999999,4.07442,0.41202,0.6150496950000001,-0.624937365,-0.49487178
1764433957.1145756,-0.8698199999999999,4.07442,0.41202,0.6150496950000001,-0.624937365,-0.49487178
1764433957.1145756,-0.8698199999999999,4.07442,0.41202,0.6150496950000001,-0.624937365,-0.49487178
1764433957.1145756,-0.8698199999999999,4.07442,0.41202,0.6150496950000001,-0.624937365,-0.49487178
1764433957.1145756,-0.8698199999999999,4.07442,0.41202,0.6150496950000001,-0.624937365,-0.49487178
1764433957.1145756,-0.8698199999999999,4.07442,0.41202,0.6150496950000001,-0.624937365,-0.49487178
1764433957.1145756,-0.8698199999999999,4.07442,0.41202,0.6150496950000001,-0.624937365,-0.49487178
1764433957.1626558,-0.8698199999999999,4.07442,0.41202,0.6150496950000001,-0.624937365,-0.49487178
1764433957.1626558,-0.8698199999999999,4.07442,0.41202,0.6150496950000001,-0.624937365,-0.49487178
1764433957.1626558,-0.48832,3.79974,0.57988,0.61511073,-0.62475426,-0.494932815
1764433957.1626558,-0.48832,3.79974,0.57988,0.61511073,-0.62475426,-0.494932815
1764433957.1626558,-0.48832,3.79974,0.57988,0.61511073,-0.62475426,-0.494932815
1764433957.1626558,-0.48832,3.79974,0.57988,0.61511073,-0.62475426,-0.494932815
1764433957.1626558,-0.48832,3.79974,0.57988,0.61511073,-0.62475426,-0.494932815
1764433957.1626558,-0.48832,3.79974,0.57988,0.61511073,-0.62475426,-0.494932815
1764433957.1626558,-0.48832,3.79974,0.57988,0.61511073,-0.62475426,-0.494932815
1764433957.163651,-0.48832,3.79974,0.57988,0.61511073,-0.62475426,-0.494932815
1764433957.163651,-0.48832,3.79974,0.57988,0.61511073,-0.62475426,-0.494932815
1764433957.163651,-0.48832,3.79974,0.57988,0.61511073,-0.62475426,-0.494932815
1764433957.163651,-0.62566,3.60136,0.77826,0.615415905,-0.624815295,-0.49548213
1764433957.163651,-0.62566,3.60136,0.77826,0.615415905,-0.624815295,-0.49548213
1764433957.163651,-0.62566,3.60136,0.77826,0.615415905,-0.624815295,-0.49548213
1764433957.163651,-0.62566,3.60136,0.77826,0.615415905,-0.624815295,-0.49548213
1764433957.163651,-0.62566,3.60136,0.77826,0.615415905,-0.624815295,-0.49548213
1764433957.163651,-0.62566,3.60136,0.77826,0.615415905,-0.624815295,-0.49548213
1764433957.163651,-0.62566,3.60136,0.77826,0.615415905,-0.624815295,-0.49548213
1764433957.163651,-0.62566,3.60136,0.77826,0.615415905,-0.624815295,-0.49548213
1764433957.163651,-0.62566,3.60136,0.77826,0.615415905,-0.624815295,-0.49548213
1764433957.163651,-0.62566,3.60136,0.77826,0.615415905,-0.624815295,-0.49548213
1764433957.163651,-0.73248,3.61662,0.48832,0.615171765,-0.624937365,-0.49487178
1764433957.163651,-0.73248,3.61662,0.48832,0.615171765,-0.624937365,-0.49487178
1764433957.2115948,-0.73248,3.61662,0.48832,0.615171765,-0.624937365,-0.49487178
1764433957.2115948,-0.73248,3.61662,0.48832,0.615171765,-0.624937365,-0.49487178
1764433957.2115948,-0.73248,3.61662,0.48832,0.615171765,-0.624937365,-0.49487178
1764433957.212595,-0.73248,3.61662,0.48832,0.615171765,-0.624937365,-0.49487178
1764433957.212595,-0.73248,3.61662,0.48832,0.615171765,-0.624937365,-0.49487178
1764433957.212595,-0.73248,3.61662,0.48832,0.615171765,-0.624937365,-0.49487178
1764433957.212595,-0.73248,3.61662,0.48832,0.615171765,-0.624937365,-0.49487178
1764433957.212595,-0.73248,3.61662,0.48832,0.615171765,-0.624937365,-0.49487178
1764433957.212595,-0.763,3.87604,0.3815,0.61486659,-0.62487633,-0.494200395
1764433957.212595,-0.763,3.87604,0.3815,0.61486659,-0.62487633,-0.494200395
1764433957.212595,-0.763,3.87604,0.3815,0.61486659,-0.62487633,-0.494200395
1764433957.212595,-0.763,3.87604,0.3815,0.61486659,-0.62487633,-0.494200395
1764433957.212595,-0.763,3.87604,0.3815,0.61486659,-0.62487633,-0.494200395
1764433957.212595,-0.763,3.87604,0.3815,0.61486659,-0.62487633,-0.494200395
1764433957.212595,-0.763,3.87604,0.3815,0.61486659,-0.62487633,-0.494200395
1764433957.212595,-0.763,3.87604,0.3815,0.61486659,-0.62487633,-0.494200395
1764433957.212595,-0.763,3.87604,0.3815,0.61486659,-0.62487633,-0.494200395
1764433957.212595,-0.763,3.87604,0.3815,0.61486659,-0.62487633,-0.494200395
1764433957.212595,-0.79352,3.83026,0.74774,0.614439345,-0.6255477150000001,-0.49377315
1764433957.212595,-0.79352,3.83026,0.74774,0.614439345,-0.6255477150000001,-0.49377315
1764433957.212595,-0.79352,3.83026,0.74774,0.614439345,-0.6255477150000001,-0.49377315
1764433957.212595,-0.79352,3.83026,0.74774,0.614439345,-0.6255477150000001,-0.49377315
1764433957.2576869,-0.79352,3.83026,0.74774,0.614439345,-0.6255477150000001,-0.49377315
1764433957.2576869,-0.79352,3.83026,0.74774,0.614439345,-0.6255477150000001,-0.49377315
1764433957.2587025,-0.79352,3.83026,0.74774,0.614439345,-0.6255477150000001,-0.49377315
1764433957.2587025,-0.79352,3.83026,0.74774,0.614439345,-0.6255477150000001,-0.49377315
1764433957.2587025,-0.79352,3.83026,0.74774,0.614439345,-0.6255477150000001,-0.49377315
1764433957.2587025,-0.79352,3.83026,0.74774,0.614439345,-0.6255477150000001,-0.49377315
1764433957.2587025,-0.6867,3.75396,0.56462,0.614317275,-0.62573082,-0.493345905
1764433957.2587025,-0.6867,3.75396,0.56462,0.614317275,-0.62573082,-0.493345905
1764433957.2587025,-0.6867,3.75396,0.56462,0.614317275,-0.62573082,-0.493345905
1764433957.2587025,-0.6867,3.75396,0.56462,0.614317275,-0.62573082,-0.493345905
1764433957.2587025,-0.6867,3.75396,0.56462,0.614317275,-0.62573082,-0.493345905
1764433957.2587025,-0.6867,3.75396,0.56462,0.614317275,-0.62573082,-0.493345905
1764433957.2587025,-0.6867,3.75396,0.56462,0.614317275,-0.62573082,-0.493345905
1764433957.2587025,-0.6867,3.75396,0.56462,0.614317275,-0.62573082,-0.493345905
1764433957.2587025,-0.6867,3.75396,0.56462,0.614317275,-0.62573082,-0.493345905
1764433957.2587025,-0.6867,3.75396,0.56462,0.614317275,-0.62573082,-0.493345905
1764433957.2587025,-0.8698199999999999,3.63188,0.21364,0.61462245,-0.62524254,-0.49426143
1764433957.2587025,-0.8698199999999999,3.63188,0.21364,0.61462245,-0.62524254,-0.49426143
1764433957.2587025,-0.8698199999999999,3.63188,0.21364,0.61462245,-0.62524254,-0.49426143
1764433957.2587025,-0.8698199999999999,3.63188,0.21364,0.61462245,-0.62524254,-0.49426143
1764433957.2587025,-0.8698199999999999,3.63188,0.21364,0.61462245,-0.62524254,-0.49426143
1764433957.2587025,-0.8698199999999999,3.63188,0.21364,0.61462245,-0.62524254,-0.49426143
1764433957.2602465,-0.8698199999999999,3.63188,0.21364,0.61462245,-0.62524254,-0.49426143
1764433957.2602465,-0.8698199999999999,3.63188,0.21364,0.61462245,-0.62524254,-0.49426143
1764433957.3031206,-0.8698199999999999,3.63188,0.21364,0.61462245,-0.62524254,-0.49426143
1764433957.3031206,-0.8698199999999999,3.63188,0.21364,0.61462245,-0.62524254,-0.49426143
1764433957.3031206,-0.88508,3.2046,0.73248,0.61474452,-0.625181505,-0.495299025
1764433957.3031206,-0.88508,3.2046,0.73248,0.61474452,-0.625181505,-0.495299025
1764433957.3031206,-0.88508,3.2046,0.73248,0.61474452,-0.625181505,-0.495299025
1764433957.3031206,-0.88508,3.2046,0.73248,0.61474452,-0.625181505,-0.495299025
1764433957.3031206,-0.88508,3.2046,0.73248,0.61474452,-0.625181505,-0.495299025
1764433957.3031206,-0.88508,3.2046,0.73248,0.61474452,-0.625181505,-0.495299025
1764433957.3031206,-0.88508,3.2046,0.73248,0.61474452,-0.625181505,-0.495299025
1764433957.3031206,-0.88508,3.2046,0.73248,0.61474452,-0.625181505,-0.495299025
1764433957.3031206,-0.88508,3.2046,0.73248,0.61474452,-0.625181505,-0.495299025
1764433957.3031206,-0.88508,3.2046,0.73248,0.61474452,-0.625181505,-0.495299025
1764433957.3031206,-0.8087799999999999,3.2046,0.2289,0.61437831,-0.625669785,-0.49487178
1764433957.3031206,-0.8087799999999999,3.2046,0.2289,0.61437831,-0.625669785,-0.49487178
1764433957.3031206,-0.8087799999999999,3.2046,0.2289,0.61437831,-0.625669785,-0.49487178
1764433957.3031206,-0.8087799999999999,3.2046,0.2289,0.61437831,-0.625669785,-0.49487178
1764433957.3031206,-0.8087799999999999,3.2046,0.2289,0.61437831,-0.625669785,-0.49487178
1764433957.3031206,-0.8087799999999999,3.2046,0.2289,0.61437831,-0.625669785,-0.49487178
1764433957.3041978,-0.8087799999999999,3.2046,0.2289,0.61437831,-0.625669785,-0.49487178
1764433957.3041978,-0.8087799999999999,3.2046,0.2289,0.61437831,-0.625669785,-0.49487178
1764433957.3041978,-0.8087799999999999,3.2046,0.2289,0.61437831,-0.625669785,-0.49487178
1764433957.3041978,-0.8087799999999999,3.2046,0.2289,0.61437831,-0.625669785,-0.49487178
1764433957.3505778,-0.82404,3.2809,0.62566,0.613584855,-0.625425645,-0.49523799
1764433957.3505778,-0.82404,3.2809,0.62566,0.613584855,-0.625425645,-0.49523799
1764433957.3505778,-0.82404,3.2809,0.62566,0.613584855,-0.625425645,-0.49523799
1764433957.3505778,-0.82404,3.2809,0.62566,0.613584855,-0.625425645,-0.49523799
1764433957.3505778,-0.82404,3.2809,0.62566,0.613584855,-0.625425645,-0.49523799
1764433957.3505778,-0.82404,3.2809,0.62566,0.613584855,-0.625425645,-0.49523799
1764433957.351087,-0.82404,3.2809,0.62566,0.613584855,-0.625425645,-0.49523799
1764433957.351087,-0.82404,3.2809,0.62566,0.613584855,-0.625425645,-0.49523799
1764433957.351087,-0.82404,3.2809,0.62566,0.613584855,-0.625425645,-0.49523799
1764433957.351087,-0.82404,3.2809,0.62566,0.613584855,-0.625425645,-0.49523799
1764433957.351087,-0.9003399999999999,3.815,0.763,0.614073135,-0.62524254,-0.49487178
1764433957.351087,-0.9003399999999999,3.815,0.763,0.614073135,-0.62524254,-0.49487178
1764433957.351087,-0.9003399999999999,3.815,0.763,0.614073135,-0.62524254,-0.49487178
1764433957.351087,-0.9003399999999999,3.815,0.763,0.614073135,-0.62524254,-0.49487178
1764433957.351087,-0.9003399999999999,3.815,0.763,0.614073135,-0.62524254,-0.49487178
1764433957.351087,-0.9003399999999999,3.815,0.763,0.614073135,-0.62524254,-0.49487178
1764433957.351087,-0.9003399999999999,3.815,0.763,0.614073135,-0.62524254,-0.49487178
1764433957.351087,-0.9003399999999999,3.815,0.763,0.614073135,-0.62524254,-0.49487178
1764433957.351087,-0.9003399999999999,3.815,0.763,0.614073135,-0.62524254,-0.49487178
1764433957.351087,-0.9003399999999999,3.815,0.763,0.614073135,-0.62524254,-0.49487178
1764433957.351087,-0.9156,3.70818,0.6714399999999999,0.61498866,-0.625059435,-0.494566605
1764433957.351087,-0.9156,3.70818,0.6714399999999999,0.61498866,-0.625059435,-0.494566605
1764433957.351087,-0.9156,3.70818,0.6714399999999999,0.61498866,-0.625059435,-0.494566605
1764433957.351087,-0.9156,3.70818,0.6714399999999999,0.61498866,-0.625059435,-0.494566605
1764433957.394737,-0.9156,3.70818,0.6714399999999999,0.61498866,-0.625059435,-0.494566605
1764433957.394737,-0.9156,3.70818,0.6714399999999999,0.61498866,-0.625059435,-0.494566605
1764433957.394737,-0.9156,3.70818,0.6714399999999999,0.61498866,-0.625059435,-0.494566605
1764433957.394737,-0.9156,3.70818,0.6714399999999999,0.61498866,-0.625059435,-0.494566605
1764433957.394737,-0.9156,3.70818,0.6714399999999999,0.61498866,-0.625059435,-0.494566605
1764433957.394737,-0.9156,3.70818,0.6714399999999999,0.61498866,-0.625059435,-0.494566605
1764433957.394737,-0.6714399999999999,3.64714,0.77826,0.6152328,-0.62536461,-0.49474971
1764433957.394737,-0.6714399999999999,3.64714,0.77826,0.6152328,-0.62536461,-0.49474971
1764433957.394737,-0.6714399999999999,3.64714,0.77826,0.6152328,-0.62536461,-0.49474971
1764433957.3957548,-0.6714399999999999,3.64714,0.77826,0.6152328,-0.62536461,-0.49474971
1764433957.3957548,-0.6714399999999999,3.64714,0.77826,0.6152328,-0.62536461,-0.49474971
1764433957.3957548,-0.6714399999999999,3.64714,0.77826,0.6152328,-0.62536461,-0.49474971
1764433957.3957548,-0.6714399999999999,3.64714,0.77826,0.6152328,-0.62536461,-0.49474971
1764433957.3957548,-0.6714399999999999,3.64714,0.77826,0.6152328,-0.62536461,-0.49474971
1764433957.3957548,-0.6714399999999999,3.64714,0.77826,0.6152328,-0.62536461,-0.49474971
1764433957.3957548,-0.6714399999999999,3.64714,0.77826,0.6152328,-0.62536461,-0.49474971
1764433957.3957548,-0.82404,3.15882,0.65618,0.615171765,-0.62548668,-0.49511592
1764433957.3957548,-0.82404,3.15882,0.65618,0.615171765,-0.62548668,-0.49511592
1764433957.3957548,-0.82404,3.15882,0.65618,0.615171765,-0.62548668,-0.49511592
1764433957.3957548,-0.82404,3.15882,0.65618,0.615171765,-0.62548668,-0.49511592
1764433957.3957548,-0.82404,3.15882,0.65618,0.615171765,-0.62548668,-0.49511592
1764433957.3957548,-0.82404,3.15882,0.65618,0.615171765,-0.62548668,-0.49511592
1764433957.4405203,-0.82404,3.15882,0.65618,0.615171765,-0.62548668,-0.49511592
1764433957.4405203,-0.82404,3.15882,0.65618,0.615171765,-0.62548668,-0.49511592
1764433957.4405203,-0.82404,3.15882,0.65618,0.615171765,-0.62548668,-0.49511592
1764433957.4405203,-0.82404,3.15882,0.65618,0.615171765,-0.62548668,-0.49511592
1764433957.4405203,-0.6103999999999999,3.40298,0.7019599999999999,0.614683485,-0.625669785,-0.49572627
1764433957.4405203,-0.6103999999999999,3.40298,0.7019599999999999,0.614683485,-0.625669785,-0.49572627
1764433957.4405203,-0.6103999999999999,3.40298,0.7019599999999999,0.614683485,-0.625669785,-0.49572627
1764433957.4405203,-0.6103999999999999,3.40298,0.7019599999999999,0.614683485,-0.625669785,-0.49572627
1764433957.4405203,-0.6103999999999999,3.40298,0.7019599999999999,0.614683485,-0.625669785,-0.49572627
1764433957.4405203,-0.6103999999999999,3.40298,0.7019599999999999,0.614683485,-0.625669785,-0.49572627
1764433957.4405203,-0.6103999999999999,3.40298,0.7019599999999999,0.614683485,-0.625669785,-0.49572627
1764433957.4405203,-0.6103999999999999,3.40298,0.7019599999999999,0.614683485,-0.625669785,-0.49572627
1764433957.442284,-0.6103999999999999,3.40298,0.7019599999999999,0.614683485,-0.625669785,-0.49572627
1764433957.442284,-0.6103999999999999,3.40298,0.7019599999999999,0.614683485,-0.625669785,-0.49572627
1764433957.442284,-0.59514,3.25038,0.28994,0.61462245,-0.625669785,-0.495299025
1764433957.442284,-0.59514,3.25038,0.28994,0.61462245,-0.625669785,-0.495299025
1764433957.442284,-0.59514,3.25038,0.28994,0.61462245,-0.625669785,-0.495299025
1764433957.442284,-0.59514,3.25038,0.28994,0.61462245,-0.625669785,-0.495299025
1764433957.442284,-0.59514,3.25038,0.28994,0.61462245,-0.625669785,-0.495299025
1764433957.442284,-0.59514,3.25038,0.28994,0.61462245,-0.625669785,-0.495299025
1764433957.442284,-0.59514,3.25038,0.28994,0.61462245,-0.625669785,-0.495299025
1764433957.442284,-0.59514,3.25038,0.28994,0.61462245,-0.625669785,-0.495299025
1764433957.443529,-0.59514,3.25038,0.28994,0.61462245,-0.625669785,-0.495299025
1764433957.443529,-0.59514,3.25038,0.28994,0.61462245,-0.625669785,-0.495299025
1764433957.4878094,-0.59514,3.7387,0.41202,0.6140121000000001,-0.625913925,-0.494810745
1764433957.4878094,-0.59514,3.7387,0.41202,0.6140121000000001,-0.625913925,-0.494810745
1764433957.4878094,-0.59514,3.7387,0.41202,0.6140121000000001,-0.625913925,-0.494810745
1764433957.4878094,-0.59514,3.7387,0.41202,0.6140121000000001,-0.625913925,-0.494810745
1764433957.4878094,-0.59514,3.7387,0.41202,0.6140121000000001,-0.625913925,-0.494810745
1764433957.4878094,-0.59514,3.7387,0.41202,0.6140121000000001,-0.625913925,-0.494810745
1764433957.4878094,-0.59514,3.7387,0.41202,0.6140121000000001,-0.625913925,-0.494810745
1764433957.4878094,-0.59514,3.7387,0.41202,0.6140121000000001,-0.625913925,-0.494810745
1764433957.4878094,-0.59514,3.7387,0.41202,0.6140121000000001,-0.625913925,-0.494810745
1764433957.4878094,-0.59514,3.7387,0.41202,0.6140121000000001,-0.625913925,-0.494810745
1764433957.4878094,-0.56462,3.92182,0.42728,0.614195205,-0.62573082,-0.494444535
1764433957.4878094,-0.56462,3.92182,0.42728,0.614195205,-0.62573082,-0.494444535
1764433957.4878094,-0.56462,3.92182,0.42728,0.614195205,-0.62573082,-0.494444535
1764433957.4878094,-0.56462,3.92182,0.42728,0.614195205,-0.62573082,-0.494444535
1764433957.4878094,-0.56462,3.92182,0.42728,0.614195205,-0.62573082,-0.494444535
1764433957.4888115,-0.56462,3.92182,0.42728,0.614195205,-0.62573082,-0.494444535
1764433957.4888115,-0.56462,3.92182,0.42728,0.614195205,-0.62573082,-0.494444535
1764433957.4888115,-0.56462,3.92182,0.42728,0.614195205,-0.62573082,-0.494444535
1764433957.4888115,-0.56462,3.92182,0.42728,0.614195205,-0.62573082,-0.494444535
1764433957.4888115,-0.56462,3.92182,0.42728,0.614195205,-0.62573082,-0.494444535
1764433957.4888115,-0.54936,3.83026,0.44254,0.614317275,-0.62536461,-0.49462764
1764433957.4888115,-0.54936,3.83026,0.44254,0.614317275,-0.62536461,-0.49462764
1764433957.5313904,-0.54936,3.83026,0.44254,0.614317275,-0.62536461,-0.49462764
1764433957.5313904,-0.54936,3.83026,0.44254,0.614317275,-0.62536461,-0.49462764
1764433957.5313904,-0.54936,3.83026,0.44254,0.614317275,-0.62536461,-0.49462764
1764433957.5313904,-0.54936,3.83026,0.44254,0.614317275,-0.62536461,-0.49462764
1764433957.5313904,-0.54936,3.83026,0.44254,0.614317275,-0.62536461,-0.49462764
1764433957.5313904,-0.54936,3.83026,0.44254,0.614317275,-0.62536461,-0.49462764
1764433957.5329394,-0.54936,3.83026,0.44254,0.614317275,-0.62536461,-0.49462764
1764433957.5339608,-0.54936,3.83026,0.44254,0.614317275,-0.62536461,-0.49462764
1764433957.5339608,-0.77826,4.08968,0.4578,0.61462245,-0.62438805,-0.49401729
1764433957.5339608,-0.77826,4.08968,0.4578,0.61462245,-0.62438805,-0.49401729
1764433957.5339608,-0.77826,4.08968,0.4578,0.61462245,-0.62438805,-0.49401729
1764433957.5349567,-0.77826,4.08968,0.4578,0.61462245,-0.62438805,-0.49401729
1764433957.5349567,-0.77826,4.08968,0.4578,0.61462245,-0.62438805,-0.49401729
1764433957.5355563,-0.77826,4.08968,0.4578,0.61462245,-0.62438805,-0.49401729
1764433957.5355563,-0.77826,4.08968,0.4578,0.61462245,-0.62438805,-0.49401729
1764433957.5355563,-0.77826,4.08968,0.4578,0.61462245,-0.62438805,-0.49401729
1764433957.5355563,-0.77826,4.08968,0.4578,0.61462245,-0.62438805,-0.49401729
1764433957.5355563,-0.77826,4.08968,0.4578,0.61462245,-0.62438805,-0.49401729
1764433957.536571,-0.763,3.69292,0.6867,0.614317275,-0.62463219,-0.493956255
1764433957.536571,-0.763,3.69292,0.6867,0.614317275,-0.62463219,-0.493956255
1764433957.536571,-0.763,3.69292,0.6867,0.614317275,-0.62463219,-0.493956255
1764433957.536571,-0.763,3.69292,0.6867,0.614317275,-0.62463219,-0.493956255
1764433957.5375648,-0.763,3.69292,0.6867,0.614317275,-0.62463219,-0.493956255
1764433957.5375648,-0.763,3.69292,0.6867,0.614317275,-0.62463219,-0.493956255
1764433957.5784657,-0.763,3.69292,0.6867,0.614317275,-0.62463219,-0.493956255
1764433957.5784657,-0.763,3.69292,0.6867,0.614317275,-0.62463219,-0.493956255
1764433957.5784657,-0.763,3.69292,0.6867,0.614317275,-0.62463219,-0.493956255
1764433957.5784657,-0.763,3.69292,0.6867,0.614317275,-0.62463219,-0.493956255
1764433957.579465,-0.6714399999999999,3.92182,0.93086,0.61474452,-0.625303575,-0.494200395
1764433957.579465,-0.6714399999999999,3.92182,0.93086,0.61474452,-0.625303575,-0.494200395
1764433957.579465,-0.6714399999999999,3.92182,0.93086,0.61474452,-0.625303575,-0.494200395
1764433957.579465,-0.6714399999999999,3.92182,0.93086,0.61474452,-0.625303575,-0.494200395
1764433957.579465,-0.6714399999999999,3.92182,0.93086,0.61474452,-0.625303575,-0.494200395
1764433957.579465,-0.6714399999999999,3.92182,0.93086,0.61474452,-0.625303575,-0.494200395
1764433957.579465,-0.6714399999999999,3.92182,0.93086,0.61474452,-0.625303575,-0.494200395
1764433957.579465,-0.6714399999999999,3.92182,0.93086,0.61474452,-0.625303575,-0.494200395
1764433957.579465,-0.6714399999999999,3.92182,0.93086,0.61474452,-0.625303575,-0.494200395
1764433957.579465,-0.6714399999999999,3.92182,0.93086,0.61474452,-0.625303575,-0.494200395
1764433957.579465,-0.65618,3.86078,0.50358,0.615293835,-0.625059435,-0.49462764
1764433957.579465,-0.65618,3.86078,0.50358,0.615293835,-0.625059435,-0.49462764
1764433957.579465,-0.65618,3.86078,0.50358,0.615293835,-0.625059435,-0.49462764
1764433957.579465,-0.65618,3.86078,0.50358,0.615293835,-0.625059435,-0.49462764
1764433957.5804636,-0.65618,3.86078,0.50358,0.615293835,-0.625059435,-0.49462764
1764433957.5804636,-0.65618,3.86078,0.50358,0.615293835,-0.625059435,-0.49462764
1764433957.5804636,-0.65618,3.86078,0.50358,0.615293835,-0.625059435,-0.49462764
1764433957.5804636,-0.65618,3.86078,0.50358,0.615293835,-0.625059435,-0.49462764
1764433957.6251566,-0.65618,3.86078,0.50358,0.615293835,-0.625059435,-0.49462764
1764433957.6251566,-0.65618,3.86078,0.50358,0.615293835,-0.625059435,-0.49462764
1764433957.6251566,-0.6409199999999999,4.02864,0.48832,0.614683485,-0.62585289,-0.49413936
1764433957.6251566,-0.6409199999999999,4.02864,0.48832,0.614683485,-0.62585289,-0.49413936
1764433957.6251566,-0.6409199999999999,4.02864,0.48832,0.614683485,-0.62585289,-0.49413936
1764433957.6251566,-0.6409199999999999,4.02864,0.48832,0.614683485,-0.62585289,-0.49413936
1764433957.6251566,-0.6409199999999999,4.02864,0.48832,0.614683485,-0.62585289,-0.49413936
1764433957.6251566,-0.6409199999999999,4.02864,0.48832,0.614683485,-0.62585289,-0.49413936
1764433957.6251566,-0.6409199999999999,4.02864,0.48832,0.614683485,-0.62585289,-0.49413936
1764433957.6251566,-0.6409199999999999,4.02864,0.48832,0.614683485,-0.62585289,-0.49413936
1764433957.6251566,-0.6409199999999999,4.02864,0.48832,0.614683485,-0.62585289,-0.49413936
1764433957.6251566,-0.6409199999999999,4.02864,0.48832,0.614683485,-0.62585289,-0.49413936
1764433957.6251566,-0.39676,3.84552,0.77826,0.614683485,-0.62597496,-0.49377315
1764433957.6251566,-0.39676,3.84552,0.77826,0.614683485,-0.62597496,-0.49377315
1764433957.6251566,-0.39676,3.84552,0.77826,0.614683485,-0.62597496,-0.49377315
1764433957.6251566,-0.39676,3.84552,0.77826,0.614683485,-0.62597496,-0.49377315
1764433957.6251566,-0.39676,3.84552,0.77826,0.614683485,-0.62597496,-0.49377315
1764433957.6251566,-0.39676,3.84552,0.77826,0.614683485,-0.62597496,-0.49377315
1764433957.6251566,-0.39676,3.84552,0.77826,0.614683485,-0.62597496,-0.49377315
1764433957.6251566,-0.39676,3.84552,0.77826,0.614683485,-0.62597496,-0.49377315
1764433957.6251566,-0.39676,3.84552,0.77826,0.614683485,-0.62597496,-0.49377315
1764433957.6261697,-0.39676,3.84552,0.77826,0.614683485,-0.62597496,-0.49377315
1764433957.6261697,-0.79352,3.57084,0.3051999999999999,0.61498866,-0.625669785,-0.49413936
1764433957.6261697,-0.79352,3.57084,0.3051999999999999,0.61498866,-0.625669785,-0.49413936
1764433957.6714995,-0.79352,3.57084,0.3051999999999999,0.61498866,-0.625669785,-0.49413936
1764433957.6714995,-0.79352,3.57084,0.3051999999999999,0.61498866,-0.625669785,-0.49413936
1764433957.6714995,-0.79352,3.57084,0.3051999999999999,0.61498866,-0.625669785,-0.49413936
1764433957.6714995,-0.79352,3.57084,0.3051999999999999,0.61498866,-0.625669785,-0.49413936
1764433957.6714995,-0.79352,3.57084,0.3051999999999999,0.61498866,-0.625669785,-0.49413936
1764433957.6714995,-0.79352,3.57084,0.3051999999999999,0.61498866,-0.625669785,-0.49413936
1764433957.6714995,-0.79352,3.57084,0.3051999999999999,0.61498866,-0.625669785,-0.49413936
1764433957.6714995,-0.79352,3.57084,0.3051999999999999,0.61498866,-0.625669785,-0.49413936
1764433957.6724975,-0.85456,3.5098,0.44254,0.615537975,-0.62548668,-0.493956255
1764433957.6724975,-0.85456,3.5098,0.44254,0.615537975,-0.62548668,-0.493956255
1764433957.6724975,-0.85456,3.5098,0.44254,0.615537975,-0.62548668,-0.493956255
1764433957.6724975,-0.85456,3.5098,0.44254,0.615537975,-0.62548668,-0.493956255
1764433957.6724975,-0.85456,3.5098,0.44254,0.615537975,-0.62548668,-0.493956255
1764433957.6724975,-0.85456,3.5098,0.44254,0.615537975,-0.62548668,-0.493956255
1764433957.6724975,-0.85456,3.5098,0.44254,0.615537975,-0.62548668,-0.493956255
1764433957.6724975,-0.85456,3.5098,0.44254,0.615537975,-0.62548668,-0.493956255
1764433957.6724975,-0.85456,3.5098,0.44254,0.615537975,-0.62548668,-0.493956255
1764433957.6724975,-0.85456,3.5098,0.44254,0.615537975,-0.62548668,-0.493956255
1764433957.6724975,-0.8698199999999999,3.3572,0.4578,0.61572108,-0.62536461,-0.4943835
1764433957.6724975,-0.8698199999999999,3.3572,0.4578,0.61572108,-0.62536461,-0.4943835
1764433957.6724975,-0.8698199999999999,3.3572,0.4578,0.61572108,-0.62536461,-0.4943835
1764433957.6724975,-0.8698199999999999,3.3572,0.4578,0.61572108,-0.62536461,-0.4943835
1764433957.7168064,-0.8698199999999999,3.3572,0.4578,0.61572108,-0.62536461,-0.4943835
1764433957.7168064,-0.8698199999999999,3.3572,0.4578,0.61572108,-0.62536461,-0.4943835
1764433957.7168064,-0.8698199999999999,3.3572,0.4578,0.61572108,-0.62536461,-0.4943835
1764433957.7168064,-0.8698199999999999,3.3572,0.4578,0.61572108,-0.62536461,-0.4943835
1764433957.71735,-0.8698199999999999,3.3572,0.4578,0.61572108,-0.62536461,-0.4943835
1764433957.71735,-0.8698199999999999,3.3572,0.4578,0.61572108,-0.62536461,-0.4943835
1764433957.71735,-1.03768,3.34194,0.41202,0.61584315,-0.625303575,-0.49426143
1764433957.71735,-1.03768,3.34194,0.41202,0.61584315,-0.625303575,-0.49426143
1764433957.71735,-1.03768,3.34194,0.41202,0.61584315,-0.625303575,-0.49426143
1764433957.71735,-1.03768,3.34194,0.41202,0.61584315,-0.625303575,-0.49426143
1764433957.71735,-1.03768,3.34194,0.41202,0.61584315,-0.625303575,-0.49426143
1764433957.71735,-1.03768,3.34194,0.41202,0.61584315,-0.625303575,-0.49426143
1764433957.71735,-1.03768,3.34194,0.41202,0.61584315,-0.625303575,-0.49426143
1764433957.71735,-1.03768,3.34194,0.41202,0.61584315,-0.625303575,-0.49426143
1764433957.71735,-1.03768,3.34194,0.41202,0.61584315,-0.625303575,-0.49426143
1764433957.71735,-1.03768,3.34194,0.41202,0.61584315,-0.625303575,-0.49426143
1764433957.71735,-0.9156,3.8913,1.05294,0.615660045,-0.625181505,-0.49401729
1764433957.71735,-0.9156,3.8913,1.05294,0.615660045,-0.625181505,-0.49401729
1764433957.71735,-0.9156,3.8913,1.05294,0.615660045,-0.625181505,-0.49401729
1764433957.71735,-0.9156,3.8913,1.05294,0.615660045,-0.625181505,-0.49401729
1764433957.71735,-0.9156,3.8913,1.05294,0.615660045,-0.625181505,-0.49401729
1764433957.71735,-0.9156,3.8913,1.05294,0.615660045,-0.625181505,-0.49401729
1764433957.71735,-0.9156,3.8913,1.05294,0.615660045,-0.625181505,-0.49401729
1764433957.71735,-0.9156,3.8913,1.05294,0.615660045,-0.625181505,-0.49401729
1764433957.7607143,-0.9156,3.8913,1.05294,0.615660045,-0.625181505,-0.49401729
1764433957.7607143,-0.9156,3.8913,1.05294,0.615660045,-0.625181505,-0.49401729
1764433957.7607143,-0.79352,3.815,0.41202,0.615171765,-0.62597496,-0.49340694
1764433957.7607143,-0.79352,3.815,0.41202,0.615171765,-0.62597496,-0.49340694
1764433957.7607143,-0.79352,3.815,0.41202,0.615171765,-0.62597496,-0.49340694
1764433957.7607143,-0.79352,3.815,0.41202,0.615171765,-0.62597496,-0.49340694
1764433957.7607143,-0.79352,3.815,0.41202,0.615171765,-0.62597496,-0.49340694
1764433957.7607143,-0.79352,3.815,0.41202,0.615171765,-0.62597496,-0.49340694
1764433957.7607143,-0.79352,3.815,0.41202,0.615171765,-0.62597496,-0.49340694
1764433957.7607143,-0.79352,3.815,0.41202,0.615171765,-0.62597496,-0.49340694
1764433957.7607143,-0.79352,3.815,0.41202,0.615171765,-0.62597496,-0.49340694
1764433957.7607143,-0.79352,3.815,0.41202,0.615171765,-0.62597496,-0.49340694
1764433957.7607143,-0.57988,4.01338,0.7019599999999999,0.615415905,-0.62573082,-0.494200395
1764433957.7607143,-0.57988,4.01338,0.7019599999999999,0.615415905,-0.62573082,-0.494200395
1764433957.7607143,-0.57988,4.01338,0.7019599999999999,0.615415905,-0.62573082,-0.494200395
1764433957.7607143,-0.57988,4.01338,0.7019599999999999,0.615415905,-0.62573082,-0.494200395
1764433957.7607143,-0.57988,4.01338,0.7019599999999999,0.615415905,-0.62573082,-0.494200395
1764433957.7607143,-0.57988,4.01338,0.7019599999999999,0.615415905,-0.62573082,-0.494200395
1764433957.7607143,-0.57988,4.01338,0.7019599999999999,0.615415905,-0.62573082,-0.494200395
1764433957.7607143,-0.57988,4.01338,0.7019599999999999,0.615415905,-0.62573082,-0.494200395
1764433957.7607143,-0.57988,4.01338,0.7019599999999999,0.615415905,-0.62573082,-0.494200395
1764433957.7607143,-0.57988,4.01338,0.7019599999999999,0.615415905,-0.62573082,-0.494200395
1764433957.8086598,-0.85456,3.95234,0.7019599999999999,0.61547694,-0.625059435,-0.494566605
1764433957.8086598,-0.85456,3.95234,0.7019599999999999,0.61547694,-0.625059435,-0.494566605
1764433957.8086598,-0.85456,3.95234,0.7019599999999999,0.61547694,-0.625059435,-0.494566605
1764433957.8086598,-0.85456,3.95234,0.7019599999999999,0.61547694,-0.625059435,-0.494566605
1764433957.8091805,-0.85456,3.95234,0.7019599999999999,0.61547694,-0.625059435,-0.494566605
1764433957.8091805,-0.85456,3.95234,0.7019599999999999,0.61547694,-0.625059435,-0.494566605
1764433957.8091805,-0.85456,3.95234,0.7019599999999999,0.61547694,-0.625059435,-0.494566605
1764433957.8091805,-0.85456,3.95234,0.7019599999999999,0.61547694,-0.625059435,-0.494566605
1764433957.8091805,-0.85456,3.95234,0.7019599999999999,0.61547694,-0.625059435,-0.494566605
1764433957.8091805,-0.85456,3.95234,0.7019599999999999,0.61547694,-0.625059435,-0.494566605
1764433957.8091805,-0.77826,3.31142,0.6714399999999999,0.615415905,-0.62475426,-0.494200395
1764433957.8091805,-0.77826,3.31142,0.6714399999999999,0.615415905,-0.62475426,-0.494200395
1764433957.8091805,-0.77826,3.31142,0.6714399999999999,0.615415905,-0.62475426,-0.494200395
1764433957.8091805,-0.77826,3.31142,0.6714399999999999,0.615415905,-0.62475426,-0.494200395
1764433957.8091805,-0.77826,3.31142,0.6714399999999999,0.615415905,-0.62475426,-0.494200395
1764433957.8091805,-0.77826,3.31142,0.6714399999999999,0.615415905,-0.62475426,-0.494200395
1764433957.8091805,-0.77826,3.31142,0.6714399999999999,0.615415905,-0.62475426,-0.494200395
1764433957.8091805,-0.77826,3.31142,0.6714399999999999,0.615415905,-0.62475426,-0.494200395
1764433957.8091805,-0.77826,3.31142,0.6714399999999999,0.615415905,-0.62475426,-0.494200395
1764433957.8091805,-0.77826,3.31142,0.6714399999999999,0.615415905,-0.62475426,-0.494200395
1764433957.8091805,-0.88508,3.4335,0.47306,0.61425624,-0.625303575,-0.49413936
1764433957.8091805,-0.88508,3.4335,0.47306,0.61425624,-0.625303575,-0.49413936
1764433957.853099,-0.88508,3.4335,0.47306,0.61425624,-0.625303575,-0.49413936
1764433957.8536322,-0.88508,3.4335,0.47306,0.61425624,-0.625303575,-0.49413936
1764433957.8536322,-0.88508,3.4335,0.47306,0.61425624,-0.625303575,-0.49413936
1764433957.8536322,-0.88508,3.4335,0.47306,0.61425624,-0.625303575,-0.49413936
1764433957.8536322,-0.88508,3.4335,0.47306,0.61425624,-0.625303575,-0.49413936
1764433957.8536322,-0.88508,3.4335,0.47306,0.61425624,-0.625303575,-0.49413936
1764433957.8536322,-0.88508,3.4335,0.47306,0.61425624,-0.625303575,-0.49413936
1764433957.8536322,-0.88508,3.4335,0.47306,0.61425624,-0.625303575,-0.49413936
1764433957.8536322,-0.36624,3.46402,0.62566,0.61450038,-0.625669785,-0.493956255
1764433957.8536322,-0.36624,3.46402,0.62566,0.61450038,-0.625669785,-0.493956255
1764433957.8536322,-0.36624,3.46402,0.62566,0.61450038,-0.625669785,-0.493956255
1764433957.8536322,-0.36624,3.46402,0.62566,0.61450038,-0.625669785,-0.493956255
1764433957.8536322,-0.36624,3.46402,0.62566,0.61450038,-0.625669785,-0.493956255
1764433957.8541632,-0.36624,3.46402,0.62566,0.61450038,-0.625669785,-0.493956255
1764433957.8541632,-0.36624,3.46402,0.62566,0.61450038,-0.625669785,-0.493956255
1764433957.8541632,-0.36624,3.46402,0.62566,0.61450038,-0.625669785,-0.493956255
1764433957.8541632,-0.36624,3.46402,0.62566,0.61450038,-0.625669785,-0.493956255
1764433957.8541632,-0.36624,3.46402,0.62566,0.61450038,-0.625669785,-0.493956255
1764433957.8541632,-0.73248,3.44876,0.6714399999999999,0.61425624,-0.625669785,-0.494444535
1764433957.8541632,-0.73248,3.44876,0.6714399999999999,0.61425624,-0.625669785,-0.494444535
1764433957.8541632,-0.73248,3.44876,0.6714399999999999,0.61425624,-0.625669785,-0.494444535
1764433957.8541632,-0.73248,3.44876,0.6714399999999999,0.61425624,-0.625669785,-0.494444535
1764433957.8541632,-0.73248,3.44876,0.6714399999999999,0.61425624,-0.625669785,-0.494444535
1764433957.8541632,-0.73248,3.44876,0.6714399999999999,0.61425624,-0.625669785,-0.494444535
1764433957.900804,-0.73248,3.44876,0.6714399999999999,0.61425624,-0.625669785,-0.494444535
1764433957.9018192,-0.73248,3.44876,0.6714399999999999,0.61425624,-0.625669785,-0.494444535
1764433957.9018192,-0.73248,3.44876,0.6714399999999999,0.61425624,-0.625669785,-0.494444535
1764433957.902819,-0.73248,3.44876,0.6714399999999999,0.61425624,-0.625669785,-0.494444535
1764433957.902819,-0.47306,3.79974,0.9156,0.61474452,-0.6255477150000001,-0.49365108
1764433957.902819,-0.47306,3.79974,0.9156,0.61474452,-0.6255477150000001,-0.49365108
1764433957.9035485,-0.47306,3.79974,0.9156,0.61474452,-0.6255477150000001,-0.49365108
1764433957.9035485,-0.47306,3.79974,0.9156,0.61474452,-0.6255477150000001,-0.49365108
1764433957.9035485,-0.47306,3.79974,0.9156,0.61474452,-0.6255477150000001,-0.49365108
1764433957.9035485,-0.47306,3.79974,0.9156,0.61474452,-0.6255477150000001,-0.49365108
1764433957.9035485,-0.47306,3.79974,0.9156,0.61474452,-0.6255477150000001,-0.49365108
1764433957.9035485,-0.47306,3.79974,0.9156,0.61474452,-0.6255477150000001,-0.49365108
1764433957.9035485,-0.47306,3.79974,0.9156,0.61474452,-0.6255477150000001,-0.49365108
1764433957.9035485,-0.47306,3.79974,0.9156,0.61474452,-0.6255477150000001,-0.49365108
1764433957.9035485,-0.7019599999999999,3.78448,0.763,0.61413417,-0.625791855,-0.49365108
1764433957.9048164,-0.7019599999999999,3.78448,0.763,0.61413417,-0.625791855,-0.49365108
1764433957.9048164,-0.7019599999999999,3.78448,0.763,0.61413417,-0.625791855,-0.49365108
1764433957.9048164,-0.7019599999999999,3.78448,0.763,0.61413417,-0.625791855,-0.49365108
1764433957.9048164,-0.7019599999999999,3.78448,0.763,0.61413417,-0.625791855,-0.49365108
1764433957.9048164,-0.7019599999999999,3.78448,0.763,0.61413417,-0.625791855,-0.49365108
1764433957.9048164,-0.7019599999999999,3.78448,0.763,0.61413417,-0.625791855,-0.49365108
1764433957.9048164,-0.7019599999999999,3.78448,0.763,0.61413417,-0.625791855,-0.49365108
1764433957.9058182,-0.7019599999999999,3.78448,0.763,0.61413417,-0.625791855,-0.49365108
1764433957.9058182,-0.7019599999999999,3.78448,0.763,0.61413417,-0.625791855,-0.49365108
1764433957.948996,-0.9003399999999999,3.40298,0.8698199999999999,0.615293835,-0.625669785,-0.493956255
1764433957.948996,-0.9003399999999999,3.40298,0.8698199999999999,0.615293835,-0.625669785,-0.493956255
1764433957.948996,-0.9003399999999999,3.40298,0.8698199999999999,0.615293835,-0.625669785,-0.493956255
1764433957.948996,-0.9003399999999999,3.40298,0.8698199999999999,0.615293835,-0.625669785,-0.493956255
1764433957.948996,-0.9003399999999999,3.40298,0.8698199999999999,0.615293835,-0.625669785,-0.493956255
1764433957.948996,-0.9003399999999999,3.40298,0.8698199999999999,0.615293835,-0.625669785,-0.493956255
1764433957.948996,-0.9003399999999999,3.40298,0.8698199999999999,0.615293835,-0.625669785,-0.493956255
1764433957.948996,-0.9003399999999999,3.40298,0.8698199999999999,0.615293835,-0.625669785,-0.493956255
1764433957.9505153,-0.9003399999999999,3.40298,0.8698199999999999,0.615293835,-0.625669785,-0.493956255
1764433957.9505153,-0.9003399999999999,3.40298,0.8698199999999999,0.615293835,-0.625669785,-0.493956255
1764433957.9505153,-0.77826,3.79974,0.6867,0.615171765,-0.62597496,-0.49474971
1764433957.9505153,-0.77826,3.79974,0.6867,0.615171765,-0.62597496,-0.49474971
1764433957.9505153,-0.77826,3.79974,0.6867,0.615171765,-0.62597496,-0.49474971
1764433957.9505153,-0.77826,3.79974,0.6867,0.615171765,-0.62597496,-0.49474971
1764433957.9505153,-0.77826,3.79974,0.6867,0.615171765,-0.62597496,-0.49474971
1764433957.9505153,-0.77826,3.79974,0.6867,0.615171765,-0.62597496,-0.49474971
1764433957.9505153,-0.77826,3.79974,0.6867,0.615171765,-0.62597496,-0.49474971
1764433957.9505153,-0.77826,3.79974,0.6867,0.615171765,-0.62597496,-0.49474971
1764433957.9505153,-0.77826,3.79974,0.6867,0.615171765,-0.62597496,-0.49474971
1764433957.9505153,-0.77826,3.79974,0.6867,0.615171765,-0.62597496,-0.49474971
1764433957.9505153,-1.11398,3.34194,0.9156,0.614683485,-0.625425645,-0.494810745
1764433957.9505153,-1.11398,3.34194,0.9156,0.614683485,-0.625425645,-0.494810745
1764433957.9505153,-1.11398,3.34194,0.9156,0.614683485,-0.625425645,-0.494810745
1764433957.9505153,-1.11398,3.34194,0.9156,0.614683485,-0.625425645,-0.494810745
1764433957.9941924,-1.11398,3.34194,0.9156,0.614683485,-0.625425645,-0.494810745
1764433957.9941924,-1.11398,3.34194,0.9156,0.614683485,-0.625425645,-0.494810745
1764433957.9941924,-1.11398,3.34194,0.9156,0.614683485,-0.625425645,-0.494810745
1764433957.9941924,-1.11398,3.34194,0.9156,0.614683485,-0.625425645,-0.494810745
1764433957.9941924,-1.11398,3.34194,0.9156,0.614683485,-0.625425645,-0.494810745
1764433957.9941924,-1.11398,3.34194,0.9156,0.614683485,-0.625425645,-0.494810745
1764433957.9941924,-0.9156,3.5861,0.04578,0.614927625,-0.625425645,-0.494566605
1764433957.9941924,-0.9156,3.5861,0.04578,0.614927625,-0.625425645,-0.494566605
1764433957.9941924,-0.9156,3.5861,0.04578,0.614927625,-0.625425645,-0.494566605
1764433957.9941924,-0.9156,3.5861,0.04578,0.614927625,-0.625425645,-0.494566605
1764433957.9941924,-0.9156,3.5861,0.04578,0.614927625,-0.625425645,-0.494566605
1764433957.9941924,-0.9156,3.5861,0.04578,0.614927625,-0.625425645,-0.494566605
1764433957.9941924,-0.9156,3.5861,0.04578,0.614927625,-0.625425645,-0.494566605
1764433957.9941924,-0.9156,3.5861,0.04578,0.614927625,-0.625425645,-0.494566605
1764433957.9941924,-0.9156,3.5861,0.04578,0.614927625,-0.625425645,-0.494566605
1764433957.9941924,-0.9156,3.5861,0.04578,0.614927625,-0.625425645,-0.494566605
1764433957.9941924,-1.0682,3.75396,0.85456,0.6152328,-0.6255477150000001,-0.49401729
1764433957.9941924,-1.0682,3.75396,0.85456,0.6152328,-0.6255477150000001,-0.49401729
1764433957.9941924,-1.0682,3.75396,0.85456,0.6152328,-0.6255477150000001,-0.49401729
1764433957.9941924,-1.0682,3.75396,0.85456,0.6152328,-0.6255477150000001,-0.49401729
1764433957.9941924,-1.0682,3.75396,0.85456,0.6152328,-0.6255477150000001,-0.49401729
1764433957.9941924,-1.0682,3.75396,0.85456,0.6152328,-0.6255477150000001,-0.49401729
1764433958.0416474,-1.0682,3.75396,0.85456,0.6152328,-0.6255477150000001,-0.49401729
1764433958.0427997,-1.0682,3.75396,0.85456,0.6152328,-0.6255477150000001,-0.49401729
1764433958.0427997,-1.0682,3.75396,0.85456,0.6152328,-0.6255477150000001,-0.49401729
1764433958.0427997,-1.0682,3.75396,0.85456,0.6152328,-0.6255477150000001,-0.49401729
1764433958.0436828,-1.57178,3.75396,1.08346,0.615537975,-0.624937365,-0.49365108
1764433958.0436828,-1.57178,3.75396,1.08346,0.615537975,-0.624937365,-0.49365108
1764433958.0436828,-1.57178,3.75396,1.08346,0.615537975,-0.624937365,-0.49365108
1764433958.0436828,-1.57178,3.75396,1.08346,0.615537975,-0.624937365,-0.49365108
1764433958.0436828,-1.57178,3.75396,1.08346,0.615537975,-0.624937365,-0.49365108
1764433958.0436828,-1.57178,3.75396,1.08346,0.615537975,-0.624937365,-0.49365108
1764433958.0436828,-1.57178,3.75396,1.08346,0.615537975,-0.624937365,-0.49365108
1764433958.044781,-1.57178,3.75396,1.08346,0.615537975,-0.624937365,-0.49365108
1764433958.044781,-1.57178,3.75396,1.08346,0.615537975,-0.624937365,-0.49365108
1764433958.044781,-1.57178,3.75396,1.08346,0.615537975,-0.624937365,-0.49365108
1764433958.044781,-1.34288,3.70818,0.65618,0.61572108,-0.625181505,-0.49340694
1764433958.044781,-1.34288,3.70818,0.65618,0.61572108,-0.625181505,-0.49340694
1764433958.044781,-1.34288,3.70818,0.65618,0.61572108,-0.625181505,-0.49340694
1764433958.045781,-1.34288,3.70818,0.65618,0.61572108,-0.625181505,-0.49340694
1764433958.045781,-1.34288,3.70818,0.65618,0.61572108,-0.625181505,-0.49340694
1764433958.045781,-1.34288,3.70818,0.65618,0.61572108,-0.625181505,-0.49340694
1764433958.045781,-1.34288,3.70818,0.65618,0.61572108,-0.625181505,-0.49340694
1764433958.045781,-1.34288,3.70818,0.65618,0.61572108,-0.625181505,-0.49340694
1764433958.085569,-1.34288,3.70818,0.65618,0.61572108,-0.625181505,-0.49340694
1764433958.085569,-1.34288,3.70818,0.65618,0.61572108,-0.625181505,-0.49340694
1764433958.085569,-1.2055399999999998,2.8994,0.9156,0.61535487,-0.625181505,-0.49377315
1764433958.085569,-1.2055399999999998,2.8994,0.9156,0.61535487,-0.625181505,-0.49377315
1764433958.085569,-1.2055399999999998,2.8994,0.9156,0.61535487,-0.625181505,-0.49377315
1764433958.085569,-1.2055399999999998,2.8994,0.9156,0.61535487,-0.625181505,-0.49377315
1764433958.0875812,-1.2055399999999998,2.8994,0.9156,0.61535487,-0.625181505,-0.49377315
1764433958.0875812,-1.2055399999999998,2.8994,0.9156,0.61535487,-0.625181505,-0.49377315
1764433958.0875812,-1.2055399999999998,2.8994,0.9156,0.61535487,-0.625181505,-0.49377315
1764433958.0885828,-1.2055399999999998,2.8994,0.9156,0.61535487,-0.625181505,-0.49377315
1764433958.0885828,-1.2055399999999998,2.8994,0.9156,0.61535487,-0.625181505,-0.49377315
1764433958.0885828,-1.2055399999999998,2.8994,0.9156,0.61535487,-0.625181505,-0.49377315
1764433958.0885828,-0.9156,3.49454,0.3051999999999999,0.614683485,-0.625181505,-0.494688675
1764433958.0885828,-0.9156,3.49454,0.3051999999999999,0.614683485,-0.625181505,-0.494688675
1764433958.0895824,-0.9156,3.49454,0.3051999999999999,0.614683485,-0.625181505,-0.494688675
1764433958.0895824,-0.9156,3.49454,0.3051999999999999,0.614683485,-0.625181505,-0.494688675
1764433958.0895824,-0.9156,3.49454,0.3051999999999999,0.614683485,-0.625181505,-0.494688675
1764433958.0895824,-0.9156,3.49454,0.3051999999999999,0.614683485,-0.625181505,-0.494688675
1764433958.0895824,-0.9156,3.49454,0.3051999999999999,0.614683485,-0.625181505,-0.494688675
1764433958.0905826,-0.9156,3.49454,0.3051999999999999,0.614683485,-0.625181505,-0.494688675
1764433958.0905826,-0.9156,3.49454,0.3051999999999999,0.614683485,-0.625181505,-0.494688675
1764433958.0905826,-0.9156,3.49454,0.3051999999999999,0.614683485,-0.625181505,-0.494688675
1764433958.0905826,-0.8392999999999999,3.44876,0.54936,0.614683485,-0.62475426,-0.49462764
1764433958.0905826,-0.8392999999999999,3.44876,0.54936,0.614683485,-0.62475426,-0.49462764
1764433958.1347642,-0.8392999999999999,3.44876,0.54936,0.614683485,-0.62475426,-0.49462764
1764433958.1347642,-0.8392999999999999,3.44876,0.54936,0.614683485,-0.62475426,-0.49462764
1764433958.1347642,-0.8392999999999999,3.44876,0.54936,0.614683485,-0.62475426,-0.49462764
1764433958.1347642,-0.8392999999999999,3.44876,0.54936,0.614683485,-0.62475426,-0.49462764
1764433958.1347642,-0.8392999999999999,3.44876,0.54936,0.614683485,-0.62475426,-0.49462764
1764433958.1347642,-0.8392999999999999,3.44876,0.54936,0.614683485,-0.62475426,-0.49462764
1764433958.1347642,-0.8392999999999999,3.44876,0.54936,0.614683485,-0.62475426,-0.49462764
1764433958.1347642,-0.8392999999999999,3.44876,0.54936,0.614683485,-0.62475426,-0.49462764
1764433958.1347642,-0.9003399999999999,3.78448,0.6714399999999999,0.614927625,-0.62475426,-0.49413936
1764433958.1347642,-0.9003399999999999,3.78448,0.6714399999999999,0.614927625,-0.62475426,-0.49413936
1764433958.1347642,-0.9003399999999999,3.78448,0.6714399999999999,0.614927625,-0.62475426,-0.49413936
1764433958.1347642,-0.9003399999999999,3.78448,0.6714399999999999,0.614927625,-0.62475426,-0.49413936
1764433958.1347642,-0.9003399999999999,3.78448,0.6714399999999999,0.614927625,-0.62475426,-0.49413936
1764433958.1347642,-0.9003399999999999,3.78448,0.6714399999999999,0.614927625,-0.62475426,-0.49413936
1764433958.1347642,-0.9003399999999999,3.78448,0.6714399999999999,0.614927625,-0.62475426,-0.49413936
1764433958.1347642,-0.9003399999999999,3.78448,0.6714399999999999,0.614927625,-0.62475426,-0.49413936
1764433958.1347642,-0.9003399999999999,3.78448,0.6714399999999999,0.614927625,-0.62475426,-0.49413936
1764433958.1347642,-0.9003399999999999,3.78448,0.6714399999999999,0.614927625,-0.62475426,-0.49413936
1764433958.1347642,-0.85456,3.57084,0.42728,0.614195205,-0.62487633,-0.494078325
1764433958.1347642,-0.85456,3.57084,0.42728,0.614195205,-0.62487633,-0.494078325
1764433958.1347642,-0.85456,3.57084,0.42728,0.614195205,-0.62487633,-0.494078325
1764433958.1347642,-0.85456,3.57084,0.42728,0.614195205,-0.62487633,-0.494078325
1764433958.1347642,-0.85456,3.57084,0.42728,0.614195205,-0.62487633,-0.494078325
1764433958.1347642,-0.85456,3.57084,0.42728,0.614195205,-0.62487633,-0.494078325
1764433958.1793382,-0.85456,3.57084,0.42728,0.614195205,-0.62487633,-0.494078325
1764433958.1793382,-0.85456,3.57084,0.42728,0.614195205,-0.62487633,-0.494078325
1764433958.1793382,-0.85456,3.57084,0.42728,0.614195205,-0.62487633,-0.494078325
1764433958.1793382,-0.85456,3.57084,0.42728,0.614195205,-0.62487633,-0.494078325
1764433958.1793382,-1.02242,3.21986,0.56462,0.61413417,-0.625303575,-0.49413936
1764433958.1803267,-1.02242,3.21986,0.56462,0.61413417,-0.625303575,-0.49413936
1764433958.1803267,-1.02242,3.21986,0.56462,0.61413417,-0.625303575,-0.49413936
1764433958.1808376,-1.02242,3.21986,0.56462,0.61413417,-0.625303575,-0.49413936
1764433958.1808376,-1.02242,3.21986,0.56462,0.61413417,-0.625303575,-0.49413936
1764433958.1808376,-1.02242,3.21986,0.56462,0.61413417,-0.625303575,-0.49413936
1764433958.1818478,-1.02242,3.21986,0.56462,0.61413417,-0.625303575,-0.49413936
1764433958.1818478,-1.02242,3.21986,0.56462,0.61413417,-0.625303575,-0.49413936
1764433958.1818478,-1.02242,3.21986,0.56462,0.61413417,-0.625303575,-0.49413936
1764433958.1818478,-1.02242,3.21986,0.56462,0.61413417,-0.625303575,-0.49413936
1764433958.1818478,-1.23606,3.87604,0.8087799999999999,0.614073135,-0.62585289,-0.49340694
1764433958.1818478,-1.23606,3.87604,0.8087799999999999,0.614073135,-0.62585289,-0.49340694
1764433958.1818478,-1.23606,3.87604,0.8087799999999999,0.614073135,-0.62585289,-0.49340694
1764433958.1818478,-1.23606,3.87604,0.8087799999999999,0.614073135,-0.62585289,-0.49340694
1764433958.1828454,-1.23606,3.87604,0.8087799999999999,0.614073135,-0.62585289,-0.49340694
1764433958.1828454,-1.23606,3.87604,0.8087799999999999,0.614073135,-0.62585289,-0.49340694
1764433958.1828454,-1.23606,3.87604,0.8087799999999999,0.614073135,-0.62585289,-0.49340694
1764433958.1828454,-1.23606,3.87604,0.8087799999999999,0.614073135,-0.62585289,-0.49340694
1764433958.22824,-1.23606,3.87604,0.8087799999999999,0.614073135,-0.62585289,-0.49340694
1764433958.22824,-1.23606,3.87604,0.8087799999999999,0.614073135,-0.62585289,-0.49340694
1764433958.22824,-0.85456,3.79974,0.79352,0.6150496950000001,-0.62536461,-0.49365108
1764433958.22824,-0.85456,3.79974,0.79352,0.6150496950000001,-0.62536461,-0.49365108
1764433958.22824,-0.85456,3.79974,0.79352,0.6150496950000001,-0.62536461,-0.49365108
1764433958.22824,-0.85456,3.79974,0.79352,0.6150496950000001,-0.62536461,-0.49365108
1764433958.22824,-0.85456,3.79974,0.79352,0.6150496950000001,-0.62536461,-0.49365108
1764433958.22824,-0.85456,3.79974,0.79352,0.6150496950000001,-0.62536461,-0.49365108
1764433958.22824,-0.85456,3.79974,0.79352,0.6150496950000001,-0.62536461,-0.49365108
1764433958.22824,-0.85456,3.79974,0.79352,0.6150496950000001,-0.62536461,-0.49365108
1764433958.22824,-0.85456,3.79974,0.79352,0.6150496950000001,-0.62536461,-0.49365108
1764433958.22824,-0.85456,3.79974,0.79352,0.6150496950000001,-0.62536461,-0.49365108
1764433958.22824,-1.05294,3.63188,0.3051999999999999,0.61511073,-0.624815295,-0.493834185
1764433958.22824,-1.05294,3.63188,0.3051999999999999,0.61511073,-0.624815295,-0.493834185
1764433958.22824,-1.05294,3.63188,0.3051999999999999,0.61511073,-0.624815295,-0.493834185
1764433958.22824,-1.05294,3.63188,0.3051999999999999,0.61511073,-0.624815295,-0.493834185
1764433958.22824,-1.05294,3.63188,0.3051999999999999,0.61511073,-0.624815295,-0.493834185
1764433958.22824,-1.05294,3.63188,0.3051999999999999,0.61511073,-0.624815295,-0.493834185
1764433958.22824,-1.05294,3.63188,0.3051999999999999,0.61511073,-0.624815295,-0.493834185
1764433958.22824,-1.05294,3.63188,0.3051999999999999,0.61511073,-0.624815295,-0.493834185
1764433958.22824,-1.05294,3.63188,0.3051999999999999,0.61511073,-0.624815295,-0.493834185
1764433958.22824,-1.05294,3.63188,0.3051999999999999,0.61511073,-0.624815295,-0.493834185
1764433958.22824,-1.26658,3.83026,0.85456,0.615293835,-0.62524254,-0.49487178
1764433958.22824,-1.26658,3.83026,0.85456,0.615293835,-0.62524254,-0.49487178
1764433958.2725751,-1.26658,3.83026,0.85456,0.615293835,-0.62524254,-0.49487178
1764433958.2741077,-1.26658,3.83026,0.85456,0.615293835,-0.62524254,-0.49487178
1764433958.2741077,-1.26658,3.83026,0.85456,0.615293835,-0.62524254,-0.49487178
1764433958.2741077,-1.26658,3.83026,0.85456,0.615293835,-0.62524254,-0.49487178
1764433958.2741077,-1.26658,3.83026,0.85456,0.615293835,-0.62524254,-0.49487178
1764433958.2741077,-1.26658,3.83026,0.85456,0.615293835,-0.62524254,-0.49487178
1764433958.2741077,-1.26658,3.83026,0.85456,0.615293835,-0.62524254,-0.49487178
1764433958.2741077,-1.26658,3.83026,0.85456,0.615293835,-0.62524254,-0.49487178
1764433958.2741077,-0.97664,3.34194,0.74774,0.614805555,-0.6249984,-0.49474971
1764433958.2741077,-0.97664,3.34194,0.74774,0.614805555,-0.6249984,-0.49474971
1764433958.2741077,-0.97664,3.34194,0.74774,0.614805555,-0.6249984,-0.49474971
1764433958.2741077,-0.97664,3.34194,0.74774,0.614805555,-0.6249984,-0.49474971
1764433958.2741077,-0.97664,3.34194,0.74774,0.614805555,-0.6249984,-0.49474971
1764433958.2741077,-0.97664,3.34194,0.74774,0.614805555,-0.6249984,-0.49474971
1764433958.2741077,-0.97664,3.34194,0.74774,0.614805555,-0.6249984,-0.49474971
1764433958.2741077,-0.97664,3.34194,0.74774,0.614805555,-0.6249984,-0.49474971
1764433958.2741077,-0.97664,3.34194,0.74774,0.614805555,-0.6249984,-0.49474971
1764433958.2741077,-0.97664,3.34194,0.74774,0.614805555,-0.6249984,-0.49474971
1764433958.2741077,-1.38866,4.10494,0.88508,0.615171765,-0.625303575,-0.495054885
1764433958.2741077,-1.38866,4.10494,0.88508,0.615171765,-0.625303575,-0.495054885
1764433958.2741077,-1.38866,4.10494,0.88508,0.615171765,-0.625303575,-0.495054885
1764433958.2741077,-1.38866,4.10494,0.88508,0.615171765,-0.625303575,-0.495054885
1764433958.3195615,-1.38866,4.10494,0.88508,0.615171765,-0.625303575,-0.495054885
1764433958.3195615,-1.38866,4.10494,0.88508,0.615171765,-0.625303575,-0.495054885
1764433958.3195615,-1.38866,4.10494,0.88508,0.615171765,-0.625303575,-0.495054885
1764433958.3195615,-1.38866,4.10494,0.88508,0.615171765,-0.625303575,-0.495054885
1764433958.3205564,-1.38866,4.10494,0.88508,0.615171765,-0.625303575,-0.495054885
1764433958.3205564,-1.38866,4.10494,0.88508,0.615171765,-0.625303575,-0.495054885
1764433958.3205564,-1.05294,3.38772,0.65618,0.615537975,-0.625303575,-0.49474971
1764433958.3205564,-1.05294,3.38772,0.65618,0.615537975,-0.625303575,-0.49474971
1764433958.3205564,-1.05294,3.38772,0.65618,0.615537975,-0.625303575,-0.49474971
1764433958.3205564,-1.05294,3.38772,0.65618,0.615537975,-0.625303575,-0.49474971
1764433958.3210683,-1.05294,3.38772,0.65618,0.615537975,-0.625303575,-0.49474971
1764433958.3210683,-1.05294,3.38772,0.65618,0.615537975,-0.625303575,-0.49474971
1764433958.3210683,-1.05294,3.38772,0.65618,0.615537975,-0.625303575,-0.49474971
1764433958.3210683,-1.05294,3.38772,0.65618,0.615537975,-0.625303575,-0.49474971
1764433958.3220787,-1.05294,3.38772,0.65618,0.615537975,-0.625303575,-0.49474971
1764433958.3220787,-1.05294,3.38772,0.65618,0.615537975,-0.625303575,-0.49474971
1764433958.3220787,-0.9919,3.08252,0.36624,0.61498866,-0.625059435,-0.494688675
1764433958.322784,-0.9919,3.08252,0.36624,0.61498866,-0.625059435,-0.494688675
1764433958.322784,-0.9919,3.08252,0.36624,0.61498866,-0.625059435,-0.494688675
1764433958.322784,-0.9919,3.08252,0.36624,0.61498866,-0.625059435,-0.494688675
1764433958.322784,-0.9919,3.08252,0.36624,0.61498866,-0.625059435,-0.494688675
1764433958.322784,-0.9919,3.08252,0.36624,0.61498866,-0.625059435,-0.494688675
1764433958.322784,-0.9919,3.08252,0.36624,0.61498866,-0.625059435,-0.494688675
1764433958.322784,-0.9919,3.08252,0.36624,0.61498866,-0.625059435,-0.494688675
1764433958.368125,-0.9919,3.08252,0.36624,0.61498866,-0.625059435,-0.494688675
1764433958.368125,-0.9919,3.08252,0.36624,0.61498866,-0.625059435,-0.494688675
1764433958.368125,-1.2055399999999998,3.29616,0.28994,0.614805555,-0.62512047,-0.495543165
1764433958.368125,-1.2055399999999998,3.29616,0.28994,0.614805555,-0.62512047,-0.495543165
1764433958.368125,-1.2055399999999998,3.29616,0.28994,0.614805555,-0.62512047,-0.495543165
1764433958.368125,-1.2055399999999998,3.29616,0.28994,0.614805555,-0.62512047,-0.495543165
1764433958.368125,-1.2055399999999998,3.29616,0.28994,0.614805555,-0.62512047,-0.495543165
1764433958.368125,-1.2055399999999998,3.29616,0.28994,0.614805555,-0.62512047,-0.495543165
1764433958.368125,-1.2055399999999998,3.29616,0.28994,0.614805555,-0.62512047,-0.495543165
1764433958.368125,-1.2055399999999998,3.29616,0.28994,0.614805555,-0.62512047,-0.495543165
1764433958.368125,-1.2055399999999998,3.29616,0.28994,0.614805555,-0.62512047,-0.495543165
1764433958.368125,-1.2055399999999998,3.29616,0.28994,0.614805555,-0.62512047,-0.495543165
1764433958.368125,-1.31236,2.85362,0.3204599999999999,0.6150496950000001,-0.625425645,-0.496031445
1764433958.368125,-1.31236,2.85362,0.3204599999999999,0.6150496950000001,-0.625425645,-0.496031445
1764433958.368125,-1.31236,2.85362,0.3204599999999999,0.6150496950000001,-0.625425645,-0.496031445
1764433958.368125,-1.31236,2.85362,0.3204599999999999,0.6150496950000001,-0.625425645,-0.496031445
1764433958.368125,-1.31236,2.85362,0.3204599999999999,0.6150496950000001,-0.625425645,-0.496031445
1764433958.368125,-1.31236,2.85362,0.3204599999999999,0.6150496950000001,-0.625425645,-0.496031445
1764433958.368125,-1.31236,2.85362,0.3204599999999999,0.6150496950000001,-0.625425645,-0.496031445
1764433958.368125,-1.31236,2.85362,0.3204599999999999,0.6150496950000001,-0.625425645,-0.496031445
1764433958.368125,-1.31236,2.85362,0.3204599999999999,0.6150496950000001,-0.625425645,-0.496031445
1764433958.368125,-1.31236,2.85362,0.3204599999999999,0.6150496950000001,-0.625425645,-0.496031445
1764433958.368125,-1.46496,3.17408,0.62566,0.61474452,-0.62560875,-0.49536006
1764433958.368125,-1.46496,3.17408,0.62566,0.61474452,-0.62560875,-0.49536006
1764433958.411368,-1.46496,3.17408,0.62566,0.61474452,-0.62560875,-0.49536006
1764433958.411368,-1.46496,3.17408,0.62566,0.61474452,-0.62560875,-0.49536006
1764433958.411368,-1.46496,3.17408,0.62566,0.61474452,-0.62560875,-0.49536006
1764433958.411368,-1.46496,3.17408,0.62566,0.61474452,-0.62560875,-0.49536006
1764433958.411368,-1.46496,3.17408,0.62566,0.61474452,-0.62560875,-0.49536006
1764433958.411368,-1.46496,3.17408,0.62566,0.61474452,-0.62560875,-0.49536006
1764433958.411368,-1.46496,3.17408,0.62566,0.61474452,-0.62560875,-0.49536006
1764433958.41248,-1.46496,3.17408,0.62566,0.61474452,-0.62560875,-0.49536006
1764433958.41248,-1.12924,3.18934,0.79352,0.615293835,-0.62573082,-0.49487178
1764433958.41248,-1.12924,3.18934,0.79352,0.615293835,-0.62573082,-0.49487178
1764433958.4144917,-1.12924,3.18934,0.79352,0.615293835,-0.62573082,-0.49487178
1764433958.4144917,-1.12924,3.18934,0.79352,0.615293835,-0.62573082,-0.49487178
1764433958.4144917,-1.12924,3.18934,0.79352,0.615293835,-0.62573082,-0.49487178
1764433958.4144917,-1.12924,3.18934,0.79352,0.615293835,-0.62573082,-0.49487178
1764433958.4144917,-1.12924,3.18934,0.79352,0.615293835,-0.62573082,-0.49487178
1764433958.4144917,-1.12924,3.18934,0.79352,0.615293835,-0.62573082,-0.49487178
1764433958.4144917,-1.12924,3.18934,0.79352,0.615293835,-0.62573082,-0.49487178
1764433958.4144917,-1.12924,3.18934,0.79352,0.615293835,-0.62573082,-0.49487178
1764433958.4144917,-1.3734,3.40298,0.25942,0.61498866,-0.624937365,-0.494322465
1764433958.4144917,-1.3734,3.40298,0.25942,0.61498866,-0.624937365,-0.494322465
1764433958.4144917,-1.3734,3.40298,0.25942,0.61498866,-0.624937365,-0.494322465
1764433958.4144917,-1.3734,3.40298,0.25942,0.61498866,-0.624937365,-0.494322465
1764433958.4144917,-1.3734,3.40298,0.25942,0.61498866,-0.624937365,-0.494322465
1764433958.4144917,-1.3734,3.40298,0.25942,0.61498866,-0.624937365,-0.494322465
1764433958.4590044,-1.3734,3.40298,0.25942,0.61498866,-0.624937365,-0.494322465
1764433958.4590044,-1.3734,3.40298,0.25942,0.61498866,-0.624937365,-0.494322465
1764433958.4590044,-1.3734,3.40298,0.25942,0.61498866,-0.624937365,-0.494322465
1764433958.4590044,-1.3734,3.40298,0.25942,0.61498866,-0.624937365,-0.494322465
1764433958.4590044,-1.17502,3.38772,0.62566,0.61474452,-0.62475426,-0.494810745
1764433958.4590044,-1.17502,3.38772,0.62566,0.61474452,-0.62475426,-0.494810745
1764433958.4590044,-1.17502,3.38772,0.62566,0.61474452,-0.62475426,-0.494810745
1764433958.4590044,-1.17502,3.38772,0.62566,0.61474452,-0.62475426,-0.494810745
1764433958.4590044,-1.17502,3.38772,0.62566,0.61474452,-0.62475426,-0.494810745
1764433958.4590044,-1.17502,3.38772,0.62566,0.61474452,-0.62475426,-0.494810745
1764433958.4590044,-1.17502,3.38772,0.62566,0.61474452,-0.62475426,-0.494810745
1764433958.4590044,-1.17502,3.38772,0.62566,0.61474452,-0.62475426,-0.494810745
1764433958.4590044,-1.17502,3.38772,0.62566,0.61474452,-0.62475426,-0.494810745
1764433958.4590044,-1.17502,3.38772,0.62566,0.61474452,-0.62475426,-0.494810745
1764433958.4590044,-1.4497,3.60136,0.77826,0.614927625,-0.624815295,-0.495299025
1764433958.4590044,-1.4497,3.60136,0.77826,0.614927625,-0.624815295,-0.495299025
1764433958.4590044,-1.4497,3.60136,0.77826,0.614927625,-0.624815295,-0.495299025
1764433958.4590044,-1.4497,3.60136,0.77826,0.614927625,-0.624815295,-0.495299025
1764433958.4590044,-1.4497,3.60136,0.77826,0.614927625,-0.624815295,-0.495299025
1764433958.4605153,-1.4497,3.60136,0.77826,0.614927625,-0.624815295,-0.495299025
1764433958.4605153,-1.4497,3.60136,0.77826,0.614927625,-0.624815295,-0.495299025
1764433958.4605153,-1.4497,3.60136,0.77826,0.614927625,-0.624815295,-0.495299025
1764433958.5048764,-1.4497,3.60136,0.77826,0.614927625,-0.624815295,-0.495299025
1764433958.5048764,-1.4497,3.60136,0.77826,0.614927625,-0.624815295,-0.495299025
1764433958.5048764,-1.41918,3.46402,0.6409199999999999,0.61486659,-0.624693225,-0.49621455
1764433958.5048764,-1.41918,3.46402,0.6409199999999999,0.61486659,-0.624693225,-0.49621455
1764433958.5048764,-1.41918,3.46402,0.6409199999999999,0.61486659,-0.624693225,-0.49621455
1764433958.5062456,-1.41918,3.46402,0.6409199999999999,0.61486659,-0.624693225,-0.49621455
1764433958.5062456,-1.41918,3.46402,0.6409199999999999,0.61486659,-0.624693225,-0.49621455
1764433958.5062456,-1.41918,3.46402,0.6409199999999999,0.61486659,-0.624693225,-0.49621455
1764433958.5062456,-1.41918,3.46402,0.6409199999999999,0.61486659,-0.624693225,-0.49621455
1764433958.5062456,-1.41918,3.46402,0.6409199999999999,0.61486659,-0.624693225,-0.49621455
1764433958.5062456,-1.41918,3.46402,0.6409199999999999,0.61486659,-0.624693225,-0.49621455
1764433958.5062456,-1.41918,3.46402,0.6409199999999999,0.61486659,-0.624693225,-0.49621455
1764433958.5062456,-1.34288,3.31142,0.39676,0.614683485,-0.624082875,-0.496763865
1764433958.5062456,-1.34288,3.31142,0.39676,0.614683485,-0.624082875,-0.496763865
1764433958.5062456,-1.34288,3.31142,0.39676,0.614683485,-0.624082875,-0.496763865
1764433958.5062456,-1.34288,3.31142,0.39676,0.614683485,-0.624082875,-0.496763865
1764433958.5062456,-1.34288,3.31142,0.39676,0.614683485,-0.624082875,-0.496763865
1764433958.5062456,-1.34288,3.31142,0.39676,0.614683485,-0.624082875,-0.496763865
1764433958.5062456,-1.34288,3.31142,0.39676,0.614683485,-0.624082875,-0.496763865
1764433958.5062456,-1.34288,3.31142,0.39676,0.614683485,-0.624082875,-0.496763865
1764433958.5062456,-1.34288,3.31142,0.39676,0.614683485,-0.624082875,-0.496763865
1764433958.5062456,-1.34288,3.31142,0.39676,0.614683485,-0.624082875,-0.496763865
1764433958.5500703,-1.25132,3.29616,0.36624,0.61535487,-0.62402184,-0.49597041
1764433958.5500703,-1.25132,3.29616,0.36624,0.61535487,-0.62402184,-0.49597041
1764433958.5500703,-1.25132,3.29616,0.36624,0.61535487,-0.62402184,-0.49597041
1764433958.5500703,-1.25132,3.29616,0.36624,0.61535487,-0.62402184,-0.49597041
1764433958.5500703,-1.25132,3.29616,0.36624,0.61535487,-0.62402184,-0.49597041
1764433958.5500703,-1.25132,3.29616,0.36624,0.61535487,-0.62402184,-0.49597041
1764433958.5500703,-1.25132,3.29616,0.36624,0.61535487,-0.62402184,-0.49597041
1764433958.5500703,-1.25132,3.29616,0.36624,0.61535487,-0.62402184,-0.49597041
1764433958.5500703,-1.25132,3.29616,0.36624,0.61535487,-0.62402184,-0.49597041
1764433958.5500703,-1.25132,3.29616,0.36624,0.61535487,-0.62402184,-0.49597041
1764433958.5505836,-1.19028,3.06726,0.73248,0.615171765,-0.623838735,-0.496275585
1764433958.5505836,-1.19028,3.06726,0.73248,0.615171765,-0.623838735,-0.496275585
1764433958.5505836,-1.19028,3.06726,0.73248,0.615171765,-0.623838735,-0.496275585
1764433958.5505836,-1.19028,3.06726,0.73248,0.615171765,-0.623838735,-0.496275585
1764433958.5505836,-1.19028,3.06726,0.73248,0.615171765,-0.623838735,-0.496275585
1764433958.5505836,-1.19028,3.06726,0.73248,0.615171765,-0.623838735,-0.496275585
1764433958.5505836,-1.19028,3.06726,0.73248,0.615171765,-0.623838735,-0.496275585
1764433958.5505836,-1.19028,3.06726,0.73248,0.615171765,-0.623838735,-0.496275585
1764433958.5505836,-1.19028,3.06726,0.73248,0.615171765,-0.623838735,-0.496275585
1764433958.5505836,-1.19028,3.06726,0.73248,0.615171765,-0.623838735,-0.496275585
1764433958.5505836,-0.9919,3.29616,0.13734,0.61462245,-0.62389977,-0.49633662
1764433958.5505836,-0.9919,3.29616,0.13734,0.61462245,-0.62389977,-0.49633662
1764433958.5505836,-0.9919,3.29616,0.13734,0.61462245,-0.62389977,-0.49633662
1764433958.5505836,-0.9919,3.29616,0.13734,0.61462245,-0.62389977,-0.49633662
1764433958.597751,-0.9919,3.29616,0.13734,0.61462245,-0.62389977,-0.49633662
1764433958.597751,-0.9919,3.29616,0.13734,0.61462245,-0.62389977,-0.49633662
1764433958.597751,-0.9919,3.29616,0.13734,0.61462245,-0.62389977,-0.49633662
1764433958.5987625,-0.9919,3.29616,0.13734,0.61462245,-0.62389977,-0.49633662
1764433958.5987625,-0.9919,3.29616,0.13734,0.61462245,-0.62389977,-0.49633662
1764433958.5987625,-0.9919,3.29616,0.13734,0.61462245,-0.62389977,-0.49633662
1764433958.5987625,-0.74774,3.78448,0.6409199999999999,0.61413417,-0.62438805,-0.495665235
1764433958.5987625,-0.74774,3.78448,0.6409199999999999,0.61413417,-0.62438805,-0.495665235
1764433958.5987625,-0.74774,3.78448,0.6409199999999999,0.61413417,-0.62438805,-0.495665235
1764433958.5987625,-0.74774,3.78448,0.6409199999999999,0.61413417,-0.62438805,-0.495665235
1764433958.5987625,-0.74774,3.78448,0.6409199999999999,0.61413417,-0.62438805,-0.495665235
1764433958.5987625,-0.74774,3.78448,0.6409199999999999,0.61413417,-0.62438805,-0.495665235
1764433958.5987625,-0.74774,3.78448,0.6409199999999999,0.61413417,-0.62438805,-0.495665235
1764433958.5987625,-0.74774,3.78448,0.6409199999999999,0.61413417,-0.62438805,-0.495665235
1764433958.5987625,-0.74774,3.78448,0.6409199999999999,0.61413417,-0.62438805,-0.495665235
1764433958.5987625,-0.74774,3.78448,0.6409199999999999,0.61413417,-0.62438805,-0.495665235
1764433958.5987625,-0.9156,3.49454,0.73248,0.61376796,-0.6249984,-0.495299025
1764433958.5987625,-0.9156,3.49454,0.73248,0.61376796,-0.6249984,-0.495299025
1764433958.5987625,-0.9156,3.49454,0.73248,0.61376796,-0.6249984,-0.495299025
1764433958.5987625,-0.9156,3.49454,0.73248,0.61376796,-0.6249984,-0.495299025
1764433958.5987625,-0.9156,3.49454,0.73248,0.61376796,-0.6249984,-0.495299025
1764433958.5987625,-0.9156,3.49454,0.73248,0.61376796,-0.6249984,-0.495299025
1764433958.5987625,-0.9156,3.49454,0.73248,0.61376796,-0.6249984,-0.495299025
1764433958.5997653,-0.9156,3.49454,0.73248,0.61376796,-0.6249984,-0.495299025
1764433958.6452827,-0.9156,3.49454,0.73248,0.61376796,-0.6249984,-0.495299025
1764433958.6452827,-0.9156,3.49454,0.73248,0.61376796,-0.6249984,-0.495299025
1764433958.6452827,-1.00716,3.64714,0.59514,0.6152328,-0.6239608050000001,-0.4956042
1764433958.6452827,-1.00716,3.64714,0.59514,0.6152328,-0.6239608050000001,-0.4956042
1764433958.6452827,-1.00716,3.64714,0.59514,0.6152328,-0.6239608050000001,-0.4956042
1764433958.6452827,-1.00716,3.64714,0.59514,0.6152328,-0.6239608050000001,-0.4956042
1764433958.6452827,-1.00716,3.64714,0.59514,0.6152328,-0.6239608050000001,-0.4956042
1764433958.6452827,-1.00716,3.64714,0.59514,0.6152328,-0.6239608050000001,-0.4956042
1764433958.6452827,-1.00716,3.64714,0.59514,0.6152328,-0.6239608050000001,-0.4956042
1764433958.6452827,-1.00716,3.64714,0.59514,0.6152328,-0.6239608050000001,-0.4956042
1764433958.6452827,-1.00716,3.64714,0.59514,0.6152328,-0.6239608050000001,-0.4956042
1764433958.6452827,-1.00716,3.64714,0.59514,0.6152328,-0.6239608050000001,-0.4956042
1764433958.6452827,-1.31236,3.25038,0.6867,0.615782115,-0.62402184,-0.49633662
1764433958.6452827,-1.31236,3.25038,0.6867,0.615782115,-0.62402184,-0.49633662
1764433958.6452827,-1.31236,3.25038,0.6867,0.615782115,-0.62402184,-0.49633662
1764433958.6452827,-1.31236,3.25038,0.6867,0.615782115,-0.62402184,-0.49633662
1764433958.6452827,-1.31236,3.25038,0.6867,0.615782115,-0.62402184,-0.49633662
1764433958.6452827,-1.31236,3.25038,0.6867,0.615782115,-0.62402184,-0.49633662
1764433958.6452827,-1.31236,3.25038,0.6867,0.615782115,-0.62402184,-0.49633662
1764433958.646284,-1.31236,3.25038,0.6867,0.615782115,-0.62402184,-0.49633662
1764433958.646284,-1.31236,3.25038,0.6867,0.615782115,-0.62402184,-0.49633662
1764433958.646284,-1.31236,3.25038,0.6867,0.615782115,-0.62402184,-0.49633662
1764433958.6893983,-1.63282,3.54032,0.3815,0.61486659,-0.623716665,-0.496885935
1764433958.6893983,-1.63282,3.54032,0.3815,0.61486659,-0.623716665,-0.496885935
1764433958.6893983,-1.63282,3.54032,0.3815,0.61486659,-0.623716665,-0.496885935
1764433958.6893983,-1.63282,3.54032,0.3815,0.61486659,-0.623716665,-0.496885935
1764433958.6893983,-1.63282,3.54032,0.3815,0.61486659,-0.623716665,-0.496885935
1764433958.6893983,-1.63282,3.54032,0.3815,0.61486659,-0.623716665,-0.496885935
1764433958.6893983,-1.63282,3.54032,0.3815,0.61486659,-0.623716665,-0.496885935
1764433958.6893983,-1.63282,3.54032,0.3815,0.61486659,-0.623716665,-0.496885935
1764433958.6893983,-1.63282,3.54032,0.3815,0.61486659,-0.623716665,-0.496885935
1764433958.6893983,-1.63282,3.54032,0.3815,0.61486659,-0.623716665,-0.496885935
1764433958.6893983,-1.58704,3.15882,0.73248,0.61437831,-0.623594595,-0.496275585
1764433958.6893983,-1.58704,3.15882,0.73248,0.61437831,-0.623594595,-0.496275585
1764433958.6893983,-1.58704,3.15882,0.73248,0.61437831,-0.623594595,-0.496275585
1764433958.6909437,-1.58704,3.15882,0.73248,0.61437831,-0.623594595,-0.496275585
1764433958.6909437,-1.58704,3.15882,0.73248,0.61437831,-0.623594595,-0.496275585
1764433958.6909437,-1.58704,3.15882,0.73248,0.61437831,-0.623594595,-0.496275585
1764433958.6909437,-1.58704,3.15882,0.73248,0.61437831,-0.623594595,-0.496275585
1764433958.6909437,-1.58704,3.15882,0.73248,0.61437831,-0.623594595,-0.496275585
1764433958.6909437,-1.58704,3.15882,0.73248,0.61437831,-0.623594595,-0.496275585
1764433958.6909437,-1.58704,3.15882,0.73248,0.61437831,-0.623594595,-0.496275585
1764433958.6909437,-1.48022,3.83026,0.65618,0.61425624,-0.62341149,-0.495909375
1764433958.6909437,-1.48022,3.83026,0.65618,0.61425624,-0.62341149,-0.495909375
1764433958.6909437,-1.48022,3.83026,0.65618,0.61425624,-0.62341149,-0.495909375
1764433958.6909437,-1.48022,3.83026,0.65618,0.61425624,-0.62341149,-0.495909375
1764433958.738656,-1.48022,3.83026,0.65618,0.61425624,-0.62341149,-0.495909375
1764433958.738656,-1.48022,3.83026,0.65618,0.61425624,-0.62341149,-0.495909375
1764433958.738656,-1.48022,3.83026,0.65618,0.61425624,-0.62341149,-0.495909375
1764433958.738656,-1.48022,3.83026,0.65618,0.61425624,-0.62341149,-0.495909375
1764433958.738656,-1.48022,3.83026,0.65618,0.61425624,-0.62341149,-0.495909375
1764433958.738656,-1.48022,3.83026,0.65618,0.61425624,-0.62341149,-0.495909375
1764433958.738656,-0.9156,3.90656,0.82404,0.6140121000000001,-0.62353356,-0.49523799
1764433958.738656,-0.9156,3.90656,0.82404,0.6140121000000001,-0.62353356,-0.49523799
1764433958.738656,-0.9156,3.90656,0.82404,0.6140121000000001,-0.62353356,-0.49523799
1764433958.738656,-0.9156,3.90656,0.82404,0.6140121000000001,-0.62353356,-0.49523799
1764433958.7396674,-0.9156,3.90656,0.82404,0.6140121000000001,-0.62353356,-0.49523799
1764433958.7396674,-0.9156,3.90656,0.82404,0.6140121000000001,-0.62353356,-0.49523799
1764433958.7396674,-0.9156,3.90656,0.82404,0.6140121000000001,-0.62353356,-0.49523799
1764433958.7396674,-0.9156,3.90656,0.82404,0.6140121000000001,-0.62353356,-0.49523799
1764433958.7396674,-0.9156,3.90656,0.82404,0.6140121000000001,-0.62353356,-0.49523799
1764433958.7396674,-0.9156,3.90656,0.82404,0.6140121000000001,-0.62353356,-0.49523799
1764433958.7396674,-1.35814,3.61662,0.71722,0.61450038,-0.62341149,-0.49609248
1764433958.7396674,-1.35814,3.61662,0.71722,0.61450038,-0.62341149,-0.49609248
1764433958.7396674,-1.35814,3.61662,0.71722,0.61450038,-0.62341149,-0.49609248
1764433958.7396674,-1.35814,3.61662,0.71722,0.61450038,-0.62341149,-0.49609248
1764433958.7396674,-1.35814,3.61662,0.71722,0.61450038,-0.62341149,-0.49609248
1764433958.7396674,-1.35814,3.61662,0.71722,0.61450038,-0.62341149,-0.49609248
1764433958.782517,-1.35814,3.61662,0.71722,0.61450038,-0.62341149,-0.49609248
1764433958.782517,-1.35814,3.61662,0.71722,0.61450038,-0.62341149,-0.49609248
1764433958.782517,-1.35814,3.61662,0.71722,0.61450038,-0.62341149,-0.49609248
1764433958.782517,-1.35814,3.61662,0.71722,0.61450038,-0.62341149,-0.49609248
1764433958.782517,-1.2055399999999998,3.92182,0.9003399999999999,0.61498866,-0.62316735,-0.496641795
1764433958.782517,-1.2055399999999998,3.92182,0.9003399999999999,0.61498866,-0.62316735,-0.496641795
1764433958.782517,-1.2055399999999998,3.92182,0.9003399999999999,0.61498866,-0.62316735,-0.496641795
1764433958.782517,-1.2055399999999998,3.92182,0.9003399999999999,0.61498866,-0.62316735,-0.496641795
1764433958.782517,-1.2055399999999998,3.92182,0.9003399999999999,0.61498866,-0.62316735,-0.496641795
1764433958.782517,-1.2055399999999998,3.92182,0.9003399999999999,0.61498866,-0.62316735,-0.496641795
1764433958.782517,-1.2055399999999998,3.92182,0.9003399999999999,0.61498866,-0.62316735,-0.496641795
1764433958.782517,-1.2055399999999998,3.92182,0.9003399999999999,0.61498866,-0.62316735,-0.496641795
1764433958.782517,-1.2055399999999998,3.92182,0.9003399999999999,0.61498866,-0.62316735,-0.496641795
1764433958.782517,-1.2055399999999998,3.92182,0.9003399999999999,0.61498866,-0.62316735,-0.496641795
1764433958.782517,-0.8087799999999999,3.18934,0.41202,0.61498866,-0.622740105,-0.4968249
1764433958.7840502,-0.8087799999999999,3.18934,0.41202,0.61498866,-0.622740105,-0.4968249
1764433958.7840502,-0.8087799999999999,3.18934,0.41202,0.61498866,-0.622740105,-0.4968249
1764433958.7840502,-0.8087799999999999,3.18934,0.41202,0.61498866,-0.622740105,-0.4968249
1764433958.83425,-0.8087799999999999,3.18934,0.41202,0.61498866,-0.622740105,-0.4968249
1764433958.83425,-0.8087799999999999,3.18934,0.41202,0.61498866,-0.622740105,-0.4968249
1764433958.83425,-0.8087799999999999,3.18934,0.41202,0.61498866,-0.622740105,-0.4968249
1764433958.83425,-0.8087799999999999,3.18934,0.41202,0.61498866,-0.622740105,-0.4968249
1764433958.83425,-0.8087799999999999,3.18934,0.41202,0.61498866,-0.622740105,-0.4968249
1764433958.83425,-0.8087799999999999,3.18934,0.41202,0.61498866,-0.622740105,-0.4968249
1764433958.83425,-1.05294,3.5861,0.6103999999999999,0.61511073,-0.62280114,-0.49658076
1764433958.83425,-1.05294,3.5861,0.6103999999999999,0.61511073,-0.62280114,-0.49658076
1764433958.83425,-1.05294,3.5861,0.6103999999999999,0.61511073,-0.62280114,-0.49658076
1764433958.83425,-1.05294,3.5861,0.6103999999999999,0.61511073,-0.62280114,-0.49658076
1764433958.83425,-1.05294,3.5861,0.6103999999999999,0.61511073,-0.62280114,-0.49658076
1764433958.83425,-1.05294,3.5861,0.6103999999999999,0.61511073,-0.62280114,-0.49658076
1764433958.83425,-1.05294,3.5861,0.6103999999999999,0.61511073,-0.62280114,-0.49658076
1764433958.83425,-1.05294,3.5861,0.6103999999999999,0.61511073,-0.62280114,-0.49658076
1764433958.83425,-1.05294,3.5861,0.6103999999999999,0.61511073,-0.62280114,-0.49658076
1764433958.83425,-1.05294,3.5861,0.6103999999999999,0.61511073,-0.62280114,-0.49658076
1764433958.83425,-0.48832,3.5098,1.02242,0.614317275,-0.623350455,-0.49658076
1764433958.83425,-0.48832,3.5098,1.02242,0.614317275,-0.623350455,-0.49658076
1764433958.83425,-0.48832,3.5098,1.02242,0.614317275,-0.623350455,-0.49658076
1764433958.83425,-0.48832,3.5098,1.02242,0.614317275,-0.623350455,-0.49658076
1764433958.8357792,-0.48832,3.5098,1.02242,0.614317275,-0.623350455,-0.49658076
1764433958.8357792,-0.48832,3.5098,1.02242,0.614317275,-0.623350455,-0.49658076
1764433958.8357792,-0.48832,3.5098,1.02242,0.614317275,-0.623350455,-0.49658076
1764433958.8357792,-0.48832,3.5098,1.02242,0.614317275,-0.623350455,-0.49658076
1764433958.8357792,-0.48832,3.5098,1.02242,0.614317275,-0.623350455,-0.49658076
1764433958.8357792,-0.48832,3.5098,1.02242,0.614317275,-0.623350455,-0.49658076
1764433958.8357792,-0.94612,3.9676,0.62566,0.61437831,-0.623716665,-0.496641795
1764433958.8357792,-0.94612,3.9676,0.62566,0.61437831,-0.623716665,-0.496641795
1764433958.8357792,-0.94612,3.9676,0.62566,0.61437831,-0.623716665,-0.496641795
1764433958.8357792,-0.94612,3.9676,0.62566,0.61437831,-0.623716665,-0.496641795
1764433958.878898,-0.94612,3.9676,0.62566,0.61437831,-0.623716665,-0.496641795
1764433958.878898,-0.94612,3.9676,0.62566,0.61437831,-0.623716665,-0.496641795
1764433958.878898,-0.94612,3.9676,0.62566,0.61437831,-0.623716665,-0.496641795
1764433958.878898,-0.94612,3.9676,0.62566,0.61437831,-0.623716665,-0.496641795
1764433958.878898,-0.94612,3.9676,0.62566,0.61437831,-0.623716665,-0.496641795
1764433958.878898,-0.94612,3.9676,0.62566,0.61437831,-0.623716665,-0.496641795
1764433958.878898,-0.48832,4.01338,0.74774,0.6140121000000001,-0.6245101200000001,-0.49597041
1764433958.8799102,-0.48832,4.01338,0.74774,0.6140121000000001,-0.6245101200000001,-0.49597041
1764433958.8799102,-0.48832,4.01338,0.74774,0.6140121000000001,-0.6245101200000001,-0.49597041
1764433958.8799102,-0.48832,4.01338,0.74774,0.6140121000000001,-0.6245101200000001,-0.49597041
1764433958.8804157,-0.48832,4.01338,0.74774,0.6140121000000001,-0.6245101200000001,-0.49597041
1764433958.8804157,-0.48832,4.01338,0.74774,0.6140121000000001,-0.6245101200000001,-0.49597041
1764433958.8804157,-0.48832,4.01338,0.74774,0.6140121000000001,-0.6245101200000001,-0.49597041
1764433958.8804157,-0.48832,4.01338,0.74774,0.6140121000000001,-0.6245101200000001,-0.49597041
1764433958.8804157,-0.48832,4.01338,0.74774,0.6140121000000001,-0.6245101200000001,-0.49597041
1764433958.8804157,-0.48832,4.01338,0.74774,0.6140121000000001,-0.6245101200000001,-0.49597041
1764433958.8804157,-0.39676,3.64714,0.7019599999999999,0.61437831,-0.62463219,-0.49621455
1764433958.8804157,-0.39676,3.64714,0.7019599999999999,0.61437831,-0.62463219,-0.49621455
1764433958.8804157,-0.39676,3.64714,0.7019599999999999,0.61437831,-0.62463219,-0.49621455
1764433958.8804157,-0.39676,3.64714,0.7019599999999999,0.61437831,-0.62463219,-0.49621455
1764433958.8804157,-0.39676,3.64714,0.7019599999999999,0.61437831,-0.62463219,-0.49621455
1764433958.8804157,-0.39676,3.64714,0.7019599999999999,0.61437831,-0.62463219,-0.49621455
1764433958.8819454,-0.39676,3.64714,0.7019599999999999,0.61437831,-0.62463219,-0.49621455
1764433958.8819454,-0.39676,3.64714,0.7019599999999999,0.61437831,-0.62463219,-0.49621455
1764433958.9259298,-0.39676,3.64714,0.7019599999999999,0.61437831,-0.62463219,-0.49621455
1764433958.9269412,-0.39676,3.64714,0.7019599999999999,0.61437831,-0.62463219,-0.49621455
1764433958.9269412,-0.763,3.47928,0.39676,0.614195205,-0.624449085,-0.49597041
1764433958.9269412,-0.763,3.47928,0.39676,0.614195205,-0.624449085,-0.49597041
1764433958.9269412,-0.763,3.47928,0.39676,0.614195205,-0.624449085,-0.49597041
1764433958.9269412,-0.763,3.47928,0.39676,0.614195205,-0.624449085,-0.49597041
1764433958.9269412,-0.763,3.47928,0.39676,0.614195205,-0.624449085,-0.49597041
1764433958.9269412,-0.763,3.47928,0.39676,0.614195205,-0.624449085,-0.49597041
1764433958.927941,-0.763,3.47928,0.39676,0.614195205,-0.624449085,-0.49597041
1764433958.927941,-0.763,3.47928,0.39676,0.614195205,-0.624449085,-0.49597041
1764433958.928464,-0.763,3.47928,0.39676,0.614195205,-0.624449085,-0.49597041
1764433958.928464,-0.763,3.47928,0.39676,0.614195205,-0.624449085,-0.49597041
1764433958.928464,-0.10682,3.61662,0.39676,0.613828995,-0.62438805,-0.49645869
1764433958.9294722,-0.10682,3.61662,0.39676,0.613828995,-0.62438805,-0.49645869
1764433958.9294722,-0.10682,3.61662,0.39676,0.613828995,-0.62438805,-0.49645869
1764433958.9294722,-0.10682,3.61662,0.39676,0.613828995,-0.62438805,-0.49645869
1764433958.9294722,-0.10682,3.61662,0.39676,0.613828995,-0.62438805,-0.49645869
1764433958.9294722,-0.10682,3.61662,0.39676,0.613828995,-0.62438805,-0.49645869
1764433958.9294722,-0.10682,3.61662,0.39676,0.613828995,-0.62438805,-0.49645869
1764433958.9304686,-0.10682,3.61662,0.39676,0.613828995,-0.62438805,-0.49645869
1764433958.9304686,-0.10682,3.61662,0.39676,0.613828995,-0.62438805,-0.49645869
1764433958.9304686,-0.10682,3.61662,0.39676,0.613828995,-0.62438805,-0.49645869
1764433958.9309795,0.12208,3.93708,0.77826,0.61389003,-0.62426598,-0.497008005
1764433958.9309795,0.12208,3.93708,0.77826,0.61389003,-0.62426598,-0.497008005
1764433958.9741242,0.12208,3.93708,0.77826,0.61389003,-0.62426598,-0.497008005
1764433958.9770868,0.12208,3.93708,0.77826,0.61389003,-0.62426598,-0.497008005
1764433958.9770868,0.12208,3.93708,0.77826,0.61389003,-0.62426598,-0.497008005
1764433958.9770868,0.12208,3.93708,0.77826,0.61389003,-0.62426598,-0.497008005
1764433958.9770868,0.12208,3.93708,0.77826,0.61389003,-0.62426598,-0.497008005
1764433958.9770868,0.12208,3.93708,0.77826,0.61389003,-0.62426598,-0.497008005
1764433958.9770868,0.12208,3.93708,0.77826,0.61389003,-0.62426598,-0.497008005
1764433958.9770868,0.12208,3.93708,0.77826,0.61389003,-0.62426598,-0.497008005
1764433958.9770868,-0.3357199999999999,4.21176,0.88508,0.61474452,-0.62438805,-0.496763865
1764433958.9770868,-0.3357199999999999,4.21176,0.88508,0.61474452,-0.62438805,-0.496763865
1764433958.9770868,-0.3357199999999999,4.21176,0.88508,0.61474452,-0.62438805,-0.496763865
1764433958.9770868,-0.3357199999999999,4.21176,0.88508,0.61474452,-0.62438805,-0.496763865
1764433958.9770868,-0.3357199999999999,4.21176,0.88508,0.61474452,-0.62438805,-0.496763865
1764433958.9770868,-0.3357199999999999,4.21176,0.88508,0.61474452,-0.62438805,-0.496763865
1764433958.9770868,-0.3357199999999999,4.21176,0.88508,0.61474452,-0.62438805,-0.496763865
1764433958.9770868,-0.3357199999999999,4.21176,0.88508,0.61474452,-0.62438805,-0.496763865
1764433958.9770868,-0.3357199999999999,4.21176,0.88508,0.61474452,-0.62438805,-0.496763865
1764433958.9770868,-0.3357199999999999,4.21176,0.88508,0.61474452,-0.62438805,-0.496763865
1764433958.9770868,-0.06104,3.93708,0.56462,0.61450038,-0.6245101200000001,-0.496519725
1764433958.9770868,-0.06104,3.93708,0.56462,0.61450038,-0.6245101200000001,-0.496519725
1764433958.9770868,-0.06104,3.93708,0.56462,0.61450038,-0.6245101200000001,-0.496519725
1764433958.9770868,-0.06104,3.93708,0.56462,0.61450038,-0.6245101200000001,-0.496519725
1764433958.9770868,-0.06104,3.93708,0.56462,0.61450038,-0.6245101200000001,-0.496519725
1764433958.9770868,-0.06104,3.93708,0.56462,0.61450038,-0.6245101200000001,-0.496519725
1764433959.0211926,-0.06104,3.93708,0.56462,0.61450038,-0.6245101200000001,-0.496519725
1764433959.0211926,-0.06104,3.93708,0.56462,0.61450038,-0.6245101200000001,-0.496519725
1764433959.0211926,-0.06104,3.93708,0.56462,0.61450038,-0.6245101200000001,-0.496519725
1764433959.0211926,-0.06104,3.93708,0.56462,0.61450038,-0.6245101200000001,-0.496519725
1764433959.0211926,-0.48832,4.21176,0.59514,0.61462245,-0.624449085,-0.496641795
1764433959.0211926,-0.48832,4.21176,0.59514,0.61462245,-0.624449085,-0.496641795
1764433959.0211926,-0.48832,4.21176,0.59514,0.61462245,-0.624449085,-0.496641795
1764433959.0211926,-0.48832,4.21176,0.59514,0.61462245,-0.624449085,-0.496641795
1764433959.0211926,-0.48832,4.21176,0.59514,0.61462245,-0.624449085,-0.496641795
1764433959.0211926,-0.48832,4.21176,0.59514,0.61462245,-0.624449085,-0.496641795
1764433959.0211926,-0.48832,4.21176,0.59514,0.61462245,-0.624449085,-0.496641795
1764433959.0211926,-0.48832,4.21176,0.59514,0.61462245,-0.624449085,-0.496641795
1764433959.0211926,-0.48832,4.21176,0.59514,0.61462245,-0.624449085,-0.496641795
1764433959.0211926,-0.48832,4.21176,0.59514,0.61462245,-0.624449085,-0.496641795
1764433959.0211926,-0.36624,4.01338,0.71722,0.614561415,-0.624204945,-0.496153515
1764433959.0211926,-0.36624,4.01338,0.71722,0.614561415,-0.624204945,-0.496153515
1764433959.0211926,-0.36624,4.01338,0.71722,0.614561415,-0.624204945,-0.496153515
1764433959.0211926,-0.36624,4.01338,0.71722,0.614561415,-0.624204945,-0.496153515
1764433959.0211926,-0.36624,4.01338,0.71722,0.614561415,-0.624204945,-0.496153515
1764433959.0227284,-0.36624,4.01338,0.71722,0.614561415,-0.624204945,-0.496153515
1764433959.0227284,-0.36624,4.01338,0.71722,0.614561415,-0.624204945,-0.496153515
1764433959.0227284,-0.36624,4.01338,0.71722,0.614561415,-0.624204945,-0.496153515
1764433959.0227284,-0.36624,4.01338,0.71722,0.614561415,-0.624204945,-0.496153515
1764433959.0227284,-0.36624,4.01338,0.71722,0.614561415,-0.624204945,-0.496153515
1764433959.0699215,-0.7019599999999999,3.815,0.88508,0.61462245,-0.62353356,-0.49731318
1764433959.0699215,-0.7019599999999999,3.815,0.88508,0.61462245,-0.62353356,-0.49731318
1764433959.0699215,-0.7019599999999999,3.815,0.88508,0.61462245,-0.62353356,-0.49731318
1764433959.0699215,-0.7019599999999999,3.815,0.88508,0.61462245,-0.62353356,-0.49731318
1764433959.0699215,-0.7019599999999999,3.815,0.88508,0.61462245,-0.62353356,-0.49731318
1764433959.0699215,-0.7019599999999999,3.815,0.88508,0.61462245,-0.62353356,-0.49731318
1764433959.0699215,-0.7019599999999999,3.815,0.88508,0.61462245,-0.62353356,-0.49731318
1764433959.0699215,-0.7019599999999999,3.815,0.88508,0.61462245,-0.62353356,-0.49731318
1764433959.0699215,-0.7019599999999999,3.815,0.88508,0.61462245,-0.62353356,-0.49731318
1764433959.0699215,-0.7019599999999999,3.815,0.88508,0.61462245,-0.62353356,-0.49731318
1764433959.0699215,-0.62566,3.78448,0.82404,0.61462245,-0.623716665,-0.496885935
1764433959.0699215,-0.62566,3.78448,0.82404,0.61462245,-0.623716665,-0.496885935
1764433959.0699215,-0.62566,3.78448,0.82404,0.61462245,-0.623716665,-0.496885935
1764433959.0699215,-0.62566,3.78448,0.82404,0.61462245,-0.623716665,-0.496885935
1764433959.0699215,-0.62566,3.78448,0.82404,0.61462245,-0.623716665,-0.496885935
1764433959.0699215,-0.62566,3.78448,0.82404,0.61462245,-0.623716665,-0.496885935
1764433959.0699215,-0.62566,3.78448,0.82404,0.61462245,-0.623716665,-0.496885935
1764433959.0699215,-0.62566,3.78448,0.82404,0.61462245,-0.623716665,-0.496885935
1764433959.0699215,-0.62566,3.78448,0.82404,0.61462245,-0.623716665,-0.496885935
1764433959.0699215,-0.62566,3.78448,0.82404,0.61462245,-0.623716665,-0.496885935
1764433959.0699215,-0.3815,3.93708,0.47306,0.614561415,-0.6245101200000001,-0.49597041
1764433959.0699215,-0.3815,3.93708,0.47306,0.614561415,-0.6245101200000001,-0.49597041
1764433959.1171155,-0.3815,3.93708,0.47306,0.614561415,-0.6245101200000001,-0.49597041
1764433959.1171155,-0.3815,3.93708,0.47306,0.614561415,-0.6245101200000001,-0.49597041
1764433959.1171155,-0.3815,3.93708,0.47306,0.614561415,-0.6245101200000001,-0.49597041
1764433959.1171155,-0.3815,3.93708,0.47306,0.614561415,-0.6245101200000001,-0.49597041
1764433959.1171155,-0.3815,3.93708,0.47306,0.614561415,-0.6245101200000001,-0.49597041
1764433959.1171155,-0.3815,3.93708,0.47306,0.614561415,-0.6245101200000001,-0.49597041
1764433959.1171155,-0.3815,3.93708,0.47306,0.614561415,-0.6245101200000001,-0.49597041
1764433959.1171155,-0.3815,3.93708,0.47306,0.614561415,-0.6245101200000001,-0.49597041
1764433959.1171155,-0.1678599999999999,4.1965,0.42728,0.61450038,-0.624327015,-0.495543165
1764433959.1171155,-0.1678599999999999,4.1965,0.42728,0.61450038,-0.624327015,-0.495543165
1764433959.1171155,-0.1678599999999999,4.1965,0.42728,0.61450038,-0.624327015,-0.495543165
1764433959.1171155,-0.1678599999999999,4.1965,0.42728,0.61450038,-0.624327015,-0.495543165
1764433959.1171155,-0.1678599999999999,4.1965,0.42728,0.61450038,-0.624327015,-0.495543165
1764433959.1171155,-0.1678599999999999,4.1965,0.42728,0.61450038,-0.624327015,-0.495543165
1764433959.1171155,-0.1678599999999999,4.1965,0.42728,0.61450038,-0.624327015,-0.495543165
1764433959.1171155,-0.1678599999999999,4.1965,0.42728,0.61450038,-0.624327015,-0.495543165
1764433959.1171155,-0.1678599999999999,4.1965,0.42728,0.61450038,-0.624327015,-0.495543165
1764433959.1171155,-0.1678599999999999,4.1965,0.42728,0.61450038,-0.624327015,-0.495543165
1764433959.1171155,-0.41202,3.9676,0.6409199999999999,0.614805555,-0.625059435,-0.49487178
1764433959.1171155,-0.41202,3.9676,0.6409199999999999,0.614805555,-0.625059435,-0.49487178
1764433959.1171155,-0.41202,3.9676,0.6409199999999999,0.614805555,-0.625059435,-0.49487178
1764433959.1171155,-0.41202,3.9676,0.6409199999999999,0.614805555,-0.625059435,-0.49487178
1764433959.1171155,-0.41202,3.9676,0.6409199999999999,0.614805555,-0.625059435,-0.49487178
1764433959.1171155,-0.41202,3.9676,0.6409199999999999,0.614805555,-0.625059435,-0.49487178
1764433959.161105,-0.41202,3.9676,0.6409199999999999,0.614805555,-0.625059435,-0.49487178
1764433959.161105,-0.41202,3.9676,0.6409199999999999,0.614805555,-0.625059435,-0.49487178
1764433959.161105,-0.41202,3.9676,0.6409199999999999,0.614805555,-0.625059435,-0.49487178
1764433959.161105,-0.41202,3.9676,0.6409199999999999,0.614805555,-0.625059435,-0.49487178
1764433959.161105,-0.1525999999999999,4.1202,0.7019599999999999,0.614317275,-0.624571155,-0.495176955
1764433959.161105,-0.1525999999999999,4.1202,0.7019599999999999,0.614317275,-0.624571155,-0.495176955
1764433959.161105,-0.1525999999999999,4.1202,0.7019599999999999,0.614317275,-0.624571155,-0.495176955
1764433959.161105,-0.1525999999999999,4.1202,0.7019599999999999,0.614317275,-0.624571155,-0.495176955
1764433959.161105,-0.1525999999999999,4.1202,0.7019599999999999,0.614317275,-0.624571155,-0.495176955
1764433959.1626494,-0.1525999999999999,4.1202,0.7019599999999999,0.614317275,-0.624571155,-0.495176955
1764433959.1626494,-0.1525999999999999,4.1202,0.7019599999999999,0.614317275,-0.624571155,-0.495176955
1764433959.1626494,-0.1525999999999999,4.1202,0.7019599999999999,0.614317275,-0.624571155,-0.495176955
1764433959.1626494,-0.1525999999999999,4.1202,0.7019599999999999,0.614317275,-0.624571155,-0.495176955
1764433959.1626494,-0.1525999999999999,4.1202,0.7019599999999999,0.614317275,-0.624571155,-0.495176955
1764433959.1626494,-0.12208,3.84552,0.79352,0.614805555,-0.624693225,-0.49536006
1764433959.1626494,-0.12208,3.84552,0.79352,0.614805555,-0.624693225,-0.49536006
1764433959.1626494,-0.12208,3.84552,0.79352,0.614805555,-0.624693225,-0.49536006
1764433959.1626494,-0.12208,3.84552,0.79352,0.614805555,-0.624693225,-0.49536006
1764433959.1631892,-0.12208,3.84552,0.79352,0.614805555,-0.624693225,-0.49536006
1764433959.1631892,-0.12208,3.84552,0.79352,0.614805555,-0.624693225,-0.49536006
1764433959.1631892,-0.12208,3.84552,0.79352,0.614805555,-0.624693225,-0.49536006
1764433959.1631892,-0.12208,3.84552,0.79352,0.614805555,-0.624693225,-0.49536006
1764433959.1631892,-0.12208,3.84552,0.79352,0.614805555,-0.624693225,-0.49536006
1764433959.1631892,-0.12208,3.84552,0.79352,0.614805555,-0.624693225,-0.49536006
1764433959.207416,-0.13734,4.0439,0.6103999999999999,0.6150496950000001,-0.6245101200000001,-0.49572627
1764433959.207416,-0.13734,4.0439,0.6103999999999999,0.6150496950000001,-0.6245101200000001,-0.49572627
1764433959.207416,-0.13734,4.0439,0.6103999999999999,0.6150496950000001,-0.6245101200000001,-0.49572627
1764433959.207416,-0.13734,4.0439,0.6103999999999999,0.6150496950000001,-0.6245101200000001,-0.49572627
1764433959.207416,-0.13734,4.0439,0.6103999999999999,0.6150496950000001,-0.6245101200000001,-0.49572627
1764433959.207416,-0.13734,4.0439,0.6103999999999999,0.6150496950000001,-0.6245101200000001,-0.49572627
1764433959.207416,-0.13734,4.0439,0.6103999999999999,0.6150496950000001,-0.6245101200000001,-0.49572627
1764433959.207416,-0.13734,4.0439,0.6103999999999999,0.6150496950000001,-0.6245101200000001,-0.49572627
1764433959.207416,-0.13734,4.0439,0.6103999999999999,0.6150496950000001,-0.6245101200000001,-0.49572627
1764433959.207416,-0.13734,4.0439,0.6103999999999999,0.6150496950000001,-0.6245101200000001,-0.49572627
1764433959.207416,-0.0762999999999999,4.02864,0.59514,0.615415905,-0.62475426,-0.49536006
1764433959.2092452,-0.0762999999999999,4.02864,0.59514,0.615415905,-0.62475426,-0.49536006
1764433959.2092452,-0.0762999999999999,4.02864,0.59514,0.615415905,-0.62475426,-0.49536006
1764433959.2092452,-0.0762999999999999,4.02864,0.59514,0.615415905,-0.62475426,-0.49536006
1764433959.2092452,-0.0762999999999999,4.02864,0.59514,0.615415905,-0.62475426,-0.49536006
1764433959.2092452,-0.0762999999999999,4.02864,0.59514,0.615415905,-0.62475426,-0.49536006
1764433959.2092452,-0.0762999999999999,4.02864,0.59514,0.615415905,-0.62475426,-0.49536006
1764433959.2092452,-0.0762999999999999,4.02864,0.59514,0.615415905,-0.62475426,-0.49536006
1764433959.2092452,-0.0762999999999999,4.02864,0.59514,0.615415905,-0.62475426,-0.49536006
1764433959.2092452,-0.0762999999999999,4.02864,0.59514,0.615415905,-0.62475426,-0.49536006
1764433959.2092452,-0.6103999999999999,3.75396,0.59514,0.61511073,-0.624693225,-0.495665235
1764433959.2092452,-0.6103999999999999,3.75396,0.59514,0.61511073,-0.624693225,-0.495665235
1764433959.2580855,-0.6103999999999999,3.75396,0.59514,0.61511073,-0.624693225,-0.495665235
1764433959.2580855,-0.6103999999999999,3.75396,0.59514,0.61511073,-0.624693225,-0.495665235
1764433959.2580855,-0.6103999999999999,3.75396,0.59514,0.61511073,-0.624693225,-0.495665235
1764433959.2580855,-0.6103999999999999,3.75396,0.59514,0.61511073,-0.624693225,-0.495665235
1764433959.2580855,-0.6103999999999999,3.75396,0.59514,0.61511073,-0.624693225,-0.495665235
1764433959.2580855,-0.6103999999999999,3.75396,0.59514,0.61511073,-0.624693225,-0.495665235
1764433959.2580855,-0.6103999999999999,3.75396,0.59514,0.61511073,-0.624693225,-0.495665235
1764433959.2580855,-0.6103999999999999,3.75396,0.59514,0.61511073,-0.624693225,-0.495665235
1764433959.2580855,-0.21364,3.86078,0.57988,0.6152328,-0.624571155,-0.495421095
1764433959.2580855,-0.21364,3.86078,0.57988,0.6152328,-0.624571155,-0.495421095
1764433959.2580855,-0.21364,3.86078,0.57988,0.6152328,-0.624571155,-0.495421095
1764433959.2580855,-0.21364,3.86078,0.57988,0.6152328,-0.624571155,-0.495421095
1764433959.2580855,-0.21364,3.86078,0.57988,0.6152328,-0.624571155,-0.495421095
1764433959.2580855,-0.21364,3.86078,0.57988,0.6152328,-0.624571155,-0.495421095
1764433959.2580855,-0.21364,3.86078,0.57988,0.6152328,-0.624571155,-0.495421095
1764433959.2580855,-0.21364,3.86078,0.57988,0.6152328,-0.624571155,-0.495421095
1764433959.2580855,-0.21364,3.86078,0.57988,0.6152328,-0.624571155,-0.495421095
1764433959.2580855,-0.21364,3.86078,0.57988,0.6152328,-0.624571155,-0.495421095
1764433959.2580855,-0.0762999999999999,3.75396,0.28994,0.61376796,-0.62524254,-0.495176955
1764433959.2580855,-0.0762999999999999,3.75396,0.28994,0.61376796,-0.62524254,-0.495176955
1764433959.2580855,-0.0762999999999999,3.75396,0.28994,0.61376796,-0.62524254,-0.495176955
1764433959.2580855,-0.0762999999999999,3.75396,0.28994,0.61376796,-0.62524254,-0.495176955
1764433959.2590923,-0.0762999999999999,3.75396,0.28994,0.61376796,-0.62524254,-0.495176955
1764433959.2590923,-0.0762999999999999,3.75396,0.28994,0.61376796,-0.62524254,-0.495176955
1764433959.3036754,-0.0762999999999999,3.75396,0.28994,0.61376796,-0.62524254,-0.495176955
1764433959.3036754,-0.0762999999999999,3.75396,0.28994,0.61376796,-0.62524254,-0.495176955
1764433959.304418,-0.0762999999999999,3.75396,0.28994,0.61376796,-0.62524254,-0.495176955
1764433959.304418,-0.0762999999999999,3.75396,0.28994,0.61376796,-0.62524254,-0.495176955
1764433959.304418,-0.2289,3.99812,0.82404,0.61425624,-0.626280135,-0.494932815
1764433959.304418,-0.2289,3.99812,0.82404,0.61425624,-0.626280135,-0.494932815
1764433959.304418,-0.2289,3.99812,0.82404,0.61425624,-0.626280135,-0.494932815
1764433959.304418,-0.2289,3.99812,0.82404,0.61425624,-0.626280135,-0.494932815
1764433959.304418,-0.2289,3.99812,0.82404,0.61425624,-0.626280135,-0.494932815
1764433959.304418,-0.2289,3.99812,0.82404,0.61425624,-0.626280135,-0.494932815
1764433959.304418,-0.2289,3.99812,0.82404,0.61425624,-0.626280135,-0.494932815
1764433959.304418,-0.2289,3.99812,0.82404,0.61425624,-0.626280135,-0.494932815
1764433959.304418,-0.2289,3.99812,0.82404,0.61425624,-0.626280135,-0.494932815
1764433959.304418,-0.2289,3.99812,0.82404,0.61425624,-0.626280135,-0.494932815
1764433959.304418,-0.21364,4.1202,0.54936,0.6152328,-0.626035995,-0.494078325
1764433959.304418,-0.21364,4.1202,0.54936,0.6152328,-0.626035995,-0.494078325
1764433959.304418,-0.21364,4.1202,0.54936,0.6152328,-0.626035995,-0.494078325
1764433959.304418,-0.21364,4.1202,0.54936,0.6152328,-0.626035995,-0.494078325
1764433959.304418,-0.21364,4.1202,0.54936,0.6152328,-0.626035995,-0.494078325
1764433959.304418,-0.21364,4.1202,0.54936,0.6152328,-0.626035995,-0.494078325
1764433959.304418,-0.21364,4.1202,0.54936,0.6152328,-0.626035995,-0.494078325
1764433959.304418,-0.21364,4.1202,0.54936,0.6152328,-0.626035995,-0.494078325
1764433959.304418,-0.21364,4.1202,0.54936,0.6152328,-0.626035995,-0.494078325
1764433959.304418,-0.21364,4.1202,0.54936,0.6152328,-0.626035995,-0.494078325
1764433959.3493795,-0.7019599999999999,3.57084,0.59514,0.615660045,-0.62536461,-0.49487178
1764433959.3493795,-0.7019599999999999,3.57084,0.59514,0.615660045,-0.62536461,-0.49487178
1764433959.3493795,-0.7019599999999999,3.57084,0.59514,0.615660045,-0.62536461,-0.49487178
1764433959.3493795,-0.7019599999999999,3.57084,0.59514,0.615660045,-0.62536461,-0.49487178
1764433959.3493795,-0.7019599999999999,3.57084,0.59514,0.615660045,-0.62536461,-0.49487178
1764433959.3493795,-0.7019599999999999,3.57084,0.59514,0.615660045,-0.62536461,-0.49487178
1764433959.3493795,-0.7019599999999999,3.57084,0.59514,0.615660045,-0.62536461,-0.49487178
1764433959.3493795,-0.7019599999999999,3.57084,0.59514,0.615660045,-0.62536461,-0.49487178
1764433959.3493795,-0.7019599999999999,3.57084,0.59514,0.615660045,-0.62536461,-0.49487178
1764433959.3493795,-0.7019599999999999,3.57084,0.59514,0.615660045,-0.62536461,-0.49487178
1764433959.3493795,-0.8087799999999999,3.4335,0.77826,0.615660045,-0.62573082,-0.49499385
1764433959.3493795,-0.8087799999999999,3.4335,0.77826,0.615660045,-0.62573082,-0.49499385
1764433959.3493795,-0.8087799999999999,3.4335,0.77826,0.615660045,-0.62573082,-0.49499385
1764433959.3493795,-0.8087799999999999,3.4335,0.77826,0.615660045,-0.62573082,-0.49499385
1764433959.3493795,-0.8087799999999999,3.4335,0.77826,0.615660045,-0.62573082,-0.49499385
1764433959.3493795,-0.8087799999999999,3.4335,0.77826,0.615660045,-0.62573082,-0.49499385
1764433959.3493795,-0.8087799999999999,3.4335,0.77826,0.615660045,-0.62573082,-0.49499385
1764433959.3508852,-0.8087799999999999,3.4335,0.77826,0.615660045,-0.62573082,-0.49499385
1764433959.3508852,-0.8087799999999999,3.4335,0.77826,0.615660045,-0.62573082,-0.49499385
1764433959.3508852,-0.8087799999999999,3.4335,0.77826,0.615660045,-0.62573082,-0.49499385
1764433959.397702,-0.5341,3.61662,0.6409199999999999,0.614683485,-0.6255477150000001,-0.49401729
1764433959.397702,-0.5341,3.61662,0.6409199999999999,0.614683485,-0.6255477150000001,-0.49401729
1764433959.397702,-0.5341,3.61662,0.6409199999999999,0.614683485,-0.6255477150000001,-0.49401729
1764433959.397702,-0.5341,3.61662,0.6409199999999999,0.614683485,-0.6255477150000001,-0.49401729
1764433959.397702,-0.5341,3.61662,0.6409199999999999,0.614683485,-0.6255477150000001,-0.49401729
1764433959.397702,-0.5341,3.61662,0.6409199999999999,0.614683485,-0.6255477150000001,-0.49401729
1764433959.397702,-0.5341,3.61662,0.6409199999999999,0.614683485,-0.6255477150000001,-0.49401729
1764433959.397702,-0.5341,3.61662,0.6409199999999999,0.614683485,-0.6255477150000001,-0.49401729
1764433959.397702,-0.5341,3.61662,0.6409199999999999,0.614683485,-0.6255477150000001,-0.49401729
1764433959.397702,-0.5341,3.61662,0.6409199999999999,0.614683485,-0.6255477150000001,-0.49401729
1764433959.397702,-0.51884,3.55558,0.77826,0.61437831,-0.62548668,-0.493834185
1764433959.397702,-0.51884,3.55558,0.77826,0.61437831,-0.62548668,-0.493834185
1764433959.397702,-0.51884,3.55558,0.77826,0.61437831,-0.62548668,-0.493834185
1764433959.397702,-0.51884,3.55558,0.77826,0.61437831,-0.62548668,-0.493834185
1764433959.397702,-0.51884,3.55558,0.77826,0.61437831,-0.62548668,-0.493834185
1764433959.397702,-0.51884,3.55558,0.77826,0.61437831,-0.62548668,-0.493834185
1764433959.397702,-0.51884,3.55558,0.77826,0.61437831,-0.62548668,-0.493834185
1764433959.397702,-0.51884,3.55558,0.77826,0.61437831,-0.62548668,-0.493834185
1764433959.397702,-0.51884,3.55558,0.77826,0.61437831,-0.62548668,-0.493834185
1764433959.3987055,-0.51884,3.55558,0.77826,0.61437831,-0.62548668,-0.493834185
1764433959.3987055,-0.5341,3.41824,0.41202,0.614561415,-0.625425645,-0.49377315
1764433959.3987055,-0.5341,3.41824,0.41202,0.614561415,-0.625425645,-0.49377315
1764433959.3987055,-0.5341,3.41824,0.41202,0.614561415,-0.625425645,-0.49377315
1764433959.3987055,-0.5341,3.41824,0.41202,0.614561415,-0.625425645,-0.49377315
1764433959.3987055,-0.5341,3.41824,0.41202,0.614561415,-0.625425645,-0.49377315
1764433959.3987055,-0.5341,3.41824,0.41202,0.614561415,-0.625425645,-0.49377315
1764433959.4431207,-0.5341,3.41824,0.41202,0.614561415,-0.625425645,-0.49377315
1764433959.4431207,-0.5341,3.41824,0.41202,0.614561415,-0.625425645,-0.49377315
1764433959.4431207,-0.5341,3.41824,0.41202,0.614561415,-0.625425645,-0.49377315
1764433959.4431207,-0.5341,3.41824,0.41202,0.614561415,-0.625425645,-0.49377315
1764433959.4436464,-0.47306,3.86078,0.7019599999999999,0.614805555,-0.62487633,-0.494566605
1764433959.4436464,-0.47306,3.86078,0.7019599999999999,0.614805555,-0.62487633,-0.494566605
1764433959.4436464,-0.47306,3.86078,0.7019599999999999,0.614805555,-0.62487633,-0.494566605
1764433959.4436464,-0.47306,3.86078,0.7019599999999999,0.614805555,-0.62487633,-0.494566605
1764433959.4436464,-0.47306,3.86078,0.7019599999999999,0.614805555,-0.62487633,-0.494566605
1764433959.4436464,-0.47306,3.86078,0.7019599999999999,0.614805555,-0.62487633,-0.494566605
1764433959.4436464,-0.47306,3.86078,0.7019599999999999,0.614805555,-0.62487633,-0.494566605
1764433959.4436464,-0.47306,3.86078,0.7019599999999999,0.614805555,-0.62487633,-0.494566605
1764433959.4436464,-0.47306,3.86078,0.7019599999999999,0.614805555,-0.62487633,-0.494566605
1764433959.4436464,-0.47306,3.86078,0.7019599999999999,0.614805555,-0.62487633,-0.494566605
1764433959.4436464,-0.79352,3.63188,0.44254,0.6150496950000001,-0.62524254,-0.49511592
1764433959.4436464,-0.79352,3.63188,0.44254,0.6150496950000001,-0.62524254,-0.49511592
1764433959.4436464,-0.79352,3.63188,0.44254,0.6150496950000001,-0.62524254,-0.49511592
1764433959.4436464,-0.79352,3.63188,0.44254,0.6150496950000001,-0.62524254,-0.49511592
1764433959.4436464,-0.79352,3.63188,0.44254,0.6150496950000001,-0.62524254,-0.49511592
1764433959.4436464,-0.79352,3.63188,0.44254,0.6150496950000001,-0.62524254,-0.49511592
1764433959.4436464,-0.79352,3.63188,0.44254,0.6150496950000001,-0.62524254,-0.49511592
1764433959.4436464,-0.79352,3.63188,0.44254,0.6150496950000001,-0.62524254,-0.49511592
1764433959.4887145,-0.79352,3.63188,0.44254,0.6150496950000001,-0.62524254,-0.49511592
1764433959.4887145,-0.79352,3.63188,0.44254,0.6150496950000001,-0.62524254,-0.49511592
1764433959.4887145,-0.39676,3.5098,0.6867,0.61535487,-0.62524254,-0.49536006
1764433959.4887145,-0.39676,3.5098,0.6867,0.61535487,-0.62524254,-0.49536006
1764433959.4887145,-0.39676,3.5098,0.6867,0.61535487,-0.62524254,-0.49536006
1764433959.4887145,-0.39676,3.5098,0.6867,0.61535487,-0.62524254,-0.49536006
1764433959.4887145,-0.39676,3.5098,0.6867,0.61535487,-0.62524254,-0.49536006
1764433959.4887145,-0.39676,3.5098,0.6867,0.61535487,-0.62524254,-0.49536006
1764433959.4887145,-0.39676,3.5098,0.6867,0.61535487,-0.62524254,-0.49536006
1764433959.4887145,-0.39676,3.5098,0.6867,0.61535487,-0.62524254,-0.49536006
1764433959.4887145,-0.39676,3.5098,0.6867,0.61535487,-0.62524254,-0.49536006
1764433959.4887145,-0.39676,3.5098,0.6867,0.61535487,-0.62524254,-0.49536006
1764433959.4887145,-0.57988,3.44876,0.77826,0.61584315,-0.62402184,-0.494688675
1764433959.4887145,-0.57988,3.44876,0.77826,0.61584315,-0.62402184,-0.494688675
1764433959.4887145,-0.57988,3.44876,0.77826,0.61584315,-0.62402184,-0.494688675
1764433959.4887145,-0.57988,3.44876,0.77826,0.61584315,-0.62402184,-0.494688675
1764433959.4887145,-0.57988,3.44876,0.77826,0.61584315,-0.62402184,-0.494688675
1764433959.4887145,-0.57988,3.44876,0.77826,0.61584315,-0.62402184,-0.494688675
1764433959.4887145,-0.57988,3.44876,0.77826,0.61584315,-0.62402184,-0.494688675
1764433959.4887145,-0.57988,3.44876,0.77826,0.61584315,-0.62402184,-0.494688675
1764433959.4897168,-0.57988,3.44876,0.77826,0.61584315,-0.62402184,-0.494688675
1764433959.4897168,-0.57988,3.44876,0.77826,0.61584315,-0.62402184,-0.494688675
1764433959.4897168,-0.25942,3.52506,0.50358,0.61498866,-0.62426598,-0.49487178
1764433959.4897168,-0.25942,3.52506,0.50358,0.61498866,-0.62426598,-0.49487178
1764433959.532761,-0.25942,3.52506,0.50358,0.61498866,-0.62426598,-0.49487178
1764433959.532761,-0.25942,3.52506,0.50358,0.61498866,-0.62426598,-0.49487178
1764433959.532761,-0.25942,3.52506,0.50358,0.61498866,-0.62426598,-0.49487178
1764433959.532761,-0.25942,3.52506,0.50358,0.61498866,-0.62426598,-0.49487178
1764433959.532761,-0.25942,3.52506,0.50358,0.61498866,-0.62426598,-0.49487178
1764433959.532761,-0.25942,3.52506,0.50358,0.61498866,-0.62426598,-0.49487178
1764433959.532761,-0.25942,3.52506,0.50358,0.61498866,-0.62426598,-0.49487178
1764433959.532761,-0.25942,3.52506,0.50358,0.61498866,-0.62426598,-0.49487178
1764433959.532761,-0.42728,3.49454,0.41202,0.615171765,-0.6245101200000001,-0.49499385
1764433959.532761,-0.42728,3.49454,0.41202,0.615171765,-0.6245101200000001,-0.49499385
1764433959.532761,-0.42728,3.49454,0.41202,0.615171765,-0.6245101200000001,-0.49499385
1764433959.532761,-0.42728,3.49454,0.41202,0.615171765,-0.6245101200000001,-0.49499385
1764433959.532761,-0.42728,3.49454,0.41202,0.615171765,-0.6245101200000001,-0.49499385
1764433959.532761,-0.42728,3.49454,0.41202,0.615171765,-0.6245101200000001,-0.49499385
1764433959.5342803,-0.42728,3.49454,0.41202,0.615171765,-0.6245101200000001,-0.49499385
1764433959.5342803,-0.42728,3.49454,0.41202,0.615171765,-0.6245101200000001,-0.49499385
1764433959.5342803,-0.42728,3.49454,0.41202,0.615171765,-0.6245101200000001,-0.49499385
1764433959.5342803,-0.42728,3.49454,0.41202,0.615171765,-0.6245101200000001,-0.49499385
1764433959.5342803,-0.65618,3.61662,0.39676,0.61474452,-0.62512047,-0.494200395
1764433959.5342803,-0.65618,3.61662,0.39676,0.61474452,-0.62512047,-0.494200395
1764433959.5342803,-0.65618,3.61662,0.39676,0.61474452,-0.62512047,-0.494200395
1764433959.5342803,-0.65618,3.61662,0.39676,0.61474452,-0.62512047,-0.494200395
1764433959.5342803,-0.65618,3.61662,0.39676,0.61474452,-0.62512047,-0.494200395
1764433959.5342803,-0.65618,3.61662,0.39676,0.61474452,-0.62512047,-0.494200395
1764433959.5778892,-0.65618,3.61662,0.39676,0.61474452,-0.62512047,-0.494200395
1764433959.5778892,-0.65618,3.61662,0.39676,0.61474452,-0.62512047,-0.494200395
1764433959.5778892,-0.65618,3.61662,0.39676,0.61474452,-0.62512047,-0.494200395
1764433959.5778892,-0.65618,3.61662,0.39676,0.61474452,-0.62512047,-0.494200395
1764433959.5778892,-0.5341,3.9676,0.85456,0.614805555,-0.625791855,-0.494200395
1764433959.5778892,-0.5341,3.9676,0.85456,0.614805555,-0.625791855,-0.494200395
1764433959.578895,-0.5341,3.9676,0.85456,0.614805555,-0.625791855,-0.494200395
1764433959.5794032,-0.5341,3.9676,0.85456,0.614805555,-0.625791855,-0.494200395
1764433959.5794032,-0.5341,3.9676,0.85456,0.614805555,-0.625791855,-0.494200395
1764433959.5794032,-0.5341,3.9676,0.85456,0.614805555,-0.625791855,-0.494200395
1764433959.5794032,-0.5341,3.9676,0.85456,0.614805555,-0.625791855,-0.494200395
1764433959.5794032,-0.5341,3.9676,0.85456,0.614805555,-0.625791855,-0.494200395
1764433959.580907,-0.5341,3.9676,0.85456,0.614805555,-0.625791855,-0.494200395
1764433959.580907,-0.5341,3.9676,0.85456,0.614805555,-0.625791855,-0.494200395
1764433959.580907,-0.74774,3.86078,0.57988,0.6150496950000001,-0.62585289,-0.4943835
1764433959.580907,-0.74774,3.86078,0.57988,0.6150496950000001,-0.62585289,-0.4943835
1764433959.582924,-0.74774,3.86078,0.57988,0.6150496950000001,-0.62585289,-0.4943835
1764433959.582924,-0.74774,3.86078,0.57988,0.6150496950000001,-0.62585289,-0.4943835
1764433959.582924,-0.74774,3.86078,0.57988,0.6150496950000001,-0.62585289,-0.4943835
1764433959.582924,-0.74774,3.86078,0.57988,0.6150496950000001,-0.62585289,-0.4943835
1764433959.582924,-0.74774,3.86078,0.57988,0.6150496950000001,-0.62585289,-0.4943835
1764433959.582924,-0.74774,3.86078,0.57988,0.6150496950000001,-0.62585289,-0.4943835
1764433959.6262636,-0.74774,3.86078,0.57988,0.6150496950000001,-0.62585289,-0.4943835
1764433959.6262636,-0.74774,3.86078,0.57988,0.6150496950000001,-0.62585289,-0.4943835
1764433959.6262636,-1.09872,4.1202,0.59514,0.61413417,-0.62536461,-0.49401729
1764433959.6262636,-1.09872,4.1202,0.59514,0.61413417,-0.62536461,-0.49401729
1764433959.6262636,-1.09872,4.1202,0.59514,0.61413417,-0.62536461,-0.49401729
1764433959.6272736,-1.09872,4.1202,0.59514,0.61413417,-0.62536461,-0.49401729
1764433959.6272736,-1.09872,4.1202,0.59514,0.61413417,-0.62536461,-0.49401729
1764433959.6272736,-1.09872,4.1202,0.59514,0.61413417,-0.62536461,-0.49401729
1764433959.6272736,-1.09872,4.1202,0.59514,0.61413417,-0.62536461,-0.49401729
1764433959.6272736,-1.09872,4.1202,0.59514,0.61413417,-0.62536461,-0.49401729
1764433959.6272736,-1.09872,4.1202,0.59514,0.61413417,-0.62536461,-0.49401729
1764433959.6272736,-1.09872,4.1202,0.59514,0.61413417,-0.62536461,-0.49401729
1764433959.6272736,-0.6103999999999999,3.61662,0.51884,0.61413417,-0.625181505,-0.494810745
1764433959.6272736,-0.6103999999999999,3.61662,0.51884,0.61413417,-0.625181505,-0.494810745
1764433959.6272736,-0.6103999999999999,3.61662,0.51884,0.61413417,-0.625181505,-0.494810745
1764433959.6272736,-0.6103999999999999,3.61662,0.51884,0.61413417,-0.625181505,-0.494810745
1764433959.6272736,-0.6103999999999999,3.61662,0.51884,0.61413417,-0.625181505,-0.494810745
1764433959.6272736,-0.6103999999999999,3.61662,0.51884,0.61413417,-0.625181505,-0.494810745
1764433959.6272736,-0.6103999999999999,3.61662,0.51884,0.61413417,-0.625181505,-0.494810745
1764433959.6272736,-0.6103999999999999,3.61662,0.51884,0.61413417,-0.625181505,-0.494810745
1764433959.6272736,-0.6103999999999999,3.61662,0.51884,0.61413417,-0.625181505,-0.494810745
1764433959.6272736,-0.6103999999999999,3.61662,0.51884,0.61413417,-0.625181505,-0.494810745
1764433959.6272736,-0.6409199999999999,3.86078,0.85456,0.61437831,-0.625669785,-0.494688675
1764433959.6272736,-0.6409199999999999,3.86078,0.85456,0.61437831,-0.625669785,-0.494688675
1764433959.670693,-0.6409199999999999,3.86078,0.85456,0.61437831,-0.625669785,-0.494688675
1764433959.670693,-0.6409199999999999,3.86078,0.85456,0.61437831,-0.625669785,-0.494688675
1764433959.670693,-0.6409199999999999,3.86078,0.85456,0.61437831,-0.625669785,-0.494688675
1764433959.670693,-0.6409199999999999,3.86078,0.85456,0.61437831,-0.625669785,-0.494688675
1764433959.670693,-0.6409199999999999,3.86078,0.85456,0.61437831,-0.625669785,-0.494688675
1764433959.670693,-0.6409199999999999,3.86078,0.85456,0.61437831,-0.625669785,-0.494688675
1764433959.6712132,-0.6409199999999999,3.86078,0.85456,0.61437831,-0.625669785,-0.494688675
1764433959.6712132,-0.6409199999999999,3.86078,0.85456,0.61437831,-0.625669785,-0.494688675
1764433959.6712132,-0.25942,3.63188,0.6714399999999999,0.6152328,-0.62524254,-0.4943835
1764433959.6712132,-0.25942,3.63188,0.6714399999999999,0.6152328,-0.62524254,-0.4943835
1764433959.6722226,-0.25942,3.63188,0.6714399999999999,0.6152328,-0.62524254,-0.4943835
1764433959.6722226,-0.25942,3.63188,0.6714399999999999,0.6152328,-0.62524254,-0.4943835
1764433959.6722226,-0.25942,3.63188,0.6714399999999999,0.6152328,-0.62524254,-0.4943835
1764433959.6722226,-0.25942,3.63188,0.6714399999999999,0.6152328,-0.62524254,-0.4943835
