Timestamp,GyroX,GyroY,GyroZ,AccX,AccY,AccZ
1764434424.8758006,-0.6103999999999999,5.31048,0.56462,0.5941146900000001,-0.588194295,-0.55932474
1764434424.8758006,-0.6103999999999999,5.31048,0.56462,0.5941146900000001,-0.588194295,-0.55932474
1764434424.8758006,-0.6103999999999999,5.31048,0.56462,0.5941146900000001,-0.588194295,-0.55932474
1764434424.8758006,-0.6103999999999999,5.31048,0.56462,0.5941146900000001,-0.588194295,-0.55932474
1764434424.8758006,-0.6103999999999999,5.31048,0.56462,0.5941146900000001,-0.588194295,-0.55932474
1764434424.8758006,-0.6103999999999999,5.31048,0.56462,0.5941146900000001,-0.588194295,-0.55932474
1764434424.8758006,-0.6103999999999999,5.31048,0.56462,0.5941146900000001,-0.588194295,-0.55932474
1764434424.8758006,-0.6103999999999999,5.31048,0.56462,0.5941146900000001,-0.588194295,-0.55932474
1764434424.8758006,-1.6786,4.83742,0.4578,0.593687445,-0.588560505,-0.560240265
1764434424.8758006,-1.6786,4.83742,0.4578,0.593687445,-0.588560505,-0.560240265
1764434424.8758006,-1.6786,4.83742,0.4578,0.593687445,-0.588560505,-0.560240265
1764434424.8758006,-1.6786,4.83742,0.4578,0.593687445,-0.588560505,-0.560240265
1764434424.8758006,-1.6786,4.83742,0.4578,0.593687445,-0.588560505,-0.560240265
1764434424.8758006,-1.6786,4.83742,0.4578,0.593687445,-0.588560505,-0.560240265
1764434424.8758006,-1.6786,4.83742,0.4578,0.593687445,-0.588560505,-0.560240265
1764434424.8758006,-1.6786,4.83742,0.4578,0.593687445,-0.588560505,-0.560240265
1764434424.8758006,-1.6786,4.83742,0.4578,0.593687445,-0.588560505,-0.560240265
1764434424.876812,-1.6786,4.83742,0.4578,0.593687445,-0.588560505,-0.560240265
1764434424.876812,-2.09062,5.81406,0.8392999999999999,0.59313813,-0.588560505,-0.5615830350000001
1764434424.876812,-2.09062,5.81406,0.8392999999999999,0.59313813,-0.588560505,-0.5615830350000001
1764434424.876812,-2.09062,5.81406,0.8392999999999999,0.59313813,-0.588560505,-0.5615830350000001
1764434424.876812,-2.09062,5.81406,0.8392999999999999,0.59313813,-0.588560505,-0.5615830350000001
1764434424.921774,-2.09062,5.81406,0.8392999999999999,0.59313813,-0.588560505,-0.5615830350000001
1764434424.921774,-2.09062,5.81406,0.8392999999999999,0.59313813,-0.588560505,-0.5615830350000001
1764434424.921774,-2.09062,5.81406,0.8392999999999999,0.59313813,-0.588560505,-0.5615830350000001
1764434424.922786,-2.09062,5.81406,0.8392999999999999,0.59313813,-0.588560505,-0.5615830350000001
1764434424.922786,-2.09062,5.81406,0.8392999999999999,0.59313813,-0.588560505,-0.5615830350000001
1764434424.923787,-2.09062,5.81406,0.8392999999999999,0.59313813,-0.588560505,-0.5615830350000001
1764434424.923787,-1.6786,4.02864,1.12924,0.592222605,-0.58862154,-0.56384133
1764434424.923787,-1.6786,4.02864,1.12924,0.592222605,-0.58862154,-0.56384133
1764434424.923787,-1.6786,4.02864,1.12924,0.592222605,-0.58862154,-0.56384133
1764434424.923787,-1.6786,4.02864,1.12924,0.592222605,-0.58862154,-0.56384133
1764434424.924786,-1.6786,4.02864,1.12924,0.592222605,-0.58862154,-0.56384133
1764434424.924786,-1.6786,4.02864,1.12924,0.592222605,-0.58862154,-0.56384133
1764434424.924786,-1.6786,4.02864,1.12924,0.592222605,-0.58862154,-0.56384133
1764434424.924786,-1.6786,4.02864,1.12924,0.592222605,-0.58862154,-0.56384133
1764434424.924786,-1.6786,4.02864,1.12924,0.592222605,-0.58862154,-0.56384133
1764434424.924786,-1.6786,4.02864,1.12924,0.592222605,-0.58862154,-0.56384133
1764434424.924786,-1.8312,1.8312,1.46496,0.5920395,-0.588072225,-0.56591652
1764434424.924786,-1.8312,1.8312,1.46496,0.5920395,-0.588072225,-0.56591652
1764434424.924786,-1.8312,1.8312,1.46496,0.5920395,-0.588072225,-0.56591652
1764434424.924786,-1.8312,1.8312,1.46496,0.5920395,-0.588072225,-0.56591652
1764434424.924786,-1.8312,1.8312,1.46496,0.5920395,-0.588072225,-0.56591652
1764434424.9262996,-1.8312,1.8312,1.46496,0.5920395,-0.588072225,-0.56591652
1764434424.9262996,-1.8312,1.8312,1.46496,0.5920395,-0.588072225,-0.56591652
1764434424.9262996,-1.8312,1.8312,1.46496,0.5920395,-0.588072225,-0.56591652
1764434424.9666986,-1.8312,1.8312,1.46496,0.5920395,-0.588072225,-0.56591652
1764434424.9666986,-1.8312,1.8312,1.46496,0.5920395,-0.588072225,-0.56591652
1764434424.9666986,-2.88414,0.51884,1.58704,0.59289399,-0.587950155,-0.565977555
1764434424.9666986,-2.88414,0.51884,1.58704,0.59289399,-0.587950155,-0.565977555
1764434424.9666986,-2.88414,0.51884,1.58704,0.59289399,-0.587950155,-0.565977555
1764434424.9666986,-2.88414,0.51884,1.58704,0.59289399,-0.587950155,-0.565977555
1764434424.9666986,-2.88414,0.51884,1.58704,0.59289399,-0.587950155,-0.565977555
1764434424.9666986,-2.88414,0.51884,1.58704,0.59289399,-0.587950155,-0.565977555
1764434424.9666986,-2.88414,0.51884,1.58704,0.59289399,-0.587950155,-0.565977555
1764434424.9666986,-2.88414,0.51884,1.58704,0.59289399,-0.587950155,-0.565977555
1764434424.9666986,-2.88414,0.51884,1.58704,0.59289399,-0.587950155,-0.565977555
1764434424.9666986,-2.88414,0.51884,1.58704,0.59289399,-0.587950155,-0.565977555
1764434424.9666986,-2.7468,1.28184,1.46496,0.59362641,-0.5871567,-0.563780295
1764434424.9666986,-2.7468,1.28184,1.46496,0.59362641,-0.5871567,-0.563780295
1764434424.9677105,-2.7468,1.28184,1.46496,0.59362641,-0.5871567,-0.563780295
1764434424.9677105,-2.7468,1.28184,1.46496,0.59362641,-0.5871567,-0.563780295
1764434424.9677105,-2.7468,1.28184,1.46496,0.59362641,-0.5871567,-0.563780295
1764434424.9677105,-2.7468,1.28184,1.46496,0.59362641,-0.5871567,-0.563780295
1764434424.9677105,-2.7468,1.28184,1.46496,0.59362641,-0.5871567,-0.563780295
1764434424.9677105,-2.7468,1.28184,1.46496,0.59362641,-0.5871567,-0.563780295
1764434424.9677105,-2.7468,1.28184,1.46496,0.59362641,-0.5871567,-0.563780295
1764434424.9677105,-2.7468,1.28184,1.46496,0.59362641,-0.5871567,-0.563780295
1764434425.0159914,-1.93802,1.9838,0.5341,0.5932602,-0.586729455,-0.56262063
1764434425.0159914,-1.93802,1.9838,0.5341,0.5932602,-0.586729455,-0.56262063
1764434425.0159914,-1.93802,1.9838,0.5341,0.5932602,-0.586729455,-0.56262063
1764434425.0159914,-1.93802,1.9838,0.5341,0.5932602,-0.586729455,-0.56262063
1764434425.016994,-1.93802,1.9838,0.5341,0.5932602,-0.586729455,-0.56262063
1764434425.016994,-1.93802,1.9838,0.5341,0.5932602,-0.586729455,-0.56262063
1764434425.016994,-1.93802,1.9838,0.5341,0.5932602,-0.586729455,-0.56262063
1764434425.016994,-1.93802,1.9838,0.5341,0.5932602,-0.586729455,-0.56262063
1764434425.016994,-1.93802,1.9838,0.5341,0.5932602,-0.586729455,-0.56262063
1764434425.0179887,-1.93802,1.9838,0.5341,0.5932602,-0.586729455,-0.56262063
1764434425.0179887,-2.09062,3.25038,0.71722,0.592588815,-0.5871567,-0.56201028
1764434425.0179887,-2.09062,3.25038,0.71722,0.592588815,-0.5871567,-0.56201028
1764434425.0179887,-2.09062,3.25038,0.71722,0.592588815,-0.5871567,-0.56201028
1764434425.0179887,-2.09062,3.25038,0.71722,0.592588815,-0.5871567,-0.56201028
1764434425.0179887,-2.09062,3.25038,0.71722,0.592588815,-0.5871567,-0.56201028
1764434425.019501,-2.09062,3.25038,0.71722,0.592588815,-0.5871567,-0.56201028
1764434425.0199888,-2.09062,3.25038,0.71722,0.592588815,-0.5871567,-0.56201028
1764434425.020747,-2.09062,3.25038,0.71722,0.592588815,-0.5871567,-0.56201028
1764434425.020747,-2.09062,3.25038,0.71722,0.592588815,-0.5871567,-0.56201028
1764434425.021764,-2.09062,3.25038,0.71722,0.592588815,-0.5871567,-0.56201028
1764434425.021764,-0.94612,4.440659999999999,0.3815,0.59191743,-0.586729455,-0.561522
1764434425.021764,-0.94612,4.440659999999999,0.3815,0.59191743,-0.586729455,-0.561522
1764434425.021764,-0.94612,4.440659999999999,0.3815,0.59191743,-0.586729455,-0.561522
1764434425.021764,-0.94612,4.440659999999999,0.3815,0.59191743,-0.586729455,-0.561522
1764434425.0628264,-0.94612,4.440659999999999,0.3815,0.59191743,-0.586729455,-0.561522
1764434425.0628264,-0.94612,4.440659999999999,0.3815,0.59191743,-0.586729455,-0.561522
1764434425.0632343,-0.94612,4.440659999999999,0.3815,0.59191743,-0.586729455,-0.561522
1764434425.0632343,-0.94612,4.440659999999999,0.3815,0.59191743,-0.586729455,-0.561522
1764434425.0632343,-0.94612,4.440659999999999,0.3815,0.59191743,-0.586729455,-0.561522
1764434425.0632343,-0.94612,4.440659999999999,0.3815,0.59191743,-0.586729455,-0.561522
1764434425.0632343,-0.7019599999999999,4.4254,0.59514,0.59191743,-0.587095665,-0.561827175
1764434425.0632343,-0.7019599999999999,4.4254,0.59514,0.59191743,-0.587095665,-0.561827175
1764434425.0632343,-0.7019599999999999,4.4254,0.59514,0.59191743,-0.587095665,-0.561827175
1764434425.0632343,-0.7019599999999999,4.4254,0.59514,0.59191743,-0.587095665,-0.561827175
1764434425.0632343,-0.7019599999999999,4.4254,0.59514,0.59191743,-0.587095665,-0.561827175
1764434425.0632343,-0.7019599999999999,4.4254,0.59514,0.59191743,-0.587095665,-0.561827175
1764434425.0632343,-0.7019599999999999,4.4254,0.59514,0.59191743,-0.587095665,-0.561827175
1764434425.0632343,-0.7019599999999999,4.4254,0.59514,0.59191743,-0.587095665,-0.561827175
1764434425.0632343,-0.7019599999999999,4.4254,0.59514,0.59191743,-0.587095665,-0.561827175
1764434425.0632343,-0.7019599999999999,4.4254,0.59514,0.59191743,-0.587095665,-0.561827175
1764434425.0632343,-1.0682,4.8069,0.9156,0.591734325,-0.586973595,-0.563047875
1764434425.0632343,-1.0682,4.8069,0.9156,0.591734325,-0.586973595,-0.563047875
1764434425.108193,-1.0682,4.8069,0.9156,0.591734325,-0.586973595,-0.563047875
1764434425.108193,-1.0682,4.8069,0.9156,0.591734325,-0.586973595,-0.563047875
1764434425.108193,-1.0682,4.8069,0.9156,0.591734325,-0.586973595,-0.563047875
1764434425.108193,-1.0682,4.8069,0.9156,0.591734325,-0.586973595,-0.563047875
1764434425.108193,-1.0682,4.8069,0.9156,0.591734325,-0.586973595,-0.563047875
1764434425.108193,-1.0682,4.8069,0.9156,0.591734325,-0.586973595,-0.563047875
1764434425.108193,-1.0682,4.8069,0.9156,0.591734325,-0.586973595,-0.563047875
1764434425.108193,-1.0682,4.8069,0.9156,0.591734325,-0.586973595,-0.563047875
1764434425.108193,-1.57178,4.70008,1.00716,0.59191743,-0.587583945,-0.56359719
1764434425.108193,-1.57178,4.70008,1.00716,0.59191743,-0.587583945,-0.56359719
1764434425.1092005,-1.57178,4.70008,1.00716,0.59191743,-0.587583945,-0.56359719
1764434425.1092005,-1.57178,4.70008,1.00716,0.59191743,-0.587583945,-0.56359719
1764434425.1092005,-1.57178,4.70008,1.00716,0.59191743,-0.587583945,-0.56359719
1764434425.1092005,-1.57178,4.70008,1.00716,0.59191743,-0.587583945,-0.56359719
1764434425.1092005,-1.57178,4.70008,1.00716,0.59191743,-0.587583945,-0.56359719
1764434425.1092005,-1.57178,4.70008,1.00716,0.59191743,-0.587583945,-0.56359719
1764434425.1519165,-1.57178,4.70008,1.00716,0.59191743,-0.587583945,-0.56359719
1764434425.1519165,-1.57178,4.70008,1.00716,0.59191743,-0.587583945,-0.56359719
1764434425.1519165,-2.04484,3.4335,0.9003399999999999,0.592222605,-0.58703463,-0.56408547
1764434425.1519165,-2.04484,3.4335,0.9003399999999999,0.592222605,-0.58703463,-0.56408547
1764434425.1519165,-2.04484,3.4335,0.9003399999999999,0.592222605,-0.58703463,-0.56408547
1764434425.1519165,-2.04484,3.4335,0.9003399999999999,0.592222605,-0.58703463,-0.56408547
1764434425.1519165,-2.04484,3.4335,0.9003399999999999,0.592222605,-0.58703463,-0.56408547
1764434425.1529248,-2.04484,3.4335,0.9003399999999999,0.592222605,-0.58703463,-0.56408547
1764434425.1529248,-2.04484,3.4335,0.9003399999999999,0.592222605,-0.58703463,-0.56408547
1764434425.1529248,-2.04484,3.4335,0.9003399999999999,0.592222605,-0.58703463,-0.56408547
1764434425.1529248,-2.04484,3.4335,0.9003399999999999,0.592222605,-0.58703463,-0.56408547
1764434425.1529248,-2.04484,3.4335,0.9003399999999999,0.592222605,-0.58703463,-0.56408547
1764434425.1529248,-1.8006799999999998,3.29616,0.42728,0.59301606,-0.586729455,-0.565245135
1764434425.1534395,-1.8006799999999998,3.29616,0.42728,0.59301606,-0.586729455,-0.565245135
1764434425.1534395,-1.8006799999999998,3.29616,0.42728,0.59301606,-0.586729455,-0.565245135
1764434425.1534395,-1.8006799999999998,3.29616,0.42728,0.59301606,-0.586729455,-0.565245135
1764434425.1534395,-1.8006799999999998,3.29616,0.42728,0.59301606,-0.586729455,-0.565245135
1764434425.1534395,-1.8006799999999998,3.29616,0.42728,0.59301606,-0.586729455,-0.565245135
1764434425.1534395,-1.8006799999999998,3.29616,0.42728,0.59301606,-0.586729455,-0.565245135
1764434425.1534395,-1.8006799999999998,3.29616,0.42728,0.59301606,-0.586729455,-0.565245135
1764434425.1534395,-1.8006799999999998,3.29616,0.42728,0.59301606,-0.586729455,-0.565245135
1764434425.1534395,-1.8006799999999998,3.29616,0.42728,0.59301606,-0.586729455,-0.565245135
1764434425.1534395,-1.61756,3.02148,0.42728,0.5925277800000001,-0.586851525,-0.56616066
1764434425.1534395,-1.61756,3.02148,0.42728,0.5925277800000001,-0.586851525,-0.56616066
1764434425.154947,-1.61756,3.02148,0.42728,0.5925277800000001,-0.586851525,-0.56616066
1764434425.154947,-1.61756,3.02148,0.42728,0.5925277800000001,-0.586851525,-0.56616066
1764434425.2019794,-1.61756,3.02148,0.42728,0.5925277800000001,-0.586851525,-0.56616066
1764434425.2019794,-1.61756,3.02148,0.42728,0.5925277800000001,-0.586851525,-0.56616066
1764434425.2019794,-1.61756,3.02148,0.42728,0.5925277800000001,-0.586851525,-0.56616066
1764434425.2019794,-1.61756,3.02148,0.42728,0.5925277800000001,-0.586851525,-0.56616066
1764434425.2019794,-1.61756,3.02148,0.42728,0.5925277800000001,-0.586851525,-0.56616066
1764434425.2019794,-1.61756,3.02148,0.42728,0.5925277800000001,-0.586851525,-0.56616066
1764434425.2019794,-1.73964,3.00622,0.1678599999999999,0.592344675,-0.58654635,-0.565489275
1764434425.2019794,-1.73964,3.00622,0.1678599999999999,0.592344675,-0.58654635,-0.565489275
1764434425.2019794,-1.73964,3.00622,0.1678599999999999,0.592344675,-0.58654635,-0.565489275
1764434425.2019794,-1.73964,3.00622,0.1678599999999999,0.592344675,-0.58654635,-0.565489275
1764434425.2030015,-1.73964,3.00622,0.1678599999999999,0.592344675,-0.58654635,-0.565489275
1764434425.2030015,-1.73964,3.00622,0.1678599999999999,0.592344675,-0.58654635,-0.565489275
1764434425.2030015,-1.73964,3.00622,0.1678599999999999,0.592344675,-0.58654635,-0.565489275
1764434425.2030015,-1.73964,3.00622,0.1678599999999999,0.592344675,-0.58654635,-0.565489275
1764434425.2030015,-1.73964,3.00622,0.1678599999999999,0.592344675,-0.58654635,-0.565489275
1764434425.2030015,-1.73964,3.00622,0.1678599999999999,0.592344675,-0.58654635,-0.565489275
1764434425.2030015,-1.51074,3.5098,0.59514,0.592832955,-0.587217735,-0.564268575
1764434425.2030015,-1.51074,3.5098,0.59514,0.592832955,-0.587217735,-0.564268575
1764434425.2039964,-1.51074,3.5098,0.59514,0.592832955,-0.587217735,-0.564268575
1764434425.2039964,-1.51074,3.5098,0.59514,0.592832955,-0.587217735,-0.564268575
1764434425.2039964,-1.51074,3.5098,0.59514,0.592832955,-0.587217735,-0.564268575
1764434425.2039964,-1.51074,3.5098,0.59514,0.592832955,-0.587217735,-0.564268575
1764434425.2039964,-1.51074,3.5098,0.59514,0.592832955,-0.587217735,-0.564268575
1764434425.2039964,-1.51074,3.5098,0.59514,0.592832955,-0.587217735,-0.564268575
1764434425.2039964,-1.51074,3.5098,0.59514,0.592832955,-0.587217735,-0.564268575
1764434425.2039964,-1.51074,3.5098,0.59514,0.592832955,-0.587217735,-0.564268575
1764434425.2516255,-1.54126,3.7387,0.5341,0.59289399,-0.58740084,-0.563658225
1764434425.2516255,-1.54126,3.7387,0.5341,0.59289399,-0.58740084,-0.563658225
1764434425.2516255,-1.54126,3.7387,0.5341,0.59289399,-0.58740084,-0.563658225
1764434425.2516255,-1.54126,3.7387,0.5341,0.59289399,-0.58740084,-0.563658225
1764434425.2516255,-1.54126,3.7387,0.5341,0.59289399,-0.58740084,-0.563658225
1764434425.2516255,-1.54126,3.7387,0.5341,0.59289399,-0.58740084,-0.563658225
1764434425.2516255,-1.54126,3.7387,0.5341,0.59289399,-0.58740084,-0.563658225
1764434425.2516255,-1.54126,3.7387,0.5341,0.59289399,-0.58740084,-0.563658225
1764434425.2516255,-1.54126,3.7387,0.5341,0.59289399,-0.58740084,-0.563658225
1764434425.2516255,-1.54126,3.7387,0.5341,0.59289399,-0.58740084,-0.563658225
1764434425.2516255,-1.46496,4.07442,0.7019599999999999,0.59289399,-0.58691256,-0.563780295
1764434425.2516255,-1.46496,4.07442,0.7019599999999999,0.59289399,-0.58691256,-0.563780295
1764434425.2516255,-1.46496,4.07442,0.7019599999999999,0.59289399,-0.58691256,-0.563780295
1764434425.2516255,-1.46496,4.07442,0.7019599999999999,0.59289399,-0.58691256,-0.563780295
1764434425.2516255,-1.46496,4.07442,0.7019599999999999,0.59289399,-0.58691256,-0.563780295
1764434425.2516255,-1.46496,4.07442,0.7019599999999999,0.59289399,-0.58691256,-0.563780295
1764434425.2516255,-1.46496,4.07442,0.7019599999999999,0.59289399,-0.58691256,-0.563780295
1764434425.2516255,-1.46496,4.07442,0.7019599999999999,0.59289399,-0.58691256,-0.563780295
1764434425.2516255,-1.46496,4.07442,0.7019599999999999,0.59289399,-0.58691256,-0.563780295
1764434425.2516255,-1.46496,4.07442,0.7019599999999999,0.59289399,-0.58691256,-0.563780295
1764434425.2516255,-1.63282,4.1202,0.73248,0.592344675,-0.586485315,-0.56506203
1764434425.2516255,-1.63282,4.1202,0.73248,0.592344675,-0.586485315,-0.56506203
1764434425.2917223,-1.63282,4.1202,0.73248,0.592344675,-0.586485315,-0.56506203
1764434425.2917223,-1.63282,4.1202,0.73248,0.592344675,-0.586485315,-0.56506203
1764434425.2917223,-1.63282,4.1202,0.73248,0.592344675,-0.586485315,-0.56506203
1764434425.2917223,-1.63282,4.1202,0.73248,0.592344675,-0.586485315,-0.56506203
1764434425.2917223,-1.63282,4.1202,0.73248,0.592344675,-0.586485315,-0.56506203
1764434425.2917223,-1.63282,4.1202,0.73248,0.592344675,-0.586485315,-0.56506203
1764434425.2917223,-1.63282,4.1202,0.73248,0.592344675,-0.586485315,-0.56506203
1764434425.2917223,-1.63282,4.1202,0.73248,0.592344675,-0.586485315,-0.56506203
1764434425.2917223,-1.54126,3.8913,0.6409199999999999,0.592588815,-0.58666842,-0.565367205
1764434425.2917223,-1.54126,3.8913,0.6409199999999999,0.592588815,-0.58666842,-0.565367205
1764434425.2917223,-1.54126,3.8913,0.6409199999999999,0.592588815,-0.58666842,-0.565367205
1764434425.2917223,-1.54126,3.8913,0.6409199999999999,0.592588815,-0.58666842,-0.565367205
1764434425.2917223,-1.54126,3.8913,0.6409199999999999,0.592588815,-0.58666842,-0.565367205
1764434425.2917223,-1.54126,3.8913,0.6409199999999999,0.592588815,-0.58666842,-0.565367205
1764434425.2917223,-1.54126,3.8913,0.6409199999999999,0.592588815,-0.58666842,-0.565367205
1764434425.293264,-1.54126,3.8913,0.6409199999999999,0.592588815,-0.58666842,-0.565367205
1764434425.293264,-1.54126,3.8913,0.6409199999999999,0.592588815,-0.58666842,-0.565367205
1764434425.293264,-1.54126,3.8913,0.6409199999999999,0.592588815,-0.58666842,-0.565367205
1764434425.293264,-1.96854,3.60136,0.57988,0.5925277800000001,-0.586607385,-0.56493996
1764434425.293264,-1.96854,3.60136,0.57988,0.5925277800000001,-0.586607385,-0.56493996
1764434425.293264,-1.96854,3.60136,0.57988,0.5925277800000001,-0.586607385,-0.56493996
1764434425.293264,-1.96854,3.60136,0.57988,0.5925277800000001,-0.586607385,-0.56493996
1764434425.3405235,-1.96854,3.60136,0.57988,0.5925277800000001,-0.586607385,-0.56493996
1764434425.3405235,-1.96854,3.60136,0.57988,0.5925277800000001,-0.586607385,-0.56493996
1764434425.3405235,-1.96854,3.60136,0.57988,0.5925277800000001,-0.586607385,-0.56493996
1764434425.3405235,-1.96854,3.60136,0.57988,0.5925277800000001,-0.586607385,-0.56493996
1764434425.3405235,-1.96854,3.60136,0.57988,0.5925277800000001,-0.586607385,-0.56493996
1764434425.3405235,-1.96854,3.60136,0.57988,0.5925277800000001,-0.586607385,-0.56493996
1764434425.3405235,-1.28184,3.06726,1.03768,0.59240571,-0.58605807,-0.565123065
1764434425.3405235,-1.28184,3.06726,1.03768,0.59240571,-0.58605807,-0.565123065
1764434425.3405235,-1.28184,3.06726,1.03768,0.59240571,-0.58605807,-0.565123065
1764434425.342065,-1.28184,3.06726,1.03768,0.59240571,-0.58605807,-0.565123065
1764434425.342065,-1.28184,3.06726,1.03768,0.59240571,-0.58605807,-0.565123065
1764434425.342065,-1.28184,3.06726,1.03768,0.59240571,-0.58605807,-0.565123065
1764434425.342065,-1.28184,3.06726,1.03768,0.59240571,-0.58605807,-0.565123065
1764434425.342065,-1.28184,3.06726,1.03768,0.59240571,-0.58605807,-0.565123065
1764434425.342065,-1.28184,3.06726,1.03768,0.59240571,-0.58605807,-0.565123065
1764434425.342065,-1.28184,3.06726,1.03768,0.59240571,-0.58605807,-0.565123065
1764434425.342065,-2.27374,1.77016,0.96138,0.592588815,-0.586119105,-0.566099625
1764434425.342065,-2.27374,1.77016,0.96138,0.592588815,-0.586119105,-0.566099625
1764434425.342065,-2.27374,1.77016,0.96138,0.592588815,-0.586119105,-0.566099625
1764434425.342065,-2.27374,1.77016,0.96138,0.592588815,-0.586119105,-0.566099625
1764434425.342065,-2.27374,1.77016,0.96138,0.592588815,-0.586119105,-0.566099625
1764434425.342065,-2.27374,1.77016,0.96138,0.592588815,-0.586119105,-0.566099625
1764434425.342065,-2.27374,1.77016,0.96138,0.592588815,-0.586119105,-0.566099625
1764434425.342065,-2.27374,1.77016,0.96138,0.592588815,-0.586119105,-0.566099625
1764434425.342065,-2.27374,1.77016,0.96138,0.592588815,-0.586119105,-0.566099625
1764434425.342065,-2.27374,1.77016,0.96138,0.592588815,-0.586119105,-0.566099625
1764434425.342065,-2.38056,1.69386,1.17502,0.59228364,-0.586363245,-0.56713722
1764434425.342065,-2.38056,1.69386,1.17502,0.59228364,-0.586363245,-0.56713722
1764434425.3862164,-2.38056,1.69386,1.17502,0.59228364,-0.586363245,-0.56713722
1764434425.3862164,-2.38056,1.69386,1.17502,0.59228364,-0.586363245,-0.56713722
1764434425.3862164,-2.38056,1.69386,1.17502,0.59228364,-0.586363245,-0.56713722
1764434425.3872375,-2.38056,1.69386,1.17502,0.59228364,-0.586363245,-0.56713722
1764434425.3872375,-2.38056,1.69386,1.17502,0.59228364,-0.586363245,-0.56713722
1764434425.3872375,-2.38056,1.69386,1.17502,0.59228364,-0.586363245,-0.56713722
1764434425.3872375,-2.38056,1.69386,1.17502,0.59228364,-0.586363245,-0.56713722
1764434425.3872375,-2.38056,1.69386,1.17502,0.59228364,-0.586363245,-0.56713722
1764434425.3872375,-2.07536,1.77016,1.38866,0.592710885,-0.586119105,-0.56677101
1764434425.3872375,-2.07536,1.77016,1.38866,0.592710885,-0.586119105,-0.56677101
1764434425.3872375,-2.07536,1.77016,1.38866,0.592710885,-0.586119105,-0.56677101
1764434425.3872375,-2.07536,1.77016,1.38866,0.592710885,-0.586119105,-0.56677101
1764434425.3872375,-2.07536,1.77016,1.38866,0.592710885,-0.586119105,-0.56677101
1764434425.3872375,-2.07536,1.77016,1.38866,0.592710885,-0.586119105,-0.56677101
1764434425.3872375,-2.07536,1.77016,1.38866,0.592710885,-0.586119105,-0.56677101
1764434425.3872375,-2.07536,1.77016,1.38866,0.592710885,-0.586119105,-0.56677101
1764434425.3872375,-2.07536,1.77016,1.38866,0.592710885,-0.586119105,-0.56677101
1764434425.3872375,-2.07536,1.77016,1.38866,0.592710885,-0.586119105,-0.56677101
1764434425.3872375,-2.33478,1.25132,0.93086,0.592710885,-0.585997035,-0.565733415
1764434425.3872375,-2.33478,1.25132,0.93086,0.592710885,-0.585997035,-0.565733415
1764434425.3872375,-2.33478,1.25132,0.93086,0.592710885,-0.585997035,-0.565733415
1764434425.3872375,-2.33478,1.25132,0.93086,0.592710885,-0.585997035,-0.565733415
1764434425.4345975,-2.33478,1.25132,0.93086,0.592710885,-0.585997035,-0.565733415
1764434425.4345975,-2.33478,1.25132,0.93086,0.592710885,-0.585997035,-0.565733415
1764434425.4345975,-2.33478,1.25132,0.93086,0.592710885,-0.585997035,-0.565733415
1764434425.4345975,-2.33478,1.25132,0.93086,0.592710885,-0.585997035,-0.565733415
1764434425.4345975,-2.33478,1.25132,0.93086,0.592710885,-0.585997035,-0.565733415
1764434425.4345975,-2.33478,1.25132,0.93086,0.592710885,-0.585997035,-0.565733415
1764434425.4345975,-1.99906,2.30426,0.6409199999999999,0.592222605,-0.585874965,-0.56506203
1764434425.4345975,-1.99906,2.30426,0.6409199999999999,0.592222605,-0.585874965,-0.56506203
1764434425.4345975,-1.99906,2.30426,0.6409199999999999,0.592222605,-0.585874965,-0.56506203
1764434425.4345975,-1.99906,2.30426,0.6409199999999999,0.592222605,-0.585874965,-0.56506203
1764434425.4345975,-1.99906,2.30426,0.6409199999999999,0.592222605,-0.585874965,-0.56506203
1764434425.4345975,-1.99906,2.30426,0.6409199999999999,0.592222605,-0.585874965,-0.56506203
1764434425.435846,-1.99906,2.30426,0.6409199999999999,0.592222605,-0.585874965,-0.56506203
1764434425.435846,-1.99906,2.30426,0.6409199999999999,0.592222605,-0.585874965,-0.56506203
1764434425.435846,-1.99906,2.30426,0.6409199999999999,0.592222605,-0.585874965,-0.56506203
1764434425.435846,-1.99906,2.30426,0.6409199999999999,0.592222605,-0.585874965,-0.56506203
1764434425.435846,-1.00716,2.9757,0.54936,0.59142915,-0.585936,-0.564390645
1764434425.435846,-1.00716,2.9757,0.54936,0.59142915,-0.585936,-0.564390645
1764434425.435846,-1.00716,2.9757,0.54936,0.59142915,-0.585936,-0.564390645
1764434425.435846,-1.00716,2.9757,0.54936,0.59142915,-0.585936,-0.564390645
1764434425.435846,-1.00716,2.9757,0.54936,0.59142915,-0.585936,-0.564390645
1764434425.435846,-1.00716,2.9757,0.54936,0.59142915,-0.585936,-0.564390645
1764434425.435846,-1.00716,2.9757,0.54936,0.59142915,-0.585936,-0.564390645
1764434425.435846,-1.00716,2.9757,0.54936,0.59142915,-0.585936,-0.564390645
1764434425.435846,-1.00716,2.9757,0.54936,0.59142915,-0.585936,-0.564390645
1764434425.435846,-1.00716,2.9757,0.54936,0.59142915,-0.585936,-0.564390645
1764434425.435846,-0.74774,3.5098,0.42728,0.591368115,-0.58642428,-0.56481789
1764434425.435846,-0.74774,3.5098,0.42728,0.591368115,-0.58642428,-0.56481789
1764434425.435846,-0.74774,3.5098,0.42728,0.591368115,-0.58642428,-0.56481789
1764434425.435846,-0.74774,3.5098,0.42728,0.591368115,-0.58642428,-0.56481789
1764434425.481598,-0.74774,3.5098,0.42728,0.591368115,-0.58642428,-0.56481789
1764434425.481598,-0.74774,3.5098,0.42728,0.591368115,-0.58642428,-0.56481789
1764434425.481598,-0.74774,3.5098,0.42728,0.591368115,-0.58642428,-0.56481789
1764434425.4818995,-0.74774,3.5098,0.42728,0.591368115,-0.58642428,-0.56481789
1764434425.4818995,-0.74774,3.5098,0.42728,0.591368115,-0.58642428,-0.56481789
1764434425.4818995,-0.74774,3.5098,0.42728,0.591368115,-0.58642428,-0.56481789
1764434425.4818995,-0.73248,4.37962,0.74774,0.59118501,-0.58556979,-0.56530617
1764434425.4818995,-0.73248,4.37962,0.74774,0.59118501,-0.58556979,-0.56530617
1764434425.4818995,-0.73248,4.37962,0.74774,0.59118501,-0.58556979,-0.56530617
1764434425.4818995,-0.73248,4.37962,0.74774,0.59118501,-0.58556979,-0.56530617
1764434425.4818995,-0.73248,4.37962,0.74774,0.59118501,-0.58556979,-0.56530617
1764434425.4818995,-0.73248,4.37962,0.74774,0.59118501,-0.58556979,-0.56530617
1764434425.4818995,-0.73248,4.37962,0.74774,0.59118501,-0.58556979,-0.56530617
1764434425.482897,-0.73248,4.37962,0.74774,0.59118501,-0.58556979,-0.56530617
1764434425.482897,-0.73248,4.37962,0.74774,0.59118501,-0.58556979,-0.56530617
1764434425.482897,-0.73248,4.37962,0.74774,0.59118501,-0.58556979,-0.56530617
1764434425.482897,-0.5341,4.440659999999999,0.59514,0.590757765,-0.585874965,-0.56542824
1764434425.482897,-0.5341,4.440659999999999,0.59514,0.590757765,-0.585874965,-0.56542824
1764434425.482897,-0.5341,4.440659999999999,0.59514,0.590757765,-0.585874965,-0.56542824
1764434425.482897,-0.5341,4.440659999999999,0.59514,0.590757765,-0.585874965,-0.56542824
1764434425.482897,-0.5341,4.440659999999999,0.59514,0.590757765,-0.585874965,-0.56542824
1764434425.482897,-0.5341,4.440659999999999,0.59514,0.590757765,-0.585874965,-0.56542824
1764434425.5278747,-0.5341,4.440659999999999,0.59514,0.590757765,-0.585874965,-0.56542824
1764434425.5278747,-0.5341,4.440659999999999,0.59514,0.590757765,-0.585874965,-0.56542824
1764434425.5278747,-0.5341,4.440659999999999,0.59514,0.590757765,-0.585874965,-0.56542824
1764434425.5278747,-0.5341,4.440659999999999,0.59514,0.590757765,-0.585874965,-0.56542824
1764434425.5278747,-0.94612,4.62378,0.5341,0.5909408700000001,-0.585508755,-0.56652687
1764434425.5278747,-0.94612,4.62378,0.5341,0.5909408700000001,-0.585508755,-0.56652687
1764434425.5278747,-0.94612,4.62378,0.5341,0.5909408700000001,-0.585508755,-0.56652687
1764434425.5278747,-0.94612,4.62378,0.5341,0.5909408700000001,-0.585508755,-0.56652687
1764434425.5278747,-0.94612,4.62378,0.5341,0.5909408700000001,-0.585508755,-0.56652687
1764434425.5278747,-0.94612,4.62378,0.5341,0.5909408700000001,-0.585508755,-0.56652687
1764434425.5278747,-0.94612,4.62378,0.5341,0.5909408700000001,-0.585508755,-0.56652687
1764434425.5278747,-0.94612,4.62378,0.5341,0.5909408700000001,-0.585508755,-0.56652687
1764434425.5278747,-0.94612,4.62378,0.5341,0.5909408700000001,-0.585508755,-0.56652687
1764434425.5278747,-0.94612,4.62378,0.5341,0.5909408700000001,-0.585508755,-0.56652687
1764434425.5278747,-0.62566,4.01338,0.59514,0.59106294,-0.584288055,-0.5673813600000001
1764434425.5278747,-0.62566,4.01338,0.59514,0.59106294,-0.584288055,-0.5673813600000001
1764434425.5293903,-0.62566,4.01338,0.59514,0.59106294,-0.584288055,-0.5673813600000001
1764434425.5293903,-0.62566,4.01338,0.59514,0.59106294,-0.584288055,-0.5673813600000001
1764434425.5293903,-0.62566,4.01338,0.59514,0.59106294,-0.584288055,-0.5673813600000001
1764434425.5293903,-0.62566,4.01338,0.59514,0.59106294,-0.584288055,-0.5673813600000001
1764434425.5293903,-0.62566,4.01338,0.59514,0.59106294,-0.584288055,-0.5673813600000001
1764434425.5293903,-0.62566,4.01338,0.59514,0.59106294,-0.584288055,-0.5673813600000001
1764434425.5293903,-0.62566,4.01338,0.59514,0.59106294,-0.584288055,-0.5673813600000001
1764434425.5293903,-0.62566,4.01338,0.59514,0.59106294,-0.584288055,-0.5673813600000001
1764434425.5770235,-1.17502,3.29616,0.42728,0.5914901850000001,-0.584898405,-0.568052745
1764434425.5770235,-1.17502,3.29616,0.42728,0.5914901850000001,-0.584898405,-0.568052745
1764434425.5770235,-1.17502,3.29616,0.42728,0.5914901850000001,-0.584898405,-0.568052745
1764434425.5770235,-1.17502,3.29616,0.42728,0.5914901850000001,-0.584898405,-0.568052745
1764434425.5770235,-1.17502,3.29616,0.42728,0.5914901850000001,-0.584898405,-0.568052745
1764434425.5770235,-1.17502,3.29616,0.42728,0.5914901850000001,-0.584898405,-0.568052745
1764434425.5770235,-1.17502,3.29616,0.42728,0.5914901850000001,-0.584898405,-0.568052745
1764434425.5770235,-1.17502,3.29616,0.42728,0.5914901850000001,-0.584898405,-0.568052745
1764434425.5770235,-1.17502,3.29616,0.42728,0.5914901850000001,-0.584898405,-0.568052745
1764434425.5770235,-1.17502,3.29616,0.42728,0.5914901850000001,-0.584898405,-0.568052745
1764434425.5770235,-0.7019599999999999,2.83836,0.42728,0.59240571,-0.585508755,-0.56750343
1764434425.5770235,-0.7019599999999999,2.83836,0.42728,0.59240571,-0.585508755,-0.56750343
1764434425.5770235,-0.7019599999999999,2.83836,0.42728,0.59240571,-0.585508755,-0.56750343
1764434425.5770235,-0.7019599999999999,2.83836,0.42728,0.59240571,-0.585508755,-0.56750343
1764434425.5770235,-0.7019599999999999,2.83836,0.42728,0.59240571,-0.585508755,-0.56750343
1764434425.5780332,-0.7019599999999999,2.83836,0.42728,0.59240571,-0.585508755,-0.56750343
1764434425.5780332,-0.7019599999999999,2.83836,0.42728,0.59240571,-0.585508755,-0.56750343
1764434425.5780332,-0.7019599999999999,2.83836,0.42728,0.59240571,-0.585508755,-0.56750343
1764434425.5780332,-0.7019599999999999,2.83836,0.42728,0.59240571,-0.585508755,-0.56750343
1764434425.5780332,-0.7019599999999999,2.83836,0.42728,0.59240571,-0.585508755,-0.56750343
1764434425.6212316,-0.7019599999999999,3.41824,0.9919,0.59155122,-0.585752895,-0.567442395
1764434425.6212316,-0.7019599999999999,3.41824,0.9919,0.59155122,-0.585752895,-0.567442395
1764434425.622247,-0.7019599999999999,3.41824,0.9919,0.59155122,-0.585752895,-0.567442395
1764434425.622247,-0.7019599999999999,3.41824,0.9919,0.59155122,-0.585752895,-0.567442395
1764434425.622247,-0.7019599999999999,3.41824,0.9919,0.59155122,-0.585752895,-0.567442395
1764434425.622247,-0.7019599999999999,3.41824,0.9919,0.59155122,-0.585752895,-0.567442395
1764434425.622247,-0.7019599999999999,3.41824,0.9919,0.59155122,-0.585752895,-0.567442395
1764434425.622247,-0.7019599999999999,3.41824,0.9919,0.59155122,-0.585752895,-0.567442395
1764434425.622247,-0.7019599999999999,3.41824,0.9919,0.59155122,-0.585752895,-0.567442395
1764434425.622247,-0.7019599999999999,3.41824,0.9919,0.59155122,-0.585752895,-0.567442395
1764434425.622247,-0.4578,3.31142,0.59514,0.591856395,-0.585508755,-0.56701515
1764434425.622247,-0.4578,3.31142,0.59514,0.591856395,-0.585508755,-0.56701515
1764434425.622247,-0.4578,3.31142,0.59514,0.591856395,-0.585508755,-0.56701515
1764434425.622247,-0.4578,3.31142,0.59514,0.591856395,-0.585508755,-0.56701515
1764434425.622247,-0.4578,3.31142,0.59514,0.591856395,-0.585508755,-0.56701515
1764434425.622247,-0.4578,3.31142,0.59514,0.591856395,-0.585508755,-0.56701515
1764434425.622247,-0.4578,3.31142,0.59514,0.591856395,-0.585508755,-0.56701515
1764434425.622247,-0.4578,3.31142,0.59514,0.591856395,-0.585508755,-0.56701515
1764434425.622247,-0.4578,3.31142,0.59514,0.591856395,-0.585508755,-0.56701515
1764434425.622247,-0.4578,3.31142,0.59514,0.591856395,-0.585508755,-0.56701515
1764434425.622247,-0.0762999999999999,4.02864,0.8698199999999999,0.5909408700000001,-0.58532565,-0.565977555
1764434425.622247,-0.0762999999999999,4.02864,0.8698199999999999,0.5909408700000001,-0.58532565,-0.565977555
1764434425.622247,-0.0762999999999999,4.02864,0.8698199999999999,0.5909408700000001,-0.58532565,-0.565977555
1764434425.622247,-0.0762999999999999,4.02864,0.8698199999999999,0.5909408700000001,-0.58532565,-0.565977555
1764434425.6232452,-0.0762999999999999,4.02864,0.8698199999999999,0.5909408700000001,-0.58532565,-0.565977555
1764434425.6232452,-0.0762999999999999,4.02864,0.8698199999999999,0.5909408700000001,-0.58532565,-0.565977555
1764434425.6675775,-0.0762999999999999,4.02864,0.8698199999999999,0.5909408700000001,-0.58532565,-0.565977555
1764434425.6675775,-0.0762999999999999,4.02864,0.8698199999999999,0.5909408700000001,-0.58532565,-0.565977555
1764434425.6675775,-0.0762999999999999,4.02864,0.8698199999999999,0.5909408700000001,-0.58532565,-0.565977555
1764434425.6675775,-0.0762999999999999,4.02864,0.8698199999999999,0.5909408700000001,-0.58532565,-0.565977555
1764434425.6675775,-0.13734,4.852679999999999,0.8698199999999999,0.59155122,-0.585508755,-0.56530617
1764434425.6675775,-0.13734,4.852679999999999,0.8698199999999999,0.59155122,-0.585508755,-0.56530617
1764434425.6675775,-0.13734,4.852679999999999,0.8698199999999999,0.59155122,-0.585508755,-0.56530617
1764434425.6675775,-0.13734,4.852679999999999,0.8698199999999999,0.59155122,-0.585508755,-0.56530617
1764434425.6675775,-0.13734,4.852679999999999,0.8698199999999999,0.59155122,-0.585508755,-0.56530617
1764434425.6675775,-0.13734,4.852679999999999,0.8698199999999999,0.59155122,-0.585508755,-0.56530617
1764434425.6675775,-0.13734,4.852679999999999,0.8698199999999999,0.59155122,-0.585508755,-0.56530617
1764434425.6675775,-0.13734,4.852679999999999,0.8698199999999999,0.59155122,-0.585508755,-0.56530617
1764434425.6675775,-0.13734,4.852679999999999,0.8698199999999999,0.59155122,-0.585508755,-0.56530617
1764434425.6675775,-0.13734,4.852679999999999,0.8698199999999999,0.59155122,-0.585508755,-0.56530617
1764434425.6675775,0.24416,4.92898,0.3357199999999999,0.592222605,-0.585997035,-0.5657944500000001
1764434425.6675775,0.24416,4.92898,0.3357199999999999,0.592222605,-0.585997035,-0.5657944500000001
1764434425.6675775,0.24416,4.92898,0.3357199999999999,0.592222605,-0.585997035,-0.5657944500000001
1764434425.668594,0.24416,4.92898,0.3357199999999999,0.592222605,-0.585997035,-0.5657944500000001
1764434425.668594,0.24416,4.92898,0.3357199999999999,0.592222605,-0.585997035,-0.5657944500000001
1764434425.668594,0.24416,4.92898,0.3357199999999999,0.592222605,-0.585997035,-0.5657944500000001
1764434425.7122324,0.24416,4.92898,0.3357199999999999,0.592222605,-0.585997035,-0.5657944500000001
1764434425.7122324,0.24416,4.92898,0.3357199999999999,0.592222605,-0.585997035,-0.5657944500000001
1764434425.7122324,0.24416,4.92898,0.3357199999999999,0.592222605,-0.585997035,-0.5657944500000001
1764434425.7122324,0.24416,4.92898,0.3357199999999999,0.592222605,-0.585997035,-0.5657944500000001
1764434425.7122324,-0.25942,4.22702,0.77826,0.59264985,-0.58581393,-0.567076185
1764434425.7122324,-0.25942,4.22702,0.77826,0.59264985,-0.58581393,-0.567076185
1764434425.7122324,-0.25942,4.22702,0.77826,0.59264985,-0.58581393,-0.567076185
1764434425.7122324,-0.25942,4.22702,0.77826,0.59264985,-0.58581393,-0.567076185
1764434425.7122324,-0.25942,4.22702,0.77826,0.59264985,-0.58581393,-0.567076185
1764434425.7122324,-0.25942,4.22702,0.77826,0.59264985,-0.58581393,-0.567076185
1764434425.7122324,-0.25942,4.22702,0.77826,0.59264985,-0.58581393,-0.567076185
1764434425.7122324,-0.25942,4.22702,0.77826,0.59264985,-0.58581393,-0.567076185
1764434425.713247,-0.25942,4.22702,0.77826,0.59264985,-0.58581393,-0.567076185
1764434425.713247,-0.25942,4.22702,0.77826,0.59264985,-0.58581393,-0.567076185
1764434425.713247,-0.44254,3.44876,0.41202,0.5914901850000001,-0.586119105,-0.56799171
1764434425.713247,-0.44254,3.44876,0.41202,0.5914901850000001,-0.586119105,-0.56799171
1764434425.713247,-0.44254,3.44876,0.41202,0.5914901850000001,-0.586119105,-0.56799171
1764434425.713247,-0.44254,3.44876,0.41202,0.5914901850000001,-0.586119105,-0.56799171
1764434425.713247,-0.44254,3.44876,0.41202,0.5914901850000001,-0.586119105,-0.56799171
1764434425.713247,-0.44254,3.44876,0.41202,0.5914901850000001,-0.586119105,-0.56799171
1764434425.713247,-0.44254,3.44876,0.41202,0.5914901850000001,-0.586119105,-0.56799171
1764434425.713247,-0.44254,3.44876,0.41202,0.5914901850000001,-0.586119105,-0.56799171
1764434425.713247,-0.44254,3.44876,0.41202,0.5914901850000001,-0.586119105,-0.56799171
1764434425.713247,-0.44254,3.44876,0.41202,0.5914901850000001,-0.586119105,-0.56799171
1764434425.713247,-0.59514,3.87604,0.763,0.59057466,-0.58642428,-0.568052745
1764434425.713247,-0.59514,3.87604,0.763,0.59057466,-0.58642428,-0.568052745
1764434425.7621017,-0.59514,3.87604,0.763,0.59057466,-0.58642428,-0.568052745
1764434425.7621017,-0.59514,3.87604,0.763,0.59057466,-0.58642428,-0.568052745
1764434425.7621017,-0.59514,3.87604,0.763,0.59057466,-0.58642428,-0.568052745
1764434425.7621017,-0.59514,3.87604,0.763,0.59057466,-0.58642428,-0.568052745
1764434425.7621017,-0.59514,3.87604,0.763,0.59057466,-0.58642428,-0.568052745
1764434425.7621017,-0.59514,3.87604,0.763,0.59057466,-0.58642428,-0.568052745
1764434425.7621017,-0.59514,3.87604,0.763,0.59057466,-0.58642428,-0.568052745
1764434425.7621017,-0.59514,3.87604,0.763,0.59057466,-0.58642428,-0.568052745
1764434425.7621017,-0.42728,3.95234,0.8698199999999999,0.590269485,-0.586729455,-0.567198255
1764434425.7621017,-0.42728,3.95234,0.8698199999999999,0.590269485,-0.586729455,-0.567198255
1764434425.7621017,-0.42728,3.95234,0.8698199999999999,0.590269485,-0.586729455,-0.567198255
1764434425.7621017,-0.42728,3.95234,0.8698199999999999,0.590269485,-0.586729455,-0.567198255
1764434425.7621017,-0.42728,3.95234,0.8698199999999999,0.590269485,-0.586729455,-0.567198255
1764434425.7621017,-0.42728,3.95234,0.8698199999999999,0.590269485,-0.586729455,-0.567198255
1764434425.7621017,-0.42728,3.95234,0.8698199999999999,0.590269485,-0.586729455,-0.567198255
1764434425.7621017,-0.42728,3.95234,0.8698199999999999,0.590269485,-0.586729455,-0.567198255
1764434425.8069952,-0.42728,3.95234,0.8698199999999999,0.590269485,-0.586729455,-0.567198255
1764434425.8075294,-0.42728,3.95234,0.8698199999999999,0.590269485,-0.586729455,-0.567198255
1764434425.8075294,-0.54936,3.57084,0.93086,0.59155122,-0.587217735,-0.566343765
1764434425.8075294,-0.54936,3.57084,0.93086,0.59155122,-0.587217735,-0.566343765
1764434425.8075294,-0.54936,3.57084,0.93086,0.59155122,-0.587217735,-0.566343765
1764434425.8075294,-0.54936,3.57084,0.93086,0.59155122,-0.587217735,-0.566343765
1764434425.8075294,-0.54936,3.57084,0.93086,0.59155122,-0.587217735,-0.566343765
1764434425.8075294,-0.54936,3.57084,0.93086,0.59155122,-0.587217735,-0.566343765
1764434425.8075294,-0.54936,3.57084,0.93086,0.59155122,-0.587217735,-0.566343765
1764434425.8075294,-0.54936,3.57084,0.93086,0.59155122,-0.587217735,-0.566343765
1764434425.8075294,-0.54936,3.57084,0.93086,0.59155122,-0.587217735,-0.566343765
1764434425.8075294,-0.54936,3.57084,0.93086,0.59155122,-0.587217735,-0.566343765
1764434425.8549962,-0.51884,3.83026,0.74774,0.59240571,-0.586485315,-0.566099625
1764434425.8549962,-0.51884,3.83026,0.74774,0.59240571,-0.586485315,-0.566099625
1764434425.8549962,-0.51884,3.83026,0.74774,0.59240571,-0.586485315,-0.566099625
1764434425.8559964,-0.51884,3.83026,0.74774,0.59240571,-0.586485315,-0.566099625
1764434425.8559964,-0.51884,3.83026,0.74774,0.59240571,-0.586485315,-0.566099625
1764434425.8559964,-0.51884,3.83026,0.74774,0.59240571,-0.586485315,-0.566099625
1764434425.8559964,-0.51884,3.83026,0.74774,0.59240571,-0.586485315,-0.566099625
1764434425.8569956,-0.51884,3.83026,0.74774,0.59240571,-0.586485315,-0.566099625
1764434425.8569956,-0.51884,3.83026,0.74774,0.59240571,-0.586485315,-0.566099625
1764434425.8569956,-0.51884,3.83026,0.74774,0.59240571,-0.586485315,-0.566099625
1764434425.8569956,-0.3509799999999999,3.57084,0.62566,0.592832955,-0.58666842,-0.56628273
1764434425.8579955,-0.3509799999999999,3.57084,0.62566,0.592832955,-0.58666842,-0.56628273
1764434425.8579955,-0.3509799999999999,3.57084,0.62566,0.592832955,-0.58666842,-0.56628273
1764434425.8579955,-0.3509799999999999,3.57084,0.62566,0.592832955,-0.58666842,-0.56628273
1764434425.8579955,-0.3509799999999999,3.57084,0.62566,0.592832955,-0.58666842,-0.56628273
1764434425.8579955,-0.3509799999999999,3.57084,0.62566,0.592832955,-0.58666842,-0.56628273
1764434425.8579955,-0.3509799999999999,3.57084,0.62566,0.592832955,-0.58666842,-0.56628273
1764434425.8595002,-0.3509799999999999,3.57084,0.62566,0.592832955,-0.58666842,-0.56628273
1764434425.8595002,-0.3509799999999999,3.57084,0.62566,0.592832955,-0.58666842,-0.56628273
1764434425.8595002,-0.3509799999999999,3.57084,0.62566,0.592832955,-0.58666842,-0.56628273
1764434425.8595002,-0.28994,3.6624,0.763,0.59240571,-0.5871567,-0.56713722
1764434425.8595002,-0.28994,3.6624,0.763,0.59240571,-0.5871567,-0.56713722
1764434425.8595002,-0.28994,3.6624,0.763,0.59240571,-0.5871567,-0.56713722
1764434425.8605113,-0.28994,3.6624,0.763,0.59240571,-0.5871567,-0.56713722
1764434425.8605113,-0.28994,3.6624,0.763,0.59240571,-0.5871567,-0.56713722
1764434425.8605113,-0.28994,3.6624,0.763,0.59240571,-0.5871567,-0.56713722
1764434425.8605113,-0.28994,3.6624,0.763,0.59240571,-0.5871567,-0.56713722
1764434425.8605113,-0.28994,3.6624,0.763,0.59240571,-0.5871567,-0.56713722
1764434425.8605113,-0.28994,3.6624,0.763,0.59240571,-0.5871567,-0.56713722
1764434425.8605113,-0.28994,3.6624,0.763,0.59240571,-0.5871567,-0.56713722
1764434425.8605113,-0.39676,3.32668,0.6867,0.59155122,-0.58630221,-0.567320325
1764434425.8605113,-0.39676,3.32668,0.6867,0.59155122,-0.58630221,-0.567320325
1764434425.8605113,-0.39676,3.32668,0.6867,0.59155122,-0.58630221,-0.567320325
1764434425.8605113,-0.39676,3.32668,0.6867,0.59155122,-0.58630221,-0.567320325
1764434425.8605113,-0.39676,3.32668,0.6867,0.59155122,-0.58630221,-0.567320325
1764434425.8605113,-0.39676,3.32668,0.6867,0.59155122,-0.58630221,-0.567320325
1764434425.8605113,-0.39676,3.32668,0.6867,0.59155122,-0.58630221,-0.567320325
1764434425.8605113,-0.39676,3.32668,0.6867,0.59155122,-0.58630221,-0.567320325
1764434425.8999453,-0.39676,3.32668,0.6867,0.59155122,-0.58630221,-0.567320325
1764434425.9009604,-0.39676,3.32668,0.6867,0.59155122,-0.58630221,-0.567320325
1764434425.9009604,0.2289,3.44876,0.3815,0.59155122,-0.586485315,-0.56701515
1764434425.9009604,0.2289,3.44876,0.3815,0.59155122,-0.586485315,-0.56701515
1764434425.9009604,0.2289,3.44876,0.3815,0.59155122,-0.586485315,-0.56701515
1764434425.9009604,0.2289,3.44876,0.3815,0.59155122,-0.586485315,-0.56701515
1764434425.9009604,0.2289,3.44876,0.3815,0.59155122,-0.586485315,-0.56701515
1764434425.9009604,0.2289,3.44876,0.3815,0.59155122,-0.586485315,-0.56701515
1764434425.9009604,0.2289,3.44876,0.3815,0.59155122,-0.586485315,-0.56701515
1764434425.9009604,0.2289,3.44876,0.3815,0.59155122,-0.586485315,-0.56701515
1764434425.9009604,0.2289,3.44876,0.3815,0.59155122,-0.586485315,-0.56701515
1764434425.9009604,0.2289,3.44876,0.3815,0.59155122,-0.586485315,-0.56701515
1764434425.9009604,0.3204599999999999,3.99812,0.27468,0.59130708,-0.58605807,-0.566221695
1764434425.9009604,0.3204599999999999,3.99812,0.27468,0.59130708,-0.58605807,-0.566221695
1764434425.9009604,0.3204599999999999,3.99812,0.27468,0.59130708,-0.58605807,-0.566221695
1764434425.9009604,0.3204599999999999,3.99812,0.27468,0.59130708,-0.58605807,-0.566221695
1764434425.9009604,0.3204599999999999,3.99812,0.27468,0.59130708,-0.58605807,-0.566221695
1764434425.9009604,0.3204599999999999,3.99812,0.27468,0.59130708,-0.58605807,-0.566221695
1764434425.9009604,0.3204599999999999,3.99812,0.27468,0.59130708,-0.58605807,-0.566221695
1764434425.9009604,0.3204599999999999,3.99812,0.27468,0.59130708,-0.58605807,-0.566221695
1764434425.9009604,0.3204599999999999,3.99812,0.27468,0.59130708,-0.58605807,-0.566221695
1764434425.9009604,0.3204599999999999,3.99812,0.27468,0.59130708,-0.58605807,-0.566221695
1764434425.9009604,-0.10682,3.25038,0.3051999999999999,0.59069673,-0.586119105,-0.565977555
1764434425.9009604,-0.10682,3.25038,0.3051999999999999,0.59069673,-0.586119105,-0.565977555
1764434425.9488945,-0.10682,3.25038,0.3051999999999999,0.59069673,-0.586119105,-0.565977555
1764434425.9488945,-0.10682,3.25038,0.3051999999999999,0.59069673,-0.586119105,-0.565977555
1764434425.9488945,-0.10682,3.25038,0.3051999999999999,0.59069673,-0.586119105,-0.565977555
1764434425.9488945,-0.10682,3.25038,0.3051999999999999,0.59069673,-0.586119105,-0.565977555
1764434425.9488945,-0.10682,3.25038,0.3051999999999999,0.59069673,-0.586119105,-0.565977555
1764434425.9488945,-0.10682,3.25038,0.3051999999999999,0.59069673,-0.586119105,-0.565977555
1764434425.9488945,-0.10682,3.25038,0.3051999999999999,0.59069673,-0.586119105,-0.565977555
1764434425.9488945,-0.10682,3.25038,0.3051999999999999,0.59069673,-0.586119105,-0.565977555
1764434425.9488945,-0.09156,3.63188,0.6103999999999999,0.591123975,-0.58642428,-0.56567238
1764434425.9488945,-0.09156,3.63188,0.6103999999999999,0.591123975,-0.58642428,-0.56567238
1764434425.9488945,-0.09156,3.63188,0.6103999999999999,0.591123975,-0.58642428,-0.56567238
1764434425.9488945,-0.09156,3.63188,0.6103999999999999,0.591123975,-0.58642428,-0.56567238
1764434425.9488945,-0.09156,3.63188,0.6103999999999999,0.591123975,-0.58642428,-0.56567238
1764434425.9493997,-0.09156,3.63188,0.6103999999999999,0.591123975,-0.58642428,-0.56567238
1764434425.9493997,-0.09156,3.63188,0.6103999999999999,0.591123975,-0.58642428,-0.56567238
1764434425.9493997,-0.09156,3.63188,0.6103999999999999,0.591123975,-0.58642428,-0.56567238
1764434425.9493997,-0.09156,3.63188,0.6103999999999999,0.591123975,-0.58642428,-0.56567238
1764434425.9493997,-0.09156,3.63188,0.6103999999999999,0.591123975,-0.58642428,-0.56567238
1764434425.9493997,-0.36624,4.0439,0.59514,0.590757765,-0.58630221,-0.565245135
1764434425.9493997,-0.36624,4.0439,0.59514,0.590757765,-0.58630221,-0.565245135
1764434425.9493997,-0.36624,4.0439,0.59514,0.590757765,-0.58630221,-0.565245135
1764434425.9493997,-0.36624,4.0439,0.59514,0.590757765,-0.58630221,-0.565245135
1764434425.9493997,-0.36624,4.0439,0.59514,0.590757765,-0.58630221,-0.565245135
1764434425.9493997,-0.36624,4.0439,0.59514,0.590757765,-0.58630221,-0.565245135
1764434425.9493997,-0.36624,4.0439,0.59514,0.590757765,-0.58630221,-0.565245135
1764434425.9493997,-0.36624,4.0439,0.59514,0.590757765,-0.58630221,-0.565245135
1764434425.9493997,-0.36624,4.0439,0.59514,0.590757765,-0.58630221,-0.565245135
1764434425.9493997,-0.36624,4.0439,0.59514,0.590757765,-0.58630221,-0.565245135
1764434425.99403,-0.3051999999999999,3.8913,0.93086,0.59033052,-0.5862411750000001,-0.565855485
1764434425.99403,-0.3051999999999999,3.8913,0.93086,0.59033052,-0.5862411750000001,-0.565855485
1764434425.99403,-0.3051999999999999,3.8913,0.93086,0.59033052,-0.5862411750000001,-0.565855485
1764434425.99403,-0.3051999999999999,3.8913,0.93086,0.59033052,-0.5862411750000001,-0.565855485
1764434425.99403,-0.3051999999999999,3.8913,0.93086,0.59033052,-0.5862411750000001,-0.565855485
1764434425.99403,-0.3051999999999999,3.8913,0.93086,0.59033052,-0.5862411750000001,-0.565855485
1764434425.99403,-0.3051999999999999,3.8913,0.93086,0.59033052,-0.5862411750000001,-0.565855485
1764434425.9954526,-0.3051999999999999,3.8913,0.93086,0.59033052,-0.5862411750000001,-0.565855485
1764434425.9954526,-0.3051999999999999,3.8913,0.93086,0.59033052,-0.5862411750000001,-0.565855485
1764434425.9954526,-0.3051999999999999,3.8913,0.93086,0.59033052,-0.5862411750000001,-0.565855485
1764434425.9954526,-0.62566,7.79786,0.19838,0.590879835,-0.587095665,-0.566099625
1764434425.9954526,-0.62566,7.79786,0.19838,0.590879835,-0.587095665,-0.566099625
1764434425.9954526,-0.62566,7.79786,0.19838,0.590879835,-0.587095665,-0.566099625
1764434425.9954526,-0.62566,7.79786,0.19838,0.590879835,-0.587095665,-0.566099625
1764434425.9954526,-0.62566,7.79786,0.19838,0.590879835,-0.587095665,-0.566099625
1764434425.9954526,-0.62566,7.79786,0.19838,0.590879835,-0.587095665,-0.566099625
1764434425.9954526,-0.62566,7.79786,0.19838,0.590879835,-0.587095665,-0.566099625
1764434425.9954526,-0.62566,7.79786,0.19838,0.590879835,-0.587095665,-0.566099625
1764434425.9954526,-0.62566,7.79786,0.19838,0.590879835,-0.587095665,-0.566099625
1764434425.9974492,-0.62566,7.79786,0.19838,0.590879835,-0.587095665,-0.566099625
1764434425.9974492,-0.03052,3.84552,0.9156,0.591001905,-0.587217735,-0.565245135
1764434425.9974492,-0.03052,3.84552,0.9156,0.591001905,-0.587217735,-0.565245135
1764434426.041262,-0.03052,3.84552,0.9156,0.591001905,-0.587217735,-0.565245135
1764434426.041262,-0.03052,3.84552,0.9156,0.591001905,-0.587217735,-0.565245135
1764434426.041262,-0.03052,3.84552,0.9156,0.591001905,-0.587217735,-0.565245135
1764434426.041262,-0.03052,3.84552,0.9156,0.591001905,-0.587217735,-0.565245135
1764434426.041262,-0.03052,3.84552,0.9156,0.591001905,-0.587217735,-0.565245135
1764434426.041262,-0.03052,3.84552,0.9156,0.591001905,-0.587217735,-0.565245135
1764434426.041262,-0.03052,3.84552,0.9156,0.591001905,-0.587217735,-0.565245135
1764434426.041262,-0.03052,3.84552,0.9156,0.591001905,-0.587217735,-0.565245135
1764434426.041262,-0.03052,4.41014,0.59514,0.5914901850000001,-0.5872787700000001,-0.5657944500000001
1764434426.041262,-0.03052,4.41014,0.59514,0.5914901850000001,-0.5872787700000001,-0.5657944500000001
1764434426.042271,-0.03052,4.41014,0.59514,0.5914901850000001,-0.5872787700000001,-0.5657944500000001
1764434426.042271,-0.03052,4.41014,0.59514,0.5914901850000001,-0.5872787700000001,-0.5657944500000001
1764434426.042271,-0.03052,4.41014,0.59514,0.5914901850000001,-0.5872787700000001,-0.5657944500000001
1764434426.042271,-0.03052,4.41014,0.59514,0.5914901850000001,-0.5872787700000001,-0.5657944500000001
1764434426.042271,-0.03052,4.41014,0.59514,0.5914901850000001,-0.5872787700000001,-0.5657944500000001
1764434426.042271,-0.03052,4.41014,0.59514,0.5914901850000001,-0.5872787700000001,-0.5657944500000001
1764434426.042271,-0.03052,4.41014,0.59514,0.5914901850000001,-0.5872787700000001,-0.5657944500000001
1764434426.042271,-0.03052,4.41014,0.59514,0.5914901850000001,-0.5872787700000001,-0.5657944500000001
1764434426.042271,0.39676,2.88414,0.6714399999999999,0.59179536,-0.5871567,-0.565733415
1764434426.042271,0.39676,2.88414,0.6714399999999999,0.59179536,-0.5871567,-0.565733415
1764434426.042271,0.39676,2.88414,0.6714399999999999,0.59179536,-0.5871567,-0.565733415
1764434426.042271,0.39676,2.88414,0.6714399999999999,0.59179536,-0.5871567,-0.565733415
1764434426.0432706,0.39676,2.88414,0.6714399999999999,0.59179536,-0.5871567,-0.565733415
1764434426.0432706,0.39676,2.88414,0.6714399999999999,0.59179536,-0.5871567,-0.565733415
1764434426.088248,0.39676,2.88414,0.6714399999999999,0.59179536,-0.5871567,-0.565733415
1764434426.088248,0.39676,2.88414,0.6714399999999999,0.59179536,-0.5871567,-0.565733415
1764434426.088248,0.39676,2.88414,0.6714399999999999,0.59179536,-0.5871567,-0.565733415
1764434426.088248,0.39676,2.88414,0.6714399999999999,0.59179536,-0.5871567,-0.565733415
1764434426.088248,-0.51884,3.41824,0.5341,0.592100535,-0.58679049,-0.565367205
1764434426.088248,-0.51884,3.41824,0.5341,0.592100535,-0.58679049,-0.565367205
1764434426.088248,-0.51884,3.41824,0.5341,0.592100535,-0.58679049,-0.565367205
1764434426.088248,-0.51884,3.41824,0.5341,0.592100535,-0.58679049,-0.565367205
1764434426.088248,-0.51884,3.41824,0.5341,0.592100535,-0.58679049,-0.565367205
1764434426.088248,-0.51884,3.41824,0.5341,0.592100535,-0.58679049,-0.565367205
1764434426.088248,-0.51884,3.41824,0.5341,0.592100535,-0.58679049,-0.565367205
1764434426.088248,-0.51884,3.41824,0.5341,0.592100535,-0.58679049,-0.565367205
1764434426.088248,-0.51884,3.41824,0.5341,0.592100535,-0.58679049,-0.565367205
1764434426.088248,-0.51884,3.41824,0.5341,0.592100535,-0.58679049,-0.565367205
1764434426.088248,-0.21364,3.02148,0.3509799999999999,0.59155122,-0.58740084,-0.56481789
1764434426.088248,-0.21364,3.02148,0.3509799999999999,0.59155122,-0.58740084,-0.56481789
1764434426.088248,-0.21364,3.02148,0.3509799999999999,0.59155122,-0.58740084,-0.56481789
1764434426.088248,-0.21364,3.02148,0.3509799999999999,0.59155122,-0.58740084,-0.56481789
1764434426.088248,-0.21364,3.02148,0.3509799999999999,0.59155122,-0.58740084,-0.56481789
1764434426.088248,-0.21364,3.02148,0.3509799999999999,0.59155122,-0.58740084,-0.56481789
1764434426.088248,-0.21364,3.02148,0.3509799999999999,0.59155122,-0.58740084,-0.56481789
1764434426.088248,-0.21364,3.02148,0.3509799999999999,0.59155122,-0.58740084,-0.56481789
1764434426.088248,-0.21364,3.02148,0.3509799999999999,0.59155122,-0.58740084,-0.56481789
1764434426.088248,-0.21364,3.02148,0.3509799999999999,0.59155122,-0.58740084,-0.56481789
1764434426.1339858,-0.79352,3.34194,0.51884,0.59069673,-0.587095665,-0.56530617
1764434426.1339858,-0.79352,3.34194,0.51884,0.59069673,-0.587095665,-0.56530617
1764434426.1339858,-0.79352,3.34194,0.51884,0.59069673,-0.587095665,-0.56530617
1764434426.1339858,-0.79352,3.34194,0.51884,0.59069673,-0.587095665,-0.56530617
1764434426.1339858,-0.79352,3.34194,0.51884,0.59069673,-0.587095665,-0.56530617
1764434426.1339858,-0.79352,3.34194,0.51884,0.59069673,-0.587095665,-0.56530617
1764434426.1339858,-0.79352,3.34194,0.51884,0.59069673,-0.587095665,-0.56530617
1764434426.1349986,-0.79352,3.34194,0.51884,0.59069673,-0.587095665,-0.56530617
1764434426.1349986,-0.79352,3.34194,0.51884,0.59069673,-0.587095665,-0.56530617
1764434426.1349986,-0.79352,3.34194,0.51884,0.59069673,-0.587095665,-0.56530617
1764434426.1349986,-0.82404,3.34194,0.47306,0.591001905,-0.58703463,-0.565855485
1764434426.1349986,-0.82404,3.34194,0.47306,0.591001905,-0.58703463,-0.565855485
1764434426.1349986,-0.82404,3.34194,0.47306,0.591001905,-0.58703463,-0.565855485
1764434426.1349986,-0.82404,3.34194,0.47306,0.591001905,-0.58703463,-0.565855485
1764434426.1349986,-0.82404,3.34194,0.47306,0.591001905,-0.58703463,-0.565855485
1764434426.135996,-0.82404,3.34194,0.47306,0.591001905,-0.58703463,-0.565855485
1764434426.135996,-0.82404,3.34194,0.47306,0.591001905,-0.58703463,-0.565855485
1764434426.135996,-0.82404,3.34194,0.47306,0.591001905,-0.58703463,-0.565855485
1764434426.135996,-0.82404,3.34194,0.47306,0.591001905,-0.58703463,-0.565855485
1764434426.135996,-0.82404,3.34194,0.47306,0.591001905,-0.58703463,-0.565855485
1764434426.135996,-0.65618,3.76922,0.85456,0.591246045,-0.58764498,-0.565611345
1764434426.1369936,-0.65618,3.76922,0.85456,0.591246045,-0.58764498,-0.565611345
1764434426.1369936,-0.65618,3.76922,0.85456,0.591246045,-0.58764498,-0.565611345
1764434426.1369936,-0.65618,3.76922,0.85456,0.591246045,-0.58764498,-0.565611345
1764434426.1797516,-0.65618,3.76922,0.85456,0.591246045,-0.58764498,-0.565611345
1764434426.1797516,-0.65618,3.76922,0.85456,0.591246045,-0.58764498,-0.565611345
1764434426.1797516,-0.65618,3.76922,0.85456,0.591246045,-0.58764498,-0.565611345
1764434426.1797516,-0.65618,3.76922,0.85456,0.591246045,-0.58764498,-0.565611345
1764434426.1797516,-0.65618,3.76922,0.85456,0.591246045,-0.58764498,-0.565611345
1764434426.1797516,-0.65618,3.76922,0.85456,0.591246045,-0.58764498,-0.565611345
1764434426.1797516,-0.2289,3.63188,0.51884,0.59033052,-0.58764498,-0.5651841
1764434426.1797516,-0.2289,3.63188,0.51884,0.59033052,-0.58764498,-0.5651841
1764434426.1797516,-0.2289,3.63188,0.51884,0.59033052,-0.58764498,-0.5651841
1764434426.1797516,-0.2289,3.63188,0.51884,0.59033052,-0.58764498,-0.5651841
1764434426.1797516,-0.2289,3.63188,0.51884,0.59033052,-0.58764498,-0.5651841
1764434426.1797516,-0.2289,3.63188,0.51884,0.59033052,-0.58764498,-0.5651841
1764434426.1797516,-0.2289,3.63188,0.51884,0.59033052,-0.58764498,-0.5651841
1764434426.1797516,-0.2289,3.63188,0.51884,0.59033052,-0.58764498,-0.5651841
1764434426.1797516,-0.2289,3.63188,0.51884,0.59033052,-0.58764498,-0.5651841
1764434426.1797516,-0.2289,3.63188,0.51884,0.59033052,-0.58764498,-0.5651841
1764434426.1797516,-0.06104,3.72344,0.48832,0.590025345,-0.58813326,-0.565123065
1764434426.1797516,-0.06104,3.72344,0.48832,0.590025345,-0.58813326,-0.565123065
1764434426.180773,-0.06104,3.72344,0.48832,0.590025345,-0.58813326,-0.565123065
1764434426.180773,-0.06104,3.72344,0.48832,0.590025345,-0.58813326,-0.565123065
1764434426.180773,-0.06104,3.72344,0.48832,0.590025345,-0.58813326,-0.565123065
1764434426.180773,-0.06104,3.72344,0.48832,0.590025345,-0.58813326,-0.565123065
1764434426.226065,-0.06104,3.72344,0.48832,0.590025345,-0.58813326,-0.565123065
1764434426.226065,-0.06104,3.72344,0.48832,0.590025345,-0.58813326,-0.565123065
1764434426.226065,-0.06104,3.72344,0.48832,0.590025345,-0.58813326,-0.565123065
1764434426.226065,-0.06104,3.72344,0.48832,0.590025345,-0.58813326,-0.565123065
1764434426.226065,-0.7019599999999999,4.440659999999999,0.56462,0.59045259,-0.587706015,-0.56506203
1764434426.226065,-0.7019599999999999,4.440659999999999,0.56462,0.59045259,-0.587706015,-0.56506203
1764434426.226065,-0.7019599999999999,4.440659999999999,0.56462,0.59045259,-0.587706015,-0.56506203
1764434426.226065,-0.7019599999999999,4.440659999999999,0.56462,0.59045259,-0.587706015,-0.56506203
1764434426.226065,-0.7019599999999999,4.440659999999999,0.56462,0.59045259,-0.587706015,-0.56506203
1764434426.2275753,-0.7019599999999999,4.440659999999999,0.56462,0.59045259,-0.587706015,-0.56506203
1764434426.2275753,-0.7019599999999999,4.440659999999999,0.56462,0.59045259,-0.587706015,-0.56506203
1764434426.2275753,-0.7019599999999999,4.440659999999999,0.56462,0.59045259,-0.587706015,-0.56506203
1764434426.2275753,-0.7019599999999999,4.440659999999999,0.56462,0.59045259,-0.587706015,-0.56506203
1764434426.2275753,-0.7019599999999999,4.440659999999999,0.56462,0.59045259,-0.587706015,-0.56506203
1764434426.2275753,-0.62566,3.7387,0.6867,0.5908188,-0.587583945,-0.565000995
1764434426.2275753,-0.62566,3.7387,0.6867,0.5908188,-0.587583945,-0.565000995
1764434426.2275753,-0.62566,3.7387,0.6867,0.5908188,-0.587583945,-0.565000995
1764434426.2275753,-0.62566,3.7387,0.6867,0.5908188,-0.587583945,-0.565000995
1764434426.2275753,-0.62566,3.7387,0.6867,0.5908188,-0.587583945,-0.565000995
1764434426.2275753,-0.62566,3.7387,0.6867,0.5908188,-0.587583945,-0.565000995
1764434426.2275753,-0.62566,3.7387,0.6867,0.5908188,-0.587583945,-0.565000995
1764434426.2275753,-0.62566,3.7387,0.6867,0.5908188,-0.587583945,-0.565000995
1764434426.273502,-0.62566,3.7387,0.6867,0.5908188,-0.587583945,-0.565000995
1764434426.273502,-0.62566,3.7387,0.6867,0.5908188,-0.587583945,-0.565000995
1764434426.273502,-0.41202,3.64714,0.6714399999999999,0.591123975,-0.58679049,-0.565489275
1764434426.273502,-0.41202,3.64714,0.6714399999999999,0.591123975,-0.58679049,-0.565489275
1764434426.273502,-0.41202,3.64714,0.6714399999999999,0.591123975,-0.58679049,-0.565489275
1764434426.2738576,-0.41202,3.64714,0.6714399999999999,0.591123975,-0.58679049,-0.565489275
1764434426.2738576,-0.41202,3.64714,0.6714399999999999,0.591123975,-0.58679049,-0.565489275
1764434426.2738576,-0.41202,3.64714,0.6714399999999999,0.591123975,-0.58679049,-0.565489275
1764434426.2738576,-0.41202,3.64714,0.6714399999999999,0.591123975,-0.58679049,-0.565489275
1764434426.2738576,-0.41202,3.64714,0.6714399999999999,0.591123975,-0.58679049,-0.565489275
1764434426.2738576,-0.41202,3.64714,0.6714399999999999,0.591123975,-0.58679049,-0.565489275
1764434426.2738576,-0.41202,3.64714,0.6714399999999999,0.591123975,-0.58679049,-0.565489275
1764434426.2738576,-0.6867,3.11304,0.36624,0.5909408700000001,-0.587583945,-0.5651841
1764434426.2738576,-0.6867,3.11304,0.36624,0.5909408700000001,-0.587583945,-0.5651841
1764434426.2738576,-0.6867,3.11304,0.36624,0.5909408700000001,-0.587583945,-0.5651841
1764434426.2738576,-0.6867,3.11304,0.36624,0.5909408700000001,-0.587583945,-0.5651841
1764434426.2738576,-0.6867,3.11304,0.36624,0.5909408700000001,-0.587583945,-0.5651841
1764434426.2738576,-0.6867,3.11304,0.36624,0.5909408700000001,-0.587583945,-0.5651841
1764434426.2745206,-0.6867,3.11304,0.36624,0.5909408700000001,-0.587583945,-0.5651841
1764434426.2745206,-0.6867,3.11304,0.36624,0.5909408700000001,-0.587583945,-0.5651841
1764434426.2745206,-0.6867,3.11304,0.36624,0.5909408700000001,-0.587583945,-0.5651841
1764434426.2745206,-0.6867,3.11304,0.36624,0.5909408700000001,-0.587583945,-0.5651841
1764434426.2745206,-0.47306,3.11304,0.8087799999999999,0.591001905,-0.587461875,-0.565000995
1764434426.2745206,-0.47306,3.11304,0.8087799999999999,0.591001905,-0.587461875,-0.565000995
1764434426.319219,-0.47306,3.11304,0.8087799999999999,0.591001905,-0.587461875,-0.565000995
1764434426.319219,-0.47306,3.11304,0.8087799999999999,0.591001905,-0.587461875,-0.565000995
1764434426.319219,-0.47306,3.11304,0.8087799999999999,0.591001905,-0.587461875,-0.565000995
1764434426.319219,-0.47306,3.11304,0.8087799999999999,0.591001905,-0.587461875,-0.565000995
1764434426.319219,-0.47306,3.11304,0.8087799999999999,0.591001905,-0.587461875,-0.565000995
1764434426.319219,-0.47306,3.11304,0.8087799999999999,0.591001905,-0.587461875,-0.565000995
1764434426.319219,-0.47306,3.11304,0.8087799999999999,0.591001905,-0.587461875,-0.565000995
1764434426.319219,-0.47306,3.11304,0.8087799999999999,0.591001905,-0.587461875,-0.565000995
1764434426.319219,-0.79352,3.41824,0.50358,0.59106294,-0.5872787700000001,-0.56493996
1764434426.319219,-0.79352,3.41824,0.50358,0.59106294,-0.5872787700000001,-0.56493996
1764434426.319219,-0.79352,3.41824,0.50358,0.59106294,-0.5872787700000001,-0.56493996
1764434426.319219,-0.79352,3.41824,0.50358,0.59106294,-0.5872787700000001,-0.56493996
1764434426.319219,-0.79352,3.41824,0.50358,0.59106294,-0.5872787700000001,-0.56493996
1764434426.319219,-0.79352,3.41824,0.50358,0.59106294,-0.5872787700000001,-0.56493996
1764434426.319219,-0.79352,3.41824,0.50358,0.59106294,-0.5872787700000001,-0.56493996
1764434426.319219,-0.79352,3.41824,0.50358,0.59106294,-0.5872787700000001,-0.56493996
1764434426.3197498,-0.79352,3.41824,0.50358,0.59106294,-0.5872787700000001,-0.56493996
1764434426.3197498,-0.79352,3.41824,0.50358,0.59106294,-0.5872787700000001,-0.56493996
1764434426.3197498,-0.6867,3.52506,0.47306,0.591246045,-0.587461875,-0.564512715
1764434426.3197498,-0.6867,3.52506,0.47306,0.591246045,-0.587461875,-0.564512715
1764434426.3197498,-0.6867,3.52506,0.47306,0.591246045,-0.587461875,-0.564512715
1764434426.3207626,-0.6867,3.52506,0.47306,0.591246045,-0.587461875,-0.564512715
1764434426.3207626,-0.6867,3.52506,0.47306,0.591246045,-0.587461875,-0.564512715
1764434426.3212955,-0.6867,3.52506,0.47306,0.591246045,-0.587461875,-0.564512715
1764434426.366258,-0.6867,3.52506,0.47306,0.591246045,-0.587461875,-0.564512715
1764434426.366258,-0.6867,3.52506,0.47306,0.591246045,-0.587461875,-0.564512715
1764434426.366258,-0.6867,3.52506,0.47306,0.591246045,-0.587461875,-0.564512715
1764434426.366258,-0.6867,3.52506,0.47306,0.591246045,-0.587461875,-0.564512715
1764434426.366258,-0.3204599999999999,2.80784,0.7019599999999999,0.59069673,-0.58813326,-0.564390645
1764434426.366258,-0.3204599999999999,2.80784,0.7019599999999999,0.59069673,-0.58813326,-0.564390645
1764434426.366258,-0.3204599999999999,2.80784,0.7019599999999999,0.59069673,-0.58813326,-0.564390645
1764434426.366258,-0.3204599999999999,2.80784,0.7019599999999999,0.59069673,-0.58813326,-0.564390645
1764434426.366258,-0.3204599999999999,2.80784,0.7019599999999999,0.59069673,-0.58813326,-0.564390645
1764434426.366258,-0.3204599999999999,2.80784,0.7019599999999999,0.59069673,-0.58813326,-0.564390645
1764434426.366258,-0.3204599999999999,2.80784,0.7019599999999999,0.59069673,-0.58813326,-0.564390645
1764434426.366258,-0.3204599999999999,2.80784,0.7019599999999999,0.59069673,-0.58813326,-0.564390645
1764434426.366258,-0.3204599999999999,2.80784,0.7019599999999999,0.59069673,-0.58813326,-0.564390645
1764434426.366258,-0.3204599999999999,2.80784,0.7019599999999999,0.59069673,-0.58813326,-0.564390645
1764434426.366258,-0.06104,2.7468,1.05294,0.59118501,-0.58776705,-0.56493996
1764434426.366258,-0.06104,2.7468,1.05294,0.59118501,-0.58776705,-0.56493996
1764434426.366258,-0.06104,2.7468,1.05294,0.59118501,-0.58776705,-0.56493996
1764434426.366258,-0.06104,2.7468,1.05294,0.59118501,-0.58776705,-0.56493996
1764434426.366258,-0.06104,2.7468,1.05294,0.59118501,-0.58776705,-0.56493996
1764434426.366258,-0.06104,2.7468,1.05294,0.59118501,-0.58776705,-0.56493996
1764434426.366258,-0.06104,2.7468,1.05294,0.59118501,-0.58776705,-0.56493996
1764434426.366258,-0.06104,2.7468,1.05294,0.59118501,-0.58776705,-0.56493996
1764434426.4138007,-0.06104,2.7468,1.05294,0.59118501,-0.58776705,-0.56493996
1764434426.4138007,-0.06104,2.7468,1.05294,0.59118501,-0.58776705,-0.56493996
1764434426.4138007,-0.41202,2.62472,0.88508,0.59118501,-0.58788912,-0.56555031
1764434426.4138007,-0.41202,2.62472,0.88508,0.59118501,-0.58788912,-0.56555031
1764434426.4138007,-0.41202,2.62472,0.88508,0.59118501,-0.58788912,-0.56555031
1764434426.4138007,-0.41202,2.62472,0.88508,0.59118501,-0.58788912,-0.56555031
1764434426.4138007,-0.41202,2.62472,0.88508,0.59118501,-0.58788912,-0.56555031
1764434426.4138007,-0.41202,2.62472,0.88508,0.59118501,-0.58788912,-0.56555031
1764434426.4138007,-0.41202,2.62472,0.88508,0.59118501,-0.58788912,-0.56555031
1764434426.4138007,-0.41202,2.62472,0.88508,0.59118501,-0.58788912,-0.56555031
1764434426.4138007,-0.41202,2.62472,0.88508,0.59118501,-0.58788912,-0.56555031
1764434426.4138007,-0.41202,2.62472,0.88508,0.59118501,-0.58788912,-0.56555031
1764434426.4138007,-0.56462,3.25038,0.65618,0.59130708,-0.58740084,-0.565367205
1764434426.4138007,-0.56462,3.25038,0.65618,0.59130708,-0.58740084,-0.565367205
1764434426.4138007,-0.56462,3.25038,0.65618,0.59130708,-0.58740084,-0.565367205
1764434426.4138007,-0.56462,3.25038,0.65618,0.59130708,-0.58740084,-0.565367205
1764434426.4148085,-0.56462,3.25038,0.65618,0.59130708,-0.58740084,-0.565367205
1764434426.4148085,-0.56462,3.25038,0.65618,0.59130708,-0.58740084,-0.565367205
1764434426.4148085,-0.56462,3.25038,0.65618,0.59130708,-0.58740084,-0.565367205
1764434426.4148085,-0.56462,3.25038,0.65618,0.59130708,-0.58740084,-0.565367205
1764434426.4148085,-0.56462,3.25038,0.65618,0.59130708,-0.58740084,-0.565367205
1764434426.4148085,-0.56462,3.25038,0.65618,0.59130708,-0.58740084,-0.565367205
1764434426.4148085,-0.79352,3.75396,0.56462,0.591246045,-0.58776705,-0.56542824
1764434426.4148085,-0.79352,3.75396,0.56462,0.591246045,-0.58776705,-0.56542824
1764434426.4618273,-0.79352,3.75396,0.56462,0.591246045,-0.58776705,-0.56542824
1764434426.4618273,-0.79352,3.75396,0.56462,0.591246045,-0.58776705,-0.56542824
1764434426.4618273,-0.79352,3.75396,0.56462,0.591246045,-0.58776705,-0.56542824
1764434426.4618273,-0.79352,3.75396,0.56462,0.591246045,-0.58776705,-0.56542824
1764434426.4618273,-0.79352,3.75396,0.56462,0.591246045,-0.58776705,-0.56542824
1764434426.4618273,-0.79352,3.75396,0.56462,0.591246045,-0.58776705,-0.56542824
1764434426.4618273,-0.79352,3.75396,0.56462,0.591246045,-0.58776705,-0.56542824
1764434426.4618273,-0.79352,3.75396,0.56462,0.591246045,-0.58776705,-0.56542824
1764434426.4628024,-0.763,4.28806,0.6714399999999999,0.590513625,-0.588194295,-0.5657944500000001
1764434426.4628024,-0.763,4.28806,0.6714399999999999,0.590513625,-0.588194295,-0.5657944500000001
1764434426.4628024,-0.763,4.28806,0.6714399999999999,0.590513625,-0.588194295,-0.5657944500000001
1764434426.4628024,-0.763,4.28806,0.6714399999999999,0.590513625,-0.588194295,-0.5657944500000001
1764434426.4628024,-0.763,4.28806,0.6714399999999999,0.590513625,-0.588194295,-0.5657944500000001
1764434426.4628024,-0.763,4.28806,0.6714399999999999,0.590513625,-0.588194295,-0.5657944500000001
1764434426.4628024,-0.763,4.28806,0.6714399999999999,0.590513625,-0.588194295,-0.5657944500000001
1764434426.4628024,-0.763,4.28806,0.6714399999999999,0.590513625,-0.588194295,-0.5657944500000001
1764434426.4628024,-0.763,4.28806,0.6714399999999999,0.590513625,-0.588194295,-0.5657944500000001
1764434426.4628024,-0.763,4.28806,0.6714399999999999,0.590513625,-0.588194295,-0.5657944500000001
1764434426.4628024,-0.763,4.07442,0.59514,0.590757765,-0.5878280850000001,-0.565611345
1764434426.4628024,-0.763,4.07442,0.59514,0.590757765,-0.5878280850000001,-0.565611345
1764434426.4628024,-0.763,4.07442,0.59514,0.590757765,-0.5878280850000001,-0.565611345
1764434426.4628024,-0.763,4.07442,0.59514,0.590757765,-0.5878280850000001,-0.565611345
1764434426.4628024,-0.763,4.07442,0.59514,0.590757765,-0.5878280850000001,-0.565611345
1764434426.4628024,-0.763,4.07442,0.59514,0.590757765,-0.5878280850000001,-0.565611345
1764434426.5074198,-0.763,4.07442,0.59514,0.590757765,-0.5878280850000001,-0.565611345
1764434426.5074198,-0.763,4.07442,0.59514,0.590757765,-0.5878280850000001,-0.565611345
1764434426.5074198,-0.763,4.07442,0.59514,0.590757765,-0.5878280850000001,-0.565611345
1764434426.5074198,-0.763,4.07442,0.59514,0.590757765,-0.5878280850000001,-0.565611345
1764434426.5074198,-0.6714399999999999,4.07442,1.34288,0.590391555,-0.587461875,-0.56616066
1764434426.5074198,-0.6714399999999999,4.07442,1.34288,0.590391555,-0.587461875,-0.56616066
1764434426.5074198,-0.6714399999999999,4.07442,1.34288,0.590391555,-0.587461875,-0.56616066
1764434426.5074198,-0.6714399999999999,4.07442,1.34288,0.590391555,-0.587461875,-0.56616066
1764434426.5074198,-0.6714399999999999,4.07442,1.34288,0.590391555,-0.587461875,-0.56616066
1764434426.5074198,-0.6714399999999999,4.07442,1.34288,0.590391555,-0.587461875,-0.56616066
1764434426.5074198,-0.6714399999999999,4.07442,1.34288,0.590391555,-0.587461875,-0.56616066
1764434426.5074198,-0.6714399999999999,4.07442,1.34288,0.590391555,-0.587461875,-0.56616066
1764434426.5074198,-0.6714399999999999,4.07442,1.34288,0.590391555,-0.587461875,-0.56616066
1764434426.5074198,-0.6714399999999999,4.07442,1.34288,0.590391555,-0.587461875,-0.56616066
1764434426.5074198,-0.74774,3.47928,0.88508,0.5908188,-0.58788912,-0.56603859
1764434426.5074198,-0.74774,3.47928,0.88508,0.5908188,-0.58788912,-0.56603859
1764434426.5074198,-0.74774,3.47928,0.88508,0.5908188,-0.58788912,-0.56603859
1764434426.5074198,-0.74774,3.47928,0.88508,0.5908188,-0.58788912,-0.56603859
1764434426.5074198,-0.74774,3.47928,0.88508,0.5908188,-0.58788912,-0.56603859
1764434426.5074198,-0.74774,3.47928,0.88508,0.5908188,-0.58788912,-0.56603859
1764434426.5074198,-0.74774,3.47928,0.88508,0.5908188,-0.58788912,-0.56603859
1764434426.5084212,-0.74774,3.47928,0.88508,0.5908188,-0.58788912,-0.56603859
1764434426.5530396,-0.74774,3.47928,0.88508,0.5908188,-0.58788912,-0.56603859
1764434426.5535448,-0.74774,3.47928,0.88508,0.5908188,-0.58788912,-0.56603859
1764434426.5535448,-0.73248,3.72344,0.8698199999999999,0.591123975,-0.58788912,-0.566221695
1764434426.5535448,-0.73248,3.72344,0.8698199999999999,0.591123975,-0.58788912,-0.566221695
1764434426.5535448,-0.73248,3.72344,0.8698199999999999,0.591123975,-0.58788912,-0.566221695
1764434426.5535448,-0.73248,3.72344,0.8698199999999999,0.591123975,-0.58788912,-0.566221695
1764434426.5535448,-0.73248,3.72344,0.8698199999999999,0.591123975,-0.58788912,-0.566221695
1764434426.5535448,-0.73248,3.72344,0.8698199999999999,0.591123975,-0.58788912,-0.566221695
1764434426.5535448,-0.73248,3.72344,0.8698199999999999,0.591123975,-0.58788912,-0.566221695
1764434426.5535448,-0.73248,3.72344,0.8698199999999999,0.591123975,-0.58788912,-0.566221695
1764434426.5535448,-0.73248,3.72344,0.8698199999999999,0.591123975,-0.58788912,-0.566221695
1764434426.5535448,-0.73248,3.72344,0.8698199999999999,0.591123975,-0.58788912,-0.566221695
1764434426.5535448,-0.56462,3.02148,0.3204599999999999,0.5914901850000001,-0.587583945,-0.565977555
1764434426.5535448,-0.56462,3.02148,0.3204599999999999,0.5914901850000001,-0.587583945,-0.565977555
1764434426.5555582,-0.56462,3.02148,0.3204599999999999,0.5914901850000001,-0.587583945,-0.565977555
1764434426.5555582,-0.56462,3.02148,0.3204599999999999,0.5914901850000001,-0.587583945,-0.565977555
1764434426.5555582,-0.56462,3.02148,0.3204599999999999,0.5914901850000001,-0.587583945,-0.565977555
1764434426.5555582,-0.56462,3.02148,0.3204599999999999,0.5914901850000001,-0.587583945,-0.565977555
1764434426.5555582,-0.56462,3.02148,0.3204599999999999,0.5914901850000001,-0.587583945,-0.565977555
1764434426.5555582,-0.56462,3.02148,0.3204599999999999,0.5914901850000001,-0.587583945,-0.565977555
1764434426.5555582,-0.56462,3.02148,0.3204599999999999,0.5914901850000001,-0.587583945,-0.565977555
1764434426.5555582,-0.56462,3.02148,0.3204599999999999,0.5914901850000001,-0.587583945,-0.565977555
1764434426.5555582,-0.24416,3.64714,0.0762999999999999,0.590635695,-0.5872787700000001,-0.56506203
1764434426.5555582,-0.24416,3.64714,0.0762999999999999,0.590635695,-0.5872787700000001,-0.56506203
1764434426.5996506,-0.24416,3.64714,0.0762999999999999,0.590635695,-0.5872787700000001,-0.56506203
1764434426.5996506,-0.24416,3.64714,0.0762999999999999,0.590635695,-0.5872787700000001,-0.56506203
1764434426.5996506,-0.24416,3.64714,0.0762999999999999,0.590635695,-0.5872787700000001,-0.56506203
1764434426.5996506,-0.24416,3.64714,0.0762999999999999,0.590635695,-0.5872787700000001,-0.56506203
1764434426.5996506,-0.24416,3.64714,0.0762999999999999,0.590635695,-0.5872787700000001,-0.56506203
1764434426.5996506,-0.24416,3.64714,0.0762999999999999,0.590635695,-0.5872787700000001,-0.56506203
1764434426.5996506,-0.24416,3.64714,0.0762999999999999,0.590635695,-0.5872787700000001,-0.56506203
1764434426.5996506,-0.24416,3.64714,0.0762999999999999,0.590635695,-0.5872787700000001,-0.56506203
1764434426.5996506,-0.1678599999999999,3.67766,0.56462,0.58996431,-0.587950155,-0.5651841
1764434426.601667,-0.1678599999999999,3.67766,0.56462,0.58996431,-0.587950155,-0.5651841
1764434426.6026618,-0.1678599999999999,3.67766,0.56462,0.58996431,-0.587950155,-0.5651841
1764434426.6026618,-0.1678599999999999,3.67766,0.56462,0.58996431,-0.587950155,-0.5651841
1764434426.6026618,-0.1678599999999999,3.67766,0.56462,0.58996431,-0.587950155,-0.5651841
1764434426.6026618,-0.1678599999999999,3.67766,0.56462,0.58996431,-0.587950155,-0.5651841
1764434426.6026618,-0.1678599999999999,3.67766,0.56462,0.58996431,-0.587950155,-0.5651841
1764434426.6026618,-0.1678599999999999,3.67766,0.56462,0.58996431,-0.587950155,-0.5651841
1764434426.6026618,-0.1678599999999999,3.67766,0.56462,0.58996431,-0.587950155,-0.5651841
1764434426.6026618,-0.1678599999999999,3.67766,0.56462,0.58996431,-0.587950155,-0.5651841
1764434426.6026618,-0.62566,3.83026,0.27468,0.5895981,-0.58813326,-0.56457375
1764434426.6026618,-0.62566,3.83026,0.27468,0.5895981,-0.58813326,-0.56457375
1764434426.6026618,-0.62566,3.83026,0.27468,0.5895981,-0.58813326,-0.56457375
1764434426.6026618,-0.62566,3.83026,0.27468,0.5895981,-0.58813326,-0.56457375
1764434426.6026618,-0.62566,3.83026,0.27468,0.5895981,-0.58813326,-0.56457375
1764434426.6026618,-0.62566,3.83026,0.27468,0.5895981,-0.58813326,-0.56457375
1764434426.6508183,-0.62566,3.83026,0.27468,0.5895981,-0.58813326,-0.56457375
1764434426.6508183,-0.62566,3.83026,0.27468,0.5895981,-0.58813326,-0.56457375
1764434426.6508183,-0.62566,3.83026,0.27468,0.5895981,-0.58813326,-0.56457375
1764434426.6508183,-0.62566,3.83026,0.27468,0.5895981,-0.58813326,-0.56457375
1764434426.6508183,-0.65618,4.0439,0.39676,0.590025345,-0.588682575,-0.56445168
1764434426.6508183,-0.65618,4.0439,0.39676,0.590025345,-0.588682575,-0.56445168
1764434426.6508183,-0.65618,4.0439,0.39676,0.590025345,-0.588682575,-0.56445168
1764434426.6508183,-0.65618,4.0439,0.39676,0.590025345,-0.588682575,-0.56445168
1764434426.6508183,-0.65618,4.0439,0.39676,0.590025345,-0.588682575,-0.56445168
1764434426.6508183,-0.65618,4.0439,0.39676,0.590025345,-0.588682575,-0.56445168
1764434426.6508183,-0.65618,4.0439,0.39676,0.590025345,-0.588682575,-0.56445168
1764434426.6508183,-0.65618,4.0439,0.39676,0.590025345,-0.588682575,-0.56445168
1764434426.6508183,-0.65618,4.0439,0.39676,0.590025345,-0.588682575,-0.56445168
1764434426.6508183,-0.65618,4.0439,0.39676,0.590025345,-0.588682575,-0.56445168
1764434426.6508183,-0.85456,3.815,0.763,0.590147415,-0.588438435,-0.56445168
1764434426.6508183,-0.85456,3.815,0.763,0.590147415,-0.588438435,-0.56445168
1764434426.6508183,-0.85456,3.815,0.763,0.590147415,-0.588438435,-0.56445168
1764434426.6518805,-0.85456,3.815,0.763,0.590147415,-0.588438435,-0.56445168
1764434426.6518805,-0.85456,3.815,0.763,0.590147415,-0.588438435,-0.56445168
1764434426.6518805,-0.85456,3.815,0.763,0.590147415,-0.588438435,-0.56445168
1764434426.6518805,-0.85456,3.815,0.763,0.590147415,-0.588438435,-0.56445168
1764434426.6518805,-0.85456,3.815,0.763,0.590147415,-0.588438435,-0.56445168
1764434426.6518805,-0.85456,3.815,0.763,0.590147415,-0.588438435,-0.56445168
1764434426.6518805,-0.85456,3.815,0.763,0.590147415,-0.588438435,-0.56445168
1764434426.6963096,-1.09872,4.48644,0.7019599999999999,0.590513625,-0.5878280850000001,-0.565367205
1764434426.6973124,-1.09872,4.48644,0.7019599999999999,0.590513625,-0.5878280850000001,-0.565367205
1764434426.6973124,-1.09872,4.48644,0.7019599999999999,0.590513625,-0.5878280850000001,-0.565367205
1764434426.6973124,-1.09872,4.48644,0.7019599999999999,0.590513625,-0.5878280850000001,-0.565367205
1764434426.6973124,-1.09872,4.48644,0.7019599999999999,0.590513625,-0.5878280850000001,-0.565367205
1764434426.6973124,-1.09872,4.48644,0.7019599999999999,0.590513625,-0.5878280850000001,-0.565367205
1764434426.6973124,-1.09872,4.48644,0.7019599999999999,0.590513625,-0.5878280850000001,-0.565367205
1764434426.6973124,-1.09872,4.48644,0.7019599999999999,0.590513625,-0.5878280850000001,-0.565367205
1764434426.6973124,-1.09872,4.48644,0.7019599999999999,0.590513625,-0.5878280850000001,-0.565367205
1764434426.6973124,-1.09872,4.48644,0.7019599999999999,0.590513625,-0.5878280850000001,-0.565367205
1764434426.6973124,-1.00716,3.78448,0.6867,0.591123975,-0.587461875,-0.565855485
1764434426.6973124,-1.00716,3.78448,0.6867,0.591123975,-0.587461875,-0.565855485
1764434426.6973124,-1.00716,3.78448,0.6867,0.591123975,-0.587461875,-0.565855485
1764434426.6973124,-1.00716,3.78448,0.6867,0.591123975,-0.587461875,-0.565855485
1764434426.6973124,-1.00716,3.78448,0.6867,0.591123975,-0.587461875,-0.565855485
1764434426.6973124,-1.00716,3.78448,0.6867,0.591123975,-0.587461875,-0.565855485
1764434426.6973124,-1.00716,3.78448,0.6867,0.591123975,-0.587461875,-0.565855485
1764434426.6973124,-1.00716,3.78448,0.6867,0.591123975,-0.587461875,-0.565855485
1764434426.6973124,-1.00716,3.78448,0.6867,0.591123975,-0.587461875,-0.565855485
1764434426.6973124,-1.00716,3.78448,0.6867,0.591123975,-0.587461875,-0.565855485
1764434426.6973124,-0.73248,4.28806,0.6103999999999999,0.591001905,-0.58776705,-0.56542824
1764434426.6973124,-0.73248,4.28806,0.6103999999999999,0.591001905,-0.58776705,-0.56542824
1764434426.7416627,-0.73248,4.28806,0.6103999999999999,0.591001905,-0.58776705,-0.56542824
1764434426.7416627,-0.73248,4.28806,0.6103999999999999,0.591001905,-0.58776705,-0.56542824
1764434426.7416627,-0.73248,4.28806,0.6103999999999999,0.591001905,-0.58776705,-0.56542824
1764434426.7416627,-0.73248,4.28806,0.6103999999999999,0.591001905,-0.58776705,-0.56542824
1764434426.7416627,-0.73248,4.28806,0.6103999999999999,0.591001905,-0.58776705,-0.56542824
1764434426.7416627,-0.73248,4.28806,0.6103999999999999,0.591001905,-0.58776705,-0.56542824
1764434426.7416627,-0.73248,4.28806,0.6103999999999999,0.591001905,-0.58776705,-0.56542824
1764434426.7416627,-0.73248,4.28806,0.6103999999999999,0.591001905,-0.58776705,-0.56542824
1764434426.7426777,-0.10682,4.16598,0.62566,0.5908188,-0.5883163650000001,-0.56567238
1764434426.7426777,-0.10682,4.16598,0.62566,0.5908188,-0.5883163650000001,-0.56567238
1764434426.7436776,-0.10682,4.16598,0.62566,0.5908188,-0.5883163650000001,-0.56567238
1764434426.7436776,-0.10682,4.16598,0.62566,0.5908188,-0.5883163650000001,-0.56567238
1764434426.7436776,-0.10682,4.16598,0.62566,0.5908188,-0.5883163650000001,-0.56567238
1764434426.745684,-0.10682,4.16598,0.62566,0.5908188,-0.5883163650000001,-0.56567238
1764434426.745684,-0.10682,4.16598,0.62566,0.5908188,-0.5883163650000001,-0.56567238
1764434426.745684,-0.10682,4.16598,0.62566,0.5908188,-0.5883163650000001,-0.56567238
1764434426.74668,-0.10682,4.16598,0.62566,0.5908188,-0.5883163650000001,-0.56567238
1764434426.74668,-0.10682,4.16598,0.62566,0.5908188,-0.5883163650000001,-0.56567238
1764434426.74668,-0.12208,3.99812,0.6714399999999999,0.590879835,-0.58801119,-0.5657944500000001
1764434426.74668,-0.12208,3.99812,0.6714399999999999,0.590879835,-0.58801119,-0.5657944500000001
1764434426.74668,-0.12208,3.99812,0.6714399999999999,0.590879835,-0.58801119,-0.5657944500000001
1764434426.74668,-0.12208,3.99812,0.6714399999999999,0.590879835,-0.58801119,-0.5657944500000001
1764434426.747677,-0.12208,3.99812,0.6714399999999999,0.590879835,-0.58801119,-0.5657944500000001
1764434426.747677,-0.12208,3.99812,0.6714399999999999,0.590879835,-0.58801119,-0.5657944500000001
1764434426.747677,-0.12208,3.99812,0.6714399999999999,0.590879835,-0.58801119,-0.5657944500000001
1764434426.747677,-0.12208,3.99812,0.6714399999999999,0.590879835,-0.58801119,-0.5657944500000001
1764434426.787574,-0.12208,3.99812,0.6714399999999999,0.590879835,-0.58801119,-0.5657944500000001
1764434426.7880917,-0.12208,3.99812,0.6714399999999999,0.590879835,-0.58801119,-0.5657944500000001
1764434426.7880917,-0.9156,3.83026,0.4578,0.59130708,-0.58776705,-0.56616066
1764434426.7880917,-0.9156,3.83026,0.4578,0.59130708,-0.58776705,-0.56616066
1764434426.7880917,-0.9156,3.83026,0.4578,0.59130708,-0.58776705,-0.56616066
1764434426.7880917,-0.9156,3.83026,0.4578,0.59130708,-0.58776705,-0.56616066
1764434426.7880917,-0.9156,3.83026,0.4578,0.59130708,-0.58776705,-0.56616066
1764434426.7880917,-0.9156,3.83026,0.4578,0.59130708,-0.58776705,-0.56616066
1764434426.7880917,-0.9156,3.83026,0.4578,0.59130708,-0.58776705,-0.56616066
1764434426.7880917,-0.9156,3.83026,0.4578,0.59130708,-0.58776705,-0.56616066
1764434426.7880917,-0.9156,3.83026,0.4578,0.59130708,-0.58776705,-0.56616066
1764434426.7880917,-0.9156,3.83026,0.4578,0.59130708,-0.58776705,-0.56616066
1764434426.7880917,-0.96138,3.37246,0.763,0.591368115,-0.587583945,-0.565977555
1764434426.7880917,-0.96138,3.37246,0.763,0.591368115,-0.587583945,-0.565977555
1764434426.7880917,-0.96138,3.37246,0.763,0.591368115,-0.587583945,-0.565977555
1764434426.7880917,-0.96138,3.37246,0.763,0.591368115,-0.587583945,-0.565977555
1764434426.7880917,-0.96138,3.37246,0.763,0.591368115,-0.587583945,-0.565977555
1764434426.7880917,-0.96138,3.37246,0.763,0.591368115,-0.587583945,-0.565977555
1764434426.7880917,-0.96138,3.37246,0.763,0.591368115,-0.587583945,-0.565977555
1764434426.7880917,-0.96138,3.37246,0.763,0.591368115,-0.587583945,-0.565977555
1764434426.7880917,-0.96138,3.37246,0.763,0.591368115,-0.587583945,-0.565977555
1764434426.7880917,-0.96138,3.37246,0.763,0.591368115,-0.587583945,-0.565977555
1764434426.8378198,-1.08346,3.55558,0.96138,0.590635695,-0.587461875,-0.56542824
1764434426.8378198,-1.08346,3.55558,0.96138,0.590635695,-0.587461875,-0.56542824
1764434426.8378198,-1.08346,3.55558,0.96138,0.590635695,-0.587461875,-0.56542824
1764434426.8378198,-1.08346,3.55558,0.96138,0.590635695,-0.587461875,-0.56542824
1764434426.8378198,-1.08346,3.55558,0.96138,0.590635695,-0.587461875,-0.56542824
1764434426.8378198,-1.08346,3.55558,0.96138,0.590635695,-0.587461875,-0.56542824
1764434426.8378198,-1.08346,3.55558,0.96138,0.590635695,-0.587461875,-0.56542824
1764434426.8378198,-1.08346,3.55558,0.96138,0.590635695,-0.587461875,-0.56542824
1764434426.8378198,-1.08346,3.55558,0.96138,0.590635695,-0.587461875,-0.56542824
1764434426.8378198,-1.08346,3.55558,0.96138,0.590635695,-0.587461875,-0.56542824
1764434426.8378198,-0.763,3.32668,0.47306,0.590391555,-0.587461875,-0.56493996
1764434426.8378198,-0.763,3.32668,0.47306,0.590391555,-0.587461875,-0.56493996
1764434426.8378198,-0.763,3.32668,0.47306,0.590391555,-0.587461875,-0.56493996
1764434426.8378198,-0.763,3.32668,0.47306,0.590391555,-0.587461875,-0.56493996
1764434426.8378198,-0.763,3.32668,0.47306,0.590391555,-0.587461875,-0.56493996
1764434426.8378198,-0.763,3.32668,0.47306,0.590391555,-0.587461875,-0.56493996
1764434426.8378198,-0.763,3.32668,0.47306,0.590391555,-0.587461875,-0.56493996
1764434426.8388348,-0.763,3.32668,0.47306,0.590391555,-0.587461875,-0.56493996
1764434426.8388348,-0.763,3.32668,0.47306,0.590391555,-0.587461875,-0.56493996
1764434426.8388348,-0.763,3.32668,0.47306,0.590391555,-0.587461875,-0.56493996
1764434426.8388348,-0.5341,3.37246,0.77826,0.590391555,-0.588072225,-0.56445168
1764434426.8388348,-0.5341,3.37246,0.77826,0.590391555,-0.588072225,-0.56445168
1764434426.8388348,-0.5341,3.37246,0.77826,0.590391555,-0.588072225,-0.56445168
1764434426.8388348,-0.5341,3.37246,0.77826,0.590391555,-0.588072225,-0.56445168
1764434426.882151,-0.5341,3.37246,0.77826,0.590391555,-0.588072225,-0.56445168
1764434426.882151,-0.5341,3.37246,0.77826,0.590391555,-0.588072225,-0.56445168
1764434426.882151,-0.5341,3.37246,0.77826,0.590391555,-0.588072225,-0.56445168
1764434426.883925,-0.5341,3.37246,0.77826,0.590391555,-0.588072225,-0.56445168
1764434426.883925,-0.5341,3.37246,0.77826,0.590391555,-0.588072225,-0.56445168
1764434426.883925,-0.5341,3.37246,0.77826,0.590391555,-0.588072225,-0.56445168
1764434426.883925,-0.82404,3.70818,0.18312,0.590635695,-0.58874361,-0.5647568550000001
1764434426.883925,-0.82404,3.70818,0.18312,0.590635695,-0.58874361,-0.5647568550000001
1764434426.883925,-0.82404,3.70818,0.18312,0.590635695,-0.58874361,-0.5647568550000001
1764434426.883925,-0.82404,3.70818,0.18312,0.590635695,-0.58874361,-0.5647568550000001
1764434426.883925,-0.82404,3.70818,0.18312,0.590635695,-0.58874361,-0.5647568550000001
1764434426.883925,-0.82404,3.70818,0.18312,0.590635695,-0.58874361,-0.5647568550000001
1764434426.885942,-0.82404,3.70818,0.18312,0.590635695,-0.58874361,-0.5647568550000001
1764434426.885942,-0.82404,3.70818,0.18312,0.590635695,-0.58874361,-0.5647568550000001
1764434426.885942,-0.82404,3.70818,0.18312,0.590635695,-0.58874361,-0.5647568550000001
1764434426.885942,-0.82404,3.70818,0.18312,0.590635695,-0.58874361,-0.5647568550000001
1764434426.885942,-0.57988,3.86078,0.0762999999999999,0.590513625,-0.58862154,-0.565245135
1764434426.885942,-0.57988,3.86078,0.0762999999999999,0.590513625,-0.58862154,-0.565245135
1764434426.885942,-0.57988,3.86078,0.0762999999999999,0.590513625,-0.58862154,-0.565245135
1764434426.885942,-0.57988,3.86078,0.0762999999999999,0.590513625,-0.58862154,-0.565245135
1764434426.885942,-0.57988,3.86078,0.0762999999999999,0.590513625,-0.58862154,-0.565245135
1764434426.885942,-0.57988,3.86078,0.0762999999999999,0.590513625,-0.58862154,-0.565245135
1764434426.885942,-0.57988,3.86078,0.0762999999999999,0.590513625,-0.58862154,-0.565245135
1764434426.885942,-0.57988,3.86078,0.0762999999999999,0.590513625,-0.58862154,-0.565245135
1764434426.9303503,-0.57988,3.86078,0.0762999999999999,0.590513625,-0.58862154,-0.565245135
1764434426.9303503,-0.57988,3.86078,0.0762999999999999,0.590513625,-0.58862154,-0.565245135
1764434426.9303503,-1.00716,4.16598,0.50358,0.591123975,-0.5888656800000001,-0.565123065
1764434426.9303503,-1.00716,4.16598,0.50358,0.591123975,-0.5888656800000001,-0.565123065
1764434426.9303503,-1.00716,4.16598,0.50358,0.591123975,-0.5888656800000001,-0.565123065
1764434426.9303503,-1.00716,4.16598,0.50358,0.591123975,-0.5888656800000001,-0.565123065
1764434426.9303503,-1.00716,4.16598,0.50358,0.591123975,-0.5888656800000001,-0.565123065
1764434426.9303503,-1.00716,4.16598,0.50358,0.591123975,-0.5888656800000001,-0.565123065
1764434426.9303503,-1.00716,4.16598,0.50358,0.591123975,-0.5888656800000001,-0.565123065
1764434426.9303503,-1.00716,4.16598,0.50358,0.591123975,-0.5888656800000001,-0.565123065
1764434426.9303503,-1.00716,4.16598,0.50358,0.591123975,-0.5888656800000001,-0.565123065
1764434426.9303503,-1.00716,4.16598,0.50358,0.591123975,-0.5888656800000001,-0.565123065
1764434426.9303503,-0.73248,4.3491,0.8698199999999999,0.590391555,-0.588926715,-0.56481789
1764434426.9303503,-0.73248,4.3491,0.8698199999999999,0.590391555,-0.588926715,-0.56481789
1764434426.9303503,-0.73248,4.3491,0.8698199999999999,0.590391555,-0.588926715,-0.56481789
1764434426.9303503,-0.73248,4.3491,0.8698199999999999,0.590391555,-0.588926715,-0.56481789
1764434426.9303503,-0.73248,4.3491,0.8698199999999999,0.590391555,-0.588926715,-0.56481789
1764434426.9303503,-0.73248,4.3491,0.8698199999999999,0.590391555,-0.588926715,-0.56481789
1764434426.9303503,-0.73248,4.3491,0.8698199999999999,0.590391555,-0.588926715,-0.56481789
1764434426.9303503,-0.73248,4.3491,0.8698199999999999,0.590391555,-0.588926715,-0.56481789
1764434426.9303503,-0.73248,4.3491,0.8698199999999999,0.590391555,-0.588926715,-0.56481789
1764434426.9303503,-0.73248,4.3491,0.8698199999999999,0.590391555,-0.588926715,-0.56481789
1764434426.9774127,-0.763,3.38772,0.50358,0.590879835,-0.5888656800000001,-0.564878925
1764434426.9774127,-0.763,3.38772,0.50358,0.590879835,-0.5888656800000001,-0.564878925
1764434426.9774127,-0.763,3.38772,0.50358,0.590879835,-0.5888656800000001,-0.564878925
1764434426.9774127,-0.763,3.38772,0.50358,0.590879835,-0.5888656800000001,-0.564878925
1764434426.9774127,-0.763,3.38772,0.50358,0.590879835,-0.5888656800000001,-0.564878925
1764434426.9774127,-0.763,3.38772,0.50358,0.590879835,-0.5888656800000001,-0.564878925
1764434426.9774127,-0.763,3.38772,0.50358,0.590879835,-0.5888656800000001,-0.564878925
1764434426.9774127,-0.763,3.38772,0.50358,0.590879835,-0.5888656800000001,-0.564878925
1764434426.9774127,-0.763,3.38772,0.50358,0.590879835,-0.5888656800000001,-0.564878925
1764434426.9774127,-0.763,3.38772,0.50358,0.590879835,-0.5888656800000001,-0.564878925
1764434426.9774127,-0.56462,3.87604,0.763,0.590879835,-0.588560505,-0.5642075400000001
1764434426.9774127,-0.56462,3.87604,0.763,0.590879835,-0.588560505,-0.5642075400000001
1764434426.9774127,-0.56462,3.87604,0.763,0.590879835,-0.588560505,-0.5642075400000001
1764434426.9774127,-0.56462,3.87604,0.763,0.590879835,-0.588560505,-0.5642075400000001
1764434426.9774127,-0.56462,3.87604,0.763,0.590879835,-0.588560505,-0.5642075400000001
1764434426.9774127,-0.56462,3.87604,0.763,0.590879835,-0.588560505,-0.5642075400000001
1764434426.9774127,-0.56462,3.87604,0.763,0.590879835,-0.588560505,-0.5642075400000001
1764434426.9774127,-0.56462,3.87604,0.763,0.590879835,-0.588560505,-0.5642075400000001
1764434426.9774127,-0.56462,3.87604,0.763,0.590879835,-0.588560505,-0.5642075400000001
1764434426.9774127,-0.56462,3.87604,0.763,0.590879835,-0.588560505,-0.5642075400000001
1764434426.9774127,-0.74774,3.87604,0.8392999999999999,0.59045259,-0.58849947,-0.5647568550000001
1764434426.9774127,-0.74774,3.87604,0.8392999999999999,0.59045259,-0.58849947,-0.5647568550000001
1764434427.0220606,-0.74774,3.87604,0.8392999999999999,0.59045259,-0.58849947,-0.5647568550000001
1764434427.0220606,-0.74774,3.87604,0.8392999999999999,0.59045259,-0.58849947,-0.5647568550000001
1764434427.0220606,-0.74774,3.87604,0.8392999999999999,0.59045259,-0.58849947,-0.5647568550000001
1764434427.0220606,-0.74774,3.87604,0.8392999999999999,0.59045259,-0.58849947,-0.5647568550000001
1764434427.0220606,-0.74774,3.87604,0.8392999999999999,0.59045259,-0.58849947,-0.5647568550000001
1764434427.0220606,-0.74774,3.87604,0.8392999999999999,0.59045259,-0.58849947,-0.5647568550000001
1764434427.0220606,-0.74774,3.87604,0.8392999999999999,0.59045259,-0.58849947,-0.5647568550000001
1764434427.0220606,-0.74774,3.87604,0.8392999999999999,0.59045259,-0.58849947,-0.5647568550000001
1764434427.0220606,-0.24416,3.9676,-0.04578,0.590879835,-0.58910982,-0.565000995
1764434427.0220606,-0.24416,3.9676,-0.04578,0.590879835,-0.58910982,-0.565000995
1764434427.0220606,-0.24416,3.9676,-0.04578,0.590879835,-0.58910982,-0.565000995
1764434427.0220606,-0.24416,3.9676,-0.04578,0.590879835,-0.58910982,-0.565000995
1764434427.0220606,-0.24416,3.9676,-0.04578,0.590879835,-0.58910982,-0.565000995
1764434427.0220606,-0.24416,3.9676,-0.04578,0.590879835,-0.58910982,-0.565000995
1764434427.0220606,-0.24416,3.9676,-0.04578,0.590879835,-0.58910982,-0.565000995
1764434427.0220606,-0.24416,3.9676,-0.04578,0.590879835,-0.58910982,-0.565000995
1764434427.0220606,-0.24416,3.9676,-0.04578,0.590879835,-0.58910982,-0.565000995
1764434427.0220606,-0.24416,3.9676,-0.04578,0.590879835,-0.58910982,-0.565000995
1764434427.0220606,-0.59514,4.51696,0.51884,0.590147415,-0.588438435,-0.5651841
1764434427.0220606,-0.59514,4.51696,0.51884,0.590147415,-0.588438435,-0.5651841
1764434427.0220606,-0.59514,4.51696,0.51884,0.590147415,-0.588438435,-0.5651841
1764434427.0220606,-0.59514,4.51696,0.51884,0.590147415,-0.588438435,-0.5651841
1764434427.0697546,-0.59514,4.51696,0.51884,0.590147415,-0.588438435,-0.5651841
1764434427.0697546,-0.59514,4.51696,0.51884,0.590147415,-0.588438435,-0.5651841
1764434427.0697546,-0.59514,4.51696,0.51884,0.590147415,-0.588438435,-0.5651841
1764434427.0697546,-0.59514,4.51696,0.51884,0.590147415,-0.588438435,-0.5651841
1764434427.0697546,-0.59514,4.51696,0.51884,0.590147415,-0.588438435,-0.5651841
1764434427.0697546,-0.59514,4.51696,0.51884,0.590147415,-0.588438435,-0.5651841
1764434427.0697546,-0.3051999999999999,4.41014,0.6103999999999999,0.589537065,-0.58825533,-0.56469582
1764434427.0697546,-0.3051999999999999,4.41014,0.6103999999999999,0.589537065,-0.58825533,-0.56469582
1764434427.0697546,-0.3051999999999999,4.41014,0.6103999999999999,0.589537065,-0.58825533,-0.56469582
1764434427.0702794,-0.3051999999999999,4.41014,0.6103999999999999,0.589537065,-0.58825533,-0.56469582
1764434427.0702794,-0.3051999999999999,4.41014,0.6103999999999999,0.589537065,-0.58825533,-0.56469582
1764434427.0702794,-0.3051999999999999,4.41014,0.6103999999999999,0.589537065,-0.58825533,-0.56469582
1764434427.0702794,-0.3051999999999999,4.41014,0.6103999999999999,0.589537065,-0.58825533,-0.56469582
1764434427.0702794,-0.3051999999999999,4.41014,0.6103999999999999,0.589537065,-0.58825533,-0.56469582
1764434427.0702794,-0.3051999999999999,4.41014,0.6103999999999999,0.589537065,-0.58825533,-0.56469582
1764434427.0702794,-0.3051999999999999,4.41014,0.6103999999999999,0.589537065,-0.58825533,-0.56469582
1764434427.0702794,0.01526,4.15072,0.25942,0.590147415,-0.58825533,-0.564512715
1764434427.0702794,0.01526,4.15072,0.25942,0.590147415,-0.58825533,-0.564512715
1764434427.0702794,0.01526,4.15072,0.25942,0.590147415,-0.58825533,-0.564512715
1764434427.0702794,0.01526,4.15072,0.25942,0.590147415,-0.58825533,-0.564512715
1764434427.0702794,0.01526,4.15072,0.25942,0.590147415,-0.58825533,-0.564512715
1764434427.0702794,0.01526,4.15072,0.25942,0.590147415,-0.58825533,-0.564512715
1764434427.0702794,0.01526,4.15072,0.25942,0.590147415,-0.58825533,-0.564512715
1764434427.0702794,0.01526,4.15072,0.25942,0.590147415,-0.58825533,-0.564512715
1764434427.0702794,0.01526,4.15072,0.25942,0.590147415,-0.58825533,-0.564512715
1764434427.0702794,0.01526,4.15072,0.25942,0.590147415,-0.58825533,-0.564512715
1764434427.118459,-0.7019599999999999,3.64714,0.50358,0.590757765,-0.58788912,-0.56469582
1764434427.118459,-0.7019599999999999,3.64714,0.50358,0.590757765,-0.58788912,-0.56469582
1764434427.118459,-0.7019599999999999,3.64714,0.50358,0.590757765,-0.58788912,-0.56469582
1764434427.118459,-0.7019599999999999,3.64714,0.50358,0.590757765,-0.58788912,-0.56469582
1764434427.118459,-0.7019599999999999,3.64714,0.50358,0.590757765,-0.58788912,-0.56469582
1764434427.118459,-0.7019599999999999,3.64714,0.50358,0.590757765,-0.58788912,-0.56469582
1764434427.118459,-0.7019599999999999,3.64714,0.50358,0.590757765,-0.58788912,-0.56469582
1764434427.118459,-0.7019599999999999,3.64714,0.50358,0.590757765,-0.58788912,-0.56469582
1764434427.118459,-0.7019599999999999,3.64714,0.50358,0.590757765,-0.58788912,-0.56469582
1764434427.118459,-0.7019599999999999,3.64714,0.50358,0.590757765,-0.58788912,-0.56469582
1764434427.118459,-0.73248,3.5861,0.54936,0.5908188,-0.587706015,-0.565000995
1764434427.118459,-0.73248,3.5861,0.54936,0.5908188,-0.587706015,-0.565000995
1764434427.118459,-0.73248,3.5861,0.54936,0.5908188,-0.587706015,-0.565000995
1764434427.118459,-0.73248,3.5861,0.54936,0.5908188,-0.587706015,-0.565000995
1764434427.118459,-0.73248,3.5861,0.54936,0.5908188,-0.587706015,-0.565000995
1764434427.118459,-0.73248,3.5861,0.54936,0.5908188,-0.587706015,-0.565000995
1764434427.118459,-0.73248,3.5861,0.54936,0.5908188,-0.587706015,-0.565000995
1764434427.118459,-0.73248,3.5861,0.54936,0.5908188,-0.587706015,-0.565000995
1764434427.118459,-0.73248,3.5861,0.54936,0.5908188,-0.587706015,-0.565000995
1764434427.118459,-0.73248,3.5861,0.54936,0.5908188,-0.587706015,-0.565000995
1764434427.118459,-0.42728,3.5098,0.77826,0.59008638,-0.58788912,-0.56457375
1764434427.118459,-0.42728,3.5098,0.77826,0.59008638,-0.58788912,-0.56457375
1764434427.118459,-0.42728,3.5098,0.77826,0.59008638,-0.58788912,-0.56457375
1764434427.118459,-0.42728,3.5098,0.77826,0.59008638,-0.58788912,-0.56457375
1764434427.162725,-0.42728,3.5098,0.77826,0.59008638,-0.58788912,-0.56457375
1764434427.174184,-0.42728,3.5098,0.77826,0.59008638,-0.58788912,-0.56457375
1764434427.174184,-0.42728,3.5098,0.77826,0.59008638,-0.58788912,-0.56457375
1764434427.174184,-0.42728,3.5098,0.77826,0.59008638,-0.58788912,-0.56457375
1764434427.1751924,-0.42728,3.5098,0.77826,0.59008638,-0.58788912,-0.56457375
1764434427.1751924,-0.42728,3.5098,0.77826,0.59008638,-0.58788912,-0.56457375
1764434427.1751924,-1.15976,7.76734,0.73248,0.590025345,-0.58776705,-0.56445168
1764434427.1751924,-1.15976,7.76734,0.73248,0.590025345,-0.58776705,-0.56445168
1764434427.1751924,-1.15976,7.76734,0.73248,0.590025345,-0.58776705,-0.56445168
1764434427.1751924,-1.15976,7.76734,0.73248,0.590025345,-0.58776705,-0.56445168
1764434427.1751924,-1.15976,7.76734,0.73248,0.590025345,-0.58776705,-0.56445168
1764434427.1751924,-1.15976,7.76734,0.73248,0.590025345,-0.58776705,-0.56445168
1764434427.1761916,-1.15976,7.76734,0.73248,0.590025345,-0.58776705,-0.56445168
1764434427.1761916,-1.15976,7.76734,0.73248,0.590025345,-0.58776705,-0.56445168
1764434427.1761916,-1.15976,7.76734,0.73248,0.590025345,-0.58776705,-0.56445168
1764434427.1761916,-1.15976,7.76734,0.73248,0.590025345,-0.58776705,-0.56445168
1764434427.1771965,-0.77826,3.21986,1.38866,0.59069673,-0.587950155,-0.564268575
1764434427.1771965,-0.77826,3.21986,1.38866,0.59069673,-0.587950155,-0.564268575
1764434427.1771965,-0.77826,3.21986,1.38866,0.59069673,-0.587950155,-0.564268575
1764434427.1771965,-0.77826,3.21986,1.38866,0.59069673,-0.587950155,-0.564268575
1764434427.1771965,-0.77826,3.21986,1.38866,0.59069673,-0.587950155,-0.564268575
1764434427.1771965,-0.77826,3.21986,1.38866,0.59069673,-0.587950155,-0.564268575
1764434427.209712,-0.77826,3.21986,1.38866,0.59069673,-0.587950155,-0.564268575
1764434427.209712,-0.77826,3.21986,1.38866,0.59069673,-0.587950155,-0.564268575
1764434427.209712,-0.77826,3.21986,1.38866,0.59069673,-0.587950155,-0.564268575
1764434427.2107258,-0.77826,3.21986,1.38866,0.59069673,-0.587950155,-0.564268575
1764434427.2107258,-0.8392999999999999,3.052,0.59514,0.59106294,-0.58788912,-0.56432961
1764434427.2107258,-0.8392999999999999,3.052,0.59514,0.59106294,-0.58788912,-0.56432961
1764434427.2107258,-0.8392999999999999,3.052,0.59514,0.59106294,-0.58788912,-0.56432961
1764434427.2117305,-0.8392999999999999,3.052,0.59514,0.59106294,-0.58788912,-0.56432961
1764434427.2117305,-0.8392999999999999,3.052,0.59514,0.59106294,-0.58788912,-0.56432961
1764434427.2117305,-0.8392999999999999,3.052,0.59514,0.59106294,-0.58788912,-0.56432961
1764434427.2117305,-0.8392999999999999,3.052,0.59514,0.59106294,-0.58788912,-0.56432961
1764434427.2117305,-0.8392999999999999,3.052,0.59514,0.59106294,-0.58788912,-0.56432961
1764434427.2117305,-0.8392999999999999,3.052,0.59514,0.59106294,-0.58788912,-0.56432961
1764434427.2117305,-0.8392999999999999,3.052,0.59514,0.59106294,-0.58788912,-0.56432961
1764434427.2117305,-0.97664,3.03674,0.96138,0.591001905,-0.58788912,-0.564390645
1764434427.2117305,-0.97664,3.03674,0.96138,0.591001905,-0.58788912,-0.564390645
1764434427.2117305,-0.97664,3.03674,0.96138,0.591001905,-0.58788912,-0.564390645
1764434427.2117305,-0.97664,3.03674,0.96138,0.591001905,-0.58788912,-0.564390645
1764434427.2117305,-0.97664,3.03674,0.96138,0.591001905,-0.58788912,-0.564390645
1764434427.2117305,-0.97664,3.03674,0.96138,0.591001905,-0.58788912,-0.564390645
1764434427.2117305,-0.97664,3.03674,0.96138,0.591001905,-0.58788912,-0.564390645
1764434427.2117305,-0.97664,3.03674,0.96138,0.591001905,-0.58788912,-0.564390645
1764434427.2562888,-0.97664,3.03674,0.96138,0.591001905,-0.58788912,-0.564390645
1764434427.2562888,-0.97664,3.03674,0.96138,0.591001905,-0.58788912,-0.564390645
1764434427.2562888,-1.03768,3.47928,0.85456,0.591246045,-0.588072225,-0.564390645
1764434427.2562888,-1.03768,3.47928,0.85456,0.591246045,-0.588072225,-0.564390645
1764434427.2562888,-1.03768,3.47928,0.85456,0.591246045,-0.588072225,-0.564390645
1764434427.2562888,-1.03768,3.47928,0.85456,0.591246045,-0.588072225,-0.564390645
1764434427.2562888,-1.03768,3.47928,0.85456,0.591246045,-0.588072225,-0.564390645
1764434427.2562888,-1.03768,3.47928,0.85456,0.591246045,-0.588072225,-0.564390645
1764434427.2562888,-1.03768,3.47928,0.85456,0.591246045,-0.588072225,-0.564390645
1764434427.2562888,-1.03768,3.47928,0.85456,0.591246045,-0.588072225,-0.564390645
1764434427.2562888,-1.03768,3.47928,0.85456,0.591246045,-0.588072225,-0.564390645
1764434427.2562888,-1.03768,3.47928,0.85456,0.591246045,-0.588072225,-0.564390645
1764434427.2562888,-0.88508,3.49454,0.6714399999999999,0.59155122,-0.5888656800000001,-0.5642075400000001
1764434427.2562888,-0.88508,3.49454,0.6714399999999999,0.59155122,-0.5888656800000001,-0.5642075400000001
1764434427.2562888,-0.88508,3.49454,0.6714399999999999,0.59155122,-0.5888656800000001,-0.5642075400000001
1764434427.2562888,-0.88508,3.49454,0.6714399999999999,0.59155122,-0.5888656800000001,-0.5642075400000001
1764434427.2578092,-0.88508,3.49454,0.6714399999999999,0.59155122,-0.5888656800000001,-0.5642075400000001
1764434427.2578092,-0.88508,3.49454,0.6714399999999999,0.59155122,-0.5888656800000001,-0.5642075400000001
1764434427.2578092,-0.88508,3.49454,0.6714399999999999,0.59155122,-0.5888656800000001,-0.5642075400000001
1764434427.2578092,-0.88508,3.49454,0.6714399999999999,0.59155122,-0.5888656800000001,-0.5642075400000001
1764434427.2578092,-0.88508,3.49454,0.6714399999999999,0.59155122,-0.5888656800000001,-0.5642075400000001
1764434427.2578092,-0.88508,3.49454,0.6714399999999999,0.59155122,-0.5888656800000001,-0.5642075400000001
1764434427.2578092,-0.24416,3.87604,0.4578,0.591368115,-0.58825533,-0.564146505
1764434427.2578092,-0.24416,3.87604,0.4578,0.591368115,-0.58825533,-0.564146505
1764434427.3053205,-0.24416,3.87604,0.4578,0.591368115,-0.58825533,-0.564146505
1764434427.3053205,-0.24416,3.87604,0.4578,0.591368115,-0.58825533,-0.564146505
1764434427.3053205,-0.24416,3.87604,0.4578,0.591368115,-0.58825533,-0.564146505
1764434427.3053205,-0.24416,3.87604,0.4578,0.591368115,-0.58825533,-0.564146505
1764434427.3053205,-0.24416,3.87604,0.4578,0.591368115,-0.58825533,-0.564146505
1764434427.3053205,-0.24416,3.87604,0.4578,0.591368115,-0.58825533,-0.564146505
1764434427.3053205,-0.24416,3.87604,0.4578,0.591368115,-0.58825533,-0.564146505
1764434427.3053205,-0.24416,3.87604,0.4578,0.591368115,-0.58825533,-0.564146505
1764434427.3053205,-0.48832,3.99812,0.25942,0.590879835,-0.588560505,-0.563780295
1764434427.3053205,-0.48832,3.99812,0.25942,0.590879835,-0.588560505,-0.563780295
1764434427.3053205,-0.48832,3.99812,0.25942,0.590879835,-0.588560505,-0.563780295
1764434427.3053205,-0.48832,3.99812,0.25942,0.590879835,-0.588560505,-0.563780295
1764434427.3053205,-0.48832,3.99812,0.25942,0.590879835,-0.588560505,-0.563780295
1764434427.3053205,-0.48832,3.99812,0.25942,0.590879835,-0.588560505,-0.563780295
1764434427.3053205,-0.48832,3.99812,0.25942,0.590879835,-0.588560505,-0.563780295
1764434427.3053205,-0.48832,3.99812,0.25942,0.590879835,-0.588560505,-0.563780295
1764434427.3053205,-0.48832,3.99812,0.25942,0.590879835,-0.588560505,-0.563780295
1764434427.3053205,-0.48832,3.99812,0.25942,0.590879835,-0.588560505,-0.563780295
1764434427.3053205,-0.6867,3.7387,0.6867,0.59057466,-0.588438435,-0.56481789
1764434427.3053205,-0.6867,3.7387,0.6867,0.59057466,-0.588438435,-0.56481789
1764434427.3053205,-0.6867,3.7387,0.6867,0.59057466,-0.588438435,-0.56481789
1764434427.3053205,-0.6867,3.7387,0.6867,0.59057466,-0.588438435,-0.56481789
1764434427.3053205,-0.6867,3.7387,0.6867,0.59057466,-0.588438435,-0.56481789
1764434427.3053205,-0.6867,3.7387,0.6867,0.59057466,-0.588438435,-0.56481789
1764434427.349672,-0.6867,3.7387,0.6867,0.59057466,-0.588438435,-0.56481789
1764434427.349672,-0.6867,3.7387,0.6867,0.59057466,-0.588438435,-0.56481789
1764434427.349672,-0.6867,3.7387,0.6867,0.59057466,-0.588438435,-0.56481789
1764434427.349672,-0.6867,3.7387,0.6867,0.59057466,-0.588438435,-0.56481789
1764434427.349672,-0.6409199999999999,3.55558,0.3815,0.59033052,-0.58947603,-0.564512715
1764434427.349672,-0.6409199999999999,3.55558,0.3815,0.59033052,-0.58947603,-0.564512715
1764434427.349672,-0.6409199999999999,3.55558,0.3815,0.59033052,-0.58947603,-0.564512715
1764434427.349672,-0.6409199999999999,3.55558,0.3815,0.59033052,-0.58947603,-0.564512715
1764434427.349672,-0.6409199999999999,3.55558,0.3815,0.59033052,-0.58947603,-0.564512715
1764434427.349672,-0.6409199999999999,3.55558,0.3815,0.59033052,-0.58947603,-0.564512715
1764434427.349672,-0.6409199999999999,3.55558,0.3815,0.59033052,-0.58947603,-0.564512715
1764434427.349672,-0.6409199999999999,3.55558,0.3815,0.59033052,-0.58947603,-0.564512715
1764434427.349672,-0.6409199999999999,3.55558,0.3815,0.59033052,-0.58947603,-0.564512715
1764434427.349672,-0.6409199999999999,3.55558,0.3815,0.59033052,-0.58947603,-0.564512715
1764434427.349672,-0.94612,3.49454,0.6867,0.59118501,-0.589414995,-0.56457375
1764434427.349672,-0.94612,3.49454,0.6867,0.59118501,-0.589414995,-0.56457375
1764434427.349672,-0.94612,3.49454,0.6867,0.59118501,-0.589414995,-0.56457375
1764434427.3509052,-0.94612,3.49454,0.6867,0.59118501,-0.589414995,-0.56457375
1764434427.3509052,-0.94612,3.49454,0.6867,0.59118501,-0.589414995,-0.56457375
1764434427.3509052,-0.94612,3.49454,0.6867,0.59118501,-0.589414995,-0.56457375
1764434427.3509052,-0.94612,3.49454,0.6867,0.59118501,-0.589414995,-0.56457375
1764434427.3509052,-0.94612,3.49454,0.6867,0.59118501,-0.589414995,-0.56457375
1764434427.3509052,-0.94612,3.49454,0.6867,0.59118501,-0.589414995,-0.56457375
1764434427.3509052,-0.94612,3.49454,0.6867,0.59118501,-0.589414995,-0.56457375
1764434427.3950694,-1.32762,3.90656,0.3509799999999999,0.59020845,-0.588926715,-0.5647568550000001
1764434427.3950694,-1.32762,3.90656,0.3509799999999999,0.59020845,-0.588926715,-0.5647568550000001
1764434427.3950694,-1.32762,3.90656,0.3509799999999999,0.59020845,-0.588926715,-0.5647568550000001
1764434427.3950694,-1.32762,3.90656,0.3509799999999999,0.59020845,-0.588926715,-0.5647568550000001
1764434427.3950694,-1.32762,3.90656,0.3509799999999999,0.59020845,-0.588926715,-0.5647568550000001
1764434427.3950694,-1.32762,3.90656,0.3509799999999999,0.59020845,-0.588926715,-0.5647568550000001
1764434427.3950694,-1.32762,3.90656,0.3509799999999999,0.59020845,-0.588926715,-0.5647568550000001
1764434427.3950694,-1.32762,3.90656,0.3509799999999999,0.59020845,-0.588926715,-0.5647568550000001
1764434427.3950694,-1.32762,3.90656,0.3509799999999999,0.59020845,-0.588926715,-0.5647568550000001
1764434427.3950694,-1.32762,3.90656,0.3509799999999999,0.59020845,-0.588926715,-0.5647568550000001
1764434427.3950694,-0.97664,3.57084,0.74774,0.590147415,-0.5888656800000001,-0.56445168
1764434427.3950694,-0.97664,3.57084,0.74774,0.590147415,-0.5888656800000001,-0.56445168
1764434427.3950694,-0.97664,3.57084,0.74774,0.590147415,-0.5888656800000001,-0.56445168
1764434427.3950694,-0.97664,3.57084,0.74774,0.590147415,-0.5888656800000001,-0.56445168
1764434427.396083,-0.97664,3.57084,0.74774,0.590147415,-0.5888656800000001,-0.56445168
1764434427.396083,-0.97664,3.57084,0.74774,0.590147415,-0.5888656800000001,-0.56445168
1764434427.396083,-0.97664,3.57084,0.74774,0.590147415,-0.5888656800000001,-0.56445168
1764434427.396083,-0.97664,3.57084,0.74774,0.590147415,-0.5888656800000001,-0.56445168
1764434427.396083,-0.97664,3.57084,0.74774,0.590147415,-0.5888656800000001,-0.56445168
1764434427.396083,-0.97664,3.57084,0.74774,0.590147415,-0.5888656800000001,-0.56445168
1764434427.396083,-0.59514,3.815,0.93086,0.59069673,-0.5883163650000001,-0.564878925
1764434427.396083,-0.59514,3.815,0.93086,0.59069673,-0.5883163650000001,-0.564878925
1764434427.4389915,-0.59514,3.815,0.93086,0.59069673,-0.5883163650000001,-0.564878925
1764434427.4389915,-0.59514,3.815,0.93086,0.59069673,-0.5883163650000001,-0.564878925
1764434427.4389915,-0.59514,3.815,0.93086,0.59069673,-0.5883163650000001,-0.564878925
1764434427.4389915,-0.59514,3.815,0.93086,0.59069673,-0.5883163650000001,-0.564878925
1764434427.4389915,-0.59514,3.815,0.93086,0.59069673,-0.5883163650000001,-0.564878925
1764434427.4389915,-0.59514,3.815,0.93086,0.59069673,-0.5883163650000001,-0.564878925
1764434427.4389915,-0.59514,3.815,0.93086,0.59069673,-0.5883163650000001,-0.564878925
1764434427.4400136,-0.59514,3.815,0.93086,0.59069673,-0.5883163650000001,-0.564878925
1764434427.4400136,-0.51884,3.54032,0.48832,0.5908188,-0.5888656800000001,-0.56481789
1764434427.4400136,-0.51884,3.54032,0.48832,0.5908188,-0.5888656800000001,-0.56481789
1764434427.4400136,-0.51884,3.54032,0.48832,0.5908188,-0.5888656800000001,-0.56481789
1764434427.4400136,-0.51884,3.54032,0.48832,0.5908188,-0.5888656800000001,-0.56481789
1764434427.4400136,-0.51884,3.54032,0.48832,0.5908188,-0.5888656800000001,-0.56481789
1764434427.4400136,-0.51884,3.54032,0.48832,0.5908188,-0.5888656800000001,-0.56481789
1764434427.4400136,-0.51884,3.54032,0.48832,0.5908188,-0.5888656800000001,-0.56481789
1764434427.4400136,-0.51884,3.54032,0.48832,0.5908188,-0.5888656800000001,-0.56481789
1764434427.4400136,-0.51884,3.54032,0.48832,0.5908188,-0.5888656800000001,-0.56481789
1764434427.4400136,-0.51884,3.54032,0.48832,0.5908188,-0.5888656800000001,-0.56481789
1764434427.4400136,-0.9003399999999999,3.40298,0.59514,0.590879835,-0.58874361,-0.564634785
1764434427.4400136,-0.9003399999999999,3.40298,0.59514,0.590879835,-0.58874361,-0.564634785
1764434427.4400136,-0.9003399999999999,3.40298,0.59514,0.590879835,-0.58874361,-0.564634785
1764434427.4400136,-0.9003399999999999,3.40298,0.59514,0.590879835,-0.58874361,-0.564634785
1764434427.4896886,-0.9003399999999999,3.40298,0.59514,0.590879835,-0.58874361,-0.564634785
1764434427.4896886,-0.9003399999999999,3.40298,0.59514,0.590879835,-0.58874361,-0.564634785
1764434427.4896886,-0.9003399999999999,3.40298,0.59514,0.590879835,-0.58874361,-0.564634785
1764434427.4896886,-0.9003399999999999,3.40298,0.59514,0.590879835,-0.58874361,-0.564634785
1764434427.4896886,-0.9003399999999999,3.40298,0.59514,0.590879835,-0.58874361,-0.564634785
1764434427.4896886,-0.9003399999999999,3.40298,0.59514,0.590879835,-0.58874361,-0.564634785
1764434427.4896886,-1.2055399999999998,3.23512,0.51884,0.59057466,-0.58898775,-0.565489275
1764434427.4896886,-1.2055399999999998,3.23512,0.51884,0.59057466,-0.58898775,-0.565489275
1764434427.4896886,-1.2055399999999998,3.23512,0.51884,0.59057466,-0.58898775,-0.565489275
1764434427.4896886,-1.2055399999999998,3.23512,0.51884,0.59057466,-0.58898775,-0.565489275
1764434427.4896886,-1.2055399999999998,3.23512,0.51884,0.59057466,-0.58898775,-0.565489275
1764434427.4896886,-1.2055399999999998,3.23512,0.51884,0.59057466,-0.58898775,-0.565489275
1764434427.4896886,-1.2055399999999998,3.23512,0.51884,0.59057466,-0.58898775,-0.565489275
1764434427.4896886,-1.2055399999999998,3.23512,0.51884,0.59057466,-0.58898775,-0.565489275
1764434427.4896886,-1.2055399999999998,3.23512,0.51884,0.59057466,-0.58898775,-0.565489275
1764434427.4896886,-1.2055399999999998,3.23512,0.51884,0.59057466,-0.58898775,-0.565489275
1764434427.4907005,-1.03768,3.37246,0.56462,0.59069673,-0.588804645,-0.56493996
1764434427.4907005,-1.03768,3.37246,0.56462,0.59069673,-0.588804645,-0.56493996
1764434427.4907005,-1.03768,3.37246,0.56462,0.59069673,-0.588804645,-0.56493996
1764434427.4907005,-1.03768,3.37246,0.56462,0.59069673,-0.588804645,-0.56493996
1764434427.4907005,-1.03768,3.37246,0.56462,0.59069673,-0.588804645,-0.56493996
1764434427.4907005,-1.03768,3.37246,0.56462,0.59069673,-0.588804645,-0.56493996
1764434427.4907005,-1.03768,3.37246,0.56462,0.59069673,-0.588804645,-0.56493996
1764434427.4907005,-1.03768,3.37246,0.56462,0.59069673,-0.588804645,-0.56493996
1764434427.5342512,-1.03768,3.37246,0.56462,0.59069673,-0.588804645,-0.56493996
1764434427.5342512,-1.03768,3.37246,0.56462,0.59069673,-0.588804645,-0.56493996
1764434427.5342512,-1.12924,3.99812,0.73248,0.5908188,-0.589537065,-0.564634785
1764434427.5342512,-1.12924,3.99812,0.73248,0.5908188,-0.589537065,-0.564634785
1764434427.5342512,-1.12924,3.99812,0.73248,0.5908188,-0.589537065,-0.564634785
1764434427.5342512,-1.12924,3.99812,0.73248,0.5908188,-0.589537065,-0.564634785
1764434427.5342512,-1.12924,3.99812,0.73248,0.5908188,-0.589537065,-0.564634785
1764434427.5342512,-1.12924,3.99812,0.73248,0.5908188,-0.589537065,-0.564634785
1764434427.5342512,-1.12924,3.99812,0.73248,0.5908188,-0.589537065,-0.564634785
1764434427.5342512,-1.12924,3.99812,0.73248,0.5908188,-0.589537065,-0.564634785
1764434427.5342512,-1.12924,3.99812,0.73248,0.5908188,-0.589537065,-0.564634785
1764434427.5342512,-1.12924,3.99812,0.73248,0.5908188,-0.589537065,-0.564634785
1764434427.5342512,-1.19028,4.2728,0.48832,0.59069673,-0.58825533,-0.563536155
1764434427.5342512,-1.19028,4.2728,0.48832,0.59069673,-0.58825533,-0.563536155
1764434427.5342512,-1.19028,4.2728,0.48832,0.59069673,-0.58825533,-0.563536155
1764434427.5342512,-1.19028,4.2728,0.48832,0.59069673,-0.58825533,-0.563536155
1764434427.5342512,-1.19028,4.2728,0.48832,0.59069673,-0.58825533,-0.563536155
1764434427.5342512,-1.19028,4.2728,0.48832,0.59069673,-0.58825533,-0.563536155
1764434427.5342512,-1.19028,4.2728,0.48832,0.59069673,-0.58825533,-0.563536155
1764434427.5352714,-1.19028,4.2728,0.48832,0.59069673,-0.58825533,-0.563536155
1764434427.5352714,-1.19028,4.2728,0.48832,0.59069673,-0.58825533,-0.563536155
1764434427.5352714,-1.19028,4.2728,0.48832,0.59069673,-0.58825533,-0.563536155
1764434427.5352714,-1.11398,4.852679999999999,0.28994,0.59020845,-0.58825533,-0.5642075400000001
1764434427.5352714,-1.11398,4.852679999999999,0.28994,0.59020845,-0.58825533,-0.5642075400000001
1764434427.5798757,-1.11398,4.852679999999999,0.28994,0.59020845,-0.58825533,-0.5642075400000001
1764434427.5798757,-1.11398,4.852679999999999,0.28994,0.59020845,-0.58825533,-0.5642075400000001
1764434427.5798757,-1.11398,4.852679999999999,0.28994,0.59020845,-0.58825533,-0.5642075400000001
1764434427.5798757,-1.11398,4.852679999999999,0.28994,0.59020845,-0.58825533,-0.5642075400000001
1764434427.5798757,-1.11398,4.852679999999999,0.28994,0.59020845,-0.58825533,-0.5642075400000001
1764434427.5798757,-1.11398,4.852679999999999,0.28994,0.59020845,-0.58825533,-0.5642075400000001
1764434427.5798757,-1.11398,4.852679999999999,0.28994,0.59020845,-0.58825533,-0.5642075400000001
1764434427.5798757,-1.11398,4.852679999999999,0.28994,0.59020845,-0.58825533,-0.5642075400000001
1764434427.5808947,-1.1445,4.37962,0.71722,0.590757765,-0.5883774,-0.563902365
1764434427.5808947,-1.1445,4.37962,0.71722,0.590757765,-0.5883774,-0.563902365
1764434427.5808947,-1.1445,4.37962,0.71722,0.590757765,-0.5883774,-0.563902365
1764434427.5814252,-1.1445,4.37962,0.71722,0.590757765,-0.5883774,-0.563902365
1764434427.5814252,-1.1445,4.37962,0.71722,0.590757765,-0.5883774,-0.563902365
1764434427.5814252,-1.1445,4.37962,0.71722,0.590757765,-0.5883774,-0.563902365
1764434427.582435,-1.1445,4.37962,0.71722,0.590757765,-0.5883774,-0.563902365
1764434427.582435,-1.1445,4.37962,0.71722,0.590757765,-0.5883774,-0.563902365
1764434427.582435,-1.1445,4.37962,0.71722,0.590757765,-0.5883774,-0.563902365
1764434427.582435,-1.1445,4.37962,0.71722,0.590757765,-0.5883774,-0.563902365
1764434427.582435,-0.71722,4.68482,0.9003399999999999,0.59155122,-0.588682575,-0.564146505
1764434427.582435,-0.71722,4.68482,0.9003399999999999,0.59155122,-0.588682575,-0.564146505
1764434427.582435,-0.71722,4.68482,0.9003399999999999,0.59155122,-0.588682575,-0.564146505
1764434427.582435,-0.71722,4.68482,0.9003399999999999,0.59155122,-0.588682575,-0.564146505
1764434427.582435,-0.71722,4.68482,0.9003399999999999,0.59155122,-0.588682575,-0.564146505
1764434427.582435,-0.71722,4.68482,0.9003399999999999,0.59155122,-0.588682575,-0.564146505
1764434427.626674,-0.71722,4.68482,0.9003399999999999,0.59155122,-0.588682575,-0.564146505
1764434427.626674,-0.71722,4.68482,0.9003399999999999,0.59155122,-0.588682575,-0.564146505
1764434427.626674,-0.71722,4.68482,0.9003399999999999,0.59155122,-0.588682575,-0.564146505
1764434427.626674,-0.71722,4.68482,0.9003399999999999,0.59155122,-0.588682575,-0.564146505
1764434427.626674,-1.48022,4.54748,1.34288,0.59228364,-0.5888656800000001,-0.56481789
1764434427.626674,-1.48022,4.54748,1.34288,0.59228364,-0.5888656800000001,-0.56481789
1764434427.626674,-1.48022,4.54748,1.34288,0.59228364,-0.5888656800000001,-0.56481789
1764434427.626674,-1.48022,4.54748,1.34288,0.59228364,-0.5888656800000001,-0.56481789
1764434427.626674,-1.48022,4.54748,1.34288,0.59228364,-0.5888656800000001,-0.56481789
1764434427.626674,-1.48022,4.54748,1.34288,0.59228364,-0.5888656800000001,-0.56481789
1764434427.626674,-1.48022,4.54748,1.34288,0.59228364,-0.5888656800000001,-0.56481789
1764434427.626674,-1.48022,4.54748,1.34288,0.59228364,-0.5888656800000001,-0.56481789
1764434427.626674,-1.48022,4.54748,1.34288,0.59228364,-0.5888656800000001,-0.56481789
1764434427.6271791,-1.48022,4.54748,1.34288,0.59228364,-0.5888656800000001,-0.56481789
1764434427.6271791,-1.25132,3.84552,0.763,0.5920395,-0.5883163650000001,-0.565489275
1764434427.6271791,-1.25132,3.84552,0.763,0.5920395,-0.5883163650000001,-0.565489275
1764434427.6271791,-1.25132,3.84552,0.763,0.5920395,-0.5883163650000001,-0.565489275
1764434427.6271791,-1.25132,3.84552,0.763,0.5920395,-0.5883163650000001,-0.565489275
1764434427.6271791,-1.25132,3.84552,0.763,0.5920395,-0.5883163650000001,-0.565489275
1764434427.6271791,-1.25132,3.84552,0.763,0.5920395,-0.5883163650000001,-0.565489275
1764434427.6271791,-1.25132,3.84552,0.763,0.5920395,-0.5883163650000001,-0.565489275
1764434427.6277127,-1.25132,3.84552,0.763,0.5920395,-0.5883163650000001,-0.565489275
1764434427.6737812,-1.25132,3.84552,0.763,0.5920395,-0.5883163650000001,-0.565489275
1764434427.6737812,-1.25132,3.84552,0.763,0.5920395,-0.5883163650000001,-0.565489275
1764434427.6747956,-1.25132,3.5098,0.41202,0.59191743,-0.5878280850000001,-0.56542824
