Timestamp,GyroX,GyroY,GyroZ,AccX,AccY,AccZ
1764433644.7802627,-1.77016,3.03674,-0.0762999999999999,0.990170805,-0.093810795,0.025573665
1764433644.7812836,-1.77016,3.03674,-0.0762999999999999,0.990170805,-0.093810795,0.025573665
1764433644.7812836,-1.77016,3.03674,-0.0762999999999999,0.990170805,-0.093810795,0.025573665
1764433644.7812836,-1.77016,3.03674,-0.0762999999999999,0.990170805,-0.093810795,0.025573665
1764433644.7812836,-1.77016,3.03674,-0.0762999999999999,0.990170805,-0.093810795,0.025573665
1764433644.7812836,-1.77016,3.03674,-0.0762999999999999,0.990170805,-0.093810795,0.025573665
1764433644.7812836,-1.77016,3.03674,-0.0762999999999999,0.990170805,-0.093810795,0.025573665
1764433644.7812836,-1.77016,3.03674,-0.0762999999999999,0.990170805,-0.093810795,0.025573665
1764433644.7812836,-1.77016,3.03674,-0.0762999999999999,0.990170805,-0.093810795,0.025573665
1764433644.7812836,-1.77016,3.03674,-0.0762999999999999,0.990170805,-0.093810795,0.025573665
1764433644.7812836,-1.61756,1.96854,1.2208,0.98864493,-0.09179664,0.02551263
1764433644.7812836,-1.61756,1.96854,1.2208,0.98864493,-0.09179664,0.02551263
1764433644.7812836,-1.61756,1.96854,1.2208,0.98864493,-0.09179664,0.02551263
1764433644.7812836,-1.61756,1.96854,1.2208,0.98864493,-0.09179664,0.02551263
1764433644.7812836,-1.61756,1.96854,1.2208,0.98864493,-0.09179664,0.02551263
1764433644.7812836,-1.61756,1.96854,1.2208,0.98864493,-0.09179664,0.02551263
1764433644.7812836,-1.61756,1.96854,1.2208,0.98864493,-0.09179664,0.02551263
1764433644.7812836,-1.61756,1.96854,1.2208,0.98864493,-0.09179664,0.02551263
1764433644.7812836,-1.61756,1.96854,1.2208,0.98864493,-0.09179664,0.02551263
1764433644.7812836,-1.61756,1.96854,1.2208,0.98864493,-0.09179664,0.02551263
1764433644.7812836,-1.1445,1.84646,2.15166,0.98766837,-0.09118629,0.02636712
1764433644.7812836,-1.1445,1.84646,2.15166,0.98766837,-0.09118629,0.02636712
1764433644.7812836,-1.1445,1.84646,2.15166,0.98766837,-0.09118629,0.02636712
1764433644.7812836,-1.1445,1.84646,2.15166,0.98766837,-0.09118629,0.02636712
1764433644.824951,-1.1445,1.84646,2.15166,0.98766837,-0.09118629,0.02636712
1764433644.824951,-1.1445,1.84646,2.15166,0.98766837,-0.09118629,0.02636712
1764433644.8254666,-1.1445,1.84646,2.15166,0.98766837,-0.09118629,0.02636712
1764433644.8254666,-1.1445,1.84646,2.15166,0.98766837,-0.09118629,0.02636712
1764433644.8254666,-1.1445,1.84646,2.15166,0.98766837,-0.09118629,0.02636712
1764433644.8259723,-1.1445,1.84646,2.15166,0.98766837,-0.09118629,0.02636712
1764433644.8259723,-1.08346,1.58704,3.47928,0.9875463,-0.093200445,0.027160575
1764433644.8259723,-1.08346,1.58704,3.47928,0.9875463,-0.093200445,0.027160575
1764433644.8259723,-1.08346,1.58704,3.47928,0.9875463,-0.093200445,0.027160575
1764433644.8259723,-1.08346,1.58704,3.47928,0.9875463,-0.093200445,0.027160575
1764433644.827492,-1.08346,1.58704,3.47928,0.9875463,-0.093200445,0.027160575
1764433644.827492,-1.08346,1.58704,3.47928,0.9875463,-0.093200445,0.027160575
1764433644.827492,-1.08346,1.58704,3.47928,0.9875463,-0.093200445,0.027160575
1764433644.8284988,-1.08346,1.58704,3.47928,0.9875463,-0.093200445,0.027160575
1764433644.8284988,-1.08346,1.58704,3.47928,0.9875463,-0.093200445,0.027160575
1764433644.8284988,-1.08346,1.58704,3.47928,0.9875463,-0.093200445,0.027160575
1764433644.8284988,-0.65618,2.19744,4.76112,0.98815665,-0.09558081,0.027892995
1764433644.829504,-0.65618,2.19744,4.76112,0.98815665,-0.09558081,0.027892995
1764433644.829504,-0.65618,2.19744,4.76112,0.98815665,-0.09558081,0.027892995
1764433644.829504,-0.65618,2.19744,4.76112,0.98815665,-0.09558081,0.027892995
1764433644.829504,-0.65618,2.19744,4.76112,0.98815665,-0.09558081,0.027892995
1764433644.829504,-0.65618,2.19744,4.76112,0.98815665,-0.09558081,0.027892995
1764433644.829504,-0.65618,2.19744,4.76112,0.98815665,-0.09558081,0.027892995
1764433644.8305063,-0.65618,2.19744,4.76112,0.98815665,-0.09558081,0.027892995
1764433644.8698106,-0.65618,2.19744,4.76112,0.98815665,-0.09558081,0.027892995
1764433644.8698106,-0.65618,2.19744,4.76112,0.98815665,-0.09558081,0.027892995
1764433644.870354,0.7019599999999999,2.88414,5.4936,0.989804595,-0.09728979,0.030090255
1764433644.870354,0.7019599999999999,2.88414,5.4936,0.989804595,-0.09728979,0.030090255
1764433644.870354,0.7019599999999999,2.88414,5.4936,0.989804595,-0.09728979,0.030090255
1764433644.870354,0.7019599999999999,2.88414,5.4936,0.989804595,-0.09728979,0.030090255
1764433644.870354,0.7019599999999999,2.88414,5.4936,0.989804595,-0.09728979,0.030090255
1764433644.870354,0.7019599999999999,2.88414,5.4936,0.989804595,-0.09728979,0.030090255
1764433644.870354,0.7019599999999999,2.88414,5.4936,0.989804595,-0.09728979,0.030090255
1764433644.870354,0.7019599999999999,2.88414,5.4936,0.989804595,-0.09728979,0.030090255
1764433644.870354,0.7019599999999999,2.88414,5.4936,0.989804595,-0.09728979,0.030090255
1764433644.870354,0.7019599999999999,2.88414,5.4936,0.989804595,-0.09728979,0.030090255
1764433644.870354,1.43444,3.54032,5.646199999999999,0.992001855,-0.09814428,0.03222648
1764433644.870354,1.43444,3.54032,5.646199999999999,0.992001855,-0.09814428,0.03222648
1764433644.870354,1.43444,3.54032,5.646199999999999,0.992001855,-0.09814428,0.03222648
1764433644.870354,1.43444,3.54032,5.646199999999999,0.992001855,-0.09814428,0.03222648
1764433644.870354,1.43444,3.54032,5.646199999999999,0.992001855,-0.09814428,0.03222648
1764433644.870354,1.43444,3.54032,5.646199999999999,0.992001855,-0.09814428,0.03222648
1764433644.8713756,1.43444,3.54032,5.646199999999999,0.992001855,-0.09814428,0.03222648
1764433644.8713756,1.43444,3.54032,5.646199999999999,0.992001855,-0.09814428,0.03222648
1764433644.8713756,1.43444,3.54032,5.646199999999999,0.992001855,-0.09814428,0.03222648
1764433644.8713756,1.43444,3.54032,5.646199999999999,0.992001855,-0.09814428,0.03222648
1764433644.918871,1.48022,4.16598,4.83742,0.99108633,-0.09680151,0.03271476
1764433644.918871,1.48022,4.16598,4.83742,0.99108633,-0.09680151,0.03271476
1764433644.918871,1.48022,4.16598,4.83742,0.99108633,-0.09680151,0.03271476
1764433644.918871,1.48022,4.16598,4.83742,0.99108633,-0.09680151,0.03271476
1764433644.918871,1.48022,4.16598,4.83742,0.99108633,-0.09680151,0.03271476
1764433644.918871,1.48022,4.16598,4.83742,0.99108633,-0.09680151,0.03271476
1764433644.918871,1.48022,4.16598,4.83742,0.99108633,-0.09680151,0.03271476
1764433644.918871,1.48022,4.16598,4.83742,0.99108633,-0.09680151,0.03271476
1764433644.918871,1.48022,4.16598,4.83742,0.99108633,-0.09680151,0.03271476
1764433644.918871,1.48022,4.16598,4.83742,0.99108633,-0.09680151,0.03271476
1764433644.918871,1.35814,3.67766,4.440659999999999,0.989560455,-0.09533667,0.03369132
1764433644.918871,1.35814,3.67766,4.440659999999999,0.989560455,-0.09533667,0.03369132
1764433644.918871,1.35814,3.67766,4.440659999999999,0.989560455,-0.09533667,0.03369132
1764433644.918871,1.35814,3.67766,4.440659999999999,0.989560455,-0.09533667,0.03369132
1764433644.918871,1.35814,3.67766,4.440659999999999,0.989560455,-0.09533667,0.03369132
1764433644.918871,1.35814,3.67766,4.440659999999999,0.989560455,-0.09533667,0.03369132
1764433644.9203908,1.35814,3.67766,4.440659999999999,0.989560455,-0.09533667,0.03369132
1764433644.9203908,1.35814,3.67766,4.440659999999999,0.989560455,-0.09533667,0.03369132
1764433644.9203908,1.35814,3.67766,4.440659999999999,0.989560455,-0.09533667,0.03369132
1764433644.9203908,1.35814,3.67766,4.440659999999999,0.989560455,-0.09533667,0.03369132
1764433644.9203908,0.44254,3.32668,3.57084,0.98681388,-0.09313941,0.033264075
1764433644.9203908,0.44254,3.32668,3.57084,0.98681388,-0.09313941,0.033264075
1764433644.9203908,0.44254,3.32668,3.57084,0.98681388,-0.09313941,0.033264075
1764433644.9203908,0.44254,3.32668,3.57084,0.98681388,-0.09313941,0.033264075
1764433644.9642432,0.44254,3.32668,3.57084,0.98681388,-0.09313941,0.033264075
1764433644.9642432,0.44254,3.32668,3.57084,0.98681388,-0.09313941,0.033264075
1764433644.9642432,0.44254,3.32668,3.57084,0.98681388,-0.09313941,0.033264075
1764433644.9642432,0.44254,3.32668,3.57084,0.98681388,-0.09313941,0.033264075
1764433644.9642432,0.44254,3.32668,3.57084,0.98681388,-0.09313941,0.033264075
1764433644.9642432,0.44254,3.32668,3.57084,0.98681388,-0.09313941,0.033264075
1764433644.9642432,0.13734,2.47212,3.18934,0.986630775,-0.09289527,0.033752355
1764433644.9642432,0.13734,2.47212,3.18934,0.986630775,-0.09289527,0.033752355
1764433644.9642432,0.13734,2.47212,3.18934,0.986630775,-0.09289527,0.033752355
1764433644.9642432,0.13734,2.47212,3.18934,0.986630775,-0.09289527,0.033752355
1764433644.9652617,0.13734,2.47212,3.18934,0.986630775,-0.09289527,0.033752355
1764433644.9652617,0.13734,2.47212,3.18934,0.986630775,-0.09289527,0.033752355
1764433644.9652617,0.13734,2.47212,3.18934,0.986630775,-0.09289527,0.033752355
1764433644.9652617,0.13734,2.47212,3.18934,0.986630775,-0.09289527,0.033752355
1764433644.9652617,0.13734,2.47212,3.18934,0.986630775,-0.09289527,0.033752355
1764433644.9652617,0.13734,2.47212,3.18934,0.986630775,-0.09289527,0.033752355
1764433644.9652617,0.18312,2.70102,3.17408,0.986508705,-0.094054935,0.03552237
1764433644.9652617,0.18312,2.70102,3.17408,0.986508705,-0.094054935,0.03552237
1764433644.9652617,0.18312,2.70102,3.17408,0.986508705,-0.094054935,0.03552237
1764433644.9652617,0.18312,2.70102,3.17408,0.986508705,-0.094054935,0.03552237
1764433644.9652617,0.18312,2.70102,3.17408,0.986508705,-0.094054935,0.03552237
1764433644.9652617,0.18312,2.70102,3.17408,0.986508705,-0.094054935,0.03552237
1764433644.9652617,0.18312,2.70102,3.17408,0.986508705,-0.094054935,0.03552237
1764433644.9652617,0.18312,2.70102,3.17408,0.986508705,-0.094054935,0.03552237
1764433645.0115075,0.18312,2.70102,3.17408,0.986508705,-0.094054935,0.03552237
1764433645.0115075,0.18312,2.70102,3.17408,0.986508705,-0.094054935,0.03552237
1764433645.0115075,0.94612,3.00622,1.86172,0.98730216,-0.09436011,0.03625479
1764433645.0115075,0.94612,3.00622,1.86172,0.98730216,-0.09436011,0.03625479
1764433645.0115075,0.94612,3.00622,1.86172,0.98730216,-0.09436011,0.03625479
1764433645.0115075,0.94612,3.00622,1.86172,0.98730216,-0.09436011,0.03625479
1764433645.0115075,0.94612,3.00622,1.86172,0.98730216,-0.09436011,0.03625479
1764433645.0115075,0.94612,3.00622,1.86172,0.98730216,-0.09436011,0.03625479
1764433645.0115075,0.94612,3.00622,1.86172,0.98730216,-0.09436011,0.03625479
1764433645.0115075,0.94612,3.00622,1.86172,0.98730216,-0.09436011,0.03625479
1764433645.0115075,0.94612,3.00622,1.86172,0.98730216,-0.09436011,0.03625479
1764433645.0115075,0.94612,3.00622,1.86172,0.98730216,-0.09436011,0.03625479
1764433645.0115075,1.26658,4.02864,1.23606,0.98766837,-0.09472632,0.03686514
1764433645.0115075,1.26658,4.02864,1.23606,0.98766837,-0.09472632,0.03686514
1764433645.0115075,1.26658,4.02864,1.23606,0.98766837,-0.09472632,0.03686514
1764433645.0115075,1.26658,4.02864,1.23606,0.98766837,-0.09472632,0.03686514
1764433645.0115075,1.26658,4.02864,1.23606,0.98766837,-0.09472632,0.03686514
1764433645.0115075,1.26658,4.02864,1.23606,0.98766837,-0.09472632,0.03686514
1764433645.0115075,1.26658,4.02864,1.23606,0.98766837,-0.09472632,0.03686514
1764433645.0115075,1.26658,4.02864,1.23606,0.98766837,-0.09472632,0.03686514
1764433645.0115075,1.26658,4.02864,1.23606,0.98766837,-0.09472632,0.03686514
1764433645.0115075,1.26658,4.02864,1.23606,0.98766837,-0.09472632,0.03686514
1764433645.0115075,1.32762,5.096839999999999,0.6714399999999999,0.988705965,-0.094787355,0.03674307
1764433645.0115075,1.32762,5.096839999999999,0.6714399999999999,0.988705965,-0.094787355,0.03674307
1764433645.0561876,1.32762,5.096839999999999,0.6714399999999999,0.988705965,-0.094787355,0.03674307
1764433645.0561876,1.32762,5.096839999999999,0.6714399999999999,0.988705965,-0.094787355,0.03674307
1764433645.0567088,1.32762,5.096839999999999,0.6714399999999999,0.988705965,-0.094787355,0.03674307
1764433645.0567088,1.32762,5.096839999999999,0.6714399999999999,0.988705965,-0.094787355,0.03674307
1764433645.0567088,1.32762,5.096839999999999,0.6714399999999999,0.988705965,-0.094787355,0.03674307
1764433645.0567088,1.32762,5.096839999999999,0.6714399999999999,0.988705965,-0.094787355,0.03674307
1764433645.0567088,1.32762,5.096839999999999,0.6714399999999999,0.988705965,-0.094787355,0.03674307
1764433645.0567088,1.32762,5.096839999999999,0.6714399999999999,0.988705965,-0.094787355,0.03674307
1764433645.0567088,1.19028,5.27996,0.79352,0.987607335,-0.0927732,0.03735342
1764433645.0567088,1.19028,5.27996,0.79352,0.987607335,-0.0927732,0.03735342
1764433645.0567088,1.19028,5.27996,0.79352,0.987607335,-0.0927732,0.03735342
1764433645.057229,1.19028,5.27996,0.79352,0.987607335,-0.0927732,0.03735342
1764433645.057229,1.19028,5.27996,0.79352,0.987607335,-0.0927732,0.03735342
1764433645.057229,1.19028,5.27996,0.79352,0.987607335,-0.0927732,0.03735342
1764433645.057229,1.19028,5.27996,0.79352,0.987607335,-0.0927732,0.03735342
1764433645.057229,1.19028,5.27996,0.79352,0.987607335,-0.0927732,0.03735342
1764433645.057229,1.19028,5.27996,0.79352,0.987607335,-0.0927732,0.03735342
1764433645.057229,1.19028,5.27996,0.79352,0.987607335,-0.0927732,0.03735342
1764433645.057229,0.56462,5.4173,0.06104,0.98986563,-0.091247325,0.03771963
1764433645.057229,0.56462,5.4173,0.06104,0.98986563,-0.091247325,0.03771963
1764433645.057229,0.56462,5.4173,0.06104,0.98986563,-0.091247325,0.03771963
1764433645.057229,0.56462,5.4173,0.06104,0.98986563,-0.091247325,0.03771963
1764433645.1009023,0.56462,5.4173,0.06104,0.98986563,-0.091247325,0.03771963
1764433645.1009023,0.56462,5.4173,0.06104,0.98986563,-0.091247325,0.03771963
1764433645.1009023,0.56462,5.4173,0.06104,0.98986563,-0.091247325,0.03771963
1764433645.1009023,0.56462,5.4173,0.06104,0.98986563,-0.091247325,0.03771963
1764433645.1009023,0.56462,5.4173,0.06104,0.98986563,-0.091247325,0.03771963
1764433645.1009023,0.56462,5.4173,0.06104,0.98986563,-0.091247325,0.03771963
1764433645.1009023,-0.1678599999999999,6.08874,0.51884,0.99010977,-0.090148695,0.0390624
1764433645.1009023,-0.1678599999999999,6.08874,0.51884,0.99010977,-0.090148695,0.0390624
1764433645.1009023,-0.1678599999999999,6.08874,0.51884,0.99010977,-0.090148695,0.0390624
1764433645.1009023,-0.1678599999999999,6.08874,0.51884,0.99010977,-0.090148695,0.0390624
1764433645.1014075,-0.1678599999999999,6.08874,0.51884,0.99010977,-0.090148695,0.0390624
1764433645.1014075,-0.1678599999999999,6.08874,0.51884,0.99010977,-0.090148695,0.0390624
1764433645.1014075,-0.1678599999999999,6.08874,0.51884,0.99010977,-0.090148695,0.0390624
1764433645.1014075,-0.1678599999999999,6.08874,0.51884,0.99010977,-0.090148695,0.0390624
1764433645.1014075,-0.1678599999999999,6.08874,0.51884,0.99010977,-0.090148695,0.0390624
1764433645.1014075,-0.1678599999999999,6.08874,0.51884,0.99010977,-0.090148695,0.0390624
1764433645.1014075,-0.47306,5.7988,0.6714399999999999,0.988828035,-0.089050065,0.040344135
1764433645.1014075,-0.47306,5.7988,0.6714399999999999,0.988828035,-0.089050065,0.040344135
1764433645.1014075,-0.47306,5.7988,0.6714399999999999,0.988828035,-0.089050065,0.040344135
1764433645.1014075,-0.47306,5.7988,0.6714399999999999,0.988828035,-0.089050065,0.040344135
1764433645.1014075,-0.47306,5.7988,0.6714399999999999,0.988828035,-0.089050065,0.040344135
1764433645.1014075,-0.47306,5.7988,0.6714399999999999,0.988828035,-0.089050065,0.040344135
1764433645.14837,-0.47306,5.7988,0.6714399999999999,0.988828035,-0.089050065,0.040344135
1764433645.14837,-0.47306,5.7988,0.6714399999999999,0.988828035,-0.089050065,0.040344135
1764433645.14837,-0.47306,5.7988,0.6714399999999999,0.988828035,-0.089050065,0.040344135
1764433645.14837,-0.47306,5.7988,0.6714399999999999,0.988828035,-0.089050065,0.040344135
1764433645.14837,-0.54936,5.40204,1.73964,0.986264565,-0.088805925,0.041076555
1764433645.14837,-0.54936,5.40204,1.73964,0.986264565,-0.088805925,0.041076555
1764433645.14837,-0.54936,5.40204,1.73964,0.986264565,-0.088805925,0.041076555
1764433645.1493924,-0.54936,5.40204,1.73964,0.986264565,-0.088805925,0.041076555
1764433645.1493924,-0.54936,5.40204,1.73964,0.986264565,-0.088805925,0.041076555
1764433645.1493924,-0.54936,5.40204,1.73964,0.986264565,-0.088805925,0.041076555
1764433645.1493924,-0.54936,5.40204,1.73964,0.986264565,-0.088805925,0.041076555
1764433645.1493924,-0.54936,5.40204,1.73964,0.986264565,-0.088805925,0.041076555
1764433645.1493924,-0.54936,5.40204,1.73964,0.986264565,-0.088805925,0.041076555
1764433645.1493924,-0.54936,5.40204,1.73964,0.986264565,-0.088805925,0.041076555
1764433645.1493924,-0.97664,5.27996,2.73154,0.98534904,-0.089416275,0.04125966
1764433645.1493924,-0.97664,5.27996,2.73154,0.98534904,-0.089416275,0.04125966
1764433645.1493924,-0.97664,5.27996,2.73154,0.98534904,-0.089416275,0.04125966
1764433645.1493924,-0.97664,5.27996,2.73154,0.98534904,-0.089416275,0.04125966
1764433645.1493924,-0.97664,5.27996,2.73154,0.98534904,-0.089416275,0.04125966
1764433645.1493924,-0.97664,5.27996,2.73154,0.98534904,-0.089416275,0.04125966
1764433645.1493924,-0.97664,5.27996,2.73154,0.98534904,-0.089416275,0.04125966
1764433645.1493924,-0.97664,5.27996,2.73154,0.98534904,-0.089416275,0.04125966
1764433645.1493924,-0.97664,5.27996,2.73154,0.98534904,-0.089416275,0.04125966
1764433645.1493924,-0.97664,5.27996,2.73154,0.98534904,-0.089416275,0.04125966
1764433645.192477,-1.8312,5.32574,2.5942,0.986264565,-0.08886696,0.041931045
1764433645.1929922,-1.8312,5.32574,2.5942,0.986264565,-0.08886696,0.041931045
1764433645.1929922,-1.8312,5.32574,2.5942,0.986264565,-0.08886696,0.041931045
1764433645.1929922,-1.8312,5.32574,2.5942,0.986264565,-0.08886696,0.041931045
1764433645.1929922,-1.8312,5.32574,2.5942,0.986264565,-0.08886696,0.041931045
1764433645.1929922,-1.8312,5.32574,2.5942,0.986264565,-0.08886696,0.041931045
1764433645.1929922,-1.8312,5.32574,2.5942,0.986264565,-0.08886696,0.041931045
1764433645.1929922,-1.8312,5.32574,2.5942,0.986264565,-0.08886696,0.041931045
1764433645.1935024,-1.8312,5.32574,2.5942,0.986264565,-0.08886696,0.041931045
1764433645.1935024,-1.8312,5.32574,2.5942,0.986264565,-0.08886696,0.041931045
1764433645.1935024,-2.30426,5.508859999999999,2.5942,0.98718009,-0.089416275,0.04235829
1764433645.1935024,-2.30426,5.508859999999999,2.5942,0.98718009,-0.089416275,0.04235829
1764433645.1935024,-2.30426,5.508859999999999,2.5942,0.98718009,-0.089416275,0.04235829
1764433645.1935024,-2.30426,5.508859999999999,2.5942,0.98718009,-0.089416275,0.04235829
1764433645.1935024,-2.30426,5.508859999999999,2.5942,0.98718009,-0.089416275,0.04235829
1764433645.1935024,-2.30426,5.508859999999999,2.5942,0.98718009,-0.089416275,0.04235829
1764433645.1935024,-2.30426,5.508859999999999,2.5942,0.98718009,-0.089416275,0.04235829
1764433645.1935024,-2.30426,5.508859999999999,2.5942,0.98718009,-0.089416275,0.04235829
1764433645.1935024,-2.30426,5.508859999999999,2.5942,0.98718009,-0.089416275,0.04235829
1764433645.1935024,-2.30426,5.508859999999999,2.5942,0.98718009,-0.089416275,0.04235829
1764433645.1935024,-3.3572,5.20366,2.16692,0.987973545,-0.08959938,0.04211415
1764433645.1935024,-3.3572,5.20366,2.16692,0.987973545,-0.08959938,0.04211415
1764433645.1935024,-3.3572,5.20366,2.16692,0.987973545,-0.08959938,0.04211415
1764433645.1935024,-3.3572,5.20366,2.16692,0.987973545,-0.08959938,0.04211415
1764433645.242138,-3.3572,5.20366,2.16692,0.987973545,-0.08959938,0.04211415
1764433645.242138,-3.3572,5.20366,2.16692,0.987973545,-0.08959938,0.04211415
1764433645.242138,-3.3572,5.20366,2.16692,0.987973545,-0.08959938,0.04211415
1764433645.242138,-3.3572,5.20366,2.16692,0.987973545,-0.08959938,0.04211415
1764433645.242138,-3.3572,5.20366,2.16692,0.987973545,-0.08959938,0.04211415
1764433645.242138,-3.3572,5.20366,2.16692,0.987973545,-0.08959938,0.04211415
1764433645.242138,-3.8913,4.97476,1.43444,0.98901114,-0.08874489,0.041442765
1764433645.242138,-3.8913,4.97476,1.43444,0.98901114,-0.08874489,0.041442765
1764433645.242138,-3.8913,4.97476,1.43444,0.98901114,-0.08874489,0.041442765
1764433645.242138,-3.8913,4.97476,1.43444,0.98901114,-0.08874489,0.041442765
1764433645.242138,-3.8913,4.97476,1.43444,0.98901114,-0.08874489,0.041442765
1764433645.242138,-3.8913,4.97476,1.43444,0.98901114,-0.08874489,0.041442765
1764433645.242138,-3.8913,4.97476,1.43444,0.98901114,-0.08874489,0.041442765
1764433645.242138,-3.8913,4.97476,1.43444,0.98901114,-0.08874489,0.041442765
1764433645.242138,-3.8913,4.97476,1.43444,0.98901114,-0.08874489,0.041442765
1764433645.242138,-3.8913,4.97476,1.43444,0.98901114,-0.08874489,0.041442765
1764433645.242138,-5.52412,4.97476,0.88508,0.988339755,-0.088439715,0.040588275
1764433645.242138,-5.52412,4.97476,0.88508,0.988339755,-0.088439715,0.040588275
1764433645.242138,-5.52412,4.97476,0.88508,0.988339755,-0.088439715,0.040588275
1764433645.242138,-5.52412,4.97476,0.88508,0.988339755,-0.088439715,0.040588275
1764433645.242138,-5.52412,4.97476,0.88508,0.988339755,-0.088439715,0.040588275
1764433645.242138,-5.52412,4.97476,0.88508,0.988339755,-0.088439715,0.040588275
1764433645.242138,-5.52412,4.97476,0.88508,0.988339755,-0.088439715,0.040588275
1764433645.242138,-5.52412,4.97476,0.88508,0.988339755,-0.088439715,0.040588275
1764433645.2886646,-5.52412,4.97476,0.88508,0.988339755,-0.088439715,0.040588275
1764433645.2886646,-5.52412,4.97476,0.88508,0.988339755,-0.088439715,0.040588275
1764433645.2891805,-6.80596,6.3329,0.3815,0.988583895,-0.090148695,0.040099995
1764433645.2891805,-6.80596,6.3329,0.3815,0.988583895,-0.090148695,0.040099995
1764433645.2891805,-6.80596,6.3329,0.3815,0.988583895,-0.090148695,0.040099995
1764433645.2891805,-6.80596,6.3329,0.3815,0.988583895,-0.090148695,0.040099995
1764433645.2891805,-6.80596,6.3329,0.3815,0.988583895,-0.090148695,0.040099995
1764433645.2891805,-6.80596,6.3329,0.3815,0.988583895,-0.090148695,0.040099995
1764433645.2891805,-6.80596,6.3329,0.3815,0.988583895,-0.090148695,0.040099995
1764433645.2891805,-6.80596,6.3329,0.3815,0.988583895,-0.090148695,0.040099995
1764433645.2902005,-6.80596,6.3329,0.3815,0.988583895,-0.090148695,0.040099995
1764433645.2902005,-6.80596,6.3329,0.3815,0.988583895,-0.090148695,0.040099995
1764433645.2902005,-7.18746,6.821219999999999,-0.0762999999999999,0.988339755,-0.09179664,0.041320695
1764433645.2902005,-7.18746,6.821219999999999,-0.0762999999999999,0.988339755,-0.09179664,0.041320695
1764433645.2902005,-7.18746,6.821219999999999,-0.0762999999999999,0.988339755,-0.09179664,0.041320695
1764433645.2902005,-7.18746,6.821219999999999,-0.0762999999999999,0.988339755,-0.09179664,0.041320695
1764433645.2902005,-7.18746,6.821219999999999,-0.0762999999999999,0.988339755,-0.09179664,0.041320695
1764433645.2902005,-7.18746,6.821219999999999,-0.0762999999999999,0.988339755,-0.09179664,0.041320695
1764433645.2902005,-7.18746,6.821219999999999,-0.0762999999999999,0.988339755,-0.09179664,0.041320695
1764433645.2902005,-7.18746,6.821219999999999,-0.0762999999999999,0.988339755,-0.09179664,0.041320695
1764433645.335061,-7.18746,6.821219999999999,-0.0762999999999999,0.988339755,-0.09179664,0.041320695
1764433645.335061,-7.18746,6.821219999999999,-0.0762999999999999,0.988339755,-0.09179664,0.041320695
1764433645.335061,-6.683879999999999,7.73682,-0.42728,0.98888907,-0.09387183,0.042297255
1764433645.335061,-6.683879999999999,7.73682,-0.42728,0.98888907,-0.09387183,0.042297255
1764433645.3360744,-6.683879999999999,7.73682,-0.42728,0.98888907,-0.09387183,0.042297255
1764433645.3360744,-6.683879999999999,7.73682,-0.42728,0.98888907,-0.09387183,0.042297255
1764433645.3360744,-6.683879999999999,7.73682,-0.42728,0.98888907,-0.09387183,0.042297255
1764433645.3360744,-6.683879999999999,7.73682,-0.42728,0.98888907,-0.09387183,0.042297255
1764433645.3360744,-6.683879999999999,7.73682,-0.42728,0.98888907,-0.09387183,0.042297255
1764433645.3360744,-6.683879999999999,7.73682,-0.42728,0.98888907,-0.09387183,0.042297255
1764433645.3360744,-6.683879999999999,7.73682,-0.42728,0.98888907,-0.09387183,0.042297255
1764433645.3360744,-6.683879999999999,7.73682,-0.42728,0.98888907,-0.09387183,0.042297255
1764433645.3360744,-5.14262,8.83554,-0.25942,0.989316315,-0.09802221,0.045226935
1764433645.3360744,-5.14262,8.83554,-0.25942,0.989316315,-0.09802221,0.045226935
1764433645.3360744,-5.14262,8.83554,-0.25942,0.989316315,-0.09802221,0.045226935
1764433645.3375907,-5.14262,8.83554,-0.25942,0.989316315,-0.09802221,0.045226935
1764433645.3375907,-5.14262,8.83554,-0.25942,0.989316315,-0.09802221,0.045226935
1764433645.3375907,-5.14262,8.83554,-0.25942,0.989316315,-0.09802221,0.045226935
1764433645.3375907,-5.14262,8.83554,-0.25942,0.989316315,-0.09802221,0.045226935
1764433645.3375907,-5.14262,8.83554,-0.25942,0.989316315,-0.09802221,0.045226935
1764433645.3375907,-5.14262,8.83554,-0.25942,0.989316315,-0.09802221,0.045226935
1764433645.3375907,-5.14262,8.83554,-0.25942,0.989316315,-0.09802221,0.045226935
1764433645.3375907,-3.32668,9.919,-0.93086,0.98913321,-0.1000974,0.04821765
1764433645.3375907,-3.32668,9.919,-0.93086,0.98913321,-0.1000974,0.04821765
1764433645.3817856,-3.32668,9.919,-0.93086,0.98913321,-0.1000974,0.04821765
1764433645.3817856,-3.32668,9.919,-0.93086,0.98913321,-0.1000974,0.04821765
1764433645.3817856,-3.32668,9.919,-0.93086,0.98913321,-0.1000974,0.04821765
1764433645.3817856,-3.32668,9.919,-0.93086,0.98913321,-0.1000974,0.04821765
1764433645.3817856,-3.32668,9.919,-0.93086,0.98913321,-0.1000974,0.04821765
1764433645.3817856,-3.32668,9.919,-0.93086,0.98913321,-0.1000974,0.04821765
1764433645.3817856,-3.32668,9.919,-0.93086,0.98913321,-0.1000974,0.04821765
1764433645.3817856,-3.32668,9.919,-0.93086,0.98913321,-0.1000974,0.04821765
1764433645.3817856,-1.9075,10.3005,-2.02958,0.98852286,-0.099914295,0.050964225
1764433645.3817856,-1.9075,10.3005,-2.02958,0.98852286,-0.099914295,0.050964225
1764433645.3817856,-1.9075,10.3005,-2.02958,0.98852286,-0.099914295,0.050964225
1764433645.3817856,-1.9075,10.3005,-2.02958,0.98852286,-0.099914295,0.050964225
1764433645.3817856,-1.9075,10.3005,-2.02958,0.98852286,-0.099914295,0.050964225
1764433645.3817856,-1.9075,10.3005,-2.02958,0.98852286,-0.099914295,0.050964225
1764433645.3817856,-1.9075,10.3005,-2.02958,0.98852286,-0.099914295,0.050964225
1764433645.3817856,-1.9075,10.3005,-2.02958,0.98852286,-0.099914295,0.050964225
1764433645.3817856,-1.9075,10.3005,-2.02958,0.98852286,-0.099914295,0.050964225
1764433645.3817856,-1.9075,10.3005,-2.02958,0.98852286,-0.099914295,0.050964225
1764433645.3817856,-0.93086,9.59854,-3.38772,0.98815665,-0.09753393,0.052795275
1764433645.3817856,-0.93086,9.59854,-3.38772,0.98815665,-0.09753393,0.052795275
1764433645.3817856,-0.93086,9.59854,-3.38772,0.98815665,-0.09753393,0.052795275
1764433645.3827815,-0.93086,9.59854,-3.38772,0.98815665,-0.09753393,0.052795275
1764433645.3827815,-0.93086,9.59854,-3.38772,0.98815665,-0.09753393,0.052795275
1764433645.3827815,-0.93086,9.59854,-3.38772,0.98815665,-0.09753393,0.052795275
1764433645.425625,-0.93086,9.59854,-3.38772,0.98815665,-0.09753393,0.052795275
1764433645.425625,-0.93086,9.59854,-3.38772,0.98815665,-0.09753393,0.052795275
1764433645.425625,-0.93086,9.59854,-3.38772,0.98815665,-0.09753393,0.052795275
1764433645.425625,-0.93086,9.59854,-3.38772,0.98815665,-0.09753393,0.052795275
1764433645.425625,-1.35814,9.03392,-4.31858,0.987363195,-0.09338355,0.054138045
1764433645.426166,-1.35814,9.03392,-4.31858,0.987363195,-0.09338355,0.054138045
1764433645.426166,-1.35814,9.03392,-4.31858,0.987363195,-0.09338355,0.054138045
1764433645.426166,-1.35814,9.03392,-4.31858,0.987363195,-0.09338355,0.054138045
1764433645.426166,-1.35814,9.03392,-4.31858,0.987363195,-0.09338355,0.054138045
1764433645.426166,-1.35814,9.03392,-4.31858,0.987363195,-0.09338355,0.054138045
1764433645.426166,-1.35814,9.03392,-4.31858,0.987363195,-0.09338355,0.054138045
1764433645.426166,-1.35814,9.03392,-4.31858,0.987363195,-0.09338355,0.054138045
1764433645.426166,-1.35814,9.03392,-4.31858,0.987363195,-0.09338355,0.054138045
1764433645.426166,-1.35814,9.03392,-4.31858,0.987363195,-0.09338355,0.054138045
1764433645.426166,-2.10588,6.98908,-4.47118,0.98412834,-0.089660415,0.054870465
1764433645.4271932,-2.10588,6.98908,-4.47118,0.98412834,-0.089660415,0.054870465
1764433645.4271932,-2.10588,6.98908,-4.47118,0.98412834,-0.089660415,0.054870465
1764433645.4277046,-2.10588,6.98908,-4.47118,0.98412834,-0.089660415,0.054870465
1764433645.4277046,-2.10588,6.98908,-4.47118,0.98412834,-0.089660415,0.054870465
1764433645.4277046,-2.10588,6.98908,-4.47118,0.98412834,-0.089660415,0.054870465
1764433645.4277046,-2.10588,6.98908,-4.47118,0.98412834,-0.089660415,0.054870465
1764433645.428717,-2.10588,6.98908,-4.47118,0.98412834,-0.089660415,0.054870465
1764433645.428717,-2.10588,6.98908,-4.47118,0.98412834,-0.089660415,0.054870465
1764433645.4297173,-2.10588,6.98908,-4.47118,0.98412834,-0.089660415,0.054870465
1764433645.470845,-3.26564,6.04296,-2.31952,0.98168694,-0.088805925,0.055602885
1764433645.470845,-3.26564,6.04296,-2.31952,0.98168694,-0.088805925,0.055602885
1764433645.4718654,-3.26564,6.04296,-2.31952,0.98168694,-0.088805925,0.055602885
1764433645.4718654,-3.26564,6.04296,-2.31952,0.98168694,-0.088805925,0.055602885
1764433645.4718654,-3.26564,6.04296,-2.31952,0.98168694,-0.088805925,0.055602885
1764433645.4718654,-3.26564,6.04296,-2.31952,0.98168694,-0.088805925,0.055602885
1764433645.4718654,-3.26564,6.04296,-2.31952,0.98168694,-0.088805925,0.055602885
1764433645.4718654,-3.26564,6.04296,-2.31952,0.98168694,-0.088805925,0.055602885
1764433645.4718654,-3.26564,6.04296,-2.31952,0.98168694,-0.088805925,0.055602885
1764433645.4718654,-3.26564,6.04296,-2.31952,0.98168694,-0.088805925,0.055602885
1764433645.4718654,-3.26564,5.096839999999999,0.3051999999999999,0.9802221,-0.09143043,0.057800145
1764433645.472864,-3.26564,5.096839999999999,0.3051999999999999,0.9802221,-0.09143043,0.057800145
1764433645.472864,-3.26564,5.096839999999999,0.3051999999999999,0.9802221,-0.09143043,0.057800145
1764433645.472864,-3.26564,5.096839999999999,0.3051999999999999,0.9802221,-0.09143043,0.057800145
1764433645.472864,-3.26564,5.096839999999999,0.3051999999999999,0.9802221,-0.09143043,0.057800145
1764433645.472864,-3.26564,5.096839999999999,0.3051999999999999,0.9802221,-0.09143043,0.057800145
1764433645.473929,-3.26564,5.096839999999999,0.3051999999999999,0.9802221,-0.09143043,0.057800145
1764433645.473929,-3.26564,5.096839999999999,0.3051999999999999,0.9802221,-0.09143043,0.057800145
1764433645.473929,-3.26564,5.096839999999999,0.3051999999999999,0.9802221,-0.09143043,0.057800145
1764433645.473929,-3.26564,5.096839999999999,0.3051999999999999,0.9802221,-0.09143043,0.057800145
1764433645.5179758,-2.50264,4.21176,2.3653,0.98095452,-0.09472632,0.059997405
1764433645.5179758,-2.50264,4.21176,2.3653,0.98095452,-0.09472632,0.059997405
1764433645.518504,-2.50264,4.21176,2.3653,0.98095452,-0.09472632,0.059997405
1764433645.518504,-2.50264,4.21176,2.3653,0.98095452,-0.09472632,0.059997405
1764433645.518504,-2.50264,4.21176,2.3653,0.98095452,-0.09472632,0.059997405
1764433645.518504,-2.50264,4.21176,2.3653,0.98095452,-0.09472632,0.059997405
1764433645.518504,-2.50264,4.21176,2.3653,0.98095452,-0.09472632,0.059997405
1764433645.518504,-2.50264,4.21176,2.3653,0.98095452,-0.09472632,0.059997405
1764433645.518504,-2.50264,4.21176,2.3653,0.98095452,-0.09472632,0.059997405
1764433645.518504,-2.50264,4.21176,2.3653,0.98095452,-0.09472632,0.059997405
1764433645.518504,-0.8087799999999999,4.059159999999999,3.8913,0.98254143,-0.098815665,0.061950525
1764433645.518504,-0.8087799999999999,4.059159999999999,3.8913,0.98254143,-0.098815665,0.061950525
1764433645.518504,-0.8087799999999999,4.059159999999999,3.8913,0.98254143,-0.098815665,0.061950525
1764433645.518504,-0.8087799999999999,4.059159999999999,3.8913,0.98254143,-0.098815665,0.061950525
1764433645.518504,-0.8087799999999999,4.059159999999999,3.8913,0.98254143,-0.098815665,0.061950525
1764433645.518504,-0.8087799999999999,4.059159999999999,3.8913,0.98254143,-0.098815665,0.061950525
1764433645.518504,-0.8087799999999999,4.059159999999999,3.8913,0.98254143,-0.098815665,0.061950525
1764433645.5190277,-0.8087799999999999,4.059159999999999,3.8913,0.98254143,-0.098815665,0.061950525
1764433645.5190277,-0.8087799999999999,4.059159999999999,3.8913,0.98254143,-0.098815665,0.061950525
1764433645.5190277,-0.8087799999999999,4.059159999999999,3.8913,0.98254143,-0.098815665,0.061950525
1764433645.5190277,1.8312,4.60852,5.14262,0.98327385,-0.102843975,0.063659505
1764433645.5190277,1.8312,4.60852,5.14262,0.98327385,-0.102843975,0.063659505
1764433645.5200436,1.8312,4.60852,5.14262,0.98327385,-0.102843975,0.063659505
1764433645.5200436,1.8312,4.60852,5.14262,0.98327385,-0.102843975,0.063659505
1764433645.5666442,1.8312,4.60852,5.14262,0.98327385,-0.102843975,0.063659505
1764433645.5666442,1.8312,4.60852,5.14262,0.98327385,-0.102843975,0.063659505
1764433645.5676608,1.8312,4.60852,5.14262,0.98327385,-0.102843975,0.063659505
1764433645.5676608,1.8312,4.60852,5.14262,0.98327385,-0.102843975,0.063659505
1764433645.5676608,1.8312,4.60852,5.14262,0.98327385,-0.102843975,0.063659505
1764433645.5676608,1.8312,4.60852,5.14262,0.98327385,-0.102843975,0.063659505
1764433645.5676608,4.37962,4.24228,5.234179999999999,0.984555585,-0.105285375,0.063659505
1764433645.5676608,4.37962,4.24228,5.234179999999999,0.984555585,-0.105285375,0.063659505
1764433645.5676608,4.37962,4.24228,5.234179999999999,0.984555585,-0.105285375,0.063659505
1764433645.5676608,4.37962,4.24228,5.234179999999999,0.984555585,-0.105285375,0.063659505
1764433645.5676608,4.37962,4.24228,5.234179999999999,0.984555585,-0.105285375,0.063659505
1764433645.5676608,4.37962,4.24228,5.234179999999999,0.984555585,-0.105285375,0.063659505
1764433645.5676608,4.37962,4.24228,5.234179999999999,0.984555585,-0.105285375,0.063659505
1764433645.5676608,4.37962,4.24228,5.234179999999999,0.984555585,-0.105285375,0.063659505
1764433645.5676608,4.37962,4.24228,5.234179999999999,0.984555585,-0.105285375,0.063659505
1764433645.5676608,4.37962,4.24228,5.234179999999999,0.984555585,-0.105285375,0.063659505
1764433645.5676608,5.35626,4.74586,4.28806,0.986264565,-0.1049802,0.06384261
1764433645.5676608,5.35626,4.74586,4.28806,0.986264565,-0.1049802,0.06384261
1764433645.5676608,5.35626,4.74586,4.28806,0.986264565,-0.1049802,0.06384261
1764433645.5676608,5.35626,4.74586,4.28806,0.986264565,-0.1049802,0.06384261
1764433645.5676608,5.35626,4.74586,4.28806,0.986264565,-0.1049802,0.06384261
1764433645.5676608,5.35626,4.74586,4.28806,0.986264565,-0.1049802,0.06384261
1764433645.6111755,5.35626,4.74586,4.28806,0.986264565,-0.1049802,0.06384261
1764433645.6111755,5.35626,4.74586,4.28806,0.986264565,-0.1049802,0.06384261
1764433645.6111755,5.35626,4.74586,4.28806,0.986264565,-0.1049802,0.06384261
1764433645.6111755,5.35626,4.74586,4.28806,0.986264565,-0.1049802,0.06384261
1764433645.6111755,5.5699,4.86794,2.86888,0.98718009,-0.103454325,0.0634764
1764433645.6111755,5.5699,4.86794,2.86888,0.98718009,-0.103454325,0.0634764
1764433645.6111755,5.5699,4.86794,2.86888,0.98718009,-0.103454325,0.0634764
1764433645.6111755,5.5699,4.86794,2.86888,0.98718009,-0.103454325,0.0634764
1764433645.6111755,5.5699,4.86794,2.86888,0.98718009,-0.103454325,0.0634764
1764433645.6111755,5.5699,4.86794,2.86888,0.98718009,-0.103454325,0.0634764
1764433645.6111755,5.5699,4.86794,2.86888,0.98718009,-0.103454325,0.0634764
1764433645.6111755,5.5699,4.86794,2.86888,0.98718009,-0.103454325,0.0634764
1764433645.6111755,5.5699,4.86794,2.86888,0.98718009,-0.103454325,0.0634764
1764433645.6111755,5.5699,4.86794,2.86888,0.98718009,-0.103454325,0.0634764
1764433645.6111755,5.27996,5.615679999999999,0.85456,0.98705802,-0.09924291,0.06298812
1764433645.6111755,5.27996,5.615679999999999,0.85456,0.98705802,-0.09924291,0.06298812
1764433645.6111755,5.27996,5.615679999999999,0.85456,0.98705802,-0.09924291,0.06298812
1764433645.6111755,5.27996,5.615679999999999,0.85456,0.98705802,-0.09924291,0.06298812
1764433645.6111755,5.27996,5.615679999999999,0.85456,0.98705802,-0.09924291,0.06298812
1764433645.6111755,5.27996,5.615679999999999,0.85456,0.98705802,-0.09924291,0.06298812
1764433645.6111755,5.27996,5.615679999999999,0.85456,0.98705802,-0.09924291,0.06298812
1764433645.6111755,5.27996,5.615679999999999,0.85456,0.98705802,-0.09924291,0.06298812
1764433645.6111755,5.27996,5.615679999999999,0.85456,0.98705802,-0.09924291,0.06298812
1764433645.6111755,5.27996,5.615679999999999,0.85456,0.98705802,-0.09924291,0.06298812
1764433645.612183,4.79164,6.31764,0.04578,0.985410075,-0.0952146,0.062927085
1764433645.612183,4.79164,6.31764,0.04578,0.985410075,-0.0952146,0.062927085
1764433645.660143,4.79164,6.31764,0.04578,0.985410075,-0.0952146,0.062927085
1764433645.660143,4.79164,6.31764,0.04578,0.985410075,-0.0952146,0.062927085
1764433645.660143,4.79164,6.31764,0.04578,0.985410075,-0.0952146,0.062927085
1764433645.660143,4.79164,6.31764,0.04578,0.985410075,-0.0952146,0.062927085
1764433645.660143,4.79164,6.31764,0.04578,0.985410075,-0.0952146,0.062927085
1764433645.660143,4.79164,6.31764,0.04578,0.985410075,-0.0952146,0.062927085
1764433645.660143,4.79164,6.31764,0.04578,0.985410075,-0.0952146,0.062927085
1764433645.660143,4.79164,6.31764,0.04578,0.985410075,-0.0952146,0.062927085
1764433645.660143,3.70818,6.43972,-0.3357199999999999,0.98473869,-0.09167457,0.06262191
1764433645.660143,3.70818,6.43972,-0.3357199999999999,0.98473869,-0.09167457,0.06262191
1764433645.660143,3.70818,6.43972,-0.3357199999999999,0.98473869,-0.09167457,0.06262191
1764433645.660143,3.70818,6.43972,-0.3357199999999999,0.98473869,-0.09167457,0.06262191
1764433645.6616657,3.70818,6.43972,-0.3357199999999999,0.98473869,-0.09167457,0.06262191
1764433645.6616657,3.70818,6.43972,-0.3357199999999999,0.98473869,-0.09167457,0.06262191
1764433645.6616657,3.70818,6.43972,-0.3357199999999999,0.98473869,-0.09167457,0.06262191
1764433645.6616657,3.70818,6.43972,-0.3357199999999999,0.98473869,-0.09167457,0.06262191
1764433645.6616657,3.70818,6.43972,-0.3357199999999999,0.98473869,-0.09167457,0.06262191
1764433645.6616657,3.70818,6.43972,-0.3357199999999999,0.98473869,-0.09167457,0.06262191
1764433645.6616657,2.85362,6.653359999999999,-0.01526,0.98302971,-0.090514905,0.06274398
1764433645.6616657,2.85362,6.653359999999999,-0.01526,0.98302971,-0.090514905,0.06274398
1764433645.7048025,2.85362,6.653359999999999,-0.01526,0.98302971,-0.090514905,0.06274398
1764433645.7048025,2.85362,6.653359999999999,-0.01526,0.98302971,-0.090514905,0.06274398
1764433645.7048025,2.85362,6.653359999999999,-0.01526,0.98302971,-0.090514905,0.06274398
1764433645.7048025,2.85362,6.653359999999999,-0.01526,0.98302971,-0.090514905,0.06274398
1764433645.7048025,2.85362,6.653359999999999,-0.01526,0.98302971,-0.090514905,0.06274398
1764433645.7048025,2.85362,6.653359999999999,-0.01526,0.98302971,-0.090514905,0.06274398
1764433645.7048025,2.85362,6.653359999999999,-0.01526,0.98302971,-0.090514905,0.06274398
1764433645.7048025,2.85362,6.653359999999999,-0.01526,0.98302971,-0.090514905,0.06274398
1764433645.7048025,2.0601,6.31764,0.48832,0.981870045,-0.08898903,0.062438805
1764433645.7048025,2.0601,6.31764,0.48832,0.981870045,-0.08898903,0.062438805
1764433645.7048025,2.0601,6.31764,0.48832,0.981870045,-0.08898903,0.062438805
1764433645.7048025,2.0601,6.31764,0.48832,0.981870045,-0.08898903,0.062438805
1764433645.7048025,2.0601,6.31764,0.48832,0.981870045,-0.08898903,0.062438805
1764433645.7048025,2.0601,6.31764,0.48832,0.981870045,-0.08898903,0.062438805
1764433645.7048025,2.0601,6.31764,0.48832,0.981870045,-0.08898903,0.062438805
1764433645.7048025,2.0601,6.31764,0.48832,0.981870045,-0.08898903,0.062438805
1764433645.7048025,2.0601,6.31764,0.48832,0.981870045,-0.08898903,0.062438805
1764433645.7048025,2.0601,6.31764,0.48832,0.981870045,-0.08898903,0.062438805
1764433645.7048025,1.23606,5.98192,1.96854,0.982114185,-0.090148695,0.06372054
1764433645.7048025,1.23606,5.98192,1.96854,0.982114185,-0.090148695,0.06372054
1764433645.7048025,1.23606,5.98192,1.96854,0.982114185,-0.090148695,0.06372054
1764433645.7048025,1.23606,5.98192,1.96854,0.982114185,-0.090148695,0.06372054
1764433645.7048025,1.23606,5.98192,1.96854,0.982114185,-0.090148695,0.06372054
1764433645.7048025,1.23606,5.98192,1.96854,0.982114185,-0.090148695,0.06372054
1764433645.7530737,1.23606,5.98192,1.96854,0.982114185,-0.090148695,0.06372054
1764433645.7530737,1.23606,5.98192,1.96854,0.982114185,-0.090148695,0.06372054
1764433645.7530737,1.23606,5.98192,1.96854,0.982114185,-0.090148695,0.06372054
1764433645.7530737,1.23606,5.98192,1.96854,0.982114185,-0.090148695,0.06372054
1764433645.7530737,0.6409199999999999,5.9514,3.64714,0.984067305,-0.09350562,0.06420882
1764433645.7536602,0.6409199999999999,5.9514,3.64714,0.984067305,-0.09350562,0.06420882
1764433645.7536602,0.6409199999999999,5.9514,3.64714,0.984067305,-0.09350562,0.06420882
1764433645.7536602,0.6409199999999999,5.9514,3.64714,0.984067305,-0.09350562,0.06420882
1764433645.7536602,0.6409199999999999,5.9514,3.64714,0.984067305,-0.09350562,0.06420882
1764433645.7536602,0.6409199999999999,5.9514,3.64714,0.984067305,-0.09350562,0.06420882
1764433645.7536602,0.6409199999999999,5.9514,3.64714,0.984067305,-0.09350562,0.06420882
1764433645.7536602,0.6409199999999999,5.9514,3.64714,0.984067305,-0.09350562,0.06420882
1764433645.7536602,0.6409199999999999,5.9514,3.64714,0.984067305,-0.09350562,0.06420882
1764433645.7536602,0.6409199999999999,5.9514,3.64714,0.984067305,-0.09350562,0.06420882
1764433645.7536602,-0.3051999999999999,5.06632,4.68482,0.98400627,-0.09448218,0.064025715
1764433645.7536602,-0.3051999999999999,5.06632,4.68482,0.98400627,-0.09448218,0.064025715
1764433645.7536602,-0.3051999999999999,5.06632,4.68482,0.98400627,-0.09448218,0.064025715
1764433645.7536602,-0.3051999999999999,5.06632,4.68482,0.98400627,-0.09448218,0.064025715
1764433645.7536602,-0.3051999999999999,5.06632,4.68482,0.98400627,-0.09448218,0.064025715
1764433645.7536602,-0.3051999999999999,5.06632,4.68482,0.98400627,-0.09448218,0.064025715
1764433645.7536602,-0.3051999999999999,5.06632,4.68482,0.98400627,-0.09448218,0.064025715
1764433645.7536602,-0.3051999999999999,5.06632,4.68482,0.98400627,-0.09448218,0.064025715
1764433645.7536602,-0.3051999999999999,5.06632,4.68482,0.98400627,-0.09448218,0.064025715
1764433645.7536602,-0.3051999999999999,5.06632,4.68482,0.98400627,-0.09448218,0.064025715
1764433645.7973585,-1.00716,4.99002,4.94424,0.984921795,-0.09497046,0.06433089
1764433645.7973585,-1.00716,4.99002,4.94424,0.984921795,-0.09497046,0.06433089
1764433645.7973585,-1.00716,4.99002,4.94424,0.984921795,-0.09497046,0.06433089
1764433645.7973585,-1.00716,4.99002,4.94424,0.984921795,-0.09497046,0.06433089
1764433645.7973585,-1.00716,4.99002,4.94424,0.984921795,-0.09497046,0.06433089
1764433645.7978878,-1.00716,4.99002,4.94424,0.984921795,-0.09497046,0.06433089
1764433645.7978878,-1.00716,4.99002,4.94424,0.984921795,-0.09497046,0.06433089
1764433645.7978878,-1.00716,4.99002,4.94424,0.984921795,-0.09497046,0.06433089
1764433645.7978878,-1.00716,4.99002,4.94424,0.984921795,-0.09497046,0.06433089
1764433645.7978878,-1.00716,4.99002,4.94424,0.984921795,-0.09497046,0.06433089
1764433645.7978878,-1.17502,5.32574,4.53222,0.98681388,-0.096374265,0.065978835
1764433645.7978878,-1.17502,5.32574,4.53222,0.98681388,-0.096374265,0.065978835
1764433645.7978878,-1.17502,5.32574,4.53222,0.98681388,-0.096374265,0.065978835
1764433645.7978878,-1.17502,5.32574,4.53222,0.98681388,-0.096374265,0.065978835
1764433645.7978878,-1.17502,5.32574,4.53222,0.98681388,-0.096374265,0.065978835
1764433645.7978878,-1.17502,5.32574,4.53222,0.98681388,-0.096374265,0.065978835
1764433645.7978878,-1.17502,5.32574,4.53222,0.98681388,-0.096374265,0.065978835
1764433645.7978878,-1.17502,5.32574,4.53222,0.98681388,-0.096374265,0.065978835
1764433645.7978878,-1.17502,5.32574,4.53222,0.98681388,-0.096374265,0.065978835
1764433645.798905,-1.17502,5.32574,4.53222,0.98681388,-0.096374265,0.065978835
1764433645.798905,-1.23606,5.43256,3.6624,0.985776285,-0.09728979,0.067565745
1764433645.798905,-1.23606,5.43256,3.6624,0.985776285,-0.09728979,0.067565745
1764433645.798905,-1.23606,5.43256,3.6624,0.985776285,-0.09728979,0.067565745
1764433645.798905,-1.23606,5.43256,3.6624,0.985776285,-0.09728979,0.067565745
1764433645.8446589,-1.23606,5.43256,3.6624,0.985776285,-0.09728979,0.067565745
1764433645.8446589,-1.23606,5.43256,3.6624,0.985776285,-0.09728979,0.067565745
1764433645.8456705,-1.23606,5.43256,3.6624,0.985776285,-0.09728979,0.067565745
1764433645.8456705,-1.23606,5.43256,3.6624,0.985776285,-0.09728979,0.067565745
1764433645.8456705,-1.23606,5.43256,3.6624,0.985776285,-0.09728979,0.067565745
1764433645.8456705,-1.23606,5.43256,3.6624,0.985776285,-0.09728979,0.067565745
1764433645.8456705,-1.89224,5.67672,2.7468,0.983334885,-0.09777807,0.06884748
1764433645.8456705,-1.89224,5.67672,2.7468,0.983334885,-0.09777807,0.06884748
1764433645.8456705,-1.89224,5.67672,2.7468,0.983334885,-0.09777807,0.06884748
1764433645.8456705,-1.89224,5.67672,2.7468,0.983334885,-0.09777807,0.06884748
1764433645.8456705,-1.89224,5.67672,2.7468,0.983334885,-0.09777807,0.06884748
1764433645.8456705,-1.89224,5.67672,2.7468,0.983334885,-0.09777807,0.06884748
1764433645.8456705,-1.89224,5.67672,2.7468,0.983334885,-0.09777807,0.06884748
1764433645.8456705,-1.89224,5.67672,2.7468,0.983334885,-0.09777807,0.06884748
1764433645.8456705,-1.89224,5.67672,2.7468,0.983334885,-0.09777807,0.06884748
1764433645.8456705,-1.89224,5.67672,2.7468,0.983334885,-0.09777807,0.06884748
1764433645.8456705,-1.86172,5.43256,1.64808,0.982114185,-0.098693595,0.069885075
1764433645.8456705,-1.86172,5.43256,1.64808,0.982114185,-0.098693595,0.069885075
1764433645.8456705,-1.86172,5.43256,1.64808,0.982114185,-0.098693595,0.069885075
1764433645.8456705,-1.86172,5.43256,1.64808,0.982114185,-0.098693595,0.069885075
1764433645.8456705,-1.86172,5.43256,1.64808,0.982114185,-0.098693595,0.069885075
1764433645.8456705,-1.86172,5.43256,1.64808,0.982114185,-0.098693595,0.069885075
1764433645.8456705,-1.86172,5.43256,1.64808,0.982114185,-0.098693595,0.069885075
1764433645.8456705,-1.86172,5.43256,1.64808,0.982114185,-0.098693595,0.069885075
1764433645.88825,-1.86172,5.43256,1.64808,0.982114185,-0.098693595,0.069885075
1764433645.88825,-1.86172,5.43256,1.64808,0.982114185,-0.098693595,0.069885075
1764433645.88825,-2.25848,5.82932,0.44254,0.98156487,-0.098815665,0.07165509
1764433645.88825,-2.25848,5.82932,0.44254,0.98156487,-0.098815665,0.07165509
1764433645.88825,-2.25848,5.82932,0.44254,0.98156487,-0.098815665,0.07165509
1764433645.88825,-2.25848,5.82932,0.44254,0.98156487,-0.098815665,0.07165509
1764433645.88825,-2.25848,5.82932,0.44254,0.98156487,-0.098815665,0.07165509
1764433645.88825,-2.25848,5.82932,0.44254,0.98156487,-0.098815665,0.07165509
1764433645.88825,-2.25848,5.82932,0.44254,0.98156487,-0.098815665,0.07165509
1764433645.88825,-2.25848,5.82932,0.44254,0.98156487,-0.098815665,0.07165509
1764433645.88825,-2.25848,5.82932,0.44254,0.98156487,-0.098815665,0.07165509
1764433645.88825,-2.25848,5.82932,0.44254,0.98156487,-0.098815665,0.07165509
1764433645.88825,-2.15166,5.82932,-0.77826,0.982480395,-0.09838842,0.073303035
1764433645.88825,-2.15166,5.82932,-0.77826,0.982480395,-0.09838842,0.073303035
1764433645.88825,-2.15166,5.82932,-0.77826,0.982480395,-0.09838842,0.073303035
1764433645.88825,-2.15166,5.82932,-0.77826,0.982480395,-0.09838842,0.073303035
1764433645.8892665,-2.15166,5.82932,-0.77826,0.982480395,-0.09838842,0.073303035
1764433645.8892665,-2.15166,5.82932,-0.77826,0.982480395,-0.09838842,0.073303035
1764433645.8892665,-2.15166,5.82932,-0.77826,0.982480395,-0.09838842,0.073303035
1764433645.8892665,-2.15166,5.82932,-0.77826,0.982480395,-0.09838842,0.073303035
1764433645.8892665,-2.15166,5.82932,-0.77826,0.982480395,-0.09838842,0.073303035
1764433645.8892665,-2.15166,5.82932,-0.77826,0.982480395,-0.09838842,0.073303035
1764433645.9358263,-2.30426,6.21082,-1.72438,0.982724535,-0.098937735,0.07580547
1764433645.9358263,-2.30426,6.21082,-1.72438,0.982724535,-0.098937735,0.07580547
1764433645.9358263,-2.30426,6.21082,-1.72438,0.982724535,-0.098937735,0.07580547
1764433645.9358263,-2.30426,6.21082,-1.72438,0.982724535,-0.098937735,0.07580547
1764433645.9378717,-2.30426,6.21082,-1.72438,0.982724535,-0.098937735,0.07580547
1764433645.9378717,-2.30426,6.21082,-1.72438,0.982724535,-0.098937735,0.07580547
1764433645.9378717,-2.30426,6.21082,-1.72438,0.982724535,-0.098937735,0.07580547
1764433645.9378717,-2.30426,6.21082,-1.72438,0.982724535,-0.098937735,0.07580547
1764433645.9378717,-2.30426,6.21082,-1.72438,0.982724535,-0.098937735,0.07580547
1764433645.9378717,-2.30426,6.21082,-1.72438,0.982724535,-0.098937735,0.07580547
1764433645.9378717,-2.09062,6.104,-2.42634,0.982236255,-0.099059805,0.07763652
1764433645.9378717,-2.09062,6.104,-2.42634,0.982236255,-0.099059805,0.07763652
1764433645.9378717,-2.09062,6.104,-2.42634,0.982236255,-0.099059805,0.07763652
1764433645.9378717,-2.09062,6.104,-2.42634,0.982236255,-0.099059805,0.07763652
1764433645.9378717,-2.09062,6.104,-2.42634,0.982236255,-0.099059805,0.07763652
1764433645.9378717,-2.09062,6.104,-2.42634,0.982236255,-0.099059805,0.07763652
1764433645.9378717,-2.09062,6.104,-2.42634,0.982236255,-0.099059805,0.07763652
1764433645.9378717,-2.09062,6.104,-2.42634,0.982236255,-0.099059805,0.07763652
1764433645.938884,-2.09062,6.104,-2.42634,0.982236255,-0.099059805,0.07763652
1764433645.938884,-2.09062,6.104,-2.42634,0.982236255,-0.099059805,0.07763652
1764433645.938884,-2.1364,5.85984,-3.06726,0.982602465,-0.097961175,0.080016885
1764433645.938884,-2.1364,5.85984,-3.06726,0.982602465,-0.097961175,0.080016885
1764433645.981889,-2.1364,5.85984,-3.06726,0.982602465,-0.097961175,0.080016885
1764433645.982396,-2.1364,5.85984,-3.06726,0.982602465,-0.097961175,0.080016885
1764433645.982396,-2.1364,5.85984,-3.06726,0.982602465,-0.097961175,0.080016885
1764433645.982396,-2.1364,5.85984,-3.06726,0.982602465,-0.097961175,0.080016885
1764433645.982396,-2.1364,5.85984,-3.06726,0.982602465,-0.097961175,0.080016885
1764433645.982396,-2.1364,5.85984,-3.06726,0.982602465,-0.097961175,0.080016885
1764433645.982396,-2.1364,5.85984,-3.06726,0.982602465,-0.097961175,0.080016885
1764433645.982396,-2.1364,5.85984,-3.06726,0.982602465,-0.097961175,0.080016885
1764433645.982396,-2.56368,4.99002,-2.41108,0.98254143,-0.09680151,0.08203104
1764433645.982396,-2.56368,4.99002,-2.41108,0.98254143,-0.09680151,0.08203104
1764433645.982396,-2.56368,4.99002,-2.41108,0.98254143,-0.09680151,0.08203104
1764433645.982396,-2.56368,4.99002,-2.41108,0.98254143,-0.09680151,0.08203104
1764433645.982396,-2.56368,4.99002,-2.41108,0.98254143,-0.09680151,0.08203104
1764433645.982396,-2.56368,4.99002,-2.41108,0.98254143,-0.09680151,0.08203104
1764433645.982396,-2.56368,4.99002,-2.41108,0.98254143,-0.09680151,0.08203104
1764433645.982396,-2.56368,4.99002,-2.41108,0.98254143,-0.09680151,0.08203104
1764433645.982396,-2.56368,4.99002,-2.41108,0.98254143,-0.09680151,0.08203104
1764433645.982396,-2.56368,4.99002,-2.41108,0.98254143,-0.09680151,0.08203104
1764433645.982396,-2.88414,3.93708,-1.55652,0.98083245,-0.095153565,0.082458285
1764433645.982396,-2.88414,3.93708,-1.55652,0.98083245,-0.095153565,0.082458285
1764433645.982396,-2.88414,3.93708,-1.55652,0.98083245,-0.095153565,0.082458285
1764433645.983409,-2.88414,3.93708,-1.55652,0.98083245,-0.095153565,0.082458285
1764433645.983409,-2.88414,3.93708,-1.55652,0.98083245,-0.095153565,0.082458285
1764433645.983409,-2.88414,3.93708,-1.55652,0.98083245,-0.095153565,0.082458285
1764433646.0315485,-2.88414,3.93708,-1.55652,0.98083245,-0.095153565,0.082458285
1764433646.0315485,-2.88414,3.93708,-1.55652,0.98083245,-0.095153565,0.082458285
1764433646.0315485,-2.88414,3.93708,-1.55652,0.98083245,-0.095153565,0.082458285
1764433646.0315485,-2.88414,3.93708,-1.55652,0.98083245,-0.095153565,0.082458285
1764433646.0315485,-3.49454,2.27374,-1.15976,0.979428645,-0.09362769,0.08288553
1764433646.0315485,-3.49454,2.27374,-1.15976,0.979428645,-0.09362769,0.08288553
1764433646.0315485,-3.49454,2.27374,-1.15976,0.979428645,-0.09362769,0.08288553
1764433646.0315485,-3.49454,2.27374,-1.15976,0.979428645,-0.09362769,0.08288553
1764433646.0315485,-3.49454,2.27374,-1.15976,0.979428645,-0.09362769,0.08288553
1764433646.0315485,-3.49454,2.27374,-1.15976,0.979428645,-0.09362769,0.08288553
1764433646.0315485,-3.49454,2.27374,-1.15976,0.979428645,-0.09362769,0.08288553
1764433646.0315485,-3.49454,2.27374,-1.15976,0.979428645,-0.09362769,0.08288553
1764433646.0315485,-3.49454,2.27374,-1.15976,0.979428645,-0.09362769,0.08288553
1764433646.0315485,-3.49454,2.27374,-1.15976,0.979428645,-0.09362769,0.08288553
1764433646.0315485,-4.16598,1.63282,-0.79352,0.980649345,-0.092468025,0.083678985
1764433646.0320654,-4.16598,1.63282,-0.79352,0.980649345,-0.092468025,0.083678985
1764433646.0320654,-4.16598,1.63282,-0.79352,0.980649345,-0.092468025,0.083678985
1764433646.0320654,-4.16598,1.63282,-0.79352,0.980649345,-0.092468025,0.083678985
1764433646.0320654,-4.16598,1.63282,-0.79352,0.980649345,-0.092468025,0.083678985
1764433646.0320654,-4.16598,1.63282,-0.79352,0.980649345,-0.092468025,0.083678985
1764433646.0320654,-4.16598,1.63282,-0.79352,0.980649345,-0.092468025,0.083678985
1764433646.0320654,-4.16598,1.63282,-0.79352,0.980649345,-0.092468025,0.083678985
1764433646.0320654,-4.16598,1.63282,-0.79352,0.980649345,-0.092468025,0.083678985
1764433646.0320654,-4.16598,1.63282,-0.79352,0.980649345,-0.092468025,0.083678985
1764433646.0764663,-4.54748,1.57178,-1.1445,0.98156487,-0.091491465,0.084045195
1764433646.0764663,-4.54748,1.57178,-1.1445,0.98156487,-0.091491465,0.084045195
1764433646.0764663,-4.54748,1.57178,-1.1445,0.98156487,-0.091491465,0.084045195
1764433646.0764663,-4.54748,1.57178,-1.1445,0.98156487,-0.091491465,0.084045195
1764433646.0764663,-4.54748,1.57178,-1.1445,0.98156487,-0.091491465,0.084045195
1764433646.0764663,-4.54748,1.57178,-1.1445,0.98156487,-0.091491465,0.084045195
1764433646.0779774,-4.54748,1.57178,-1.1445,0.98156487,-0.091491465,0.084045195
1764433646.0779774,-4.54748,1.57178,-1.1445,0.98156487,-0.091491465,0.084045195
1764433646.0779774,-4.54748,1.57178,-1.1445,0.98156487,-0.091491465,0.084045195
1764433646.0779774,-4.54748,1.57178,-1.1445,0.98156487,-0.091491465,0.084045195
1764433646.0779774,-5.06632,1.0682,-0.763,0.981625905,-0.09008766,0.08435037
1764433646.0779774,-5.06632,1.0682,-0.763,0.981625905,-0.09008766,0.08435037
1764433646.0779774,-5.06632,1.0682,-0.763,0.981625905,-0.09008766,0.08435037
1764433646.0779774,-5.06632,1.0682,-0.763,0.981625905,-0.09008766,0.08435037
1764433646.0779774,-5.06632,1.0682,-0.763,0.981625905,-0.09008766,0.08435037
1764433646.0779774,-5.06632,1.0682,-0.763,0.981625905,-0.09008766,0.08435037
1764433646.0779774,-5.06632,1.0682,-0.763,0.981625905,-0.09008766,0.08435037
1764433646.0779774,-5.06632,1.0682,-0.763,0.981625905,-0.09008766,0.08435037
1764433646.0779774,-5.06632,1.0682,-0.763,0.981625905,-0.09008766,0.08435037
1764433646.0779774,-5.06632,1.0682,-0.763,0.981625905,-0.09008766,0.08435037
1764433646.0779774,-5.1121,1.02242,0.12208,0.98119866,-0.088317645,0.084289335
1764433646.0779774,-5.1121,1.02242,0.12208,0.98119866,-0.088317645,0.084289335
1764433646.0779774,-5.1121,1.02242,0.12208,0.98119866,-0.088317645,0.084289335
1764433646.0779774,-5.1121,1.02242,0.12208,0.98119866,-0.088317645,0.084289335
1764433646.1227872,-5.1121,1.02242,0.12208,0.98119866,-0.088317645,0.084289335
1764433646.1227872,-5.1121,1.02242,0.12208,0.98119866,-0.088317645,0.084289335
1764433646.1227872,-5.1121,1.02242,0.12208,0.98119866,-0.088317645,0.084289335
1764433646.1227872,-5.1121,1.02242,0.12208,0.98119866,-0.088317645,0.084289335
1764433646.1232984,-5.1121,1.02242,0.12208,0.98119866,-0.088317645,0.084289335
1764433646.1232984,-5.1121,1.02242,0.12208,0.98119866,-0.088317645,0.084289335
1764433646.1232984,-5.9514,0.59514,-0.2289,0.98071038,-0.08740212,0.08361795
1764433646.1232984,-5.9514,0.59514,-0.2289,0.98071038,-0.08740212,0.08361795
1764433646.1232984,-5.9514,0.59514,-0.2289,0.98071038,-0.08740212,0.08361795
1764433646.1232984,-5.9514,0.59514,-0.2289,0.98071038,-0.08740212,0.08361795
1764433646.1232984,-5.9514,0.59514,-0.2289,0.98071038,-0.08740212,0.08361795
1764433646.1232984,-5.9514,0.59514,-0.2289,0.98071038,-0.08740212,0.08361795
1764433646.1232984,-5.9514,0.59514,-0.2289,0.98071038,-0.08740212,0.08361795
1764433646.1232984,-5.9514,0.59514,-0.2289,0.98071038,-0.08740212,0.08361795
1764433646.1232984,-5.9514,0.59514,-0.2289,0.98071038,-0.08740212,0.08361795
1764433646.1232984,-5.9514,0.59514,-0.2289,0.98071038,-0.08740212,0.08361795
1764433646.1232984,-6.91278,0.79352,0.3357199999999999,0.981870045,-0.086486595,0.08325174
1764433646.1232984,-6.91278,0.79352,0.3357199999999999,0.981870045,-0.086486595,0.08325174
1764433646.1232984,-6.91278,0.79352,0.3357199999999999,0.981870045,-0.086486595,0.08325174
1764433646.1232984,-6.91278,0.79352,0.3357199999999999,0.981870045,-0.086486595,0.08325174
1764433646.1232984,-6.91278,0.79352,0.3357199999999999,0.981870045,-0.086486595,0.08325174
1764433646.1232984,-6.91278,0.79352,0.3357199999999999,0.981870045,-0.086486595,0.08325174
1764433646.168886,-6.91278,0.79352,0.3357199999999999,0.981870045,-0.086486595,0.08325174
1764433646.168886,-6.91278,0.79352,0.3357199999999999,0.981870045,-0.086486595,0.08325174
1764433646.168886,-6.91278,0.79352,0.3357199999999999,0.981870045,-0.086486595,0.08325174
1764433646.168886,-6.91278,0.79352,0.3357199999999999,0.981870045,-0.086486595,0.08325174
1764433646.168886,-6.6381,1.43444,0.85456,0.98412834,-0.086730735,0.083190705
1764433646.168886,-6.6381,1.43444,0.85456,0.98412834,-0.086730735,0.083190705
1764433646.168886,-6.6381,1.43444,0.85456,0.98412834,-0.086730735,0.083190705
1764433646.168886,-6.6381,1.43444,0.85456,0.98412834,-0.086730735,0.083190705
1764433646.1703985,-6.6381,1.43444,0.85456,0.98412834,-0.086730735,0.083190705
1764433646.1703985,-6.6381,1.43444,0.85456,0.98412834,-0.086730735,0.083190705
1764433646.1703985,-6.6381,1.43444,0.85456,0.98412834,-0.086730735,0.083190705
1764433646.1703985,-6.6381,1.43444,0.85456,0.98412834,-0.086730735,0.083190705
1764433646.171419,-6.6381,1.43444,0.85456,0.98412834,-0.086730735,0.083190705
1764433646.171419,-6.6381,1.43444,0.85456,0.98412834,-0.086730735,0.083190705
1764433646.171419,-6.683879999999999,1.43444,1.2208,0.98498283,-0.08850075,0.08239725
1764433646.171419,-6.683879999999999,1.43444,1.2208,0.98498283,-0.08850075,0.08239725
1764433646.1724093,-6.683879999999999,1.43444,1.2208,0.98498283,-0.08850075,0.08239725
1764433646.1724093,-6.683879999999999,1.43444,1.2208,0.98498283,-0.08850075,0.08239725
1764433646.1724093,-6.683879999999999,1.43444,1.2208,0.98498283,-0.08850075,0.08239725
1764433646.1724093,-6.683879999999999,1.43444,1.2208,0.98498283,-0.08850075,0.08239725
1764433646.1724093,-6.683879999999999,1.43444,1.2208,0.98498283,-0.08850075,0.08239725
1764433646.1734076,-6.683879999999999,1.43444,1.2208,0.98498283,-0.08850075,0.08239725
1764433646.1734076,-6.683879999999999,1.43444,1.2208,0.98498283,-0.08850075,0.08239725
1764433646.1738834,-6.683879999999999,1.43444,1.2208,0.98498283,-0.08850075,0.08239725
1764433646.2159677,-5.4173,1.6633399999999998,1.49548,0.984311445,-0.090881115,0.08264139
1764433646.2159677,-5.4173,1.6633399999999998,1.49548,0.984311445,-0.090881115,0.08264139
1764433646.2159677,-5.4173,1.6633399999999998,1.49548,0.984311445,-0.090881115,0.08264139
1764433646.2159677,-5.4173,1.6633399999999998,1.49548,0.984311445,-0.090881115,0.08264139
1764433646.2159677,-5.4173,1.6633399999999998,1.49548,0.984311445,-0.090881115,0.08264139
1764433646.2169757,-5.4173,1.6633399999999998,1.49548,0.984311445,-0.090881115,0.08264139
1764433646.2169757,-5.4173,1.6633399999999998,1.49548,0.984311445,-0.090881115,0.08264139
1764433646.2169757,-5.4173,1.6633399999999998,1.49548,0.984311445,-0.090881115,0.08264139
1764433646.2169757,-5.4173,1.6633399999999998,1.49548,0.984311445,-0.090881115,0.08264139
1764433646.2169757,-5.4173,1.6633399999999998,1.49548,0.984311445,-0.090881115,0.08264139
1764433646.2169757,-4.1965,1.6786,1.87698,0.98327385,-0.093078375,0.08312967
1764433646.217846,-4.1965,1.6786,1.87698,0.98327385,-0.093078375,0.08312967
1764433646.217846,-4.1965,1.6786,1.87698,0.98327385,-0.093078375,0.08312967
1764433646.217846,-4.1965,1.6786,1.87698,0.98327385,-0.093078375,0.08312967
1764433646.217846,-4.1965,1.6786,1.87698,0.98327385,-0.093078375,0.08312967
1764433646.217846,-4.1965,1.6786,1.87698,0.98327385,-0.093078375,0.08312967
1764433646.217846,-4.1965,1.6786,1.87698,0.98327385,-0.093078375,0.08312967
1764433646.217846,-4.1965,1.6786,1.87698,0.98327385,-0.093078375,0.08312967
1764433646.217846,-4.1965,1.6786,1.87698,0.98327385,-0.093078375,0.08312967
1764433646.217846,-4.1965,1.6786,1.87698,0.98327385,-0.093078375,0.08312967
1764433646.2189806,-3.17408,1.3734,2.07536,0.982724535,-0.096252195,0.082702425
1764433646.2189806,-3.17408,1.3734,2.07536,0.982724535,-0.096252195,0.082702425
1764433646.2189806,-3.17408,1.3734,2.07536,0.982724535,-0.096252195,0.082702425
1764433646.2189806,-3.17408,1.3734,2.07536,0.982724535,-0.096252195,0.082702425
1764433646.2638922,-3.17408,1.3734,2.07536,0.982724535,-0.096252195,0.082702425
1764433646.2638922,-3.17408,1.3734,2.07536,0.982724535,-0.096252195,0.082702425
1764433646.2638922,-3.17408,1.3734,2.07536,0.982724535,-0.096252195,0.082702425
1764433646.2638922,-3.17408,1.3734,2.07536,0.982724535,-0.096252195,0.082702425
1764433646.2638922,-3.17408,1.3734,2.07536,0.982724535,-0.096252195,0.082702425
1764433646.2638922,-3.17408,1.3734,2.07536,0.982724535,-0.096252195,0.082702425
1764433646.2638922,-1.49548,0.44254,2.45686,0.98156487,-0.098083245,0.082092075
1764433646.2638922,-1.49548,0.44254,2.45686,0.98156487,-0.098083245,0.082092075
1764433646.2638922,-1.49548,0.44254,2.45686,0.98156487,-0.098083245,0.082092075
1764433646.2638922,-1.49548,0.44254,2.45686,0.98156487,-0.098083245,0.082092075
1764433646.2638922,-1.49548,0.44254,2.45686,0.98156487,-0.098083245,0.082092075
1764433646.2638922,-1.49548,0.44254,2.45686,0.98156487,-0.098083245,0.082092075
1764433646.2638922,-1.49548,0.44254,2.45686,0.98156487,-0.098083245,0.082092075
1764433646.2638922,-1.49548,0.44254,2.45686,0.98156487,-0.098083245,0.082092075
1764433646.2638922,-1.49548,0.44254,2.45686,0.98156487,-0.098083245,0.082092075
1764433646.2638922,-1.49548,0.44254,2.45686,0.98156487,-0.098083245,0.082092075
1764433646.2638922,-0.74774,-0.01526,2.85362,0.980038995,-0.098449455,0.08215311
1764433646.2638922,-0.74774,-0.01526,2.85362,0.980038995,-0.098449455,0.08215311
1764433646.3062267,-0.74774,-0.01526,2.85362,0.980038995,-0.098449455,0.08215311
1764433646.3062267,-0.74774,-0.01526,2.85362,0.980038995,-0.098449455,0.08215311
1764433646.3062267,-0.74774,-0.01526,2.85362,0.980038995,-0.098449455,0.08215311
1764433646.3062267,-0.74774,-0.01526,2.85362,0.980038995,-0.098449455,0.08215311
1764433646.3062267,-0.74774,-0.01526,2.85362,0.980038995,-0.098449455,0.08215311
1764433646.3062267,-0.74774,-0.01526,2.85362,0.980038995,-0.098449455,0.08215311
1764433646.3062267,-0.74774,-0.01526,2.85362,0.980038995,-0.098449455,0.08215311
1764433646.3062267,-0.74774,-0.01526,2.85362,0.980038995,-0.098449455,0.08215311
1764433646.3062267,-0.9003399999999999,0.0,2.5179,0.979794855,-0.097228755,0.08081034
1764433646.3062267,-0.9003399999999999,0.0,2.5179,0.979794855,-0.097228755,0.08081034
1764433646.3062267,-0.9003399999999999,0.0,2.5179,0.979794855,-0.097228755,0.08081034
1764433646.3062267,-0.9003399999999999,0.0,2.5179,0.979794855,-0.097228755,0.08081034
1764433646.3062267,-0.9003399999999999,0.0,2.5179,0.979794855,-0.097228755,0.08081034
1764433646.3062267,-0.9003399999999999,0.0,2.5179,0.979794855,-0.097228755,0.08081034
1764433646.3062267,-0.9003399999999999,0.0,2.5179,0.979794855,-0.097228755,0.08081034
1764433646.3062267,-0.9003399999999999,0.0,2.5179,0.979794855,-0.097228755,0.08081034
1764433646.3062267,-0.9003399999999999,0.0,2.5179,0.979794855,-0.097228755,0.08081034
1764433646.3062267,-0.9003399999999999,0.0,2.5179,0.979794855,-0.097228755,0.08081034
1764433646.3062267,-0.74774,-0.59514,1.61756,0.98046624,-0.09619116,0.07971171
1764433646.3062267,-0.74774,-0.59514,1.61756,0.98046624,-0.09619116,0.07971171
1764433646.3062267,-0.74774,-0.59514,1.61756,0.98046624,-0.09619116,0.07971171
1764433646.3062267,-0.74774,-0.59514,1.61756,0.98046624,-0.09619116,0.07971171
1764433646.307233,-0.74774,-0.59514,1.61756,0.98046624,-0.09619116,0.07971171
1764433646.307233,-0.74774,-0.59514,1.61756,0.98046624,-0.09619116,0.07971171
1764433646.3077595,-0.74774,-0.59514,1.61756,0.98046624,-0.09619116,0.07971171
1764433646.3077595,-0.74774,-0.59514,1.61756,0.98046624,-0.09619116,0.07971171
1764433646.3077595,-0.74774,-0.59514,1.61756,0.98046624,-0.09619116,0.07971171
1764433646.3077595,-0.74774,-0.59514,1.61756,0.98046624,-0.09619116,0.07971171
1764433646.3533654,-1.32762,0.03052,1.00716,0.982480395,-0.095031495,0.07885722
1764433646.3533654,-1.32762,0.03052,1.00716,0.982480395,-0.095031495,0.07885722
1764433646.3533654,-1.32762,0.03052,1.00716,0.982480395,-0.095031495,0.07885722
1764433646.3533654,-1.32762,0.03052,1.00716,0.982480395,-0.095031495,0.07885722
1764433646.3533654,-1.32762,0.03052,1.00716,0.982480395,-0.095031495,0.07885722
1764433646.3533654,-1.32762,0.03052,1.00716,0.982480395,-0.095031495,0.07885722
1764433646.3533654,-1.32762,0.03052,1.00716,0.982480395,-0.095031495,0.07885722
1764433646.3533654,-1.32762,0.03052,1.00716,0.982480395,-0.095031495,0.07885722
1764433646.3533654,-1.32762,0.03052,1.00716,0.982480395,-0.095031495,0.07885722
1764433646.3533654,-1.32762,0.03052,1.00716,0.982480395,-0.095031495,0.07885722
1764433646.3533654,-2.15166,-0.18312,0.6714399999999999,0.98327385,-0.095031495,0.078429975
1764433646.3533654,-2.15166,-0.18312,0.6714399999999999,0.98327385,-0.095031495,0.078429975
1764433646.3533654,-2.15166,-0.18312,0.6714399999999999,0.98327385,-0.095031495,0.078429975
1764433646.3533654,-2.15166,-0.18312,0.6714399999999999,0.98327385,-0.095031495,0.078429975
1764433646.3533654,-2.15166,-0.18312,0.6714399999999999,0.98327385,-0.095031495,0.078429975
1764433646.3533654,-2.15166,-0.18312,0.6714399999999999,0.98327385,-0.095031495,0.078429975
1764433646.3533654,-2.15166,-0.18312,0.6714399999999999,0.98327385,-0.095031495,0.078429975
1764433646.3533654,-2.15166,-0.18312,0.6714399999999999,0.98327385,-0.095031495,0.078429975
1764433646.3533654,-2.15166,-0.18312,0.6714399999999999,0.98327385,-0.095031495,0.078429975
1764433646.3533654,-2.15166,-0.18312,0.6714399999999999,0.98327385,-0.095031495,0.078429975
1764433646.3533654,-2.41108,-0.21364,0.93086,0.982968675,-0.094665285,0.07824687
1764433646.3533654,-2.41108,-0.21364,0.93086,0.982968675,-0.094665285,0.07824687
1764433646.400334,-2.41108,-0.21364,0.93086,0.982968675,-0.094665285,0.07824687
1764433646.400334,-2.41108,-0.21364,0.93086,0.982968675,-0.094665285,0.07824687
1764433646.400334,-2.41108,-0.21364,0.93086,0.982968675,-0.094665285,0.07824687
1764433646.400334,-2.41108,-0.21364,0.93086,0.982968675,-0.094665285,0.07824687
1764433646.400334,-2.41108,-0.21364,0.93086,0.982968675,-0.094665285,0.07824687
1764433646.400334,-2.41108,-0.21364,0.93086,0.982968675,-0.094665285,0.07824687
1764433646.400334,-2.41108,-0.21364,0.93086,0.982968675,-0.094665285,0.07824687
1764433646.400334,-2.41108,-0.21364,0.93086,0.982968675,-0.094665285,0.07824687
1764433646.400334,-1.9075,0.03052,2.5179,0.98156487,-0.09802221,0.08007792
1764433646.400334,-1.9075,0.03052,2.5179,0.98156487,-0.09802221,0.08007792
1764433646.400334,-1.9075,0.03052,2.5179,0.98156487,-0.09802221,0.08007792
1764433646.400334,-1.9075,0.03052,2.5179,0.98156487,-0.09802221,0.08007792
1764433646.4018538,-1.9075,0.03052,2.5179,0.98156487,-0.09802221,0.08007792
1764433646.4018538,-1.9075,0.03052,2.5179,0.98156487,-0.09802221,0.08007792
1764433646.4018538,-1.9075,0.03052,2.5179,0.98156487,-0.09802221,0.08007792
1764433646.4018538,-1.9075,0.03052,2.5179,0.98156487,-0.09802221,0.08007792
1764433646.4018538,-1.9075,0.03052,2.5179,0.98156487,-0.09802221,0.08007792
1764433646.4018538,-1.9075,0.03052,2.5179,0.98156487,-0.09802221,0.08007792
1764433646.4018538,0.1678599999999999,0.1525999999999999,3.09778,0.98193108,-0.101867415,0.08081034
1764433646.4018538,0.1678599999999999,0.1525999999999999,3.09778,0.98193108,-0.101867415,0.08081034
1764433646.4018538,0.1678599999999999,0.1525999999999999,3.09778,0.98193108,-0.101867415,0.08081034
1764433646.4018538,0.1678599999999999,0.1525999999999999,3.09778,0.98193108,-0.101867415,0.08081034
1764433646.402852,0.1678599999999999,0.1525999999999999,3.09778,0.98193108,-0.101867415,0.08081034
1764433646.402852,0.1678599999999999,0.1525999999999999,3.09778,0.98193108,-0.101867415,0.08081034
1764433646.4479637,0.1678599999999999,0.1525999999999999,3.09778,0.98193108,-0.101867415,0.08081034
1764433646.4479637,0.1678599999999999,0.1525999999999999,3.09778,0.98193108,-0.101867415,0.08081034
1764433646.4479637,0.1678599999999999,0.1525999999999999,3.09778,0.98193108,-0.101867415,0.08081034
1764433646.4479637,0.1678599999999999,0.1525999999999999,3.09778,0.98193108,-0.101867415,0.08081034
1764433646.4479637,1.6786,-0.6714399999999999,2.27374,0.981747975,-0.10241673,0.081115515
1764433646.4479637,1.6786,-0.6714399999999999,2.27374,0.981747975,-0.10241673,0.081115515
1764433646.44898,1.6786,-0.6714399999999999,2.27374,0.981747975,-0.10241673,0.081115515
1764433646.44898,1.6786,-0.6714399999999999,2.27374,0.981747975,-0.10241673,0.081115515
1764433646.44898,1.6786,-0.6714399999999999,2.27374,0.981747975,-0.10241673,0.081115515
1764433646.44898,1.6786,-0.6714399999999999,2.27374,0.981747975,-0.10241673,0.081115515
1764433646.44898,1.6786,-0.6714399999999999,2.27374,0.981747975,-0.10241673,0.081115515
1764433646.44898,1.6786,-0.6714399999999999,2.27374,0.981747975,-0.10241673,0.081115515
1764433646.44898,1.6786,-0.6714399999999999,2.27374,0.981747975,-0.10241673,0.081115515
1764433646.44898,1.6786,-0.6714399999999999,2.27374,0.981747975,-0.10241673,0.081115515
1764433646.44898,3.54032,-0.42728,0.9156,0.999936405,-0.102721905,0.081725865
1764433646.44898,3.54032,-0.42728,0.9156,0.999936405,-0.102721905,0.081725865
1764433646.44898,3.54032,-0.42728,0.9156,0.999936405,-0.102721905,0.081725865
1764433646.44898,3.54032,-0.42728,0.9156,0.999936405,-0.102721905,0.081725865
1764433646.44898,3.54032,-0.42728,0.9156,0.999936405,-0.102721905,0.081725865
1764433646.44898,3.54032,-0.42728,0.9156,0.999936405,-0.102721905,0.081725865
1764433646.4906473,3.54032,-0.42728,0.9156,0.999936405,-0.102721905,0.081725865
1764433646.4906473,3.54032,-0.42728,0.9156,0.999936405,-0.102721905,0.081725865
1764433646.4906473,3.54032,-0.42728,0.9156,0.999936405,-0.102721905,0.081725865
1764433646.4906473,3.54032,-0.42728,0.9156,0.999936405,-0.102721905,0.081725865
1764433646.4906473,5.17314,-0.28994,0.3204599999999999,0.985410075,-0.10107396,0.081481725
1764433646.4906473,5.17314,-0.28994,0.3204599999999999,0.985410075,-0.10107396,0.081481725
1764433646.4917006,5.17314,-0.28994,0.3204599999999999,0.985410075,-0.10107396,0.081481725
1764433646.4917006,5.17314,-0.28994,0.3204599999999999,0.985410075,-0.10107396,0.081481725
1764433646.4917006,5.17314,-0.28994,0.3204599999999999,0.985410075,-0.10107396,0.081481725
1764433646.4917006,5.17314,-0.28994,0.3204599999999999,0.985410075,-0.10107396,0.081481725
1764433646.4917006,5.17314,-0.28994,0.3204599999999999,0.985410075,-0.10107396,0.081481725
1764433646.4917006,5.17314,-0.28994,0.3204599999999999,0.985410075,-0.10107396,0.081481725
1764433646.4917006,5.17314,-0.28994,0.3204599999999999,0.985410075,-0.10107396,0.081481725
1764433646.4917006,5.17314,-0.28994,0.3204599999999999,0.985410075,-0.10107396,0.081481725
1764433646.4917006,6.07348,-0.7019599999999999,1.1445,0.982114185,-0.099181875,0.080016885
1764433646.4917006,6.07348,-0.7019599999999999,1.1445,0.982114185,-0.099181875,0.080016885
1764433646.4917006,6.07348,-0.7019599999999999,1.1445,0.982114185,-0.099181875,0.080016885
1764433646.4917006,6.07348,-0.7019599999999999,1.1445,0.982114185,-0.099181875,0.080016885
1764433646.4932094,6.07348,-0.7019599999999999,1.1445,0.982114185,-0.099181875,0.080016885
1764433646.4932094,6.07348,-0.7019599999999999,1.1445,0.982114185,-0.099181875,0.080016885
1764433646.4932094,6.07348,-0.7019599999999999,1.1445,0.982114185,-0.099181875,0.080016885
1764433646.4932094,6.07348,-0.7019599999999999,1.1445,0.982114185,-0.099181875,0.080016885
1764433646.4932094,6.07348,-0.7019599999999999,1.1445,0.982114185,-0.099181875,0.080016885
1764433646.4932094,6.07348,-0.7019599999999999,1.1445,0.982114185,-0.099181875,0.080016885
1764433646.5380943,6.05822,-0.8698199999999999,2.4416,0.9802221,-0.097961175,0.077209275
1764433646.5380943,6.05822,-0.8698199999999999,2.4416,0.9802221,-0.097961175,0.077209275
1764433646.5380943,6.05822,-0.8698199999999999,2.4416,0.9802221,-0.097961175,0.077209275
1764433646.5380943,6.05822,-0.8698199999999999,2.4416,0.9802221,-0.097961175,0.077209275
1764433646.5380943,6.05822,-0.8698199999999999,2.4416,0.9802221,-0.097961175,0.077209275
1764433646.5380943,6.05822,-0.8698199999999999,2.4416,0.9802221,-0.097961175,0.077209275
1764433646.5380943,6.05822,-0.8698199999999999,2.4416,0.9802221,-0.097961175,0.077209275
1764433646.5380943,6.05822,-0.8698199999999999,2.4416,0.9802221,-0.097961175,0.077209275
1764433646.5391092,6.05822,-0.8698199999999999,2.4416,0.9802221,-0.097961175,0.077209275
1764433646.5391092,6.05822,-0.8698199999999999,2.4416,0.9802221,-0.097961175,0.077209275
1764433646.5391092,6.37868,-0.44254,4.31858,0.98107659,-0.099914295,0.07592754
1764433646.5391092,6.37868,-0.44254,4.31858,0.98107659,-0.099914295,0.07592754
1764433646.5391092,6.37868,-0.44254,4.31858,0.98107659,-0.099914295,0.07592754
1764433646.5391092,6.37868,-0.44254,4.31858,0.98107659,-0.099914295,0.07592754
1764433646.5401118,6.37868,-0.44254,4.31858,0.98107659,-0.099914295,0.07592754
1764433646.5401118,6.37868,-0.44254,4.31858,0.98107659,-0.099914295,0.07592754
1764433646.5401118,6.37868,-0.44254,4.31858,0.98107659,-0.099914295,0.07592754
1764433646.5401118,6.37868,-0.44254,4.31858,0.98107659,-0.099914295,0.07592754
1764433646.5401118,6.37868,-0.44254,4.31858,0.98107659,-0.099914295,0.07592754
1764433646.5416183,6.37868,-0.44254,4.31858,0.98107659,-0.099914295,0.07592754
1764433646.5416183,7.2485,1.4039199999999998,5.02054,0.983823165,-0.101867415,0.07714824
1764433646.5416183,7.2485,1.4039199999999998,5.02054,0.983823165,-0.101867415,0.07714824
1764433646.5416183,7.2485,1.4039199999999998,5.02054,0.983823165,-0.101867415,0.07714824
1764433646.542628,7.2485,1.4039199999999998,5.02054,0.983823165,-0.101867415,0.07714824
1764433646.586635,7.2485,1.4039199999999998,5.02054,0.983823165,-0.101867415,0.07714824
1764433646.586635,7.2485,1.4039199999999998,5.02054,0.983823165,-0.101867415,0.07714824
1764433646.586635,7.2485,1.4039199999999998,5.02054,0.983823165,-0.101867415,0.07714824
1764433646.586635,7.2485,1.4039199999999998,5.02054,0.983823165,-0.101867415,0.07714824
1764433646.586635,7.2485,1.4039199999999998,5.02054,0.983823165,-0.101867415,0.07714824
1764433646.586635,7.2485,1.4039199999999998,5.02054,0.983823165,-0.101867415,0.07714824
1764433646.586635,8.8508,3.26564,5.76828,0.987241125,-0.10546848,0.07849101
1764433646.586635,8.8508,3.26564,5.76828,0.987241125,-0.10546848,0.07849101
1764433646.586635,8.8508,3.26564,5.76828,0.987241125,-0.10546848,0.07849101
1764433646.586635,8.8508,3.26564,5.76828,0.987241125,-0.10546848,0.07849101
1764433646.586635,8.8508,3.26564,5.76828,0.987241125,-0.10546848,0.07849101
1764433646.586635,8.8508,3.26564,5.76828,0.987241125,-0.10546848,0.07849101
1764433646.586635,8.8508,3.26564,5.76828,0.987241125,-0.10546848,0.07849101
1764433646.586635,8.8508,3.26564,5.76828,0.987241125,-0.10546848,0.07849101
1764433646.586635,8.8508,3.26564,5.76828,0.987241125,-0.10546848,0.07849101
1764433646.586635,8.8508,3.26564,5.76828,0.987241125,-0.10546848,0.07849101
1764433646.586635,10.16316,5.1884,4.577999999999999,0.98913321,-0.1074216,0.0805662
1764433646.586635,10.16316,5.1884,4.577999999999999,0.98913321,-0.1074216,0.0805662
1764433646.586635,10.16316,5.1884,4.577999999999999,0.98913321,-0.1074216,0.0805662
1764433646.586635,10.16316,5.1884,4.577999999999999,0.98913321,-0.1074216,0.0805662
1764433646.586635,10.16316,5.1884,4.577999999999999,0.98913321,-0.1074216,0.0805662
1764433646.586635,10.16316,5.1884,4.577999999999999,0.98913321,-0.1074216,0.0805662
1764433646.586635,10.16316,5.1884,4.577999999999999,0.98913321,-0.1074216,0.0805662
1764433646.586635,10.16316,5.1884,4.577999999999999,0.98913321,-0.1074216,0.0805662
1764433646.6297252,10.16316,5.1884,4.577999999999999,0.98913321,-0.1074216,0.0805662
1764433646.6297252,10.16316,5.1884,4.577999999999999,0.98913321,-0.1074216,0.0805662
1764433646.6297252,10.39206,5.7988,2.02958,0.987851475,-0.105529515,0.0817869
1764433646.6307857,10.39206,5.7988,2.02958,0.987851475,-0.105529515,0.0817869
1764433646.6307857,10.39206,5.7988,2.02958,0.987851475,-0.105529515,0.0817869
1764433646.6307857,10.39206,5.7988,2.02958,0.987851475,-0.105529515,0.0817869
1764433646.6307857,10.39206,5.7988,2.02958,0.987851475,-0.105529515,0.0817869
1764433646.6307857,10.39206,5.7988,2.02958,0.987851475,-0.105529515,0.0817869
1764433646.6307857,10.39206,5.7988,2.02958,0.987851475,-0.105529515,0.0817869
1764433646.6307857,10.39206,5.7988,2.02958,0.987851475,-0.105529515,0.0817869
1764433646.6307857,10.39206,5.7988,2.02958,0.987851475,-0.105529515,0.0817869
1764433646.6307857,10.39206,5.7988,2.02958,0.987851475,-0.105529515,0.0817869
1764433646.6307857,10.19368,6.165039999999999,-1.4039199999999998,0.985532145,-0.101134995,0.08312967
1764433646.6307857,10.19368,6.165039999999999,-1.4039199999999998,0.985532145,-0.101134995,0.08312967
1764433646.6307857,10.19368,6.165039999999999,-1.4039199999999998,0.985532145,-0.101134995,0.08312967
1764433646.6307857,10.19368,6.165039999999999,-1.4039199999999998,0.985532145,-0.101134995,0.08312967
1764433646.633783,10.19368,6.165039999999999,-1.4039199999999998,0.985532145,-0.101134995,0.08312967
1764433646.633783,10.19368,6.165039999999999,-1.4039199999999998,0.985532145,-0.101134995,0.08312967
1764433646.633783,10.19368,6.165039999999999,-1.4039199999999998,0.985532145,-0.101134995,0.08312967
1764433646.633783,10.19368,6.165039999999999,-1.4039199999999998,0.985532145,-0.101134995,0.08312967
1764433646.633783,10.19368,6.165039999999999,-1.4039199999999998,0.985532145,-0.101134995,0.08312967
1764433646.633783,10.19368,6.165039999999999,-1.4039199999999998,0.985532145,-0.101134995,0.08312967
1764433646.6759005,7.59948,5.234179999999999,-4.74586,0.98229729,-0.092834235,0.08215311
1764433646.6759005,7.59948,5.234179999999999,-4.74586,0.98229729,-0.092834235,0.08215311
1764433646.6759005,7.59948,5.234179999999999,-4.74586,0.98229729,-0.092834235,0.08215311
1764433646.6759005,7.59948,5.234179999999999,-4.74586,0.98229729,-0.092834235,0.08215311
1764433646.6759005,7.59948,5.234179999999999,-4.74586,0.98229729,-0.092834235,0.08215311
1764433646.6759005,7.59948,5.234179999999999,-4.74586,0.98229729,-0.092834235,0.08215311
1764433646.6759005,7.59948,5.234179999999999,-4.74586,0.98229729,-0.092834235,0.08215311
1764433646.6764102,7.59948,5.234179999999999,-4.74586,0.98229729,-0.092834235,0.08215311
1764433646.6779633,7.59948,5.234179999999999,-4.74586,0.98229729,-0.092834235,0.08215311
1764433646.6784797,7.59948,5.234179999999999,-4.74586,0.98229729,-0.092834235,0.08215311
1764433646.6784797,3.2046,3.3572,-7.14168,0.979428645,-0.084289335,0.080871375
1764433646.6784797,3.2046,3.3572,-7.14168,0.979428645,-0.084289335,0.080871375
1764433646.6784797,3.2046,3.3572,-7.14168,0.979428645,-0.084289335,0.080871375
1764433646.6784797,3.2046,3.3572,-7.14168,0.979428645,-0.084289335,0.080871375
1764433646.6784797,3.2046,3.3572,-7.14168,0.979428645,-0.084289335,0.080871375
1764433646.6784797,3.2046,3.3572,-7.14168,0.979428645,-0.084289335,0.080871375
1764433646.6784797,3.2046,3.3572,-7.14168,0.979428645,-0.084289335,0.080871375
1764433646.6784797,3.2046,3.3572,-7.14168,0.979428645,-0.084289335,0.080871375
1764433646.6784797,3.2046,3.3572,-7.14168,0.979428645,-0.084289335,0.080871375
1764433646.6784797,3.2046,3.3572,-7.14168,0.979428645,-0.084289335,0.080871375
1764433646.6784797,-2.01432,2.16692,-8.1641,0.978085875,-0.075500295,0.079040325
1764433646.6784797,-2.01432,2.16692,-8.1641,0.978085875,-0.075500295,0.079040325
1764433646.7245042,-2.01432,2.16692,-8.1641,0.978085875,-0.075500295,0.079040325
1764433646.7245042,-2.01432,2.16692,-8.1641,0.978085875,-0.075500295,0.079040325
1764433646.7245042,-2.01432,2.16692,-8.1641,0.978085875,-0.075500295,0.079040325
1764433646.7245042,-2.01432,2.16692,-8.1641,0.978085875,-0.075500295,0.079040325
1764433646.7245042,-2.01432,2.16692,-8.1641,0.978085875,-0.075500295,0.079040325
1764433646.7245042,-2.01432,2.16692,-8.1641,0.978085875,-0.075500295,0.079040325
1764433646.7245042,-2.01432,2.16692,-8.1641,0.978085875,-0.075500295,0.079040325
1764433646.7245042,-2.01432,2.16692,-8.1641,0.978085875,-0.075500295,0.079040325
1764433646.7245042,-7.08064,2.39582,-8.51508,0.979184505,-0.07067853,0.079040325
1764433646.7245042,-7.08064,2.39582,-8.51508,0.979184505,-0.07067853,0.079040325
1764433646.7245042,-7.08064,2.39582,-8.51508,0.979184505,-0.07067853,0.079040325
1764433646.7245042,-7.08064,2.39582,-8.51508,0.979184505,-0.07067853,0.079040325
1764433646.7245042,-7.08064,2.39582,-8.51508,0.979184505,-0.07067853,0.079040325
1764433646.7245042,-7.08064,2.39582,-8.51508,0.979184505,-0.07067853,0.079040325
1764433646.725524,-7.08064,2.39582,-8.51508,0.979184505,-0.07067853,0.079040325
1764433646.725524,-7.08064,2.39582,-8.51508,0.979184505,-0.07067853,0.079040325
1764433646.725524,-7.08064,2.39582,-8.51508,0.979184505,-0.07067853,0.079040325
1764433646.725524,-7.08064,2.39582,-8.51508,0.979184505,-0.07067853,0.079040325
1764433646.725524,-11.30766,2.48738,-8.118319999999999,0.981503835,-0.06921369,0.07983378
1764433646.726543,-11.30766,2.48738,-8.118319999999999,0.981503835,-0.06921369,0.07983378
1764433646.726543,-11.30766,2.48738,-8.118319999999999,0.981503835,-0.06921369,0.07983378
1764433646.726543,-11.30766,2.48738,-8.118319999999999,0.981503835,-0.06921369,0.07983378
1764433646.726543,-11.30766,2.48738,-8.118319999999999,0.981503835,-0.06921369,0.07983378
1764433646.726543,-11.30766,2.48738,-8.118319999999999,0.981503835,-0.06921369,0.07983378
1764433646.7689598,-11.30766,2.48738,-8.118319999999999,0.981503835,-0.06921369,0.07983378
1764433646.7689598,-11.30766,2.48738,-8.118319999999999,0.981503835,-0.06921369,0.07983378
1764433646.7689598,-11.30766,2.48738,-8.118319999999999,0.981503835,-0.06921369,0.07983378
1764433646.7689598,-11.30766,2.48738,-8.118319999999999,0.981503835,-0.06921369,0.07983378
1764433646.7689598,-14.08498,2.60946,-7.21798,0.98205315,-0.069518865,0.080749305
1764433646.7689598,-14.08498,2.60946,-7.21798,0.98205315,-0.069518865,0.080749305
1764433646.7689598,-14.08498,2.60946,-7.21798,0.98205315,-0.069518865,0.080749305
1764433646.7689598,-14.08498,2.60946,-7.21798,0.98205315,-0.069518865,0.080749305
1764433646.7689598,-14.08498,2.60946,-7.21798,0.98205315,-0.069518865,0.080749305
1764433646.7689598,-14.08498,2.60946,-7.21798,0.98205315,-0.069518865,0.080749305
1764433646.7689598,-14.08498,2.60946,-7.21798,0.98205315,-0.069518865,0.080749305
1764433646.7689598,-14.08498,2.60946,-7.21798,0.98205315,-0.069518865,0.080749305
1764433646.7689598,-14.08498,2.60946,-7.21798,0.98205315,-0.069518865,0.080749305
1764433646.7689598,-14.08498,2.60946,-7.21798,0.98205315,-0.069518865,0.080749305
1764433646.7689598,-16.99964,2.42634,-5.70724,0.98315178,-0.06884748,0.08068827
1764433646.7699814,-16.99964,2.42634,-5.70724,0.98315178,-0.06884748,0.08068827
1764433646.7718632,-16.99964,2.42634,-5.70724,0.98315178,-0.06884748,0.08068827
1764433646.7718632,-16.99964,2.42634,-5.70724,0.98315178,-0.06884748,0.08068827
1764433646.7718632,-16.99964,2.42634,-5.70724,0.98315178,-0.06884748,0.08068827
1764433646.7718632,-16.99964,2.42634,-5.70724,0.98315178,-0.06884748,0.08068827
1764433646.7718632,-16.99964,2.42634,-5.70724,0.98315178,-0.06884748,0.08068827
1764433646.7718632,-16.99964,2.42634,-5.70724,0.98315178,-0.06884748,0.08068827
1764433646.7718632,-16.99964,2.42634,-5.70724,0.98315178,-0.06884748,0.08068827
1764433646.7718632,-16.99964,2.42634,-5.70724,0.98315178,-0.06884748,0.08068827
1764433646.8158195,-19.6091,2.4416,-4.22702,0.98498283,-0.069274725,0.080016885
1764433646.8158195,-19.6091,2.4416,-4.22702,0.98498283,-0.069274725,0.080016885
1764433646.8158195,-19.6091,2.4416,-4.22702,0.98498283,-0.069274725,0.080016885
1764433646.8158195,-19.6091,2.4416,-4.22702,0.98498283,-0.069274725,0.080016885
1764433646.8158195,-19.6091,2.4416,-4.22702,0.98498283,-0.069274725,0.080016885
1764433646.8173633,-19.6091,2.4416,-4.22702,0.98498283,-0.069274725,0.080016885
1764433646.8173633,-19.6091,2.4416,-4.22702,0.98498283,-0.069274725,0.080016885
1764433646.8173633,-19.6091,2.4416,-4.22702,0.98498283,-0.069274725,0.080016885
1764433646.8173633,-19.6091,2.4416,-4.22702,0.98498283,-0.069274725,0.080016885
1764433646.8173633,-19.6091,2.4416,-4.22702,0.98498283,-0.069274725,0.080016885
1764433646.8173633,-20.43314,3.76922,-1.93802,0.986508705,-0.072448545,0.080261025
1764433646.8173633,-20.43314,3.76922,-1.93802,0.986508705,-0.072448545,0.080261025
1764433646.8173633,-20.43314,3.76922,-1.93802,0.986508705,-0.072448545,0.080261025
1764433646.8173633,-20.43314,3.76922,-1.93802,0.986508705,-0.072448545,0.080261025
1764433646.8173633,-20.43314,3.76922,-1.93802,0.986508705,-0.072448545,0.080261025
1764433646.8173633,-20.43314,3.76922,-1.93802,0.986508705,-0.072448545,0.080261025
1764433646.8173633,-20.43314,3.76922,-1.93802,0.986508705,-0.072448545,0.080261025
1764433646.8173633,-20.43314,3.76922,-1.93802,0.986508705,-0.072448545,0.080261025
1764433646.8173633,-20.43314,3.76922,-1.93802,0.986508705,-0.072448545,0.080261025
1764433646.8173633,-20.43314,3.76922,-1.93802,0.986508705,-0.072448545,0.080261025
1764433646.8179305,-19.79222,4.37962,-0.3357199999999999,0.98681388,-0.07763652,0.08251932
1764433646.8179305,-19.79222,4.37962,-0.3357199999999999,0.98681388,-0.07763652,0.08251932
1764433646.8179305,-19.79222,4.37962,-0.3357199999999999,0.98681388,-0.07763652,0.08251932
1764433646.8179305,-19.79222,4.37962,-0.3357199999999999,0.98681388,-0.07763652,0.08251932
1764433646.8618336,-19.79222,4.37962,-0.3357199999999999,0.98681388,-0.07763652,0.08251932
1764433646.8618336,-19.79222,4.37962,-0.3357199999999999,0.98681388,-0.07763652,0.08251932
1764433646.8618336,-19.79222,4.37962,-0.3357199999999999,0.98681388,-0.07763652,0.08251932
1764433646.8618336,-19.79222,4.37962,-0.3357199999999999,0.98681388,-0.07763652,0.08251932
1764433646.8618336,-19.79222,4.37962,-0.3357199999999999,0.98681388,-0.07763652,0.08251932
1764433646.8618336,-19.79222,4.37962,-0.3357199999999999,0.98681388,-0.07763652,0.08251932
1764433646.8618336,-17.03016,5.615679999999999,0.93086,0.98608146,-0.084777615,0.084655545
1764433646.8618336,-17.03016,5.615679999999999,0.93086,0.98608146,-0.084777615,0.084655545
1764433646.8618336,-17.03016,5.615679999999999,0.93086,0.98608146,-0.084777615,0.084655545
1764433646.8618336,-17.03016,5.615679999999999,0.93086,0.98608146,-0.084777615,0.084655545
1764433646.8618336,-17.03016,5.615679999999999,0.93086,0.98608146,-0.084777615,0.084655545
1764433646.8618336,-17.03016,5.615679999999999,0.93086,0.98608146,-0.084777615,0.084655545
1764433646.862858,-17.03016,5.615679999999999,0.93086,0.98608146,-0.084777615,0.084655545
1764433646.862858,-17.03016,5.615679999999999,0.93086,0.98608146,-0.084777615,0.084655545
1764433646.862858,-17.03016,5.615679999999999,0.93086,0.98608146,-0.084777615,0.084655545
1764433646.862858,-17.03016,5.615679999999999,0.93086,0.98608146,-0.084777615,0.084655545
1764433646.862858,-13.00152,6.05822,1.28184,0.985288005,-0.090392835,0.088073505
1764433646.862858,-13.00152,6.05822,1.28184,0.985288005,-0.090392835,0.088073505
1764433646.862858,-13.00152,6.05822,1.28184,0.985288005,-0.090392835,0.088073505
1764433646.862858,-13.00152,6.05822,1.28184,0.985288005,-0.090392835,0.088073505
1764433646.862858,-13.00152,6.05822,1.28184,0.985288005,-0.090392835,0.088073505
1764433646.862858,-13.00152,6.05822,1.28184,0.985288005,-0.090392835,0.088073505
1764433646.9123058,-13.00152,6.05822,1.28184,0.985288005,-0.090392835,0.088073505
1764433646.9123058,-13.00152,6.05822,1.28184,0.985288005,-0.090392835,0.088073505
1764433646.9123058,-13.00152,6.05822,1.28184,0.985288005,-0.090392835,0.088073505
1764433646.9123058,-13.00152,6.05822,1.28184,0.985288005,-0.090392835,0.088073505
1764433646.9123058,-9.12548,5.66146,1.34288,0.9826635,-0.093810795,0.09082008
1764433646.9123058,-9.12548,5.66146,1.34288,0.9826635,-0.093810795,0.09082008
1764433646.9123058,-9.12548,5.66146,1.34288,0.9826635,-0.093810795,0.09082008
1764433646.9123058,-9.12548,5.66146,1.34288,0.9826635,-0.093810795,0.09082008
1764433646.9123058,-9.12548,5.66146,1.34288,0.9826635,-0.093810795,0.09082008
1764433646.9123058,-9.12548,5.66146,1.34288,0.9826635,-0.093810795,0.09082008
1764433646.9123058,-9.12548,5.66146,1.34288,0.9826635,-0.093810795,0.09082008
1764433646.9123058,-9.12548,5.66146,1.34288,0.9826635,-0.093810795,0.09082008
1764433646.9123058,-9.12548,5.66146,1.34288,0.9826635,-0.093810795,0.09082008
1764433646.9123058,-9.12548,5.66146,1.34288,0.9826635,-0.093810795,0.09082008
1764433646.9123058,-5.14262,4.70008,1.43444,0.97961175,-0.096862545,0.092712165
1764433646.9123058,-5.14262,4.70008,1.43444,0.97961175,-0.096862545,0.092712165
1764433646.9123058,-5.14262,4.70008,1.43444,0.97961175,-0.096862545,0.092712165
1764433646.9123058,-5.14262,4.70008,1.43444,0.97961175,-0.096862545,0.092712165
1764433646.9123058,-5.14262,4.70008,1.43444,0.97961175,-0.096862545,0.092712165
1764433646.9123058,-5.14262,4.70008,1.43444,0.97961175,-0.096862545,0.092712165
1764433646.9123058,-5.14262,4.70008,1.43444,0.97961175,-0.096862545,0.092712165
1764433646.9123058,-5.14262,4.70008,1.43444,0.97961175,-0.096862545,0.092712165
1764433646.9123058,-5.14262,4.70008,1.43444,0.97961175,-0.096862545,0.092712165
1764433646.9123058,-5.14262,4.70008,1.43444,0.97961175,-0.096862545,0.092712165
1764433646.956825,-2.4416,2.86888,2.54842,0.976621035,-0.097594965,0.09497046
1764433646.956825,-2.4416,2.86888,2.54842,0.976621035,-0.097594965,0.09497046
1764433646.956825,-2.4416,2.86888,2.54842,0.976621035,-0.097594965,0.09497046
1764433646.956825,-2.4416,2.86888,2.54842,0.976621035,-0.097594965,0.09497046
1764433646.956825,-2.4416,2.86888,2.54842,0.976621035,-0.097594965,0.09497046
1764433646.956825,-2.4416,2.86888,2.54842,0.976621035,-0.097594965,0.09497046
1764433646.956825,-2.4416,2.86888,2.54842,0.976621035,-0.097594965,0.09497046
1764433646.9578383,-2.4416,2.86888,2.54842,0.976621035,-0.097594965,0.09497046
1764433646.9578383,-2.4416,2.86888,2.54842,0.976621035,-0.097594965,0.09497046
1764433646.9578383,-2.4416,2.86888,2.54842,0.976621035,-0.097594965,0.09497046
1764433646.9578383,0.3357199999999999,1.05294,3.79974,0.97472895,-0.098693595,0.094787355
1764433646.9578383,0.3357199999999999,1.05294,3.79974,0.97472895,-0.098693595,0.094787355
1764433646.9578383,0.3357199999999999,1.05294,3.79974,0.97472895,-0.098693595,0.094787355
1764433646.9578383,0.3357199999999999,1.05294,3.79974,0.97472895,-0.098693595,0.094787355
1764433646.9578383,0.3357199999999999,1.05294,3.79974,0.97472895,-0.098693595,0.094787355
1764433646.9578383,0.3357199999999999,1.05294,3.79974,0.97472895,-0.098693595,0.094787355
1764433646.9578383,0.3357199999999999,1.05294,3.79974,0.97472895,-0.098693595,0.094787355
1764433646.9578383,0.3357199999999999,1.05294,3.79974,0.97472895,-0.098693595,0.094787355
1764433646.9578383,0.3357199999999999,1.05294,3.79974,0.97472895,-0.098693595,0.094787355
1764433646.9578383,0.3357199999999999,1.05294,3.79974,0.97472895,-0.098693595,0.094787355
1764433646.9578383,1.61756,0.10682,4.440659999999999,0.97509516,-0.099670155,0.09436011
1764433646.9578383,1.61756,0.10682,4.440659999999999,0.97509516,-0.099670155,0.09436011
1764433646.9578383,1.61756,0.10682,4.440659999999999,0.97509516,-0.099670155,0.09436011
1764433646.9578383,1.61756,0.10682,4.440659999999999,0.97509516,-0.099670155,0.09436011
1764433647.0038035,1.61756,0.10682,4.440659999999999,0.97509516,-0.099670155,0.09436011
1764433647.0038035,1.61756,0.10682,4.440659999999999,0.97509516,-0.099670155,0.09436011
1764433647.0038035,1.61756,0.10682,4.440659999999999,0.97509516,-0.099670155,0.09436011
1764433647.0038035,1.61756,0.10682,4.440659999999999,0.97509516,-0.099670155,0.09436011
1764433647.0038035,1.61756,0.10682,4.440659999999999,0.97509516,-0.099670155,0.09436011
1764433647.0038035,1.61756,0.10682,4.440659999999999,0.97509516,-0.099670155,0.09436011
1764433647.0048037,2.42634,-0.27468,5.08158,0.977475525,-0.099303945,0.093932865
1764433647.0048037,2.42634,-0.27468,5.08158,0.977475525,-0.099303945,0.093932865
1764433647.0048037,2.42634,-0.27468,5.08158,0.977475525,-0.099303945,0.093932865
1764433647.0048037,2.42634,-0.27468,5.08158,0.977475525,-0.099303945,0.093932865
1764433647.0048037,2.42634,-0.27468,5.08158,0.977475525,-0.099303945,0.093932865
1764433647.0048037,2.42634,-0.27468,5.08158,0.977475525,-0.099303945,0.093932865
1764433647.0048037,2.42634,-0.27468,5.08158,0.977475525,-0.099303945,0.093932865
1764433647.0048037,2.42634,-0.27468,5.08158,0.977475525,-0.099303945,0.093932865
1764433647.0048037,2.42634,-0.27468,5.08158,0.977475525,-0.099303945,0.093932865
1764433647.0048037,2.42634,-0.27468,5.08158,0.977475525,-0.099303945,0.093932865
1764433647.0048037,1.96854,-0.59514,4.1965,0.97961175,-0.09680151,0.091979745
1764433647.0048037,1.96854,-0.59514,4.1965,0.97961175,-0.09680151,0.091979745
1764433647.0048037,1.96854,-0.59514,4.1965,0.97961175,-0.09680151,0.091979745
1764433647.0048037,1.96854,-0.59514,4.1965,0.97961175,-0.09680151,0.091979745
1764433647.0048037,1.96854,-0.59514,4.1965,0.97961175,-0.09680151,0.091979745
1764433647.0048037,1.96854,-0.59514,4.1965,0.97961175,-0.09680151,0.091979745
1764433647.0481706,1.96854,-0.59514,4.1965,0.97961175,-0.09680151,0.091979745
1764433647.0481706,1.96854,-0.59514,4.1965,0.97961175,-0.09680151,0.091979745
1764433647.0481706,1.96854,-0.59514,4.1965,0.97961175,-0.09680151,0.091979745
1764433647.0481706,1.96854,-0.59514,4.1965,0.97961175,-0.09680151,0.091979745
1764433647.0481706,-0.21364,-0.48832,2.71628,0.98156487,-0.09411597,0.09008766
1764433647.0481706,-0.21364,-0.48832,2.71628,0.98156487,-0.09411597,0.09008766
1764433647.0481706,-0.21364,-0.48832,2.71628,0.98156487,-0.09411597,0.09008766
1764433647.0481706,-0.21364,-0.48832,2.71628,0.98156487,-0.09411597,0.09008766
1764433647.0481706,-0.21364,-0.48832,2.71628,0.98156487,-0.09411597,0.09008766
1764433647.0481706,-0.21364,-0.48832,2.71628,0.98156487,-0.09411597,0.09008766
1764433647.051179,-0.21364,-0.48832,2.71628,0.98156487,-0.09411597,0.09008766
1764433647.051179,-0.21364,-0.48832,2.71628,0.98156487,-0.09411597,0.09008766
1764433647.051179,-0.21364,-0.48832,2.71628,0.98156487,-0.09411597,0.09008766
1764433647.051179,-0.21364,-0.48832,2.71628,0.98156487,-0.09411597,0.09008766
1764433647.051179,-2.2127,0.01526,1.64808,0.9838842,-0.09240699,0.08874489
1764433647.051179,-2.2127,0.01526,1.64808,0.9838842,-0.09240699,0.08874489
1764433647.051179,-2.2127,0.01526,1.64808,0.9838842,-0.09240699,0.08874489
1764433647.051179,-2.2127,0.01526,1.64808,0.9838842,-0.09240699,0.08874489
1764433647.051179,-2.2127,0.01526,1.64808,0.9838842,-0.09240699,0.08874489
1764433647.051179,-2.2127,0.01526,1.64808,0.9838842,-0.09240699,0.08874489
1764433647.051179,-2.2127,0.01526,1.64808,0.9838842,-0.09240699,0.08874489
1764433647.051179,-2.2127,0.01526,1.64808,0.9838842,-0.09240699,0.08874489
1764433647.051179,-2.2127,0.01526,1.64808,0.9838842,-0.09240699,0.08874489
1764433647.0521796,-2.2127,0.01526,1.64808,0.9838842,-0.09240699,0.08874489
1764433647.0951924,-4.13546,0.3204599999999999,0.9156,0.983823165,-0.09094215,0.087707295
1764433647.0951924,-4.13546,0.3204599999999999,0.9156,0.983823165,-0.09094215,0.087707295
1764433647.0951924,-4.13546,0.3204599999999999,0.9156,0.983823165,-0.09094215,0.087707295
1764433647.0951924,-4.13546,0.3204599999999999,0.9156,0.983823165,-0.09094215,0.087707295
1764433647.0951924,-4.13546,0.3204599999999999,0.9156,0.983823165,-0.09094215,0.087707295
1764433647.0951924,-4.13546,0.3204599999999999,0.9156,0.983823165,-0.09094215,0.087707295
1764433647.0951924,-4.13546,0.3204599999999999,0.9156,0.983823165,-0.09094215,0.087707295
1764433647.0951924,-4.13546,0.3204599999999999,0.9156,0.983823165,-0.09094215,0.087707295
1764433647.0951924,-4.13546,0.3204599999999999,0.9156,0.983823165,-0.09094215,0.087707295
1764433647.0951924,-4.13546,0.3204599999999999,0.9156,0.983823165,-0.09094215,0.087707295
1764433647.0951924,-6.790699999999999,-0.12208,-0.3357199999999999,0.982968675,-0.08862282,0.087219015
1764433647.0951924,-6.790699999999999,-0.12208,-0.3357199999999999,0.982968675,-0.08862282,0.087219015
1764433647.096208,-6.790699999999999,-0.12208,-0.3357199999999999,0.982968675,-0.08862282,0.087219015
1764433647.097203,-6.790699999999999,-0.12208,-0.3357199999999999,0.982968675,-0.08862282,0.087219015
1764433647.097203,-6.790699999999999,-0.12208,-0.3357199999999999,0.982968675,-0.08862282,0.087219015
1764433647.097203,-6.790699999999999,-0.12208,-0.3357199999999999,0.982968675,-0.08862282,0.087219015
1764433647.097203,-6.790699999999999,-0.12208,-0.3357199999999999,0.982968675,-0.08862282,0.087219015
1764433647.097203,-6.790699999999999,-0.12208,-0.3357199999999999,0.982968675,-0.08862282,0.087219015
1764433647.0982027,-6.790699999999999,-0.12208,-0.3357199999999999,0.982968675,-0.08862282,0.087219015
1764433647.0982027,-6.790699999999999,-0.12208,-0.3357199999999999,0.982968675,-0.08862282,0.087219015
1764433647.0982027,-7.98098,1.15976,-0.8392999999999999,0.98498283,-0.08862282,0.08801247
1764433647.0982027,-7.98098,1.15976,-0.8392999999999999,0.98498283,-0.08862282,0.08801247
1764433647.1385863,-7.98098,1.15976,-0.8392999999999999,0.98498283,-0.08862282,0.08801247
1764433647.1385863,-7.98098,1.15976,-0.8392999999999999,0.98498283,-0.08862282,0.08801247
1764433647.1385863,-7.98098,1.15976,-0.8392999999999999,0.98498283,-0.08862282,0.08801247
1764433647.1385863,-7.98098,1.15976,-0.8392999999999999,0.98498283,-0.08862282,0.08801247
1764433647.1385863,-7.98098,1.15976,-0.8392999999999999,0.98498283,-0.08862282,0.08801247
1764433647.1385863,-7.98098,1.15976,-0.8392999999999999,0.98498283,-0.08862282,0.08801247
1764433647.1385863,-7.98098,1.15976,-0.8392999999999999,0.98498283,-0.08862282,0.08801247
1764433647.1401396,-7.98098,1.15976,-0.8392999999999999,0.98498283,-0.08862282,0.08801247
1764433647.1401396,-7.7063,2.15166,-1.34288,0.982968675,-0.089050065,0.088683855
1764433647.1401396,-7.7063,2.15166,-1.34288,0.982968675,-0.089050065,0.088683855
1764433647.1401396,-7.7063,2.15166,-1.34288,0.982968675,-0.089050065,0.088683855
1764433647.1401396,-7.7063,2.15166,-1.34288,0.982968675,-0.089050065,0.088683855
1764433647.1401396,-7.7063,2.15166,-1.34288,0.982968675,-0.089050065,0.088683855
1764433647.1401396,-7.7063,2.15166,-1.34288,0.982968675,-0.089050065,0.088683855
1764433647.1425197,-7.7063,2.15166,-1.34288,0.982968675,-0.089050065,0.088683855
1764433647.1425197,-7.7063,2.15166,-1.34288,0.982968675,-0.089050065,0.088683855
1764433647.1425197,-7.7063,2.15166,-1.34288,0.982968675,-0.089050065,0.088683855
1764433647.1425197,-7.7063,2.15166,-1.34288,0.982968675,-0.089050065,0.088683855
1764433647.1425197,-6.88226,1.55652,-1.84646,0.97973382,-0.089660415,0.08972145
1764433647.1425197,-6.88226,1.55652,-1.84646,0.97973382,-0.089660415,0.08972145
1764433647.1425197,-6.88226,1.55652,-1.84646,0.97973382,-0.089660415,0.08972145
1764433647.1425197,-6.88226,1.55652,-1.84646,0.97973382,-0.089660415,0.08972145
1764433647.1425197,-6.88226,1.55652,-1.84646,0.97973382,-0.089660415,0.08972145
1764433647.1425197,-6.88226,1.55652,-1.84646,0.97973382,-0.089660415,0.08972145
1764433647.1891408,-6.88226,1.55652,-1.84646,0.97973382,-0.089660415,0.08972145
1764433647.1891408,-6.88226,1.55652,-1.84646,0.97973382,-0.089660415,0.08972145
1764433647.1891408,-6.88226,1.55652,-1.84646,0.97973382,-0.089660415,0.08972145
1764433647.1891408,-6.88226,1.55652,-1.84646,0.97973382,-0.089660415,0.08972145
1764433647.1891408,-5.92088,1.00716,-2.1364,0.97741449,-0.09057594,0.0903318
1764433647.1891408,-5.92088,1.00716,-2.1364,0.97741449,-0.09057594,0.0903318
1764433647.1891408,-5.92088,1.00716,-2.1364,0.97741449,-0.09057594,0.0903318
1764433647.1891408,-5.92088,1.00716,-2.1364,0.97741449,-0.09057594,0.0903318
1764433647.1891408,-5.92088,1.00716,-2.1364,0.97741449,-0.09057594,0.0903318
1764433647.1891408,-5.92088,1.00716,-2.1364,0.97741449,-0.09057594,0.0903318
1764433647.1891408,-5.92088,1.00716,-2.1364,0.97741449,-0.09057594,0.0903318
1764433647.1891408,-5.92088,1.00716,-2.1364,0.97741449,-0.09057594,0.0903318
1764433647.1891408,-5.92088,1.00716,-2.1364,0.97741449,-0.09057594,0.0903318
1764433647.1891408,-5.92088,1.00716,-2.1364,0.97741449,-0.09057594,0.0903318
1764433647.1891408,-3.72344,0.50358,-2.47212,0.97680414,-0.0915525,0.091369395
1764433647.1891408,-3.72344,0.50358,-2.47212,0.97680414,-0.0915525,0.091369395
1764433647.1891408,-3.72344,0.50358,-2.47212,0.97680414,-0.0915525,0.091369395
1764433647.1891408,-3.72344,0.50358,-2.47212,0.97680414,-0.0915525,0.091369395
1764433647.1891408,-3.72344,0.50358,-2.47212,0.97680414,-0.0915525,0.091369395
1764433647.1891408,-3.72344,0.50358,-2.47212,0.97680414,-0.0915525,0.091369395
1764433647.1891408,-3.72344,0.50358,-2.47212,0.97680414,-0.0915525,0.091369395
1764433647.1891408,-3.72344,0.50358,-2.47212,0.97680414,-0.0915525,0.091369395
1764433647.2350817,-3.72344,0.50358,-2.47212,0.97680414,-0.0915525,0.091369395
1764433647.2350817,-3.72344,0.50358,-2.47212,0.97680414,-0.0915525,0.091369395
1764433647.2350817,-1.6786,0.21364,-2.70102,0.9777807,-0.09143043,0.091979745
1764433647.2350817,-1.6786,0.21364,-2.70102,0.9777807,-0.09143043,0.091979745
1764433647.2350817,-1.6786,0.21364,-2.70102,0.9777807,-0.09143043,0.091979745
1764433647.2350817,-1.6786,0.21364,-2.70102,0.9777807,-0.09143043,0.091979745
1764433647.2350817,-1.6786,0.21364,-2.70102,0.9777807,-0.09143043,0.091979745
1764433647.2360754,-1.6786,0.21364,-2.70102,0.9777807,-0.09143043,0.091979745
1764433647.2360754,-1.6786,0.21364,-2.70102,0.9777807,-0.09143043,0.091979745
1764433647.2360754,-1.6786,0.21364,-2.70102,0.9777807,-0.09143043,0.091979745
1764433647.2360754,-1.6786,0.21364,-2.70102,0.9777807,-0.09143043,0.091979745
1764433647.2360754,-1.6786,0.21364,-2.70102,0.9777807,-0.09143043,0.091979745
1764433647.2360754,-0.36624,-0.73248,-2.91466,0.979306575,-0.09045387,0.091247325
1764433647.2360754,-0.36624,-0.73248,-2.91466,0.979306575,-0.09045387,0.091247325
1764433647.2360754,-0.36624,-0.73248,-2.91466,0.979306575,-0.09045387,0.091247325
1764433647.2360754,-0.36624,-0.73248,-2.91466,0.979306575,-0.09045387,0.091247325
1764433647.2360754,-0.36624,-0.73248,-2.91466,0.979306575,-0.09045387,0.091247325
1764433647.2360754,-0.36624,-0.73248,-2.91466,0.979306575,-0.09045387,0.091247325
1764433647.2360754,-0.36624,-0.73248,-2.91466,0.979306575,-0.09045387,0.091247325
1764433647.2360754,-0.36624,-0.73248,-2.91466,0.979306575,-0.09045387,0.091247325
1764433647.2360754,-0.36624,-0.73248,-2.91466,0.979306575,-0.09045387,0.091247325
1764433647.2360754,-0.36624,-0.73248,-2.91466,0.979306575,-0.09045387,0.091247325
1764433647.2360754,-0.3357199999999999,-0.85456,-2.45686,0.981137625,-0.088439715,0.089904555
1764433647.2360754,-0.3357199999999999,-0.85456,-2.45686,0.981137625,-0.088439715,0.089904555
1764433647.2789977,-0.3357199999999999,-0.85456,-2.45686,0.981137625,-0.088439715,0.089904555
1764433647.2789977,-0.3357199999999999,-0.85456,-2.45686,0.981137625,-0.088439715,0.089904555
1764433647.280018,-0.3357199999999999,-0.85456,-2.45686,0.981137625,-0.088439715,0.089904555
1764433647.280018,-0.3357199999999999,-0.85456,-2.45686,0.981137625,-0.088439715,0.089904555
1764433647.280018,-0.3357199999999999,-0.85456,-2.45686,0.981137625,-0.088439715,0.089904555
1764433647.280018,-0.3357199999999999,-0.85456,-2.45686,0.981137625,-0.088439715,0.089904555
1764433647.280018,-0.3357199999999999,-0.85456,-2.45686,0.981137625,-0.088439715,0.089904555
1764433647.280018,-0.3357199999999999,-0.85456,-2.45686,0.981137625,-0.088439715,0.089904555
1764433647.280018,-1.09872,-1.05294,-1.89224,0.981870045,-0.08447244,0.08837868
1764433647.280018,-1.09872,-1.05294,-1.89224,0.981870045,-0.08447244,0.08837868
1764433647.280018,-1.09872,-1.05294,-1.89224,0.981870045,-0.08447244,0.08837868
1764433647.280018,-1.09872,-1.05294,-1.89224,0.981870045,-0.08447244,0.08837868
1764433647.280018,-1.09872,-1.05294,-1.89224,0.981870045,-0.08447244,0.08837868
1764433647.280018,-1.09872,-1.05294,-1.89224,0.981870045,-0.08447244,0.08837868
1764433647.2810166,-1.09872,-1.05294,-1.89224,0.981870045,-0.08447244,0.08837868
1764433647.2810166,-1.09872,-1.05294,-1.89224,0.981870045,-0.08447244,0.08837868
1764433647.2810166,-1.09872,-1.05294,-1.89224,0.981870045,-0.08447244,0.08837868
1764433647.2810166,-1.09872,-1.05294,-1.89224,0.981870045,-0.08447244,0.08837868
1764433647.2810166,-2.8994,-0.77826,0.13734,0.98302971,-0.082336215,0.08740212
1764433647.2810166,-2.8994,-0.77826,0.13734,0.98302971,-0.082336215,0.08740212
1764433647.2810166,-2.8994,-0.77826,0.13734,0.98302971,-0.082336215,0.08740212
1764433647.2810166,-2.8994,-0.77826,0.13734,0.98302971,-0.082336215,0.08740212
1764433647.3244026,-2.8994,-0.77826,0.13734,0.98302971,-0.082336215,0.08740212
1764433647.3244026,-2.8994,-0.77826,0.13734,0.98302971,-0.082336215,0.08740212
1764433647.3244026,-2.8994,-0.77826,0.13734,0.98302971,-0.082336215,0.08740212
1764433647.3244026,-2.8994,-0.77826,0.13734,0.98302971,-0.082336215,0.08740212
1764433647.325431,-2.8994,-0.77826,0.13734,0.98302971,-0.082336215,0.08740212
1764433647.325431,-2.8994,-0.77826,0.13734,0.98302971,-0.082336215,0.08740212
1764433647.325431,-3.79974,-0.51884,0.6867,0.9838842,-0.081970005,0.08557107
1764433647.325431,-3.79974,-0.51884,0.6867,0.9838842,-0.081970005,0.08557107
1764433647.325431,-3.79974,-0.51884,0.6867,0.9838842,-0.081970005,0.08557107
1764433647.325431,-3.79974,-0.51884,0.6867,0.9838842,-0.081970005,0.08557107
1764433647.325431,-3.79974,-0.51884,0.6867,0.9838842,-0.081970005,0.08557107
1764433647.325431,-3.79974,-0.51884,0.6867,0.9838842,-0.081970005,0.08557107
1764433647.325431,-3.79974,-0.51884,0.6867,0.9838842,-0.081970005,0.08557107
1764433647.325431,-3.79974,-0.51884,0.6867,0.9838842,-0.081970005,0.08557107
1764433647.3269477,-3.79974,-0.51884,0.6867,0.9838842,-0.081970005,0.08557107
1764433647.3279636,-3.79974,-0.51884,0.6867,0.9838842,-0.081970005,0.08557107
1764433647.3279636,-4.74586,-1.08346,1.03768,0.983579025,-0.08166483,0.084411405
1764433647.3279636,-4.74586,-1.08346,1.03768,0.983579025,-0.08166483,0.084411405
1764433647.3279636,-4.74586,-1.08346,1.03768,0.983579025,-0.08166483,0.084411405
1764433647.3279636,-4.74586,-1.08346,1.03768,0.983579025,-0.08166483,0.084411405
1764433647.3279636,-4.74586,-1.08346,1.03768,0.983579025,-0.08166483,0.084411405
1764433647.3279636,-4.74586,-1.08346,1.03768,0.983579025,-0.08166483,0.084411405
1764433647.3279636,-4.74586,-1.08346,1.03768,0.983579025,-0.08166483,0.084411405
1764433647.3279636,-4.74586,-1.08346,1.03768,0.983579025,-0.08166483,0.084411405
1764433647.3718815,-4.74586,-1.08346,1.03768,0.983579025,-0.08166483,0.084411405
1764433647.3718815,-4.74586,-1.08346,1.03768,0.983579025,-0.08166483,0.084411405
1764433647.3718815,-6.3329,-0.65618,1.6022999999999998,0.98486076,-0.08276346,0.083434845
1764433647.3718815,-6.3329,-0.65618,1.6022999999999998,0.98486076,-0.08276346,0.083434845
1764433647.3718815,-6.3329,-0.65618,1.6022999999999998,0.98486076,-0.08276346,0.083434845
1764433647.3718815,-6.3329,-0.65618,1.6022999999999998,0.98486076,-0.08276346,0.083434845
1764433647.3718815,-6.3329,-0.65618,1.6022999999999998,0.98486076,-0.08276346,0.083434845
1764433647.3718815,-6.3329,-0.65618,1.6022999999999998,0.98486076,-0.08276346,0.083434845
1764433647.3718815,-6.3329,-0.65618,1.6022999999999998,0.98486076,-0.08276346,0.083434845
1764433647.3718815,-6.3329,-0.65618,1.6022999999999998,0.98486076,-0.08276346,0.083434845
1764433647.3718815,-6.3329,-0.65618,1.6022999999999998,0.98486076,-0.08276346,0.083434845
1764433647.3718815,-6.3329,-0.65618,1.6022999999999998,0.98486076,-0.08276346,0.083434845
1764433647.3718815,-6.271859999999999,0.3051999999999999,1.8312,0.985410075,-0.08447244,0.0842283
1764433647.3718815,-6.271859999999999,0.3051999999999999,1.8312,0.985410075,-0.08447244,0.0842283
1764433647.3718815,-6.271859999999999,0.3051999999999999,1.8312,0.985410075,-0.08447244,0.0842283
1764433647.3718815,-6.271859999999999,0.3051999999999999,1.8312,0.985410075,-0.08447244,0.0842283
1764433647.3718815,-6.271859999999999,0.3051999999999999,1.8312,0.985410075,-0.08447244,0.0842283
1764433647.3718815,-6.271859999999999,0.3051999999999999,1.8312,0.985410075,-0.08447244,0.0842283
1764433647.3718815,-6.271859999999999,0.3051999999999999,1.8312,0.985410075,-0.08447244,0.0842283
1764433647.3718815,-6.271859999999999,0.3051999999999999,1.8312,0.985410075,-0.08447244,0.0842283
1764433647.3718815,-6.271859999999999,0.3051999999999999,1.8312,0.985410075,-0.08447244,0.0842283
1764433647.3718815,-6.271859999999999,0.3051999999999999,1.8312,0.985410075,-0.08447244,0.0842283
1764433647.4199655,-5.32574,0.97664,1.54126,0.983823165,-0.086364525,0.08520486
1764433647.4308295,-5.32574,0.97664,1.54126,0.983823165,-0.086364525,0.08520486
1764433647.431173,-5.32574,0.97664,1.54126,0.983823165,-0.086364525,0.08520486
1764433647.431173,-5.32574,0.97664,1.54126,0.983823165,-0.086364525,0.08520486
1764433647.431173,-5.32574,0.97664,1.54126,0.983823165,-0.086364525,0.08520486
1764433647.431173,-5.32574,0.97664,1.54126,0.983823165,-0.086364525,0.08520486
1764433647.431842,-5.32574,0.97664,1.54126,0.983823165,-0.086364525,0.08520486
1764433647.431842,-5.32574,0.97664,1.54126,0.983823165,-0.086364525,0.08520486
1764433647.431842,-5.32574,0.97664,1.54126,0.983823165,-0.086364525,0.08520486
1764433647.431842,-5.32574,0.97664,1.54126,0.983823165,-0.086364525,0.08520486
1764433647.431842,-4.45592,0.8087799999999999,1.57178,0.981625905,-0.08764626,0.085143825
1764433647.431842,-4.45592,0.8087799999999999,1.57178,0.981625905,-0.08764626,0.085143825
1764433647.432847,-4.45592,0.8087799999999999,1.57178,0.981625905,-0.08764626,0.085143825
1764433647.432847,-4.45592,0.8087799999999999,1.57178,0.981625905,-0.08764626,0.085143825
1764433647.432847,-4.45592,0.8087799999999999,1.57178,0.981625905,-0.08764626,0.085143825
1764433647.432847,-4.45592,0.8087799999999999,1.57178,0.981625905,-0.08764626,0.085143825
1764433647.432847,-4.45592,0.8087799999999999,1.57178,0.981625905,-0.08764626,0.085143825
1764433647.432847,-4.45592,0.8087799999999999,1.57178,0.981625905,-0.08764626,0.085143825
1764433647.432847,-4.45592,0.8087799999999999,1.57178,0.981625905,-0.08764626,0.085143825
1764433647.432847,-4.45592,0.8087799999999999,1.57178,0.981625905,-0.08764626,0.085143825
1764433647.432847,-3.26564,0.27468,0.50358,0.98058831,-0.08874489,0.085449
1764433647.4343653,-3.26564,0.27468,0.50358,0.98058831,-0.08874489,0.085449
1764433647.4343653,-3.26564,0.27468,0.50358,0.98058831,-0.08874489,0.085449
1764433647.4343653,-3.26564,0.27468,0.50358,0.98058831,-0.08874489,0.085449
1764433647.465434,-3.26564,0.27468,0.50358,0.98058831,-0.08874489,0.085449
1764433647.465434,-3.26564,0.27468,0.50358,0.98058831,-0.08874489,0.085449
1764433647.465434,-3.26564,0.27468,0.50358,0.98058831,-0.08874489,0.085449
1764433647.465434,-3.26564,0.27468,0.50358,0.98058831,-0.08874489,0.085449
1764433647.465434,-3.26564,0.27468,0.50358,0.98058831,-0.08874489,0.085449
1764433647.465434,-3.26564,0.27468,0.50358,0.98058831,-0.08874489,0.085449
1764433647.465434,-2.04484,0.4578,-0.21364,0.981259695,-0.089294205,0.08557107
1764433647.465434,-2.04484,0.4578,-0.21364,0.981259695,-0.089294205,0.08557107
1764433647.465434,-2.04484,0.4578,-0.21364,0.981259695,-0.089294205,0.08557107
1764433647.465434,-2.04484,0.4578,-0.21364,0.981259695,-0.089294205,0.08557107
1764433647.465434,-2.04484,0.4578,-0.21364,0.981259695,-0.089294205,0.08557107
1764433647.4664402,-2.04484,0.4578,-0.21364,0.981259695,-0.089294205,0.08557107
1764433647.4664402,-2.04484,0.4578,-0.21364,0.981259695,-0.089294205,0.08557107
1764433647.4664402,-2.04484,0.4578,-0.21364,0.981259695,-0.089294205,0.08557107
1764433647.4664402,-2.04484,0.4578,-0.21364,0.981259695,-0.089294205,0.08557107
1764433647.4664402,-2.04484,0.4578,-0.21364,0.981259695,-0.089294205,0.08557107
1764433647.4664402,-1.6022999999999998,0.51884,-0.48832,0.98217522,-0.08862282,0.085754175
1764433647.4664402,-1.6022999999999998,0.51884,-0.48832,0.98217522,-0.08862282,0.085754175
1764433647.4664402,-1.6022999999999998,0.51884,-0.48832,0.98217522,-0.08862282,0.085754175
1764433647.4664402,-1.6022999999999998,0.51884,-0.48832,0.98217522,-0.08862282,0.085754175
1764433647.4664402,-1.6022999999999998,0.51884,-0.48832,0.98217522,-0.08862282,0.085754175
1764433647.4679625,-1.6022999999999998,0.51884,-0.48832,0.98217522,-0.08862282,0.085754175
1764433647.4679625,-1.6022999999999998,0.51884,-0.48832,0.98217522,-0.08862282,0.085754175
1764433647.4679625,-1.6022999999999998,0.51884,-0.48832,0.98217522,-0.08862282,0.085754175
1764433647.5154915,-1.6022999999999998,0.51884,-0.48832,0.98217522,-0.08862282,0.085754175
1764433647.5154915,-1.6022999999999998,0.51884,-0.48832,0.98217522,-0.08862282,0.085754175
1764433647.5154915,-1.15976,0.97664,-0.73248,0.98290764,-0.0878904,0.085754175
1764433647.5154915,-1.15976,0.97664,-0.73248,0.98290764,-0.0878904,0.085754175
1764433647.5154915,-1.15976,0.97664,-0.73248,0.98290764,-0.0878904,0.085754175
1764433647.5154915,-1.15976,0.97664,-0.73248,0.98290764,-0.0878904,0.085754175
1764433647.5154915,-1.15976,0.97664,-0.73248,0.98290764,-0.0878904,0.085754175
1764433647.5154915,-1.15976,0.97664,-0.73248,0.98290764,-0.0878904,0.085754175
1764433647.5154915,-1.15976,0.97664,-0.73248,0.98290764,-0.0878904,0.085754175
1764433647.5154915,-1.15976,0.97664,-0.73248,0.98290764,-0.0878904,0.085754175
1764433647.5154915,-1.15976,0.97664,-0.73248,0.98290764,-0.0878904,0.085754175
1764433647.5154915,-1.15976,0.97664,-0.73248,0.98290764,-0.0878904,0.085754175
1764433647.5154915,-2.04484,0.5341,0.36624,0.983334885,-0.085632105,0.08496072
1764433647.5154915,-2.04484,0.5341,0.36624,0.983334885,-0.085632105,0.08496072
1764433647.5154915,-2.04484,0.5341,0.36624,0.983334885,-0.085632105,0.08496072
1764433647.5154915,-2.04484,0.5341,0.36624,0.983334885,-0.085632105,0.08496072
1764433647.5154915,-2.04484,0.5341,0.36624,0.983334885,-0.085632105,0.08496072
1764433647.5154915,-2.04484,0.5341,0.36624,0.983334885,-0.085632105,0.08496072
1764433647.5154915,-2.04484,0.5341,0.36624,0.983334885,-0.085632105,0.08496072
1764433647.5164936,-2.04484,0.5341,0.36624,0.983334885,-0.085632105,0.08496072
1764433647.5164936,-2.04484,0.5341,0.36624,0.983334885,-0.085632105,0.08496072
1764433647.5164936,-2.04484,0.5341,0.36624,0.983334885,-0.085632105,0.08496072
1764433647.5164936,-2.94518,0.88508,1.15976,0.983212815,-0.083678985,0.084289335
1764433647.5164936,-2.94518,0.88508,1.15976,0.983212815,-0.083678985,0.084289335
1764433647.5605276,-2.94518,0.88508,1.15976,0.983212815,-0.083678985,0.084289335
1764433647.5605276,-2.94518,0.88508,1.15976,0.983212815,-0.083678985,0.084289335
1764433647.5605276,-2.94518,0.88508,1.15976,0.983212815,-0.083678985,0.084289335
1764433647.561551,-2.94518,0.88508,1.15976,0.983212815,-0.083678985,0.084289335
1764433647.561551,-2.94518,0.88508,1.15976,0.983212815,-0.083678985,0.084289335
1764433647.561551,-2.94518,0.88508,1.15976,0.983212815,-0.083678985,0.084289335
1764433647.5620668,-2.94518,0.88508,1.15976,0.983212815,-0.083678985,0.084289335
1764433647.5620668,-2.94518,0.88508,1.15976,0.983212815,-0.083678985,0.084289335
1764433647.5630825,-4.059159999999999,0.73248,1.54126,0.983212815,-0.08251932,0.08459451
1764433647.5630825,-4.059159999999999,0.73248,1.54126,0.983212815,-0.08251932,0.08459451
1764433647.5630825,-4.059159999999999,0.73248,1.54126,0.983212815,-0.08251932,0.08459451
1764433647.5630825,-4.059159999999999,0.73248,1.54126,0.983212815,-0.08251932,0.08459451
1764433647.5630825,-4.059159999999999,0.73248,1.54126,0.983212815,-0.08251932,0.08459451
1764433647.5630825,-4.059159999999999,0.73248,1.54126,0.983212815,-0.08251932,0.08459451
1764433647.5630825,-4.059159999999999,0.73248,1.54126,0.983212815,-0.08251932,0.08459451
1764433647.5640929,-4.059159999999999,0.73248,1.54126,0.983212815,-0.08251932,0.08459451
1764433647.5640929,-4.059159999999999,0.73248,1.54126,0.983212815,-0.08251932,0.08459451
1764433647.5640929,-4.059159999999999,0.73248,1.54126,0.983212815,-0.08251932,0.08459451
1764433647.5640929,-4.4254,0.9156,2.15166,0.983701095,-0.08251932,0.08459451
1764433647.5640929,-4.4254,0.9156,2.15166,0.983701095,-0.08251932,0.08459451
1764433647.5640929,-4.4254,0.9156,2.15166,0.983701095,-0.08251932,0.08459451
1764433647.5640929,-4.4254,0.9156,2.15166,0.983701095,-0.08251932,0.08459451
1764433647.6080546,-4.4254,0.9156,2.15166,0.983701095,-0.08251932,0.08459451
1764433647.6080546,-4.4254,0.9156,2.15166,0.983701095,-0.08251932,0.08459451
1764433647.6080546,-4.4254,0.9156,2.15166,0.983701095,-0.08251932,0.08459451
1764433647.6080546,-4.4254,0.9156,2.15166,0.983701095,-0.08251932,0.08459451
1764433647.6080546,-4.4254,0.9156,2.15166,0.983701095,-0.08251932,0.08459451
1764433647.6080546,-4.4254,0.9156,2.15166,0.983701095,-0.08251932,0.08459451
1764433647.6090744,-4.68482,1.15976,1.6786,0.983090745,-0.083801055,0.085265895
1764433647.6090744,-4.68482,1.15976,1.6786,0.983090745,-0.083801055,0.085265895
1764433647.6090744,-4.68482,1.15976,1.6786,0.983090745,-0.083801055,0.085265895
1764433647.6090744,-4.68482,1.15976,1.6786,0.983090745,-0.083801055,0.085265895
1764433647.6090744,-4.68482,1.15976,1.6786,0.983090745,-0.083801055,0.085265895
1764433647.6090744,-4.68482,1.15976,1.6786,0.983090745,-0.083801055,0.085265895
1764433647.6090744,-4.68482,1.15976,1.6786,0.983090745,-0.083801055,0.085265895
1764433647.6090744,-4.68482,1.15976,1.6786,0.983090745,-0.083801055,0.085265895
1764433647.6095562,-4.68482,1.15976,1.6786,0.983090745,-0.083801055,0.085265895
1764433647.6095562,-4.68482,1.15976,1.6786,0.983090745,-0.083801055,0.085265895
1764433647.6095562,-4.28806,1.25132,2.31952,0.982846605,-0.08508279,0.08569314
1764433647.6095562,-4.28806,1.25132,2.31952,0.982846605,-0.08508279,0.08569314
1764433647.6095562,-4.28806,1.25132,2.31952,0.982846605,-0.08508279,0.08569314
1764433647.6095562,-4.28806,1.25132,2.31952,0.982846605,-0.08508279,0.08569314
1764433647.6095562,-4.28806,1.25132,2.31952,0.982846605,-0.08508279,0.08569314
1764433647.6095562,-4.28806,1.25132,2.31952,0.982846605,-0.08508279,0.08569314
1764433647.6095562,-4.28806,1.25132,2.31952,0.982846605,-0.08508279,0.08569314
1764433647.6095562,-4.28806,1.25132,2.31952,0.982846605,-0.08508279,0.08569314
1764433647.655673,-4.28806,1.25132,2.31952,0.982846605,-0.08508279,0.08569314
1764433647.655673,-4.28806,1.25132,2.31952,0.982846605,-0.08508279,0.08569314
1764433647.655673,-3.23512,1.43444,2.31952,0.982114185,-0.08630349,0.087341085
1764433647.655673,-3.23512,1.43444,2.31952,0.982114185,-0.08630349,0.087341085
1764433647.655673,-3.23512,1.43444,2.31952,0.982114185,-0.08630349,0.087341085
1764433647.655673,-3.23512,1.43444,2.31952,0.982114185,-0.08630349,0.087341085
1764433647.655673,-3.23512,1.43444,2.31952,0.982114185,-0.08630349,0.087341085
1764433647.655673,-3.23512,1.43444,2.31952,0.982114185,-0.08630349,0.087341085
1764433647.655673,-3.23512,1.43444,2.31952,0.982114185,-0.08630349,0.087341085
1764433647.655673,-3.23512,1.43444,2.31952,0.982114185,-0.08630349,0.087341085
1764433647.655673,-3.23512,1.43444,2.31952,0.982114185,-0.08630349,0.087341085
