Timestamp,GyroX,GyroY,GyroZ,AccX,AccY,AccZ
1764435439.069805,-3.7387,0.5341,0.1525999999999999,0.96520749,-0.180236355,0.128112465
1764435439.069805,-3.7387,0.5341,0.1525999999999999,0.96520749,-0.180236355,0.128112465
1764435439.069805,-3.90656,0.3204599999999999,-0.0762999999999999,0.963925755,-0.17907669,0.1281735
1764435439.069805,-3.90656,0.3204599999999999,-0.0762999999999999,0.963925755,-0.17907669,0.1281735
1764435439.069805,-3.90656,0.3204599999999999,-0.0762999999999999,0.963925755,-0.17907669,0.1281735
1764435439.069805,-3.90656,0.3204599999999999,-0.0762999999999999,0.963925755,-0.17907669,0.1281735
1764435439.069805,-3.90656,0.3204599999999999,-0.0762999999999999,0.963925755,-0.17907669,0.1281735
1764435439.069805,-3.90656,0.3204599999999999,-0.0762999999999999,0.963925755,-0.17907669,0.1281735
1764435439.069805,-3.90656,0.3204599999999999,-0.0762999999999999,0.963925755,-0.17907669,0.1281735
1764435439.069805,-3.90656,0.3204599999999999,-0.0762999999999999,0.963925755,-0.17907669,0.1281735
1764435439.069805,-3.90656,0.3204599999999999,-0.0762999999999999,0.963925755,-0.17907669,0.1281735
1764435439.069805,-3.90656,0.3204599999999999,-0.0762999999999999,0.963925755,-0.17907669,0.1281735
1764435439.069805,-3.9676,0.09156,0.03052,0.962827125,-0.178649445,0.127257975
1764435439.069805,-3.9676,0.09156,0.03052,0.962827125,-0.178649445,0.127257975
1764435439.069805,-3.9676,0.09156,0.03052,0.962827125,-0.178649445,0.127257975
1764435439.069805,-3.9676,0.09156,0.03052,0.962827125,-0.178649445,0.127257975
1764435439.069805,-3.9676,0.09156,0.03052,0.962827125,-0.178649445,0.127257975
1764435439.069805,-3.9676,0.09156,0.03052,0.962827125,-0.178649445,0.127257975
1764435439.069805,-3.9676,0.09156,0.03052,0.962827125,-0.178649445,0.127257975
1764435439.069805,-3.9676,0.09156,0.03052,0.962827125,-0.178649445,0.127257975
1764435439.069805,-3.9676,0.09156,0.03052,0.962827125,-0.178649445,0.127257975
1764435439.0708022,-3.9676,0.09156,0.03052,0.962827125,-0.178649445,0.127257975
1764435439.1139555,-3.815,-0.36624,0.18312,0.96288816,-0.1782222,0.127257975
1764435439.1139555,-3.815,-0.36624,0.18312,0.96288816,-0.1782222,0.127257975
1764435439.1139555,-3.815,-0.36624,0.18312,0.96288816,-0.1782222,0.127257975
1764435439.1139555,-3.815,-0.36624,0.18312,0.96288816,-0.1782222,0.127257975
1764435439.1139555,-3.815,-0.36624,0.18312,0.96288816,-0.1782222,0.127257975
1764435439.1139555,-3.815,-0.36624,0.18312,0.96288816,-0.1782222,0.127257975
1764435439.1139555,-3.815,-0.36624,0.18312,0.96288816,-0.1782222,0.127257975
1764435439.1139555,-3.815,-0.36624,0.18312,0.96288816,-0.1782222,0.127257975
1764435439.1139555,-3.815,-0.36624,0.18312,0.96288816,-0.1782222,0.127257975
1764435439.1139555,-3.815,-0.36624,0.18312,0.96288816,-0.1782222,0.127257975
1764435439.1139555,-4.24228,-0.04578,-0.25942,0.96301023,-0.17797806,0.126647625
1764435439.1139555,-4.24228,-0.04578,-0.25942,0.96301023,-0.17797806,0.126647625
1764435439.1139555,-4.24228,-0.04578,-0.25942,0.96301023,-0.17797806,0.126647625
1764435439.1139555,-4.24228,-0.04578,-0.25942,0.96301023,-0.17797806,0.126647625
1764435439.1139555,-4.24228,-0.04578,-0.25942,0.96301023,-0.17797806,0.126647625
1764435439.1139555,-4.24228,-0.04578,-0.25942,0.96301023,-0.17797806,0.126647625
1764435439.1154916,-4.24228,-0.04578,-0.25942,0.96301023,-0.17797806,0.126647625
1764435439.1154916,-4.24228,-0.04578,-0.25942,0.96301023,-0.17797806,0.126647625
1764435439.1160238,-4.24228,-0.04578,-0.25942,0.96301023,-0.17797806,0.126647625
1764435439.1160238,-4.24228,-0.04578,-0.25942,0.96301023,-0.17797806,0.126647625
1764435439.1160238,-4.36436,-0.13734,0.1678599999999999,0.96484128,-0.177550815,0.12634245
1764435439.1160238,-4.36436,-0.13734,0.1678599999999999,0.96484128,-0.177550815,0.12634245
1764435439.1170428,-4.36436,-0.13734,0.1678599999999999,0.96484128,-0.177550815,0.12634245
1764435439.1170428,-4.36436,-0.13734,0.1678599999999999,0.96484128,-0.177550815,0.12634245
1764435439.1611934,-4.36436,-0.13734,0.1678599999999999,0.96484128,-0.177550815,0.12634245
1764435439.1611934,-4.36436,-0.13734,0.1678599999999999,0.96484128,-0.177550815,0.12634245
1764435439.1611934,-4.36436,-0.13734,0.1678599999999999,0.96484128,-0.177550815,0.12634245
1764435439.1611934,-4.36436,-0.13734,0.1678599999999999,0.96484128,-0.177550815,0.12634245
1764435439.1611934,-4.36436,-0.13734,0.1678599999999999,0.96484128,-0.177550815,0.12634245
1764435439.1611934,-4.36436,-0.13734,0.1678599999999999,0.96484128,-0.177550815,0.12634245
1764435439.1611934,-4.440659999999999,0.1525999999999999,0.19838,0.965634735,-0.178161165,0.126403485
1764435439.1611934,-4.440659999999999,0.1525999999999999,0.19838,0.965634735,-0.178161165,0.126403485
1764435439.1611934,-4.440659999999999,0.1525999999999999,0.19838,0.965634735,-0.178161165,0.126403485
1764435439.1616986,-4.440659999999999,0.1525999999999999,0.19838,0.965634735,-0.178161165,0.126403485
1764435439.1616986,-4.440659999999999,0.1525999999999999,0.19838,0.965634735,-0.178161165,0.126403485
1764435439.1616986,-4.440659999999999,0.1525999999999999,0.19838,0.965634735,-0.178161165,0.126403485
1764435439.1616986,-4.440659999999999,0.1525999999999999,0.19838,0.965634735,-0.178161165,0.126403485
1764435439.1616986,-4.440659999999999,0.1525999999999999,0.19838,0.965634735,-0.178161165,0.126403485
1764435439.1616986,-4.440659999999999,0.1525999999999999,0.19838,0.965634735,-0.178161165,0.126403485
1764435439.1616986,-4.440659999999999,0.1525999999999999,0.19838,0.965634735,-0.178161165,0.126403485
1764435439.1616986,-4.6543,0.13734,0.25942,0.96667233,-0.17846634,0.125060715
1764435439.1616986,-4.6543,0.13734,0.25942,0.96667233,-0.17846634,0.125060715
1764435439.1616986,-4.6543,0.13734,0.25942,0.96667233,-0.17846634,0.125060715
1764435439.1616986,-4.6543,0.13734,0.25942,0.96667233,-0.17846634,0.125060715
1764435439.1616986,-4.6543,0.13734,0.25942,0.96667233,-0.17846634,0.125060715
1764435439.1616986,-4.6543,0.13734,0.25942,0.96667233,-0.17846634,0.125060715
1764435439.2090244,-4.6543,0.13734,0.25942,0.96667233,-0.17846634,0.125060715
1764435439.2090244,-4.6543,0.13734,0.25942,0.96667233,-0.17846634,0.125060715
1764435439.2090244,-4.6543,0.13734,0.25942,0.96667233,-0.17846634,0.125060715
1764435439.2090244,-4.6543,0.13734,0.25942,0.96667233,-0.17846634,0.125060715
1764435439.2090244,-4.48644,0.06104,0.85456,0.96740475,-0.178771515,0.124816575
1764435439.2090244,-4.48644,0.06104,0.85456,0.96740475,-0.178771515,0.124816575
1764435439.2090244,-4.48644,0.06104,0.85456,0.96740475,-0.178771515,0.124816575
1764435439.2090244,-4.48644,0.06104,0.85456,0.96740475,-0.178771515,0.124816575
1764435439.2090244,-4.48644,0.06104,0.85456,0.96740475,-0.178771515,0.124816575
1764435439.2090244,-4.48644,0.06104,0.85456,0.96740475,-0.178771515,0.124816575
1764435439.2100322,-4.48644,0.06104,0.85456,0.96740475,-0.178771515,0.124816575
1764435439.2100322,-4.48644,0.06104,0.85456,0.96740475,-0.178771515,0.124816575
1764435439.2100322,-4.48644,0.06104,0.85456,0.96740475,-0.178771515,0.124816575
1764435439.2100322,-4.48644,0.06104,0.85456,0.96740475,-0.178771515,0.124816575
1764435439.2100322,-4.62378,0.06104,0.6714399999999999,0.96667233,-0.179015655,0.124328295
1764435439.2100322,-4.62378,0.06104,0.6714399999999999,0.96667233,-0.179015655,0.124328295
1764435439.2100322,-4.62378,0.06104,0.6714399999999999,0.96667233,-0.179015655,0.124328295
1764435439.2100322,-4.62378,0.06104,0.6714399999999999,0.96667233,-0.179015655,0.124328295
1764435439.2100322,-4.62378,0.06104,0.6714399999999999,0.96667233,-0.179015655,0.124328295
1764435439.2100322,-4.62378,0.06104,0.6714399999999999,0.96667233,-0.179015655,0.124328295
1764435439.2100322,-4.62378,0.06104,0.6714399999999999,0.96667233,-0.179015655,0.124328295
1764435439.2100322,-4.62378,0.06104,0.6714399999999999,0.96667233,-0.179015655,0.124328295
1764435439.2100322,-4.62378,0.06104,0.6714399999999999,0.96667233,-0.179015655,0.124328295
1764435439.2100322,-4.62378,0.06104,0.6714399999999999,0.96667233,-0.179015655,0.124328295
1764435439.2100322,-4.36436,0.44254,1.00716,0.96606198,-0.1794429,0.124816575
1764435439.2100322,-4.36436,0.44254,1.00716,0.96606198,-0.1794429,0.124816575
1764435439.2536852,-4.36436,0.44254,1.00716,0.96606198,-0.1794429,0.124816575
1764435439.2536852,-4.36436,0.44254,1.00716,0.96606198,-0.1794429,0.124816575
1764435439.2536852,-4.36436,0.44254,1.00716,0.96606198,-0.1794429,0.124816575
1764435439.2536852,-4.36436,0.44254,1.00716,0.96606198,-0.1794429,0.124816575
1764435439.2536852,-4.36436,0.44254,1.00716,0.96606198,-0.1794429,0.124816575
1764435439.2536852,-4.36436,0.44254,1.00716,0.96606198,-0.1794429,0.124816575
1764435439.2536852,-4.36436,0.44254,1.00716,0.96606198,-0.1794429,0.124816575
1764435439.2536852,-4.36436,0.44254,1.00716,0.96606198,-0.1794429,0.124816575
1764435439.2536852,-4.1202,0.59514,0.96138,0.965268525,-0.179259795,0.124450365
1764435439.2536852,-4.1202,0.59514,0.96138,0.965268525,-0.179259795,0.124450365
1764435439.2536852,-4.1202,0.59514,0.96138,0.965268525,-0.179259795,0.124450365
1764435439.2536852,-4.1202,0.59514,0.96138,0.965268525,-0.179259795,0.124450365
1764435439.2536852,-4.1202,0.59514,0.96138,0.965268525,-0.179259795,0.124450365
1764435439.2536852,-4.1202,0.59514,0.96138,0.965268525,-0.179259795,0.124450365
1764435439.2536852,-4.1202,0.59514,0.96138,0.965268525,-0.179259795,0.124450365
1764435439.2536852,-4.1202,0.59514,0.96138,0.965268525,-0.179259795,0.124450365
1764435439.2536852,-4.1202,0.59514,0.96138,0.965268525,-0.179259795,0.124450365
1764435439.2536852,-4.1202,0.59514,0.96138,0.965268525,-0.179259795,0.124450365
1764435439.2536852,-3.41824,0.94612,0.82404,0.96496335,-0.179015655,0.12438933
1764435439.2536852,-3.41824,0.94612,0.82404,0.96496335,-0.179015655,0.12438933
1764435439.2536852,-3.41824,0.94612,0.82404,0.96496335,-0.179015655,0.12438933
1764435439.254687,-3.41824,0.94612,0.82404,0.96496335,-0.179015655,0.12438933
1764435439.3029351,-3.41824,0.94612,0.82404,0.96496335,-0.179015655,0.12438933
1764435439.3029351,-3.41824,0.94612,0.82404,0.96496335,-0.179015655,0.12438933
1764435439.3029351,-3.41824,0.94612,0.82404,0.96496335,-0.179015655,0.12438933
1764435439.3029351,-3.41824,0.94612,0.82404,0.96496335,-0.179015655,0.12438933
1764435439.3029351,-3.41824,0.94612,0.82404,0.96496335,-0.179015655,0.12438933
1764435439.3034494,-3.41824,0.94612,0.82404,0.96496335,-0.179015655,0.12438933
1764435439.3034494,-3.79974,0.79352,1.12924,0.9655737,-0.17834427,0.124816575
1764435439.3034494,-3.79974,0.79352,1.12924,0.9655737,-0.17834427,0.124816575
1764435439.3034494,-3.79974,0.79352,1.12924,0.9655737,-0.17834427,0.124816575
1764435439.3034494,-3.79974,0.79352,1.12924,0.9655737,-0.17834427,0.124816575
1764435439.3034494,-3.79974,0.79352,1.12924,0.9655737,-0.17834427,0.124816575
1764435439.3034494,-3.79974,0.79352,1.12924,0.9655737,-0.17834427,0.124816575
1764435439.3034494,-3.79974,0.79352,1.12924,0.9655737,-0.17834427,0.124816575
1764435439.3034494,-3.79974,0.79352,1.12924,0.9655737,-0.17834427,0.124816575
1764435439.3034494,-3.79974,0.79352,1.12924,0.9655737,-0.17834427,0.124816575
1764435439.3034494,-3.79974,0.79352,1.12924,0.9655737,-0.17834427,0.124816575
1764435439.3034494,-3.41824,1.55652,1.02242,0.96606198,-0.179137725,0.12499968
1764435439.3034494,-3.41824,1.55652,1.02242,0.96606198,-0.179137725,0.12499968
1764435439.3034494,-3.41824,1.55652,1.02242,0.96606198,-0.179137725,0.12499968
1764435439.3034494,-3.41824,1.55652,1.02242,0.96606198,-0.179137725,0.12499968
1764435439.3034494,-3.41824,1.55652,1.02242,0.96606198,-0.179137725,0.12499968
1764435439.3034494,-3.41824,1.55652,1.02242,0.96606198,-0.179137725,0.12499968
1764435439.3034494,-3.41824,1.55652,1.02242,0.96606198,-0.179137725,0.12499968
1764435439.3034494,-3.41824,1.55652,1.02242,0.96606198,-0.179137725,0.12499968
1764435439.3492713,-3.41824,1.55652,1.02242,0.96606198,-0.179137725,0.12499968
1764435439.3492713,-3.41824,1.55652,1.02242,0.96606198,-0.179137725,0.12499968
1764435439.3492713,-3.17408,1.2971,0.9156,0.96569577,-0.17858841,0.12438933
1764435439.3492713,-3.17408,1.2971,0.9156,0.96569577,-0.17858841,0.12438933
1764435439.3492713,-3.17408,1.2971,0.9156,0.96569577,-0.17858841,0.12438933
1764435439.3492713,-3.17408,1.2971,0.9156,0.96569577,-0.17858841,0.12438933
1764435439.3492713,-3.17408,1.2971,0.9156,0.96569577,-0.17858841,0.12438933
1764435439.3492713,-3.17408,1.2971,0.9156,0.96569577,-0.17858841,0.12438933
1764435439.3492713,-3.17408,1.2971,0.9156,0.96569577,-0.17858841,0.12438933
1764435439.3492713,-3.17408,1.2971,0.9156,0.96569577,-0.17858841,0.12438933
1764435439.3492713,-3.17408,1.2971,0.9156,0.96569577,-0.17858841,0.12438933
1764435439.3492713,-3.17408,1.2971,0.9156,0.96569577,-0.17858841,0.12438933
1764435439.3492713,-3.11304,1.48022,1.03768,0.965512665,-0.1794429,0.124572435
1764435439.3502898,-3.11304,1.48022,1.03768,0.965512665,-0.1794429,0.124572435
1764435439.3502898,-3.11304,1.48022,1.03768,0.965512665,-0.1794429,0.124572435
1764435439.3502898,-3.11304,1.48022,1.03768,0.965512665,-0.1794429,0.124572435
1764435439.3502898,-3.11304,1.48022,1.03768,0.965512665,-0.1794429,0.124572435
1764435439.3502898,-3.11304,1.48022,1.03768,0.965512665,-0.1794429,0.124572435
1764435439.3502898,-3.11304,1.48022,1.03768,0.965512665,-0.1794429,0.124572435
1764435439.3502898,-3.11304,1.48022,1.03768,0.965512665,-0.1794429,0.124572435
1764435439.3502898,-3.11304,1.48022,1.03768,0.965512665,-0.1794429,0.124572435
1764435439.3502898,-3.11304,1.48022,1.03768,0.965512665,-0.1794429,0.124572435
1764435439.3937652,-2.56368,1.84646,0.9919,0.96593991,-0.179503935,0.1245114
1764435439.3937652,-2.56368,1.84646,0.9919,0.96593991,-0.179503935,0.1245114
1764435439.3937652,-2.56368,1.84646,0.9919,0.96593991,-0.179503935,0.1245114
1764435439.3937652,-2.56368,1.84646,0.9919,0.96593991,-0.179503935,0.1245114
1764435439.3937652,-2.56368,1.84646,0.9919,0.96593991,-0.179503935,0.1245114
1764435439.3937652,-2.56368,1.84646,0.9919,0.96593991,-0.179503935,0.1245114
1764435439.3937652,-2.56368,1.84646,0.9919,0.96593991,-0.179503935,0.1245114
1764435439.3937652,-2.56368,1.84646,0.9919,0.96593991,-0.179503935,0.1245114
1764435439.3937652,-2.56368,1.84646,0.9919,0.96593991,-0.179503935,0.1245114
1764435439.3937652,-2.56368,1.84646,0.9919,0.96593991,-0.179503935,0.1245114
1764435439.3937652,-1.9838,2.38056,1.6633399999999998,0.9667944,-0.180846705,0.124328295
1764435439.3937652,-1.9838,2.38056,1.6633399999999998,0.9667944,-0.180846705,0.124328295
1764435439.3950174,-1.9838,2.38056,1.6633399999999998,0.9667944,-0.180846705,0.124328295
1764435439.3950174,-1.9838,2.38056,1.6633399999999998,0.9667944,-0.180846705,0.124328295
1764435439.3950174,-1.9838,2.38056,1.6633399999999998,0.9667944,-0.180846705,0.124328295
1764435439.3950174,-1.9838,2.38056,1.6633399999999998,0.9667944,-0.180846705,0.124328295
1764435439.39655,-1.9838,2.38056,1.6633399999999998,0.9667944,-0.180846705,0.124328295
1764435439.39655,-1.9838,2.38056,1.6633399999999998,0.9667944,-0.180846705,0.124328295
1764435439.39655,-1.9838,2.38056,1.6633399999999998,0.9667944,-0.180846705,0.124328295
1764435439.39655,-1.9838,2.38056,1.6633399999999998,0.9667944,-0.180846705,0.124328295
1764435439.39655,-2.42634,1.87698,1.55652,0.964353,-0.180114285,0.12463347
1764435439.39655,-2.42634,1.87698,1.55652,0.964353,-0.180114285,0.12463347
1764435439.39655,-2.42634,1.87698,1.55652,0.964353,-0.180114285,0.12463347
1764435439.39655,-2.42634,1.87698,1.55652,0.964353,-0.180114285,0.12463347
1764435439.4483633,-2.42634,1.87698,1.55652,0.964353,-0.180114285,0.12463347
1764435439.4483633,-2.42634,1.87698,1.55652,0.964353,-0.180114285,0.12463347
1764435439.4483633,-2.42634,1.87698,1.55652,0.964353,-0.180114285,0.12463347
1764435439.4483633,-2.42634,1.87698,1.55652,0.964353,-0.180114285,0.12463347
1764435439.4493706,-2.42634,1.87698,1.55652,0.964353,-0.180114285,0.12463347
1764435439.4493706,-2.42634,1.87698,1.55652,0.964353,-0.180114285,0.12463347
1764435439.4493706,-2.76206,1.55652,0.96138,0.9655737,-0.179015655,0.12499968
1764435439.4493706,-2.76206,1.55652,0.96138,0.9655737,-0.179015655,0.12499968
1764435439.4493706,-2.76206,1.55652,0.96138,0.9655737,-0.179015655,0.12499968
1764435439.4493706,-2.76206,1.55652,0.96138,0.9655737,-0.179015655,0.12499968
1764435439.4493706,-2.76206,1.55652,0.96138,0.9655737,-0.179015655,0.12499968
1764435439.4493706,-2.76206,1.55652,0.96138,0.9655737,-0.179015655,0.12499968
1764435439.4493706,-2.76206,1.55652,0.96138,0.9655737,-0.179015655,0.12499968
1764435439.4493706,-2.76206,1.55652,0.96138,0.9655737,-0.179015655,0.12499968
1764435439.4493706,-2.76206,1.55652,0.96138,0.9655737,-0.179015655,0.12499968
1764435439.4493706,-2.76206,1.55652,0.96138,0.9655737,-0.179015655,0.12499968
1764435439.4493706,-2.45686,1.81594,0.763,0.966855435,-0.178771515,0.12646452
1764435439.4493706,-2.45686,1.81594,0.763,0.966855435,-0.178771515,0.12646452
1764435439.4493706,-2.45686,1.81594,0.763,0.966855435,-0.178771515,0.12646452
1764435439.4493706,-2.45686,1.81594,0.763,0.966855435,-0.178771515,0.12646452
1764435439.4493706,-2.45686,1.81594,0.763,0.966855435,-0.178771515,0.12646452
1764435439.4493706,-2.45686,1.81594,0.763,0.966855435,-0.178771515,0.12646452
1764435439.4493706,-2.45686,1.81594,0.763,0.966855435,-0.178771515,0.12646452
1764435439.4493706,-2.45686,1.81594,0.763,0.966855435,-0.178771515,0.12646452
1764435439.493368,-2.45686,1.81594,0.763,0.966855435,-0.178771515,0.12646452
1764435439.493368,-2.45686,1.81594,0.763,0.966855435,-0.178771515,0.12646452
1764435439.493368,-3.08252,2.18218,0.3204599999999999,0.96606198,-0.17785599,0.12683073
1764435439.493368,-3.08252,2.18218,0.3204599999999999,0.96606198,-0.17785599,0.12683073
1764435439.4943662,-3.08252,2.18218,0.3204599999999999,0.96606198,-0.17785599,0.12683073
1764435439.4943662,-3.08252,2.18218,0.3204599999999999,0.96606198,-0.17785599,0.12683073
1764435439.4943662,-3.08252,2.18218,0.3204599999999999,0.96606198,-0.17785599,0.12683073
1764435439.4943662,-3.08252,2.18218,0.3204599999999999,0.96606198,-0.17785599,0.12683073
1764435439.4943662,-3.08252,2.18218,0.3204599999999999,0.96606198,-0.17785599,0.12683073
1764435439.4943662,-3.08252,2.18218,0.3204599999999999,0.96606198,-0.17785599,0.12683073
1764435439.4943662,-3.08252,2.18218,0.3204599999999999,0.96606198,-0.17785599,0.12683073
1764435439.4943662,-3.08252,2.18218,0.3204599999999999,0.96606198,-0.17785599,0.12683073
1764435439.4943662,-3.37246,1.84646,0.3357199999999999,0.963803685,-0.177062535,0.12646452
1764435439.4943662,-3.37246,1.84646,0.3357199999999999,0.963803685,-0.177062535,0.12646452
1764435439.4943662,-3.37246,1.84646,0.3357199999999999,0.963803685,-0.177062535,0.12646452
1764435439.4943662,-3.37246,1.84646,0.3357199999999999,0.963803685,-0.177062535,0.12646452
1764435439.4943662,-3.37246,1.84646,0.3357199999999999,0.963803685,-0.177062535,0.12646452
1764435439.4943662,-3.37246,1.84646,0.3357199999999999,0.963803685,-0.177062535,0.12646452
1764435439.4943662,-3.37246,1.84646,0.3357199999999999,0.963803685,-0.177062535,0.12646452
1764435439.4943662,-3.37246,1.84646,0.3357199999999999,0.963803685,-0.177062535,0.12646452
1764435439.4943662,-3.37246,1.84646,0.3357199999999999,0.963803685,-0.177062535,0.12646452
1764435439.4943662,-3.37246,1.84646,0.3357199999999999,0.963803685,-0.177062535,0.12646452
1764435439.4943662,-3.7387,1.69386,0.97664,0.962949195,-0.176940465,0.12658659
1764435439.4943662,-3.7387,1.69386,0.97664,0.962949195,-0.176940465,0.12658659
1764435439.538274,-3.7387,1.69386,0.97664,0.962949195,-0.176940465,0.12658659
1764435439.538274,-3.7387,1.69386,0.97664,0.962949195,-0.176940465,0.12658659
1764435439.538274,-3.7387,1.69386,0.97664,0.962949195,-0.176940465,0.12658659
1764435439.538274,-3.7387,1.69386,0.97664,0.962949195,-0.176940465,0.12658659
1764435439.538274,-3.7387,1.69386,0.97664,0.962949195,-0.176940465,0.12658659
1764435439.538274,-3.7387,1.69386,0.97664,0.962949195,-0.176940465,0.12658659
1764435439.538274,-3.7387,1.69386,0.97664,0.962949195,-0.176940465,0.12658659
1764435439.538274,-3.7387,1.69386,0.97664,0.962949195,-0.176940465,0.12658659
1764435439.538274,-3.49454,1.51074,0.97664,0.962705055,-0.17736771,0.12731901
1764435439.538274,-3.49454,1.51074,0.97664,0.962705055,-0.17736771,0.12731901
1764435439.538274,-3.49454,1.51074,0.97664,0.962705055,-0.17736771,0.12731901
1764435439.538274,-3.49454,1.51074,0.97664,0.962705055,-0.17736771,0.12731901
1764435439.538274,-3.49454,1.51074,0.97664,0.962705055,-0.17736771,0.12731901
1764435439.538274,-3.49454,1.51074,0.97664,0.962705055,-0.17736771,0.12731901
1764435439.538274,-3.49454,1.51074,0.97664,0.962705055,-0.17736771,0.12731901
1764435439.538274,-3.49454,1.51074,0.97664,0.962705055,-0.17736771,0.12731901
1764435439.538274,-3.49454,1.51074,0.97664,0.962705055,-0.17736771,0.12731901
1764435439.538274,-3.49454,1.51074,0.97664,0.962705055,-0.17736771,0.12731901
1764435439.538274,-3.26564,1.8312,1.31236,0.963315405,-0.17736771,0.12744108
1764435439.538274,-3.26564,1.8312,1.31236,0.963315405,-0.17736771,0.12744108
1764435439.5392728,-3.26564,1.8312,1.31236,0.963315405,-0.17736771,0.12744108
1764435439.5392728,-3.26564,1.8312,1.31236,0.963315405,-0.17736771,0.12744108
1764435439.5392728,-3.26564,1.8312,1.31236,0.963315405,-0.17736771,0.12744108
1764435439.5392728,-3.26564,1.8312,1.31236,0.963315405,-0.17736771,0.12744108
1764435439.5826657,-3.26564,1.8312,1.31236,0.963315405,-0.17736771,0.12744108
1764435439.583199,-3.26564,1.8312,1.31236,0.963315405,-0.17736771,0.12744108
1764435439.583199,-3.26564,1.8312,1.31236,0.963315405,-0.17736771,0.12744108
1764435439.583199,-3.26564,1.8312,1.31236,0.963315405,-0.17736771,0.12744108
1764435439.583199,-2.83836,1.25132,1.55652,0.963925755,-0.178771515,0.127868325
1764435439.583199,-2.83836,1.25132,1.55652,0.963925755,-0.178771515,0.127868325
1764435439.583199,-2.83836,1.25132,1.55652,0.963925755,-0.178771515,0.127868325
1764435439.583199,-2.83836,1.25132,1.55652,0.963925755,-0.178771515,0.127868325
1764435439.583199,-2.83836,1.25132,1.55652,0.963925755,-0.178771515,0.127868325
1764435439.583199,-2.83836,1.25132,1.55652,0.963925755,-0.178771515,0.127868325
1764435439.583199,-2.83836,1.25132,1.55652,0.963925755,-0.178771515,0.127868325
1764435439.583199,-2.83836,1.25132,1.55652,0.963925755,-0.178771515,0.127868325
1764435439.583199,-2.83836,1.25132,1.55652,0.963925755,-0.178771515,0.127868325
1764435439.583199,-2.83836,1.25132,1.55652,0.963925755,-0.178771515,0.127868325
1764435439.583717,-2.65524,1.51074,1.8006799999999998,0.96423093,-0.17895462,0.127746255
1764435439.583717,-2.65524,1.51074,1.8006799999999998,0.96423093,-0.17895462,0.127746255
1764435439.583717,-2.65524,1.51074,1.8006799999999998,0.96423093,-0.17895462,0.127746255
1764435439.583717,-2.65524,1.51074,1.8006799999999998,0.96423093,-0.17895462,0.127746255
1764435439.583717,-2.65524,1.51074,1.8006799999999998,0.96423093,-0.17895462,0.127746255
1764435439.583717,-2.65524,1.51074,1.8006799999999998,0.96423093,-0.17895462,0.127746255
1764435439.583717,-2.65524,1.51074,1.8006799999999998,0.96423093,-0.17895462,0.127746255
1764435439.583717,-2.65524,1.51074,1.8006799999999998,0.96423093,-0.17895462,0.127746255
1764435439.583717,-2.65524,1.51074,1.8006799999999998,0.96423093,-0.17895462,0.127746255
1764435439.583717,-2.65524,1.51074,1.8006799999999998,0.96423093,-0.17895462,0.127746255
1764435439.6305332,-2.79258,0.8087799999999999,1.1445,0.96447507,-0.17883255,0.12756315
1764435439.6305332,-2.79258,0.8087799999999999,1.1445,0.96447507,-0.17883255,0.12756315
1764435439.6305332,-2.79258,0.8087799999999999,1.1445,0.96447507,-0.17883255,0.12756315
1764435439.6305332,-2.79258,0.8087799999999999,1.1445,0.96447507,-0.17883255,0.12756315
1764435439.6305332,-2.79258,0.8087799999999999,1.1445,0.96447507,-0.17883255,0.12756315
1764435439.6305332,-2.79258,0.8087799999999999,1.1445,0.96447507,-0.17883255,0.12756315
1764435439.6305332,-2.79258,0.8087799999999999,1.1445,0.96447507,-0.17883255,0.12756315
1764435439.6305332,-2.79258,0.8087799999999999,1.1445,0.96447507,-0.17883255,0.12756315
1764435439.6305332,-2.79258,0.8087799999999999,1.1445,0.96447507,-0.17883255,0.12756315
1764435439.6305332,-2.79258,0.8087799999999999,1.1445,0.96447507,-0.17883255,0.12756315
1764435439.6305332,-2.92992,1.2055399999999998,1.57178,0.965756805,-0.18005325,0.12792936
1764435439.6305332,-2.92992,1.2055399999999998,1.57178,0.965756805,-0.18005325,0.12792936
1764435439.6305332,-2.92992,1.2055399999999998,1.57178,0.965756805,-0.18005325,0.12792936
1764435439.6305332,-2.92992,1.2055399999999998,1.57178,0.965756805,-0.18005325,0.12792936
1764435439.6305332,-2.92992,1.2055399999999998,1.57178,0.965756805,-0.18005325,0.12792936
1764435439.6305332,-2.92992,1.2055399999999998,1.57178,0.965756805,-0.18005325,0.12792936
1764435439.6305332,-2.92992,1.2055399999999998,1.57178,0.965756805,-0.18005325,0.12792936
1764435439.6305332,-2.92992,1.2055399999999998,1.57178,0.965756805,-0.18005325,0.12792936
1764435439.6305332,-2.92992,1.2055399999999998,1.57178,0.965756805,-0.18005325,0.12792936
1764435439.6305332,-2.92992,1.2055399999999998,1.57178,0.965756805,-0.18005325,0.12792936
1764435439.6305332,-3.23512,1.81594,1.19028,0.96545163,-0.180602565,0.12829557
1764435439.6305332,-3.23512,1.81594,1.19028,0.96545163,-0.180602565,0.12829557
1764435439.674209,-3.23512,1.81594,1.19028,0.96545163,-0.180602565,0.12829557
1764435439.6747167,-3.23512,1.81594,1.19028,0.96545163,-0.180602565,0.12829557
1764435439.6747167,-3.23512,1.81594,1.19028,0.96545163,-0.180602565,0.12829557
1764435439.6747167,-3.23512,1.81594,1.19028,0.96545163,-0.180602565,0.12829557
1764435439.6747167,-3.23512,1.81594,1.19028,0.96545163,-0.180602565,0.12829557
1764435439.6747167,-3.23512,1.81594,1.19028,0.96545163,-0.180602565,0.12829557
1764435439.6747167,-3.23512,1.81594,1.19028,0.96545163,-0.180602565,0.12829557
1764435439.6747167,-3.23512,1.81594,1.19028,0.96545163,-0.180602565,0.12829557
1764435439.6747167,-3.18934,1.05294,0.9003399999999999,0.964291965,-0.18054153,0.12780729
1764435439.6747167,-3.18934,1.05294,0.9003399999999999,0.964291965,-0.18054153,0.12780729
1764435439.6752238,-3.18934,1.05294,0.9003399999999999,0.964291965,-0.18054153,0.12780729
1764435439.6752238,-3.18934,1.05294,0.9003399999999999,0.964291965,-0.18054153,0.12780729
1764435439.6752238,-3.18934,1.05294,0.9003399999999999,0.964291965,-0.18054153,0.12780729
1764435439.6752238,-3.18934,1.05294,0.9003399999999999,0.964291965,-0.18054153,0.12780729
1764435439.6752238,-3.18934,1.05294,0.9003399999999999,0.964291965,-0.18054153,0.12780729
1764435439.6752238,-3.18934,1.05294,0.9003399999999999,0.964291965,-0.18054153,0.12780729
1764435439.6752238,-3.18934,1.05294,0.9003399999999999,0.964291965,-0.18054153,0.12780729
1764435439.6752238,-3.18934,1.05294,0.9003399999999999,0.964291965,-0.18054153,0.12780729
1764435439.6752238,-3.93708,0.96138,0.6867,0.964047825,-0.180602565,0.12829557
1764435439.6752238,-3.93708,0.96138,0.6867,0.964047825,-0.180602565,0.12829557
1764435439.6752238,-3.93708,0.96138,0.6867,0.964047825,-0.180602565,0.12829557
1764435439.6752238,-3.93708,0.96138,0.6867,0.964047825,-0.180602565,0.12829557
1764435439.7184994,-3.93708,0.96138,0.6867,0.964047825,-0.180602565,0.12829557
1764435439.7184994,-3.93708,0.96138,0.6867,0.964047825,-0.180602565,0.12829557
1764435439.7191565,-3.93708,0.96138,0.6867,0.964047825,-0.180602565,0.12829557
1764435439.7191565,-3.93708,0.96138,0.6867,0.964047825,-0.180602565,0.12829557
1764435439.7191565,-3.93708,0.96138,0.6867,0.964047825,-0.180602565,0.12829557
1764435439.7191565,-3.93708,0.96138,0.6867,0.964047825,-0.180602565,0.12829557
1764435439.720163,-3.72344,0.96138,0.12208,0.964414035,-0.18078567,0.12829557
1764435439.720163,-3.72344,0.96138,0.12208,0.964414035,-0.18078567,0.12829557
1764435439.720163,-3.72344,0.96138,0.12208,0.964414035,-0.18078567,0.12829557
1764435439.720163,-3.72344,0.96138,0.12208,0.964414035,-0.18078567,0.12829557
1764435439.720163,-3.72344,0.96138,0.12208,0.964414035,-0.18078567,0.12829557
1764435439.720163,-3.72344,0.96138,0.12208,0.964414035,-0.18078567,0.12829557
1764435439.7213724,-3.72344,0.96138,0.12208,0.964414035,-0.18078567,0.12829557
1764435439.7213724,-3.72344,0.96138,0.12208,0.964414035,-0.18078567,0.12829557
1764435439.7213724,-3.72344,0.96138,0.12208,0.964414035,-0.18078567,0.12829557
1764435439.7213724,-3.72344,0.96138,0.12208,0.964414035,-0.18078567,0.12829557
1764435439.7213724,-4.1965,1.08346,0.3509799999999999,0.96398679,-0.180236355,0.12853971
1764435439.7213724,-4.1965,1.08346,0.3509799999999999,0.96398679,-0.180236355,0.12853971
1764435439.7233734,-4.1965,1.08346,0.3509799999999999,0.96398679,-0.180236355,0.12853971
1764435439.7233734,-4.1965,1.08346,0.3509799999999999,0.96398679,-0.180236355,0.12853971
1764435439.7233734,-4.1965,1.08346,0.3509799999999999,0.96398679,-0.180236355,0.12853971
1764435439.7233734,-4.1965,1.08346,0.3509799999999999,0.96398679,-0.180236355,0.12853971
1764435439.7233734,-4.1965,1.08346,0.3509799999999999,0.96398679,-0.180236355,0.12853971
1764435439.7233734,-4.1965,1.08346,0.3509799999999999,0.96398679,-0.180236355,0.12853971
1764435439.767828,-4.1965,1.08346,0.3509799999999999,0.96398679,-0.180236355,0.12853971
1764435439.767828,-4.1965,1.08346,0.3509799999999999,0.96398679,-0.180236355,0.12853971
1764435439.767828,-0.01526,1.19028,-0.19838,0.96349851,-0.17968704,0.128478675
1764435439.767828,-0.01526,1.19028,-0.19838,0.96349851,-0.17968704,0.128478675
1764435439.767828,-0.01526,1.19028,-0.19838,0.96349851,-0.17968704,0.128478675
1764435439.767828,-0.01526,1.19028,-0.19838,0.96349851,-0.17968704,0.128478675
1764435439.767828,-0.01526,1.19028,-0.19838,0.96349851,-0.17968704,0.128478675
1764435439.767828,-0.01526,1.19028,-0.19838,0.96349851,-0.17968704,0.128478675
1764435439.767828,-0.01526,1.19028,-0.19838,0.96349851,-0.17968704,0.128478675
1764435439.767828,-0.01526,1.19028,-0.19838,0.96349851,-0.17968704,0.128478675
1764435439.767828,-0.01526,1.19028,-0.19838,0.96349851,-0.17968704,0.128478675
1764435439.767828,-0.01526,1.19028,-0.19838,0.96349851,-0.17968704,0.128478675
1764435439.767828,-4.18124,0.88508,-0.4578,0.96349851,-0.17883255,0.128844885
1764435439.767828,-4.18124,0.88508,-0.4578,0.96349851,-0.17883255,0.128844885
1764435439.767828,-4.18124,0.88508,-0.4578,0.96349851,-0.17883255,0.128844885
1764435439.767828,-4.18124,0.88508,-0.4578,0.96349851,-0.17883255,0.128844885
1764435439.767828,-4.18124,0.88508,-0.4578,0.96349851,-0.17883255,0.128844885
1764435439.767828,-4.18124,0.88508,-0.4578,0.96349851,-0.17883255,0.128844885
1764435439.767828,-4.18124,0.88508,-0.4578,0.96349851,-0.17883255,0.128844885
1764435439.767828,-4.18124,0.88508,-0.4578,0.96349851,-0.17883255,0.128844885
1764435439.767828,-4.18124,0.88508,-0.4578,0.96349851,-0.17883255,0.128844885
1764435439.767828,-4.18124,0.88508,-0.4578,0.96349851,-0.17883255,0.128844885
1764435439.8120358,-4.10494,0.13734,-0.25942,0.963437475,-0.17834427,0.12902799
1764435439.8120358,-4.10494,0.13734,-0.25942,0.963437475,-0.17834427,0.12902799
1764435439.8120358,-4.10494,0.13734,-0.25942,0.963437475,-0.17834427,0.12902799
1764435439.8120358,-4.10494,0.13734,-0.25942,0.963437475,-0.17834427,0.12902799
1764435439.8120358,-4.10494,0.13734,-0.25942,0.963437475,-0.17834427,0.12902799
1764435439.8120358,-4.10494,0.13734,-0.25942,0.963437475,-0.17834427,0.12902799
1764435439.8120358,-4.10494,0.13734,-0.25942,0.963437475,-0.17834427,0.12902799
1764435439.8120358,-4.10494,0.13734,-0.25942,0.963437475,-0.17834427,0.12902799
1764435439.8120358,-4.10494,0.13734,-0.25942,0.963437475,-0.17834427,0.12902799
1764435439.8120358,-4.10494,0.13734,-0.25942,0.963437475,-0.17834427,0.12902799
1764435439.8120358,-4.4254,-0.25942,-0.01526,0.96362058,-0.178283235,0.128966955
1764435439.8120358,-4.4254,-0.25942,-0.01526,0.96362058,-0.178283235,0.128966955
1764435439.8120358,-4.4254,-0.25942,-0.01526,0.96362058,-0.178283235,0.128966955
1764435439.8120358,-4.4254,-0.25942,-0.01526,0.96362058,-0.178283235,0.128966955
1764435439.8120358,-4.4254,-0.25942,-0.01526,0.96362058,-0.178283235,0.128966955
1764435439.8120358,-4.4254,-0.25942,-0.01526,0.96362058,-0.178283235,0.128966955
1764435439.8120358,-4.4254,-0.25942,-0.01526,0.96362058,-0.178283235,0.128966955
1764435439.8135607,-4.4254,-0.25942,-0.01526,0.96362058,-0.178283235,0.128966955
1764435439.8135607,-4.4254,-0.25942,-0.01526,0.96362058,-0.178283235,0.128966955
1764435439.8135607,-4.4254,-0.25942,-0.01526,0.96362058,-0.178283235,0.128966955
1764435439.8135607,-4.59326,0.03052,0.19838,0.96459714,-0.178161165,0.12890592
1764435439.8135607,-4.59326,0.03052,0.19838,0.96459714,-0.178161165,0.12890592
1764435439.8135607,-4.59326,0.03052,0.19838,0.96459714,-0.178161165,0.12890592
1764435439.8135607,-4.59326,0.03052,0.19838,0.96459714,-0.178161165,0.12890592
1764435439.861412,-4.59326,0.03052,0.19838,0.96459714,-0.178161165,0.12890592
1764435439.861412,-4.59326,0.03052,0.19838,0.96459714,-0.178161165,0.12890592
1764435439.861412,-4.59326,0.03052,0.19838,0.96459714,-0.178161165,0.12890592
1764435439.861412,-4.59326,0.03052,0.19838,0.96459714,-0.178161165,0.12890592
1764435439.862426,-4.59326,0.03052,0.19838,0.96459714,-0.178161165,0.12890592
1764435439.862426,-4.59326,0.03052,0.19838,0.96459714,-0.178161165,0.12890592
1764435439.862426,-4.59326,0.06104,0.3509799999999999,0.965512665,-0.177672885,0.128356605
1764435439.862426,-4.59326,0.06104,0.3509799999999999,0.965512665,-0.177672885,0.128356605
1764435439.862426,-4.59326,0.06104,0.3509799999999999,0.965512665,-0.177672885,0.128356605
1764435439.862426,-4.59326,0.06104,0.3509799999999999,0.965512665,-0.177672885,0.128356605
1764435439.862426,-4.59326,0.06104,0.3509799999999999,0.965512665,-0.177672885,0.128356605
1764435439.862426,-4.59326,0.06104,0.3509799999999999,0.965512665,-0.177672885,0.128356605
1764435439.862426,-4.59326,0.06104,0.3509799999999999,0.965512665,-0.177672885,0.128356605
1764435439.862426,-4.59326,0.06104,0.3509799999999999,0.965512665,-0.177672885,0.128356605
1764435439.862426,-4.59326,0.06104,0.3509799999999999,0.965512665,-0.177672885,0.128356605
1764435439.862426,-4.59326,0.06104,0.3509799999999999,0.965512665,-0.177672885,0.128356605
1764435439.862426,-4.54748,0.1678599999999999,0.763,0.96642819,-0.177184605,0.12768522
1764435439.862426,-4.54748,0.1678599999999999,0.763,0.96642819,-0.177184605,0.12768522
1764435439.862426,-4.54748,0.1678599999999999,0.763,0.96642819,-0.177184605,0.12768522
1764435439.862426,-4.54748,0.1678599999999999,0.763,0.96642819,-0.177184605,0.12768522
1764435439.862426,-4.54748,0.1678599999999999,0.763,0.96642819,-0.177184605,0.12768522
1764435439.862426,-4.54748,0.1678599999999999,0.763,0.96642819,-0.177184605,0.12768522
1764435439.862426,-4.54748,0.1678599999999999,0.763,0.96642819,-0.177184605,0.12768522
1764435439.862426,-4.54748,0.1678599999999999,0.763,0.96642819,-0.177184605,0.12768522
1764435439.9099245,-4.54748,0.1678599999999999,0.763,0.96642819,-0.177184605,0.12768522
1764435439.9099245,-4.54748,0.1678599999999999,0.763,0.96642819,-0.177184605,0.12768522
1764435439.9099245,-4.77638,0.51884,0.62566,0.966733365,-0.17651322,0.127380045
1764435439.9099245,-4.77638,0.51884,0.62566,0.966733365,-0.17651322,0.127380045
1764435439.9099245,-4.77638,0.51884,0.62566,0.966733365,-0.17651322,0.127380045
1764435439.9099245,-4.77638,0.51884,0.62566,0.966733365,-0.17651322,0.127380045
1764435439.9099245,-4.77638,0.51884,0.62566,0.966733365,-0.17651322,0.127380045
1764435439.9099245,-4.77638,0.51884,0.62566,0.966733365,-0.17651322,0.127380045
1764435439.9099245,-4.77638,0.51884,0.62566,0.966733365,-0.17651322,0.127380045
1764435439.9099245,-4.77638,0.51884,0.62566,0.966733365,-0.17651322,0.127380045
1764435439.9099245,-4.77638,0.51884,0.62566,0.966733365,-0.17651322,0.127380045
1764435439.9099245,-4.77638,0.51884,0.62566,0.966733365,-0.17651322,0.127380045
1764435439.9099245,-4.36436,0.88508,1.02242,0.96667233,-0.177917025,0.126525555
1764435439.9099245,-4.36436,0.88508,1.02242,0.96667233,-0.177917025,0.126525555
1764435439.9099245,-4.36436,0.88508,1.02242,0.96667233,-0.177917025,0.126525555
1764435439.9099245,-4.36436,0.88508,1.02242,0.96667233,-0.177917025,0.126525555
1764435439.9099245,-4.36436,0.88508,1.02242,0.96667233,-0.177917025,0.126525555
1764435439.9099245,-4.36436,0.88508,1.02242,0.96667233,-0.177917025,0.126525555
1764435439.9099245,-4.36436,0.88508,1.02242,0.96667233,-0.177917025,0.126525555
1764435439.9099245,-4.36436,0.88508,1.02242,0.96667233,-0.177917025,0.126525555
1764435439.9099245,-4.36436,0.88508,1.02242,0.96667233,-0.177917025,0.126525555
1764435439.9099245,-4.36436,0.88508,1.02242,0.96667233,-0.177917025,0.126525555
1764435439.9099245,-4.53222,0.3051999999999999,1.02242,0.96569577,-0.17797806,0.126403485
1764435439.9099245,-4.53222,0.3051999999999999,1.02242,0.96569577,-0.17797806,0.126403485
1764435439.9555218,-4.53222,0.3051999999999999,1.02242,0.96569577,-0.17797806,0.126403485
1764435439.9555218,-4.53222,0.3051999999999999,1.02242,0.96569577,-0.17797806,0.126403485
1764435439.9555218,-4.53222,0.3051999999999999,1.02242,0.96569577,-0.17797806,0.126403485
1764435439.9555218,-4.53222,0.3051999999999999,1.02242,0.96569577,-0.17797806,0.126403485
1764435439.9555218,-4.53222,0.3051999999999999,1.02242,0.96569577,-0.17797806,0.126403485
1764435439.9555218,-4.53222,0.3051999999999999,1.02242,0.96569577,-0.17797806,0.126403485
1764435439.9555218,-4.53222,0.3051999999999999,1.02242,0.96569577,-0.17797806,0.126403485
1764435439.9555218,-4.53222,0.3051999999999999,1.02242,0.96569577,-0.17797806,0.126403485
1764435439.9555218,-3.49454,0.79352,1.2055399999999998,0.96520749,-0.17846634,0.12634245
1764435439.9555218,-3.49454,0.79352,1.2055399999999998,0.96520749,-0.17846634,0.12634245
1764435439.9560604,-3.49454,0.79352,1.2055399999999998,0.96520749,-0.17846634,0.12634245
1764435439.9560604,-3.49454,0.79352,1.2055399999999998,0.96520749,-0.17846634,0.12634245
1764435439.9560604,-3.49454,0.79352,1.2055399999999998,0.96520749,-0.17846634,0.12634245
1764435439.9560604,-3.49454,0.79352,1.2055399999999998,0.96520749,-0.17846634,0.12634245
1764435439.9560604,-3.49454,0.79352,1.2055399999999998,0.96520749,-0.17846634,0.12634245
1764435439.9560604,-3.49454,0.79352,1.2055399999999998,0.96520749,-0.17846634,0.12634245
1764435439.9560604,-3.49454,0.79352,1.2055399999999998,0.96520749,-0.17846634,0.12634245
1764435439.9560604,-3.49454,0.79352,1.2055399999999998,0.96520749,-0.17846634,0.12634245
1764435439.9560604,-3.5861,0.25942,1.05294,0.964902315,-0.177917025,0.126647625
1764435439.9560604,-3.5861,0.25942,1.05294,0.964902315,-0.177917025,0.126647625
1764435440.0001636,-3.5861,0.25942,1.05294,0.964902315,-0.177917025,0.126647625
1764435440.0001636,-3.5861,0.25942,1.05294,0.964902315,-0.177917025,0.126647625
1764435440.0001636,-3.5861,0.25942,1.05294,0.964902315,-0.177917025,0.126647625
1764435440.0011704,-3.5861,0.25942,1.05294,0.964902315,-0.177917025,0.126647625
1764435440.0011704,-3.5861,0.25942,1.05294,0.964902315,-0.177917025,0.126647625
1764435440.0011704,-3.5861,0.25942,1.05294,0.964902315,-0.177917025,0.126647625
1764435440.0011704,-3.5861,0.25942,1.05294,0.964902315,-0.177917025,0.126647625
1764435440.0011704,-3.5861,0.25942,1.05294,0.964902315,-0.177917025,0.126647625
1764435440.0011704,-3.38772,0.6409199999999999,0.51884,0.964780245,-0.178161165,0.126037275
1764435440.0011704,-3.38772,0.6409199999999999,0.51884,0.964780245,-0.178161165,0.126037275
1764435440.0011704,-3.38772,0.6409199999999999,0.51884,0.964780245,-0.178161165,0.126037275
1764435440.0011704,-3.38772,0.6409199999999999,0.51884,0.964780245,-0.178161165,0.126037275
1764435440.002187,-3.38772,0.6409199999999999,0.51884,0.964780245,-0.178161165,0.126037275
1764435440.002187,-3.38772,0.6409199999999999,0.51884,0.964780245,-0.178161165,0.126037275
1764435440.002187,-3.38772,0.6409199999999999,0.51884,0.964780245,-0.178161165,0.126037275
1764435440.002187,-3.38772,0.6409199999999999,0.51884,0.964780245,-0.178161165,0.126037275
1764435440.002187,-3.38772,0.6409199999999999,0.51884,0.964780245,-0.178161165,0.126037275
1764435440.002187,-3.38772,0.6409199999999999,0.51884,0.964780245,-0.178161165,0.126037275
1764435440.002187,-3.40298,1.31236,0.82404,0.965268525,-0.178405305,0.125915205
1764435440.002187,-3.40298,1.31236,0.82404,0.965268525,-0.178405305,0.125915205
1764435440.002187,-3.40298,1.31236,0.82404,0.965268525,-0.178405305,0.125915205
1764435440.002187,-3.40298,1.31236,0.82404,0.965268525,-0.178405305,0.125915205
1764435440.002187,-3.40298,1.31236,0.82404,0.965268525,-0.178405305,0.125915205
1764435440.0031836,-3.40298,1.31236,0.82404,0.965268525,-0.178405305,0.125915205
1764435440.0031836,-3.40298,1.31236,0.82404,0.965268525,-0.178405305,0.125915205
1764435440.0031836,-3.40298,1.31236,0.82404,0.965268525,-0.178405305,0.125915205
1764435440.0500612,-3.40298,1.31236,0.82404,0.965268525,-0.178405305,0.125915205
1764435440.0500612,-3.40298,1.31236,0.82404,0.965268525,-0.178405305,0.125915205
1764435440.0500612,-3.78448,0.763,1.0682,0.965024385,-0.178039095,0.125548995
1764435440.0500612,-3.78448,0.763,1.0682,0.965024385,-0.178039095,0.125548995
1764435440.0500612,-3.78448,0.763,1.0682,0.965024385,-0.178039095,0.125548995
1764435440.0500612,-3.78448,0.763,1.0682,0.965024385,-0.178039095,0.125548995
1764435440.0500612,-3.78448,0.763,1.0682,0.965024385,-0.178039095,0.125548995
1764435440.0500612,-3.78448,0.763,1.0682,0.965024385,-0.178039095,0.125548995
1764435440.0500612,-3.78448,0.763,1.0682,0.965024385,-0.178039095,0.125548995
1764435440.0500612,-3.78448,0.763,1.0682,0.965024385,-0.178039095,0.125548995
1764435440.0500612,-3.78448,0.763,1.0682,0.965024385,-0.178039095,0.125548995
1764435440.0500612,-3.78448,0.763,1.0682,0.965024385,-0.178039095,0.125548995
1764435440.0500612,-3.92182,1.0682,0.77826,0.96630612,-0.17871048,0.12561003
1764435440.0500612,-3.92182,1.0682,0.77826,0.96630612,-0.17871048,0.12561003
1764435440.0500612,-3.92182,1.0682,0.77826,0.96630612,-0.17871048,0.12561003
1764435440.0500612,-3.92182,1.0682,0.77826,0.96630612,-0.17871048,0.12561003
1764435440.0500612,-3.92182,1.0682,0.77826,0.96630612,-0.17871048,0.12561003
1764435440.0500612,-3.92182,1.0682,0.77826,0.96630612,-0.17871048,0.12561003
1764435440.0500612,-3.92182,1.0682,0.77826,0.96630612,-0.17871048,0.12561003
1764435440.0500612,-3.92182,1.0682,0.77826,0.96630612,-0.17871048,0.12561003
1764435440.0500612,-3.92182,1.0682,0.77826,0.96630612,-0.17871048,0.12561003
1764435440.0500612,-3.92182,1.0682,0.77826,0.96630612,-0.17871048,0.12561003
1764435440.0500612,-3.90656,1.15976,1.2208,0.96630612,-0.17871048,0.125548995
1764435440.0500612,-3.90656,1.15976,1.2208,0.96630612,-0.17871048,0.125548995
1764435440.095058,-3.90656,1.15976,1.2208,0.96630612,-0.17871048,0.125548995
1764435440.095058,-3.90656,1.15976,1.2208,0.96630612,-0.17871048,0.125548995
1764435440.095058,-3.90656,1.15976,1.2208,0.96630612,-0.17871048,0.125548995
1764435440.095058,-3.90656,1.15976,1.2208,0.96630612,-0.17871048,0.125548995
1764435440.095058,-3.90656,1.15976,1.2208,0.96630612,-0.17871048,0.125548995
1764435440.0955944,-3.90656,1.15976,1.2208,0.96630612,-0.17871048,0.125548995
1764435440.0955944,-3.90656,1.15976,1.2208,0.96630612,-0.17871048,0.125548995
1764435440.0955944,-3.90656,1.15976,1.2208,0.96630612,-0.17871048,0.125548995
1764435440.0955944,-4.02864,1.15976,1.51074,0.966489225,-0.17956497,0.12609831
1764435440.0955944,-4.02864,1.15976,1.51074,0.966489225,-0.17956497,0.12609831
1764435440.0955944,-4.02864,1.15976,1.51074,0.966489225,-0.17956497,0.12609831
1764435440.0955944,-4.02864,1.15976,1.51074,0.966489225,-0.17956497,0.12609831
1764435440.0955944,-4.02864,1.15976,1.51074,0.966489225,-0.17956497,0.12609831
1764435440.0955944,-4.02864,1.15976,1.51074,0.966489225,-0.17956497,0.12609831
1764435440.0955944,-4.02864,1.15976,1.51074,0.966489225,-0.17956497,0.12609831
1764435440.0955944,-4.02864,1.15976,1.51074,0.966489225,-0.17956497,0.12609831
1764435440.0955944,-4.02864,1.15976,1.51074,0.966489225,-0.17956497,0.12609831
1764435440.0955944,-4.02864,1.15976,1.51074,0.966489225,-0.17956497,0.12609831
1764435440.0955944,-4.16598,0.5341,1.54126,0.96508542,-0.17907669,0.126281415
1764435440.0955944,-4.16598,0.5341,1.54126,0.96508542,-0.17907669,0.126281415
1764435440.0955944,-4.16598,0.5341,1.54126,0.96508542,-0.17907669,0.126281415
1764435440.0955944,-4.16598,0.5341,1.54126,0.96508542,-0.17907669,0.126281415
1764435440.0955944,-4.16598,0.5341,1.54126,0.96508542,-0.17907669,0.126281415
1764435440.0955944,-4.16598,0.5341,1.54126,0.96508542,-0.17907669,0.126281415
1764435440.1435363,-4.16598,0.5341,1.54126,0.96508542,-0.17907669,0.126281415
1764435440.1435363,-4.16598,0.5341,1.54126,0.96508542,-0.17907669,0.126281415
1764435440.1445472,-4.16598,0.5341,1.54126,0.96508542,-0.17907669,0.126281415
1764435440.1445472,-4.16598,0.5341,1.54126,0.96508542,-0.17907669,0.126281415
1764435440.1445472,-4.25754,0.28994,1.2055399999999998,0.96581784,-0.17919876,0.126037275
1764435440.1445472,-4.25754,0.28994,1.2055399999999998,0.96581784,-0.17919876,0.126037275
1764435440.1445472,-4.25754,0.28994,1.2055399999999998,0.96581784,-0.17919876,0.126037275
1764435440.1455538,-4.25754,0.28994,1.2055399999999998,0.96581784,-0.17919876,0.126037275
1764435440.1455538,-4.25754,0.28994,1.2055399999999998,0.96581784,-0.17919876,0.126037275
1764435440.1455538,-4.25754,0.28994,1.2055399999999998,0.96581784,-0.17919876,0.126037275
1764435440.1455538,-4.25754,0.28994,1.2055399999999998,0.96581784,-0.17919876,0.126037275
1764435440.1465237,-4.25754,0.28994,1.2055399999999998,0.96581784,-0.17919876,0.126037275
1764435440.1465237,-4.25754,0.28994,1.2055399999999998,0.96581784,-0.17919876,0.126037275
1764435440.1465237,-4.25754,0.28994,1.2055399999999998,0.96581784,-0.17919876,0.126037275
1764435440.1465237,-3.76922,0.1525999999999999,0.65618,0.966245085,-0.179503935,0.12634245
1764435440.1465237,-3.76922,0.1525999999999999,0.65618,0.966245085,-0.179503935,0.12634245
1764435440.1465237,-3.76922,0.1525999999999999,0.65618,0.966245085,-0.179503935,0.12634245
1764435440.1465237,-3.76922,0.1525999999999999,0.65618,0.966245085,-0.179503935,0.12634245
1764435440.1465237,-3.76922,0.1525999999999999,0.65618,0.966245085,-0.179503935,0.12634245
1764435440.1465237,-3.76922,0.1525999999999999,0.65618,0.966245085,-0.179503935,0.12634245
1764435440.1465237,-3.76922,0.1525999999999999,0.65618,0.966245085,-0.179503935,0.12634245
1764435440.1465237,-3.76922,0.1525999999999999,0.65618,0.966245085,-0.179503935,0.12634245
1764435440.1897645,-3.76922,0.1525999999999999,0.65618,0.966245085,-0.179503935,0.12634245
1764435440.1907144,-3.76922,0.1525999999999999,0.65618,0.966245085,-0.179503935,0.12634245
1764435440.1907144,-3.49454,1.17502,0.36624,0.965878875,-0.179626005,0.126769695
1764435440.1907144,-3.49454,1.17502,0.36624,0.965878875,-0.179626005,0.126769695
1764435440.191775,-3.49454,1.17502,0.36624,0.965878875,-0.179626005,0.126769695
1764435440.191775,-3.49454,1.17502,0.36624,0.965878875,-0.179626005,0.126769695
1764435440.191775,-3.49454,1.17502,0.36624,0.965878875,-0.179626005,0.126769695
1764435440.191775,-3.49454,1.17502,0.36624,0.965878875,-0.179626005,0.126769695
1764435440.191775,-3.49454,1.17502,0.36624,0.965878875,-0.179626005,0.126769695
1764435440.191775,-3.49454,1.17502,0.36624,0.965878875,-0.179626005,0.126769695
1764435440.191775,-3.49454,1.17502,0.36624,0.965878875,-0.179626005,0.126769695
1764435440.191775,-3.49454,1.17502,0.36624,0.965878875,-0.179626005,0.126769695
1764435440.191775,-4.0439,1.51074,0.04578,0.964353,-0.17907669,0.126281415
1764435440.191775,-4.0439,1.51074,0.04578,0.964353,-0.17907669,0.126281415
1764435440.191775,-4.0439,1.51074,0.04578,0.964353,-0.17907669,0.126281415
1764435440.191775,-4.0439,1.51074,0.04578,0.964353,-0.17907669,0.126281415
1764435440.191775,-4.0439,1.51074,0.04578,0.964353,-0.17907669,0.126281415
1764435440.191775,-4.0439,1.51074,0.04578,0.964353,-0.17907669,0.126281415
1764435440.191775,-4.0439,1.51074,0.04578,0.964353,-0.17907669,0.126281415
1764435440.191775,-4.0439,1.51074,0.04578,0.964353,-0.17907669,0.126281415
1764435440.191775,-4.0439,1.51074,0.04578,0.964353,-0.17907669,0.126281415
1764435440.191775,-4.0439,1.51074,0.04578,0.964353,-0.17907669,0.126281415
1764435440.191775,-4.07442,0.8698199999999999,0.1525999999999999,0.963803685,-0.177672885,0.125793135
1764435440.191775,-4.07442,0.8698199999999999,0.1525999999999999,0.963803685,-0.177672885,0.125793135
1764435440.2355692,-4.07442,0.8698199999999999,0.1525999999999999,0.963803685,-0.177672885,0.125793135
1764435440.2355692,-4.07442,0.8698199999999999,0.1525999999999999,0.963803685,-0.177672885,0.125793135
1764435440.2365773,-4.07442,0.8698199999999999,0.1525999999999999,0.963803685,-0.177672885,0.125793135
1764435440.2365773,-4.07442,0.8698199999999999,0.1525999999999999,0.963803685,-0.177672885,0.125793135
1764435440.2365773,-4.07442,0.8698199999999999,0.1525999999999999,0.963803685,-0.177672885,0.125793135
1764435440.2365773,-4.07442,0.8698199999999999,0.1525999999999999,0.963803685,-0.177672885,0.125793135
1764435440.2365773,-4.07442,0.8698199999999999,0.1525999999999999,0.963803685,-0.177672885,0.125793135
1764435440.2365773,-4.07442,0.8698199999999999,0.1525999999999999,0.963803685,-0.177672885,0.125793135
1764435440.2365773,-3.60136,0.7019599999999999,0.3204599999999999,0.964291965,-0.17797806,0.125671065
1764435440.2370908,-3.60136,0.7019599999999999,0.3204599999999999,0.964291965,-0.17797806,0.125671065
1764435440.2370908,-3.60136,0.7019599999999999,0.3204599999999999,0.964291965,-0.17797806,0.125671065
1764435440.2370908,-3.60136,0.7019599999999999,0.3204599999999999,0.964291965,-0.17797806,0.125671065
1764435440.2370908,-3.60136,0.7019599999999999,0.3204599999999999,0.964291965,-0.17797806,0.125671065
1764435440.2370908,-3.60136,0.7019599999999999,0.3204599999999999,0.964291965,-0.17797806,0.125671065
1764435440.2370908,-3.60136,0.7019599999999999,0.3204599999999999,0.964291965,-0.17797806,0.125671065
1764435440.2370908,-3.60136,0.7019599999999999,0.3204599999999999,0.964291965,-0.17797806,0.125671065
1764435440.2370908,-3.60136,0.7019599999999999,0.3204599999999999,0.964291965,-0.17797806,0.125671065
1764435440.2370908,-3.60136,0.7019599999999999,0.3204599999999999,0.964291965,-0.17797806,0.125671065
1764435440.2370908,-3.46402,1.34288,1.11398,0.964658175,-0.17871048,0.126403485
1764435440.2370908,-3.46402,1.34288,1.11398,0.964658175,-0.17871048,0.126403485
1764435440.2370908,-3.46402,1.34288,1.11398,0.964658175,-0.17871048,0.126403485
1764435440.2370908,-3.46402,1.34288,1.11398,0.964658175,-0.17871048,0.126403485
1764435440.2370908,-3.46402,1.34288,1.11398,0.964658175,-0.17871048,0.126403485
1764435440.2370908,-3.46402,1.34288,1.11398,0.964658175,-0.17871048,0.126403485
1764435440.2837746,-3.46402,1.34288,1.11398,0.964658175,-0.17871048,0.126403485
1764435440.2837746,-3.46402,1.34288,1.11398,0.964658175,-0.17871048,0.126403485
1764435440.2837746,-3.46402,1.34288,1.11398,0.964658175,-0.17871048,0.126403485
1764435440.2837746,-3.46402,1.34288,1.11398,0.964658175,-0.17871048,0.126403485
1764435440.2837746,-2.83836,1.28184,1.23606,0.96484128,-0.179748075,0.125915205
1764435440.285118,-2.83836,1.28184,1.23606,0.96484128,-0.179748075,0.125915205
1764435440.285118,-2.83836,1.28184,1.23606,0.96484128,-0.179748075,0.125915205
1764435440.285118,-2.83836,1.28184,1.23606,0.96484128,-0.179748075,0.125915205
1764435440.285118,-2.83836,1.28184,1.23606,0.96484128,-0.179748075,0.125915205
1764435440.285118,-2.83836,1.28184,1.23606,0.96484128,-0.179748075,0.125915205
1764435440.285118,-2.83836,1.28184,1.23606,0.96484128,-0.179748075,0.125915205
1764435440.285118,-2.83836,1.28184,1.23606,0.96484128,-0.179748075,0.125915205
1764435440.285118,-2.83836,1.28184,1.23606,0.96484128,-0.179748075,0.125915205
1764435440.285118,-2.83836,1.28184,1.23606,0.96484128,-0.179748075,0.125915205
1764435440.285118,-3.34194,1.02242,1.11398,0.965512665,-0.179748075,0.126159345
1764435440.285118,-3.34194,1.02242,1.11398,0.965512665,-0.179748075,0.126159345
1764435440.285118,-3.34194,1.02242,1.11398,0.965512665,-0.179748075,0.126159345
1764435440.285118,-3.34194,1.02242,1.11398,0.965512665,-0.179748075,0.126159345
1764435440.285118,-3.34194,1.02242,1.11398,0.965512665,-0.179748075,0.126159345
1764435440.285118,-3.34194,1.02242,1.11398,0.965512665,-0.179748075,0.126159345
1764435440.285118,-3.34194,1.02242,1.11398,0.965512665,-0.179748075,0.126159345
1764435440.285118,-3.34194,1.02242,1.11398,0.965512665,-0.179748075,0.126159345
1764435440.328097,-3.34194,1.02242,1.11398,0.965512665,-0.179748075,0.126159345
1764435440.328097,-3.34194,1.02242,1.11398,0.965512665,-0.179748075,0.126159345
1764435440.328097,-3.49454,0.54936,1.51074,0.966000945,-0.1794429,0.12597624
1764435440.328097,-3.49454,0.54936,1.51074,0.966000945,-0.1794429,0.12597624
1764435440.328097,-3.49454,0.54936,1.51074,0.966000945,-0.1794429,0.12597624
1764435440.328097,-3.49454,0.54936,1.51074,0.966000945,-0.1794429,0.12597624
1764435440.328097,-3.49454,0.54936,1.51074,0.966000945,-0.1794429,0.12597624
1764435440.328097,-3.49454,0.54936,1.51074,0.966000945,-0.1794429,0.12597624
1764435440.328097,-3.49454,0.54936,1.51074,0.966000945,-0.1794429,0.12597624
1764435440.328097,-3.49454,0.54936,1.51074,0.966000945,-0.1794429,0.12597624
1764435440.328097,-3.49454,0.54936,1.51074,0.966000945,-0.1794429,0.12597624
1764435440.328097,-3.49454,0.54936,1.51074,0.966000945,-0.1794429,0.12597624
1764435440.328097,-3.63188,1.1445,1.3734,0.967221645,-0.18029739,0.12622038
1764435440.328097,-3.63188,1.1445,1.3734,0.967221645,-0.18029739,0.12622038
1764435440.328097,-3.63188,1.1445,1.3734,0.967221645,-0.18029739,0.12622038
1764435440.328097,-3.63188,1.1445,1.3734,0.967221645,-0.18029739,0.12622038
1764435440.328097,-3.63188,1.1445,1.3734,0.967221645,-0.18029739,0.12622038
1764435440.328097,-3.63188,1.1445,1.3734,0.967221645,-0.18029739,0.12622038
1764435440.328097,-3.63188,1.1445,1.3734,0.967221645,-0.18029739,0.12622038
1764435440.328097,-3.63188,1.1445,1.3734,0.967221645,-0.18029739,0.12622038
1764435440.3296366,-3.63188,1.1445,1.3734,0.967221645,-0.18029739,0.12622038
1764435440.3296366,-3.63188,1.1445,1.3734,0.967221645,-0.18029739,0.12622038
1764435440.3296366,-3.34194,1.2971,1.46496,0.966733365,-0.18041946,0.12646452
1764435440.3296366,-3.34194,1.2971,1.46496,0.966733365,-0.18041946,0.12646452
1764435440.3744304,-3.34194,1.2971,1.46496,0.966733365,-0.18041946,0.12646452
1764435440.3744304,-3.34194,1.2971,1.46496,0.966733365,-0.18041946,0.12646452
1764435440.3744304,-3.34194,1.2971,1.46496,0.966733365,-0.18041946,0.12646452
1764435440.3744304,-3.34194,1.2971,1.46496,0.966733365,-0.18041946,0.12646452
1764435440.3744304,-3.34194,1.2971,1.46496,0.966733365,-0.18041946,0.12646452
1764435440.3744304,-3.34194,1.2971,1.46496,0.966733365,-0.18041946,0.12646452
1764435440.3744304,-3.34194,1.2971,1.46496,0.966733365,-0.18041946,0.12646452
1764435440.3744304,-3.34194,1.2971,1.46496,0.966733365,-0.18041946,0.12646452
1764435440.3744304,-3.72344,1.34288,1.11398,0.9655737,-0.179626005,0.126037275
1764435440.3744304,-3.72344,1.34288,1.11398,0.9655737,-0.179626005,0.126037275
1764435440.376196,-3.72344,1.34288,1.11398,0.9655737,-0.179626005,0.126037275
1764435440.377212,-3.72344,1.34288,1.11398,0.9655737,-0.179626005,0.126037275
1764435440.377212,-3.72344,1.34288,1.11398,0.9655737,-0.179626005,0.126037275
1764435440.377212,-3.72344,1.34288,1.11398,0.9655737,-0.179626005,0.126037275
1764435440.377212,-3.72344,1.34288,1.11398,0.9655737,-0.179626005,0.126037275
1764435440.377212,-3.72344,1.34288,1.11398,0.9655737,-0.179626005,0.126037275
1764435440.3782136,-3.72344,1.34288,1.11398,0.9655737,-0.179626005,0.126037275
1764435440.3782136,-3.72344,1.34288,1.11398,0.9655737,-0.179626005,0.126037275
1764435440.3782136,-3.86078,1.1445,0.36624,0.96508542,-0.18054153,0.125915205
1764435440.3782136,-3.86078,1.1445,0.36624,0.96508542,-0.18054153,0.125915205
1764435440.3782136,-3.86078,1.1445,0.36624,0.96508542,-0.18054153,0.125915205
1764435440.3792064,-3.86078,1.1445,0.36624,0.96508542,-0.18054153,0.125915205
1764435440.4236178,-3.86078,1.1445,0.36624,0.96508542,-0.18054153,0.125915205
1764435440.4236178,-3.86078,1.1445,0.36624,0.96508542,-0.18054153,0.125915205
1764435440.4236178,-3.86078,1.1445,0.36624,0.96508542,-0.18054153,0.125915205
1764435440.4236178,-3.86078,1.1445,0.36624,0.96508542,-0.18054153,0.125915205
1764435440.4236178,-3.86078,1.1445,0.36624,0.96508542,-0.18054153,0.125915205
1764435440.4236178,-3.86078,1.1445,0.36624,0.96508542,-0.18054153,0.125915205
1764435440.4236178,-3.40298,1.25132,0.42728,0.96496335,-0.18151809,0.12634245
1764435440.4236178,-3.40298,1.25132,0.42728,0.96496335,-0.18151809,0.12634245
1764435440.4236178,-3.40298,1.25132,0.42728,0.96496335,-0.18151809,0.12634245
1764435440.4236178,-3.40298,1.25132,0.42728,0.96496335,-0.18151809,0.12634245
1764435440.4236178,-3.40298,1.25132,0.42728,0.96496335,-0.18151809,0.12634245
1764435440.4246242,-3.40298,1.25132,0.42728,0.96496335,-0.18151809,0.12634245
1764435440.4246242,-3.40298,1.25132,0.42728,0.96496335,-0.18151809,0.12634245
1764435440.4246242,-3.40298,1.25132,0.42728,0.96496335,-0.18151809,0.12634245
1764435440.4246242,-3.40298,1.25132,0.42728,0.96496335,-0.18151809,0.12634245
1764435440.4246242,-3.40298,1.25132,0.42728,0.96496335,-0.18151809,0.12634245
1764435440.4246242,-3.4335,1.08346,0.10682,0.963925755,-0.1806636,0.126281415
1764435440.4246242,-3.4335,1.08346,0.10682,0.963925755,-0.1806636,0.126281415
1764435440.4246242,-3.4335,1.08346,0.10682,0.963925755,-0.1806636,0.126281415
1764435440.4246242,-3.4335,1.08346,0.10682,0.963925755,-0.1806636,0.126281415
1764435440.4246242,-3.4335,1.08346,0.10682,0.963925755,-0.1806636,0.126281415
1764435440.4246242,-3.4335,1.08346,0.10682,0.963925755,-0.1806636,0.126281415
1764435440.4246242,-3.4335,1.08346,0.10682,0.963925755,-0.1806636,0.126281415
1764435440.4246242,-3.4335,1.08346,0.10682,0.963925755,-0.1806636,0.126281415
1764435440.46885,-3.4335,1.08346,0.10682,0.963925755,-0.1806636,0.126281415
1764435440.46885,-3.4335,1.08346,0.10682,0.963925755,-0.1806636,0.126281415
1764435440.46885,-3.2809,1.32762,0.01526,0.963803685,-0.18017532,0.12683073
1764435440.46885,-3.2809,1.32762,0.01526,0.963803685,-0.18017532,0.12683073
1764435440.46885,-3.2809,1.32762,0.01526,0.963803685,-0.18017532,0.12683073
1764435440.46885,-3.2809,1.32762,0.01526,0.963803685,-0.18017532,0.12683073
1764435440.46885,-3.2809,1.32762,0.01526,0.963803685,-0.18017532,0.12683073
1764435440.46885,-3.2809,1.32762,0.01526,0.963803685,-0.18017532,0.12683073
1764435440.4698596,-3.2809,1.32762,0.01526,0.963803685,-0.18017532,0.12683073
1764435440.4698596,-3.2809,1.32762,0.01526,0.963803685,-0.18017532,0.12683073
1764435440.4698596,-3.2809,1.32762,0.01526,0.963803685,-0.18017532,0.12683073
1764435440.4698596,-3.2809,1.32762,0.01526,0.963803685,-0.18017532,0.12683073
1764435440.4698596,-3.79974,0.96138,-0.5341,0.963193335,-0.179503935,0.12670866
1764435440.4698596,-3.79974,0.96138,-0.5341,0.963193335,-0.179503935,0.12670866
1764435440.4698596,-3.79974,0.96138,-0.5341,0.963193335,-0.179503935,0.12670866
1764435440.4708607,-3.79974,0.96138,-0.5341,0.963193335,-0.179503935,0.12670866
1764435440.4708607,-3.79974,0.96138,-0.5341,0.963193335,-0.179503935,0.12670866
1764435440.4708607,-3.79974,0.96138,-0.5341,0.963193335,-0.179503935,0.12670866
1764435440.4708607,-3.79974,0.96138,-0.5341,0.963193335,-0.179503935,0.12670866
1764435440.4708607,-3.79974,0.96138,-0.5341,0.963193335,-0.179503935,0.12670866
1764435440.4720657,-3.79974,0.96138,-0.5341,0.963193335,-0.179503935,0.12670866
1764435440.4720657,-3.79974,0.96138,-0.5341,0.963193335,-0.179503935,0.12670866
1764435440.4720657,-3.47928,0.3357199999999999,-0.2289,0.964353,-0.1782222,0.126647625
1764435440.4730637,-3.47928,0.3357199999999999,-0.2289,0.964353,-0.1782222,0.126647625
1764435440.5160005,-3.47928,0.3357199999999999,-0.2289,0.964353,-0.1782222,0.126647625
1764435440.5165129,-3.47928,0.3357199999999999,-0.2289,0.964353,-0.1782222,0.126647625
1764435440.5165129,-3.47928,0.3357199999999999,-0.2289,0.964353,-0.1782222,0.126647625
1764435440.5165129,-3.47928,0.3357199999999999,-0.2289,0.964353,-0.1782222,0.126647625
1764435440.5165129,-3.47928,0.3357199999999999,-0.2289,0.964353,-0.1782222,0.126647625
1764435440.5165129,-3.47928,0.3357199999999999,-0.2289,0.964353,-0.1782222,0.126647625
1764435440.5165129,-3.47928,0.3357199999999999,-0.2289,0.964353,-0.1782222,0.126647625
1764435440.5165129,-3.47928,0.3357199999999999,-0.2289,0.964353,-0.1782222,0.126647625
1764435440.5165129,-4.01338,0.42728,0.2289,0.965024385,-0.177672885,0.12597624
1764435440.5165129,-4.01338,0.42728,0.2289,0.965024385,-0.177672885,0.12597624
1764435440.5165129,-4.01338,0.42728,0.2289,0.965024385,-0.177672885,0.12597624
1764435440.5165129,-4.01338,0.42728,0.2289,0.965024385,-0.177672885,0.12597624
1764435440.5165129,-4.01338,0.42728,0.2289,0.965024385,-0.177672885,0.12597624
1764435440.5165129,-4.01338,0.42728,0.2289,0.965024385,-0.177672885,0.12597624
1764435440.5165129,-4.01338,0.42728,0.2289,0.965024385,-0.177672885,0.12597624
1764435440.5165129,-4.01338,0.42728,0.2289,0.965024385,-0.177672885,0.12597624
1764435440.5165129,-4.01338,0.42728,0.2289,0.965024385,-0.177672885,0.12597624
1764435440.5165129,-4.01338,0.42728,0.2289,0.965024385,-0.177672885,0.12597624
1764435440.5165129,-4.3491,0.50358,0.3509799999999999,0.965512665,-0.177550815,0.126281415
1764435440.5165129,-4.3491,0.50358,0.3509799999999999,0.965512665,-0.177550815,0.126281415
1764435440.5165129,-4.3491,0.50358,0.3509799999999999,0.965512665,-0.177550815,0.126281415
1764435440.517526,-4.3491,0.50358,0.3509799999999999,0.965512665,-0.177550815,0.126281415
1764435440.517526,-4.3491,0.50358,0.3509799999999999,0.965512665,-0.177550815,0.126281415
1764435440.517526,-4.3491,0.50358,0.3509799999999999,0.965512665,-0.177550815,0.126281415
1764435440.5659685,-4.3491,0.50358,0.3509799999999999,0.965512665,-0.177550815,0.126281415
1764435440.5659685,-4.3491,0.50358,0.3509799999999999,0.965512665,-0.177550815,0.126281415
1764435440.5659685,-4.3491,0.50358,0.3509799999999999,0.965512665,-0.177550815,0.126281415
1764435440.5659685,-4.3491,0.50358,0.3509799999999999,0.965512665,-0.177550815,0.126281415
1764435440.5659685,-4.37962,0.48832,0.39676,0.96593991,-0.17687943,0.12585417
1764435440.5659685,-4.37962,0.48832,0.39676,0.96593991,-0.17687943,0.12585417
1764435440.5659685,-4.37962,0.48832,0.39676,0.96593991,-0.17687943,0.12585417
1764435440.5659685,-4.37962,0.48832,0.39676,0.96593991,-0.17687943,0.12585417
1764435440.5659685,-4.37962,0.48832,0.39676,0.96593991,-0.17687943,0.12585417
1764435440.5659685,-4.37962,0.48832,0.39676,0.96593991,-0.17687943,0.12585417
1764435440.5659685,-4.37962,0.48832,0.39676,0.96593991,-0.17687943,0.12585417
1764435440.5659685,-4.37962,0.48832,0.39676,0.96593991,-0.17687943,0.12585417
1764435440.5659685,-4.37962,0.48832,0.39676,0.96593991,-0.17687943,0.12585417
1764435440.5659685,-4.37962,0.48832,0.39676,0.96593991,-0.17687943,0.12585417
1764435440.5659685,-4.53222,0.48832,0.73248,0.96593991,-0.17663529,0.12609831
1764435440.5659685,-4.53222,0.48832,0.73248,0.96593991,-0.17663529,0.12609831
1764435440.5659685,-4.53222,0.48832,0.73248,0.96593991,-0.17663529,0.12609831
1764435440.5659685,-4.53222,0.48832,0.73248,0.96593991,-0.17663529,0.12609831
1764435440.5659685,-4.53222,0.48832,0.73248,0.96593991,-0.17663529,0.12609831
1764435440.5659685,-4.53222,0.48832,0.73248,0.96593991,-0.17663529,0.12609831
1764435440.5659685,-4.53222,0.48832,0.73248,0.96593991,-0.17663529,0.12609831
1764435440.5659685,-4.53222,0.48832,0.73248,0.96593991,-0.17663529,0.12609831
1764435440.6091883,-4.53222,0.48832,0.73248,0.96593991,-0.17663529,0.12609831
1764435440.6091883,-4.53222,0.48832,0.73248,0.96593991,-0.17663529,0.12609831
1764435440.6091883,-4.77638,1.19028,0.6103999999999999,0.966000945,-0.17663529,0.126281415
1764435440.610575,-4.77638,1.19028,0.6103999999999999,0.966000945,-0.17663529,0.126281415
1764435440.610575,-4.77638,1.19028,0.6103999999999999,0.966000945,-0.17663529,0.126281415
1764435440.611586,-4.77638,1.19028,0.6103999999999999,0.966000945,-0.17663529,0.126281415
1764435440.611586,-4.77638,1.19028,0.6103999999999999,0.966000945,-0.17663529,0.126281415
1764435440.611586,-4.77638,1.19028,0.6103999999999999,0.966000945,-0.17663529,0.126281415
1764435440.611586,-4.77638,1.19028,0.6103999999999999,0.966000945,-0.17663529,0.126281415
1764435440.611586,-4.77638,1.19028,0.6103999999999999,0.966000945,-0.17663529,0.126281415
1764435440.611586,-4.77638,1.19028,0.6103999999999999,0.966000945,-0.17663529,0.126281415
1764435440.6125906,-4.77638,1.19028,0.6103999999999999,0.966000945,-0.17663529,0.126281415
1764435440.6125906,-4.10494,0.93086,1.2208,0.965634735,-0.17773392,0.12622038
1764435440.6125906,-4.10494,0.93086,1.2208,0.965634735,-0.17773392,0.12622038
1764435440.6125906,-4.10494,0.93086,1.2208,0.965634735,-0.17773392,0.12622038
1764435440.6125906,-4.10494,0.93086,1.2208,0.965634735,-0.17773392,0.12622038
1764435440.613587,-4.10494,0.93086,1.2208,0.965634735,-0.17773392,0.12622038
1764435440.613587,-4.10494,0.93086,1.2208,0.965634735,-0.17773392,0.12622038
1764435440.613587,-4.10494,0.93086,1.2208,0.965634735,-0.17773392,0.12622038
1764435440.613587,-4.10494,0.93086,1.2208,0.965634735,-0.17773392,0.12622038
1764435440.613587,-4.10494,0.93086,1.2208,0.965634735,-0.17773392,0.12622038
1764435440.613587,-4.10494,0.93086,1.2208,0.965634735,-0.17773392,0.12622038
1764435440.613587,-3.11304,0.93086,1.57178,0.964902315,-0.178893585,0.126037275
1764435440.6145854,-3.11304,0.93086,1.57178,0.964902315,-0.178893585,0.126037275
1764435440.6538064,-3.11304,0.93086,1.57178,0.964902315,-0.178893585,0.126037275
1764435440.6543202,-3.11304,0.93086,1.57178,0.964902315,-0.178893585,0.126037275
1764435440.6543202,-3.11304,0.93086,1.57178,0.964902315,-0.178893585,0.126037275
1764435440.6543202,-3.11304,0.93086,1.57178,0.964902315,-0.178893585,0.126037275
1764435440.6543202,-3.11304,0.93086,1.57178,0.964902315,-0.178893585,0.126037275
1764435440.6543202,-3.11304,0.93086,1.57178,0.964902315,-0.178893585,0.126037275
1764435440.6543202,-3.11304,0.93086,1.57178,0.964902315,-0.178893585,0.126037275
1764435440.6543202,-3.11304,0.93086,1.57178,0.964902315,-0.178893585,0.126037275
1764435440.6543202,-3.18934,0.763,1.41918,0.964414035,-0.180114285,0.12512175
1764435440.6543202,-3.18934,0.763,1.41918,0.964414035,-0.180114285,0.12512175
1764435440.6543202,-3.18934,0.763,1.41918,0.964414035,-0.180114285,0.12512175
1764435440.6543202,-3.18934,0.763,1.41918,0.964414035,-0.180114285,0.12512175
1764435440.6543202,-3.18934,0.763,1.41918,0.964414035,-0.180114285,0.12512175
1764435440.6543202,-3.18934,0.763,1.41918,0.964414035,-0.180114285,0.12512175
1764435440.6553392,-3.18934,0.763,1.41918,0.964414035,-0.180114285,0.12512175
1764435440.6553392,-3.18934,0.763,1.41918,0.964414035,-0.180114285,0.12512175
1764435440.6553392,-3.18934,0.763,1.41918,0.964414035,-0.180114285,0.12512175
1764435440.6553392,-3.18934,0.763,1.41918,0.964414035,-0.180114285,0.12512175
1764435440.6553392,-2.91466,0.65618,1.11398,0.963437475,-0.180114285,0.12499968
1764435440.6553392,-2.91466,0.65618,1.11398,0.963437475,-0.180114285,0.12499968
1764435440.6553392,-2.91466,0.65618,1.11398,0.963437475,-0.180114285,0.12499968
1764435440.6558852,-2.91466,0.65618,1.11398,0.963437475,-0.180114285,0.12499968
1764435440.7025878,-2.91466,0.65618,1.11398,0.963437475,-0.180114285,0.12499968
1764435440.7025878,-2.91466,0.65618,1.11398,0.963437475,-0.180114285,0.12499968
1764435440.7025878,-2.91466,0.65618,1.11398,0.963437475,-0.180114285,0.12499968
1764435440.7025878,-2.91466,0.65618,1.11398,0.963437475,-0.180114285,0.12499968
1764435440.7025878,-2.91466,0.65618,1.11398,0.963437475,-0.180114285,0.12499968
1764435440.7025878,-2.91466,0.65618,1.11398,0.963437475,-0.180114285,0.12499968
1764435440.7025878,-3.02148,0.6867,0.93086,0.963803685,-0.18005325,0.124694505
1764435440.7025878,-3.02148,0.6867,0.93086,0.963803685,-0.18005325,0.124694505
1764435440.7025878,-3.02148,0.6867,0.93086,0.963803685,-0.18005325,0.124694505
1764435440.7025878,-3.02148,0.6867,0.93086,0.963803685,-0.18005325,0.124694505
1764435440.7025878,-3.02148,0.6867,0.93086,0.963803685,-0.18005325,0.124694505
1764435440.7025878,-3.02148,0.6867,0.93086,0.963803685,-0.18005325,0.124694505
1764435440.7025878,-3.02148,0.6867,0.93086,0.963803685,-0.18005325,0.124694505
1764435440.7025878,-3.02148,0.6867,0.93086,0.963803685,-0.18005325,0.124694505
1764435440.7025878,-3.02148,0.6867,0.93086,0.963803685,-0.18005325,0.124694505
1764435440.7025878,-3.02148,0.6867,0.93086,0.963803685,-0.18005325,0.124694505
1764435440.7025878,-3.14356,1.32762,0.21364,0.964658175,-0.179870145,0.125182785
1764435440.7025878,-3.14356,1.32762,0.21364,0.964658175,-0.179870145,0.125182785
1764435440.7025878,-3.14356,1.32762,0.21364,0.964658175,-0.179870145,0.125182785
1764435440.7025878,-3.14356,1.32762,0.21364,0.964658175,-0.179870145,0.125182785
1764435440.7025878,-3.14356,1.32762,0.21364,0.964658175,-0.179870145,0.125182785
1764435440.7025878,-3.14356,1.32762,0.21364,0.964658175,-0.179870145,0.125182785
1764435440.7025878,-3.14356,1.32762,0.21364,0.964658175,-0.179870145,0.125182785
1764435440.7025878,-3.14356,1.32762,0.21364,0.964658175,-0.179870145,0.125182785
1764435440.750929,-3.14356,1.32762,0.21364,0.964658175,-0.179870145,0.125182785
1764435440.750929,-3.14356,1.32762,0.21364,0.964658175,-0.179870145,0.125182785
1764435440.750929,-3.49454,1.15976,0.3204599999999999,0.964902315,-0.17907669,0.12475554
1764435440.750929,-3.49454,1.15976,0.3204599999999999,0.964902315,-0.17907669,0.12475554
1764435440.750929,-3.49454,1.15976,0.3204599999999999,0.964902315,-0.17907669,0.12475554
1764435440.750929,-3.49454,1.15976,0.3204599999999999,0.964902315,-0.17907669,0.12475554
1764435440.750929,-3.49454,1.15976,0.3204599999999999,0.964902315,-0.17907669,0.12475554
1764435440.750929,-3.49454,1.15976,0.3204599999999999,0.964902315,-0.17907669,0.12475554
1764435440.750929,-3.49454,1.15976,0.3204599999999999,0.964902315,-0.17907669,0.12475554
1764435440.750929,-3.49454,1.15976,0.3204599999999999,0.964902315,-0.17907669,0.12475554
1764435440.750929,-3.49454,1.15976,0.3204599999999999,0.964902315,-0.17907669,0.12475554
1764435440.750929,-3.49454,1.15976,0.3204599999999999,0.964902315,-0.17907669,0.12475554
1764435440.7519422,-4.059159999999999,1.7549,0.56462,0.96496335,-0.178649445,0.12463347
1764435440.7519422,-4.059159999999999,1.7549,0.56462,0.96496335,-0.178649445,0.12463347
1764435440.7519422,-4.059159999999999,1.7549,0.56462,0.96496335,-0.178649445,0.12463347
1764435440.7519422,-4.059159999999999,1.7549,0.56462,0.96496335,-0.178649445,0.12463347
1764435440.7519422,-4.059159999999999,1.7549,0.56462,0.96496335,-0.178649445,0.12463347
1764435440.7519422,-4.059159999999999,1.7549,0.56462,0.96496335,-0.178649445,0.12463347
1764435440.7519422,-4.059159999999999,1.7549,0.56462,0.96496335,-0.178649445,0.12463347
1764435440.7519422,-4.059159999999999,1.7549,0.56462,0.96496335,-0.178649445,0.12463347
1764435440.7519422,-4.059159999999999,1.7549,0.56462,0.96496335,-0.178649445,0.12463347
1764435440.7519422,-4.059159999999999,1.7549,0.56462,0.96496335,-0.178649445,0.12463347
1764435440.7519422,-3.64714,1.8006799999999998,0.82404,0.96569577,-0.17932083,0.12512175
1764435440.7519422,-3.64714,1.8006799999999998,0.82404,0.96569577,-0.17932083,0.12512175
1764435440.796316,-3.64714,1.8006799999999998,0.82404,0.96569577,-0.17932083,0.12512175
1764435440.796316,-3.64714,1.8006799999999998,0.82404,0.96569577,-0.17932083,0.12512175
1764435440.796316,-3.64714,1.8006799999999998,0.82404,0.96569577,-0.17932083,0.12512175
1764435440.796316,-3.64714,1.8006799999999998,0.82404,0.96569577,-0.17932083,0.12512175
1764435440.796316,-3.64714,1.8006799999999998,0.82404,0.96569577,-0.17932083,0.12512175
1764435440.796316,-3.64714,1.8006799999999998,0.82404,0.96569577,-0.17932083,0.12512175
1764435440.796316,-3.64714,1.8006799999999998,0.82404,0.96569577,-0.17932083,0.12512175
1764435440.796316,-3.64714,1.8006799999999998,0.82404,0.96569577,-0.17932083,0.12512175
1764435440.796316,-3.84552,1.63282,0.71722,0.965268525,-0.18005325,0.125182785
1764435440.796316,-3.84552,1.63282,0.71722,0.965268525,-0.18005325,0.125182785
1764435440.797202,-3.84552,1.63282,0.71722,0.965268525,-0.18005325,0.125182785
1764435440.797202,-3.84552,1.63282,0.71722,0.965268525,-0.18005325,0.125182785
1764435440.797202,-3.84552,1.63282,0.71722,0.965268525,-0.18005325,0.125182785
1764435440.797202,-3.84552,1.63282,0.71722,0.965268525,-0.18005325,0.125182785
1764435440.797202,-3.84552,1.63282,0.71722,0.965268525,-0.18005325,0.125182785
1764435440.797202,-3.84552,1.63282,0.71722,0.965268525,-0.18005325,0.125182785
1764435440.797202,-3.84552,1.63282,0.71722,0.965268525,-0.18005325,0.125182785
1764435440.797202,-3.84552,1.63282,0.71722,0.965268525,-0.18005325,0.125182785
1764435440.797202,-3.23512,1.73964,0.8087799999999999,0.96520749,-0.18115188,0.12597624
1764435440.797202,-3.23512,1.73964,0.8087799999999999,0.96520749,-0.18115188,0.12597624
1764435440.797202,-3.23512,1.73964,0.8087799999999999,0.96520749,-0.18115188,0.12597624
1764435440.797202,-3.23512,1.73964,0.8087799999999999,0.96520749,-0.18115188,0.12597624
1764435440.842519,-3.23512,1.73964,0.8087799999999999,0.96520749,-0.18115188,0.12597624
1764435440.842519,-3.23512,1.73964,0.8087799999999999,0.96520749,-0.18115188,0.12597624
1764435440.842519,-3.23512,1.73964,0.8087799999999999,0.96520749,-0.18115188,0.12597624
1764435440.842519,-3.23512,1.73964,0.8087799999999999,0.96520749,-0.18115188,0.12597624
1764435440.842519,-3.23512,1.73964,0.8087799999999999,0.96520749,-0.18115188,0.12597624
1764435440.8435175,-3.23512,1.73964,0.8087799999999999,0.96520749,-0.18115188,0.12597624
1764435440.8435175,-3.61662,0.03052,0.57988,0.963437475,-0.181212915,0.125793135
1764435440.8435175,-3.61662,0.03052,0.57988,0.963437475,-0.181212915,0.125793135
1764435440.8435175,-3.61662,0.03052,0.57988,0.963437475,-0.181212915,0.125793135
1764435440.8435175,-3.61662,0.03052,0.57988,0.963437475,-0.181212915,0.125793135
1764435440.8435175,-3.61662,0.03052,0.57988,0.963437475,-0.181212915,0.125793135
1764435440.8435175,-3.61662,0.03052,0.57988,0.963437475,-0.181212915,0.125793135
1764435440.8435175,-3.61662,0.03052,0.57988,0.963437475,-0.181212915,0.125793135
1764435440.844518,-3.61662,0.03052,0.57988,0.963437475,-0.181212915,0.125793135
1764435440.844518,-3.61662,0.03052,0.57988,0.963437475,-0.181212915,0.125793135
1764435440.844518,-3.61662,0.03052,0.57988,0.963437475,-0.181212915,0.125793135
1764435440.844518,-3.9676,-0.03052,0.3357199999999999,0.96508542,-0.180236355,0.125060715
1764435440.844518,-3.9676,-0.03052,0.3357199999999999,0.96508542,-0.180236355,0.125060715
1764435440.844518,-3.9676,-0.03052,0.3357199999999999,0.96508542,-0.180236355,0.125060715
1764435440.844518,-3.9676,-0.03052,0.3357199999999999,0.96508542,-0.180236355,0.125060715
1764435440.844518,-3.9676,-0.03052,0.3357199999999999,0.96508542,-0.180236355,0.125060715
1764435440.844518,-3.9676,-0.03052,0.3357199999999999,0.96508542,-0.180236355,0.125060715
1764435440.8890362,-3.9676,-0.03052,0.3357199999999999,0.96508542,-0.180236355,0.125060715
1764435440.8890362,-3.9676,-0.03052,0.3357199999999999,0.96508542,-0.180236355,0.125060715
1764435440.8890362,-3.9676,-0.03052,0.3357199999999999,0.96508542,-0.180236355,0.125060715
1764435440.8890362,-3.9676,-0.03052,0.3357199999999999,0.96508542,-0.180236355,0.125060715
1764435440.8890362,-3.47928,0.56462,0.03052,0.96581784,-0.17956497,0.125304855
1764435440.890033,-3.47928,0.56462,0.03052,0.96581784,-0.17956497,0.125304855
1764435440.890033,-3.47928,0.56462,0.03052,0.96581784,-0.17956497,0.125304855
1764435440.890033,-3.47928,0.56462,0.03052,0.96581784,-0.17956497,0.125304855
1764435440.890033,-3.47928,0.56462,0.03052,0.96581784,-0.17956497,0.125304855
1764435440.890033,-3.47928,0.56462,0.03052,0.96581784,-0.17956497,0.125304855
1764435440.890033,-3.47928,0.56462,0.03052,0.96581784,-0.17956497,0.125304855
1764435440.890033,-3.47928,0.56462,0.03052,0.96581784,-0.17956497,0.125304855
1764435440.890033,-3.47928,0.56462,0.03052,0.96581784,-0.17956497,0.125304855
1764435440.890033,-3.47928,0.56462,0.03052,0.96581784,-0.17956497,0.125304855
1764435440.890033,-3.55558,0.74774,0.1678599999999999,0.96569577,-0.17810013,0.124938645
1764435440.890033,-3.55558,0.74774,0.1678599999999999,0.96569577,-0.17810013,0.124938645
1764435440.890033,-3.55558,0.74774,0.1678599999999999,0.96569577,-0.17810013,0.124938645
1764435440.890033,-3.55558,0.74774,0.1678599999999999,0.96569577,-0.17810013,0.124938645
1764435440.890033,-3.55558,0.74774,0.1678599999999999,0.96569577,-0.17810013,0.124938645
1764435440.890033,-3.55558,0.74774,0.1678599999999999,0.96569577,-0.17810013,0.124938645
1764435440.890033,-3.55558,0.74774,0.1678599999999999,0.96569577,-0.17810013,0.124938645
1764435440.890033,-3.55558,0.74774,0.1678599999999999,0.96569577,-0.17810013,0.124938645
1764435440.890033,-3.55558,0.74774,0.1678599999999999,0.96569577,-0.17810013,0.124938645
1764435440.890033,-3.55558,0.74774,0.1678599999999999,0.96569577,-0.17810013,0.124938645
1764435440.933251,-4.22702,1.0682,-0.3815,0.96459714,-0.176330115,0.12499968
1764435440.933251,-4.22702,1.0682,-0.3815,0.96459714,-0.176330115,0.12499968
1764435440.933251,-4.22702,1.0682,-0.3815,0.96459714,-0.176330115,0.12499968
1764435440.933251,-4.22702,1.0682,-0.3815,0.96459714,-0.176330115,0.12499968
1764435440.933251,-4.22702,1.0682,-0.3815,0.96459714,-0.176330115,0.12499968
1764435440.933251,-4.22702,1.0682,-0.3815,0.96459714,-0.176330115,0.12499968
1764435440.933251,-4.22702,1.0682,-0.3815,0.96459714,-0.176330115,0.12499968
1764435440.933251,-4.22702,1.0682,-0.3815,0.96459714,-0.176330115,0.12499968
1764435440.933251,-4.22702,1.0682,-0.3815,0.96459714,-0.176330115,0.12499968
1764435440.933251,-4.22702,1.0682,-0.3815,0.96459714,-0.176330115,0.12499968
1764435440.933251,-4.25754,0.88508,0.09156,0.964291965,-0.175841835,0.12475554
1764435440.933251,-4.25754,0.88508,0.09156,0.964291965,-0.175841835,0.12475554
1764435440.933251,-4.25754,0.88508,0.09156,0.964291965,-0.175841835,0.12475554
1764435440.933251,-4.25754,0.88508,0.09156,0.964291965,-0.175841835,0.12475554
1764435440.933251,-4.25754,0.88508,0.09156,0.964291965,-0.175841835,0.12475554
1764435440.933251,-4.25754,0.88508,0.09156,0.964291965,-0.175841835,0.12475554
1764435440.933251,-4.25754,0.88508,0.09156,0.964291965,-0.175841835,0.12475554
1764435440.933251,-4.25754,0.88508,0.09156,0.964291965,-0.175841835,0.12475554
1764435440.933251,-4.25754,0.88508,0.09156,0.964291965,-0.175841835,0.12475554
1764435440.933251,-4.25754,0.88508,0.09156,0.964291965,-0.175841835,0.12475554
1764435440.933251,-4.440659999999999,1.3734,0.42728,0.963437475,-0.17687943,0.126037275
1764435440.933251,-4.440659999999999,1.3734,0.42728,0.963437475,-0.17687943,0.126037275
1764435440.976957,-4.440659999999999,1.3734,0.42728,0.963437475,-0.17687943,0.126037275
1764435440.976957,-4.440659999999999,1.3734,0.42728,0.963437475,-0.17687943,0.126037275
1764435440.976957,-4.440659999999999,1.3734,0.42728,0.963437475,-0.17687943,0.126037275
1764435440.976957,-4.440659999999999,1.3734,0.42728,0.963437475,-0.17687943,0.126037275
1764435440.976957,-4.440659999999999,1.3734,0.42728,0.963437475,-0.17687943,0.126037275
1764435440.976957,-4.440659999999999,1.3734,0.42728,0.963437475,-0.17687943,0.126037275
1764435440.976957,-4.440659999999999,1.3734,0.42728,0.963437475,-0.17687943,0.126037275
1764435440.978501,-4.440659999999999,1.3734,0.42728,0.963437475,-0.17687943,0.126037275
1764435440.978501,-3.57084,0.88508,0.54936,0.964414035,-0.177550815,0.126281415
1764435440.978501,-3.57084,0.88508,0.54936,0.964414035,-0.177550815,0.126281415
1764435440.978501,-3.57084,0.88508,0.54936,0.964414035,-0.177550815,0.126281415
1764435440.978501,-3.57084,0.88508,0.54936,0.964414035,-0.177550815,0.126281415
1764435440.9805148,-3.57084,0.88508,0.54936,0.964414035,-0.177550815,0.126281415
1764435440.9805148,-3.57084,0.88508,0.54936,0.964414035,-0.177550815,0.126281415
1764435440.9805148,-3.57084,0.88508,0.54936,0.964414035,-0.177550815,0.126281415
1764435440.9805148,-3.57084,0.88508,0.54936,0.964414035,-0.177550815,0.126281415
1764435440.9805148,-3.57084,0.88508,0.54936,0.964414035,-0.177550815,0.126281415
1764435440.981516,-3.57084,0.88508,0.54936,0.964414035,-0.177550815,0.126281415
1764435440.981516,-3.03674,0.8698199999999999,0.7019599999999999,0.9655737,-0.17871048,0.1269528
1764435440.981516,-3.03674,0.8698199999999999,0.7019599999999999,0.9655737,-0.17871048,0.1269528
1764435440.981516,-3.03674,0.8698199999999999,0.7019599999999999,0.9655737,-0.17871048,0.1269528
1764435440.981516,-3.03674,0.8698199999999999,0.7019599999999999,0.9655737,-0.17871048,0.1269528
1764435441.0246289,-3.03674,0.8698199999999999,0.7019599999999999,0.9655737,-0.17871048,0.1269528
1764435441.0246289,-3.03674,0.8698199999999999,0.7019599999999999,0.9655737,-0.17871048,0.1269528
1764435441.0246289,-3.03674,0.8698199999999999,0.7019599999999999,0.9655737,-0.17871048,0.1269528
1764435441.0246289,-3.03674,0.8698199999999999,0.7019599999999999,0.9655737,-0.17871048,0.1269528
1764435441.0246289,-3.03674,0.8698199999999999,0.7019599999999999,0.9655737,-0.17871048,0.1269528
1764435441.0246289,-3.03674,0.8698199999999999,0.7019599999999999,0.9655737,-0.17871048,0.1269528
1764435441.0246289,-3.26564,0.47306,1.46496,0.966123015,-0.179137725,0.12683073
1764435441.0246289,-3.26564,0.47306,1.46496,0.966123015,-0.179137725,0.12683073
1764435441.0246289,-3.26564,0.47306,1.46496,0.966123015,-0.179137725,0.12683073
1764435441.0246289,-3.26564,0.47306,1.46496,0.966123015,-0.179137725,0.12683073
1764435441.0246289,-3.26564,0.47306,1.46496,0.966123015,-0.179137725,0.12683073
1764435441.0246289,-3.26564,0.47306,1.46496,0.966123015,-0.179137725,0.12683073
1764435441.0246289,-3.26564,0.47306,1.46496,0.966123015,-0.179137725,0.12683073
1764435441.0246289,-3.26564,0.47306,1.46496,0.966123015,-0.179137725,0.12683073
1764435441.0246289,-3.26564,0.47306,1.46496,0.966123015,-0.179137725,0.12683073
1764435441.0246289,-3.26564,0.47306,1.46496,0.966123015,-0.179137725,0.12683073
1764435441.0246289,-3.4335,0.21364,1.49548,0.966367155,-0.179259795,0.1257321
1764435441.0271757,-3.4335,0.21364,1.49548,0.966367155,-0.179259795,0.1257321
1764435441.0271757,-3.4335,0.21364,1.49548,0.966367155,-0.179259795,0.1257321
1764435441.0271757,-3.4335,0.21364,1.49548,0.966367155,-0.179259795,0.1257321
1764435441.0271757,-3.4335,0.21364,1.49548,0.966367155,-0.179259795,0.1257321
1764435441.028173,-3.4335,0.21364,1.49548,0.966367155,-0.179259795,0.1257321
1764435441.028173,-3.4335,0.21364,1.49548,0.966367155,-0.179259795,0.1257321
1764435441.028173,-3.4335,0.21364,1.49548,0.966367155,-0.179259795,0.1257321
1764435441.072852,-3.4335,0.21364,1.49548,0.966367155,-0.179259795,0.1257321
1764435441.072852,-3.4335,0.21364,1.49548,0.966367155,-0.179259795,0.1257321
1764435441.072852,-3.1283,1.05294,1.35814,0.96777096,-0.18017532,0.12561003
1764435441.072852,-3.1283,1.05294,1.35814,0.96777096,-0.18017532,0.12561003
1764435441.072852,-3.1283,1.05294,1.35814,0.96777096,-0.18017532,0.12561003
1764435441.072852,-3.1283,1.05294,1.35814,0.96777096,-0.18017532,0.12561003
1764435441.0738478,-3.1283,1.05294,1.35814,0.96777096,-0.18017532,0.12561003
1764435441.0738478,-3.1283,1.05294,1.35814,0.96777096,-0.18017532,0.12561003
1764435441.0738478,-3.1283,1.05294,1.35814,0.96777096,-0.18017532,0.12561003
1764435441.0738478,-3.1283,1.05294,1.35814,0.96777096,-0.18017532,0.12561003
1764435441.0738478,-3.1283,1.05294,1.35814,0.96777096,-0.18017532,0.12561003
1764435441.0738478,-3.1283,1.05294,1.35814,0.96777096,-0.18017532,0.12561003
1764435441.0738478,-3.32668,1.05294,1.26658,0.96691647,-0.179748075,0.12524382
1764435441.074848,-3.32668,1.05294,1.26658,0.96691647,-0.179748075,0.12524382
1764435441.074848,-3.32668,1.05294,1.26658,0.96691647,-0.179748075,0.12524382
1764435441.074848,-3.32668,1.05294,1.26658,0.96691647,-0.179748075,0.12524382
1764435441.074848,-3.32668,1.05294,1.26658,0.96691647,-0.179748075,0.12524382
1764435441.074848,-3.32668,1.05294,1.26658,0.96691647,-0.179748075,0.12524382
1764435441.074848,-3.32668,1.05294,1.26658,0.96691647,-0.179748075,0.12524382
1764435441.074848,-3.32668,1.05294,1.26658,0.96691647,-0.179748075,0.12524382
1764435441.074848,-3.32668,1.05294,1.26658,0.96691647,-0.179748075,0.12524382
1764435441.0758476,-3.32668,1.05294,1.26658,0.96691647,-0.179748075,0.12524382
1764435441.0758476,-4.0439,0.59514,0.50358,0.965756805,-0.179870145,0.124938645
1764435441.0758476,-4.0439,0.59514,0.50358,0.965756805,-0.179870145,0.124938645
1764435441.1181068,-4.0439,0.59514,0.50358,0.965756805,-0.179870145,0.124938645
1764435441.1181068,-4.0439,0.59514,0.50358,0.965756805,-0.179870145,0.124938645
1764435441.1181068,-4.0439,0.59514,0.50358,0.965756805,-0.179870145,0.124938645
1764435441.1181068,-4.0439,0.59514,0.50358,0.965756805,-0.179870145,0.124938645
1764435441.1181068,-4.0439,0.59514,0.50358,0.965756805,-0.179870145,0.124938645
1764435441.1181068,-4.0439,0.59514,0.50358,0.965756805,-0.179870145,0.124938645
1764435441.1181068,-4.0439,0.59514,0.50358,0.965756805,-0.179870145,0.124938645
1764435441.1181068,-4.0439,0.59514,0.50358,0.965756805,-0.179870145,0.124938645
1764435441.1181068,-4.10494,0.2289,0.2289,0.964902315,-0.179259795,0.124694505
1764435441.1181068,-4.10494,0.2289,0.2289,0.964902315,-0.179259795,0.124694505
1764435441.1181068,-4.10494,0.2289,0.2289,0.964902315,-0.179259795,0.124694505
1764435441.1181068,-4.10494,0.2289,0.2289,0.964902315,-0.179259795,0.124694505
1764435441.1181068,-4.10494,0.2289,0.2289,0.964902315,-0.179259795,0.124694505
1764435441.1181068,-4.10494,0.2289,0.2289,0.964902315,-0.179259795,0.124694505
1764435441.1181068,-4.10494,0.2289,0.2289,0.964902315,-0.179259795,0.124694505
1764435441.1181068,-4.10494,0.2289,0.2289,0.964902315,-0.179259795,0.124694505
1764435441.1181068,-4.10494,0.2289,0.2289,0.964902315,-0.179259795,0.124694505
1764435441.1181068,-4.10494,0.2289,0.2289,0.964902315,-0.179259795,0.124694505
1764435441.1181068,-3.9676,0.8087799999999999,-0.24416,0.96459714,-0.1794429,0.12512175
1764435441.1181068,-3.9676,0.8087799999999999,-0.24416,0.96459714,-0.1794429,0.12512175
1764435441.1181068,-3.9676,0.8087799999999999,-0.24416,0.96459714,-0.1794429,0.12512175
1764435441.1191068,-3.9676,0.8087799999999999,-0.24416,0.96459714,-0.1794429,0.12512175
1764435441.1191068,-3.9676,0.8087799999999999,-0.24416,0.96459714,-0.1794429,0.12512175
1764435441.1191068,-3.9676,0.8087799999999999,-0.24416,0.96459714,-0.1794429,0.12512175
1764435441.163147,-3.9676,0.8087799999999999,-0.24416,0.96459714,-0.1794429,0.12512175
1764435441.163147,-3.9676,0.8087799999999999,-0.24416,0.96459714,-0.1794429,0.12512175
1764435441.163147,-3.9676,0.8087799999999999,-0.24416,0.96459714,-0.1794429,0.12512175
1764435441.163147,-3.9676,0.8087799999999999,-0.24416,0.96459714,-0.1794429,0.12512175
1764435441.163147,-4.02864,0.9003399999999999,-0.763,0.96374265,-0.179137725,0.12499968
1764435441.163685,-4.02864,0.9003399999999999,-0.763,0.96374265,-0.179137725,0.12499968
1764435441.163685,-4.02864,0.9003399999999999,-0.763,0.96374265,-0.179137725,0.12499968
1764435441.163685,-4.02864,0.9003399999999999,-0.763,0.96374265,-0.179137725,0.12499968
1764435441.163685,-4.02864,0.9003399999999999,-0.763,0.96374265,-0.179137725,0.12499968
1764435441.163685,-4.02864,0.9003399999999999,-0.763,0.96374265,-0.179137725,0.12499968
1764435441.163685,-4.02864,0.9003399999999999,-0.763,0.96374265,-0.179137725,0.12499968
1764435441.163685,-4.02864,0.9003399999999999,-0.763,0.96374265,-0.179137725,0.12499968
1764435441.163685,-4.02864,0.9003399999999999,-0.763,0.96374265,-0.179137725,0.12499968
1764435441.163685,-4.02864,0.9003399999999999,-0.763,0.96374265,-0.179137725,0.12499968
1764435441.1657467,-4.16598,0.39676,-0.85456,0.96374265,-0.17797806,0.12548796
1764435441.1657467,-4.16598,0.39676,-0.85456,0.96374265,-0.17797806,0.12548796
1764435441.1657467,-4.16598,0.39676,-0.85456,0.96374265,-0.17797806,0.12548796
1764435441.1667602,-4.16598,0.39676,-0.85456,0.96374265,-0.17797806,0.12548796
1764435441.1667602,-4.16598,0.39676,-0.85456,0.96374265,-0.17797806,0.12548796
1764435441.1667602,-4.16598,0.39676,-0.85456,0.96374265,-0.17797806,0.12548796
1764435441.1667602,-4.16598,0.39676,-0.85456,0.96374265,-0.17797806,0.12548796
1764435441.1667602,-4.16598,0.39676,-0.85456,0.96374265,-0.17797806,0.12548796
1764435441.2101407,-4.16598,0.39676,-0.85456,0.96374265,-0.17797806,0.12548796
1764435441.2106466,-4.16598,0.39676,-0.85456,0.96374265,-0.17797806,0.12548796
1764435441.2106466,-4.76112,0.12208,-1.41918,0.96374265,-0.17773392,0.12524382
1764435441.2106466,-4.76112,0.12208,-1.41918,0.96374265,-0.17773392,0.12524382
1764435441.2106466,-4.76112,0.12208,-1.41918,0.96374265,-0.17773392,0.12524382
1764435441.2106466,-4.76112,0.12208,-1.41918,0.96374265,-0.17773392,0.12524382
1764435441.2106466,-4.76112,0.12208,-1.41918,0.96374265,-0.17773392,0.12524382
1764435441.2106466,-4.76112,0.12208,-1.41918,0.96374265,-0.17773392,0.12524382
1764435441.2106466,-4.76112,0.12208,-1.41918,0.96374265,-0.17773392,0.12524382
1764435441.2106466,-4.76112,0.12208,-1.41918,0.96374265,-0.17773392,0.12524382
1764435441.2106466,-4.76112,0.12208,-1.41918,0.96374265,-0.17773392,0.12524382
1764435441.2106466,-4.76112,0.12208,-1.41918,0.96374265,-0.17773392,0.12524382
1764435441.2106466,-4.66956,0.13734,-1.11398,0.964169895,-0.17712357,0.12463347
1764435441.2106466,-4.66956,0.13734,-1.11398,0.964169895,-0.17712357,0.12463347
1764435441.2106466,-4.66956,0.13734,-1.11398,0.964169895,-0.17712357,0.12463347
1764435441.2106466,-4.66956,0.13734,-1.11398,0.964169895,-0.17712357,0.12463347
1764435441.2106466,-4.66956,0.13734,-1.11398,0.964169895,-0.17712357,0.12463347
1764435441.2106466,-4.66956,0.13734,-1.11398,0.964169895,-0.17712357,0.12463347
1764435441.2106466,-4.66956,0.13734,-1.11398,0.964169895,-0.17712357,0.12463347
1764435441.2106466,-4.66956,0.13734,-1.11398,0.964169895,-0.17712357,0.12463347
1764435441.2106466,-4.66956,0.13734,-1.11398,0.964169895,-0.17712357,0.12463347
1764435441.2106466,-4.66956,0.13734,-1.11398,0.964169895,-0.17712357,0.12463347
1764435441.2106466,-4.91372,0.24416,-0.77826,0.965390595,-0.17712357,0.124816575
1764435441.2106466,-4.91372,0.24416,-0.77826,0.965390595,-0.17712357,0.124816575
1764435441.2588544,-4.91372,0.24416,-0.77826,0.965390595,-0.17712357,0.124816575
1764435441.2588544,-4.91372,0.24416,-0.77826,0.965390595,-0.17712357,0.124816575
1764435441.2588544,-4.91372,0.24416,-0.77826,0.965390595,-0.17712357,0.124816575
1764435441.2588544,-4.91372,0.24416,-0.77826,0.965390595,-0.17712357,0.124816575
1764435441.2588544,-4.91372,0.24416,-0.77826,0.965390595,-0.17712357,0.124816575
1764435441.2588544,-4.91372,0.24416,-0.77826,0.965390595,-0.17712357,0.124816575
1764435441.2588544,-4.91372,0.24416,-0.77826,0.965390595,-0.17712357,0.124816575
1764435441.2588544,-4.91372,0.24416,-0.77826,0.965390595,-0.17712357,0.124816575
1764435441.2588544,-5.06632,0.25942,-0.24416,0.966489225,-0.17639115,0.12512175
1764435441.2588544,-5.06632,0.25942,-0.24416,0.966489225,-0.17639115,0.12512175
1764435441.2588544,-5.06632,0.25942,-0.24416,0.966489225,-0.17639115,0.12512175
1764435441.2588544,-5.06632,0.25942,-0.24416,0.966489225,-0.17639115,0.12512175
1764435441.2588544,-5.06632,0.25942,-0.24416,0.966489225,-0.17639115,0.12512175
1764435441.2588544,-5.06632,0.25942,-0.24416,0.966489225,-0.17639115,0.12512175
1764435441.2588544,-5.06632,0.25942,-0.24416,0.966489225,-0.17639115,0.12512175
1764435441.2588544,-5.06632,0.25942,-0.24416,0.966489225,-0.17639115,0.12512175
1764435441.2588544,-5.06632,0.25942,-0.24416,0.966489225,-0.17639115,0.12512175
1764435441.2588544,-5.06632,0.25942,-0.24416,0.966489225,-0.17639115,0.12512175
1764435441.2588544,-5.14262,0.21364,-0.04578,0.96691647,-0.17639115,0.12402312
1764435441.2588544,-5.14262,0.21364,-0.04578,0.96691647,-0.17639115,0.12402312
1764435441.2588544,-5.14262,0.21364,-0.04578,0.96691647,-0.17639115,0.12402312
1764435441.2588544,-5.14262,0.21364,-0.04578,0.96691647,-0.17639115,0.12402312
1764435441.3036015,-5.14262,0.21364,-0.04578,0.96691647,-0.17639115,0.12402312
1764435441.3036015,-5.14262,0.21364,-0.04578,0.96691647,-0.17639115,0.12402312
1764435441.3036015,-5.14262,0.21364,-0.04578,0.96691647,-0.17639115,0.12402312
1764435441.3036015,-5.14262,0.21364,-0.04578,0.96691647,-0.17639115,0.12402312
1764435441.3036015,-5.14262,0.21364,-0.04578,0.96691647,-0.17639115,0.12402312
1764435441.3036015,-5.14262,0.21364,-0.04578,0.96691647,-0.17639115,0.12402312
1764435441.3036015,-4.97476,0.21364,-0.04578,0.967221645,-0.176330115,0.123595875
1764435441.3036015,-4.97476,0.21364,-0.04578,0.967221645,-0.176330115,0.123595875
1764435441.3036015,-4.97476,0.21364,-0.04578,0.967221645,-0.176330115,0.123595875
1764435441.3036015,-4.97476,0.21364,-0.04578,0.967221645,-0.176330115,0.123595875
1764435441.3036015,-4.97476,0.21364,-0.04578,0.967221645,-0.176330115,0.123595875
1764435441.3036015,-4.97476,0.21364,-0.04578,0.967221645,-0.176330115,0.123595875
1764435441.3036015,-4.97476,0.21364,-0.04578,0.967221645,-0.176330115,0.123595875
1764435441.3036015,-4.97476,0.21364,-0.04578,0.967221645,-0.176330115,0.123595875
1764435441.3036015,-4.97476,0.21364,-0.04578,0.967221645,-0.176330115,0.123595875
1764435441.3036015,-4.97476,0.21364,-0.04578,0.967221645,-0.176330115,0.123595875
1764435441.3036015,-5.02054,0.10682,0.4578,0.966489225,-0.17626908,0.123229665
1764435441.3036015,-5.02054,0.10682,0.4578,0.966489225,-0.17626908,0.123229665
1764435441.3036015,-5.02054,0.10682,0.4578,0.966489225,-0.17626908,0.123229665
1764435441.304973,-5.02054,0.10682,0.4578,0.966489225,-0.17626908,0.123229665
1764435441.304973,-5.02054,0.10682,0.4578,0.966489225,-0.17626908,0.123229665
1764435441.304973,-5.02054,0.10682,0.4578,0.966489225,-0.17626908,0.123229665
1764435441.304973,-5.02054,0.10682,0.4578,0.966489225,-0.17626908,0.123229665
1764435441.304973,-5.02054,0.10682,0.4578,0.966489225,-0.17626908,0.123229665
1764435441.3492355,-5.02054,0.10682,0.4578,0.966489225,-0.17626908,0.123229665
1764435441.3492355,-5.02054,0.10682,0.4578,0.966489225,-0.17626908,0.123229665
1764435441.3492355,-4.77638,0.54936,0.19838,0.965756805,-0.17651322,0.12304656
1764435441.3492355,-4.77638,0.54936,0.19838,0.965756805,-0.17651322,0.12304656
1764435441.3492355,-4.77638,0.54936,0.19838,0.965756805,-0.17651322,0.12304656
1764435441.3492355,-4.77638,0.54936,0.19838,0.965756805,-0.17651322,0.12304656
1764435441.3492355,-4.77638,0.54936,0.19838,0.965756805,-0.17651322,0.12304656
1764435441.3492355,-4.77638,0.54936,0.19838,0.965756805,-0.17651322,0.12304656
1764435441.3492355,-4.77638,0.54936,0.19838,0.965756805,-0.17651322,0.12304656
1764435441.3492355,-4.77638,0.54936,0.19838,0.965756805,-0.17651322,0.12304656
1764435441.3492355,-4.77638,0.54936,0.19838,0.965756805,-0.17651322,0.12304656
1764435441.3492355,-4.77638,0.54936,0.19838,0.965756805,-0.17651322,0.12304656
1764435441.3492355,-4.28806,0.62566,0.2289,0.966000945,-0.176696325,0.12341277
1764435441.3497665,-4.28806,0.62566,0.2289,0.966000945,-0.176696325,0.12341277
1764435441.3497665,-4.28806,0.62566,0.2289,0.966000945,-0.176696325,0.12341277
1764435441.3497665,-4.28806,0.62566,0.2289,0.966000945,-0.176696325,0.12341277
1764435441.3497665,-4.28806,0.62566,0.2289,0.966000945,-0.176696325,0.12341277
1764435441.3497665,-4.28806,0.62566,0.2289,0.966000945,-0.176696325,0.12341277
1764435441.3497665,-4.28806,0.62566,0.2289,0.966000945,-0.176696325,0.12341277
1764435441.3497665,-4.28806,0.62566,0.2289,0.966000945,-0.176696325,0.12341277
1764435441.3497665,-4.28806,0.62566,0.2289,0.966000945,-0.176696325,0.12341277
1764435441.3497665,-4.28806,0.62566,0.2289,0.966000945,-0.176696325,0.12341277
1764435441.393258,-4.303319999999999,0.3051999999999999,0.21364,0.96581784,-0.17614701,0.122863455
1764435441.393258,-4.303319999999999,0.3051999999999999,0.21364,0.96581784,-0.17614701,0.122863455
1764435441.394273,-4.303319999999999,0.3051999999999999,0.21364,0.96581784,-0.17614701,0.122863455
1764435441.394273,-4.303319999999999,0.3051999999999999,0.21364,0.96581784,-0.17614701,0.122863455
1764435441.394273,-4.303319999999999,0.3051999999999999,0.21364,0.96581784,-0.17614701,0.122863455
1764435441.394273,-4.303319999999999,0.3051999999999999,0.21364,0.96581784,-0.17614701,0.122863455
1764435441.394273,-4.303319999999999,0.3051999999999999,0.21364,0.96581784,-0.17614701,0.122863455
1764435441.394273,-4.303319999999999,0.3051999999999999,0.21364,0.96581784,-0.17614701,0.122863455
1764435441.395782,-4.303319999999999,0.3051999999999999,0.21364,0.96581784,-0.17614701,0.122863455
1764435441.395782,-4.303319999999999,0.3051999999999999,0.21364,0.96581784,-0.17614701,0.122863455
1764435441.395782,-3.8913,0.39676,0.0762999999999999,0.965512665,-0.175963905,0.122985525
1764435441.395782,-3.8913,0.39676,0.0762999999999999,0.965512665,-0.175963905,0.122985525
1764435441.397304,-3.8913,0.39676,0.0762999999999999,0.965512665,-0.175963905,0.122985525
1764435441.397304,-3.8913,0.39676,0.0762999999999999,0.965512665,-0.175963905,0.122985525
1764435441.397304,-3.8913,0.39676,0.0762999999999999,0.965512665,-0.175963905,0.122985525
1764435441.397304,-3.8913,0.39676,0.0762999999999999,0.965512665,-0.175963905,0.122985525
1764435441.397304,-3.8913,0.39676,0.0762999999999999,0.965512665,-0.175963905,0.122985525
1764435441.397304,-3.8913,0.39676,0.0762999999999999,0.965512665,-0.175963905,0.122985525
1764435441.397304,-3.8913,0.39676,0.0762999999999999,0.965512665,-0.175963905,0.122985525
1764435441.397304,-3.8913,0.39676,0.0762999999999999,0.965512665,-0.175963905,0.122985525
1764435441.397304,-3.47928,0.57988,0.28994,0.965878875,-0.17651322,0.12316863
1764435441.397304,-3.47928,0.57988,0.28994,0.965878875,-0.17651322,0.12316863
1764435441.397304,-3.47928,0.57988,0.28994,0.965878875,-0.17651322,0.12316863
1764435441.397304,-3.47928,0.57988,0.28994,0.965878875,-0.17651322,0.12316863
1764435441.4411757,-3.47928,0.57988,0.28994,0.965878875,-0.17651322,0.12316863
1764435441.4411757,-3.47928,0.57988,0.28994,0.965878875,-0.17651322,0.12316863
1764435441.4411757,-3.47928,0.57988,0.28994,0.965878875,-0.17651322,0.12316863
1764435441.4411757,-3.47928,0.57988,0.28994,0.965878875,-0.17651322,0.12316863
1764435441.4411757,-3.47928,0.57988,0.28994,0.965878875,-0.17651322,0.12316863
1764435441.4411757,-3.47928,0.57988,0.28994,0.965878875,-0.17651322,0.12316863
1764435441.442201,-3.69292,0.763,0.06104,0.9667944,-0.17651322,0.12255828
1764435441.442201,-3.69292,0.763,0.06104,0.9667944,-0.17651322,0.12255828
1764435441.442201,-3.69292,0.763,0.06104,0.9667944,-0.17651322,0.12255828
1764435441.442201,-3.69292,0.763,0.06104,0.9667944,-0.17651322,0.12255828
1764435441.442201,-3.69292,0.763,0.06104,0.9667944,-0.17651322,0.12255828
1764435441.442201,-3.69292,0.763,0.06104,0.9667944,-0.17651322,0.12255828
1764435441.442201,-3.69292,0.763,0.06104,0.9667944,-0.17651322,0.12255828
1764435441.442201,-3.69292,0.763,0.06104,0.9667944,-0.17651322,0.12255828
1764435441.442201,-3.69292,0.763,0.06104,0.9667944,-0.17651322,0.12255828
1764435441.442201,-3.69292,0.763,0.06104,0.9667944,-0.17651322,0.12255828
1764435441.442201,-3.95234,1.17502,0.44254,0.96752682,-0.17553666,0.12231414
1764435441.442201,-3.95234,1.17502,0.44254,0.96752682,-0.17553666,0.12231414
1764435441.442201,-3.95234,1.17502,0.44254,0.96752682,-0.17553666,0.12231414
1764435441.442201,-3.95234,1.17502,0.44254,0.96752682,-0.17553666,0.12231414
1764435441.445181,-3.95234,1.17502,0.44254,0.96752682,-0.17553666,0.12231414
1764435441.445181,-3.95234,1.17502,0.44254,0.96752682,-0.17553666,0.12231414
1764435441.445181,-3.95234,1.17502,0.44254,0.96752682,-0.17553666,0.12231414
1764435441.445181,-3.95234,1.17502,0.44254,0.96752682,-0.17553666,0.12231414
1764435441.4902012,-3.95234,1.17502,0.44254,0.96752682,-0.17553666,0.12231414
1764435441.4902012,-3.95234,1.17502,0.44254,0.96752682,-0.17553666,0.12231414
1764435441.4902012,-4.33384,1.15976,0.82404,0.966733365,-0.174743205,0.122131035
1764435441.4902012,-4.33384,1.15976,0.82404,0.966733365,-0.174743205,0.122131035
1764435441.4902012,-4.33384,1.15976,0.82404,0.966733365,-0.174743205,0.122131035
1764435441.4902012,-4.33384,1.15976,0.82404,0.966733365,-0.174743205,0.122131035
1764435441.4902012,-4.33384,1.15976,0.82404,0.966733365,-0.174743205,0.122131035
1764435441.4902012,-4.33384,1.15976,0.82404,0.966733365,-0.174743205,0.122131035
1764435441.4902012,-4.33384,1.15976,0.82404,0.966733365,-0.174743205,0.122131035
1764435441.4902012,-4.33384,1.15976,0.82404,0.966733365,-0.174743205,0.122131035
1764435441.4902012,-4.33384,1.15976,0.82404,0.966733365,-0.174743205,0.122131035
1764435441.4902012,-4.33384,1.15976,0.82404,0.966733365,-0.174743205,0.122131035
1764435441.4902012,-4.53222,0.96138,0.9919,0.96618405,-0.17553666,0.12219207
1764435441.4902012,-4.53222,0.96138,0.9919,0.96618405,-0.17553666,0.12219207
1764435441.4902012,-4.53222,0.96138,0.9919,0.96618405,-0.17553666,0.12219207
1764435441.4902012,-4.53222,0.96138,0.9919,0.96618405,-0.17553666,0.12219207
1764435441.4902012,-4.53222,0.96138,0.9919,0.96618405,-0.17553666,0.12219207
1764435441.4902012,-4.53222,0.96138,0.9919,0.96618405,-0.17553666,0.12219207
1764435441.4902012,-4.53222,0.96138,0.9919,0.96618405,-0.17553666,0.12219207
1764435441.4902012,-4.53222,0.96138,0.9919,0.96618405,-0.17553666,0.12219207
1764435441.4902012,-4.53222,0.96138,0.9919,0.96618405,-0.17553666,0.12219207
1764435441.4902012,-4.53222,0.96138,0.9919,0.96618405,-0.17553666,0.12219207
1764435441.4902012,-4.1202,0.9919,1.11398,0.96642819,-0.176574255,0.122008965
1764435441.4902012,-4.1202,0.9919,1.11398,0.96642819,-0.176574255,0.122008965
1764435441.5376413,-4.1202,0.9919,1.11398,0.96642819,-0.176574255,0.122008965
1764435441.5376413,-4.1202,0.9919,1.11398,0.96642819,-0.176574255,0.122008965
1764435441.5386598,-4.1202,0.9919,1.11398,0.96642819,-0.176574255,0.122008965
1764435441.5386598,-4.1202,0.9919,1.11398,0.96642819,-0.176574255,0.122008965
1764435441.5386598,-4.1202,0.9919,1.11398,0.96642819,-0.176574255,0.122008965
1764435441.5386598,-4.1202,0.9919,1.11398,0.96642819,-0.176574255,0.122008965
1764435441.5386598,-4.1202,0.9919,1.11398,0.96642819,-0.176574255,0.122008965
1764435441.5386598,-4.1202,0.9919,1.11398,0.96642819,-0.176574255,0.122008965
1764435441.5386598,-4.02864,0.97664,1.4039199999999998,0.965634735,-0.177917025,0.123107595
1764435441.5386598,-4.02864,0.97664,1.4039199999999998,0.965634735,-0.177917025,0.123107595
1764435441.5386598,-4.02864,0.97664,1.4039199999999998,0.965634735,-0.177917025,0.123107595
1764435441.5386598,-4.02864,0.97664,1.4039199999999998,0.965634735,-0.177917025,0.123107595
1764435441.5386598,-4.02864,0.97664,1.4039199999999998,0.965634735,-0.177917025,0.123107595
1764435441.5386598,-4.02864,0.97664,1.4039199999999998,0.965634735,-0.177917025,0.123107595
1764435441.5386598,-4.02864,0.97664,1.4039199999999998,0.965634735,-0.177917025,0.123107595
1764435441.5386598,-4.02864,0.97664,1.4039199999999998,0.965634735,-0.177917025,0.123107595
1764435441.5386598,-4.02864,0.97664,1.4039199999999998,0.965634735,-0.177917025,0.123107595
1764435441.5386598,-4.02864,0.97664,1.4039199999999998,0.965634735,-0.177917025,0.123107595
1764435441.5386598,-3.78448,0.6103999999999999,1.19028,0.966245085,-0.1782222,0.123717945
1764435441.5386598,-3.78448,0.6103999999999999,1.19028,0.966245085,-0.1782222,0.123717945
1764435441.5386598,-3.78448,0.6103999999999999,1.19028,0.966245085,-0.1782222,0.123717945
1764435441.5386598,-3.78448,0.6103999999999999,1.19028,0.966245085,-0.1782222,0.123717945
1764435441.5834758,-3.78448,0.6103999999999999,1.19028,0.966245085,-0.1782222,0.123717945
1764435441.5834758,-3.78448,0.6103999999999999,1.19028,0.966245085,-0.1782222,0.123717945
1764435441.5834758,-3.78448,0.6103999999999999,1.19028,0.966245085,-0.1782222,0.123717945
1764435441.5834758,-3.78448,0.6103999999999999,1.19028,0.966245085,-0.1782222,0.123717945
1764435441.5834758,-3.78448,0.6103999999999999,1.19028,0.966245085,-0.1782222,0.123717945
1764435441.5834758,-3.78448,0.6103999999999999,1.19028,0.966245085,-0.1782222,0.123717945
1764435441.5834758,-4.1202,0.19838,0.18312,0.96655026,-0.17687943,0.12292449
1764435441.5834758,-4.1202,0.19838,0.18312,0.96655026,-0.17687943,0.12292449
1764435441.5834758,-4.1202,0.19838,0.18312,0.96655026,-0.17687943,0.12292449
1764435441.5834758,-4.1202,0.19838,0.18312,0.96655026,-0.17687943,0.12292449
1764435441.5834758,-4.1202,0.19838,0.18312,0.96655026,-0.17687943,0.12292449
1764435441.5834758,-4.1202,0.19838,0.18312,0.96655026,-0.17687943,0.12292449
1764435441.5834758,-4.1202,0.19838,0.18312,0.96655026,-0.17687943,0.12292449
1764435441.5834758,-4.1202,0.19838,0.18312,0.96655026,-0.17687943,0.12292449
1764435441.5834758,-4.1202,0.19838,0.18312,0.96655026,-0.17687943,0.12292449
1764435441.5834758,-4.1202,0.19838,0.18312,0.96655026,-0.17687943,0.12292449
1764435441.5834758,-3.70818,0.3509799999999999,-0.25942,0.96764889,-0.175353555,0.12243621
1764435441.5834758,-3.70818,0.3509799999999999,-0.25942,0.96764889,-0.175353555,0.12243621
1764435441.5834758,-3.70818,0.3509799999999999,-0.25942,0.96764889,-0.175353555,0.12243621
1764435441.5844889,-3.70818,0.3509799999999999,-0.25942,0.96764889,-0.175353555,0.12243621
1764435441.5844889,-3.70818,0.3509799999999999,-0.25942,0.96764889,-0.175353555,0.12243621
1764435441.5844889,-3.70818,0.3509799999999999,-0.25942,0.96764889,-0.175353555,0.12243621
1764435441.5844889,-3.70818,0.3509799999999999,-0.25942,0.96764889,-0.175353555,0.12243621
1764435441.5844889,-3.70818,0.3509799999999999,-0.25942,0.96764889,-0.175353555,0.12243621
1764435441.6314237,-3.70818,0.3509799999999999,-0.25942,0.96764889,-0.175353555,0.12243621
1764435441.6314237,-3.70818,0.3509799999999999,-0.25942,0.96764889,-0.175353555,0.12243621
1764435441.6314237,-4.53222,0.85456,-0.3051999999999999,0.967465785,-0.175109415,0.122863455
1764435441.6314237,-4.53222,0.85456,-0.3051999999999999,0.967465785,-0.175109415,0.122863455
1764435441.6314237,-4.53222,0.85456,-0.3051999999999999,0.967465785,-0.175109415,0.122863455
1764435441.632437,-4.53222,0.85456,-0.3051999999999999,0.967465785,-0.175109415,0.122863455
1764435441.632437,-4.53222,0.85456,-0.3051999999999999,0.967465785,-0.175109415,0.122863455
1764435441.632437,-4.53222,0.85456,-0.3051999999999999,0.967465785,-0.175109415,0.122863455
1764435441.632437,-4.53222,0.85456,-0.3051999999999999,0.967465785,-0.175109415,0.122863455
1764435441.632437,-4.53222,0.85456,-0.3051999999999999,0.967465785,-0.175109415,0.122863455
1764435441.632437,-4.53222,0.85456,-0.3051999999999999,0.967465785,-0.175109415,0.122863455
1764435441.632437,-4.53222,0.85456,-0.3051999999999999,0.967465785,-0.175109415,0.122863455
1764435441.632437,-4.31858,0.6867,0.65618,0.96545163,-0.1745601,0.122131035
1764435441.632437,-4.31858,0.6867,0.65618,0.96545163,-0.1745601,0.122131035
1764435441.632437,-4.31858,0.6867,0.65618,0.96545163,-0.1745601,0.122131035
1764435441.632437,-4.31858,0.6867,0.65618,0.96545163,-0.1745601,0.122131035
1764435441.632437,-4.31858,0.6867,0.65618,0.96545163,-0.1745601,0.122131035
1764435441.632437,-4.31858,0.6867,0.65618,0.96545163,-0.1745601,0.122131035
1764435441.632437,-4.31858,0.6867,0.65618,0.96545163,-0.1745601,0.122131035
1764435441.632437,-4.31858,0.6867,0.65618,0.96545163,-0.1745601,0.122131035
1764435441.632437,-4.31858,0.6867,0.65618,0.96545163,-0.1745601,0.122131035
1764435441.632437,-4.31858,0.6867,0.65618,0.96545163,-0.1745601,0.122131035
1764435441.632437,-4.97476,0.6714399999999999,1.02242,0.96447507,-0.17468217,0.12207
1764435441.632437,-4.97476,0.6714399999999999,1.02242,0.96447507,-0.17468217,0.12207
1764435441.675675,-4.97476,0.6714399999999999,1.02242,0.96447507,-0.17468217,0.12207
1764435441.675675,-4.97476,0.6714399999999999,1.02242,0.96447507,-0.17468217,0.12207
1764435441.675675,-4.97476,0.6714399999999999,1.02242,0.96447507,-0.17468217,0.12207
1764435441.6762109,-4.97476,0.6714399999999999,1.02242,0.96447507,-0.17468217,0.12207
1764435441.6762109,-4.97476,0.6714399999999999,1.02242,0.96447507,-0.17468217,0.12207
1764435441.6762109,-4.97476,0.6714399999999999,1.02242,0.96447507,-0.17468217,0.12207
1764435441.6762109,-4.97476,0.6714399999999999,1.02242,0.96447507,-0.17468217,0.12207
1764435441.6762109,-4.97476,0.6714399999999999,1.02242,0.96447507,-0.17468217,0.12207
1764435441.6762109,-4.440659999999999,0.6409199999999999,1.0682,0.964658175,-0.175231485,0.12219207
1764435441.6762109,-4.440659999999999,0.6409199999999999,1.0682,0.964658175,-0.175231485,0.12219207
1764435441.6762109,-4.440659999999999,0.6409199999999999,1.0682,0.964658175,-0.175231485,0.12219207
1764435441.6762109,-4.440659999999999,0.6409199999999999,1.0682,0.964658175,-0.175231485,0.12219207
1764435441.6762109,-4.440659999999999,0.6409199999999999,1.0682,0.964658175,-0.175231485,0.12219207
1764435441.6762109,-4.440659999999999,0.6409199999999999,1.0682,0.964658175,-0.175231485,0.12219207
1764435441.6762109,-4.440659999999999,0.6409199999999999,1.0682,0.964658175,-0.175231485,0.12219207
1764435441.6762109,-4.440659999999999,0.6409199999999999,1.0682,0.964658175,-0.175231485,0.12219207
1764435441.6762109,-4.440659999999999,0.6409199999999999,1.0682,0.964658175,-0.175231485,0.12219207
1764435441.6772263,-4.440659999999999,0.6409199999999999,1.0682,0.964658175,-0.175231485,0.12219207
1764435441.6772263,-4.1202,0.47306,1.35814,0.96532956,-0.176085975,0.12280242
1764435441.6772263,-4.1202,0.47306,1.35814,0.96532956,-0.176085975,0.12280242
1764435441.6772263,-4.1202,0.47306,1.35814,0.96532956,-0.176085975,0.12280242
1764435441.6777408,-4.1202,0.47306,1.35814,0.96532956,-0.176085975,0.12280242
1764435441.7272704,-4.1202,0.47306,1.35814,0.96532956,-0.176085975,0.12280242
1764435441.7272704,-4.1202,0.47306,1.35814,0.96532956,-0.176085975,0.12280242
1764435441.7272704,-4.1202,0.47306,1.35814,0.96532956,-0.176085975,0.12280242
1764435441.7272704,-4.1202,0.47306,1.35814,0.96532956,-0.176085975,0.12280242
1764435441.7272704,-4.1202,0.47306,1.35814,0.96532956,-0.176085975,0.12280242
1764435441.7272704,-4.1202,0.47306,1.35814,0.96532956,-0.176085975,0.12280242
1764435441.7272704,-3.54032,0.8698199999999999,1.15976,0.966367155,-0.17724564,0.12243621
1764435441.7272704,-3.54032,0.8698199999999999,1.15976,0.966367155,-0.17724564,0.12243621
1764435441.7282743,-3.54032,0.8698199999999999,1.15976,0.966367155,-0.17724564,0.12243621
1764435441.7282743,-3.54032,0.8698199999999999,1.15976,0.966367155,-0.17724564,0.12243621
1764435441.7282743,-3.54032,0.8698199999999999,1.15976,0.966367155,-0.17724564,0.12243621
1764435441.7282743,-3.54032,0.8698199999999999,1.15976,0.966367155,-0.17724564,0.12243621
1764435441.7282743,-3.54032,0.8698199999999999,1.15976,0.966367155,-0.17724564,0.12243621
1764435441.7282743,-3.54032,0.8698199999999999,1.15976,0.966367155,-0.17724564,0.12243621
1764435441.7282743,-3.54032,0.8698199999999999,1.15976,0.966367155,-0.17724564,0.12243621
1764435441.7282743,-3.54032,0.8698199999999999,1.15976,0.966367155,-0.17724564,0.12243621
1764435441.7282743,-3.63188,0.47306,1.3734,0.96703854,-0.17785599,0.12207
1764435441.7282743,-3.63188,0.47306,1.3734,0.96703854,-0.17785599,0.12207
1764435441.7282743,-3.63188,0.47306,1.3734,0.96703854,-0.17785599,0.12207
1764435441.7282743,-3.63188,0.47306,1.3734,0.96703854,-0.17785599,0.12207
1764435441.7282743,-3.63188,0.47306,1.3734,0.96703854,-0.17785599,0.12207
1764435441.7282743,-3.63188,0.47306,1.3734,0.96703854,-0.17785599,0.12207
1764435441.7282743,-3.63188,0.47306,1.3734,0.96703854,-0.17785599,0.12207
1764435441.7282743,-3.63188,0.47306,1.3734,0.96703854,-0.17785599,0.12207
1764435441.7719707,-3.63188,0.47306,1.3734,0.96703854,-0.17785599,0.12207
1764435441.7719707,-3.63188,0.47306,1.3734,0.96703854,-0.17785599,0.12207
1764435441.7719707,-3.79974,0.9003399999999999,1.55652,0.96777096,-0.177794955,0.12109344
1764435441.7719707,-3.79974,0.9003399999999999,1.55652,0.96777096,-0.177794955,0.12109344
1764435441.7719707,-3.79974,0.9003399999999999,1.55652,0.96777096,-0.177794955,0.12109344
1764435441.7719707,-3.79974,0.9003399999999999,1.55652,0.96777096,-0.177794955,0.12109344
1764435441.7719707,-3.79974,0.9003399999999999,1.55652,0.96777096,-0.177794955,0.12109344
1764435441.7719707,-3.79974,0.9003399999999999,1.55652,0.96777096,-0.177794955,0.12109344
1764435441.7719707,-3.79974,0.9003399999999999,1.55652,0.96777096,-0.177794955,0.12109344
1764435441.7719707,-3.79974,0.9003399999999999,1.55652,0.96777096,-0.177794955,0.12109344
1764435441.7719707,-3.79974,0.9003399999999999,1.55652,0.96777096,-0.177794955,0.12109344
1764435441.7719707,-3.79974,0.9003399999999999,1.55652,0.96777096,-0.177794955,0.12109344
1764435441.7719707,-3.3572,1.31236,1.81594,0.968320275,-0.17883255,0.121642755
1764435441.7719707,-3.3572,1.31236,1.81594,0.968320275,-0.17883255,0.121642755
1764435441.7719707,-3.3572,1.31236,1.81594,0.968320275,-0.17883255,0.121642755
1764435441.7719707,-3.3572,1.31236,1.81594,0.968320275,-0.17883255,0.121642755
1764435441.7719707,-3.3572,1.31236,1.81594,0.968320275,-0.17883255,0.121642755
1764435441.7719707,-3.3572,1.31236,1.81594,0.968320275,-0.17883255,0.121642755
1764435441.7719707,-3.3572,1.31236,1.81594,0.968320275,-0.17883255,0.121642755
1764435441.7719707,-3.3572,1.31236,1.81594,0.968320275,-0.17883255,0.121642755
1764435441.7719707,-3.3572,1.31236,1.81594,0.968320275,-0.17883255,0.121642755
1764435441.7719707,-3.3572,1.31236,1.81594,0.968320275,-0.17883255,0.121642755
1764435441.773367,-3.37246,1.23606,1.8312,0.967465785,-0.17895462,0.12182586
1764435441.773367,-3.37246,1.23606,1.8312,0.967465785,-0.17895462,0.12182586
1764435441.8167295,-3.37246,1.23606,1.8312,0.967465785,-0.17895462,0.12182586
1764435441.8167295,-3.37246,1.23606,1.8312,0.967465785,-0.17895462,0.12182586
1764435441.8167295,-3.37246,1.23606,1.8312,0.967465785,-0.17895462,0.12182586
1764435441.8167295,-3.37246,1.23606,1.8312,0.967465785,-0.17895462,0.12182586
1764435441.81775,-3.37246,1.23606,1.8312,0.967465785,-0.17895462,0.12182586
1764435441.81775,-3.37246,1.23606,1.8312,0.967465785,-0.17895462,0.12182586
1764435441.81775,-3.37246,1.23606,1.8312,0.967465785,-0.17895462,0.12182586
1764435441.81775,-3.37246,1.23606,1.8312,0.967465785,-0.17895462,0.12182586
1764435441.81775,-3.52506,0.96138,1.2208,0.96630612,-0.179259795,0.1208493
1764435441.81775,-3.52506,0.96138,1.2208,0.96630612,-0.179259795,0.1208493
1764435441.81775,-3.52506,0.96138,1.2208,0.96630612,-0.179259795,0.1208493
1764435441.81775,-3.52506,0.96138,1.2208,0.96630612,-0.179259795,0.1208493
1764435441.81775,-3.52506,0.96138,1.2208,0.96630612,-0.179259795,0.1208493
1764435441.81775,-3.52506,0.96138,1.2208,0.96630612,-0.179259795,0.1208493
1764435441.81775,-3.52506,0.96138,1.2208,0.96630612,-0.179259795,0.1208493
1764435441.81775,-3.52506,0.96138,1.2208,0.96630612,-0.179259795,0.1208493
1764435441.81775,-3.52506,0.96138,1.2208,0.96630612,-0.179259795,0.1208493
1764435441.81775,-3.52506,0.96138,1.2208,0.96630612,-0.179259795,0.1208493
1764435441.81775,-3.67766,0.3051999999999999,0.96138,0.966489225,-0.179259795,0.12219207
1764435441.81775,-3.67766,0.3051999999999999,0.96138,0.966489225,-0.179259795,0.12219207
1764435441.81775,-3.67766,0.3051999999999999,0.96138,0.966489225,-0.179259795,0.12219207
1764435441.81775,-3.67766,0.3051999999999999,0.96138,0.966489225,-0.179259795,0.12219207
1764435441.81775,-3.67766,0.3051999999999999,0.96138,0.966489225,-0.179259795,0.12219207
1764435441.81775,-3.67766,0.3051999999999999,0.96138,0.966489225,-0.179259795,0.12219207
1764435441.8661857,-3.67766,0.3051999999999999,0.96138,0.966489225,-0.179259795,0.12219207
1764435441.8661857,-3.67766,0.3051999999999999,0.96138,0.966489225,-0.179259795,0.12219207
1764435441.8661857,-3.67766,0.3051999999999999,0.96138,0.966489225,-0.179259795,0.12219207
1764435441.8661857,-3.67766,0.3051999999999999,0.96138,0.966489225,-0.179259795,0.12219207
1764435441.8661857,-3.83026,0.1525999999999999,0.74774,0.966123015,-0.179381865,0.122253105
1764435441.8661857,-3.83026,0.1525999999999999,0.74774,0.966123015,-0.179381865,0.122253105
1764435441.8661857,-3.83026,0.1525999999999999,0.74774,0.966123015,-0.179381865,0.122253105
1764435441.867197,-3.83026,0.1525999999999999,0.74774,0.966123015,-0.179381865,0.122253105
1764435441.867197,-3.83026,0.1525999999999999,0.74774,0.966123015,-0.179381865,0.122253105
1764435441.867197,-3.83026,0.1525999999999999,0.74774,0.966123015,-0.179381865,0.122253105
1764435441.867197,-3.83026,0.1525999999999999,0.74774,0.966123015,-0.179381865,0.122253105
1764435441.867197,-3.83026,0.1525999999999999,0.74774,0.966123015,-0.179381865,0.122253105
1764435441.867197,-3.83026,0.1525999999999999,0.74774,0.966123015,-0.179381865,0.122253105
1764435441.867197,-3.83026,0.1525999999999999,0.74774,0.966123015,-0.179381865,0.122253105
1764435441.867197,-3.52506,0.4578,0.50358,0.96532956,-0.179137725,0.121886895
1764435441.867197,-3.52506,0.4578,0.50358,0.96532956,-0.179137725,0.121886895
1764435441.867197,-3.52506,0.4578,0.50358,0.96532956,-0.179137725,0.121886895
1764435441.867197,-3.52506,0.4578,0.50358,0.96532956,-0.179137725,0.121886895
1764435441.867197,-3.52506,0.4578,0.50358,0.96532956,-0.179137725,0.121886895
1764435441.867197,-3.52506,0.4578,0.50358,0.96532956,-0.179137725,0.121886895
1764435441.867197,-3.52506,0.4578,0.50358,0.96532956,-0.179137725,0.121886895
1764435441.867197,-3.52506,0.4578,0.50358,0.96532956,-0.179137725,0.121886895
1764435441.911208,-3.52506,0.4578,0.50358,0.96532956,-0.179137725,0.121886895
1764435441.911208,-3.52506,0.4578,0.50358,0.96532956,-0.179137725,0.121886895
1764435441.911208,-3.79974,-0.0762999999999999,0.04578,0.96423093,-0.177672885,0.12158172
1764435441.911208,-3.79974,-0.0762999999999999,0.04578,0.96423093,-0.177672885,0.12158172
1764435441.911208,-3.79974,-0.0762999999999999,0.04578,0.96423093,-0.177672885,0.12158172
1764435441.911208,-3.79974,-0.0762999999999999,0.04578,0.96423093,-0.177672885,0.12158172
1764435441.911208,-3.79974,-0.0762999999999999,0.04578,0.96423093,-0.177672885,0.12158172
1764435441.911208,-3.79974,-0.0762999999999999,0.04578,0.96423093,-0.177672885,0.12158172
1764435441.911208,-3.79974,-0.0762999999999999,0.04578,0.96423093,-0.177672885,0.12158172
1764435441.911208,-3.79974,-0.0762999999999999,0.04578,0.96423093,-0.177672885,0.12158172
1764435441.911208,-3.79974,-0.0762999999999999,0.04578,0.96423093,-0.177672885,0.12158172
1764435441.911208,-3.79974,-0.0762999999999999,0.04578,0.96423093,-0.177672885,0.12158172
1764435441.911208,-3.64714,0.10682,-0.42728,0.964047825,-0.176696325,0.122253105
1764435441.911208,-3.64714,0.10682,-0.42728,0.964047825,-0.176696325,0.122253105
1764435441.911208,-3.64714,0.10682,-0.42728,0.964047825,-0.176696325,0.122253105
1764435441.911208,-3.64714,0.10682,-0.42728,0.964047825,-0.176696325,0.122253105
1764435441.911208,-3.64714,0.10682,-0.42728,0.964047825,-0.176696325,0.122253105
1764435441.911208,-3.64714,0.10682,-0.42728,0.964047825,-0.176696325,0.122253105
1764435441.911208,-3.64714,0.10682,-0.42728,0.964047825,-0.176696325,0.122253105
1764435441.9129615,-3.64714,0.10682,-0.42728,0.964047825,-0.176696325,0.122253105
1764435441.9129615,-3.64714,0.10682,-0.42728,0.964047825,-0.176696325,0.122253105
1764435441.9129615,-3.64714,0.10682,-0.42728,0.964047825,-0.176696325,0.122253105
1764435441.9129615,-3.95234,-0.25942,-0.10682,0.96410886,-0.17712357,0.122253105
1764435441.9129615,-3.95234,-0.25942,-0.10682,0.96410886,-0.17712357,0.122253105
1764435441.960981,-3.95234,-0.25942,-0.10682,0.96410886,-0.17712357,0.122253105
1764435441.960981,-3.95234,-0.25942,-0.10682,0.96410886,-0.17712357,0.122253105
1764435441.960981,-3.95234,-0.25942,-0.10682,0.96410886,-0.17712357,0.122253105
1764435441.960981,-3.95234,-0.25942,-0.10682,0.96410886,-0.17712357,0.122253105
1764435441.960981,-3.95234,-0.25942,-0.10682,0.96410886,-0.17712357,0.122253105
1764435441.960981,-3.95234,-0.25942,-0.10682,0.96410886,-0.17712357,0.122253105
1764435441.960981,-3.95234,-0.25942,-0.10682,0.96410886,-0.17712357,0.122253105
