Timestamp,GyroX,GyroY,GyroZ,AccX,AccY,AccZ
1764434034.8671975,-0.48832,3.5098,0.93086,0.5856918600000001,-0.533506935,-0.62219079
1764434034.8671975,-0.48832,3.5098,0.93086,0.5856918600000001,-0.533506935,-0.62219079
1764434034.8671975,-0.48832,3.5098,0.93086,0.5856918600000001,-0.533506935,-0.62219079
1764434034.8671975,-0.48832,3.5098,0.93086,0.5856918600000001,-0.533506935,-0.62219079
1764434034.8671975,-0.48832,3.5098,0.93086,0.5856918600000001,-0.533506935,-0.62219079
1764434034.8671975,-0.6714399999999999,3.47928,0.74774,0.585874965,-0.533384865,-0.622373895
1764434034.8671975,-0.6714399999999999,3.47928,0.74774,0.585874965,-0.533384865,-0.622373895
1764434034.8671975,-0.6714399999999999,3.47928,0.74774,0.585874965,-0.533384865,-0.622373895
1764434034.8671975,-0.6714399999999999,3.47928,0.74774,0.585874965,-0.533384865,-0.622373895
1764434034.8671975,-0.6714399999999999,3.47928,0.74774,0.585874965,-0.533384865,-0.622373895
1764434034.8671975,-0.6714399999999999,3.47928,0.74774,0.585874965,-0.533384865,-0.622373895
1764434034.8671975,-0.6714399999999999,3.47928,0.74774,0.585874965,-0.533384865,-0.622373895
1764434034.8671975,-0.6714399999999999,3.47928,0.74774,0.585874965,-0.533384865,-0.622373895
1764434034.8671975,-0.6714399999999999,3.47928,0.74774,0.585874965,-0.533384865,-0.622373895
1764434034.8671975,-0.6714399999999999,3.47928,0.74774,0.585874965,-0.533384865,-0.622373895
1764434034.8671975,-0.41202,3.79974,0.5341,0.58581393,-0.532896585,-0.622862175
1764434034.8671975,-0.41202,3.79974,0.5341,0.58581393,-0.532896585,-0.622862175
1764434034.8671975,-0.41202,3.79974,0.5341,0.58581393,-0.532896585,-0.622862175
1764434034.8671975,-0.41202,3.79974,0.5341,0.58581393,-0.532896585,-0.622862175
1764434034.8671975,-0.41202,3.79974,0.5341,0.58581393,-0.532896585,-0.622862175
1764434034.8671975,-0.41202,3.79974,0.5341,0.58581393,-0.532896585,-0.622862175
1764434034.8671975,-0.41202,3.79974,0.5341,0.58581393,-0.532896585,-0.622862175
1764434034.8671975,-0.41202,3.79974,0.5341,0.58581393,-0.532896585,-0.622862175
1764434034.9122272,-0.41202,3.79974,0.5341,0.58581393,-0.532896585,-0.622862175
1764434034.9122272,-0.41202,3.79974,0.5341,0.58581393,-0.532896585,-0.622862175
1764434034.9122272,-0.73248,3.31142,0.51884,0.585264615,-0.533262795,-0.62243493
1764434034.9122272,-0.73248,3.31142,0.51884,0.585264615,-0.533262795,-0.62243493
1764434034.9122272,-0.73248,3.31142,0.51884,0.585264615,-0.533262795,-0.62243493
1764434034.9122272,-0.73248,3.31142,0.51884,0.585264615,-0.533262795,-0.62243493
1764434034.9122272,-0.73248,3.31142,0.51884,0.585264615,-0.533262795,-0.62243493
1764434034.9122272,-0.73248,3.31142,0.51884,0.585264615,-0.533262795,-0.62243493
1764434034.9122272,-0.73248,3.31142,0.51884,0.585264615,-0.533262795,-0.62243493
1764434034.9122272,-0.73248,3.31142,0.51884,0.585264615,-0.533262795,-0.62243493
1764434034.9122272,-0.73248,3.31142,0.51884,0.585264615,-0.533262795,-0.62243493
1764434034.9122272,-0.73248,3.31142,0.51884,0.585264615,-0.533262795,-0.62243493
1764434034.9122272,-0.5341,3.21986,0.54936,0.58483737,-0.533140725,-0.62170251
1764434034.9122272,-0.5341,3.21986,0.54936,0.58483737,-0.533140725,-0.62170251
1764434034.9122272,-0.5341,3.21986,0.54936,0.58483737,-0.533140725,-0.62170251
1764434034.9122272,-0.5341,3.21986,0.54936,0.58483737,-0.533140725,-0.62170251
1764434034.9122272,-0.5341,3.21986,0.54936,0.58483737,-0.533140725,-0.62170251
1764434034.9122272,-0.5341,3.21986,0.54936,0.58483737,-0.533140725,-0.62170251
1764434034.9122272,-0.5341,3.21986,0.54936,0.58483737,-0.533140725,-0.62170251
1764434034.9122272,-0.5341,3.21986,0.54936,0.58483737,-0.533140725,-0.62170251
1764434034.9122272,-0.5341,3.21986,0.54936,0.58483737,-0.533140725,-0.62170251
1764434034.9122272,-0.5341,3.21986,0.54936,0.58483737,-0.533140725,-0.62170251
1764434034.9122272,-0.56462,3.61662,0.10682,0.5846542650000001,-0.53356797,-0.62145837
1764434034.9122272,-0.56462,3.61662,0.10682,0.5846542650000001,-0.53356797,-0.62145837
1764434034.9608335,-0.56462,3.61662,0.10682,0.5846542650000001,-0.53356797,-0.62145837
1764434034.9608335,-0.56462,3.61662,0.10682,0.5846542650000001,-0.53356797,-0.62145837
1764434034.9608335,-0.56462,3.61662,0.10682,0.5846542650000001,-0.53356797,-0.62145837
1764434034.9608335,-0.56462,3.61662,0.10682,0.5846542650000001,-0.53356797,-0.62145837
1764434034.9608335,-0.56462,3.61662,0.10682,0.5846542650000001,-0.53356797,-0.62145837
1764434034.9608335,-0.56462,3.61662,0.10682,0.5846542650000001,-0.53356797,-0.62145837
1764434034.9608335,-0.56462,3.61662,0.10682,0.5846542650000001,-0.53356797,-0.62145837
1764434034.9608335,-0.56462,3.61662,0.10682,0.5846542650000001,-0.53356797,-0.62145837
1764434034.9618475,-0.59514,3.75396,0.24416,0.58410495,-0.533384865,-0.621763545
1764434034.9618475,-0.59514,3.75396,0.24416,0.58410495,-0.533384865,-0.621763545
1764434034.9618475,-0.59514,3.75396,0.24416,0.58410495,-0.533384865,-0.621763545
1764434034.9618475,-0.59514,3.75396,0.24416,0.58410495,-0.533384865,-0.621763545
1764434034.9618475,-0.59514,3.75396,0.24416,0.58410495,-0.533384865,-0.621763545
1764434034.9618475,-0.59514,3.75396,0.24416,0.58410495,-0.533384865,-0.621763545
1764434034.9618475,-0.59514,3.75396,0.24416,0.58410495,-0.533384865,-0.621763545
1764434034.9618475,-0.59514,3.75396,0.24416,0.58410495,-0.533384865,-0.621763545
1764434034.9618475,-0.59514,3.75396,0.24416,0.58410495,-0.533384865,-0.621763545
1764434034.9618475,-0.59514,3.75396,0.24416,0.58410495,-0.533384865,-0.621763545
1764434034.9618475,-0.5341,4.74586,0.54936,0.5836166700000001,-0.533384865,-0.621519405
1764434034.9618475,-0.5341,4.74586,0.54936,0.5836166700000001,-0.533384865,-0.621519405
1764434034.9618475,-0.5341,4.74586,0.54936,0.5836166700000001,-0.533384865,-0.621519405
1764434034.9618475,-0.5341,4.74586,0.54936,0.5836166700000001,-0.533384865,-0.621519405
1764434035.0074763,-0.5341,4.74586,0.54936,0.5836166700000001,-0.533384865,-0.621519405
1764434035.0074763,-0.5341,4.74586,0.54936,0.5836166700000001,-0.533384865,-0.621519405
1764434035.0074763,-0.5341,4.74586,0.54936,0.5836166700000001,-0.533384865,-0.621519405
1764434035.0079904,-0.5341,4.74586,0.54936,0.5836166700000001,-0.533384865,-0.621519405
1764434035.0079904,-0.5341,4.74586,0.54936,0.5836166700000001,-0.533384865,-0.621519405
1764434035.0079904,-0.5341,4.74586,0.54936,0.5836166700000001,-0.533384865,-0.621519405
1764434035.0079904,-0.47306,4.2728,0.763,0.58532565,-0.533506935,-0.621641475
1764434035.0079904,-0.47306,4.2728,0.763,0.58532565,-0.533506935,-0.621641475
1764434035.0079904,-0.47306,4.2728,0.763,0.58532565,-0.533506935,-0.621641475
1764434035.0079904,-0.47306,4.2728,0.763,0.58532565,-0.533506935,-0.621641475
1764434035.0079904,-0.47306,4.2728,0.763,0.58532565,-0.533506935,-0.621641475
1764434035.0079904,-0.47306,4.2728,0.763,0.58532565,-0.533506935,-0.621641475
1764434035.0079904,-0.47306,4.2728,0.763,0.58532565,-0.533506935,-0.621641475
1764434035.0079904,-0.47306,4.2728,0.763,0.58532565,-0.533506935,-0.621641475
1764434035.0079904,-0.47306,4.2728,0.763,0.58532565,-0.533506935,-0.621641475
1764434035.0079904,-0.47306,4.2728,0.763,0.58532565,-0.533506935,-0.621641475
1764434035.0079904,-0.8087799999999999,3.76922,0.62566,0.585630825,-0.533995215,-0.622618035
1764434035.0079904,-0.8087799999999999,3.76922,0.62566,0.585630825,-0.533995215,-0.622618035
1764434035.0079904,-0.8087799999999999,3.76922,0.62566,0.585630825,-0.533995215,-0.622618035
1764434035.0079904,-0.8087799999999999,3.76922,0.62566,0.585630825,-0.533995215,-0.622618035
1764434035.0079904,-0.8087799999999999,3.76922,0.62566,0.585630825,-0.533995215,-0.622618035
1764434035.0079904,-0.8087799999999999,3.76922,0.62566,0.585630825,-0.533995215,-0.622618035
1764434035.0079904,-0.8087799999999999,3.76922,0.62566,0.585630825,-0.533995215,-0.622618035
1764434035.0079904,-0.8087799999999999,3.76922,0.62566,0.585630825,-0.533995215,-0.622618035
1764434035.0518973,-0.8087799999999999,3.76922,0.62566,0.585630825,-0.533995215,-0.622618035
1764434035.0534384,-0.8087799999999999,3.76922,0.62566,0.585630825,-0.533995215,-0.622618035
1764434035.0534384,-0.9003399999999999,3.29616,0.44254,0.58544772,-0.5338121100000001,-0.62328942
1764434035.0534384,-0.9003399999999999,3.29616,0.44254,0.58544772,-0.5338121100000001,-0.62328942
1764434035.0534384,-0.9003399999999999,3.29616,0.44254,0.58544772,-0.5338121100000001,-0.62328942
1764434035.0534384,-0.9003399999999999,3.29616,0.44254,0.58544772,-0.5338121100000001,-0.62328942
1764434035.0534384,-0.9003399999999999,3.29616,0.44254,0.58544772,-0.5338121100000001,-0.62328942
1764434035.0534384,-0.9003399999999999,3.29616,0.44254,0.58544772,-0.5338121100000001,-0.62328942
1764434035.0534384,-0.9003399999999999,3.29616,0.44254,0.58544772,-0.5338121100000001,-0.62328942
1764434035.0534384,-0.9003399999999999,3.29616,0.44254,0.58544772,-0.5338121100000001,-0.62328942
1764434035.0534384,-0.9003399999999999,3.29616,0.44254,0.58544772,-0.5338121100000001,-0.62328942
1764434035.0534384,-0.9003399999999999,3.29616,0.44254,0.58544772,-0.5338121100000001,-0.62328942
1764434035.0534384,-0.96138,3.32668,1.08346,0.58483737,-0.53405625,-0.622862175
1764434035.0534384,-0.96138,3.32668,1.08346,0.58483737,-0.53405625,-0.622862175
1764434035.0534384,-0.96138,3.32668,1.08346,0.58483737,-0.53405625,-0.622862175
1764434035.0534384,-0.96138,3.32668,1.08346,0.58483737,-0.53405625,-0.622862175
1764434035.0534384,-0.96138,3.32668,1.08346,0.58483737,-0.53405625,-0.622862175
1764434035.0534384,-0.96138,3.32668,1.08346,0.58483737,-0.53405625,-0.622862175
1764434035.0534384,-0.96138,3.32668,1.08346,0.58483737,-0.53405625,-0.622862175
1764434035.0534384,-0.96138,3.32668,1.08346,0.58483737,-0.53405625,-0.622862175
1764434035.0554893,-0.96138,3.32668,1.08346,0.58483737,-0.53405625,-0.622862175
1764434035.0554893,-0.96138,3.32668,1.08346,0.58483737,-0.53405625,-0.622862175
1764434035.1002083,-0.48832,3.61662,0.5341,0.584776335,-0.53430039,-0.6218856150000001
1764434035.1002083,-0.48832,3.61662,0.5341,0.584776335,-0.53430039,-0.6218856150000001
1764434035.1002083,-0.48832,3.61662,0.5341,0.584776335,-0.53430039,-0.6218856150000001
1764434035.1002083,-0.48832,3.61662,0.5341,0.584776335,-0.53430039,-0.6218856150000001
1764434035.1002083,-0.48832,3.61662,0.5341,0.584776335,-0.53430039,-0.6218856150000001
1764434035.1002083,-0.48832,3.61662,0.5341,0.584776335,-0.53430039,-0.6218856150000001
1764434035.1002083,-0.48832,3.61662,0.5341,0.584776335,-0.53430039,-0.6218856150000001
1764434035.1002083,-0.48832,3.61662,0.5341,0.584776335,-0.53430039,-0.6218856150000001
1764434035.1002083,-0.48832,3.61662,0.5341,0.584776335,-0.53430039,-0.6218856150000001
1764434035.1002083,-0.48832,3.61662,0.5341,0.584776335,-0.53430039,-0.6218856150000001
1764434035.1002083,-0.6714399999999999,3.6624,0.8087799999999999,0.58495944,-0.533751075,-0.62194665
1764434035.1002083,-0.6714399999999999,3.6624,0.8087799999999999,0.58495944,-0.533751075,-0.62194665
1764434035.1002083,-0.6714399999999999,3.6624,0.8087799999999999,0.58495944,-0.533751075,-0.62194665
1764434035.1002083,-0.6714399999999999,3.6624,0.8087799999999999,0.58495944,-0.533751075,-0.62194665
1764434035.1002083,-0.6714399999999999,3.6624,0.8087799999999999,0.58495944,-0.533751075,-0.62194665
1764434035.1002083,-0.6714399999999999,3.6624,0.8087799999999999,0.58495944,-0.533751075,-0.62194665
1764434035.1002083,-0.6714399999999999,3.6624,0.8087799999999999,0.58495944,-0.533751075,-0.62194665
1764434035.1002083,-0.6714399999999999,3.6624,0.8087799999999999,0.58495944,-0.533751075,-0.62194665
1764434035.1012216,-0.6714399999999999,3.6624,0.8087799999999999,0.58495944,-0.533751075,-0.62194665
1764434035.1012216,-0.6714399999999999,3.6624,0.8087799999999999,0.58495944,-0.533751075,-0.62194665
1764434035.1012216,-0.57988,3.67766,0.96138,0.585508755,-0.53369004,-0.6218856150000001
1764434035.1012216,-0.57988,3.67766,0.96138,0.585508755,-0.53369004,-0.6218856150000001
1764434035.1012216,-0.57988,3.67766,0.96138,0.585508755,-0.53369004,-0.6218856150000001
1764434035.1012216,-0.57988,3.67766,0.96138,0.585508755,-0.53369004,-0.6218856150000001
1764434035.14541,-0.57988,3.67766,0.96138,0.585508755,-0.53369004,-0.6218856150000001
1764434035.14541,-0.57988,3.67766,0.96138,0.585508755,-0.53369004,-0.6218856150000001
1764434035.14541,-0.57988,3.67766,0.96138,0.585508755,-0.53369004,-0.6218856150000001
1764434035.14541,-0.57988,3.67766,0.96138,0.585508755,-0.53369004,-0.6218856150000001
1764434035.14541,-0.57988,3.67766,0.96138,0.585508755,-0.53369004,-0.6218856150000001
1764434035.14541,-0.57988,3.67766,0.96138,0.585508755,-0.53369004,-0.6218856150000001
1764434035.14541,-1.12924,3.08252,1.00716,0.585508755,-0.53369004,-0.622007685
1764434035.14541,-1.12924,3.08252,1.00716,0.585508755,-0.53369004,-0.622007685
1764434035.14541,-1.12924,3.08252,1.00716,0.585508755,-0.53369004,-0.622007685
1764434035.14541,-1.12924,3.08252,1.00716,0.585508755,-0.53369004,-0.622007685
1764434035.14541,-1.12924,3.08252,1.00716,0.585508755,-0.53369004,-0.622007685
1764434035.14541,-1.12924,3.08252,1.00716,0.585508755,-0.53369004,-0.622007685
1764434035.14541,-1.12924,3.08252,1.00716,0.585508755,-0.53369004,-0.622007685
1764434035.14541,-1.12924,3.08252,1.00716,0.585508755,-0.53369004,-0.622007685
1764434035.14541,-1.12924,3.08252,1.00716,0.585508755,-0.53369004,-0.622007685
1764434035.14541,-1.12924,3.08252,1.00716,0.585508755,-0.53369004,-0.622007685
1764434035.14541,-0.8698199999999999,3.44876,0.47306,0.585508755,-0.533384865,-0.621763545
1764434035.14541,-0.8698199999999999,3.44876,0.47306,0.585508755,-0.533384865,-0.621763545
1764434035.14541,-0.8698199999999999,3.44876,0.47306,0.585508755,-0.533384865,-0.621763545
1764434035.14541,-0.8698199999999999,3.44876,0.47306,0.585508755,-0.533384865,-0.621763545
1764434035.14541,-0.8698199999999999,3.44876,0.47306,0.585508755,-0.533384865,-0.621763545
1764434035.14541,-0.8698199999999999,3.44876,0.47306,0.585508755,-0.533384865,-0.621763545
1764434035.14541,-0.8698199999999999,3.44876,0.47306,0.585508755,-0.533384865,-0.621763545
1764434035.14541,-0.8698199999999999,3.44876,0.47306,0.585508755,-0.533384865,-0.621763545
1764434035.189568,-0.8698199999999999,3.44876,0.47306,0.585508755,-0.533384865,-0.621763545
1764434035.189568,-0.8698199999999999,3.44876,0.47306,0.585508755,-0.533384865,-0.621763545
1764434035.190606,-0.13734,3.60136,0.10682,0.5852035800000001,-0.532530375,-0.6218856150000001
1764434035.1916163,-0.13734,3.60136,0.10682,0.5852035800000001,-0.532530375,-0.6218856150000001
1764434035.1916163,-0.13734,3.60136,0.10682,0.5852035800000001,-0.532530375,-0.6218856150000001
1764434035.1916163,-0.13734,3.60136,0.10682,0.5852035800000001,-0.532530375,-0.6218856150000001
1764434035.1916163,-0.13734,3.60136,0.10682,0.5852035800000001,-0.532530375,-0.6218856150000001
1764434035.1916163,-0.13734,3.60136,0.10682,0.5852035800000001,-0.532530375,-0.6218856150000001
1764434035.1916163,-0.13734,3.60136,0.10682,0.5852035800000001,-0.532530375,-0.6218856150000001
1764434035.1916163,-0.13734,3.60136,0.10682,0.5852035800000001,-0.532530375,-0.6218856150000001
1764434035.1916163,-0.13734,3.60136,0.10682,0.5852035800000001,-0.532530375,-0.6218856150000001
1764434035.1916163,-0.13734,3.60136,0.10682,0.5852035800000001,-0.532530375,-0.6218856150000001
1764434035.1916163,-0.27468,3.76922,0.3051999999999999,0.58508151,-0.532896585,-0.62219079
1764434035.1916163,-0.27468,3.76922,0.3051999999999999,0.58508151,-0.532896585,-0.62219079
1764434035.1916163,-0.27468,3.76922,0.3051999999999999,0.58508151,-0.532896585,-0.62219079
1764434035.1916163,-0.27468,3.76922,0.3051999999999999,0.58508151,-0.532896585,-0.62219079
1764434035.1916163,-0.27468,3.76922,0.3051999999999999,0.58508151,-0.532896585,-0.62219079
1764434035.1916163,-0.27468,3.76922,0.3051999999999999,0.58508151,-0.532896585,-0.62219079
1764434035.1936536,-0.27468,3.76922,0.3051999999999999,0.58508151,-0.532896585,-0.62219079
1764434035.1936536,-0.27468,3.76922,0.3051999999999999,0.58508151,-0.532896585,-0.62219079
1764434035.1936536,-0.27468,3.76922,0.3051999999999999,0.58508151,-0.532896585,-0.62219079
1764434035.1936536,-0.27468,3.76922,0.3051999999999999,0.58508151,-0.532896585,-0.62219079
1764434035.2382617,-0.94612,3.5098,0.54936,0.5846542650000001,-0.532652445,-0.62194665
1764434035.2382617,-0.94612,3.5098,0.54936,0.5846542650000001,-0.532652445,-0.62194665
1764434035.2393026,-0.94612,3.5098,0.54936,0.5846542650000001,-0.532652445,-0.62194665
1764434035.2393026,-0.94612,3.5098,0.54936,0.5846542650000001,-0.532652445,-0.62194665
1764434035.2393026,-0.94612,3.5098,0.54936,0.5846542650000001,-0.532652445,-0.62194665
1764434035.2393026,-0.94612,3.5098,0.54936,0.5846542650000001,-0.532652445,-0.62194665
1764434035.2393026,-0.94612,3.5098,0.54936,0.5846542650000001,-0.532652445,-0.62194665
1764434035.2393026,-0.94612,3.5098,0.54936,0.5846542650000001,-0.532652445,-0.62194665
1764434035.2393026,-0.94612,3.5098,0.54936,0.5846542650000001,-0.532652445,-0.62194665
1764434035.2393026,-0.94612,3.5098,0.54936,0.5846542650000001,-0.532652445,-0.62194665
1764434035.2393026,-0.88508,3.67766,0.6409199999999999,0.584165985,-0.5334459,-0.62231286
1764434035.2393026,-0.88508,3.67766,0.6409199999999999,0.584165985,-0.5334459,-0.62231286
1764434035.2393026,-0.88508,3.67766,0.6409199999999999,0.584165985,-0.5334459,-0.62231286
1764434035.2393026,-0.88508,3.67766,0.6409199999999999,0.584165985,-0.5334459,-0.62231286
1764434035.2393026,-0.88508,3.67766,0.6409199999999999,0.584165985,-0.5334459,-0.62231286
1764434035.2393026,-0.88508,3.67766,0.6409199999999999,0.584165985,-0.5334459,-0.62231286
1764434035.2393026,-0.88508,3.67766,0.6409199999999999,0.584165985,-0.5334459,-0.62231286
1764434035.2393026,-0.88508,3.67766,0.6409199999999999,0.584165985,-0.5334459,-0.62231286
1764434035.2393026,-0.88508,3.67766,0.6409199999999999,0.584165985,-0.5334459,-0.62231286
1764434035.2393026,-0.88508,3.67766,0.6409199999999999,0.584165985,-0.5334459,-0.62231286
1764434035.2393026,-0.5341,3.84552,0.59514,0.5846542650000001,-0.533140725,-0.621641475
1764434035.2393026,-0.5341,3.84552,0.59514,0.5846542650000001,-0.533140725,-0.621641475
1764434035.2393026,-0.5341,3.84552,0.59514,0.5846542650000001,-0.533140725,-0.621641475
1764434035.2393026,-0.5341,3.84552,0.59514,0.5846542650000001,-0.533140725,-0.621641475
1764434035.283504,-0.5341,3.84552,0.59514,0.5846542650000001,-0.533140725,-0.621641475
1764434035.283504,-0.5341,3.84552,0.59514,0.5846542650000001,-0.533140725,-0.621641475
1764434035.283504,-0.5341,3.84552,0.59514,0.5846542650000001,-0.533140725,-0.621641475
1764434035.283504,-0.5341,3.84552,0.59514,0.5846542650000001,-0.533140725,-0.621641475
1764434035.283504,-0.5341,3.84552,0.59514,0.5846542650000001,-0.533140725,-0.621641475
1764434035.283504,-0.5341,3.84552,0.59514,0.5846542650000001,-0.533140725,-0.621641475
1764434035.283504,-0.8698199999999999,3.83026,0.62566,0.585020475,-0.5334459,-0.621519405
1764434035.283504,-0.8698199999999999,3.83026,0.62566,0.585020475,-0.5334459,-0.621519405
1764434035.284016,-0.8698199999999999,3.83026,0.62566,0.585020475,-0.5334459,-0.621519405
1764434035.284016,-0.8698199999999999,3.83026,0.62566,0.585020475,-0.5334459,-0.621519405
1764434035.284016,-0.8698199999999999,3.83026,0.62566,0.585020475,-0.5334459,-0.621519405
1764434035.284016,-0.8698199999999999,3.83026,0.62566,0.585020475,-0.5334459,-0.621519405
1764434035.284016,-0.8698199999999999,3.83026,0.62566,0.585020475,-0.5334459,-0.621519405
1764434035.284016,-0.8698199999999999,3.83026,0.62566,0.585020475,-0.5334459,-0.621519405
1764434035.284016,-0.8698199999999999,3.83026,0.62566,0.585020475,-0.5334459,-0.621519405
1764434035.284016,-0.8698199999999999,3.83026,0.62566,0.585020475,-0.5334459,-0.621519405
1764434035.2850602,-1.17502,3.815,0.79352,0.5846542650000001,-0.5334459,-0.6218856150000001
1764434035.2850602,-1.17502,3.815,0.79352,0.5846542650000001,-0.5334459,-0.6218856150000001
1764434035.2850602,-1.17502,3.815,0.79352,0.5846542650000001,-0.5334459,-0.6218856150000001
1764434035.2850602,-1.17502,3.815,0.79352,0.5846542650000001,-0.5334459,-0.6218856150000001
1764434035.2850602,-1.17502,3.815,0.79352,0.5846542650000001,-0.5334459,-0.6218856150000001
1764434035.2850602,-1.17502,3.815,0.79352,0.5846542650000001,-0.5334459,-0.6218856150000001
1764434035.3357828,-1.17502,3.815,0.79352,0.5846542650000001,-0.5334459,-0.6218856150000001
1764434035.3357828,-1.17502,3.815,0.79352,0.5846542650000001,-0.5334459,-0.6218856150000001
1764434035.3357828,-1.17502,3.815,0.79352,0.5846542650000001,-0.5334459,-0.6218856150000001
1764434035.3357828,-1.17502,3.815,0.79352,0.5846542650000001,-0.5334459,-0.6218856150000001
1764434035.3357828,-0.6714399999999999,4.059159999999999,0.4578,0.584898405,-0.53307969,-0.62219079
1764434035.3357828,-0.6714399999999999,4.059159999999999,0.4578,0.584898405,-0.53307969,-0.62219079
1764434035.3357828,-0.6714399999999999,4.059159999999999,0.4578,0.584898405,-0.53307969,-0.62219079
1764434035.3357828,-0.6714399999999999,4.059159999999999,0.4578,0.584898405,-0.53307969,-0.62219079
1764434035.3357828,-0.6714399999999999,4.059159999999999,0.4578,0.584898405,-0.53307969,-0.62219079
1764434035.3357828,-0.6714399999999999,4.059159999999999,0.4578,0.584898405,-0.53307969,-0.62219079
1764434035.3357828,-0.6714399999999999,4.059159999999999,0.4578,0.584898405,-0.53307969,-0.62219079
1764434035.3357828,-0.6714399999999999,4.059159999999999,0.4578,0.584898405,-0.53307969,-0.62219079
1764434035.3357828,-0.6714399999999999,4.059159999999999,0.4578,0.584898405,-0.53307969,-0.62219079
1764434035.3357828,-0.6714399999999999,4.059159999999999,0.4578,0.584898405,-0.53307969,-0.62219079
1764434035.3357828,-0.8087799999999999,4.059159999999999,0.48832,0.585264615,-0.53356797,-0.621763545
1764434035.3357828,-0.8087799999999999,4.059159999999999,0.48832,0.585264615,-0.53356797,-0.621763545
1764434035.3357828,-0.8087799999999999,4.059159999999999,0.48832,0.585264615,-0.53356797,-0.621763545
1764434035.3357828,-0.8087799999999999,4.059159999999999,0.48832,0.585264615,-0.53356797,-0.621763545
1764434035.3357828,-0.8087799999999999,4.059159999999999,0.48832,0.585264615,-0.53356797,-0.621763545
1764434035.3357828,-0.8087799999999999,4.059159999999999,0.48832,0.585264615,-0.53356797,-0.621763545
1764434035.3357828,-0.8087799999999999,4.059159999999999,0.48832,0.585264615,-0.53356797,-0.621763545
1764434035.3357828,-0.8087799999999999,4.059159999999999,0.48832,0.585264615,-0.53356797,-0.621763545
1764434035.3357828,-0.8087799999999999,4.059159999999999,0.48832,0.585264615,-0.53356797,-0.621763545
1764434035.3367765,-0.8087799999999999,4.059159999999999,0.48832,0.585264615,-0.53356797,-0.621763545
1764434035.380971,-0.24416,3.29616,0.6103999999999999,0.585630825,-0.53393418,-0.62219079
1764434035.380971,-0.24416,3.29616,0.6103999999999999,0.585630825,-0.53393418,-0.62219079
1764434035.380971,-0.24416,3.29616,0.6103999999999999,0.585630825,-0.53393418,-0.62219079
1764434035.380971,-0.24416,3.29616,0.6103999999999999,0.585630825,-0.53393418,-0.62219079
1764434035.380971,-0.24416,3.29616,0.6103999999999999,0.585630825,-0.53393418,-0.62219079
1764434035.380971,-0.24416,3.29616,0.6103999999999999,0.585630825,-0.53393418,-0.62219079
1764434035.380971,-0.24416,3.29616,0.6103999999999999,0.585630825,-0.53393418,-0.62219079
1764434035.380971,-0.24416,3.29616,0.6103999999999999,0.585630825,-0.53393418,-0.62219079
1764434035.380971,-0.24416,3.29616,0.6103999999999999,0.585630825,-0.53393418,-0.62219079
1764434035.380971,-0.24416,3.29616,0.6103999999999999,0.585630825,-0.53393418,-0.62219079
1764434035.380971,-0.73248,3.86078,0.50358,0.585936,-0.533751075,-0.62219079
1764434035.380971,-0.73248,3.86078,0.50358,0.585936,-0.533751075,-0.62219079
1764434035.380971,-0.73248,3.86078,0.50358,0.585936,-0.533751075,-0.62219079
1764434035.380971,-0.73248,3.86078,0.50358,0.585936,-0.533751075,-0.62219079
1764434035.380971,-0.73248,3.86078,0.50358,0.585936,-0.533751075,-0.62219079
1764434035.380971,-0.73248,3.86078,0.50358,0.585936,-0.533751075,-0.62219079
1764434035.380971,-0.73248,3.86078,0.50358,0.585936,-0.533751075,-0.62219079
1764434035.380971,-0.73248,3.86078,0.50358,0.585936,-0.533751075,-0.62219079
1764434035.380971,-0.73248,3.86078,0.50358,0.585936,-0.533751075,-0.62219079
1764434035.380971,-0.73248,3.86078,0.50358,0.585936,-0.533751075,-0.62219079
1764434035.380971,-1.02242,3.54032,0.5341,0.58581393,-0.53405625,-0.62267907
1764434035.380971,-1.02242,3.54032,0.5341,0.58581393,-0.53405625,-0.62267907
1764434035.380971,-1.02242,3.54032,0.5341,0.58581393,-0.53405625,-0.62267907
1764434035.380971,-1.02242,3.54032,0.5341,0.58581393,-0.53405625,-0.62267907
1764434035.4255683,-1.02242,3.54032,0.5341,0.58581393,-0.53405625,-0.62267907
1764434035.4255683,-1.02242,3.54032,0.5341,0.58581393,-0.53405625,-0.62267907
1764434035.4255683,-1.02242,3.54032,0.5341,0.58581393,-0.53405625,-0.62267907
1764434035.4255683,-1.02242,3.54032,0.5341,0.58581393,-0.53405625,-0.62267907
1764434035.4255683,-1.02242,3.54032,0.5341,0.58581393,-0.53405625,-0.62267907
1764434035.4255683,-1.02242,3.54032,0.5341,0.58581393,-0.53405625,-0.62267907
1764434035.4266045,-1.00716,3.29616,0.6409199999999999,0.5856918600000001,-0.53393418,-0.62280114
1764434035.4266045,-1.00716,3.29616,0.6409199999999999,0.5856918600000001,-0.53393418,-0.62280114
1764434035.4266045,-1.00716,3.29616,0.6409199999999999,0.5856918600000001,-0.53393418,-0.62280114
1764434035.4266045,-1.00716,3.29616,0.6409199999999999,0.5856918600000001,-0.53393418,-0.62280114
1764434035.4266045,-1.00716,3.29616,0.6409199999999999,0.5856918600000001,-0.53393418,-0.62280114
1764434035.4266045,-1.00716,3.29616,0.6409199999999999,0.5856918600000001,-0.53393418,-0.62280114
1764434035.4266045,-1.00716,3.29616,0.6409199999999999,0.5856918600000001,-0.53393418,-0.62280114
1764434035.4266045,-1.00716,3.29616,0.6409199999999999,0.5856918600000001,-0.53393418,-0.62280114
1764434035.4266045,-1.00716,3.29616,0.6409199999999999,0.5856918600000001,-0.53393418,-0.62280114
1764434035.4266045,-1.00716,3.29616,0.6409199999999999,0.5856918600000001,-0.53393418,-0.62280114
1764434035.4266045,-0.9156,4.02864,0.6409199999999999,0.585264615,-0.53356797,-0.622373895
1764434035.4266045,-0.9156,4.02864,0.6409199999999999,0.585264615,-0.53356797,-0.622373895
1764434035.4266045,-0.9156,4.02864,0.6409199999999999,0.585264615,-0.53356797,-0.622373895
1764434035.4266045,-0.9156,4.02864,0.6409199999999999,0.585264615,-0.53356797,-0.622373895
1764434035.427168,-0.9156,4.02864,0.6409199999999999,0.585264615,-0.53356797,-0.622373895
1764434035.427168,-0.9156,4.02864,0.6409199999999999,0.585264615,-0.53356797,-0.622373895
1764434035.427168,-0.9156,4.02864,0.6409199999999999,0.585264615,-0.53356797,-0.622373895
1764434035.427168,-0.9156,4.02864,0.6409199999999999,0.585264615,-0.53356797,-0.622373895
1764434035.472448,-0.9156,4.02864,0.6409199999999999,0.585264615,-0.53356797,-0.622373895
1764434035.472448,-0.9156,4.02864,0.6409199999999999,0.585264615,-0.53356797,-0.622373895
1764434035.472448,-0.8087799999999999,3.69292,0.5341,0.585264615,-0.533629005,-0.62219079
1764434035.472448,-0.8087799999999999,3.69292,0.5341,0.585264615,-0.533629005,-0.62219079
1764434035.472448,-0.8087799999999999,3.69292,0.5341,0.585264615,-0.533629005,-0.62219079
1764434035.472448,-0.8087799999999999,3.69292,0.5341,0.585264615,-0.533629005,-0.62219079
1764434035.472448,-0.8087799999999999,3.69292,0.5341,0.585264615,-0.533629005,-0.62219079
1764434035.472448,-0.8087799999999999,3.69292,0.5341,0.585264615,-0.533629005,-0.62219079
1764434035.472448,-0.8087799999999999,3.69292,0.5341,0.585264615,-0.533629005,-0.62219079
1764434035.472448,-0.8087799999999999,3.69292,0.5341,0.585264615,-0.533629005,-0.62219079
1764434035.472448,-0.8087799999999999,3.69292,0.5341,0.585264615,-0.533629005,-0.62219079
1764434035.472448,-0.8087799999999999,3.69292,0.5341,0.585264615,-0.533629005,-0.62219079
1764434035.472448,-0.763,3.52506,0.6714399999999999,0.585142545,-0.5334459,-0.6218856150000001
1764434035.472448,-0.763,3.52506,0.6714399999999999,0.585142545,-0.5334459,-0.6218856150000001
1764434035.4734504,-0.763,3.52506,0.6714399999999999,0.585142545,-0.5334459,-0.6218856150000001
1764434035.4734504,-0.763,3.52506,0.6714399999999999,0.585142545,-0.5334459,-0.6218856150000001
1764434035.4734504,-0.763,3.52506,0.6714399999999999,0.585142545,-0.5334459,-0.6218856150000001
1764434035.4734504,-0.763,3.52506,0.6714399999999999,0.585142545,-0.5334459,-0.6218856150000001
1764434035.4739635,-0.763,3.52506,0.6714399999999999,0.585142545,-0.5334459,-0.6218856150000001
1764434035.4739635,-0.763,3.52506,0.6714399999999999,0.585142545,-0.5334459,-0.6218856150000001
1764434035.4739635,-0.763,3.52506,0.6714399999999999,0.585142545,-0.5334459,-0.6218856150000001
1764434035.4739635,-0.763,3.52506,0.6714399999999999,0.585142545,-0.5334459,-0.6218856150000001
1764434035.5184224,-0.9003399999999999,3.75396,0.51884,0.58532565,-0.53307969,-0.6213363000000001
1764434035.5184224,-0.9003399999999999,3.75396,0.51884,0.58532565,-0.53307969,-0.6213363000000001
1764434035.5184224,-0.9003399999999999,3.75396,0.51884,0.58532565,-0.53307969,-0.6213363000000001
1764434035.5184224,-0.9003399999999999,3.75396,0.51884,0.58532565,-0.53307969,-0.6213363000000001
1764434035.5194366,-0.9003399999999999,3.75396,0.51884,0.58532565,-0.53307969,-0.6213363000000001
1764434035.5194366,-0.9003399999999999,3.75396,0.51884,0.58532565,-0.53307969,-0.6213363000000001
1764434035.5194366,-0.9003399999999999,3.75396,0.51884,0.58532565,-0.53307969,-0.6213363000000001
1764434035.5194366,-0.9003399999999999,3.75396,0.51884,0.58532565,-0.53307969,-0.6213363000000001
1764434035.5194366,-0.9003399999999999,3.75396,0.51884,0.58532565,-0.53307969,-0.6213363000000001
1764434035.5194366,-0.9003399999999999,3.75396,0.51884,0.58532565,-0.53307969,-0.6213363000000001
1764434035.5194366,-0.65618,3.60136,0.79352,0.58544772,-0.53356797,-0.62182458
1764434035.5194366,-0.65618,3.60136,0.79352,0.58544772,-0.53356797,-0.62182458
1764434035.5194366,-0.65618,3.60136,0.79352,0.58544772,-0.53356797,-0.62182458
1764434035.5194366,-0.65618,3.60136,0.79352,0.58544772,-0.53356797,-0.62182458
1764434035.5194366,-0.65618,3.60136,0.79352,0.58544772,-0.53356797,-0.62182458
1764434035.5194366,-0.65618,3.60136,0.79352,0.58544772,-0.53356797,-0.62182458
1764434035.5194366,-0.65618,3.60136,0.79352,0.58544772,-0.53356797,-0.62182458
1764434035.5194366,-0.65618,3.60136,0.79352,0.58544772,-0.53356797,-0.62182458
1764434035.5194366,-0.65618,3.60136,0.79352,0.58544772,-0.53356797,-0.62182458
1764434035.5194366,-0.65618,3.60136,0.79352,0.58544772,-0.53356797,-0.62182458
1764434035.5194366,-0.8698199999999999,3.95234,0.8698199999999999,0.585752895,-0.533629005,-0.62206872
1764434035.5194366,-0.8698199999999999,3.95234,0.8698199999999999,0.585752895,-0.533629005,-0.62206872
1764434035.5194366,-0.8698199999999999,3.95234,0.8698199999999999,0.585752895,-0.533629005,-0.62206872
1764434035.5194366,-0.8698199999999999,3.95234,0.8698199999999999,0.585752895,-0.533629005,-0.62206872
1764434035.565872,-0.8698199999999999,3.95234,0.8698199999999999,0.585752895,-0.533629005,-0.62206872
1764434035.565872,-0.8698199999999999,3.95234,0.8698199999999999,0.585752895,-0.533629005,-0.62206872
1764434035.565872,-0.8698199999999999,3.95234,0.8698199999999999,0.585752895,-0.533629005,-0.62206872
1764434035.565872,-0.8698199999999999,3.95234,0.8698199999999999,0.585752895,-0.533629005,-0.62206872
1764434035.565872,-0.8698199999999999,3.95234,0.8698199999999999,0.585752895,-0.533629005,-0.62206872
1764434035.565872,-0.8698199999999999,3.95234,0.8698199999999999,0.585752895,-0.533629005,-0.62206872
1764434035.565872,-1.00716,3.6624,0.94612,0.585142545,-0.533629005,-0.622373895
1764434035.565872,-1.00716,3.6624,0.94612,0.585142545,-0.533629005,-0.622373895
1764434035.565872,-1.00716,3.6624,0.94612,0.585142545,-0.533629005,-0.622373895
1764434035.565872,-1.00716,3.6624,0.94612,0.585142545,-0.533629005,-0.622373895
1764434035.565872,-1.00716,3.6624,0.94612,0.585142545,-0.533629005,-0.622373895
1764434035.565872,-1.00716,3.6624,0.94612,0.585142545,-0.533629005,-0.622373895
1764434035.565872,-1.00716,3.6624,0.94612,0.585142545,-0.533629005,-0.622373895
1764434035.565872,-1.00716,3.6624,0.94612,0.585142545,-0.533629005,-0.622373895
1764434035.565872,-1.00716,3.6624,0.94612,0.585142545,-0.533629005,-0.622373895
1764434035.565872,-1.00716,3.6624,0.94612,0.585142545,-0.533629005,-0.622373895
1764434035.565872,-0.79352,3.49454,0.54936,0.58556979,-0.53332383,-0.622557
1764434035.565872,-0.79352,3.49454,0.54936,0.58556979,-0.53332383,-0.622557
1764434035.565872,-0.79352,3.49454,0.54936,0.58556979,-0.53332383,-0.622557
1764434035.565872,-0.79352,3.49454,0.54936,0.58556979,-0.53332383,-0.622557
1764434035.565872,-0.79352,3.49454,0.54936,0.58556979,-0.53332383,-0.622557
1764434035.565872,-0.79352,3.49454,0.54936,0.58556979,-0.53332383,-0.622557
1764434035.612615,-0.79352,3.49454,0.54936,0.58556979,-0.53332383,-0.622557
1764434035.612615,-0.79352,3.49454,0.54936,0.58556979,-0.53332383,-0.622557
1764434035.612615,-0.79352,3.49454,0.54936,0.58556979,-0.53332383,-0.622557
1764434035.612615,-0.79352,3.49454,0.54936,0.58556979,-0.53332383,-0.622557
1764434035.612615,-0.48832,3.1283,0.5341,0.58532565,-0.53295762,-0.62304528
1764434035.612615,-0.48832,3.1283,0.5341,0.58532565,-0.53295762,-0.62304528
1764434035.613611,-0.48832,3.1283,0.5341,0.58532565,-0.53295762,-0.62304528
1764434035.613611,-0.48832,3.1283,0.5341,0.58532565,-0.53295762,-0.62304528
1764434035.613611,-0.48832,3.1283,0.5341,0.58532565,-0.53295762,-0.62304528
1764434035.613611,-0.48832,3.1283,0.5341,0.58532565,-0.53295762,-0.62304528
1764434035.613611,-0.48832,3.1283,0.5341,0.58532565,-0.53295762,-0.62304528
1764434035.613611,-0.48832,3.1283,0.5341,0.58532565,-0.53295762,-0.62304528
1764434035.613611,-0.48832,3.1283,0.5341,0.58532565,-0.53295762,-0.62304528
1764434035.613611,-0.48832,3.1283,0.5341,0.58532565,-0.53295762,-0.62304528
1764434035.613611,-0.5341,3.3572,0.47306,0.585142545,-0.533140725,-0.62194665
1764434035.613611,-0.5341,3.3572,0.47306,0.585142545,-0.533140725,-0.62194665
1764434035.613611,-0.5341,3.3572,0.47306,0.585142545,-0.533140725,-0.62194665
1764434035.613611,-0.5341,3.3572,0.47306,0.585142545,-0.533140725,-0.62194665
1764434035.613611,-0.5341,3.3572,0.47306,0.585142545,-0.533140725,-0.62194665
1764434035.613611,-0.5341,3.3572,0.47306,0.585142545,-0.533140725,-0.62194665
1764434035.613611,-0.5341,3.3572,0.47306,0.585142545,-0.533140725,-0.62194665
1764434035.613611,-0.5341,3.3572,0.47306,0.585142545,-0.533140725,-0.62194665
1764434035.613611,-0.5341,3.3572,0.47306,0.585142545,-0.533140725,-0.62194665
1764434035.6141224,-0.5341,3.3572,0.47306,0.585142545,-0.533140725,-0.62194665
1764434035.658785,-0.56462,3.17408,0.7019599999999999,0.584776335,-0.53320176,-0.62219079
1764434035.658785,-0.56462,3.17408,0.7019599999999999,0.584776335,-0.53320176,-0.62219079
1764434035.658785,-0.56462,3.17408,0.7019599999999999,0.584776335,-0.53320176,-0.62219079
1764434035.658785,-0.56462,3.17408,0.7019599999999999,0.584776335,-0.53320176,-0.62219079
1764434035.6597826,-0.56462,3.17408,0.7019599999999999,0.584776335,-0.53320176,-0.62219079
1764434035.6597826,-0.56462,3.17408,0.7019599999999999,0.584776335,-0.53320176,-0.62219079
1764434035.6597826,-0.56462,3.17408,0.7019599999999999,0.584776335,-0.53320176,-0.62219079
1764434035.6597826,-0.56462,3.17408,0.7019599999999999,0.584776335,-0.53320176,-0.62219079
1764434035.6597826,-0.56462,3.17408,0.7019599999999999,0.584776335,-0.53320176,-0.62219079
1764434035.6597826,-0.56462,3.17408,0.7019599999999999,0.584776335,-0.53320176,-0.62219079
1764434035.6597826,-1.17502,3.815,0.3815,0.584288055,-0.533140725,-0.62194665
1764434035.6597826,-1.17502,3.815,0.3815,0.584288055,-0.533140725,-0.62194665
1764434035.6597826,-1.17502,3.815,0.3815,0.584288055,-0.533140725,-0.62194665
1764434035.6597826,-1.17502,3.815,0.3815,0.584288055,-0.533140725,-0.62194665
1764434035.6597826,-1.17502,3.815,0.3815,0.584288055,-0.533140725,-0.62194665
1764434035.6597826,-1.17502,3.815,0.3815,0.584288055,-0.533140725,-0.62194665
1764434035.6597826,-1.17502,3.815,0.3815,0.584288055,-0.533140725,-0.62194665
1764434035.6597826,-1.17502,3.815,0.3815,0.584288055,-0.533140725,-0.62194665
1764434035.6607826,-1.17502,3.815,0.3815,0.584288055,-0.533140725,-0.62194665
1764434035.6607826,-1.17502,3.815,0.3815,0.584288055,-0.533140725,-0.62194665
1764434035.6607826,-0.9919,3.90656,0.6867,0.58495944,-0.533506935,-0.621275265
1764434035.6607826,-0.9919,3.90656,0.6867,0.58495944,-0.533506935,-0.621275265
1764434035.6607826,-0.9919,3.90656,0.6867,0.58495944,-0.533506935,-0.621275265
1764434035.6607826,-0.9919,3.90656,0.6867,0.58495944,-0.533506935,-0.621275265
1764434035.702326,-0.9919,3.90656,0.6867,0.58495944,-0.533506935,-0.621275265
1764434035.702326,-0.9919,3.90656,0.6867,0.58495944,-0.533506935,-0.621275265
1764434035.702326,-0.9919,3.90656,0.6867,0.58495944,-0.533506935,-0.621275265
1764434035.702326,-0.9919,3.90656,0.6867,0.58495944,-0.533506935,-0.621275265
1764434035.702326,-0.9919,3.90656,0.6867,0.58495944,-0.533506935,-0.621275265
1764434035.702326,-0.9919,3.90656,0.6867,0.58495944,-0.533506935,-0.621275265
1764434035.702326,-0.6409199999999999,7.782599999999999,0.96138,0.584898405,-0.533629005,-0.62109216
1764434035.702326,-0.6409199999999999,7.782599999999999,0.96138,0.584898405,-0.533629005,-0.62109216
1764434035.702326,-0.6409199999999999,7.782599999999999,0.96138,0.584898405,-0.533629005,-0.62109216
1764434035.702326,-0.6409199999999999,7.782599999999999,0.96138,0.584898405,-0.533629005,-0.62109216
1764434035.7033255,-0.6409199999999999,7.782599999999999,0.96138,0.584898405,-0.533629005,-0.62109216
1764434035.7033255,-0.6409199999999999,7.782599999999999,0.96138,0.584898405,-0.533629005,-0.62109216
1764434035.7038343,-0.6409199999999999,7.782599999999999,0.96138,0.584898405,-0.533629005,-0.62109216
1764434035.7038343,-0.6409199999999999,7.782599999999999,0.96138,0.584898405,-0.533629005,-0.62109216
1764434035.7038343,-0.6409199999999999,7.782599999999999,0.96138,0.584898405,-0.533629005,-0.62109216
1764434035.704879,-0.6409199999999999,7.782599999999999,0.96138,0.584898405,-0.533629005,-0.62109216
1764434035.704879,-0.9156,4.16598,0.88508,0.58581393,-0.53393418,-0.62158044
1764434035.704879,-0.9156,4.16598,0.88508,0.58581393,-0.53393418,-0.62158044
1764434035.704879,-0.9156,4.16598,0.88508,0.58581393,-0.53393418,-0.62158044
1764434035.705874,-0.9156,4.16598,0.88508,0.58581393,-0.53393418,-0.62158044
1764434035.705874,-0.9156,4.16598,0.88508,0.58581393,-0.53393418,-0.62158044
1764434035.705874,-0.9156,4.16598,0.88508,0.58581393,-0.53393418,-0.62158044
1764434035.750731,-0.9156,4.16598,0.88508,0.58581393,-0.53393418,-0.62158044
1764434035.750731,-0.9156,4.16598,0.88508,0.58581393,-0.53393418,-0.62158044
1764434035.750731,-0.9156,4.16598,0.88508,0.58581393,-0.53393418,-0.62158044
1764434035.750731,-0.9156,4.16598,0.88508,0.58581393,-0.53393418,-0.62158044
1764434035.750731,-1.2208,3.21986,0.7019599999999999,0.586363245,-0.533262795,-0.62206872
1764434035.750731,-1.2208,3.21986,0.7019599999999999,0.586363245,-0.533262795,-0.62206872
1764434035.750731,-1.2208,3.21986,0.7019599999999999,0.586363245,-0.533262795,-0.62206872
1764434035.750731,-1.2208,3.21986,0.7019599999999999,0.586363245,-0.533262795,-0.62206872
1764434035.750731,-1.2208,3.21986,0.7019599999999999,0.586363245,-0.533262795,-0.62206872
1764434035.750731,-1.2208,3.21986,0.7019599999999999,0.586363245,-0.533262795,-0.62206872
1764434035.750731,-1.2208,3.21986,0.7019599999999999,0.586363245,-0.533262795,-0.62206872
1764434035.750731,-1.2208,3.21986,0.7019599999999999,0.586363245,-0.533262795,-0.62206872
1764434035.750731,-1.2208,3.21986,0.7019599999999999,0.586363245,-0.533262795,-0.62206872
1764434035.750731,-1.2208,3.21986,0.7019599999999999,0.586363245,-0.533262795,-0.62206872
1764434035.750731,-1.11398,3.52506,0.10682,0.585630825,-0.533262795,-0.622495965
1764434035.7517302,-1.11398,3.52506,0.10682,0.585630825,-0.533262795,-0.622495965
1764434035.7517302,-1.11398,3.52506,0.10682,0.585630825,-0.533262795,-0.622495965
1764434035.7517302,-1.11398,3.52506,0.10682,0.585630825,-0.533262795,-0.622495965
1764434035.7517302,-1.11398,3.52506,0.10682,0.585630825,-0.533262795,-0.622495965
1764434035.7517302,-1.11398,3.52506,0.10682,0.585630825,-0.533262795,-0.622495965
1764434035.7517302,-1.11398,3.52506,0.10682,0.585630825,-0.533262795,-0.622495965
1764434035.7517302,-1.11398,3.52506,0.10682,0.585630825,-0.533262795,-0.622495965
1764434035.7965498,-1.11398,3.52506,0.10682,0.585630825,-0.533262795,-0.622495965
1764434035.797579,-1.11398,3.52506,0.10682,0.585630825,-0.533262795,-0.622495965
1764434035.797579,-1.57178,3.17408,0.62566,0.5852035800000001,-0.53320176,-0.622373895
1764434035.797579,-1.57178,3.17408,0.62566,0.5852035800000001,-0.53320176,-0.622373895
1764434035.797579,-1.57178,3.17408,0.62566,0.5852035800000001,-0.53320176,-0.622373895
1764434035.7985716,-1.57178,3.17408,0.62566,0.5852035800000001,-0.53320176,-0.622373895
1764434035.7985716,-1.57178,3.17408,0.62566,0.5852035800000001,-0.53320176,-0.622373895
1764434035.7985716,-1.57178,3.17408,0.62566,0.5852035800000001,-0.53320176,-0.622373895
1764434035.7985716,-1.57178,3.17408,0.62566,0.5852035800000001,-0.53320176,-0.622373895
1764434035.7985716,-1.57178,3.17408,0.62566,0.5852035800000001,-0.53320176,-0.622373895
1764434035.7995722,-1.57178,3.17408,0.62566,0.5852035800000001,-0.53320176,-0.622373895
1764434035.7995722,-1.57178,3.17408,0.62566,0.5852035800000001,-0.53320176,-0.622373895
1764434035.7995722,-1.55652,3.49454,0.94612,0.584776335,-0.533629005,-0.62194665
1764434035.7995722,-1.55652,3.49454,0.94612,0.584776335,-0.533629005,-0.62194665
1764434035.8005714,-1.55652,3.49454,0.94612,0.584776335,-0.533629005,-0.62194665
1764434035.8005714,-1.55652,3.49454,0.94612,0.584776335,-0.533629005,-0.62194665
1764434035.8005714,-1.55652,3.49454,0.94612,0.584776335,-0.533629005,-0.62194665
1764434035.8005714,-1.55652,3.49454,0.94612,0.584776335,-0.533629005,-0.62194665
1764434035.8005714,-1.55652,3.49454,0.94612,0.584776335,-0.533629005,-0.62194665
1764434035.8005714,-1.55652,3.49454,0.94612,0.584776335,-0.533629005,-0.62194665
1764434035.8015802,-1.55652,3.49454,0.94612,0.584776335,-0.533629005,-0.62194665
1764434035.8015802,-1.55652,3.49454,0.94612,0.584776335,-0.533629005,-0.62194665
1764434035.8015802,-1.23606,3.6624,0.82404,0.585386685,-0.533262795,-0.6218856150000001
1764434035.8015802,-1.23606,3.6624,0.82404,0.585386685,-0.533262795,-0.6218856150000001
1764434035.841991,-1.23606,3.6624,0.82404,0.585386685,-0.533262795,-0.6218856150000001
1764434035.841991,-1.23606,3.6624,0.82404,0.585386685,-0.533262795,-0.6218856150000001
1764434035.841991,-1.23606,3.6624,0.82404,0.585386685,-0.533262795,-0.6218856150000001
1764434035.841991,-1.23606,3.6624,0.82404,0.585386685,-0.533262795,-0.6218856150000001
1764434035.841991,-1.23606,3.6624,0.82404,0.585386685,-0.533262795,-0.6218856150000001
1764434035.8435638,-1.23606,3.6624,0.82404,0.585386685,-0.533262795,-0.6218856150000001
1764434035.8435638,-1.23606,3.6624,0.82404,0.585386685,-0.533262795,-0.6218856150000001
1764434035.8435638,-1.23606,3.6624,0.82404,0.585386685,-0.533262795,-0.6218856150000001
1764434035.8435638,-1.35814,3.14356,0.77826,0.585874965,-0.532652445,-0.62158044
1764434035.8435638,-1.35814,3.14356,0.77826,0.585874965,-0.532652445,-0.62158044
1764434035.8435638,-1.35814,3.14356,0.77826,0.585874965,-0.532652445,-0.62158044
1764434035.8435638,-1.35814,3.14356,0.77826,0.585874965,-0.532652445,-0.62158044
1764434035.8435638,-1.35814,3.14356,0.77826,0.585874965,-0.532652445,-0.62158044
1764434035.8435638,-1.35814,3.14356,0.77826,0.585874965,-0.532652445,-0.62158044
1764434035.8435638,-1.35814,3.14356,0.77826,0.585874965,-0.532652445,-0.62158044
1764434035.8435638,-1.35814,3.14356,0.77826,0.585874965,-0.532652445,-0.62158044
1764434035.8435638,-1.35814,3.14356,0.77826,0.585874965,-0.532652445,-0.62158044
1764434035.8435638,-1.35814,3.14356,0.77826,0.585874965,-0.532652445,-0.62158044
1764434035.8435638,-1.17502,3.31142,0.9919,0.585264615,-0.53259141,-0.622007685
1764434035.8435638,-1.17502,3.31142,0.9919,0.585264615,-0.53259141,-0.622007685
1764434035.8435638,-1.17502,3.31142,0.9919,0.585264615,-0.53259141,-0.622007685
1764434035.8435638,-1.17502,3.31142,0.9919,0.585264615,-0.53259141,-0.622007685
1764434035.8435638,-1.17502,3.31142,0.9919,0.585264615,-0.53259141,-0.622007685
1764434035.8435638,-1.17502,3.31142,0.9919,0.585264615,-0.53259141,-0.622007685
1764434035.8875349,-1.17502,3.31142,0.9919,0.585264615,-0.53259141,-0.622007685
1764434035.8875349,-1.17502,3.31142,0.9919,0.585264615,-0.53259141,-0.622007685
1764434035.8875349,-1.17502,3.31142,0.9919,0.585264615,-0.53259141,-0.622007685
1764434035.8875349,-1.17502,3.31142,0.9919,0.585264615,-0.53259141,-0.622007685
1764434035.8875349,-0.97664,3.21986,0.25942,0.584776335,-0.532042095,-0.62206872
1764434035.8875349,-0.97664,3.21986,0.25942,0.584776335,-0.532042095,-0.62206872
1764434035.8875349,-0.97664,3.21986,0.25942,0.584776335,-0.532042095,-0.62206872
1764434035.8875349,-0.97664,3.21986,0.25942,0.584776335,-0.532042095,-0.62206872
1764434035.8875349,-0.97664,3.21986,0.25942,0.584776335,-0.532042095,-0.62206872
1764434035.8875349,-0.97664,3.21986,0.25942,0.584776335,-0.532042095,-0.62206872
1764434035.8875349,-0.97664,3.21986,0.25942,0.584776335,-0.532042095,-0.62206872
1764434035.8875349,-0.97664,3.21986,0.25942,0.584776335,-0.532042095,-0.62206872
1764434035.8875349,-0.97664,3.21986,0.25942,0.584776335,-0.532042095,-0.62206872
1764434035.8875349,-0.97664,3.21986,0.25942,0.584776335,-0.532042095,-0.62206872
1764434035.8875349,-0.54936,3.23512,0.3815,0.585508755,-0.532652445,-0.62231286
1764434035.8875349,-0.54936,3.23512,0.3815,0.585508755,-0.532652445,-0.62231286
1764434035.8875349,-0.54936,3.23512,0.3815,0.585508755,-0.532652445,-0.62231286
1764434035.8875349,-0.54936,3.23512,0.3815,0.585508755,-0.532652445,-0.62231286
1764434035.8875349,-0.54936,3.23512,0.3815,0.585508755,-0.532652445,-0.62231286
1764434035.8875349,-0.54936,3.23512,0.3815,0.585508755,-0.532652445,-0.62231286
1764434035.8875349,-0.54936,3.23512,0.3815,0.585508755,-0.532652445,-0.62231286
1764434035.8875349,-0.54936,3.23512,0.3815,0.585508755,-0.532652445,-0.62231286
1764434035.9323833,-0.54936,3.23512,0.3815,0.585508755,-0.532652445,-0.62231286
1764434035.9323833,-0.54936,3.23512,0.3815,0.585508755,-0.532652445,-0.62231286
1764434035.9323833,-1.17502,3.64714,0.5341,0.58532565,-0.5327745150000001,-0.622557
1764434035.9323833,-1.17502,3.64714,0.5341,0.58532565,-0.5327745150000001,-0.622557
1764434035.9323833,-1.17502,3.64714,0.5341,0.58532565,-0.5327745150000001,-0.622557
1764434035.9339595,-1.17502,3.64714,0.5341,0.58532565,-0.5327745150000001,-0.622557
1764434035.9339595,-1.17502,3.64714,0.5341,0.58532565,-0.5327745150000001,-0.622557
1764434035.9339595,-1.17502,3.64714,0.5341,0.58532565,-0.5327745150000001,-0.622557
1764434035.9339595,-1.17502,3.64714,0.5341,0.58532565,-0.5327745150000001,-0.622557
1764434035.9339595,-1.17502,3.64714,0.5341,0.58532565,-0.5327745150000001,-0.622557
1764434035.9339595,-1.17502,3.64714,0.5341,0.58532565,-0.5327745150000001,-0.622557
1764434035.9339595,-1.17502,3.64714,0.5341,0.58532565,-0.5327745150000001,-0.622557
1764434035.9339595,-1.81594,3.09778,0.62566,0.58386081,-0.533384865,-0.62304528
1764434035.9339595,-1.81594,3.09778,0.62566,0.58386081,-0.533384865,-0.62304528
1764434035.9355462,-1.81594,3.09778,0.62566,0.58386081,-0.533384865,-0.62304528
1764434035.9355462,-1.81594,3.09778,0.62566,0.58386081,-0.533384865,-0.62304528
1764434035.9355462,-1.81594,3.09778,0.62566,0.58386081,-0.533384865,-0.62304528
1764434035.9355462,-1.81594,3.09778,0.62566,0.58386081,-0.533384865,-0.62304528
1764434035.9355462,-1.81594,3.09778,0.62566,0.58386081,-0.533384865,-0.62304528
1764434035.9355462,-1.81594,3.09778,0.62566,0.58386081,-0.533384865,-0.62304528
1764434035.9355462,-1.81594,3.09778,0.62566,0.58386081,-0.533384865,-0.62304528
1764434035.9360578,-1.81594,3.09778,0.62566,0.58386081,-0.533384865,-0.62304528
1764434035.9360578,-1.526,3.49454,0.65618,0.58410495,-0.533506935,-0.62267907
1764434035.9360578,-1.526,3.49454,0.65618,0.58410495,-0.533506935,-0.62267907
1764434035.9810734,-1.526,3.49454,0.65618,0.58410495,-0.533506935,-0.62267907
1764434035.9810734,-1.526,3.49454,0.65618,0.58410495,-0.533506935,-0.62267907
1764434035.9810734,-1.526,3.49454,0.65618,0.58410495,-0.533506935,-0.62267907
1764434035.9810734,-1.526,3.49454,0.65618,0.58410495,-0.533506935,-0.62267907
1764434035.9810734,-1.526,3.49454,0.65618,0.58410495,-0.533506935,-0.62267907
1764434035.9810734,-1.526,3.49454,0.65618,0.58410495,-0.533506935,-0.62267907
1764434035.9810734,-1.526,3.49454,0.65618,0.58410495,-0.533506935,-0.62267907
1764434035.9810734,-1.526,3.49454,0.65618,0.58410495,-0.533506935,-0.62267907
1764434035.9810734,-1.57178,3.14356,0.50358,0.58434909,-0.53295762,-0.62243493
1764434035.9810734,-1.57178,3.14356,0.50358,0.58434909,-0.53295762,-0.62243493
1764434035.9820788,-1.57178,3.14356,0.50358,0.58434909,-0.53295762,-0.62243493
1764434035.9820788,-1.57178,3.14356,0.50358,0.58434909,-0.53295762,-0.62243493
1764434035.9820788,-1.57178,3.14356,0.50358,0.58434909,-0.53295762,-0.62243493
1764434035.9820788,-1.57178,3.14356,0.50358,0.58434909,-0.53295762,-0.62243493
1764434035.9820788,-1.57178,3.14356,0.50358,0.58434909,-0.53295762,-0.62243493
1764434035.9820788,-1.57178,3.14356,0.50358,0.58434909,-0.53295762,-0.62243493
1764434035.9820788,-1.57178,3.14356,0.50358,0.58434909,-0.53295762,-0.62243493
1764434035.9820788,-1.57178,3.14356,0.50358,0.58434909,-0.53295762,-0.62243493
1764434035.9820788,-1.48022,4.24228,0.7019599999999999,0.584776335,-0.53283555,-0.622007685
1764434035.9820788,-1.48022,4.24228,0.7019599999999999,0.584776335,-0.53283555,-0.622007685
1764434035.9820788,-1.48022,4.24228,0.7019599999999999,0.584776335,-0.53283555,-0.622007685
1764434035.9820788,-1.48022,4.24228,0.7019599999999999,0.584776335,-0.53283555,-0.622007685
1764434036.0270174,-1.48022,4.24228,0.7019599999999999,0.584776335,-0.53283555,-0.622007685
1764434036.0270174,-1.48022,4.24228,0.7019599999999999,0.584776335,-0.53283555,-0.622007685
1764434036.028048,-1.48022,4.24228,0.7019599999999999,0.584776335,-0.53283555,-0.622007685
1764434036.028048,-1.48022,4.24228,0.7019599999999999,0.584776335,-0.53283555,-0.622007685
1764434036.028048,-1.48022,4.24228,0.7019599999999999,0.584776335,-0.53283555,-0.622007685
1764434036.028048,-1.48022,4.24228,0.7019599999999999,0.584776335,-0.53283555,-0.622007685
1764434036.028048,-1.46496,3.78448,0.59514,0.584898405,-0.53259141,-0.622740105
1764434036.028048,-1.46496,3.78448,0.59514,0.584898405,-0.53259141,-0.622740105
1764434036.028048,-1.46496,3.78448,0.59514,0.584898405,-0.53259141,-0.622740105
1764434036.028048,-1.46496,3.78448,0.59514,0.584898405,-0.53259141,-0.622740105
1764434036.028048,-1.46496,3.78448,0.59514,0.584898405,-0.53259141,-0.622740105
1764434036.028048,-1.46496,3.78448,0.59514,0.584898405,-0.53259141,-0.622740105
1764434036.028048,-1.46496,3.78448,0.59514,0.584898405,-0.53259141,-0.622740105
1764434036.028048,-1.46496,3.78448,0.59514,0.584898405,-0.53259141,-0.622740105
1764434036.028048,-1.46496,3.78448,0.59514,0.584898405,-0.53259141,-0.622740105
1764434036.028048,-1.46496,3.78448,0.59514,0.584898405,-0.53259141,-0.622740105
1764434036.028048,-1.32762,3.95234,0.74774,0.58459323,-0.532652445,-0.623472525
1764434036.028048,-1.32762,3.95234,0.74774,0.58459323,-0.532652445,-0.623472525
1764434036.028048,-1.32762,3.95234,0.74774,0.58459323,-0.532652445,-0.623472525
1764434036.028048,-1.32762,3.95234,0.74774,0.58459323,-0.532652445,-0.623472525
1764434036.028048,-1.32762,3.95234,0.74774,0.58459323,-0.532652445,-0.623472525
1764434036.028048,-1.32762,3.95234,0.74774,0.58459323,-0.532652445,-0.623472525
1764434036.028048,-1.32762,3.95234,0.74774,0.58459323,-0.532652445,-0.623472525
1764434036.028048,-1.32762,3.95234,0.74774,0.58459323,-0.532652445,-0.623472525
1764434036.0737576,-1.32762,3.95234,0.74774,0.58459323,-0.532652445,-0.623472525
1764434036.0737576,-1.32762,3.95234,0.74774,0.58459323,-0.532652445,-0.623472525
1764434036.0737576,-1.17502,3.86078,0.73248,0.58483737,-0.533384865,-0.622557
1764434036.0737576,-1.17502,3.86078,0.73248,0.58483737,-0.533384865,-0.622557
1764434036.0737576,-1.17502,3.86078,0.73248,0.58483737,-0.533384865,-0.622557
1764434036.0748112,-1.17502,3.86078,0.73248,0.58483737,-0.533384865,-0.622557
1764434036.0748112,-1.17502,3.86078,0.73248,0.58483737,-0.533384865,-0.622557
1764434036.0748112,-1.17502,3.86078,0.73248,0.58483737,-0.533384865,-0.622557
1764434036.0748112,-1.17502,3.86078,0.73248,0.58483737,-0.533384865,-0.622557
1764434036.0748112,-1.17502,3.86078,0.73248,0.58483737,-0.533384865,-0.622557
1764434036.0748112,-1.17502,3.86078,0.73248,0.58483737,-0.533384865,-0.622557
1764434036.0748112,-1.17502,3.86078,0.73248,0.58483737,-0.533384865,-0.622557
1764434036.0748112,-1.0682,3.3572,0.8698199999999999,0.5852035800000001,-0.533140725,-0.622984245
1764434036.0748112,-1.0682,3.3572,0.8698199999999999,0.5852035800000001,-0.533140725,-0.622984245
1764434036.0748112,-1.0682,3.3572,0.8698199999999999,0.5852035800000001,-0.533140725,-0.622984245
1764434036.0748112,-1.0682,3.3572,0.8698199999999999,0.5852035800000001,-0.533140725,-0.622984245
1764434036.0748112,-1.0682,3.3572,0.8698199999999999,0.5852035800000001,-0.533140725,-0.622984245
1764434036.0748112,-1.0682,3.3572,0.8698199999999999,0.5852035800000001,-0.533140725,-0.622984245
1764434036.0748112,-1.0682,3.3572,0.8698199999999999,0.5852035800000001,-0.533140725,-0.622984245
1764434036.0748112,-1.0682,3.3572,0.8698199999999999,0.5852035800000001,-0.533140725,-0.622984245
1764434036.0748112,-1.0682,3.3572,0.8698199999999999,0.5852035800000001,-0.533140725,-0.622984245
1764434036.0748112,-1.0682,3.3572,0.8698199999999999,0.5852035800000001,-0.533140725,-0.622984245
1764434036.1199274,-1.70912,3.14356,0.36624,0.58532565,-0.532896585,-0.6229232100000001
1764434036.1199274,-1.70912,3.14356,0.36624,0.58532565,-0.532896585,-0.6229232100000001
1764434036.1199274,-1.70912,3.14356,0.36624,0.58532565,-0.532896585,-0.6229232100000001
1764434036.1199274,-1.70912,3.14356,0.36624,0.58532565,-0.532896585,-0.6229232100000001
1764434036.1199274,-1.70912,3.14356,0.36624,0.58532565,-0.532896585,-0.6229232100000001
1764434036.1209252,-1.70912,3.14356,0.36624,0.58532565,-0.532896585,-0.6229232100000001
1764434036.1209252,-1.70912,3.14356,0.36624,0.58532565,-0.532896585,-0.6229232100000001
1764434036.1209252,-1.70912,3.14356,0.36624,0.58532565,-0.532896585,-0.6229232100000001
1764434036.1209252,-1.70912,3.14356,0.36624,0.58532565,-0.532896585,-0.6229232100000001
1764434036.1209252,-1.70912,3.14356,0.36624,0.58532565,-0.532896585,-0.6229232100000001
1764434036.1209252,-1.7549,2.85362,0.3815,0.58495944,-0.53295762,-0.6229232100000001
1764434036.1209252,-1.7549,2.85362,0.3815,0.58495944,-0.53295762,-0.6229232100000001
1764434036.1209252,-1.7549,2.85362,0.3815,0.58495944,-0.53295762,-0.6229232100000001
1764434036.1209252,-1.7549,2.85362,0.3815,0.58495944,-0.53295762,-0.6229232100000001
1764434036.1209252,-1.7549,2.85362,0.3815,0.58495944,-0.53295762,-0.6229232100000001
1764434036.1209252,-1.7549,2.85362,0.3815,0.58495944,-0.53295762,-0.6229232100000001
1764434036.1209252,-1.7549,2.85362,0.3815,0.58495944,-0.53295762,-0.6229232100000001
1764434036.1209252,-1.7549,2.85362,0.3815,0.58495944,-0.53295762,-0.6229232100000001
1764434036.1209252,-1.7549,2.85362,0.3815,0.58495944,-0.53295762,-0.6229232100000001
1764434036.1209252,-1.7549,2.85362,0.3815,0.58495944,-0.53295762,-0.6229232100000001
1764434036.1209252,-1.72438,3.31142,0.59514,0.584532195,-0.53259141,-0.623472525
1764434036.1209252,-1.72438,3.31142,0.59514,0.584532195,-0.53259141,-0.623472525
1764434036.1209252,-1.72438,3.31142,0.59514,0.584532195,-0.53259141,-0.623472525
1764434036.1209252,-1.72438,3.31142,0.59514,0.584532195,-0.53259141,-0.623472525
1764434036.1659896,-1.72438,3.31142,0.59514,0.584532195,-0.53259141,-0.623472525
1764434036.1659896,-1.72438,3.31142,0.59514,0.584532195,-0.53259141,-0.623472525
1764434036.1659896,-1.72438,3.31142,0.59514,0.584532195,-0.53259141,-0.623472525
1764434036.1659896,-1.72438,3.31142,0.59514,0.584532195,-0.53259141,-0.623472525
1764434036.1659896,-1.72438,3.31142,0.59514,0.584532195,-0.53259141,-0.623472525
1764434036.1659896,-1.72438,3.31142,0.59514,0.584532195,-0.53259141,-0.623472525
1764434036.1659896,-1.8006799999999998,3.18934,0.51884,0.58556979,-0.532530375,-0.62341149
1764434036.1659896,-1.8006799999999998,3.18934,0.51884,0.58556979,-0.532530375,-0.62341149
1764434036.1659896,-1.8006799999999998,3.18934,0.51884,0.58556979,-0.532530375,-0.62341149
1764434036.1659896,-1.8006799999999998,3.18934,0.51884,0.58556979,-0.532530375,-0.62341149
1764434036.1659896,-1.8006799999999998,3.18934,0.51884,0.58556979,-0.532530375,-0.62341149
1764434036.1659896,-1.8006799999999998,3.18934,0.51884,0.58556979,-0.532530375,-0.62341149
1764434036.1659896,-1.8006799999999998,3.18934,0.51884,0.58556979,-0.532530375,-0.62341149
1764434036.1659896,-1.8006799999999998,3.18934,0.51884,0.58556979,-0.532530375,-0.62341149
1764434036.1659896,-1.8006799999999998,3.18934,0.51884,0.58556979,-0.532530375,-0.62341149
1764434036.1659896,-1.8006799999999998,3.18934,0.51884,0.58556979,-0.532530375,-0.62341149
1764434036.1659896,-1.63282,3.26564,0.41202,0.585264615,-0.5327745150000001,-0.622495965
1764434036.1669888,-1.63282,3.26564,0.41202,0.585264615,-0.5327745150000001,-0.622495965
1764434036.1669888,-1.63282,3.26564,0.41202,0.585264615,-0.5327745150000001,-0.622495965
1764434036.1669888,-1.63282,3.26564,0.41202,0.585264615,-0.5327745150000001,-0.622495965
1764434036.1669888,-1.63282,3.26564,0.41202,0.585264615,-0.5327745150000001,-0.622495965
1764434036.1669888,-1.63282,3.26564,0.41202,0.585264615,-0.5327745150000001,-0.622495965
1764434036.2110655,-1.63282,3.26564,0.41202,0.585264615,-0.5327745150000001,-0.622495965
1764434036.2110655,-1.63282,3.26564,0.41202,0.585264615,-0.5327745150000001,-0.622495965
1764434036.2110655,-1.63282,3.26564,0.41202,0.585264615,-0.5327745150000001,-0.622495965
1764434036.2110655,-1.63282,3.26564,0.41202,0.585264615,-0.5327745150000001,-0.622495965
1764434036.2110655,-1.84646,3.5861,0.47306,0.58532565,-0.532896585,-0.622984245
1764434036.2110655,-1.84646,3.5861,0.47306,0.58532565,-0.532896585,-0.622984245
1764434036.2110655,-1.84646,3.5861,0.47306,0.58532565,-0.532896585,-0.622984245
1764434036.2110655,-1.84646,3.5861,0.47306,0.58532565,-0.532896585,-0.622984245
1764434036.2110655,-1.84646,3.5861,0.47306,0.58532565,-0.532896585,-0.622984245
1764434036.2110655,-1.84646,3.5861,0.47306,0.58532565,-0.532896585,-0.622984245
1764434036.2110655,-1.84646,3.5861,0.47306,0.58532565,-0.532896585,-0.622984245
1764434036.2110655,-1.84646,3.5861,0.47306,0.58532565,-0.532896585,-0.622984245
1764434036.2110655,-1.84646,3.5861,0.47306,0.58532565,-0.532896585,-0.622984245
1764434036.2110655,-1.84646,3.5861,0.47306,0.58532565,-0.532896585,-0.622984245
1764434036.2110655,-1.46496,3.90656,0.25942,0.584898405,-0.532530375,-0.62402184
1764434036.2110655,-1.46496,3.90656,0.25942,0.584898405,-0.532530375,-0.62402184
1764434036.2110655,-1.46496,3.90656,0.25942,0.584898405,-0.532530375,-0.62402184
1764434036.2110655,-1.46496,3.90656,0.25942,0.584898405,-0.532530375,-0.62402184
1764434036.2110655,-1.46496,3.90656,0.25942,0.584898405,-0.532530375,-0.62402184
1764434036.2110655,-1.46496,3.90656,0.25942,0.584898405,-0.532530375,-0.62402184
1764434036.2110655,-1.46496,3.90656,0.25942,0.584898405,-0.532530375,-0.62402184
1764434036.2110655,-1.46496,3.90656,0.25942,0.584898405,-0.532530375,-0.62402184
1764434036.2110655,-1.46496,3.90656,0.25942,0.584898405,-0.532530375,-0.62402184
1764434036.2110655,-1.46496,3.90656,0.25942,0.584898405,-0.532530375,-0.62402184
1764434036.2560346,-1.58704,3.69292,0.77826,0.585508755,-0.531797955,-0.62341149
1764434036.2560346,-1.58704,3.69292,0.77826,0.585508755,-0.531797955,-0.62341149
1764434036.2560346,-1.58704,3.69292,0.77826,0.585508755,-0.531797955,-0.62341149
1764434036.257581,-1.58704,3.69292,0.77826,0.585508755,-0.531797955,-0.62341149
1764434036.257581,-1.58704,3.69292,0.77826,0.585508755,-0.531797955,-0.62341149
1764434036.257581,-1.58704,3.69292,0.77826,0.585508755,-0.531797955,-0.62341149
1764434036.257581,-1.58704,3.69292,0.77826,0.585508755,-0.531797955,-0.62341149
1764434036.257581,-1.58704,3.69292,0.77826,0.585508755,-0.531797955,-0.62341149
1764434036.257581,-1.58704,3.69292,0.77826,0.585508755,-0.531797955,-0.62341149
1764434036.2586312,-1.58704,3.69292,0.77826,0.585508755,-0.531797955,-0.62341149
1764434036.2586312,-1.58704,3.18934,0.41202,0.58556979,-0.532286235,-0.623716665
1764434036.2586312,-1.58704,3.18934,0.41202,0.58556979,-0.532286235,-0.623716665
1764434036.2586312,-1.58704,3.18934,0.41202,0.58556979,-0.532286235,-0.623716665
1764434036.2586312,-1.58704,3.18934,0.41202,0.58556979,-0.532286235,-0.623716665
1764434036.2596328,-1.58704,3.18934,0.41202,0.58556979,-0.532286235,-0.623716665
1764434036.2596328,-1.58704,3.18934,0.41202,0.58556979,-0.532286235,-0.623716665
1764434036.2596328,-1.58704,3.18934,0.41202,0.58556979,-0.532286235,-0.623716665
1764434036.2606268,-1.58704,3.18934,0.41202,0.58556979,-0.532286235,-0.623716665
1764434036.2606268,-1.58704,3.18934,0.41202,0.58556979,-0.532286235,-0.623716665
1764434036.2606268,-1.58704,3.18934,0.41202,0.58556979,-0.532286235,-0.623716665
1764434036.2606268,-2.24322,3.5098,0.9919,0.58532565,-0.53210313,-0.62365563
1764434036.2606268,-2.24322,3.5098,0.9919,0.58532565,-0.53210313,-0.62365563
1764434036.30614,-2.24322,3.5098,0.9919,0.58532565,-0.53210313,-0.62365563
1764434036.30614,-2.24322,3.5098,0.9919,0.58532565,-0.53210313,-0.62365563
1764434036.30614,-2.24322,3.5098,0.9919,0.58532565,-0.53210313,-0.62365563
1764434036.30614,-2.24322,3.5098,0.9919,0.58532565,-0.53210313,-0.62365563
1764434036.30614,-2.24322,3.5098,0.9919,0.58532565,-0.53210313,-0.62365563
1764434036.30614,-2.24322,3.5098,0.9919,0.58532565,-0.53210313,-0.62365563
1764434036.30714,-2.24322,3.5098,0.9919,0.58532565,-0.53210313,-0.62365563
1764434036.30714,-2.24322,3.5098,0.9919,0.58532565,-0.53210313,-0.62365563
1764434036.30714,-1.8006799999999998,3.2809,0.24416,0.585752895,-0.532164165,-0.624449085
1764434036.30714,-1.8006799999999998,3.2809,0.24416,0.585752895,-0.532164165,-0.624449085
1764434036.30714,-1.8006799999999998,3.2809,0.24416,0.585752895,-0.532164165,-0.624449085
1764434036.30714,-1.8006799999999998,3.2809,0.24416,0.585752895,-0.532164165,-0.624449085
1764434036.30714,-1.8006799999999998,3.2809,0.24416,0.585752895,-0.532164165,-0.624449085
1764434036.30714,-1.8006799999999998,3.2809,0.24416,0.585752895,-0.532164165,-0.624449085
1764434036.30714,-1.8006799999999998,3.2809,0.24416,0.585752895,-0.532164165,-0.624449085
1764434036.30714,-1.8006799999999998,3.2809,0.24416,0.585752895,-0.532164165,-0.624449085
1764434036.30714,-1.8006799999999998,3.2809,0.24416,0.585752895,-0.532164165,-0.624449085
1764434036.30714,-1.8006799999999998,3.2809,0.24416,0.585752895,-0.532164165,-0.624449085
1764434036.30714,-1.78542,2.86888,0.5341,0.58508151,-0.531920025,-0.623594595
1764434036.308148,-1.78542,2.86888,0.5341,0.58508151,-0.531920025,-0.623594595
1764434036.308148,-1.78542,2.86888,0.5341,0.58508151,-0.531920025,-0.623594595
1764434036.308148,-1.78542,2.86888,0.5341,0.58508151,-0.531920025,-0.623594595
1764434036.308148,-1.78542,2.86888,0.5341,0.58508151,-0.531920025,-0.623594595
1764434036.308684,-1.78542,2.86888,0.5341,0.58508151,-0.531920025,-0.623594595
1764434036.3535936,-1.78542,2.86888,0.5341,0.58508151,-0.531920025,-0.623594595
1764434036.3535936,-1.78542,2.86888,0.5341,0.58508151,-0.531920025,-0.623594595
1764434036.3535936,-1.78542,2.86888,0.5341,0.58508151,-0.531920025,-0.623594595
1764434036.3535936,-1.78542,2.86888,0.5341,0.58508151,-0.531920025,-0.623594595
1764434036.3535936,-1.86172,2.73154,0.19838,0.5846542650000001,-0.531675885,-0.623228385
1764434036.3535936,-1.86172,2.73154,0.19838,0.5846542650000001,-0.531675885,-0.623228385
1764434036.3541076,-1.86172,2.73154,0.19838,0.5846542650000001,-0.531675885,-0.623228385
1764434036.3541076,-1.86172,2.73154,0.19838,0.5846542650000001,-0.531675885,-0.623228385
1764434036.3541076,-1.86172,2.73154,0.19838,0.5846542650000001,-0.531675885,-0.623228385
1764434036.3541076,-1.86172,2.73154,0.19838,0.5846542650000001,-0.531675885,-0.623228385
1764434036.3541076,-1.86172,2.73154,0.19838,0.5846542650000001,-0.531675885,-0.623228385
1764434036.3541076,-1.86172,2.73154,0.19838,0.5846542650000001,-0.531675885,-0.623228385
1764434036.3541076,-1.86172,2.73154,0.19838,0.5846542650000001,-0.531675885,-0.623228385
1764434036.3541076,-1.86172,2.73154,0.19838,0.5846542650000001,-0.531675885,-0.623228385
1764434036.3541076,-1.41918,3.2046,0.47306,0.5846542650000001,-0.53051622,-0.6237777
1764434036.3541076,-1.41918,3.2046,0.47306,0.5846542650000001,-0.53051622,-0.6237777
1764434036.3541076,-1.41918,3.2046,0.47306,0.5846542650000001,-0.53051622,-0.6237777
1764434036.3541076,-1.41918,3.2046,0.47306,0.5846542650000001,-0.53051622,-0.6237777
1764434036.3541076,-1.41918,3.2046,0.47306,0.5846542650000001,-0.53051622,-0.6237777
1764434036.3541076,-1.41918,3.2046,0.47306,0.5846542650000001,-0.53051622,-0.6237777
1764434036.3541076,-1.41918,3.2046,0.47306,0.5846542650000001,-0.53051622,-0.6237777
1764434036.3541076,-1.41918,3.2046,0.47306,0.5846542650000001,-0.53051622,-0.6237777
1764434036.3541076,-1.41918,3.2046,0.47306,0.5846542650000001,-0.53051622,-0.6237777
1764434036.3541076,-1.41918,3.2046,0.47306,0.5846542650000001,-0.53051622,-0.6237777
1764434036.3994958,-1.6633399999999998,4.02864,0.71722,0.583799775,-0.530821395,-0.62426598
1764434036.3994958,-1.6633399999999998,4.02864,0.71722,0.583799775,-0.530821395,-0.62426598
1764434036.3994958,-1.6633399999999998,4.02864,0.71722,0.583799775,-0.530821395,-0.62426598
1764434036.3994958,-1.6633399999999998,4.02864,0.71722,0.583799775,-0.530821395,-0.62426598
1764434036.3994958,-1.6633399999999998,4.02864,0.71722,0.583799775,-0.530821395,-0.62426598
1764434036.3994958,-1.6633399999999998,4.02864,0.71722,0.583799775,-0.530821395,-0.62426598
1764434036.3994958,-1.6633399999999998,4.02864,0.71722,0.583799775,-0.530821395,-0.62426598
1764434036.3994958,-1.6633399999999998,4.02864,0.71722,0.583799775,-0.530821395,-0.62426598
1764434036.3994958,-1.6633399999999998,4.02864,0.71722,0.583799775,-0.530821395,-0.62426598
1764434036.3994958,-1.6633399999999998,4.02864,0.71722,0.583799775,-0.530821395,-0.62426598
1764434036.3994958,-1.17502,3.72344,0.62566,0.5846542650000001,-0.53076036,-0.62389977
1764434036.3994958,-1.17502,3.72344,0.62566,0.5846542650000001,-0.53076036,-0.62389977
1764434036.3994958,-1.17502,3.72344,0.62566,0.5846542650000001,-0.53076036,-0.62389977
1764434036.3994958,-1.17502,3.72344,0.62566,0.5846542650000001,-0.53076036,-0.62389977
1764434036.3994958,-1.17502,3.72344,0.62566,0.5846542650000001,-0.53076036,-0.62389977
1764434036.3994958,-1.17502,3.72344,0.62566,0.5846542650000001,-0.53076036,-0.62389977
1764434036.3994958,-1.17502,3.72344,0.62566,0.5846542650000001,-0.53076036,-0.62389977
1764434036.3994958,-1.17502,3.72344,0.62566,0.5846542650000001,-0.53076036,-0.62389977
1764434036.3994958,-1.17502,3.72344,0.62566,0.5846542650000001,-0.53076036,-0.62389977
1764434036.3994958,-1.17502,3.72344,0.62566,0.5846542650000001,-0.53076036,-0.62389977
1764434036.3994958,-1.49548,3.17408,0.59514,0.585508755,-0.53149278,-0.624693225
1764434036.3994958,-1.49548,3.17408,0.59514,0.585508755,-0.53149278,-0.624693225
1764434036.44363,-1.49548,3.17408,0.59514,0.585508755,-0.53149278,-0.624693225
1764434036.4441426,-1.49548,3.17408,0.59514,0.585508755,-0.53149278,-0.624693225
1764434036.4441426,-1.49548,3.17408,0.59514,0.585508755,-0.53149278,-0.624693225
1764434036.4441426,-1.49548,3.17408,0.59514,0.585508755,-0.53149278,-0.624693225
1764434036.4441426,-1.49548,3.17408,0.59514,0.585508755,-0.53149278,-0.624693225
1764434036.4441426,-1.49548,3.17408,0.59514,0.585508755,-0.53149278,-0.624693225
1764434036.4441426,-1.49548,3.17408,0.59514,0.585508755,-0.53149278,-0.624693225
1764434036.4441426,-1.49548,3.17408,0.59514,0.585508755,-0.53149278,-0.624693225
1764434036.4441426,-2.18218,3.08252,0.62566,0.585874965,-0.530455185,-0.62597496
1764434036.4441426,-2.18218,3.08252,0.62566,0.585874965,-0.530455185,-0.62597496
1764434036.4441426,-2.18218,3.08252,0.62566,0.585874965,-0.530455185,-0.62597496
1764434036.4441426,-2.18218,3.08252,0.62566,0.585874965,-0.530455185,-0.62597496
1764434036.4441426,-2.18218,3.08252,0.62566,0.585874965,-0.530455185,-0.62597496
1764434036.4441426,-2.18218,3.08252,0.62566,0.585874965,-0.530455185,-0.62597496
1764434036.4441426,-2.18218,3.08252,0.62566,0.585874965,-0.530455185,-0.62597496
1764434036.444678,-2.18218,3.08252,0.62566,0.585874965,-0.530455185,-0.62597496
1764434036.444678,-2.18218,3.08252,0.62566,0.585874965,-0.530455185,-0.62597496
1764434036.444678,-2.18218,3.08252,0.62566,0.585874965,-0.530455185,-0.62597496
1764434036.444678,-2.50264,3.15882,0.74774,0.585142545,-0.530211045,-0.626646345
1764434036.444678,-2.50264,3.15882,0.74774,0.585142545,-0.530211045,-0.626646345
1764434036.444678,-2.50264,3.15882,0.74774,0.585142545,-0.530211045,-0.626646345
1764434036.444678,-2.50264,3.15882,0.74774,0.585142545,-0.530211045,-0.626646345
1764434036.444678,-2.50264,3.15882,0.74774,0.585142545,-0.530211045,-0.626646345
1764434036.444678,-2.50264,3.15882,0.74774,0.585142545,-0.530211045,-0.626646345
1764434036.492936,-2.50264,3.15882,0.74774,0.585142545,-0.530211045,-0.626646345
1764434036.492936,-2.50264,3.15882,0.74774,0.585142545,-0.530211045,-0.626646345
1764434036.4939375,-2.50264,3.15882,0.74774,0.585142545,-0.530211045,-0.626646345
1764434036.4939375,-2.50264,3.15882,0.74774,0.585142545,-0.530211045,-0.626646345
1764434036.4939375,-1.8312,3.4335,0.96138,0.583921845,-0.5301500100000001,-0.62597496
1764434036.4944513,-1.8312,3.4335,0.96138,0.583921845,-0.5301500100000001,-0.62597496
1764434036.4944513,-1.8312,3.4335,0.96138,0.583921845,-0.5301500100000001,-0.62597496
1764434036.4944513,-1.8312,3.4335,0.96138,0.583921845,-0.5301500100000001,-0.62597496
1764434036.4944513,-1.8312,3.4335,0.96138,0.583921845,-0.5301500100000001,-0.62597496
1764434036.4944513,-1.8312,3.4335,0.96138,0.583921845,-0.5301500100000001,-0.62597496
1764434036.4944513,-1.8312,3.4335,0.96138,0.583921845,-0.5301500100000001,-0.62597496
1764434036.4944513,-1.8312,3.4335,0.96138,0.583921845,-0.5301500100000001,-0.62597496
1764434036.4944513,-1.8312,3.4335,0.96138,0.583921845,-0.5301500100000001,-0.62597496
1764434036.4944513,-1.8312,3.4335,0.96138,0.583921845,-0.5301500100000001,-0.62597496
1764434036.4944513,-1.31236,3.40298,0.97664,0.58325046,-0.529966905,-0.62524254
1764434036.4944513,-1.31236,3.40298,0.97664,0.58325046,-0.529966905,-0.62524254
1764434036.4944513,-1.31236,3.40298,0.97664,0.58325046,-0.529966905,-0.62524254
1764434036.4944513,-1.31236,3.40298,0.97664,0.58325046,-0.529966905,-0.62524254
1764434036.4944513,-1.31236,3.40298,0.97664,0.58325046,-0.529966905,-0.62524254
1764434036.4944513,-1.31236,3.40298,0.97664,0.58325046,-0.529966905,-0.62524254
1764434036.4944513,-1.31236,3.40298,0.97664,0.58325046,-0.529966905,-0.62524254
1764434036.4944513,-1.31236,3.40298,0.97664,0.58325046,-0.529966905,-0.62524254
1764434036.4944513,-1.31236,3.40298,0.97664,0.58325046,-0.529966905,-0.62524254
1764434036.4944513,-1.31236,3.40298,0.97664,0.58325046,-0.529966905,-0.62524254
1764434036.5383267,-0.97664,3.6624,0.79352,0.58447116,-0.530088975,-0.624693225
1764434036.5383267,-0.97664,3.6624,0.79352,0.58447116,-0.530088975,-0.624693225
1764434036.5383267,-0.97664,3.6624,0.79352,0.58447116,-0.530088975,-0.624693225
1764434036.5383267,-0.97664,3.6624,0.79352,0.58447116,-0.530088975,-0.624693225
1764434036.5383267,-0.97664,3.6624,0.79352,0.58447116,-0.530088975,-0.624693225
1764434036.5383267,-0.97664,3.6624,0.79352,0.58447116,-0.530088975,-0.624693225
1764434036.5383267,-0.97664,3.6624,0.79352,0.58447116,-0.530088975,-0.624693225
1764434036.5383267,-0.97664,3.6624,0.79352,0.58447116,-0.530088975,-0.624693225
1764434036.5383267,-0.97664,3.6624,0.79352,0.58447116,-0.530088975,-0.624693225
1764434036.5383267,-0.97664,3.6624,0.79352,0.58447116,-0.530088975,-0.624693225
1764434036.5383267,-1.08346,3.44876,1.1445,0.584165985,-0.53076036,-0.625059435
1764434036.5383267,-1.08346,3.44876,1.1445,0.584165985,-0.53076036,-0.625059435
1764434036.5383267,-1.08346,3.44876,1.1445,0.584165985,-0.53076036,-0.625059435
1764434036.5383267,-1.08346,3.44876,1.1445,0.584165985,-0.53076036,-0.625059435
1764434036.5383267,-1.08346,3.44876,1.1445,0.584165985,-0.53076036,-0.625059435
1764434036.5383267,-1.08346,3.44876,1.1445,0.584165985,-0.53076036,-0.625059435
1764434036.5383267,-1.08346,3.44876,1.1445,0.584165985,-0.53076036,-0.625059435
1764434036.5383267,-1.08346,3.44876,1.1445,0.584165985,-0.53076036,-0.625059435
1764434036.5393689,-1.08346,3.44876,1.1445,0.584165985,-0.53076036,-0.625059435
1764434036.5393689,-1.08346,3.44876,1.1445,0.584165985,-0.53076036,-0.625059435
1764434036.5393689,-1.02242,3.4335,0.71722,0.5852035800000001,-0.53051622,-0.62585289
1764434036.5393689,-1.02242,3.4335,0.71722,0.5852035800000001,-0.53051622,-0.62585289
1764434036.5393689,-1.02242,3.4335,0.71722,0.5852035800000001,-0.53051622,-0.62585289
1764434036.5393689,-1.02242,3.4335,0.71722,0.5852035800000001,-0.53051622,-0.62585289
1764434036.5836928,-1.02242,3.4335,0.71722,0.5852035800000001,-0.53051622,-0.62585289
1764434036.5836928,-1.02242,3.4335,0.71722,0.5852035800000001,-0.53051622,-0.62585289
1764434036.584741,-1.02242,3.4335,0.71722,0.5852035800000001,-0.53051622,-0.62585289
1764434036.584741,-1.02242,3.4335,0.71722,0.5852035800000001,-0.53051622,-0.62585289
1764434036.584741,-1.02242,3.4335,0.71722,0.5852035800000001,-0.53051622,-0.62585289
1764434036.584741,-1.02242,3.4335,0.71722,0.5852035800000001,-0.53051622,-0.62585289
1764434036.584741,-0.9003399999999999,3.92182,0.6714399999999999,0.585020475,-0.5297838,-0.62560875
1764434036.584741,-0.9003399999999999,3.92182,0.6714399999999999,0.585020475,-0.5297838,-0.62560875
1764434036.584741,-0.9003399999999999,3.92182,0.6714399999999999,0.585020475,-0.5297838,-0.62560875
1764434036.584741,-0.9003399999999999,3.92182,0.6714399999999999,0.585020475,-0.5297838,-0.62560875
1764434036.584741,-0.9003399999999999,3.92182,0.6714399999999999,0.585020475,-0.5297838,-0.62560875
1764434036.584741,-0.9003399999999999,3.92182,0.6714399999999999,0.585020475,-0.5297838,-0.62560875
1764434036.584741,-0.9003399999999999,3.92182,0.6714399999999999,0.585020475,-0.5297838,-0.62560875
1764434036.584741,-0.9003399999999999,3.92182,0.6714399999999999,0.585020475,-0.5297838,-0.62560875
1764434036.584741,-0.9003399999999999,3.92182,0.6714399999999999,0.585020475,-0.5297838,-0.62560875
1764434036.584741,-0.9003399999999999,3.92182,0.6714399999999999,0.585020475,-0.5297838,-0.62560875
1764434036.584741,-0.6103999999999999,3.95234,0.7019599999999999,0.58447116,-0.52929552,-0.625791855
1764434036.584741,-0.6103999999999999,3.95234,0.7019599999999999,0.58447116,-0.52929552,-0.625791855
1764434036.584741,-0.6103999999999999,3.95234,0.7019599999999999,0.58447116,-0.52929552,-0.625791855
1764434036.584741,-0.6103999999999999,3.95234,0.7019599999999999,0.58447116,-0.52929552,-0.625791855
1764434036.584741,-0.6103999999999999,3.95234,0.7019599999999999,0.58447116,-0.52929552,-0.625791855
1764434036.5857468,-0.6103999999999999,3.95234,0.7019599999999999,0.58447116,-0.52929552,-0.625791855
1764434036.6294074,-0.6103999999999999,3.95234,0.7019599999999999,0.58447116,-0.52929552,-0.625791855
1764434036.6294074,-0.6103999999999999,3.95234,0.7019599999999999,0.58447116,-0.52929552,-0.625791855
1764434036.6294074,-0.6103999999999999,3.95234,0.7019599999999999,0.58447116,-0.52929552,-0.625791855
1764434036.6299171,-0.6103999999999999,3.95234,0.7019599999999999,0.58447116,-0.52929552,-0.625791855
1764434036.6299171,-0.36624,3.99812,0.54936,0.584043915,-0.52929552,-0.62560875
1764434036.6299171,-0.36624,3.99812,0.54936,0.584043915,-0.52929552,-0.62560875
1764434036.6299171,-0.36624,3.99812,0.54936,0.584043915,-0.52929552,-0.62560875
1764434036.6299171,-0.36624,3.99812,0.54936,0.584043915,-0.52929552,-0.62560875
1764434036.6299171,-0.36624,3.99812,0.54936,0.584043915,-0.52929552,-0.62560875
1764434036.6319551,-0.36624,3.99812,0.54936,0.584043915,-0.52929552,-0.62560875
1764434036.6319551,-0.36624,3.99812,0.54936,0.584043915,-0.52929552,-0.62560875
1764434036.6319551,-0.36624,3.99812,0.54936,0.584043915,-0.52929552,-0.62560875
1764434036.6319551,-0.36624,3.99812,0.54936,0.584043915,-0.52929552,-0.62560875
1764434036.6319551,-0.36624,3.99812,0.54936,0.584043915,-0.52929552,-0.62560875
1764434036.6319551,-0.51884,3.47928,0.6714399999999999,0.584288055,-0.53027208,-0.625059435
1764434036.632961,-0.51884,3.47928,0.6714399999999999,0.584288055,-0.53027208,-0.625059435
1764434036.632961,-0.51884,3.47928,0.6714399999999999,0.584288055,-0.53027208,-0.625059435
1764434036.632961,-0.51884,3.47928,0.6714399999999999,0.584288055,-0.53027208,-0.625059435
1764434036.632961,-0.51884,3.47928,0.6714399999999999,0.584288055,-0.53027208,-0.625059435
1764434036.632961,-0.51884,3.47928,0.6714399999999999,0.584288055,-0.53027208,-0.625059435
1764434036.6339548,-0.51884,3.47928,0.6714399999999999,0.584288055,-0.53027208,-0.625059435
1764434036.6344686,-0.51884,3.47928,0.6714399999999999,0.584288055,-0.53027208,-0.625059435
1764434036.6344686,-0.51884,3.47928,0.6714399999999999,0.584288055,-0.53027208,-0.625059435
1764434036.6344686,-0.51884,3.47928,0.6714399999999999,0.584288055,-0.53027208,-0.625059435
1764434036.6790185,-0.2289,4.08968,0.6103999999999999,0.585264615,-0.530943465,-0.624937365
1764434036.6790185,-0.2289,4.08968,0.6103999999999999,0.585264615,-0.530943465,-0.624937365
1764434036.6790185,-0.2289,4.08968,0.6103999999999999,0.585264615,-0.530943465,-0.624937365
1764434036.6790185,-0.2289,4.08968,0.6103999999999999,0.585264615,-0.530943465,-0.624937365
1764434036.6790185,-0.2289,4.08968,0.6103999999999999,0.585264615,-0.530943465,-0.624937365
1764434036.68005,-0.2289,4.08968,0.6103999999999999,0.585264615,-0.530943465,-0.624937365
1764434036.68005,-0.2289,4.08968,0.6103999999999999,0.585264615,-0.530943465,-0.624937365
1764434036.68005,-0.2289,4.08968,0.6103999999999999,0.585264615,-0.530943465,-0.624937365
1764434036.68005,-0.2289,4.08968,0.6103999999999999,0.585264615,-0.530943465,-0.624937365
1764434036.68005,-0.2289,4.08968,0.6103999999999999,0.585264615,-0.530943465,-0.624937365
1764434036.6810594,-0.39676,3.72344,0.6867,0.585997035,-0.530821395,-0.625303575
1764434036.6810594,-0.39676,3.72344,0.6867,0.585997035,-0.530821395,-0.625303575
1764434036.6810594,-0.39676,3.72344,0.6867,0.585997035,-0.530821395,-0.625303575
1764434036.6810594,-0.39676,3.72344,0.6867,0.585997035,-0.530821395,-0.625303575
1764434036.6810594,-0.39676,3.72344,0.6867,0.585997035,-0.530821395,-0.625303575
1764434036.682058,-0.39676,3.72344,0.6867,0.585997035,-0.530821395,-0.625303575
1764434036.682058,-0.39676,3.72344,0.6867,0.585997035,-0.530821395,-0.625303575
1764434036.682058,-0.39676,3.72344,0.6867,0.585997035,-0.530821395,-0.625303575
1764434036.682058,-0.39676,3.72344,0.6867,0.585997035,-0.530821395,-0.625303575
1764434036.682058,-0.39676,3.72344,0.6867,0.585997035,-0.530821395,-0.625303575
1764434036.682058,-0.3204599999999999,3.92182,0.3051999999999999,0.585020475,-0.530455185,-0.62560875
1764434036.682058,-0.3204599999999999,3.92182,0.3051999999999999,0.585020475,-0.530455185,-0.62560875
1764434036.7282414,-0.3204599999999999,3.92182,0.3051999999999999,0.585020475,-0.530455185,-0.62560875
1764434036.7282414,-0.3204599999999999,3.92182,0.3051999999999999,0.585020475,-0.530455185,-0.62560875
1764434036.7282414,-0.3204599999999999,3.92182,0.3051999999999999,0.585020475,-0.530455185,-0.62560875
1764434036.7282414,-0.3204599999999999,3.92182,0.3051999999999999,0.585020475,-0.530455185,-0.62560875
1764434036.7282414,-0.3204599999999999,3.92182,0.3051999999999999,0.585020475,-0.530455185,-0.62560875
1764434036.7282414,-0.3204599999999999,3.92182,0.3051999999999999,0.585020475,-0.530455185,-0.62560875
1764434036.7282414,-0.3204599999999999,3.92182,0.3051999999999999,0.585020475,-0.530455185,-0.62560875
1764434036.7282414,-0.3204599999999999,3.92182,0.3051999999999999,0.585020475,-0.530455185,-0.62560875
1764434036.7282414,-0.04578,3.9676,0.62566,0.584288055,-0.530088975,-0.6255477150000001
1764434036.7282414,-0.04578,3.9676,0.62566,0.584288055,-0.530088975,-0.6255477150000001
1764434036.7282414,-0.04578,3.9676,0.62566,0.584288055,-0.530088975,-0.6255477150000001
1764434036.7282414,-0.04578,3.9676,0.62566,0.584288055,-0.530088975,-0.6255477150000001
1764434036.7282414,-0.04578,3.9676,0.62566,0.584288055,-0.530088975,-0.6255477150000001
1764434036.7282414,-0.04578,3.9676,0.62566,0.584288055,-0.530088975,-0.6255477150000001
1764434036.7282414,-0.04578,3.9676,0.62566,0.584288055,-0.530088975,-0.6255477150000001
1764434036.7282414,-0.04578,3.9676,0.62566,0.584288055,-0.530088975,-0.6255477150000001
1764434036.7282414,-0.04578,3.9676,0.62566,0.584288055,-0.530088975,-0.6255477150000001
1764434036.7282414,-0.04578,3.9676,0.62566,0.584288055,-0.530088975,-0.6255477150000001
1764434036.7282414,-0.0762999999999999,3.86078,0.51884,0.584043915,-0.5301500100000001,-0.62524254
1764434036.7282414,-0.0762999999999999,3.86078,0.51884,0.584043915,-0.5301500100000001,-0.62524254
1764434036.7292416,-0.0762999999999999,3.86078,0.51884,0.584043915,-0.5301500100000001,-0.62524254
1764434036.7292416,-0.0762999999999999,3.86078,0.51884,0.584043915,-0.5301500100000001,-0.62524254
1764434036.7292416,-0.0762999999999999,3.86078,0.51884,0.584043915,-0.5301500100000001,-0.62524254
1764434036.7292416,-0.0762999999999999,3.86078,0.51884,0.584043915,-0.5301500100000001,-0.62524254
1764434036.7292416,-0.0762999999999999,3.86078,0.51884,0.584043915,-0.5301500100000001,-0.62524254
1764434036.7292416,-0.0762999999999999,3.86078,0.51884,0.584043915,-0.5301500100000001,-0.62524254
1764434036.7736628,-0.0762999999999999,3.86078,0.51884,0.584043915,-0.5301500100000001,-0.62524254
1764434036.7736628,-0.0762999999999999,3.86078,0.51884,0.584043915,-0.5301500100000001,-0.62524254
1764434036.7736628,0.09156,4.36436,0.85456,0.584532195,-0.530577255,-0.625303575
1764434036.7747087,0.09156,4.36436,0.85456,0.584532195,-0.530577255,-0.625303575
1764434036.7747087,0.09156,4.36436,0.85456,0.584532195,-0.530577255,-0.625303575
1764434036.7747087,0.09156,4.36436,0.85456,0.584532195,-0.530577255,-0.625303575
1764434036.7757096,0.09156,4.36436,0.85456,0.584532195,-0.530577255,-0.625303575
1764434036.7757096,0.09156,4.36436,0.85456,0.584532195,-0.530577255,-0.625303575
1764434036.7757096,0.09156,4.36436,0.85456,0.584532195,-0.530577255,-0.625303575
1764434036.7757096,0.09156,4.36436,0.85456,0.584532195,-0.530577255,-0.625303575
1764434036.7757096,0.09156,4.36436,0.85456,0.584532195,-0.530577255,-0.625303575
1764434036.7757096,0.09156,4.36436,0.85456,0.584532195,-0.530577255,-0.625303575
1764434036.7757096,0.01526,3.87604,0.9156,0.585142545,-0.53027208,-0.62548668
1764434036.7757096,0.01526,3.87604,0.9156,0.585142545,-0.53027208,-0.62548668
1764434036.7757096,0.01526,3.87604,0.9156,0.585142545,-0.53027208,-0.62548668
1764434036.7757096,0.01526,3.87604,0.9156,0.585142545,-0.53027208,-0.62548668
1764434036.7757096,0.01526,3.87604,0.9156,0.585142545,-0.53027208,-0.62548668
1764434036.7757096,0.01526,3.87604,0.9156,0.585142545,-0.53027208,-0.62548668
1764434036.7757096,0.01526,3.87604,0.9156,0.585142545,-0.53027208,-0.62548668
1764434036.7757096,0.01526,3.87604,0.9156,0.585142545,-0.53027208,-0.62548668
1764434036.7757096,0.01526,3.87604,0.9156,0.585142545,-0.53027208,-0.62548668
1764434036.7757096,0.01526,3.87604,0.9156,0.585142545,-0.53027208,-0.62548668
1764434036.819593,-0.6409199999999999,3.815,0.5341,0.584776335,-0.53063829,-0.62524254
1764434036.819593,-0.6409199999999999,3.815,0.5341,0.584776335,-0.53063829,-0.62524254
1764434036.819593,-0.6409199999999999,3.815,0.5341,0.584776335,-0.53063829,-0.62524254
1764434036.819593,-0.6409199999999999,3.815,0.5341,0.584776335,-0.53063829,-0.62524254
1764434036.819593,-0.6409199999999999,3.815,0.5341,0.584776335,-0.53063829,-0.62524254
1764434036.819593,-0.6409199999999999,3.815,0.5341,0.584776335,-0.53063829,-0.62524254
1764434036.819593,-0.6409199999999999,3.815,0.5341,0.584776335,-0.53063829,-0.62524254
1764434036.819593,-0.6409199999999999,3.815,0.5341,0.584776335,-0.53063829,-0.62524254
1764434036.819593,-0.6409199999999999,3.815,0.5341,0.584776335,-0.53063829,-0.62524254
1764434036.819593,-0.6409199999999999,3.815,0.5341,0.584776335,-0.53063829,-0.62524254
1764434036.819593,-0.71722,3.69292,0.6409199999999999,0.584410125,-0.530455185,-0.625181505
1764434036.819593,-0.71722,3.69292,0.6409199999999999,0.584410125,-0.530455185,-0.625181505
1764434036.819593,-0.71722,3.69292,0.6409199999999999,0.584410125,-0.530455185,-0.625181505
1764434036.819593,-0.71722,3.69292,0.6409199999999999,0.584410125,-0.530455185,-0.625181505
1764434036.819593,-0.71722,3.69292,0.6409199999999999,0.584410125,-0.530455185,-0.625181505
1764434036.819593,-0.71722,3.69292,0.6409199999999999,0.584410125,-0.530455185,-0.625181505
1764434036.819593,-0.71722,3.69292,0.6409199999999999,0.584410125,-0.530455185,-0.625181505
1764434036.819593,-0.71722,3.69292,0.6409199999999999,0.584410125,-0.530455185,-0.625181505
1764434036.819593,-0.71722,3.69292,0.6409199999999999,0.584410125,-0.530455185,-0.625181505
1764434036.819593,-0.71722,3.69292,0.6409199999999999,0.584410125,-0.530455185,-0.625181505
1764434036.819593,-0.3051999999999999,3.6624,0.65618,0.585264615,-0.529600695,-0.62463219
1764434036.819593,-0.3051999999999999,3.6624,0.65618,0.585264615,-0.529600695,-0.62463219
1764434036.819593,-0.3051999999999999,3.6624,0.65618,0.585264615,-0.529600695,-0.62463219
1764434036.819593,-0.3051999999999999,3.6624,0.65618,0.585264615,-0.529600695,-0.62463219
1764434036.8643746,-0.3051999999999999,3.6624,0.65618,0.585264615,-0.529600695,-0.62463219
1764434036.8654182,-0.3051999999999999,3.6624,0.65618,0.585264615,-0.529600695,-0.62463219
1764434036.8654182,-0.3051999999999999,3.6624,0.65618,0.585264615,-0.529600695,-0.62463219
1764434036.8654182,-0.3051999999999999,3.6624,0.65618,0.585264615,-0.529600695,-0.62463219
1764434036.8654182,-0.3051999999999999,3.6624,0.65618,0.585264615,-0.529600695,-0.62463219
1764434036.8654182,-0.3051999999999999,3.6624,0.65618,0.585264615,-0.529600695,-0.62463219
1764434036.8654182,-0.56462,3.14356,0.25942,0.5852035800000001,-0.5301500100000001,-0.6245101200000001
1764434036.8654182,-0.56462,3.14356,0.25942,0.5852035800000001,-0.5301500100000001,-0.6245101200000001
1764434036.8654182,-0.56462,3.14356,0.25942,0.5852035800000001,-0.5301500100000001,-0.6245101200000001
1764434036.8654182,-0.56462,3.14356,0.25942,0.5852035800000001,-0.5301500100000001,-0.6245101200000001
1764434036.8654182,-0.56462,3.14356,0.25942,0.5852035800000001,-0.5301500100000001,-0.6245101200000001
1764434036.8654182,-0.56462,3.14356,0.25942,0.5852035800000001,-0.5301500100000001,-0.6245101200000001
1764434036.8654182,-0.56462,3.14356,0.25942,0.5852035800000001,-0.5301500100000001,-0.6245101200000001
1764434036.8654182,-0.56462,3.14356,0.25942,0.5852035800000001,-0.5301500100000001,-0.6245101200000001
1764434036.8654182,-0.56462,3.14356,0.25942,0.5852035800000001,-0.5301500100000001,-0.6245101200000001
1764434036.8664374,-0.56462,3.14356,0.25942,0.5852035800000001,-0.5301500100000001,-0.6245101200000001
1764434036.8664374,-0.25942,7.79786,0.74774,0.5846542650000001,-0.531309675,-0.624571155
1764434036.8664374,-0.25942,7.79786,0.74774,0.5846542650000001,-0.531309675,-0.624571155
1764434036.8664374,-0.25942,7.79786,0.74774,0.5846542650000001,-0.531309675,-0.624571155
1764434036.8674145,-0.25942,7.79786,0.74774,0.5846542650000001,-0.531309675,-0.624571155
1764434036.8674145,-0.25942,7.79786,0.74774,0.5846542650000001,-0.531309675,-0.624571155
1764434036.8674145,-0.25942,7.79786,0.74774,0.5846542650000001,-0.531309675,-0.624571155
1764434036.9127634,-0.25942,7.79786,0.74774,0.5846542650000001,-0.531309675,-0.624571155
1764434036.9127634,-0.25942,7.79786,0.74774,0.5846542650000001,-0.531309675,-0.624571155
1764434036.9127634,-0.25942,7.79786,0.74774,0.5846542650000001,-0.531309675,-0.624571155
1764434036.9127634,-0.25942,7.79786,0.74774,0.5846542650000001,-0.531309675,-0.624571155
1764434036.9127634,0.1678599999999999,3.79974,0.27468,0.584898405,-0.53124864,-0.624204945
1764434036.9127634,0.1678599999999999,3.79974,0.27468,0.584898405,-0.53124864,-0.624204945
1764434036.9137616,0.1678599999999999,3.79974,0.27468,0.584898405,-0.53124864,-0.624204945
1764434036.9137616,0.1678599999999999,3.79974,0.27468,0.584898405,-0.53124864,-0.624204945
1764434036.9137616,0.1678599999999999,3.79974,0.27468,0.584898405,-0.53124864,-0.624204945
1764434036.9137616,0.1678599999999999,3.79974,0.27468,0.584898405,-0.53124864,-0.624204945
1764434036.9137616,0.1678599999999999,3.79974,0.27468,0.584898405,-0.53124864,-0.624204945
1764434036.9137616,0.1678599999999999,3.79974,0.27468,0.584898405,-0.53124864,-0.624204945
1764434036.9137616,0.1678599999999999,3.79974,0.27468,0.584898405,-0.53124864,-0.624204945
1764434036.9137616,0.1678599999999999,3.79974,0.27468,0.584898405,-0.53124864,-0.624204945
1764434036.9137616,0.39676,4.059159999999999,0.42728,0.584165985,-0.532164165,-0.6245101200000001
1764434036.9137616,0.39676,4.059159999999999,0.42728,0.584165985,-0.532164165,-0.6245101200000001
1764434036.9137616,0.39676,4.059159999999999,0.42728,0.584165985,-0.532164165,-0.6245101200000001
1764434036.9137616,0.39676,4.059159999999999,0.42728,0.584165985,-0.532164165,-0.6245101200000001
1764434036.9137616,0.39676,4.059159999999999,0.42728,0.584165985,-0.532164165,-0.6245101200000001
1764434036.9137616,0.39676,4.059159999999999,0.42728,0.584165985,-0.532164165,-0.6245101200000001
1764434036.9137616,0.39676,4.059159999999999,0.42728,0.584165985,-0.532164165,-0.6245101200000001
1764434036.9142754,0.39676,4.059159999999999,0.42728,0.584165985,-0.532164165,-0.6245101200000001
1764434036.9142754,0.39676,4.059159999999999,0.42728,0.584165985,-0.532164165,-0.6245101200000001
1764434036.9142754,0.39676,4.059159999999999,0.42728,0.584165985,-0.532164165,-0.6245101200000001
1764434036.959031,0.0762999999999999,4.07442,0.85456,0.58422702,-0.531553815,-0.624082875
1764434036.959031,0.0762999999999999,4.07442,0.85456,0.58422702,-0.531553815,-0.624082875
1764434036.959031,0.0762999999999999,4.07442,0.85456,0.58422702,-0.531553815,-0.624082875
1764434036.959031,0.0762999999999999,4.07442,0.85456,0.58422702,-0.531553815,-0.624082875
1764434036.959031,0.0762999999999999,4.07442,0.85456,0.58422702,-0.531553815,-0.624082875
1764434036.959031,0.0762999999999999,4.07442,0.85456,0.58422702,-0.531553815,-0.624082875
1764434036.959031,0.0762999999999999,4.07442,0.85456,0.58422702,-0.531553815,-0.624082875
1764434036.959031,0.0762999999999999,4.07442,0.85456,0.58422702,-0.531553815,-0.624082875
1764434036.959031,0.0762999999999999,4.07442,0.85456,0.58422702,-0.531553815,-0.624082875
1764434036.959031,0.0762999999999999,4.07442,0.85456,0.58422702,-0.531553815,-0.624082875
1764434036.959031,-0.27468,4.0439,0.9156,0.58410495,-0.53124864,-0.624204945
1764434036.959031,-0.27468,4.0439,0.9156,0.58410495,-0.53124864,-0.624204945
1764434036.959031,-0.27468,4.0439,0.9156,0.58410495,-0.53124864,-0.624204945
1764434036.959031,-0.27468,4.0439,0.9156,0.58410495,-0.53124864,-0.624204945
1764434036.959031,-0.27468,4.0439,0.9156,0.58410495,-0.53124864,-0.624204945
1764434036.959031,-0.27468,4.0439,0.9156,0.58410495,-0.53124864,-0.624204945
1764434036.959031,-0.27468,4.0439,0.9156,0.58410495,-0.53124864,-0.624204945
1764434036.959031,-0.27468,4.0439,0.9156,0.58410495,-0.53124864,-0.624204945
1764434036.959031,-0.27468,4.0439,0.9156,0.58410495,-0.53124864,-0.624204945
1764434036.959031,-0.27468,4.0439,0.9156,0.58410495,-0.53124864,-0.624204945
1764434036.959031,-0.18312,4.1202,0.9003399999999999,0.5847153,-0.53124864,-0.624327015
1764434036.959031,-0.18312,4.1202,0.9003399999999999,0.5847153,-0.53124864,-0.624327015
1764434037.0040772,-0.18312,4.1202,0.9003399999999999,0.5847153,-0.53124864,-0.624327015
1764434037.0040772,-0.18312,4.1202,0.9003399999999999,0.5847153,-0.53124864,-0.624327015
1764434037.0040772,-0.18312,4.1202,0.9003399999999999,0.5847153,-0.53124864,-0.624327015
1764434037.0040772,-0.18312,4.1202,0.9003399999999999,0.5847153,-0.53124864,-0.624327015
1764434037.0040772,-0.18312,4.1202,0.9003399999999999,0.5847153,-0.53124864,-0.624327015
1764434037.0040772,-0.18312,4.1202,0.9003399999999999,0.5847153,-0.53124864,-0.624327015
1764434037.0040772,-0.18312,4.1202,0.9003399999999999,0.5847153,-0.53124864,-0.624327015
1764434037.0040772,-0.18312,4.1202,0.9003399999999999,0.5847153,-0.53124864,-0.624327015
1764434037.0040772,0.04578,7.79786,0.6409199999999999,0.58495944,-0.530821395,-0.6237777
1764434037.0040772,0.04578,7.79786,0.6409199999999999,0.58495944,-0.530821395,-0.6237777
1764434037.0040772,0.04578,7.79786,0.6409199999999999,0.58495944,-0.530821395,-0.6237777
1764434037.0040772,0.04578,7.79786,0.6409199999999999,0.58495944,-0.530821395,-0.6237777
1764434037.0040772,0.04578,7.79786,0.6409199999999999,0.58495944,-0.530821395,-0.6237777
1764434037.0040772,0.04578,7.79786,0.6409199999999999,0.58495944,-0.530821395,-0.6237777
1764434037.0040772,0.04578,7.79786,0.6409199999999999,0.58495944,-0.530821395,-0.6237777
1764434037.0040772,0.04578,7.79786,0.6409199999999999,0.58495944,-0.530821395,-0.6237777
1764434037.0040772,0.04578,7.79786,0.6409199999999999,0.58495944,-0.530821395,-0.6237777
1764434037.0040772,0.04578,7.79786,0.6409199999999999,0.58495944,-0.530821395,-0.6237777
1764434037.005116,0.28994,4.28806,0.28994,0.58422702,-0.530333115,-0.6237777
1764434037.005116,0.28994,4.28806,0.28994,0.58422702,-0.530333115,-0.6237777
1764434037.005116,0.28994,4.28806,0.28994,0.58422702,-0.530333115,-0.6237777
1764434037.005116,0.28994,4.28806,0.28994,0.58422702,-0.530333115,-0.6237777
1764434037.048307,0.28994,4.28806,0.28994,0.58422702,-0.530333115,-0.6237777
1764434037.048307,0.28994,4.28806,0.28994,0.58422702,-0.530333115,-0.6237777
1764434037.048307,0.28994,4.28806,0.28994,0.58422702,-0.530333115,-0.6237777
1764434037.048307,0.28994,4.28806,0.28994,0.58422702,-0.530333115,-0.6237777
1764434037.0488217,0.28994,4.28806,0.28994,0.58422702,-0.530333115,-0.6237777
1764434037.0488217,0.28994,4.28806,0.28994,0.58422702,-0.530333115,-0.6237777
1764434037.0488217,0.2289,4.76112,0.9003399999999999,0.5847153,-0.530943465,-0.62365563
1764434037.0488217,0.2289,4.76112,0.9003399999999999,0.5847153,-0.530943465,-0.62365563
1764434037.0488217,0.2289,4.76112,0.9003399999999999,0.5847153,-0.530943465,-0.62365563
1764434037.0488217,0.2289,4.76112,0.9003399999999999,0.5847153,-0.530943465,-0.62365563
1764434037.0488217,0.2289,4.76112,0.9003399999999999,0.5847153,-0.530943465,-0.62365563
1764434037.0488217,0.2289,4.76112,0.9003399999999999,0.5847153,-0.530943465,-0.62365563
1764434037.0488217,0.2289,4.76112,0.9003399999999999,0.5847153,-0.530943465,-0.62365563
1764434037.0488217,0.2289,4.76112,0.9003399999999999,0.5847153,-0.530943465,-0.62365563
1764434037.0488217,0.2289,4.76112,0.9003399999999999,0.5847153,-0.530943465,-0.62365563
1764434037.0488217,0.2289,4.76112,0.9003399999999999,0.5847153,-0.530943465,-0.62365563
1764434037.0488217,0.54936,4.16598,0.77826,0.585997035,-0.532164165,-0.62353356
1764434037.0488217,0.54936,4.16598,0.77826,0.585997035,-0.532164165,-0.62353356
1764434037.0488217,0.54936,4.16598,0.77826,0.585997035,-0.532164165,-0.62353356
1764434037.0488217,0.54936,4.16598,0.77826,0.585997035,-0.532164165,-0.62353356
1764434037.0488217,0.54936,4.16598,0.77826,0.585997035,-0.532164165,-0.62353356
1764434037.0488217,0.54936,4.16598,0.77826,0.585997035,-0.532164165,-0.62353356
1764434037.0488217,0.54936,4.16598,0.77826,0.585997035,-0.532164165,-0.62353356
1764434037.0488217,0.54936,4.16598,0.77826,0.585997035,-0.532164165,-0.62353356
1764434037.0488217,0.54936,4.16598,0.77826,0.585997035,-0.532164165,-0.62353356
1764434037.0488217,0.54936,4.16598,0.77826,0.585997035,-0.532164165,-0.62353356
1764434037.0976243,-0.1678599999999999,3.92182,0.8392999999999999,0.585997035,-0.53185899,-0.6239608050000001
1764434037.0976243,-0.1678599999999999,3.92182,0.8392999999999999,0.585997035,-0.53185899,-0.6239608050000001
1764434037.0976243,-0.1678599999999999,3.92182,0.8392999999999999,0.585997035,-0.53185899,-0.6239608050000001
1764434037.0976243,-0.1678599999999999,3.92182,0.8392999999999999,0.585997035,-0.53185899,-0.6239608050000001
1764434037.0976243,-0.1678599999999999,3.92182,0.8392999999999999,0.585997035,-0.53185899,-0.6239608050000001
1764434037.0976243,-0.1678599999999999,3.92182,0.8392999999999999,0.585997035,-0.53185899,-0.6239608050000001
1764434037.0976243,-0.1678599999999999,3.92182,0.8392999999999999,0.585997035,-0.53185899,-0.6239608050000001
1764434037.0976243,-0.1678599999999999,3.92182,0.8392999999999999,0.585997035,-0.53185899,-0.6239608050000001
1764434037.0976243,-0.1678599999999999,3.92182,0.8392999999999999,0.585997035,-0.53185899,-0.6239608050000001
1764434037.0976243,-0.1678599999999999,3.92182,0.8392999999999999,0.585997035,-0.53185899,-0.6239608050000001
1764434037.0976243,-0.62566,3.6624,0.3357199999999999,0.585874965,-0.53234727,-0.624082875
1764434037.0976243,-0.62566,3.6624,0.3357199999999999,0.585874965,-0.53234727,-0.624082875
1764434037.0976243,-0.62566,3.6624,0.3357199999999999,0.585874965,-0.53234727,-0.624082875
1764434037.0976243,-0.62566,3.6624,0.3357199999999999,0.585874965,-0.53234727,-0.624082875
1764434037.0976243,-0.62566,3.6624,0.3357199999999999,0.585874965,-0.53234727,-0.624082875
1764434037.0976243,-0.62566,3.6624,0.3357199999999999,0.585874965,-0.53234727,-0.624082875
1764434037.0976243,-0.62566,3.6624,0.3357199999999999,0.585874965,-0.53234727,-0.624082875
1764434037.0976243,-0.62566,3.6624,0.3357199999999999,0.585874965,-0.53234727,-0.624082875
1764434037.0976243,-0.62566,3.6624,0.3357199999999999,0.585874965,-0.53234727,-0.624082875
1764434037.098632,-0.62566,3.6624,0.3357199999999999,0.585874965,-0.53234727,-0.624082875
1764434037.098632,-0.27468,3.63188,0.763,0.58556979,-0.532164165,-0.624327015
1764434037.098632,-0.27468,3.63188,0.763,0.58556979,-0.532164165,-0.624327015
1764434037.1439834,-0.27468,3.63188,0.763,0.58556979,-0.532164165,-0.624327015
1764434037.1450222,-0.27468,3.63188,0.763,0.58556979,-0.532164165,-0.624327015
1764434037.1450222,-0.27468,3.63188,0.763,0.58556979,-0.532164165,-0.624327015
1764434037.1450222,-0.27468,3.63188,0.763,0.58556979,-0.532164165,-0.624327015
1764434037.1450222,-0.27468,3.63188,0.763,0.58556979,-0.532164165,-0.624327015
1764434037.1460297,-0.27468,3.63188,0.763,0.58556979,-0.532164165,-0.624327015
1764434037.1460297,-0.27468,3.63188,0.763,0.58556979,-0.532164165,-0.624327015
1764434037.1460297,-0.27468,3.63188,0.763,0.58556979,-0.532164165,-0.624327015
1764434037.1460297,0.10682,3.7387,0.56462,0.584898405,-0.53271348,-0.62353356
1764434037.1460297,0.10682,3.7387,0.56462,0.584898405,-0.53271348,-0.62353356
1764434037.1460297,0.10682,3.7387,0.56462,0.584898405,-0.53271348,-0.62353356
1764434037.1460297,0.10682,3.7387,0.56462,0.584898405,-0.53271348,-0.62353356
1764434037.1460297,0.10682,3.7387,0.56462,0.584898405,-0.53271348,-0.62353356
1764434037.1460297,0.10682,3.7387,0.56462,0.584898405,-0.53271348,-0.62353356
1764434037.1460297,0.10682,3.7387,0.56462,0.584898405,-0.53271348,-0.62353356
1764434037.1460297,0.10682,3.7387,0.56462,0.584898405,-0.53271348,-0.62353356
1764434037.1460297,0.10682,3.7387,0.56462,0.584898405,-0.53271348,-0.62353356
1764434037.1460297,0.10682,3.7387,0.56462,0.584898405,-0.53271348,-0.62353356
1764434037.1460297,-0.18312,3.69292,0.96138,0.58532565,-0.53271348,-0.623228385
1764434037.1460297,-0.18312,3.69292,0.96138,0.58532565,-0.53271348,-0.623228385
1764434037.1460297,-0.18312,3.69292,0.96138,0.58532565,-0.53271348,-0.623228385
1764434037.1460297,-0.18312,3.69292,0.96138,0.58532565,-0.53271348,-0.623228385
1764434037.186948,-0.18312,3.69292,0.96138,0.58532565,-0.53271348,-0.623228385
1764434037.186948,-0.18312,3.69292,0.96138,0.58532565,-0.53271348,-0.623228385
1764434037.186948,-0.18312,3.69292,0.96138,0.58532565,-0.53271348,-0.623228385
1764434037.186948,-0.18312,3.69292,0.96138,0.58532565,-0.53271348,-0.623228385
1764434037.186948,-0.18312,3.69292,0.96138,0.58532565,-0.53271348,-0.623228385
1764434037.187986,-0.18312,3.69292,0.96138,0.58532565,-0.53271348,-0.623228385
1764434037.187986,-0.41202,3.54032,0.74774,0.585936,-0.532164165,-0.623228385
1764434037.187986,-0.41202,3.54032,0.74774,0.585936,-0.532164165,-0.623228385
1764434037.1893785,-0.41202,3.54032,0.74774,0.585936,-0.532164165,-0.623228385
1764434037.1893785,-0.41202,3.54032,0.74774,0.585936,-0.532164165,-0.623228385
1764434037.1893785,-0.41202,3.54032,0.74774,0.585936,-0.532164165,-0.623228385
1764434037.1893785,-0.41202,3.54032,0.74774,0.585936,-0.532164165,-0.623228385
1764434037.1893785,-0.41202,3.54032,0.74774,0.585936,-0.532164165,-0.623228385
1764434037.1893785,-0.41202,3.54032,0.74774,0.585936,-0.532164165,-0.623228385
1764434037.1893785,-0.41202,3.54032,0.74774,0.585936,-0.532164165,-0.623228385
1764434037.1893785,-0.41202,3.54032,0.74774,0.585936,-0.532164165,-0.623228385
1764434037.1893785,-0.3509799999999999,4.02864,0.6714399999999999,0.58556979,-0.532530375,-0.62341149
1764434037.1893785,-0.3509799999999999,4.02864,0.6714399999999999,0.58556979,-0.532530375,-0.62341149
1764434037.1893785,-0.3509799999999999,4.02864,0.6714399999999999,0.58556979,-0.532530375,-0.62341149
1764434037.1893785,-0.3509799999999999,4.02864,0.6714399999999999,0.58556979,-0.532530375,-0.62341149
1764434037.1893785,-0.3509799999999999,4.02864,0.6714399999999999,0.58556979,-0.532530375,-0.62341149
1764434037.1893785,-0.3509799999999999,4.02864,0.6714399999999999,0.58556979,-0.532530375,-0.62341149
1764434037.1893785,-0.3509799999999999,4.02864,0.6714399999999999,0.58556979,-0.532530375,-0.62341149
1764434037.1893785,-0.3509799999999999,4.02864,0.6714399999999999,0.58556979,-0.532530375,-0.62341149
1764434037.2382371,-0.3509799999999999,4.02864,0.6714399999999999,0.58556979,-0.532530375,-0.62341149
1764434037.2392354,-0.3509799999999999,4.02864,0.6714399999999999,0.58556979,-0.532530375,-0.62341149
1764434037.2392354,-0.51884,3.86078,0.97664,0.58618014,-0.53234727,-0.623350455
1764434037.2392354,-0.51884,3.86078,0.97664,0.58618014,-0.53234727,-0.623350455
1764434037.2392354,-0.51884,3.86078,0.97664,0.58618014,-0.53234727,-0.623350455
1764434037.2392354,-0.51884,3.86078,0.97664,0.58618014,-0.53234727,-0.623350455
1764434037.2392354,-0.51884,3.86078,0.97664,0.58618014,-0.53234727,-0.623350455
1764434037.2392354,-0.51884,3.86078,0.97664,0.58618014,-0.53234727,-0.623350455
1764434037.2392354,-0.51884,3.86078,0.97664,0.58618014,-0.53234727,-0.623350455
1764434037.2392354,-0.51884,3.86078,0.97664,0.58618014,-0.53234727,-0.623350455
1764434037.2392354,-0.51884,3.86078,0.97664,0.58618014,-0.53234727,-0.623350455
1764434037.2392354,-0.51884,3.86078,0.97664,0.58618014,-0.53234727,-0.623350455
1764434037.2392354,-0.3815,3.79974,0.82404,0.5862411750000001,-0.5334459,-0.623716665
1764434037.2392354,-0.3815,3.79974,0.82404,0.5862411750000001,-0.5334459,-0.623716665
1764434037.2402315,-0.3815,3.79974,0.82404,0.5862411750000001,-0.5334459,-0.623716665
1764434037.2402315,-0.3815,3.79974,0.82404,0.5862411750000001,-0.5334459,-0.623716665
1764434037.2402315,-0.3815,3.79974,0.82404,0.5862411750000001,-0.5334459,-0.623716665
1764434037.2402315,-0.3815,3.79974,0.82404,0.5862411750000001,-0.5334459,-0.623716665
1764434037.2402315,-0.3815,3.79974,0.82404,0.5862411750000001,-0.5334459,-0.623716665
1764434037.2402315,-0.3815,3.79974,0.82404,0.5862411750000001,-0.5334459,-0.623716665
1764434037.2402315,-0.3815,3.79974,0.82404,0.5862411750000001,-0.5334459,-0.623716665
1764434037.2402315,-0.3815,3.79974,0.82404,0.5862411750000001,-0.5334459,-0.623716665
1764434037.2402315,0.1525999999999999,3.61662,0.1525999999999999,0.58532565,-0.533140725,-0.622984245
1764434037.2402315,0.1525999999999999,3.61662,0.1525999999999999,0.58532565,-0.533140725,-0.622984245
1764434037.2808514,0.1525999999999999,3.61662,0.1525999999999999,0.58532565,-0.533140725,-0.622984245
1764434037.2808514,0.1525999999999999,3.61662,0.1525999999999999,0.58532565,-0.533140725,-0.622984245
1764434037.2808514,0.1525999999999999,3.61662,0.1525999999999999,0.58532565,-0.533140725,-0.622984245
1764434037.2808514,0.1525999999999999,3.61662,0.1525999999999999,0.58532565,-0.533140725,-0.622984245
1764434037.2808514,0.1525999999999999,3.61662,0.1525999999999999,0.58532565,-0.533140725,-0.622984245
1764434037.2808514,0.1525999999999999,3.61662,0.1525999999999999,0.58532565,-0.533140725,-0.622984245
1764434037.2808514,0.1525999999999999,3.61662,0.1525999999999999,0.58532565,-0.533140725,-0.622984245
1764434037.2808514,0.1525999999999999,3.61662,0.1525999999999999,0.58532565,-0.533140725,-0.622984245
1764434037.2808514,0.1525999999999999,3.6624,0.25942,0.58495944,-0.533018655,-0.622984245
1764434037.2808514,0.1525999999999999,3.6624,0.25942,0.58495944,-0.533018655,-0.622984245
1764434037.2808514,0.1525999999999999,3.6624,0.25942,0.58495944,-0.533018655,-0.622984245
1764434037.2808514,0.1525999999999999,3.6624,0.25942,0.58495944,-0.533018655,-0.622984245
1764434037.2808514,0.1525999999999999,3.6624,0.25942,0.58495944,-0.533018655,-0.622984245
1764434037.2808514,0.1525999999999999,3.6624,0.25942,0.58495944,-0.533018655,-0.622984245
1764434037.281882,0.1525999999999999,3.6624,0.25942,0.58495944,-0.533018655,-0.622984245
1764434037.281882,0.1525999999999999,3.6624,0.25942,0.58495944,-0.533018655,-0.622984245
1764434037.281882,0.1525999999999999,3.6624,0.25942,0.58495944,-0.533018655,-0.622984245
1764434037.281882,0.1525999999999999,3.6624,0.25942,0.58495944,-0.533018655,-0.622984245
1764434037.282921,-0.04578,3.98286,0.3204599999999999,0.584898405,-0.53356797,-0.62267907
1764434037.282921,-0.04578,3.98286,0.3204599999999999,0.584898405,-0.53356797,-0.62267907
1764434037.282921,-0.04578,3.98286,0.3204599999999999,0.584898405,-0.53356797,-0.62267907
1764434037.282921,-0.04578,3.98286,0.3204599999999999,0.584898405,-0.53356797,-0.62267907
1764434037.328169,-0.04578,3.98286,0.3204599999999999,0.584898405,-0.53356797,-0.62267907
1764434037.328169,-0.04578,3.98286,0.3204599999999999,0.584898405,-0.53356797,-0.62267907
1764434037.3292124,-0.04578,3.98286,0.3204599999999999,0.584898405,-0.53356797,-0.62267907
1764434037.3292124,-0.04578,3.98286,0.3204599999999999,0.584898405,-0.53356797,-0.62267907
1764434037.3292124,-0.04578,3.98286,0.3204599999999999,0.584898405,-0.53356797,-0.62267907
1764434037.3292124,-0.04578,3.98286,0.3204599999999999,0.584898405,-0.53356797,-0.62267907
1764434037.3292124,-0.54936,3.69292,0.42728,0.5852035800000001,-0.533995215,-0.622618035
1764434037.3292124,-0.54936,3.69292,0.42728,0.5852035800000001,-0.533995215,-0.622618035
1764434037.3292124,-0.54936,3.69292,0.42728,0.5852035800000001,-0.533995215,-0.622618035
1764434037.3292124,-0.54936,3.69292,0.42728,0.5852035800000001,-0.533995215,-0.622618035
1764434037.3292124,-0.54936,3.69292,0.42728,0.5852035800000001,-0.533995215,-0.622618035
1764434037.3297937,-0.54936,3.69292,0.42728,0.5852035800000001,-0.533995215,-0.622618035
1764434037.3297937,-0.54936,3.69292,0.42728,0.5852035800000001,-0.533995215,-0.622618035
1764434037.3297937,-0.54936,3.69292,0.42728,0.5852035800000001,-0.533995215,-0.622618035
1764434037.330209,-0.54936,3.69292,0.42728,0.5852035800000001,-0.533995215,-0.622618035
1764434037.330209,-0.54936,3.69292,0.42728,0.5852035800000001,-0.533995215,-0.622618035
1764434037.330209,-0.3509799999999999,3.60136,0.73248,0.584898405,-0.533995215,-0.622618035
1764434037.330209,-0.3509799999999999,3.60136,0.73248,0.584898405,-0.533995215,-0.622618035
1764434037.330209,-0.3509799999999999,3.60136,0.73248,0.584898405,-0.533995215,-0.622618035
1764434037.330209,-0.3509799999999999,3.60136,0.73248,0.584898405,-0.533995215,-0.622618035
1764434037.330209,-0.3509799999999999,3.60136,0.73248,0.584898405,-0.533995215,-0.622618035
1764434037.330209,-0.3509799999999999,3.60136,0.73248,0.584898405,-0.533995215,-0.622618035
1764434037.3757484,-0.3509799999999999,3.60136,0.73248,0.584898405,-0.533995215,-0.622618035
1764434037.3757484,-0.3509799999999999,3.60136,0.73248,0.584898405,-0.533995215,-0.622618035
1764434037.3757484,-0.3509799999999999,3.60136,0.73248,0.584898405,-0.533995215,-0.622618035
1764434037.3757484,-0.3509799999999999,3.60136,0.73248,0.584898405,-0.533995215,-0.622618035
1764434037.3757484,-0.6409199999999999,4.24228,0.62566,0.58508151,-0.533262795,-0.62280114
1764434037.3757484,-0.6409199999999999,4.24228,0.62566,0.58508151,-0.533262795,-0.62280114
1764434037.3757484,-0.6409199999999999,4.24228,0.62566,0.58508151,-0.533262795,-0.62280114
1764434037.3757484,-0.6409199999999999,4.24228,0.62566,0.58508151,-0.533262795,-0.62280114
1764434037.3757484,-0.6409199999999999,4.24228,0.62566,0.58508151,-0.533262795,-0.62280114
1764434037.3757484,-0.6409199999999999,4.24228,0.62566,0.58508151,-0.533262795,-0.62280114
1764434037.3767493,-0.6409199999999999,4.24228,0.62566,0.58508151,-0.533262795,-0.62280114
1764434037.3767493,-0.6409199999999999,4.24228,0.62566,0.58508151,-0.533262795,-0.62280114
1764434037.3767493,-0.6409199999999999,4.24228,0.62566,0.58508151,-0.533262795,-0.62280114
1764434037.3767493,-0.6409199999999999,4.24228,0.62566,0.58508151,-0.533262795,-0.62280114
1764434037.3767493,-0.50358,3.84552,0.94612,0.58544772,-0.53271348,-0.62328942
1764434037.3767493,-0.50358,3.84552,0.94612,0.58544772,-0.53271348,-0.62328942
1764434037.3767493,-0.50358,3.84552,0.94612,0.58544772,-0.53271348,-0.62328942
1764434037.3767493,-0.50358,3.84552,0.94612,0.58544772,-0.53271348,-0.62328942
1764434037.377171,-0.50358,3.84552,0.94612,0.58544772,-0.53271348,-0.62328942
1764434037.377171,-0.50358,3.84552,0.94612,0.58544772,-0.53271348,-0.62328942
1764434037.377171,-0.50358,3.84552,0.94612,0.58544772,-0.53271348,-0.62328942
1764434037.377171,-0.50358,3.84552,0.94612,0.58544772,-0.53271348,-0.62328942
1764434037.377171,-0.50358,3.84552,0.94612,0.58544772,-0.53271348,-0.62328942
1764434037.377171,-0.50358,3.84552,0.94612,0.58544772,-0.53271348,-0.62328942
1764434037.4227016,-0.1678599999999999,4.36436,0.79352,0.58495944,-0.53259141,-0.62316735
1764434037.4227016,-0.1678599999999999,4.36436,0.79352,0.58495944,-0.53259141,-0.62316735
1764434037.4227016,-0.1678599999999999,4.36436,0.79352,0.58495944,-0.53259141,-0.62316735
1764434037.4227016,-0.1678599999999999,4.36436,0.79352,0.58495944,-0.53259141,-0.62316735
1764434037.4227016,-0.1678599999999999,4.36436,0.79352,0.58495944,-0.53259141,-0.62316735
1764434037.423703,-0.1678599999999999,4.36436,0.79352,0.58495944,-0.53259141,-0.62316735
1764434037.423703,-0.1678599999999999,4.36436,0.79352,0.58495944,-0.53259141,-0.62316735
1764434037.423703,-0.1678599999999999,4.36436,0.79352,0.58495944,-0.53259141,-0.62316735
1764434037.423703,-0.1678599999999999,4.36436,0.79352,0.58495944,-0.53259141,-0.62316735
1764434037.423703,-0.1678599999999999,4.36436,0.79352,0.58495944,-0.53259141,-0.62316735
1764434037.423703,0.1525999999999999,4.08968,0.94612,0.585020475,-0.53307969,-0.62304528
1764434037.423703,0.1525999999999999,4.08968,0.94612,0.585020475,-0.53307969,-0.62304528
1764434037.423703,0.1525999999999999,4.08968,0.94612,0.585020475,-0.53307969,-0.62304528
1764434037.423703,0.1525999999999999,4.08968,0.94612,0.585020475,-0.53307969,-0.62304528
1764434037.423703,0.1525999999999999,4.08968,0.94612,0.585020475,-0.53307969,-0.62304528
1764434037.423703,0.1525999999999999,4.08968,0.94612,0.585020475,-0.53307969,-0.62304528
1764434037.423703,0.1525999999999999,4.08968,0.94612,0.585020475,-0.53307969,-0.62304528
1764434037.423703,0.1525999999999999,4.08968,0.94612,0.585020475,-0.53307969,-0.62304528
1764434037.424215,0.1525999999999999,4.08968,0.94612,0.585020475,-0.53307969,-0.62304528
1764434037.424215,0.1525999999999999,4.08968,0.94612,0.585020475,-0.53307969,-0.62304528
1764434037.424215,0.06104,3.86078,0.8392999999999999,0.58556979,-0.533018655,-0.622862175
1764434037.424215,0.06104,3.86078,0.8392999999999999,0.58556979,-0.533018655,-0.622862175
1764434037.424215,0.06104,3.86078,0.8392999999999999,0.58556979,-0.533018655,-0.622862175
1764434037.424215,0.06104,3.86078,0.8392999999999999,0.58556979,-0.533018655,-0.622862175
1764434037.4687026,0.06104,3.86078,0.8392999999999999,0.58556979,-0.533018655,-0.622862175
1764434037.4687026,0.06104,3.86078,0.8392999999999999,0.58556979,-0.533018655,-0.622862175
1764434037.4687026,0.06104,3.86078,0.8392999999999999,0.58556979,-0.533018655,-0.622862175
1764434037.4697523,0.06104,3.86078,0.8392999999999999,0.58556979,-0.533018655,-0.622862175
1764434037.4697523,0.06104,3.86078,0.8392999999999999,0.58556979,-0.533018655,-0.622862175
1764434037.4697523,0.06104,3.86078,0.8392999999999999,0.58556979,-0.533018655,-0.622862175
1764434037.4697523,-0.39676,3.815,0.36624,0.585936,-0.533384865,-0.6229232100000001
1764434037.4697523,-0.39676,3.815,0.36624,0.585936,-0.533384865,-0.6229232100000001
1764434037.4697523,-0.39676,3.815,0.36624,0.585936,-0.533384865,-0.6229232100000001
1764434037.4707425,-0.39676,3.815,0.36624,0.585936,-0.533384865,-0.6229232100000001
1764434037.4707425,-0.39676,3.815,0.36624,0.585936,-0.533384865,-0.6229232100000001
1764434037.4707425,-0.39676,3.815,0.36624,0.585936,-0.533384865,-0.6229232100000001
1764434037.4707425,-0.39676,3.815,0.36624,0.585936,-0.533384865,-0.6229232100000001
1764434037.4707425,-0.39676,3.815,0.36624,0.585936,-0.533384865,-0.6229232100000001
1764434037.4707425,-0.39676,3.815,0.36624,0.585936,-0.533384865,-0.6229232100000001
1764434037.4707425,-0.39676,3.815,0.36624,0.585936,-0.533384865,-0.6229232100000001
1764434037.4717438,-0.65618,3.32668,0.47306,0.5856918600000001,-0.533873145,-0.62304528
1764434037.4717438,-0.65618,3.32668,0.47306,0.5856918600000001,-0.533873145,-0.62304528
1764434037.4717438,-0.65618,3.32668,0.47306,0.5856918600000001,-0.533873145,-0.62304528
1764434037.4717438,-0.65618,3.32668,0.47306,0.5856918600000001,-0.533873145,-0.62304528
1764434037.4717438,-0.65618,3.32668,0.47306,0.5856918600000001,-0.533873145,-0.62304528
1764434037.4717438,-0.65618,3.32668,0.47306,0.5856918600000001,-0.533873145,-0.62304528
1764434037.4717438,-0.65618,3.32668,0.47306,0.5856918600000001,-0.533873145,-0.62304528
1764434037.4717438,-0.65618,3.32668,0.47306,0.5856918600000001,-0.533873145,-0.62304528
1764434037.512988,-0.65618,3.32668,0.47306,0.5856918600000001,-0.533873145,-0.62304528
1764434037.512988,-0.65618,3.32668,0.47306,0.5856918600000001,-0.533873145,-0.62304528
1764434037.512988,-1.31236,3.40298,0.18312,0.58483737,-0.533384865,-0.622557
1764434037.512988,-1.31236,3.40298,0.18312,0.58483737,-0.533384865,-0.622557
1764434037.512988,-1.31236,3.40298,0.18312,0.58483737,-0.533384865,-0.622557
1764434037.512988,-1.31236,3.40298,0.18312,0.58483737,-0.533384865,-0.622557
1764434037.512988,-1.31236,3.40298,0.18312,0.58483737,-0.533384865,-0.622557
1764434037.512988,-1.31236,3.40298,0.18312,0.58483737,-0.533384865,-0.622557
1764434037.512988,-1.31236,3.40298,0.18312,0.58483737,-0.533384865,-0.622557
1764434037.512988,-1.31236,3.40298,0.18312,0.58483737,-0.533384865,-0.622557
1764434037.512988,-1.31236,3.40298,0.18312,0.58483737,-0.533384865,-0.622557
1764434037.512988,-1.31236,3.40298,0.18312,0.58483737,-0.533384865,-0.622557
1764434037.512988,-1.15976,3.76922,0.28994,0.585142545,-0.53259141,-0.622862175
1764434037.512988,-1.15976,3.76922,0.28994,0.585142545,-0.53259141,-0.622862175
1764434037.512988,-1.15976,3.76922,0.28994,0.585142545,-0.53259141,-0.622862175
1764434037.512988,-1.15976,3.76922,0.28994,0.585142545,-0.53259141,-0.622862175
1764434037.512988,-1.15976,3.76922,0.28994,0.585142545,-0.53259141,-0.622862175
1764434037.512988,-1.15976,3.76922,0.28994,0.585142545,-0.53259141,-0.622862175
1764434037.512988,-1.15976,3.76922,0.28994,0.585142545,-0.53259141,-0.622862175
1764434037.512988,-1.15976,3.76922,0.28994,0.585142545,-0.53259141,-0.622862175
1764434037.512988,-1.15976,3.76922,0.28994,0.585142545,-0.53259141,-0.622862175
1764434037.512988,-1.15976,3.76922,0.28994,0.585142545,-0.53259141,-0.622862175
1764434037.558957,-0.74774,3.14356,0.3204599999999999,0.585874965,-0.53307969,-0.622251825
1764434037.558957,-0.74774,3.14356,0.3204599999999999,0.585874965,-0.53307969,-0.622251825
1764434037.558957,-0.74774,3.14356,0.3204599999999999,0.585874965,-0.53307969,-0.622251825
1764434037.558957,-0.74774,3.14356,0.3204599999999999,0.585874965,-0.53307969,-0.622251825
1764434037.558957,-0.74774,3.14356,0.3204599999999999,0.585874965,-0.53307969,-0.622251825
1764434037.558957,-0.74774,3.14356,0.3204599999999999,0.585874965,-0.53307969,-0.622251825
1764434037.558957,-0.74774,3.14356,0.3204599999999999,0.585874965,-0.53307969,-0.622251825
1764434037.558957,-0.74774,3.14356,0.3204599999999999,0.585874965,-0.53307969,-0.622251825
1764434037.558957,-0.74774,3.14356,0.3204599999999999,0.585874965,-0.53307969,-0.622251825
1764434037.5599942,-0.74774,3.14356,0.3204599999999999,0.585874965,-0.53307969,-0.622251825
1764434037.5599942,-0.6867,3.75396,0.36624,0.585997035,-0.533018655,-0.622495965
1764434037.5599942,-0.6867,3.75396,0.36624,0.585997035,-0.533018655,-0.622495965
1764434037.5599942,-0.6867,3.75396,0.36624,0.585997035,-0.533018655,-0.622495965
1764434037.5599942,-0.6867,3.75396,0.36624,0.585997035,-0.533018655,-0.622495965
1764434037.5599942,-0.6867,3.75396,0.36624,0.585997035,-0.533018655,-0.622495965
1764434037.5599942,-0.6867,3.75396,0.36624,0.585997035,-0.533018655,-0.622495965
1764434037.5599942,-0.6867,3.75396,0.36624,0.585997035,-0.533018655,-0.622495965
1764434037.5599942,-0.6867,3.75396,0.36624,0.585997035,-0.533018655,-0.622495965
1764434037.5599942,-0.6867,3.75396,0.36624,0.585997035,-0.533018655,-0.622495965
1764434037.5599942,-0.6867,3.75396,0.36624,0.585997035,-0.533018655,-0.622495965
1764434037.5599942,-0.42728,3.86078,0.62566,0.58630221,-0.533140725,-0.622618035
1764434037.5599942,-0.42728,3.86078,0.62566,0.58630221,-0.533140725,-0.622618035
1764434037.5599942,-0.42728,3.86078,0.62566,0.58630221,-0.533140725,-0.622618035
1764434037.5599942,-0.42728,3.86078,0.62566,0.58630221,-0.533140725,-0.622618035
1764434037.6085677,-0.42728,3.86078,0.62566,0.58630221,-0.533140725,-0.622618035
1764434037.6085677,-0.42728,3.86078,0.62566,0.58630221,-0.533140725,-0.622618035
1764434037.6085677,-0.42728,3.86078,0.62566,0.58630221,-0.533140725,-0.622618035
1764434037.6085677,-0.42728,3.86078,0.62566,0.58630221,-0.533140725,-0.622618035
1764434037.6085677,-0.42728,3.86078,0.62566,0.58630221,-0.533140725,-0.622618035
1764434037.6085677,-0.42728,3.86078,0.62566,0.58630221,-0.533140725,-0.622618035
1764434037.6085677,-0.763,3.83026,0.44254,0.58679049,-0.53369004,-0.622251825
1764434037.6085677,-0.763,3.83026,0.44254,0.58679049,-0.53369004,-0.622251825
1764434037.6095953,-0.763,3.83026,0.44254,0.58679049,-0.53369004,-0.622251825
1764434037.6095953,-0.763,3.83026,0.44254,0.58679049,-0.53369004,-0.622251825
1764434037.6095953,-0.763,3.83026,0.44254,0.58679049,-0.53369004,-0.622251825
1764434037.6095953,-0.763,3.83026,0.44254,0.58679049,-0.53369004,-0.622251825
1764434037.6095953,-0.763,3.83026,0.44254,0.58679049,-0.53369004,-0.622251825
1764434037.6095953,-0.763,3.83026,0.44254,0.58679049,-0.53369004,-0.622251825
1764434037.6095953,-0.763,3.83026,0.44254,0.58679049,-0.53369004,-0.622251825
1764434037.6095953,-0.763,3.83026,0.44254,0.58679049,-0.53369004,-0.622251825
1764434037.6095953,-0.24416,3.815,0.47306,0.58654635,-0.533873145,-0.622862175
