Timestamp,GyroX,GyroY,GyroZ,AccX,AccY,AccZ
1764435048.937003,-2.92992,1.8312,1.32762,0.98034417,-0.112731645,0.08947731
1764435048.937003,-2.92992,1.8312,1.32762,0.98034417,-0.112731645,0.08947731
1764435048.937003,-2.92992,1.8312,1.32762,0.98034417,-0.112731645,0.08947731
1764435048.937003,-2.92992,1.8312,1.32762,0.98034417,-0.112731645,0.08947731
1764435048.937003,-2.92992,1.8312,1.32762,0.98034417,-0.112731645,0.08947731
1764435048.937003,-2.92992,1.8312,1.32762,0.98034417,-0.112731645,0.08947731
1764435048.937003,-3.21986,1.25132,1.0682,0.97997796,-0.112121295,0.089660415
1764435048.9380054,-3.21986,1.25132,1.0682,0.97997796,-0.112121295,0.089660415
1764435048.9380054,-3.21986,1.25132,1.0682,0.97997796,-0.112121295,0.089660415
1764435048.9380054,-3.21986,1.25132,1.0682,0.97997796,-0.112121295,0.089660415
1764435048.9380054,-3.21986,1.25132,1.0682,0.97997796,-0.112121295,0.089660415
1764435048.9380054,-3.21986,1.25132,1.0682,0.97997796,-0.112121295,0.089660415
1764435048.9380054,-3.21986,1.25132,1.0682,0.97997796,-0.112121295,0.089660415
1764435048.9380054,-3.21986,1.25132,1.0682,0.97997796,-0.112121295,0.089660415
1764435048.9380054,-3.21986,1.25132,1.0682,0.97997796,-0.112121295,0.089660415
1764435048.9380054,-3.21986,1.25132,1.0682,0.97997796,-0.112121295,0.089660415
1764435048.9380054,-3.4335,0.94612,0.8087799999999999,0.97985589,-0.11181612,0.089782485
1764435048.9380054,-3.4335,0.94612,0.8087799999999999,0.97985589,-0.11181612,0.089782485
1764435048.9380054,-3.4335,0.94612,0.8087799999999999,0.97985589,-0.11181612,0.089782485
1764435048.9380054,-3.4335,0.94612,0.8087799999999999,0.97985589,-0.11181612,0.089782485
1764435048.9380054,-3.4335,0.94612,0.8087799999999999,0.97985589,-0.11181612,0.089782485
1764435048.9380054,-3.4335,0.94612,0.8087799999999999,0.97985589,-0.11181612,0.089782485
1764435048.9815774,-3.4335,0.94612,0.8087799999999999,0.97985589,-0.11181612,0.089782485
1764435048.9815774,-3.4335,0.94612,0.8087799999999999,0.97985589,-0.11181612,0.089782485
1764435048.9815774,-3.4335,0.94612,0.8087799999999999,0.97985589,-0.11181612,0.089782485
1764435048.9815774,-3.4335,0.94612,0.8087799999999999,0.97985589,-0.11181612,0.089782485
1764435048.9815774,-4.0439,1.0682,1.00716,0.979794855,-0.111388875,0.09082008
1764435048.9815774,-4.0439,1.0682,1.00716,0.979794855,-0.111388875,0.09082008
1764435048.9815774,-4.0439,1.0682,1.00716,0.979794855,-0.111388875,0.09082008
1764435048.9815774,-4.0439,1.0682,1.00716,0.979794855,-0.111388875,0.09082008
1764435048.9815774,-4.0439,1.0682,1.00716,0.979794855,-0.111388875,0.09082008
1764435048.9815774,-4.0439,1.0682,1.00716,0.979794855,-0.111388875,0.09082008
1764435048.9815774,-4.0439,1.0682,1.00716,0.979794855,-0.111388875,0.09082008
1764435048.9815774,-4.0439,1.0682,1.00716,0.979794855,-0.111388875,0.09082008
1764435048.9815774,-4.0439,1.0682,1.00716,0.979794855,-0.111388875,0.09082008
1764435048.9815774,-4.0439,1.0682,1.00716,0.979794855,-0.111388875,0.09082008
1764435048.9815774,-3.67766,0.9919,1.25132,0.979062435,-0.111633015,0.091003185
1764435048.9825895,-3.67766,0.9919,1.25132,0.979062435,-0.111633015,0.091003185
1764435048.9825895,-3.67766,0.9919,1.25132,0.979062435,-0.111633015,0.091003185
1764435048.9825895,-3.67766,0.9919,1.25132,0.979062435,-0.111633015,0.091003185
1764435048.9825895,-3.67766,0.9919,1.25132,0.979062435,-0.111633015,0.091003185
1764435048.983589,-3.67766,0.9919,1.25132,0.979062435,-0.111633015,0.091003185
1764435048.983589,-3.67766,0.9919,1.25132,0.979062435,-0.111633015,0.091003185
1764435048.983589,-3.67766,0.9919,1.25132,0.979062435,-0.111633015,0.091003185
1764435048.983589,-3.67766,0.9919,1.25132,0.979062435,-0.111633015,0.091003185
1764435048.983589,-3.67766,0.9919,1.25132,0.979062435,-0.111633015,0.091003185
1764435049.0282826,-3.95234,0.56462,0.97664,0.97753656,-0.112121295,0.09069801
1764435049.0282826,-3.95234,0.56462,0.97664,0.97753656,-0.112121295,0.09069801
1764435049.0282826,-3.95234,0.56462,0.97664,0.97753656,-0.112121295,0.09069801
1764435049.0282826,-3.95234,0.56462,0.97664,0.97753656,-0.112121295,0.09069801
1764435049.0282826,-3.95234,0.56462,0.97664,0.97753656,-0.112121295,0.09069801
1764435049.0282826,-3.95234,0.56462,0.97664,0.97753656,-0.112121295,0.09069801
1764435049.0282826,-3.95234,0.56462,0.97664,0.97753656,-0.112121295,0.09069801
1764435049.0282826,-3.95234,0.56462,0.97664,0.97753656,-0.112121295,0.09069801
1764435049.0282826,-3.95234,0.56462,0.97664,0.97753656,-0.112121295,0.09069801
1764435049.0282826,-3.95234,0.56462,0.97664,0.97753656,-0.112121295,0.09069801
1764435049.0282826,-4.0439,0.3815,0.50358,0.977109315,-0.111266805,0.090514905
1764435049.0282826,-4.0439,0.3815,0.50358,0.977109315,-0.111266805,0.090514905
1764435049.0282826,-4.0439,0.3815,0.50358,0.977109315,-0.111266805,0.090514905
1764435049.0282826,-4.0439,0.3815,0.50358,0.977109315,-0.111266805,0.090514905
1764435049.0282826,-4.0439,0.3815,0.50358,0.977109315,-0.111266805,0.090514905
1764435049.0297952,-4.0439,0.3815,0.50358,0.977109315,-0.111266805,0.090514905
1764435049.0297952,-4.0439,0.3815,0.50358,0.977109315,-0.111266805,0.090514905
1764435049.0297952,-4.0439,0.3815,0.50358,0.977109315,-0.111266805,0.090514905
1764435049.0297952,-4.0439,0.3815,0.50358,0.977109315,-0.111266805,0.090514905
1764435049.0297952,-4.0439,0.3815,0.50358,0.977109315,-0.111266805,0.090514905
1764435049.0297952,-4.56274,0.24416,0.44254,0.977963805,-0.111022665,0.090392835
1764435049.0297952,-4.56274,0.24416,0.44254,0.977963805,-0.111022665,0.090392835
1764435049.0732105,-4.56274,0.24416,0.44254,0.977963805,-0.111022665,0.090392835
1764435049.0732105,-4.56274,0.24416,0.44254,0.977963805,-0.111022665,0.090392835
1764435049.0732105,-4.56274,0.24416,0.44254,0.977963805,-0.111022665,0.090392835
1764435049.0732105,-4.56274,0.24416,0.44254,0.977963805,-0.111022665,0.090392835
1764435049.0732105,-4.56274,0.24416,0.44254,0.977963805,-0.111022665,0.090392835
1764435049.0742257,-4.56274,0.24416,0.44254,0.977963805,-0.111022665,0.090392835
1764435049.0742257,-4.56274,0.24416,0.44254,0.977963805,-0.111022665,0.090392835
1764435049.0742257,-4.56274,0.24416,0.44254,0.977963805,-0.111022665,0.090392835
1764435049.0742257,-4.8069,0.1678599999999999,0.50358,0.978452085,-0.1110837,0.08972145
1764435049.0742257,-4.8069,0.1678599999999999,0.50358,0.978452085,-0.1110837,0.08972145
1764435049.0742257,-4.8069,0.1678599999999999,0.50358,0.978452085,-0.1110837,0.08972145
1764435049.0752242,-4.8069,0.1678599999999999,0.50358,0.978452085,-0.1110837,0.08972145
1764435049.0752242,-4.8069,0.1678599999999999,0.50358,0.978452085,-0.1110837,0.08972145
1764435049.075735,-4.8069,0.1678599999999999,0.50358,0.978452085,-0.1110837,0.08972145
1764435049.075735,-4.8069,0.1678599999999999,0.50358,0.978452085,-0.1110837,0.08972145
1764435049.075735,-4.8069,0.1678599999999999,0.50358,0.978452085,-0.1110837,0.08972145
1764435049.075735,-4.8069,0.1678599999999999,0.50358,0.978452085,-0.1110837,0.08972145
1764435049.075735,-4.8069,0.1678599999999999,0.50358,0.978452085,-0.1110837,0.08972145
1764435049.076748,-4.89846,0.04578,0.59514,0.97912347,-0.11096163,0.090392835
1764435049.076748,-4.89846,0.04578,0.59514,0.97912347,-0.11096163,0.090392835
1764435049.0777454,-4.89846,0.04578,0.59514,0.97912347,-0.11096163,0.090392835
1764435049.0777454,-4.89846,0.04578,0.59514,0.97912347,-0.11096163,0.090392835
1764435049.0777454,-4.89846,0.04578,0.59514,0.97912347,-0.11096163,0.090392835
1764435049.0777454,-4.89846,0.04578,0.59514,0.97912347,-0.11096163,0.090392835
1764435049.1186762,-4.89846,0.04578,0.59514,0.97912347,-0.11096163,0.090392835
1764435049.1186762,-4.89846,0.04578,0.59514,0.97912347,-0.11096163,0.090392835
1764435049.1196709,-4.89846,0.04578,0.59514,0.97912347,-0.11096163,0.090392835
1764435049.1196709,-4.89846,0.04578,0.59514,0.97912347,-0.11096163,0.090392835
1764435049.1196709,-5.21892,0.0,0.3204599999999999,0.979306575,-0.11169405,0.0903318
1764435049.1196709,-5.21892,0.0,0.3204599999999999,0.979306575,-0.11169405,0.0903318
1764435049.1207948,-5.21892,0.0,0.3204599999999999,0.979306575,-0.11169405,0.0903318
1764435049.1207948,-5.21892,0.0,0.3204599999999999,0.979306575,-0.11169405,0.0903318
1764435049.1207948,-5.21892,0.0,0.3204599999999999,0.979306575,-0.11169405,0.0903318
1764435049.1207948,-5.21892,0.0,0.3204599999999999,0.979306575,-0.11169405,0.0903318
1764435049.1207948,-5.21892,0.0,0.3204599999999999,0.979306575,-0.11169405,0.0903318
1764435049.1207948,-5.21892,0.0,0.3204599999999999,0.979306575,-0.11169405,0.0903318
1764435049.1217957,-5.21892,0.0,0.3204599999999999,0.979306575,-0.11169405,0.0903318
1764435049.1217957,-5.21892,0.0,0.3204599999999999,0.979306575,-0.11169405,0.0903318
1764435049.1217957,-5.27996,-0.09156,0.39676,0.979794855,-0.111633015,0.08996559
1764435049.1217957,-5.27996,-0.09156,0.39676,0.979794855,-0.111633015,0.08996559
1764435049.1217957,-5.27996,-0.09156,0.39676,0.979794855,-0.111633015,0.08996559
1764435049.1217957,-5.27996,-0.09156,0.39676,0.979794855,-0.111633015,0.08996559
1764435049.1217957,-5.27996,-0.09156,0.39676,0.979794855,-0.111633015,0.08996559
1764435049.1217957,-5.27996,-0.09156,0.39676,0.979794855,-0.111633015,0.08996559
1764435049.122796,-5.27996,-0.09156,0.39676,0.979794855,-0.111633015,0.08996559
1764435049.122796,-5.27996,-0.09156,0.39676,0.979794855,-0.111633015,0.08996559
1764435049.1655846,-5.27996,-0.09156,0.39676,0.979794855,-0.111633015,0.08996559
1764435049.1660273,-5.27996,-0.09156,0.39676,0.979794855,-0.111633015,0.08996559
1764435049.1660273,-5.2647,-1.0682,0.3509799999999999,0.97863519,-0.11218233,0.089904555
1764435049.1660273,-5.2647,-1.0682,0.3509799999999999,0.97863519,-0.11218233,0.089904555
1764435049.1660273,-5.2647,-1.0682,0.3509799999999999,0.97863519,-0.11218233,0.089904555
1764435049.1660273,-5.2647,-1.0682,0.3509799999999999,0.97863519,-0.11218233,0.089904555
1764435049.1660273,-5.2647,-1.0682,0.3509799999999999,0.97863519,-0.11218233,0.089904555
1764435049.1660273,-5.2647,-1.0682,0.3509799999999999,0.97863519,-0.11218233,0.089904555
1764435049.1660273,-5.2647,-1.0682,0.3509799999999999,0.97863519,-0.11218233,0.089904555
1764435049.1660273,-5.2647,-1.0682,0.3509799999999999,0.97863519,-0.11218233,0.089904555
1764435049.1660273,-5.2647,-1.0682,0.3509799999999999,0.97863519,-0.11218233,0.089904555
1764435049.1660273,-5.2647,-1.0682,0.3509799999999999,0.97863519,-0.11218233,0.089904555
1764435049.1660273,-5.508859999999999,-1.7549,-0.18312,0.97802484,-0.112121295,0.08947731
1764435049.1660273,-5.508859999999999,-1.7549,-0.18312,0.97802484,-0.112121295,0.08947731
1764435049.1660273,-5.508859999999999,-1.7549,-0.18312,0.97802484,-0.112121295,0.08947731
1764435049.1660273,-5.508859999999999,-1.7549,-0.18312,0.97802484,-0.112121295,0.08947731
1764435049.1660273,-5.508859999999999,-1.7549,-0.18312,0.97802484,-0.112121295,0.08947731
1764435049.1660273,-5.508859999999999,-1.7549,-0.18312,0.97802484,-0.112121295,0.08947731
1764435049.1660273,-5.508859999999999,-1.7549,-0.18312,0.97802484,-0.112121295,0.08947731
1764435049.1660273,-5.508859999999999,-1.7549,-0.18312,0.97802484,-0.112121295,0.08947731
1764435049.1670313,-5.508859999999999,-1.7549,-0.18312,0.97802484,-0.112121295,0.08947731
1764435049.1670313,-5.508859999999999,-1.7549,-0.18312,0.97802484,-0.112121295,0.08947731
1764435049.2113662,-6.57706,-1.72438,-0.10682,0.97814691,-0.111755085,0.089538345
1764435049.2113662,-6.57706,-1.72438,-0.10682,0.97814691,-0.111755085,0.089538345
1764435049.2113662,-6.57706,-1.72438,-0.10682,0.97814691,-0.111755085,0.089538345
1764435049.2113662,-6.57706,-1.72438,-0.10682,0.97814691,-0.111755085,0.089538345
1764435049.2113662,-6.57706,-1.72438,-0.10682,0.97814691,-0.111755085,0.089538345
1764435049.2113662,-6.57706,-1.72438,-0.10682,0.97814691,-0.111755085,0.089538345
1764435049.2113662,-6.57706,-1.72438,-0.10682,0.97814691,-0.111755085,0.089538345
1764435049.2113662,-6.57706,-1.72438,-0.10682,0.97814691,-0.111755085,0.089538345
1764435049.2113662,-6.57706,-1.72438,-0.10682,0.97814691,-0.111755085,0.089538345
1764435049.2113662,-6.57706,-1.72438,-0.10682,0.97814691,-0.111755085,0.089538345
1764435049.2123804,-6.42446,-1.8312,-0.42728,0.978207945,-0.111755085,0.08935524
1764435049.2123804,-6.42446,-1.8312,-0.42728,0.978207945,-0.111755085,0.08935524
1764435049.2123804,-6.42446,-1.8312,-0.42728,0.978207945,-0.111755085,0.08935524
1764435049.2123804,-6.42446,-1.8312,-0.42728,0.978207945,-0.111755085,0.08935524
1764435049.2133813,-6.42446,-1.8312,-0.42728,0.978207945,-0.111755085,0.08935524
1764435049.2133813,-6.42446,-1.8312,-0.42728,0.978207945,-0.111755085,0.08935524
1764435049.2133813,-6.42446,-1.8312,-0.42728,0.978207945,-0.111755085,0.08935524
1764435049.2133813,-6.42446,-1.8312,-0.42728,0.978207945,-0.111755085,0.08935524
1764435049.2133813,-6.42446,-1.8312,-0.42728,0.978207945,-0.111755085,0.08935524
1764435049.2133813,-6.42446,-1.8312,-0.42728,0.978207945,-0.111755085,0.08935524
1764435049.2133813,-7.15694,-1.57178,-0.74774,0.97912347,-0.11181612,0.08837868
1764435049.2133813,-7.15694,-1.57178,-0.74774,0.97912347,-0.11181612,0.08837868
1764435049.2133813,-7.15694,-1.57178,-0.74774,0.97912347,-0.11181612,0.08837868
1764435049.2133813,-7.15694,-1.57178,-0.74774,0.97912347,-0.11181612,0.08837868
1764435049.2565434,-7.15694,-1.57178,-0.74774,0.97912347,-0.11181612,0.08837868
1764435049.2565434,-7.15694,-1.57178,-0.74774,0.97912347,-0.11181612,0.08837868
1764435049.2565434,-7.15694,-1.57178,-0.74774,0.97912347,-0.11181612,0.08837868
1764435049.2565434,-7.15694,-1.57178,-0.74774,0.97912347,-0.11181612,0.08837868
1764435049.2565434,-7.15694,-1.57178,-0.74774,0.97912347,-0.11181612,0.08837868
1764435049.2565434,-7.15694,-1.57178,-0.74774,0.97912347,-0.11181612,0.08837868
1764435049.2565434,-7.3248,-2.0601,-0.47306,0.978452085,-0.111755085,0.087951435
1764435049.2565434,-7.3248,-2.0601,-0.47306,0.978452085,-0.111755085,0.087951435
1764435049.2565434,-7.3248,-2.0601,-0.47306,0.978452085,-0.111755085,0.087951435
1764435049.2565434,-7.3248,-2.0601,-0.47306,0.978452085,-0.111755085,0.087951435
1764435049.2565434,-7.3248,-2.0601,-0.47306,0.978452085,-0.111755085,0.087951435
1764435049.2565434,-7.3248,-2.0601,-0.47306,0.978452085,-0.111755085,0.087951435
1764435049.2565434,-7.3248,-2.0601,-0.47306,0.978452085,-0.111755085,0.087951435
1764435049.2565434,-7.3248,-2.0601,-0.47306,0.978452085,-0.111755085,0.087951435
1764435049.2565434,-7.3248,-2.0601,-0.47306,0.978452085,-0.111755085,0.087951435
1764435049.2565434,-7.3248,-2.0601,-0.47306,0.978452085,-0.111755085,0.087951435
1764435049.2565434,-7.35532,-2.01432,-0.5341,0.979672785,-0.111755085,0.087951435
1764435049.2565434,-7.35532,-2.01432,-0.5341,0.979672785,-0.111755085,0.087951435
1764435049.2565434,-7.35532,-2.01432,-0.5341,0.979672785,-0.111755085,0.087951435
1764435049.2565434,-7.35532,-2.01432,-0.5341,0.979672785,-0.111755085,0.087951435
1764435049.2565434,-7.35532,-2.01432,-0.5341,0.979672785,-0.111755085,0.087951435
1764435049.2565434,-7.35532,-2.01432,-0.5341,0.979672785,-0.111755085,0.087951435
1764435049.2565434,-7.35532,-2.01432,-0.5341,0.979672785,-0.111755085,0.087951435
1764435049.2565434,-7.35532,-2.01432,-0.5341,0.979672785,-0.111755085,0.087951435
1764435049.3045971,-7.35532,-2.01432,-0.5341,0.979672785,-0.111755085,0.087951435
1764435049.3045971,-7.35532,-2.01432,-0.5341,0.979672785,-0.111755085,0.087951435
1764435049.3045971,-6.85174,-1.55652,-0.7019599999999999,0.980405205,-0.113219925,0.08715798
1764435049.3045971,-6.85174,-1.55652,-0.7019599999999999,0.980405205,-0.113219925,0.08715798
1764435049.3045971,-6.85174,-1.55652,-0.7019599999999999,0.980405205,-0.113219925,0.08715798
1764435049.3045971,-6.85174,-1.55652,-0.7019599999999999,0.980405205,-0.113219925,0.08715798
1764435049.3045971,-6.85174,-1.55652,-0.7019599999999999,0.980405205,-0.113219925,0.08715798
1764435049.3045971,-6.85174,-1.55652,-0.7019599999999999,0.980405205,-0.113219925,0.08715798
1764435049.3045971,-6.85174,-1.55652,-0.7019599999999999,0.980405205,-0.113219925,0.08715798
1764435049.3045971,-6.85174,-1.55652,-0.7019599999999999,0.980405205,-0.113219925,0.08715798
1764435049.305617,-6.85174,-1.55652,-0.7019599999999999,0.980405205,-0.113219925,0.08715798
1764435049.305617,-6.85174,-1.55652,-0.7019599999999999,0.980405205,-0.113219925,0.08715798
1764435049.305617,-5.73776,-1.34288,-0.763,0.98034417,-0.11498994,0.085876245
1764435049.305617,-5.73776,-1.34288,-0.763,0.98034417,-0.11498994,0.085876245
1764435049.305617,-5.73776,-1.34288,-0.763,0.98034417,-0.11498994,0.085876245
1764435049.305617,-5.73776,-1.34288,-0.763,0.98034417,-0.11498994,0.085876245
1764435049.305617,-5.73776,-1.34288,-0.763,0.98034417,-0.11498994,0.085876245
1764435049.305617,-5.73776,-1.34288,-0.763,0.98034417,-0.11498994,0.085876245
1764435049.305617,-5.73776,-1.34288,-0.763,0.98034417,-0.11498994,0.085876245
1764435049.305617,-5.73776,-1.34288,-0.763,0.98034417,-0.11498994,0.085876245
1764435049.305617,-5.73776,-1.34288,-0.763,0.98034417,-0.11498994,0.085876245
1764435049.305617,-5.73776,-1.34288,-0.763,0.98034417,-0.11498994,0.085876245
1764435049.3494008,-5.38678,-1.69386,-0.18312,0.979794855,-0.11437959,0.08496072
1764435049.3494008,-5.38678,-1.69386,-0.18312,0.979794855,-0.11437959,0.08496072
1764435049.3494008,-5.38678,-1.69386,-0.18312,0.979794855,-0.11437959,0.08496072
1764435049.3494008,-5.38678,-1.69386,-0.18312,0.979794855,-0.11437959,0.08496072
1764435049.3494008,-5.38678,-1.69386,-0.18312,0.979794855,-0.11437959,0.08496072
1764435049.3494008,-5.38678,-1.69386,-0.18312,0.979794855,-0.11437959,0.08496072
1764435049.3494008,-5.38678,-1.69386,-0.18312,0.979794855,-0.11437959,0.08496072
1764435049.3494008,-5.38678,-1.69386,-0.18312,0.979794855,-0.11437959,0.08496072
1764435049.349908,-5.38678,-1.69386,-0.18312,0.979794855,-0.11437959,0.08496072
1764435049.349908,-5.38678,-1.69386,-0.18312,0.979794855,-0.11437959,0.08496072
1764435049.349908,-5.60042,-2.19744,-0.48832,0.97961175,-0.11242647,0.08337381
1764435049.349908,-5.60042,-2.19744,-0.48832,0.97961175,-0.11242647,0.08337381
1764435049.349908,-5.60042,-2.19744,-0.48832,0.97961175,-0.11242647,0.08337381
1764435049.349908,-5.60042,-2.19744,-0.48832,0.97961175,-0.11242647,0.08337381
1764435049.349908,-5.60042,-2.19744,-0.48832,0.97961175,-0.11242647,0.08337381
1764435049.349908,-5.60042,-2.19744,-0.48832,0.97961175,-0.11242647,0.08337381
1764435049.3504355,-5.60042,-2.19744,-0.48832,0.97961175,-0.11242647,0.08337381
1764435049.3504355,-5.60042,-2.19744,-0.48832,0.97961175,-0.11242647,0.08337381
1764435049.3504355,-5.60042,-2.19744,-0.48832,0.97961175,-0.11242647,0.08337381
1764435049.3504355,-5.60042,-2.19744,-0.48832,0.97961175,-0.11242647,0.08337381
1764435049.3504355,-6.21082,-1.96854,-0.9003399999999999,0.9814428,-0.1110837,0.083678985
1764435049.3504355,-6.21082,-1.96854,-0.9003399999999999,0.9814428,-0.1110837,0.083678985
1764435049.3504355,-6.21082,-1.96854,-0.9003399999999999,0.9814428,-0.1110837,0.083678985
1764435049.3504355,-6.21082,-1.96854,-0.9003399999999999,0.9814428,-0.1110837,0.083678985
1764435049.397364,-6.21082,-1.96854,-0.9003399999999999,0.9814428,-0.1110837,0.083678985
1764435049.397364,-6.21082,-1.96854,-0.9003399999999999,0.9814428,-0.1110837,0.083678985
1764435049.397364,-6.21082,-1.96854,-0.9003399999999999,0.9814428,-0.1110837,0.083678985
1764435049.397364,-6.21082,-1.96854,-0.9003399999999999,0.9814428,-0.1110837,0.083678985
1764435049.397364,-6.21082,-1.96854,-0.9003399999999999,0.9814428,-0.1110837,0.083678985
1764435049.397364,-6.21082,-1.96854,-0.9003399999999999,0.9814428,-0.1110837,0.083678985
1764435049.397364,-5.98192,-1.38866,-0.42728,0.98241936,-0.109557825,0.08288553
1764435049.397364,-5.98192,-1.38866,-0.42728,0.98241936,-0.109557825,0.08288553
1764435049.397871,-5.98192,-1.38866,-0.42728,0.98241936,-0.109557825,0.08288553
1764435049.397871,-5.98192,-1.38866,-0.42728,0.98241936,-0.109557825,0.08288553
1764435049.397871,-5.98192,-1.38866,-0.42728,0.98241936,-0.109557825,0.08288553
1764435049.397871,-5.98192,-1.38866,-0.42728,0.98241936,-0.109557825,0.08288553
1764435049.397871,-5.98192,-1.38866,-0.42728,0.98241936,-0.109557825,0.08288553
1764435049.397871,-5.98192,-1.38866,-0.42728,0.98241936,-0.109557825,0.08288553
1764435049.397871,-5.98192,-1.38866,-0.42728,0.98241936,-0.109557825,0.08288553
1764435049.397871,-5.98192,-1.38866,-0.42728,0.98241936,-0.109557825,0.08288553
1764435049.397871,-6.43972,-1.48022,-0.54936,0.98046624,-0.107970915,0.08264139
1764435049.397871,-6.43972,-1.48022,-0.54936,0.98046624,-0.107970915,0.08264139
1764435049.397871,-6.43972,-1.48022,-0.54936,0.98046624,-0.107970915,0.08264139
1764435049.397871,-6.43972,-1.48022,-0.54936,0.98046624,-0.107970915,0.08264139
1764435049.397871,-6.43972,-1.48022,-0.54936,0.98046624,-0.107970915,0.08264139
1764435049.397871,-6.43972,-1.48022,-0.54936,0.98046624,-0.107970915,0.08264139
1764435049.397871,-6.43972,-1.48022,-0.54936,0.98046624,-0.107970915,0.08264139
1764435049.397871,-6.43972,-1.48022,-0.54936,0.98046624,-0.107970915,0.08264139
1764435049.4421625,-6.43972,-1.48022,-0.54936,0.98046624,-0.107970915,0.08264139
1764435049.4421625,-6.43972,-1.48022,-0.54936,0.98046624,-0.107970915,0.08264139
1764435049.4421625,-6.72966,-0.8698199999999999,-0.3357199999999999,0.9802221,-0.10815402,0.082092075
1764435049.4421625,-6.72966,-0.8698199999999999,-0.3357199999999999,0.9802221,-0.10815402,0.082092075
1764435049.4421625,-6.72966,-0.8698199999999999,-0.3357199999999999,0.9802221,-0.10815402,0.082092075
1764435049.4421625,-6.72966,-0.8698199999999999,-0.3357199999999999,0.9802221,-0.10815402,0.082092075
1764435049.4421625,-6.72966,-0.8698199999999999,-0.3357199999999999,0.9802221,-0.10815402,0.082092075
1764435049.4421625,-6.72966,-0.8698199999999999,-0.3357199999999999,0.9802221,-0.10815402,0.082092075
1764435049.4421625,-6.72966,-0.8698199999999999,-0.3357199999999999,0.9802221,-0.10815402,0.082092075
1764435049.4421625,-6.72966,-0.8698199999999999,-0.3357199999999999,0.9802221,-0.10815402,0.082092075
1764435049.4421625,-6.72966,-0.8698199999999999,-0.3357199999999999,0.9802221,-0.10815402,0.082092075
1764435049.4421625,-6.72966,-0.8698199999999999,-0.3357199999999999,0.9802221,-0.10815402,0.082092075
1764435049.4431753,-6.59232,-1.31236,0.06104,0.979062435,-0.108092985,0.08093241
1764435049.4431753,-6.59232,-1.31236,0.06104,0.979062435,-0.108092985,0.08093241
1764435049.4431753,-6.59232,-1.31236,0.06104,0.979062435,-0.108092985,0.08093241
1764435049.4431753,-6.59232,-1.31236,0.06104,0.979062435,-0.108092985,0.08093241
1764435049.4431753,-6.59232,-1.31236,0.06104,0.979062435,-0.108092985,0.08093241
1764435049.4431753,-6.59232,-1.31236,0.06104,0.979062435,-0.108092985,0.08093241
1764435049.4431753,-6.59232,-1.31236,0.06104,0.979062435,-0.108092985,0.08093241
1764435049.4431753,-6.59232,-1.31236,0.06104,0.979062435,-0.108092985,0.08093241
1764435049.4431753,-6.59232,-1.31236,0.06104,0.979062435,-0.108092985,0.08093241
1764435049.4431753,-6.59232,-1.31236,0.06104,0.979062435,-0.108092985,0.08093241
1764435049.4866524,-5.69198,-1.0682,0.42728,0.97936761,-0.109313685,0.08044413
1764435049.4866524,-5.69198,-1.0682,0.42728,0.97936761,-0.109313685,0.08044413
1764435049.4866524,-5.69198,-1.0682,0.42728,0.97936761,-0.109313685,0.08044413
1764435049.4866524,-5.69198,-1.0682,0.42728,0.97936761,-0.109313685,0.08044413
1764435049.4866524,-5.69198,-1.0682,0.42728,0.97936761,-0.109313685,0.08044413
1764435049.4866524,-5.69198,-1.0682,0.42728,0.97936761,-0.109313685,0.08044413
1764435049.4866524,-5.69198,-1.0682,0.42728,0.97936761,-0.109313685,0.08044413
1764435049.4866524,-5.69198,-1.0682,0.42728,0.97936761,-0.109313685,0.08044413
1764435049.4866524,-5.69198,-1.0682,0.42728,0.97936761,-0.109313685,0.08044413
1764435049.4876723,-5.69198,-1.0682,0.42728,0.97936761,-0.109313685,0.08044413
1764435049.4876723,-4.92898,-0.57988,0.9156,0.980161065,-0.110778525,0.079772745
1764435049.4876723,-4.92898,-0.57988,0.9156,0.980161065,-0.110778525,0.079772745
1764435049.4876723,-4.92898,-0.57988,0.9156,0.980161065,-0.110778525,0.079772745
1764435049.4876723,-4.92898,-0.57988,0.9156,0.980161065,-0.110778525,0.079772745
1764435049.488666,-4.92898,-0.57988,0.9156,0.980161065,-0.110778525,0.079772745
1764435049.488666,-4.92898,-0.57988,0.9156,0.980161065,-0.110778525,0.079772745
1764435049.4896643,-4.92898,-0.57988,0.9156,0.980161065,-0.110778525,0.079772745
1764435049.4896643,-4.92898,-0.57988,0.9156,0.980161065,-0.110778525,0.079772745
1764435049.4896643,-4.92898,-0.57988,0.9156,0.980161065,-0.110778525,0.079772745
1764435049.4896643,-4.92898,-0.57988,0.9156,0.980161065,-0.110778525,0.079772745
1764435049.4896643,-4.15072,-0.6409199999999999,1.2208,0.981625905,-0.111999225,0.07897929
1764435049.4896643,-4.15072,-0.6409199999999999,1.2208,0.981625905,-0.111999225,0.07897929
1764435049.5347946,-4.15072,-0.6409199999999999,1.2208,0.981625905,-0.111999225,0.07897929
1764435049.5347946,-4.15072,-0.6409199999999999,1.2208,0.981625905,-0.111999225,0.07897929
1764435049.5347946,-4.15072,-0.6409199999999999,1.2208,0.981625905,-0.111999225,0.07897929
1764435049.5347946,-4.15072,-0.6409199999999999,1.2208,0.981625905,-0.111999225,0.07897929
1764435049.5347946,-4.15072,-0.6409199999999999,1.2208,0.981625905,-0.111999225,0.07897929
1764435049.5347946,-4.15072,-0.6409199999999999,1.2208,0.981625905,-0.111999225,0.07897929
1764435049.5347946,-4.15072,-0.6409199999999999,1.2208,0.981625905,-0.111999225,0.07897929
1764435049.5347946,-4.15072,-0.6409199999999999,1.2208,0.981625905,-0.111999225,0.07897929
1764435049.5347946,-3.54032,-0.1678599999999999,0.73248,0.982602465,-0.11254854,0.07849101
1764435049.5347946,-3.54032,-0.1678599999999999,0.73248,0.982602465,-0.11254854,0.07849101
1764435049.5347946,-3.54032,-0.1678599999999999,0.73248,0.982602465,-0.11254854,0.07849101
1764435049.5347946,-3.54032,-0.1678599999999999,0.73248,0.982602465,-0.11254854,0.07849101
1764435049.5347946,-3.54032,-0.1678599999999999,0.73248,0.982602465,-0.11254854,0.07849101
1764435049.5347946,-3.54032,-0.1678599999999999,0.73248,0.982602465,-0.11254854,0.07849101
1764435049.5347946,-3.54032,-0.1678599999999999,0.73248,0.982602465,-0.11254854,0.07849101
1764435049.5347946,-3.54032,-0.1678599999999999,0.73248,0.982602465,-0.11254854,0.07849101
1764435049.5347946,-3.54032,-0.1678599999999999,0.73248,0.982602465,-0.11254854,0.07849101
1764435049.5347946,-3.54032,-0.1678599999999999,0.73248,0.982602465,-0.11254854,0.07849101
1764435049.5347946,-3.54032,0.0762999999999999,1.1445,0.982602465,-0.11279268,0.07763652
1764435049.5347946,-3.54032,0.0762999999999999,1.1445,0.982602465,-0.11279268,0.07763652
1764435049.5347946,-3.54032,0.0762999999999999,1.1445,0.982602465,-0.11279268,0.07763652
1764435049.5347946,-3.54032,0.0762999999999999,1.1445,0.982602465,-0.11279268,0.07763652
1764435049.5357945,-3.54032,0.0762999999999999,1.1445,0.982602465,-0.11279268,0.07763652
1764435049.5357945,-3.54032,0.0762999999999999,1.1445,0.982602465,-0.11279268,0.07763652
1764435049.5797002,-3.54032,0.0762999999999999,1.1445,0.982602465,-0.11279268,0.07763652
1764435049.5797002,-3.54032,0.0762999999999999,1.1445,0.982602465,-0.11279268,0.07763652
1764435049.5797002,-3.54032,0.0762999999999999,1.1445,0.982602465,-0.11279268,0.07763652
1764435049.5797002,-3.54032,0.0762999999999999,1.1445,0.982602465,-0.11279268,0.07763652
1764435049.5797002,-3.60136,0.36624,1.41918,0.9838842,-0.112243365,0.07665996
1764435049.5797002,-3.60136,0.36624,1.41918,0.9838842,-0.112243365,0.07665996
1764435049.5797002,-3.60136,0.36624,1.41918,0.9838842,-0.112243365,0.07665996
1764435049.5797002,-3.60136,0.36624,1.41918,0.9838842,-0.112243365,0.07665996
1764435049.5797002,-3.60136,0.36624,1.41918,0.9838842,-0.112243365,0.07665996
1764435049.5797002,-3.60136,0.36624,1.41918,0.9838842,-0.112243365,0.07665996
1764435049.5815196,-3.60136,0.36624,1.41918,0.9838842,-0.112243365,0.07665996
1764435049.5815196,-3.60136,0.36624,1.41918,0.9838842,-0.112243365,0.07665996
1764435049.5815196,-3.60136,0.36624,1.41918,0.9838842,-0.112243365,0.07665996
1764435049.5815196,-3.60136,0.36624,1.41918,0.9838842,-0.112243365,0.07665996
1764435049.5815196,-3.57084,0.3204599999999999,0.79352,0.98229729,-0.111877155,0.075744435
1764435049.5815196,-3.57084,0.3204599999999999,0.79352,0.98229729,-0.111877155,0.075744435
1764435049.5815196,-3.57084,0.3204599999999999,0.79352,0.98229729,-0.111877155,0.075744435
1764435049.5815196,-3.57084,0.3204599999999999,0.79352,0.98229729,-0.111877155,0.075744435
1764435049.5815196,-3.57084,0.3204599999999999,0.79352,0.98229729,-0.111877155,0.075744435
1764435049.5815196,-3.57084,0.3204599999999999,0.79352,0.98229729,-0.111877155,0.075744435
1764435049.5815196,-3.57084,0.3204599999999999,0.79352,0.98229729,-0.111877155,0.075744435
1764435049.5815196,-3.57084,0.3204599999999999,0.79352,0.98229729,-0.111877155,0.075744435
1764435049.5815196,-3.57084,0.3204599999999999,0.79352,0.98229729,-0.111877155,0.075744435
1764435049.5815196,-3.57084,0.3204599999999999,0.79352,0.98229729,-0.111877155,0.075744435
1764435049.629743,-3.69292,0.3509799999999999,0.36624,0.982724535,-0.11144991,0.07543926
1764435049.629743,-3.69292,0.3509799999999999,0.36624,0.982724535,-0.11144991,0.07543926
1764435049.629743,-3.69292,0.3509799999999999,0.36624,0.982724535,-0.11144991,0.07543926
1764435049.629743,-3.69292,0.3509799999999999,0.36624,0.982724535,-0.11144991,0.07543926
1764435049.629743,-3.69292,0.3509799999999999,0.36624,0.982724535,-0.11144991,0.07543926
1764435049.629743,-3.69292,0.3509799999999999,0.36624,0.982724535,-0.11144991,0.07543926
1764435049.629743,-3.69292,0.3509799999999999,0.36624,0.982724535,-0.11144991,0.07543926
1764435049.629743,-3.69292,0.3509799999999999,0.36624,0.982724535,-0.11144991,0.07543926
1764435049.629743,-3.69292,0.3509799999999999,0.36624,0.982724535,-0.11144991,0.07543926
1764435049.629743,-3.69292,0.3509799999999999,0.36624,0.982724535,-0.11144991,0.07543926
1764435049.629743,-3.78448,0.97664,0.57988,0.982724535,-0.111999225,0.07580547
1764435049.629743,-3.78448,0.97664,0.57988,0.982724535,-0.111999225,0.07580547
1764435049.629743,-3.78448,0.97664,0.57988,0.982724535,-0.111999225,0.07580547
1764435049.629743,-3.78448,0.97664,0.57988,0.982724535,-0.111999225,0.07580547
1764435049.629743,-3.78448,0.97664,0.57988,0.982724535,-0.111999225,0.07580547
1764435049.629743,-3.78448,0.97664,0.57988,0.982724535,-0.111999225,0.07580547
1764435049.629743,-3.78448,0.97664,0.57988,0.982724535,-0.111999225,0.07580547
1764435049.629743,-3.78448,0.97664,0.57988,0.982724535,-0.111999225,0.07580547
1764435049.629743,-3.78448,0.97664,0.57988,0.982724535,-0.111999225,0.07580547
1764435049.629743,-3.78448,0.97664,0.57988,0.982724535,-0.111999225,0.07580547
1764435049.629743,-3.37246,1.61756,0.6409199999999999,0.982236255,-0.11218233,0.07629375
1764435049.629743,-3.37246,1.61756,0.6409199999999999,0.982236255,-0.11218233,0.07629375
1764435049.629743,-3.37246,1.61756,0.6409199999999999,0.982236255,-0.11218233,0.07629375
1764435049.629743,-3.37246,1.61756,0.6409199999999999,0.982236255,-0.11218233,0.07629375
1764435049.6748898,-3.37246,1.61756,0.6409199999999999,0.982236255,-0.11218233,0.07629375
1764435049.6748898,-3.37246,1.61756,0.6409199999999999,0.982236255,-0.11218233,0.07629375
1764435049.6748898,-3.37246,1.61756,0.6409199999999999,0.982236255,-0.11218233,0.07629375
1764435049.6748898,-3.37246,1.61756,0.6409199999999999,0.982236255,-0.11218233,0.07629375
1764435049.6748898,-3.37246,1.61756,0.6409199999999999,0.982236255,-0.11218233,0.07629375
1764435049.6748898,-3.37246,1.61756,0.6409199999999999,0.982236255,-0.11218233,0.07629375
1764435049.6748898,-3.1283,1.77016,0.44254,0.981015555,-0.111633015,0.076476855
1764435049.6748898,-3.1283,1.77016,0.44254,0.981015555,-0.111633015,0.076476855
1764435049.6748898,-3.1283,1.77016,0.44254,0.981015555,-0.111633015,0.076476855
1764435049.6748898,-3.1283,1.77016,0.44254,0.981015555,-0.111633015,0.076476855
1764435049.6748898,-3.1283,1.77016,0.44254,0.981015555,-0.111633015,0.076476855
1764435049.6748898,-3.1283,1.77016,0.44254,0.981015555,-0.111633015,0.076476855
1764435049.6748898,-3.1283,1.77016,0.44254,0.981015555,-0.111633015,0.076476855
1764435049.6748898,-3.1283,1.77016,0.44254,0.981015555,-0.111633015,0.076476855
1764435049.6748898,-3.1283,1.77016,0.44254,0.981015555,-0.111633015,0.076476855
1764435049.6748898,-3.1283,1.77016,0.44254,0.981015555,-0.111633015,0.076476855
1764435049.6748898,-3.32668,1.51074,-0.21364,0.980038995,-0.110778525,0.077087205
1764435049.6748898,-3.32668,1.51074,-0.21364,0.980038995,-0.110778525,0.077087205
1764435049.6759026,-3.32668,1.51074,-0.21364,0.980038995,-0.110778525,0.077087205
1764435049.6759026,-3.32668,1.51074,-0.21364,0.980038995,-0.110778525,0.077087205
1764435049.6759026,-3.32668,1.51074,-0.21364,0.980038995,-0.110778525,0.077087205
1764435049.6759026,-3.32668,1.51074,-0.21364,0.980038995,-0.110778525,0.077087205
1764435049.7188094,-3.32668,1.51074,-0.21364,0.980038995,-0.110778525,0.077087205
1764435049.7188094,-3.32668,1.51074,-0.21364,0.980038995,-0.110778525,0.077087205
1764435049.7188094,-3.32668,1.51074,-0.21364,0.980038995,-0.110778525,0.077087205
1764435049.7188094,-3.32668,1.51074,-0.21364,0.980038995,-0.110778525,0.077087205
1764435049.7188094,-3.17408,1.69386,0.28994,0.97997796,-0.11059542,0.07702617
1764435049.7188094,-3.17408,1.69386,0.28994,0.97997796,-0.11059542,0.07702617
1764435049.7188094,-3.17408,1.69386,0.28994,0.97997796,-0.11059542,0.07702617
1764435049.7188094,-3.17408,1.69386,0.28994,0.97997796,-0.11059542,0.07702617
1764435049.7188094,-3.17408,1.69386,0.28994,0.97997796,-0.11059542,0.07702617
1764435049.7188094,-3.17408,1.69386,0.28994,0.97997796,-0.11059542,0.07702617
1764435049.7188094,-3.17408,1.69386,0.28994,0.97997796,-0.11059542,0.07702617
1764435049.7188094,-3.17408,1.69386,0.28994,0.97997796,-0.11059542,0.07702617
1764435049.7188094,-3.17408,1.69386,0.28994,0.97997796,-0.11059542,0.07702617
1764435049.7188094,-3.17408,1.69386,0.28994,0.97997796,-0.11059542,0.07702617
1764435049.7188094,-3.03674,1.84646,0.3815,0.980893485,-0.109557825,0.077697555
1764435049.7188094,-3.03674,1.84646,0.3815,0.980893485,-0.109557825,0.077697555
1764435049.7188094,-3.03674,1.84646,0.3815,0.980893485,-0.109557825,0.077697555
1764435049.7188094,-3.03674,1.84646,0.3815,0.980893485,-0.109557825,0.077697555
1764435049.7188094,-3.03674,1.84646,0.3815,0.980893485,-0.109557825,0.077697555
1764435049.7198255,-3.03674,1.84646,0.3815,0.980893485,-0.109557825,0.077697555
1764435049.7198255,-3.03674,1.84646,0.3815,0.980893485,-0.109557825,0.077697555
1764435049.7198255,-3.03674,1.84646,0.3815,0.980893485,-0.109557825,0.077697555
1764435049.7665832,-3.03674,1.84646,0.3815,0.980893485,-0.109557825,0.077697555
1764435049.7676077,-3.03674,1.84646,0.3815,0.980893485,-0.109557825,0.077697555
1764435049.7676077,-2.62472,2.30426,0.12208,0.98193108,-0.108947475,0.07775859
1764435049.7676077,-2.62472,2.30426,0.12208,0.98193108,-0.108947475,0.07775859
1764435049.7676077,-2.62472,2.30426,0.12208,0.98193108,-0.108947475,0.07775859
1764435049.7676077,-2.62472,2.30426,0.12208,0.98193108,-0.108947475,0.07775859
1764435049.7676077,-2.62472,2.30426,0.12208,0.98193108,-0.108947475,0.07775859
1764435049.7676077,-2.62472,2.30426,0.12208,0.98193108,-0.108947475,0.07775859
1764435049.7676077,-2.62472,2.30426,0.12208,0.98193108,-0.108947475,0.07775859
1764435049.7676077,-2.62472,2.30426,0.12208,0.98193108,-0.108947475,0.07775859
1764435049.7676077,-2.62472,2.30426,0.12208,0.98193108,-0.108947475,0.07775859
1764435049.7676077,-2.62472,2.30426,0.12208,0.98193108,-0.108947475,0.07775859
1764435049.7676077,-2.70102,2.31952,0.1525999999999999,0.98254143,-0.10888644,0.07861308
1764435049.7676077,-2.70102,2.31952,0.1525999999999999,0.98254143,-0.10888644,0.07861308
1764435049.768597,-2.70102,2.31952,0.1525999999999999,0.98254143,-0.10888644,0.07861308
1764435049.769113,-2.70102,2.31952,0.1525999999999999,0.98254143,-0.10888644,0.07861308
1764435049.769113,-2.70102,2.31952,0.1525999999999999,0.98254143,-0.10888644,0.07861308
1764435049.769113,-2.70102,2.31952,0.1525999999999999,0.98254143,-0.10888644,0.07861308
1764435049.769113,-2.70102,2.31952,0.1525999999999999,0.98254143,-0.10888644,0.07861308
1764435049.7701447,-2.70102,2.31952,0.1525999999999999,0.98254143,-0.10888644,0.07861308
1764435049.7701447,-2.70102,2.31952,0.1525999999999999,0.98254143,-0.10888644,0.07861308
1764435049.7706563,-2.70102,2.31952,0.1525999999999999,0.98254143,-0.10888644,0.07861308
1764435049.7706563,-2.47212,2.68576,0.42728,0.982968675,-0.10949679,0.07885722
1764435049.7706563,-2.47212,2.68576,0.42728,0.982968675,-0.10949679,0.07885722
1764435049.8162415,-2.47212,2.68576,0.42728,0.982968675,-0.10949679,0.07885722
1764435049.8162415,-2.47212,2.68576,0.42728,0.982968675,-0.10949679,0.07885722
1764435049.8162415,-2.47212,2.68576,0.42728,0.982968675,-0.10949679,0.07885722
1764435049.8162415,-2.47212,2.68576,0.42728,0.982968675,-0.10949679,0.07885722
1764435049.8162415,-2.47212,2.68576,0.42728,0.982968675,-0.10949679,0.07885722
1764435049.8162415,-2.47212,2.68576,0.42728,0.982968675,-0.10949679,0.07885722
1764435049.817243,-2.47212,2.68576,0.42728,0.982968675,-0.10949679,0.07885722
1764435049.817243,-2.47212,2.68576,0.42728,0.982968675,-0.10949679,0.07885722
1764435049.817243,-2.18218,2.48738,0.9003399999999999,0.982480395,-0.109435755,0.078918255
1764435049.817243,-2.18218,2.48738,0.9003399999999999,0.982480395,-0.109435755,0.078918255
1764435049.817243,-2.18218,2.48738,0.9003399999999999,0.982480395,-0.109435755,0.078918255
1764435049.817243,-2.18218,2.48738,0.9003399999999999,0.982480395,-0.109435755,0.078918255
1764435049.817243,-2.18218,2.48738,0.9003399999999999,0.982480395,-0.109435755,0.078918255
1764435049.817243,-2.18218,2.48738,0.9003399999999999,0.982480395,-0.109435755,0.078918255
1764435049.817243,-2.18218,2.48738,0.9003399999999999,0.982480395,-0.109435755,0.078918255
1764435049.817243,-2.18218,2.48738,0.9003399999999999,0.982480395,-0.109435755,0.078918255
1764435049.817243,-2.18218,2.48738,0.9003399999999999,0.982480395,-0.109435755,0.078918255
1764435049.817243,-2.18218,2.48738,0.9003399999999999,0.982480395,-0.109435755,0.078918255
1764435049.817243,-2.19744,2.38056,1.28184,0.98217522,-0.11022921,0.07958964
1764435049.817243,-2.19744,2.38056,1.28184,0.98217522,-0.11022921,0.07958964
1764435049.817243,-2.19744,2.38056,1.28184,0.98217522,-0.11022921,0.07958964
1764435049.817243,-2.19744,2.38056,1.28184,0.98217522,-0.11022921,0.07958964
1764435049.817243,-2.19744,2.38056,1.28184,0.98217522,-0.11022921,0.07958964
1764435049.817243,-2.19744,2.38056,1.28184,0.98217522,-0.11022921,0.07958964
1764435049.8611305,-2.19744,2.38056,1.28184,0.98217522,-0.11022921,0.07958964
1764435049.8611305,-2.19744,2.38056,1.28184,0.98217522,-0.11022921,0.07958964
1764435049.8611305,-2.19744,2.38056,1.28184,0.98217522,-0.11022921,0.07958964
1764435049.8611305,-2.19744,2.38056,1.28184,0.98217522,-0.11022921,0.07958964
1764435049.8611305,-1.69386,2.45686,1.64808,0.98156487,-0.109924035,0.07995585
1764435049.8611305,-1.69386,2.45686,1.64808,0.98156487,-0.109924035,0.07995585
1764435049.861822,-1.69386,2.45686,1.64808,0.98156487,-0.109924035,0.07995585
1764435049.861822,-1.69386,2.45686,1.64808,0.98156487,-0.109924035,0.07995585
1764435049.861822,-1.69386,2.45686,1.64808,0.98156487,-0.109924035,0.07995585
1764435049.861822,-1.69386,2.45686,1.64808,0.98156487,-0.109924035,0.07995585
1764435049.861822,-1.69386,2.45686,1.64808,0.98156487,-0.109924035,0.07995585
1764435049.861822,-1.69386,2.45686,1.64808,0.98156487,-0.109924035,0.07995585
1764435049.86282,-1.69386,2.45686,1.64808,0.98156487,-0.109924035,0.07995585
1764435049.86282,-1.69386,2.45686,1.64808,0.98156487,-0.109924035,0.07995585
1764435049.86282,-1.2055399999999998,2.68576,1.35814,0.981137625,-0.110168175,0.0805662
1764435049.86282,-1.2055399999999998,2.68576,1.35814,0.981137625,-0.110168175,0.0805662
1764435049.86282,-1.2055399999999998,2.68576,1.35814,0.981137625,-0.110168175,0.0805662
1764435049.86282,-1.2055399999999998,2.68576,1.35814,0.981137625,-0.110168175,0.0805662
1764435049.86282,-1.2055399999999998,2.68576,1.35814,0.981137625,-0.110168175,0.0805662
1764435049.86282,-1.2055399999999998,2.68576,1.35814,0.981137625,-0.110168175,0.0805662
1764435049.86282,-1.2055399999999998,2.68576,1.35814,0.981137625,-0.110168175,0.0805662
1764435049.86282,-1.2055399999999998,2.68576,1.35814,0.981137625,-0.110168175,0.0805662
1764435049.8643308,-1.2055399999999998,2.68576,1.35814,0.981137625,-0.110168175,0.0805662
1764435049.864658,-1.2055399999999998,2.68576,1.35814,0.981137625,-0.110168175,0.0805662
1764435049.909897,-1.41918,2.53316,1.19028,0.98132073,-0.11010714,0.08093241
1764435049.909897,-1.41918,2.53316,1.19028,0.98132073,-0.11010714,0.08093241
1764435049.909897,-1.41918,2.53316,1.19028,0.98132073,-0.11010714,0.08093241
1764435049.909897,-1.41918,2.53316,1.19028,0.98132073,-0.11010714,0.08093241
1764435049.909897,-1.41918,2.53316,1.19028,0.98132073,-0.11010714,0.08093241
1764435049.909897,-1.41918,2.53316,1.19028,0.98132073,-0.11010714,0.08093241
1764435049.909897,-1.41918,2.53316,1.19028,0.98132073,-0.11010714,0.08093241
1764435049.909897,-1.41918,2.53316,1.19028,0.98132073,-0.11010714,0.08093241
1764435049.909897,-1.41918,2.53316,1.19028,0.98132073,-0.11010714,0.08093241
1764435049.909897,-1.41918,2.53316,1.19028,0.98132073,-0.11010714,0.08093241
1764435049.910918,-1.77016,2.63998,2.01432,0.981015555,-0.10998507,0.08081034
1764435049.910918,-1.77016,2.63998,2.01432,0.981015555,-0.10998507,0.08081034
1764435049.910918,-1.77016,2.63998,2.01432,0.981015555,-0.10998507,0.08081034
1764435049.910918,-1.77016,2.63998,2.01432,0.981015555,-0.10998507,0.08081034
1764435049.910918,-1.77016,2.63998,2.01432,0.981015555,-0.10998507,0.08081034
1764435049.910918,-1.77016,2.63998,2.01432,0.981015555,-0.10998507,0.08081034
1764435049.910918,-1.77016,2.63998,2.01432,0.981015555,-0.10998507,0.08081034
1764435049.910918,-1.77016,2.63998,2.01432,0.981015555,-0.10998507,0.08081034
1764435049.910918,-1.77016,2.63998,2.01432,0.981015555,-0.10998507,0.08081034
1764435049.910918,-1.77016,2.63998,2.01432,0.981015555,-0.10998507,0.08081034
1764435049.910918,-1.58704,2.5942,1.8312,0.979794855,-0.10925265,0.081115515
1764435049.910918,-1.58704,2.5942,1.8312,0.979794855,-0.10925265,0.081115515
1764435049.9553406,-1.58704,2.5942,1.8312,0.979794855,-0.10925265,0.081115515
1764435049.9553406,-1.58704,2.5942,1.8312,0.979794855,-0.10925265,0.081115515
1764435049.9553406,-1.58704,2.5942,1.8312,0.979794855,-0.10925265,0.081115515
1764435049.9553406,-1.58704,2.5942,1.8312,0.979794855,-0.10925265,0.081115515
1764435049.9553406,-1.58704,2.5942,1.8312,0.979794855,-0.10925265,0.081115515
1764435049.9553406,-1.58704,2.5942,1.8312,0.979794855,-0.10925265,0.081115515
1764435049.9553406,-1.58704,2.5942,1.8312,0.979794855,-0.10925265,0.081115515
1764435049.9553406,-1.58704,2.5942,1.8312,0.979794855,-0.10925265,0.081115515
1764435049.9553406,-1.69386,2.35004,2.02958,0.9802221,-0.110290245,0.081725865
1764435049.9553406,-1.69386,2.35004,2.02958,0.9802221,-0.110290245,0.081725865
1764435049.9553406,-1.69386,2.35004,2.02958,0.9802221,-0.110290245,0.081725865
1764435049.9553406,-1.69386,2.35004,2.02958,0.9802221,-0.110290245,0.081725865
1764435049.9553406,-1.69386,2.35004,2.02958,0.9802221,-0.110290245,0.081725865
1764435049.9553406,-1.69386,2.35004,2.02958,0.9802221,-0.110290245,0.081725865
1764435049.956855,-1.69386,2.35004,2.02958,0.9802221,-0.110290245,0.081725865
1764435049.956855,-1.69386,2.35004,2.02958,0.9802221,-0.110290245,0.081725865
1764435049.956855,-1.69386,2.35004,2.02958,0.9802221,-0.110290245,0.081725865
1764435049.956855,-1.69386,2.35004,2.02958,0.9802221,-0.110290245,0.081725865
1764435049.956855,-1.89224,2.47212,2.30426,0.979794855,-0.110656455,0.08227518
1764435049.956855,-1.89224,2.47212,2.30426,0.979794855,-0.110656455,0.08227518
1764435049.956855,-1.89224,2.47212,2.30426,0.979794855,-0.110656455,0.08227518
1764435049.956855,-1.89224,2.47212,2.30426,0.979794855,-0.110656455,0.08227518
1764435050.0003452,-1.89224,2.47212,2.30426,0.979794855,-0.110656455,0.08227518
1764435050.0003452,-1.89224,2.47212,2.30426,0.979794855,-0.110656455,0.08227518
1764435050.0003452,-1.89224,2.47212,2.30426,0.979794855,-0.110656455,0.08227518
1764435050.0003452,-1.89224,2.47212,2.30426,0.979794855,-0.110656455,0.08227518
1764435050.0003452,-1.89224,2.47212,2.30426,0.979794855,-0.110656455,0.08227518
1764435050.0003452,-1.89224,2.47212,2.30426,0.979794855,-0.110656455,0.08227518
1764435050.0003452,-2.35004,1.99906,2.22796,0.97997796,-0.11120577,0.08288553
1764435050.0003452,-2.35004,1.99906,2.22796,0.97997796,-0.11120577,0.08288553
1764435050.0003452,-2.35004,1.99906,2.22796,0.97997796,-0.11120577,0.08288553
1764435050.0013616,-2.35004,1.99906,2.22796,0.97997796,-0.11120577,0.08288553
1764435050.0013616,-2.35004,1.99906,2.22796,0.97997796,-0.11120577,0.08288553
1764435050.0013616,-2.35004,1.99906,2.22796,0.97997796,-0.11120577,0.08288553
1764435050.0013616,-2.35004,1.99906,2.22796,0.97997796,-0.11120577,0.08288553
1764435050.0013616,-2.35004,1.99906,2.22796,0.97997796,-0.11120577,0.08288553
1764435050.0013616,-2.35004,1.99906,2.22796,0.97997796,-0.11120577,0.08288553
1764435050.0013616,-2.35004,1.99906,2.22796,0.97997796,-0.11120577,0.08288553
1764435050.0013616,-2.9757,0.71722,1.41918,0.979062435,-0.109435755,0.082824495
1764435050.0013616,-2.9757,0.71722,1.41918,0.979062435,-0.109435755,0.082824495
1764435050.0013616,-2.9757,0.71722,1.41918,0.979062435,-0.109435755,0.082824495
1764435050.0013616,-2.9757,0.71722,1.41918,0.979062435,-0.109435755,0.082824495
1764435050.0013616,-2.9757,0.71722,1.41918,0.979062435,-0.109435755,0.082824495
1764435050.0013616,-2.9757,0.71722,1.41918,0.979062435,-0.109435755,0.082824495
1764435050.0013616,-2.9757,0.71722,1.41918,0.979062435,-0.109435755,0.082824495
1764435050.0013616,-2.9757,0.71722,1.41918,0.979062435,-0.109435755,0.082824495
1764435050.044484,-2.9757,0.71722,1.41918,0.979062435,-0.109435755,0.082824495
1764435050.044484,-2.9757,0.71722,1.41918,0.979062435,-0.109435755,0.082824495
1764435050.044484,-3.72344,1.08346,0.6409199999999999,0.981137625,-0.10937472,0.083434845
1764435050.044484,-3.72344,1.08346,0.6409199999999999,0.981137625,-0.10937472,0.083434845
1764435050.044484,-3.72344,1.08346,0.6409199999999999,0.981137625,-0.10937472,0.083434845
1764435050.044484,-3.72344,1.08346,0.6409199999999999,0.981137625,-0.10937472,0.083434845
1764435050.044484,-3.72344,1.08346,0.6409199999999999,0.981137625,-0.10937472,0.083434845
1764435050.044484,-3.72344,1.08346,0.6409199999999999,0.981137625,-0.10937472,0.083434845
1764435050.044484,-3.72344,1.08346,0.6409199999999999,0.981137625,-0.10937472,0.083434845
1764435050.044484,-3.72344,1.08346,0.6409199999999999,0.981137625,-0.10937472,0.083434845
1764435050.044484,-3.72344,1.08346,0.6409199999999999,0.981137625,-0.10937472,0.083434845
1764435050.044484,-3.72344,1.08346,0.6409199999999999,0.981137625,-0.10937472,0.083434845
1764435050.044484,-4.53222,1.3734,0.71722,0.98168694,-0.10974093,0.083923125
1764435050.044484,-4.53222,1.3734,0.71722,0.98168694,-0.10974093,0.083923125
1764435050.044484,-4.53222,1.3734,0.71722,0.98168694,-0.10974093,0.083923125
1764435050.044484,-4.53222,1.3734,0.71722,0.98168694,-0.10974093,0.083923125
1764435050.044484,-4.53222,1.3734,0.71722,0.98168694,-0.10974093,0.083923125
1764435050.044484,-4.53222,1.3734,0.71722,0.98168694,-0.10974093,0.083923125
1764435050.044484,-4.53222,1.3734,0.71722,0.98168694,-0.10974093,0.083923125
1764435050.044484,-4.53222,1.3734,0.71722,0.98168694,-0.10974093,0.083923125
1764435050.044484,-4.53222,1.3734,0.71722,0.98168694,-0.10974093,0.083923125
1764435050.044484,-4.53222,1.3734,0.71722,0.98168694,-0.10974093,0.083923125
1764435050.044484,-4.37962,1.28184,0.25942,0.979916925,-0.10974093,0.083923125
1764435050.044484,-4.37962,1.28184,0.25942,0.979916925,-0.10974093,0.083923125
1764435050.0889306,-4.37962,1.28184,0.25942,0.979916925,-0.10974093,0.083923125
1764435050.0889306,-4.37962,1.28184,0.25942,0.979916925,-0.10974093,0.083923125
1764435050.0889306,-4.37962,1.28184,0.25942,0.979916925,-0.10974093,0.083923125
1764435050.0889306,-4.37962,1.28184,0.25942,0.979916925,-0.10974093,0.083923125
1764435050.0889306,-4.37962,1.28184,0.25942,0.979916925,-0.10974093,0.083923125
1764435050.0889306,-4.37962,1.28184,0.25942,0.979916925,-0.10974093,0.083923125
1764435050.0889306,-4.37962,1.28184,0.25942,0.979916925,-0.10974093,0.083923125
1764435050.0889306,-4.37962,1.28184,0.25942,0.979916925,-0.10974093,0.083923125
1764435050.0889306,-4.51696,1.3734,0.39676,0.978207945,-0.10998507,0.0842283
1764435050.0889306,-4.51696,1.3734,0.39676,0.978207945,-0.10998507,0.0842283
1764435050.0889306,-4.51696,1.3734,0.39676,0.978207945,-0.10998507,0.0842283
1764435050.0889306,-4.51696,1.3734,0.39676,0.978207945,-0.10998507,0.0842283
1764435050.0889306,-4.51696,1.3734,0.39676,0.978207945,-0.10998507,0.0842283
1764435050.0899403,-4.51696,1.3734,0.39676,0.978207945,-0.10998507,0.0842283
1764435050.0909572,-4.51696,1.3734,0.39676,0.978207945,-0.10998507,0.0842283
1764435050.0909572,-4.51696,1.3734,0.39676,0.978207945,-0.10998507,0.0842283
1764435050.0909572,-4.51696,1.3734,0.39676,0.978207945,-0.10998507,0.0842283
1764435050.0909572,-4.51696,1.3734,0.39676,0.978207945,-0.10998507,0.0842283
1764435050.0909572,-3.75396,0.06104,0.50358,0.976743105,-0.1110837,0.08471658
1764435050.0909572,-3.75396,0.06104,0.50358,0.976743105,-0.1110837,0.08471658
1764435050.0909572,-3.75396,0.06104,0.50358,0.976743105,-0.1110837,0.08471658
1764435050.0909572,-3.75396,0.06104,0.50358,0.976743105,-0.1110837,0.08471658
1764435050.1379335,-3.75396,0.06104,0.50358,0.976743105,-0.1110837,0.08471658
1764435050.1379335,-3.75396,0.06104,0.50358,0.976743105,-0.1110837,0.08471658
1764435050.1379335,-3.75396,0.06104,0.50358,0.976743105,-0.1110837,0.08471658
1764435050.1384437,-3.75396,0.06104,0.50358,0.976743105,-0.1110837,0.08471658
1764435050.1384437,-3.75396,0.06104,0.50358,0.976743105,-0.1110837,0.08471658
1764435050.1384437,-3.75396,0.06104,0.50358,0.976743105,-0.1110837,0.08471658
1764435050.1384437,-3.41824,0.18312,0.7019599999999999,0.97790277,-0.111877155,0.084411405
1764435050.1384437,-3.41824,0.18312,0.7019599999999999,0.97790277,-0.111877155,0.084411405
1764435050.1384437,-3.41824,0.18312,0.7019599999999999,0.97790277,-0.111877155,0.084411405
1764435050.1384437,-3.41824,0.18312,0.7019599999999999,0.97790277,-0.111877155,0.084411405
1764435050.1384437,-3.41824,0.18312,0.7019599999999999,0.97790277,-0.111877155,0.084411405
1764435050.1384437,-3.41824,0.18312,0.7019599999999999,0.97790277,-0.111877155,0.084411405
1764435050.1384437,-3.41824,0.18312,0.7019599999999999,0.97790277,-0.111877155,0.084411405
1764435050.1384437,-3.41824,0.18312,0.7019599999999999,0.97790277,-0.111877155,0.084411405
1764435050.1384437,-3.41824,0.18312,0.7019599999999999,0.97790277,-0.111877155,0.084411405
1764435050.1384437,-3.41824,0.18312,0.7019599999999999,0.97790277,-0.111877155,0.084411405
1764435050.1384437,-3.37246,-0.3357199999999999,0.9156,0.978940365,-0.112121295,0.08386209
1764435050.1384437,-3.37246,-0.3357199999999999,0.9156,0.978940365,-0.112121295,0.08386209
1764435050.1384437,-3.37246,-0.3357199999999999,0.9156,0.978940365,-0.112121295,0.08386209
1764435050.1384437,-3.37246,-0.3357199999999999,0.9156,0.978940365,-0.112121295,0.08386209
1764435050.1384437,-3.37246,-0.3357199999999999,0.9156,0.978940365,-0.112121295,0.08386209
1764435050.1384437,-3.37246,-0.3357199999999999,0.9156,0.978940365,-0.112121295,0.08386209
1764435050.1878436,-3.37246,-0.3357199999999999,0.9156,0.978940365,-0.112121295,0.08386209
1764435050.1878436,-3.37246,-0.3357199999999999,0.9156,0.978940365,-0.112121295,0.08386209
1764435050.1878436,-3.37246,-0.3357199999999999,0.9156,0.978940365,-0.112121295,0.08386209
1764435050.1878436,-3.37246,-0.3357199999999999,0.9156,0.978940365,-0.112121295,0.08386209
1764435050.1878436,-3.3572,0.6867,0.9003399999999999,0.9802221,-0.112121295,0.0830076
1764435050.1888423,-3.3572,0.6867,0.9003399999999999,0.9802221,-0.112121295,0.0830076
1764435050.1888423,-3.3572,0.6867,0.9003399999999999,0.9802221,-0.112121295,0.0830076
1764435050.1888423,-3.3572,0.6867,0.9003399999999999,0.9802221,-0.112121295,0.0830076
1764435050.1888423,-3.3572,0.6867,0.9003399999999999,0.9802221,-0.112121295,0.0830076
1764435050.1888423,-3.3572,0.6867,0.9003399999999999,0.9802221,-0.112121295,0.0830076
1764435050.1888423,-3.3572,0.6867,0.9003399999999999,0.9802221,-0.112121295,0.0830076
1764435050.1888423,-3.3572,0.6867,0.9003399999999999,0.9802221,-0.112121295,0.0830076
1764435050.1888423,-3.3572,0.6867,0.9003399999999999,0.9802221,-0.112121295,0.0830076
1764435050.1888423,-3.3572,0.6867,0.9003399999999999,0.9802221,-0.112121295,0.0830076
1764435050.1888423,-3.79974,0.28994,0.36624,0.981015555,-0.11132784,0.08239725
1764435050.1888423,-3.79974,0.28994,0.36624,0.981015555,-0.11132784,0.08239725
1764435050.1888423,-3.79974,0.28994,0.36624,0.981015555,-0.11132784,0.08239725
1764435050.1888423,-3.79974,0.28994,0.36624,0.981015555,-0.11132784,0.08239725
1764435050.1888423,-3.79974,0.28994,0.36624,0.981015555,-0.11132784,0.08239725
1764435050.1888423,-3.79974,0.28994,0.36624,0.981015555,-0.11132784,0.08239725
1764435050.1888423,-3.79974,0.28994,0.36624,0.981015555,-0.11132784,0.08239725
1764435050.1888423,-3.79974,0.28994,0.36624,0.981015555,-0.11132784,0.08239725
1764435050.1888423,-3.79974,0.28994,0.36624,0.981015555,-0.11132784,0.08239725
1764435050.1888423,-3.79974,0.28994,0.36624,0.981015555,-0.11132784,0.08239725
1764435050.2290106,-3.9676,0.763,0.9003399999999999,0.981747975,-0.111388875,0.082092075
1764435050.2290106,-3.9676,0.763,0.9003399999999999,0.981747975,-0.111388875,0.082092075
1764435050.2290106,-3.9676,0.763,0.9003399999999999,0.981747975,-0.111388875,0.082092075
1764435050.2290106,-3.9676,0.763,0.9003399999999999,0.981747975,-0.111388875,0.082092075
1764435050.2290106,-3.9676,0.763,0.9003399999999999,0.981747975,-0.111388875,0.082092075
1764435050.2290106,-3.9676,0.763,0.9003399999999999,0.981747975,-0.111388875,0.082092075
1764435050.229518,-3.9676,0.763,0.9003399999999999,0.981747975,-0.111388875,0.082092075
1764435050.229518,-3.9676,0.763,0.9003399999999999,0.981747975,-0.111388875,0.082092075
1764435050.229518,-3.9676,0.763,0.9003399999999999,0.981747975,-0.111388875,0.082092075
1764435050.229518,-3.9676,0.763,0.9003399999999999,0.981747975,-0.111388875,0.082092075
1764435050.229518,-3.99812,1.00716,1.19028,0.98205315,-0.1123044,0.08203104
1764435050.229518,-3.99812,1.00716,1.19028,0.98205315,-0.1123044,0.08203104
1764435050.229518,-3.99812,1.00716,1.19028,0.98205315,-0.1123044,0.08203104
1764435050.229518,-3.99812,1.00716,1.19028,0.98205315,-0.1123044,0.08203104
1764435050.229518,-3.99812,1.00716,1.19028,0.98205315,-0.1123044,0.08203104
1764435050.229518,-3.99812,1.00716,1.19028,0.98205315,-0.1123044,0.08203104
1764435050.229518,-3.99812,1.00716,1.19028,0.98205315,-0.1123044,0.08203104
1764435050.229518,-3.99812,1.00716,1.19028,0.98205315,-0.1123044,0.08203104
1764435050.230045,-3.99812,1.00716,1.19028,0.98205315,-0.1123044,0.08203104
1764435050.230045,-3.99812,1.00716,1.19028,0.98205315,-0.1123044,0.08203104
1764435050.230045,-4.16598,0.71722,0.6103999999999999,0.981137625,-0.113341995,0.082214145
1764435050.2310586,-4.16598,0.71722,0.6103999999999999,0.981137625,-0.113341995,0.082214145
1764435050.2310586,-4.16598,0.71722,0.6103999999999999,0.981137625,-0.113341995,0.082214145
1764435050.2310586,-4.16598,0.71722,0.6103999999999999,0.981137625,-0.113341995,0.082214145
1764435050.2747712,-4.16598,0.71722,0.6103999999999999,0.981137625,-0.113341995,0.082214145
1764435050.2747712,-4.16598,0.71722,0.6103999999999999,0.981137625,-0.113341995,0.082214145
1764435050.2747712,-4.16598,0.71722,0.6103999999999999,0.981137625,-0.113341995,0.082214145
1764435050.2747712,-4.16598,0.71722,0.6103999999999999,0.981137625,-0.113341995,0.082214145
1764435050.2747712,-4.16598,0.71722,0.6103999999999999,0.981137625,-0.113341995,0.082214145
1764435050.2747712,-4.16598,0.71722,0.6103999999999999,0.981137625,-0.113341995,0.082214145
1764435050.2747712,-3.57084,0.12208,0.6103999999999999,0.98132073,-0.113830275,0.081847935
1764435050.2757957,-3.57084,0.12208,0.6103999999999999,0.98132073,-0.113830275,0.081847935
1764435050.2757957,-3.57084,0.12208,0.6103999999999999,0.98132073,-0.113830275,0.081847935
1764435050.2757957,-3.57084,0.12208,0.6103999999999999,0.98132073,-0.113830275,0.081847935
1764435050.2757957,-3.57084,0.12208,0.6103999999999999,0.98132073,-0.113830275,0.081847935
1764435050.2757957,-3.57084,0.12208,0.6103999999999999,0.98132073,-0.113830275,0.081847935
1764435050.2757957,-3.57084,0.12208,0.6103999999999999,0.98132073,-0.113830275,0.081847935
1764435050.2757957,-3.57084,0.12208,0.6103999999999999,0.98132073,-0.113830275,0.081847935
1764435050.2757957,-3.57084,0.12208,0.6103999999999999,0.98132073,-0.113830275,0.081847935
1764435050.2757957,-3.57084,0.12208,0.6103999999999999,0.98132073,-0.113830275,0.081847935
1764435050.2773118,-3.95234,0.44254,0.1678599999999999,0.98119866,-0.11462373,0.081359655
1764435050.2773118,-3.95234,0.44254,0.1678599999999999,0.98119866,-0.11462373,0.081359655
1764435050.2773118,-3.95234,0.44254,0.1678599999999999,0.98119866,-0.11462373,0.081359655
1764435050.2773118,-3.95234,0.44254,0.1678599999999999,0.98119866,-0.11462373,0.081359655
1764435050.2773118,-3.95234,0.44254,0.1678599999999999,0.98119866,-0.11462373,0.081359655
1764435050.2773118,-3.95234,0.44254,0.1678599999999999,0.98119866,-0.11462373,0.081359655
1764435050.2773118,-3.95234,0.44254,0.1678599999999999,0.98119866,-0.11462373,0.081359655
1764435050.2773118,-3.95234,0.44254,0.1678599999999999,0.98119866,-0.11462373,0.081359655
1764435050.322014,-3.95234,0.44254,0.1678599999999999,0.98119866,-0.11462373,0.081359655
1764435050.322014,-3.95234,0.44254,0.1678599999999999,0.98119866,-0.11462373,0.081359655
1764435050.322014,-3.55558,0.6714399999999999,0.12208,0.98132073,-0.113219925,0.0817869
1764435050.322014,-3.55558,0.6714399999999999,0.12208,0.98132073,-0.113219925,0.0817869
1764435050.322014,-3.55558,0.6714399999999999,0.12208,0.98132073,-0.113219925,0.0817869
1764435050.322014,-3.55558,0.6714399999999999,0.12208,0.98132073,-0.113219925,0.0817869
1764435050.322014,-3.55558,0.6714399999999999,0.12208,0.98132073,-0.113219925,0.0817869
1764435050.322014,-3.55558,0.6714399999999999,0.12208,0.98132073,-0.113219925,0.0817869
1764435050.322014,-3.55558,0.6714399999999999,0.12208,0.98132073,-0.113219925,0.0817869
1764435050.322014,-3.55558,0.6714399999999999,0.12208,0.98132073,-0.113219925,0.0817869
1764435050.322014,-3.55558,0.6714399999999999,0.12208,0.98132073,-0.113219925,0.0817869
1764435050.322014,-3.55558,0.6714399999999999,0.12208,0.98132073,-0.113219925,0.0817869
1764435050.322014,-3.60136,0.6103999999999999,0.0,0.97973382,-0.11169405,0.08166483
1764435050.322014,-3.60136,0.6103999999999999,0.0,0.97973382,-0.11169405,0.08166483
1764435050.322014,-3.60136,0.6103999999999999,0.0,0.97973382,-0.11169405,0.08166483
1764435050.322014,-3.60136,0.6103999999999999,0.0,0.97973382,-0.11169405,0.08166483
1764435050.3240118,-3.60136,0.6103999999999999,0.0,0.97973382,-0.11169405,0.08166483
1764435050.3240118,-3.60136,0.6103999999999999,0.0,0.97973382,-0.11169405,0.08166483
1764435050.3240118,-3.60136,0.6103999999999999,0.0,0.97973382,-0.11169405,0.08166483
1764435050.3240118,-3.60136,0.6103999999999999,0.0,0.97973382,-0.11169405,0.08166483
1764435050.3250115,-3.60136,0.6103999999999999,0.0,0.97973382,-0.11169405,0.08166483
1764435050.3250115,-3.60136,0.6103999999999999,0.0,0.97973382,-0.11169405,0.08166483
1764435050.369008,-3.87604,0.50358,-0.0762999999999999,0.97948968,-0.11047335,0.08081034
1764435050.3700078,-3.87604,0.50358,-0.0762999999999999,0.97948968,-0.11047335,0.08081034
1764435050.3700078,-3.87604,0.50358,-0.0762999999999999,0.97948968,-0.11047335,0.08081034
1764435050.3700078,-3.87604,0.50358,-0.0762999999999999,0.97948968,-0.11047335,0.08081034
1764435050.3700078,-3.87604,0.50358,-0.0762999999999999,0.97948968,-0.11047335,0.08081034
1764435050.3700078,-3.87604,0.50358,-0.0762999999999999,0.97948968,-0.11047335,0.08081034
1764435050.371133,-3.87604,0.50358,-0.0762999999999999,0.97948968,-0.11047335,0.08081034
1764435050.371133,-3.87604,0.50358,-0.0762999999999999,0.97948968,-0.11047335,0.08081034
1764435050.371133,-3.87604,0.50358,-0.0762999999999999,0.97948968,-0.11047335,0.08081034
1764435050.371133,-3.87604,0.50358,-0.0762999999999999,0.97948968,-0.11047335,0.08081034
1764435050.371133,-3.84552,0.59514,-0.13734,0.980161065,-0.110046105,0.08068827
1764435050.371133,-3.84552,0.59514,-0.13734,0.980161065,-0.110046105,0.08068827
1764435050.372134,-3.84552,0.59514,-0.13734,0.980161065,-0.110046105,0.08068827
1764435050.372134,-3.84552,0.59514,-0.13734,0.980161065,-0.110046105,0.08068827
1764435050.372134,-3.84552,0.59514,-0.13734,0.980161065,-0.110046105,0.08068827
1764435050.372134,-3.84552,0.59514,-0.13734,0.980161065,-0.110046105,0.08068827
1764435050.372134,-3.84552,0.59514,-0.13734,0.980161065,-0.110046105,0.08068827
1764435050.3731298,-3.84552,0.59514,-0.13734,0.980161065,-0.110046105,0.08068827
1764435050.3731298,-3.84552,0.59514,-0.13734,0.980161065,-0.110046105,0.08068827
1764435050.3731298,-3.84552,0.59514,-0.13734,0.980161065,-0.110046105,0.08068827
1764435050.3731298,-3.90656,1.2055399999999998,-0.1525999999999999,0.98046624,-0.109435755,0.08032206
1764435050.3731298,-3.90656,1.2055399999999998,-0.1525999999999999,0.98046624,-0.109435755,0.08032206
1764435050.4161584,-3.90656,1.2055399999999998,-0.1525999999999999,0.98046624,-0.109435755,0.08032206
1764435050.4161584,-3.90656,1.2055399999999998,-0.1525999999999999,0.98046624,-0.109435755,0.08032206
1764435050.4161584,-3.90656,1.2055399999999998,-0.1525999999999999,0.98046624,-0.109435755,0.08032206
1764435050.4161584,-3.90656,1.2055399999999998,-0.1525999999999999,0.98046624,-0.109435755,0.08032206
1764435050.4161584,-3.90656,1.2055399999999998,-0.1525999999999999,0.98046624,-0.109435755,0.08032206
1764435050.4161584,-3.90656,1.2055399999999998,-0.1525999999999999,0.98046624,-0.109435755,0.08032206
1764435050.4161584,-3.90656,1.2055399999999998,-0.1525999999999999,0.98046624,-0.109435755,0.08032206
1764435050.4161584,-3.90656,1.2055399999999998,-0.1525999999999999,0.98046624,-0.109435755,0.08032206
1764435050.4161584,-4.18124,1.35814,-0.18312,0.981503835,-0.108825405,0.08019999
1764435050.4161584,-4.18124,1.35814,-0.18312,0.981503835,-0.108825405,0.08019999
1764435050.4161584,-4.18124,1.35814,-0.18312,0.981503835,-0.108825405,0.08019999
1764435050.417352,-4.18124,1.35814,-0.18312,0.981503835,-0.108825405,0.08019999
1764435050.417352,-4.18124,1.35814,-0.18312,0.981503835,-0.108825405,0.08019999
1764435050.417352,-4.18124,1.35814,-0.18312,0.981503835,-0.108825405,0.08019999
1764435050.417352,-4.18124,1.35814,-0.18312,0.981503835,-0.108825405,0.08019999
1764435050.417352,-4.18124,1.35814,-0.18312,0.981503835,-0.108825405,0.08019999
1764435050.417352,-4.18124,1.35814,-0.18312,0.981503835,-0.108825405,0.08019999
1764435050.417352,-4.18124,1.35814,-0.18312,0.981503835,-0.108825405,0.08019999
1764435050.417352,-3.93708,1.55652,0.3815,0.98180901,-0.10949679,0.08044413
1764435050.417352,-3.93708,1.55652,0.3815,0.98180901,-0.10949679,0.08044413
1764435050.417352,-3.93708,1.55652,0.3815,0.98180901,-0.10949679,0.08044413
1764435050.417352,-3.93708,1.55652,0.3815,0.98180901,-0.10949679,0.08044413
1764435050.417352,-3.93708,1.55652,0.3815,0.98180901,-0.10949679,0.08044413
1764435050.4188657,-3.93708,1.55652,0.3815,0.98180901,-0.10949679,0.08044413
1764435050.462746,-3.93708,1.55652,0.3815,0.98180901,-0.10949679,0.08044413
1764435050.462746,-3.93708,1.55652,0.3815,0.98180901,-0.10949679,0.08044413
1764435050.462746,-3.93708,1.55652,0.3815,0.98180901,-0.10949679,0.08044413
1764435050.462746,-3.93708,1.55652,0.3815,0.98180901,-0.10949679,0.08044413
1764435050.462746,-3.8913,1.25132,0.44254,0.98180901,-0.110412315,0.080749305
1764435050.4637496,-3.8913,1.25132,0.44254,0.98180901,-0.110412315,0.080749305
1764435050.4637496,-3.8913,1.25132,0.44254,0.98180901,-0.110412315,0.080749305
1764435050.4637496,-3.8913,1.25132,0.44254,0.98180901,-0.110412315,0.080749305
1764435050.4637496,-3.8913,1.25132,0.44254,0.98180901,-0.110412315,0.080749305
1764435050.4637496,-3.8913,1.25132,0.44254,0.98180901,-0.110412315,0.080749305
1764435050.4647436,-3.8913,1.25132,0.44254,0.98180901,-0.110412315,0.080749305
1764435050.4647436,-3.8913,1.25132,0.44254,0.98180901,-0.110412315,0.080749305
1764435050.4647436,-3.8913,1.25132,0.44254,0.98180901,-0.110412315,0.080749305
1764435050.4647436,-3.8913,1.25132,0.44254,0.98180901,-0.110412315,0.080749305
1764435050.466748,-3.67766,1.26658,0.8698199999999999,0.98132073,-0.11071749,0.080627235
1764435050.466748,-3.67766,1.26658,0.8698199999999999,0.98132073,-0.11071749,0.080627235
1764435050.466748,-3.67766,1.26658,0.8698199999999999,0.98132073,-0.11071749,0.080627235
1764435050.466748,-3.67766,1.26658,0.8698199999999999,0.98132073,-0.11071749,0.080627235
1764435050.466748,-3.67766,1.26658,0.8698199999999999,0.98132073,-0.11071749,0.080627235
1764435050.466748,-3.67766,1.26658,0.8698199999999999,0.98132073,-0.11071749,0.080627235
1764435050.466748,-3.67766,1.26658,0.8698199999999999,0.98132073,-0.11071749,0.080627235
1764435050.466748,-3.67766,1.26658,0.8698199999999999,0.98132073,-0.11071749,0.080627235
1764435050.466748,-3.67766,1.26658,0.8698199999999999,0.98132073,-0.11071749,0.080627235
1764435050.466748,-3.67766,1.26658,0.8698199999999999,0.98132073,-0.11071749,0.080627235
1764435050.5084069,-3.18934,0.97664,1.09872,0.98095452,-0.11071749,0.080627235
1764435050.5084069,-3.18934,0.97664,1.09872,0.98095452,-0.11071749,0.080627235
1764435050.5084069,-3.18934,0.97664,1.09872,0.98095452,-0.11071749,0.080627235
1764435050.5084069,-3.18934,0.97664,1.09872,0.98095452,-0.11071749,0.080627235
1764435050.509931,-3.18934,0.97664,1.09872,0.98095452,-0.11071749,0.080627235
1764435050.509931,-3.18934,0.97664,1.09872,0.98095452,-0.11071749,0.080627235
1764435050.509931,-3.18934,0.97664,1.09872,0.98095452,-0.11071749,0.080627235
1764435050.509931,-3.18934,0.97664,1.09872,0.98095452,-0.11071749,0.080627235
1764435050.509931,-3.18934,0.97664,1.09872,0.98095452,-0.11071749,0.080627235
1764435050.509931,-3.18934,0.97664,1.09872,0.98095452,-0.11071749,0.080627235
1764435050.509931,-2.62472,1.46496,1.09872,0.980893485,-0.11083956,0.080627235
1764435050.509931,-2.62472,1.46496,1.09872,0.980893485,-0.11083956,0.080627235
1764435050.509931,-2.62472,1.46496,1.09872,0.980893485,-0.11083956,0.080627235
1764435050.509931,-2.62472,1.46496,1.09872,0.980893485,-0.11083956,0.080627235
1764435050.509931,-2.62472,1.46496,1.09872,0.980893485,-0.11083956,0.080627235
1764435050.509931,-2.62472,1.46496,1.09872,0.980893485,-0.11083956,0.080627235
1764435050.509931,-2.62472,1.46496,1.09872,0.980893485,-0.11083956,0.080627235
1764435050.509931,-2.62472,1.46496,1.09872,0.980893485,-0.11083956,0.080627235
1764435050.509931,-2.62472,1.46496,1.09872,0.980893485,-0.11083956,0.080627235
1764435050.509931,-2.62472,1.46496,1.09872,0.980893485,-0.11083956,0.080627235
1764435050.509931,-2.3653,1.38866,1.2055399999999998,0.980649345,-0.11120577,0.08019999
1764435050.509931,-2.3653,1.38866,1.2055399999999998,0.980649345,-0.11120577,0.08019999
1764435050.509931,-2.3653,1.38866,1.2055399999999998,0.980649345,-0.11120577,0.08019999
1764435050.509931,-2.3653,1.38866,1.2055399999999998,0.980649345,-0.11120577,0.08019999
1764435050.5569,-2.3653,1.38866,1.2055399999999998,0.980649345,-0.11120577,0.08019999
1764435050.5569,-2.3653,1.38866,1.2055399999999998,0.980649345,-0.11120577,0.08019999
1764435050.5569,-2.3653,1.38866,1.2055399999999998,0.980649345,-0.11120577,0.08019999
1764435050.5569,-2.3653,1.38866,1.2055399999999998,0.980649345,-0.11120577,0.08019999
1764435050.5569,-2.3653,1.38866,1.2055399999999998,0.980649345,-0.11120577,0.08019999
1764435050.5569,-2.3653,1.38866,1.2055399999999998,0.980649345,-0.11120577,0.08019999
1764435050.5569,-2.15166,1.87698,0.6714399999999999,0.98071038,-0.111388875,0.08081034
1764435050.5579145,-2.15166,1.87698,0.6714399999999999,0.98071038,-0.111388875,0.08081034
1764435050.5579145,-2.15166,1.87698,0.6714399999999999,0.98071038,-0.111388875,0.08081034
1764435050.5579145,-2.15166,1.87698,0.6714399999999999,0.98071038,-0.111388875,0.08081034
1764435050.5579145,-2.15166,1.87698,0.6714399999999999,0.98071038,-0.111388875,0.08081034
1764435050.5579145,-2.15166,1.87698,0.6714399999999999,0.98071038,-0.111388875,0.08081034
1764435050.5579145,-2.15166,1.87698,0.6714399999999999,0.98071038,-0.111388875,0.08081034
1764435050.5579145,-2.15166,1.87698,0.6714399999999999,0.98071038,-0.111388875,0.08081034
1764435050.5579145,-2.15166,1.87698,0.6714399999999999,0.98071038,-0.111388875,0.08081034
1764435050.5579145,-2.15166,1.87698,0.6714399999999999,0.98071038,-0.111388875,0.08081034
1764435050.5579145,-2.2127,2.35004,0.96138,0.98180901,-0.11120577,0.080016885
1764435050.5579145,-2.2127,2.35004,0.96138,0.98180901,-0.11120577,0.080016885
1764435050.5579145,-2.2127,2.35004,0.96138,0.98180901,-0.11120577,0.080016885
1764435050.5579145,-2.2127,2.35004,0.96138,0.98180901,-0.11120577,0.080016885
1764435050.5579145,-2.2127,2.35004,0.96138,0.98180901,-0.11120577,0.080016885
1764435050.5579145,-2.2127,2.35004,0.96138,0.98180901,-0.11120577,0.080016885
1764435050.5579145,-2.2127,2.35004,0.96138,0.98180901,-0.11120577,0.080016885
1764435050.5579145,-2.2127,2.35004,0.96138,0.98180901,-0.11120577,0.080016885
1764435050.605088,-2.2127,2.35004,0.96138,0.98180901,-0.11120577,0.080016885
1764435050.605088,-2.2127,2.35004,0.96138,0.98180901,-0.11120577,0.080016885
1764435050.6061852,-2.42634,1.96854,0.97664,0.980893485,-0.11010714,0.07995585
1764435050.6061852,-2.42634,1.96854,0.97664,0.980893485,-0.11010714,0.07995585
1764435050.6061852,-2.42634,1.96854,0.97664,0.980893485,-0.11010714,0.07995585
1764435050.6061852,-2.42634,1.96854,0.97664,0.980893485,-0.11010714,0.07995585
1764435050.6071837,-2.42634,1.96854,0.97664,0.980893485,-0.11010714,0.07995585
1764435050.6071837,-2.42634,1.96854,0.97664,0.980893485,-0.11010714,0.07995585
1764435050.6071837,-2.42634,1.96854,0.97664,0.980893485,-0.11010714,0.07995585
1764435050.6071837,-2.42634,1.96854,0.97664,0.980893485,-0.11010714,0.07995585
1764435050.6081831,-2.42634,1.96854,0.97664,0.980893485,-0.11010714,0.07995585
1764435050.6081831,-2.42634,1.96854,0.97664,0.980893485,-0.11010714,0.07995585
1764435050.6081831,-2.96044,2.16692,1.2208,0.98071038,-0.110168175,0.080627235
1764435050.6081831,-2.96044,2.16692,1.2208,0.98071038,-0.110168175,0.080627235
1764435050.6081831,-2.96044,2.16692,1.2208,0.98071038,-0.110168175,0.080627235
1764435050.6081831,-2.96044,2.16692,1.2208,0.98071038,-0.110168175,0.080627235
1764435050.6081831,-2.96044,2.16692,1.2208,0.98071038,-0.110168175,0.080627235
1764435050.6081831,-2.96044,2.16692,1.2208,0.98071038,-0.110168175,0.080627235
1764435050.6081831,-2.96044,2.16692,1.2208,0.98071038,-0.110168175,0.080627235
1764435050.6081831,-2.96044,2.16692,1.2208,0.98071038,-0.110168175,0.080627235
1764435050.609185,-2.96044,2.16692,1.2208,0.98071038,-0.110168175,0.080627235
1764435050.609185,-2.96044,2.16692,1.2208,0.98071038,-0.110168175,0.080627235
1764435050.609185,-2.83836,2.1364,1.32762,0.98010003,-0.11132784,0.080749305
1764435050.609185,-2.83836,2.1364,1.32762,0.98010003,-0.11132784,0.080749305
1764435050.652771,-2.83836,2.1364,1.32762,0.98010003,-0.11132784,0.080749305
1764435050.652771,-2.83836,2.1364,1.32762,0.98010003,-0.11132784,0.080749305
1764435050.652771,-2.83836,2.1364,1.32762,0.98010003,-0.11132784,0.080749305
1764435050.652771,-2.83836,2.1364,1.32762,0.98010003,-0.11132784,0.080749305
1764435050.652771,-2.83836,2.1364,1.32762,0.98010003,-0.11132784,0.080749305
1764435050.652771,-2.83836,2.1364,1.32762,0.98010003,-0.11132784,0.080749305
1764435050.652771,-2.83836,2.1364,1.32762,0.98010003,-0.11132784,0.080749305
1764435050.652771,-2.83836,2.1364,1.32762,0.98010003,-0.11132784,0.080749305
1764435050.652771,-2.91466,2.39582,1.89224,0.98034417,-0.111999225,0.080871375
1764435050.652771,-2.91466,2.39582,1.89224,0.98034417,-0.111999225,0.080871375
1764435050.652771,-2.91466,2.39582,1.89224,0.98034417,-0.111999225,0.080871375
1764435050.652771,-2.91466,2.39582,1.89224,0.98034417,-0.111999225,0.080871375
1764435050.652771,-2.91466,2.39582,1.89224,0.98034417,-0.111999225,0.080871375
1764435050.652771,-2.91466,2.39582,1.89224,0.98034417,-0.111999225,0.080871375
1764435050.652771,-2.91466,2.39582,1.89224,0.98034417,-0.111999225,0.080871375
1764435050.652771,-2.91466,2.39582,1.89224,0.98034417,-0.111999225,0.080871375
1764435050.652771,-2.91466,2.39582,1.89224,0.98034417,-0.111999225,0.080871375
1764435050.652771,-2.91466,2.39582,1.89224,0.98034417,-0.111999225,0.080871375
1764435050.652771,-3.38772,1.61756,1.0682,0.97961175,-0.11132784,0.081603795
1764435050.652771,-3.38772,1.61756,1.0682,0.97961175,-0.11132784,0.081603795
1764435050.652771,-3.38772,1.61756,1.0682,0.97961175,-0.11132784,0.081603795
1764435050.652771,-3.38772,1.61756,1.0682,0.97961175,-0.11132784,0.081603795
1764435050.6964695,-3.38772,1.61756,1.0682,0.97961175,-0.11132784,0.081603795
1764435050.6964695,-3.38772,1.61756,1.0682,0.97961175,-0.11132784,0.081603795
1764435050.6964695,-3.38772,1.61756,1.0682,0.97961175,-0.11132784,0.081603795
1764435050.6969805,-3.38772,1.61756,1.0682,0.97961175,-0.11132784,0.081603795
1764435050.6969805,-3.38772,1.61756,1.0682,0.97961175,-0.11132784,0.081603795
1764435050.6969805,-3.38772,1.61756,1.0682,0.97961175,-0.11132784,0.081603795
1764435050.6969805,-3.79974,2.1364,0.7019599999999999,0.982114185,-0.110900595,0.082214145
1764435050.6969805,-3.79974,2.1364,0.7019599999999999,0.982114185,-0.110900595,0.082214145
1764435050.6969805,-3.79974,2.1364,0.7019599999999999,0.982114185,-0.110900595,0.082214145
1764435050.6969805,-3.79974,2.1364,0.7019599999999999,0.982114185,-0.110900595,0.082214145
1764435050.6969805,-3.79974,2.1364,0.7019599999999999,0.982114185,-0.110900595,0.082214145
1764435050.6969805,-3.79974,2.1364,0.7019599999999999,0.982114185,-0.110900595,0.082214145
1764435050.6969805,-3.79974,2.1364,0.7019599999999999,0.982114185,-0.110900595,0.082214145
1764435050.6969805,-3.79974,2.1364,0.7019599999999999,0.982114185,-0.110900595,0.082214145
1764435050.6969805,-3.79974,2.1364,0.7019599999999999,0.982114185,-0.110900595,0.082214145
1764435050.6969805,-3.79974,2.1364,0.7019599999999999,0.982114185,-0.110900595,0.082214145
1764435050.6969805,-3.6624,2.09062,0.28994,0.9826635,-0.11047335,0.083434845
1764435050.6969805,-3.6624,2.09062,0.28994,0.9826635,-0.11047335,0.083434845
1764435050.6969805,-3.6624,2.09062,0.28994,0.9826635,-0.11047335,0.083434845
1764435050.6969805,-3.6624,2.09062,0.28994,0.9826635,-0.11047335,0.083434845
1764435050.6969805,-3.6624,2.09062,0.28994,0.9826635,-0.11047335,0.083434845
1764435050.6969805,-3.6624,2.09062,0.28994,0.9826635,-0.11047335,0.083434845
1764435050.743985,-3.6624,2.09062,0.28994,0.9826635,-0.11047335,0.083434845
1764435050.743985,-3.6624,2.09062,0.28994,0.9826635,-0.11047335,0.083434845
1764435050.7444928,-3.6624,2.09062,0.28994,0.9826635,-0.11047335,0.083434845
1764435050.7444928,-3.6624,2.09062,0.28994,0.9826635,-0.11047335,0.083434845
1764435050.7444928,-3.34194,2.30426,0.19838,0.980649345,-0.109435755,0.083801055
1764435050.7444928,-3.34194,2.30426,0.19838,0.980649345,-0.109435755,0.083801055
1764435050.7444928,-3.34194,2.30426,0.19838,0.980649345,-0.109435755,0.083801055
1764435050.7444928,-3.34194,2.30426,0.19838,0.980649345,-0.109435755,0.083801055
1764435050.7444928,-3.34194,2.30426,0.19838,0.980649345,-0.109435755,0.083801055
1764435050.7444928,-3.34194,2.30426,0.19838,0.980649345,-0.109435755,0.083801055
1764435050.7444928,-3.34194,2.30426,0.19838,0.980649345,-0.109435755,0.083801055
1764435050.7444928,-3.34194,2.30426,0.19838,0.980649345,-0.109435755,0.083801055
1764435050.7444928,-3.34194,2.30426,0.19838,0.980649345,-0.109435755,0.083801055
1764435050.7444928,-3.34194,2.30426,0.19838,0.980649345,-0.109435755,0.083801055
1764435050.7444928,-3.7387,1.9075,0.50358,0.977719665,-0.10913058,0.084777615
1764435050.7444928,-3.7387,1.9075,0.50358,0.977719665,-0.10913058,0.084777615
1764435050.7444928,-3.7387,1.9075,0.50358,0.977719665,-0.10913058,0.084777615
1764435050.7444928,-3.7387,1.9075,0.50358,0.977719665,-0.10913058,0.084777615
1764435050.7444928,-3.7387,1.9075,0.50358,0.977719665,-0.10913058,0.084777615
1764435050.7444928,-3.7387,1.9075,0.50358,0.977719665,-0.10913058,0.084777615
1764435050.7444928,-3.7387,1.9075,0.50358,0.977719665,-0.10913058,0.084777615
1764435050.7444928,-3.7387,1.9075,0.50358,0.977719665,-0.10913058,0.084777615
1764435050.7444928,-3.7387,1.9075,0.50358,0.977719665,-0.10913058,0.084777615
1764435050.7455046,-3.7387,1.9075,0.50358,0.977719665,-0.10913058,0.084777615
1764435050.7920282,-3.06726,1.32762,1.23606,0.976865175,-0.109557825,0.08520486
1764435050.7920282,-3.06726,1.32762,1.23606,0.976865175,-0.109557825,0.08520486
1764435050.7920282,-3.06726,1.32762,1.23606,0.976865175,-0.109557825,0.08520486
1764435050.7920282,-3.06726,1.32762,1.23606,0.976865175,-0.109557825,0.08520486
1764435050.7920282,-3.06726,1.32762,1.23606,0.976865175,-0.109557825,0.08520486
1764435050.7920282,-3.06726,1.32762,1.23606,0.976865175,-0.109557825,0.08520486
1764435050.7935383,-3.06726,1.32762,1.23606,0.976865175,-0.109557825,0.08520486
1764435050.7935383,-3.06726,1.32762,1.23606,0.976865175,-0.109557825,0.08520486
1764435050.7935383,-3.06726,1.32762,1.23606,0.976865175,-0.109557825,0.08520486
1764435050.7935383,-3.06726,1.32762,1.23606,0.976865175,-0.109557825,0.08520486
1764435050.7935383,-3.03674,1.08346,1.57178,0.977353455,-0.110168175,0.085449
1764435050.7935383,-3.03674,1.08346,1.57178,0.977353455,-0.110168175,0.085449
1764435050.7935383,-3.03674,1.08346,1.57178,0.977353455,-0.110168175,0.085449
1764435050.7935383,-3.03674,1.08346,1.57178,0.977353455,-0.110168175,0.085449
1764435050.7935383,-3.03674,1.08346,1.57178,0.977353455,-0.110168175,0.085449
1764435050.7935383,-3.03674,1.08346,1.57178,0.977353455,-0.110168175,0.085449
1764435050.7935383,-3.03674,1.08346,1.57178,0.977353455,-0.110168175,0.085449
1764435050.7935383,-3.03674,1.08346,1.57178,0.977353455,-0.110168175,0.085449
1764435050.794553,-3.03674,1.08346,1.57178,0.977353455,-0.110168175,0.085449
1764435050.794553,-3.03674,1.08346,1.57178,0.977353455,-0.110168175,0.085449
1764435050.794553,-2.53316,1.00716,1.78542,0.9790014,-0.110290245,0.085021755
1764435050.7955554,-2.53316,1.00716,1.78542,0.9790014,-0.110290245,0.085021755
1764435050.7955554,-2.53316,1.00716,1.78542,0.9790014,-0.110290245,0.085021755
1764435050.7961717,-2.53316,1.00716,1.78542,0.9790014,-0.110290245,0.085021755
1764435050.841606,-2.53316,1.00716,1.78542,0.9790014,-0.110290245,0.085021755
1764435050.841606,-2.53316,1.00716,1.78542,0.9790014,-0.110290245,0.085021755
1764435050.841606,-2.53316,1.00716,1.78542,0.9790014,-0.110290245,0.085021755
1764435050.841606,-2.53316,1.00716,1.78542,0.9790014,-0.110290245,0.085021755
1764435050.841606,-2.53316,1.00716,1.78542,0.9790014,-0.110290245,0.085021755
1764435050.841606,-2.53316,1.00716,1.78542,0.9790014,-0.110290245,0.085021755
1764435050.841606,-2.80784,0.8698199999999999,2.01432,0.98058831,-0.11059542,0.08447244
1764435050.841606,-2.80784,0.8698199999999999,2.01432,0.98058831,-0.11059542,0.08447244
1764435050.841606,-2.80784,0.8698199999999999,2.01432,0.98058831,-0.11059542,0.08447244
1764435050.841606,-2.80784,0.8698199999999999,2.01432,0.98058831,-0.11059542,0.08447244
1764435050.841606,-2.80784,0.8698199999999999,2.01432,0.98058831,-0.11059542,0.08447244
1764435050.841606,-2.80784,0.8698199999999999,2.01432,0.98058831,-0.11059542,0.08447244
1764435050.841606,-2.80784,0.8698199999999999,2.01432,0.98058831,-0.11059542,0.08447244
1764435050.841606,-2.80784,0.8698199999999999,2.01432,0.98058831,-0.11059542,0.08447244
1764435050.841606,-2.80784,0.8698199999999999,2.01432,0.98058831,-0.11059542,0.08447244
1764435050.841606,-2.80784,0.8698199999999999,2.01432,0.98058831,-0.11059542,0.08447244
1764435050.841606,-3.25038,1.46496,2.04484,0.981381765,-0.10998507,0.083923125
1764435050.841606,-3.25038,1.46496,2.04484,0.981381765,-0.10998507,0.083923125
1764435050.841606,-3.25038,1.46496,2.04484,0.981381765,-0.10998507,0.083923125
1764435050.841606,-3.25038,1.46496,2.04484,0.981381765,-0.10998507,0.083923125
1764435050.841606,-3.25038,1.46496,2.04484,0.981381765,-0.10998507,0.083923125
1764435050.841606,-3.25038,1.46496,2.04484,0.981381765,-0.10998507,0.083923125
1764435050.8853512,-3.25038,1.46496,2.04484,0.981381765,-0.10998507,0.083923125
1764435050.8853512,-3.25038,1.46496,2.04484,0.981381765,-0.10998507,0.083923125
1764435050.8853512,-3.25038,1.46496,2.04484,0.981381765,-0.10998507,0.083923125
1764435050.8853512,-3.25038,1.46496,2.04484,0.981381765,-0.10998507,0.083923125
1764435050.8853512,-3.67766,1.69386,2.3653,0.981992115,-0.110778525,0.08410623
1764435050.8853512,-3.67766,1.69386,2.3653,0.981992115,-0.110778525,0.08410623
1764435050.8853512,-3.67766,1.69386,2.3653,0.981992115,-0.110778525,0.08410623
1764435050.8853512,-3.67766,1.69386,2.3653,0.981992115,-0.110778525,0.08410623
1764435050.8853512,-3.67766,1.69386,2.3653,0.981992115,-0.110778525,0.08410623
1764435050.8853512,-3.67766,1.69386,2.3653,0.981992115,-0.110778525,0.08410623
1764435050.8853512,-3.67766,1.69386,2.3653,0.981992115,-0.110778525,0.08410623
1764435050.8853512,-3.67766,1.69386,2.3653,0.981992115,-0.110778525,0.08410623
1764435050.8853512,-3.67766,1.69386,2.3653,0.981992115,-0.110778525,0.08410623
1764435050.886367,-3.67766,1.69386,2.3653,0.981992115,-0.110778525,0.08410623
1764435050.886367,-3.5861,1.72438,2.41108,0.98168694,-0.112243365,0.083678985
1764435050.886367,-3.5861,1.72438,2.41108,0.98168694,-0.112243365,0.083678985
1764435050.886367,-3.5861,1.72438,2.41108,0.98168694,-0.112243365,0.083678985
1764435050.886367,-3.5861,1.72438,2.41108,0.98168694,-0.112243365,0.083678985
1764435050.886367,-3.5861,1.72438,2.41108,0.98168694,-0.112243365,0.083678985
1764435050.886367,-3.5861,1.72438,2.41108,0.98168694,-0.112243365,0.083678985
1764435050.886367,-3.5861,1.72438,2.41108,0.98168694,-0.112243365,0.083678985
1764435050.886367,-3.5861,1.72438,2.41108,0.98168694,-0.112243365,0.083678985
1764435050.886367,-3.5861,1.72438,2.41108,0.98168694,-0.112243365,0.083678985
1764435050.886367,-3.5861,1.72438,2.41108,0.98168694,-0.112243365,0.083678985
1764435050.9337935,-4.2728,1.12924,2.09062,0.980161065,-0.11279268,0.083678985
1764435050.9337935,-4.2728,1.12924,2.09062,0.980161065,-0.11279268,0.083678985
1764435050.9337935,-4.2728,1.12924,2.09062,0.980161065,-0.11279268,0.083678985
1764435050.9337935,-4.2728,1.12924,2.09062,0.980161065,-0.11279268,0.083678985
1764435050.9337935,-4.2728,1.12924,2.09062,0.980161065,-0.11279268,0.083678985
1764435050.9344554,-4.2728,1.12924,2.09062,0.980161065,-0.11279268,0.083678985
1764435050.9344554,-4.2728,1.12924,2.09062,0.980161065,-0.11279268,0.083678985
1764435050.9344554,-4.2728,1.12924,2.09062,0.980161065,-0.11279268,0.083678985
1764435050.9344554,-4.2728,1.12924,2.09062,0.980161065,-0.11279268,0.083678985
1764435050.9344554,-4.2728,1.12924,2.09062,0.980161065,-0.11279268,0.083678985
1764435050.9344554,-4.37962,0.85456,1.9838,0.980283135,-0.114074415,0.084289335
1764435050.9344554,-4.37962,0.85456,1.9838,0.980283135,-0.114074415,0.084289335
1764435050.9344554,-4.37962,0.85456,1.9838,0.980283135,-0.114074415,0.084289335
1764435050.9344554,-4.37962,0.85456,1.9838,0.980283135,-0.114074415,0.084289335
1764435050.9344554,-4.37962,0.85456,1.9838,0.980283135,-0.114074415,0.084289335
1764435050.9344554,-4.37962,0.85456,1.9838,0.980283135,-0.114074415,0.084289335
1764435050.9344554,-4.37962,0.85456,1.9838,0.980283135,-0.114074415,0.084289335
1764435050.9344554,-4.37962,0.85456,1.9838,0.980283135,-0.114074415,0.084289335
1764435050.9344554,-4.37962,0.85456,1.9838,0.980283135,-0.114074415,0.084289335
1764435050.9344554,-4.37962,0.85456,1.9838,0.980283135,-0.114074415,0.084289335
1764435050.9344554,-3.9676,1.08346,1.8006799999999998,0.98046624,-0.11486787,0.084899685
1764435050.9344554,-3.9676,1.08346,1.8006799999999998,0.98046624,-0.11486787,0.084899685
1764435050.977991,-3.9676,1.08346,1.8006799999999998,0.98046624,-0.11486787,0.084899685
1764435050.977991,-3.9676,1.08346,1.8006799999999998,0.98046624,-0.11486787,0.084899685
1764435050.977991,-3.9676,1.08346,1.8006799999999998,0.98046624,-0.11486787,0.084899685
1764435050.977991,-3.9676,1.08346,1.8006799999999998,0.98046624,-0.11486787,0.084899685
1764435050.978498,-3.9676,1.08346,1.8006799999999998,0.98046624,-0.11486787,0.084899685
1764435050.978498,-3.9676,1.08346,1.8006799999999998,0.98046624,-0.11486787,0.084899685
1764435050.978498,-3.9676,1.08346,1.8006799999999998,0.98046624,-0.11486787,0.084899685
1764435050.978498,-3.9676,1.08346,1.8006799999999998,0.98046624,-0.11486787,0.084899685
1764435050.978498,-3.70818,1.17502,0.85456,0.98071038,-0.115295115,0.085449
1764435050.978498,-3.70818,1.17502,0.85456,0.98071038,-0.115295115,0.085449
1764435050.978498,-3.70818,1.17502,0.85456,0.98071038,-0.115295115,0.085449
1764435050.978498,-3.70818,1.17502,0.85456,0.98071038,-0.115295115,0.085449
1764435050.978498,-3.70818,1.17502,0.85456,0.98071038,-0.115295115,0.085449
1764435050.978498,-3.70818,1.17502,0.85456,0.98071038,-0.115295115,0.085449
1764435050.978498,-3.70818,1.17502,0.85456,0.98071038,-0.115295115,0.085449
1764435050.978498,-3.70818,1.17502,0.85456,0.98071038,-0.115295115,0.085449
1764435050.978498,-3.70818,1.17502,0.85456,0.98071038,-0.115295115,0.085449
1764435050.978498,-3.70818,1.17502,0.85456,0.98071038,-0.115295115,0.085449
1764435050.978498,-3.38772,1.12924,0.74774,0.979672785,-0.11547822,0.085632105
1764435050.978498,-3.38772,1.12924,0.74774,0.979672785,-0.11547822,0.085632105
1764435050.978498,-3.38772,1.12924,0.74774,0.979672785,-0.11547822,0.085632105
1764435050.978498,-3.38772,1.12924,0.74774,0.979672785,-0.11547822,0.085632105
1764435050.978498,-3.38772,1.12924,0.74774,0.979672785,-0.11547822,0.085632105
1764435050.978498,-3.38772,1.12924,0.74774,0.979672785,-0.11547822,0.085632105
1764435051.0261002,-3.38772,1.12924,0.74774,0.979672785,-0.11547822,0.085632105
1764435051.027104,-3.38772,1.12924,0.74774,0.979672785,-0.11547822,0.085632105
1764435051.027104,-3.38772,1.12924,0.74774,0.979672785,-0.11547822,0.085632105
1764435051.027104,-3.38772,1.12924,0.74774,0.979672785,-0.11547822,0.085632105
1764435051.027104,-3.5861,0.85456,0.6103999999999999,0.978452085,-0.11462373,0.08532693
1764435051.027104,-3.5861,0.85456,0.6103999999999999,0.978452085,-0.11462373,0.08532693
1764435051.027104,-3.5861,0.85456,0.6103999999999999,0.978452085,-0.11462373,0.08532693
1764435051.027104,-3.5861,0.85456,0.6103999999999999,0.978452085,-0.11462373,0.08532693
1764435051.027104,-3.5861,0.85456,0.6103999999999999,0.978452085,-0.11462373,0.08532693
1764435051.027104,-3.5861,0.85456,0.6103999999999999,0.978452085,-0.11462373,0.08532693
1764435051.027104,-3.5861,0.85456,0.6103999999999999,0.978452085,-0.11462373,0.08532693
1764435051.027104,-3.5861,0.85456,0.6103999999999999,0.978452085,-0.11462373,0.08532693
1764435051.027104,-3.5861,0.85456,0.6103999999999999,0.978452085,-0.11462373,0.08532693
1764435051.027104,-3.5861,0.85456,0.6103999999999999,0.978452085,-0.11462373,0.08532693
1764435051.027104,-3.52506,-0.10682,0.56462,0.97790277,-0.11389131,0.08508279
1764435051.027104,-3.52506,-0.10682,0.56462,0.97790277,-0.11389131,0.08508279
1764435051.027104,-3.52506,-0.10682,0.56462,0.97790277,-0.11389131,0.08508279
1764435051.027104,-3.52506,-0.10682,0.56462,0.97790277,-0.11389131,0.08508279
1764435051.027104,-3.52506,-0.10682,0.56462,0.97790277,-0.11389131,0.08508279
1764435051.027104,-3.52506,-0.10682,0.56462,0.97790277,-0.11389131,0.08508279
1764435051.027104,-3.52506,-0.10682,0.56462,0.97790277,-0.11389131,0.08508279
1764435051.027104,-3.52506,-0.10682,0.56462,0.97790277,-0.11389131,0.08508279
1764435051.027104,-3.52506,-0.10682,0.56462,0.97790277,-0.11389131,0.08508279
1764435051.0281012,-3.52506,-0.10682,0.56462,0.97790277,-0.11389131,0.08508279
1764435051.0715177,-4.1202,0.1678599999999999,0.3357199999999999,0.97814691,-0.113586135,0.085265895
1764435051.0715177,-4.1202,0.1678599999999999,0.3357199999999999,0.97814691,-0.113586135,0.085265895
1764435051.0715177,-4.1202,0.1678599999999999,0.3357199999999999,0.97814691,-0.113586135,0.085265895
1764435051.0715177,-4.1202,0.1678599999999999,0.3357199999999999,0.97814691,-0.113586135,0.085265895
1764435051.0715177,-4.1202,0.1678599999999999,0.3357199999999999,0.97814691,-0.113586135,0.085265895
1764435051.0715177,-4.1202,0.1678599999999999,0.3357199999999999,0.97814691,-0.113586135,0.085265895
1764435051.0725162,-4.1202,0.1678599999999999,0.3357199999999999,0.97814691,-0.113586135,0.085265895
1764435051.0725162,-4.1202,0.1678599999999999,0.3357199999999999,0.97814691,-0.113586135,0.085265895
1764435051.0725162,-4.1202,0.1678599999999999,0.3357199999999999,0.97814691,-0.113586135,0.085265895
1764435051.0725162,-4.1202,0.1678599999999999,0.3357199999999999,0.97814691,-0.113586135,0.085265895
1764435051.0725162,-4.08968,0.09156,0.36624,0.979428645,-0.11279268,0.08410623
1764435051.0725162,-4.08968,0.09156,0.36624,0.979428645,-0.11279268,0.08410623
1764435051.0725162,-4.08968,0.09156,0.36624,0.979428645,-0.11279268,0.08410623
1764435051.0725162,-4.08968,0.09156,0.36624,0.979428645,-0.11279268,0.08410623
1764435051.0725162,-4.08968,0.09156,0.36624,0.979428645,-0.11279268,0.08410623
1764435051.0725162,-4.08968,0.09156,0.36624,0.979428645,-0.11279268,0.08410623
1764435051.0725162,-4.08968,0.09156,0.36624,0.979428645,-0.11279268,0.08410623
1764435051.0725162,-4.08968,0.09156,0.36624,0.979428645,-0.11279268,0.08410623
1764435051.0725162,-4.08968,0.09156,0.36624,0.979428645,-0.11279268,0.08410623
1764435051.0725162,-4.08968,0.09156,0.36624,0.979428645,-0.11279268,0.08410623
1764435051.0725162,-4.37962,0.5341,0.3509799999999999,0.97924554,-0.111877155,0.08325174
1764435051.0725162,-4.37962,0.5341,0.3509799999999999,0.97924554,-0.111877155,0.08325174
1764435051.0725162,-4.37962,0.5341,0.3509799999999999,0.97924554,-0.111877155,0.08325174
1764435051.0725162,-4.37962,0.5341,0.3509799999999999,0.97924554,-0.111877155,0.08325174
1764435051.1159794,-4.37962,0.5341,0.3509799999999999,0.97924554,-0.111877155,0.08325174
1764435051.1159794,-4.37962,0.5341,0.3509799999999999,0.97924554,-0.111877155,0.08325174
1764435051.1159794,-4.37962,0.5341,0.3509799999999999,0.97924554,-0.111877155,0.08325174
1764435051.1159794,-4.37962,0.5341,0.3509799999999999,0.97924554,-0.111877155,0.08325174
1764435051.1159794,-4.37962,0.5341,0.3509799999999999,0.97924554,-0.111877155,0.08325174
1764435051.1159794,-4.37962,0.5341,0.3509799999999999,0.97924554,-0.111877155,0.08325174
1764435051.1159794,-4.45592,0.3204599999999999,0.28994,0.979306575,-0.111755085,0.082946565
1764435051.1169982,-4.45592,0.3204599999999999,0.28994,0.979306575,-0.111755085,0.082946565
1764435051.1169982,-4.45592,0.3204599999999999,0.28994,0.979306575,-0.111755085,0.082946565
1764435051.1169982,-4.45592,0.3204599999999999,0.28994,0.979306575,-0.111755085,0.082946565
1764435051.1169982,-4.45592,0.3204599999999999,0.28994,0.979306575,-0.111755085,0.082946565
1764435051.1169982,-4.45592,0.3204599999999999,0.28994,0.979306575,-0.111755085,0.082946565
1764435051.1175082,-4.45592,0.3204599999999999,0.28994,0.979306575,-0.111755085,0.082946565
1764435051.1175082,-4.45592,0.3204599999999999,0.28994,0.979306575,-0.111755085,0.082946565
1764435051.165227,-4.45592,0.3204599999999999,0.28994,0.979306575,-0.111755085,0.082946565
1764435051.165227,-4.45592,0.3204599999999999,0.28994,0.979306575,-0.111755085,0.082946565
1764435051.165227,-3.95234,-0.1525999999999999,0.65618,0.97973382,-0.11254854,0.082458285
1764435051.165227,-3.95234,-0.1525999999999999,0.65618,0.97973382,-0.11254854,0.082458285
1764435051.165227,-3.95234,-0.1525999999999999,0.65618,0.97973382,-0.11254854,0.082458285
1764435051.165227,-3.95234,-0.1525999999999999,0.65618,0.97973382,-0.11254854,0.082458285
1764435051.165227,-3.95234,-0.1525999999999999,0.65618,0.97973382,-0.11254854,0.082458285
1764435051.1662402,-3.95234,-0.1525999999999999,0.65618,0.97973382,-0.11254854,0.082458285
1764435051.1662402,-3.95234,-0.1525999999999999,0.65618,0.97973382,-0.11254854,0.082458285
1764435051.1662402,-3.95234,-0.1525999999999999,0.65618,0.97973382,-0.11254854,0.082458285
1764435051.1662402,-3.95234,-0.1525999999999999,0.65618,0.97973382,-0.11254854,0.082458285
1764435051.1662402,-3.95234,-0.1525999999999999,0.65618,0.97973382,-0.11254854,0.082458285
1764435051.1662402,-3.8913,0.0,0.8392999999999999,0.98083245,-0.112975785,0.08264139
1764435051.1662402,-3.8913,0.0,0.8392999999999999,0.98083245,-0.112975785,0.08264139
1764435051.1662402,-3.8913,0.0,0.8392999999999999,0.98083245,-0.112975785,0.08264139
1764435051.1672387,-3.8913,0.0,0.8392999999999999,0.98083245,-0.112975785,0.08264139
1764435051.1672387,-3.8913,0.0,0.8392999999999999,0.98083245,-0.112975785,0.08264139
1764435051.1672387,-3.8913,0.0,0.8392999999999999,0.98083245,-0.112975785,0.08264139
1764435051.1672387,-3.8913,0.0,0.8392999999999999,0.98083245,-0.112975785,0.08264139
1764435051.1672387,-3.8913,0.0,0.8392999999999999,0.98083245,-0.112975785,0.08264139
1764435051.1672387,-3.8913,0.0,0.8392999999999999,0.98083245,-0.112975785,0.08264139
1764435051.1672387,-3.8913,0.0,0.8392999999999999,0.98083245,-0.112975785,0.08264139
1764435051.1672387,-3.6624,0.56462,0.50358,0.98193108,-0.11376924,0.082824495
1764435051.1672387,-3.6624,0.56462,0.50358,0.98193108,-0.11376924,0.082824495
1764435051.1683846,-3.6624,0.56462,0.50358,0.98193108,-0.11376924,0.082824495
1764435051.1683846,-3.6624,0.56462,0.50358,0.98193108,-0.11376924,0.082824495
1764435051.1683846,-3.6624,0.56462,0.50358,0.98193108,-0.11376924,0.082824495
1764435051.1698978,-3.6624,0.56462,0.50358,0.98193108,-0.11376924,0.082824495
1764435051.1698978,-3.6624,0.56462,0.50358,0.98193108,-0.11376924,0.082824495
1764435051.1698978,-3.6624,0.56462,0.50358,0.98193108,-0.11376924,0.082824495
1764435051.1698978,-3.6624,0.56462,0.50358,0.98193108,-0.11376924,0.082824495
1764435051.1709116,-3.6624,0.56462,0.50358,0.98193108,-0.11376924,0.082824495
1764435051.1709116,-3.26564,0.7019599999999999,1.08346,0.981747975,-0.11376924,0.08264139
1764435051.1709116,-3.26564,0.7019599999999999,1.08346,0.981747975,-0.11376924,0.08264139
1764435051.2138236,-3.26564,0.7019599999999999,1.08346,0.981747975,-0.11376924,0.08264139
1764435051.2138236,-3.26564,0.7019599999999999,1.08346,0.981747975,-0.11376924,0.08264139
1764435051.2138236,-3.26564,0.7019599999999999,1.08346,0.981747975,-0.11376924,0.08264139
1764435051.2138236,-3.26564,0.7019599999999999,1.08346,0.981747975,-0.11376924,0.08264139
1764435051.2138236,-3.26564,0.7019599999999999,1.08346,0.981747975,-0.11376924,0.08264139
1764435051.2138236,-3.26564,0.7019599999999999,1.08346,0.981747975,-0.11376924,0.08264139
1764435051.2138236,-3.26564,0.7019599999999999,1.08346,0.981747975,-0.11376924,0.08264139
1764435051.2138236,-3.26564,0.7019599999999999,1.08346,0.981747975,-0.11376924,0.08264139
1764435051.2138236,-3.052,0.7019599999999999,1.17502,0.98180901,-0.114440625,0.082580355
1764435051.2138236,-3.052,0.7019599999999999,1.17502,0.98180901,-0.114440625,0.082580355
1764435051.2138236,-3.052,0.7019599999999999,1.17502,0.98180901,-0.114440625,0.082580355
1764435051.2138236,-3.052,0.7019599999999999,1.17502,0.98180901,-0.114440625,0.082580355
1764435051.2138236,-3.052,0.7019599999999999,1.17502,0.98180901,-0.114440625,0.082580355
1764435051.2138236,-3.052,0.7019599999999999,1.17502,0.98180901,-0.114440625,0.082580355
1764435051.2138236,-3.052,0.7019599999999999,1.17502,0.98180901,-0.114440625,0.082580355
1764435051.2138236,-3.052,0.7019599999999999,1.17502,0.98180901,-0.114440625,0.082580355
1764435051.2138236,-3.052,0.7019599999999999,1.17502,0.98180901,-0.114440625,0.082580355
1764435051.2138236,-3.052,0.7019599999999999,1.17502,0.98180901,-0.114440625,0.082580355
1764435051.2138236,-2.73154,0.6409199999999999,1.43444,0.98071038,-0.112975785,0.08215311
1764435051.2138236,-2.73154,0.6409199999999999,1.43444,0.98071038,-0.112975785,0.08215311
1764435051.2138236,-2.73154,0.6409199999999999,1.43444,0.98071038,-0.112975785,0.08215311
1764435051.2138236,-2.73154,0.6409199999999999,1.43444,0.98071038,-0.112975785,0.08215311
1764435051.2576752,-2.73154,0.6409199999999999,1.43444,0.98071038,-0.112975785,0.08215311
1764435051.2576752,-2.73154,0.6409199999999999,1.43444,0.98071038,-0.112975785,0.08215311
1764435051.2576752,-2.73154,0.6409199999999999,1.43444,0.98071038,-0.112975785,0.08215311
1764435051.2576752,-2.73154,0.6409199999999999,1.43444,0.98071038,-0.112975785,0.08215311
1764435051.2576752,-2.73154,0.6409199999999999,1.43444,0.98071038,-0.112975785,0.08215311
1764435051.2576752,-2.73154,0.6409199999999999,1.43444,0.98071038,-0.112975785,0.08215311
1764435051.2576752,-3.1283,0.73248,1.38866,0.980161065,-0.11376924,0.082336215
1764435051.2576752,-3.1283,0.73248,1.38866,0.980161065,-0.11376924,0.082336215
1764435051.2576752,-3.1283,0.73248,1.38866,0.980161065,-0.11376924,0.082336215
1764435051.2576752,-3.1283,0.73248,1.38866,0.980161065,-0.11376924,0.082336215
1764435051.2576752,-3.1283,0.73248,1.38866,0.980161065,-0.11376924,0.082336215
1764435051.2576752,-3.1283,0.73248,1.38866,0.980161065,-0.11376924,0.082336215
1764435051.2576752,-3.1283,0.73248,1.38866,0.980161065,-0.11376924,0.082336215
1764435051.2576752,-3.1283,0.73248,1.38866,0.980161065,-0.11376924,0.082336215
1764435051.2576752,-3.1283,0.73248,1.38866,0.980161065,-0.11376924,0.082336215
1764435051.2576752,-3.1283,0.73248,1.38866,0.980161065,-0.11376924,0.082336215
1764435051.2576752,-2.7468,1.15976,2.16692,0.980161065,-0.114806835,0.082214145
1764435051.2576752,-2.7468,1.15976,2.16692,0.980161065,-0.114806835,0.082214145
1764435051.2576752,-2.7468,1.15976,2.16692,0.980161065,-0.114806835,0.082214145
1764435051.2576752,-2.7468,1.15976,2.16692,0.980161065,-0.114806835,0.082214145
1764435051.2576752,-2.7468,1.15976,2.16692,0.980161065,-0.114806835,0.082214145
1764435051.2576752,-2.7468,1.15976,2.16692,0.980161065,-0.114806835,0.082214145
1764435051.2576752,-2.7468,1.15976,2.16692,0.980161065,-0.114806835,0.082214145
1764435051.258685,-2.7468,1.15976,2.16692,0.980161065,-0.114806835,0.082214145
1764435051.307713,-2.7468,1.15976,2.16692,0.980161065,-0.114806835,0.082214145
1764435051.307713,-2.7468,1.15976,2.16692,0.980161065,-0.114806835,0.082214145
1764435051.307713,-2.5942,1.1445,2.22796,0.98046624,-0.114684765,0.08227518
1764435051.307713,-2.5942,1.1445,2.22796,0.98046624,-0.114684765,0.08227518
1764435051.307713,-2.5942,1.1445,2.22796,0.98046624,-0.114684765,0.08227518
1764435051.3087115,-2.5942,1.1445,2.22796,0.98046624,-0.114684765,0.08227518
1764435051.3087115,-2.5942,1.1445,2.22796,0.98046624,-0.114684765,0.08227518
1764435051.3087115,-2.5942,1.1445,2.22796,0.98046624,-0.114684765,0.08227518
1764435051.3087115,-2.5942,1.1445,2.22796,0.98046624,-0.114684765,0.08227518
1764435051.3087115,-2.5942,1.1445,2.22796,0.98046624,-0.114684765,0.08227518
1764435051.3087115,-2.5942,1.1445,2.22796,0.98046624,-0.114684765,0.08227518
1764435051.3087115,-2.5942,1.1445,2.22796,0.98046624,-0.114684765,0.08227518
1764435051.3087115,-2.80784,0.79352,0.8698199999999999,0.979794855,-0.11303682,0.081603795
1764435051.3087115,-2.80784,0.79352,0.8698199999999999,0.979794855,-0.11303682,0.081603795
1764435051.3087115,-2.80784,0.79352,0.8698199999999999,0.979794855,-0.11303682,0.081603795
1764435051.3087115,-2.80784,0.79352,0.8698199999999999,0.979794855,-0.11303682,0.081603795
1764435051.3087115,-2.80784,0.79352,0.8698199999999999,0.979794855,-0.11303682,0.081603795
1764435051.3087115,-2.80784,0.79352,0.8698199999999999,0.979794855,-0.11303682,0.081603795
1764435051.3522398,-2.80784,0.79352,0.8698199999999999,0.979794855,-0.11303682,0.081603795
1764435051.3522398,-2.80784,0.79352,0.8698199999999999,0.979794855,-0.11303682,0.081603795
1764435051.3522398,-2.80784,0.79352,0.8698199999999999,0.979794855,-0.11303682,0.081603795
1764435051.3522398,-2.80784,0.79352,0.8698199999999999,0.979794855,-0.11303682,0.081603795
1764435051.3522398,-3.52506,1.17502,0.06104,0.98119866,-0.112609575,0.081603795
1764435051.3522398,-3.52506,1.17502,0.06104,0.98119866,-0.112609575,0.081603795
1764435051.3522398,-3.52506,1.17502,0.06104,0.98119866,-0.112609575,0.081603795
1764435051.3522398,-3.52506,1.17502,0.06104,0.98119866,-0.112609575,0.081603795
1764435051.3522398,-3.52506,1.17502,0.06104,0.98119866,-0.112609575,0.081603795
1764435051.3522398,-3.52506,1.17502,0.06104,0.98119866,-0.112609575,0.081603795
1764435051.3522398,-3.52506,1.17502,0.06104,0.98119866,-0.112609575,0.081603795
1764435051.3522398,-3.52506,1.17502,0.06104,0.98119866,-0.112609575,0.081603795
1764435051.3522398,-3.52506,1.17502,0.06104,0.98119866,-0.112609575,0.081603795
1764435051.3522398,-3.52506,1.17502,0.06104,0.98119866,-0.112609575,0.081603795
1764435051.3522398,-3.61662,1.93802,0.01526,0.981747975,-0.112975785,0.0817869
1764435051.3538496,-3.61662,1.93802,0.01526,0.981747975,-0.112975785,0.0817869
1764435051.3538496,-3.61662,1.93802,0.01526,0.981747975,-0.112975785,0.0817869
1764435051.3538496,-3.61662,1.93802,0.01526,0.981747975,-0.112975785,0.0817869
1764435051.3538496,-3.61662,1.93802,0.01526,0.981747975,-0.112975785,0.0817869
1764435051.3548682,-3.61662,1.93802,0.01526,0.981747975,-0.112975785,0.0817869
1764435051.3548682,-3.61662,1.93802,0.01526,0.981747975,-0.112975785,0.0817869
1764435051.3548682,-3.61662,1.93802,0.01526,0.981747975,-0.112975785,0.0817869
1764435051.3548682,-3.61662,1.93802,0.01526,0.981747975,-0.112975785,0.0817869
1764435051.3548682,-3.61662,1.93802,0.01526,0.981747975,-0.112975785,0.0817869
1764435051.355861,-3.46402,1.7549,0.2289,0.980405205,-0.11254854,0.081481725
1764435051.355861,-3.46402,1.7549,0.2289,0.980405205,-0.11254854,0.081481725
1764435051.355861,-3.46402,1.7549,0.2289,0.980405205,-0.11254854,0.081481725
1764435051.355861,-3.46402,1.7549,0.2289,0.980405205,-0.11254854,0.081481725
1764435051.355861,-3.46402,1.7549,0.2289,0.980405205,-0.11254854,0.081481725
1764435051.3568606,-3.46402,1.7549,0.2289,0.980405205,-0.11254854,0.081481725
1764435051.4004211,-3.46402,1.7549,0.2289,0.980405205,-0.11254854,0.081481725
1764435051.4004211,-3.46402,1.7549,0.2289,0.980405205,-0.11254854,0.081481725
1764435051.4004211,-3.46402,1.7549,0.2289,0.980405205,-0.11254854,0.081481725
1764435051.4004211,-3.46402,1.7549,0.2289,0.980405205,-0.11254854,0.081481725
1764435051.4004211,-3.93708,1.49548,0.6409199999999999,0.978818295,-0.11218233,0.080993445
1764435051.4004211,-3.93708,1.49548,0.6409199999999999,0.978818295,-0.11218233,0.080993445
1764435051.4004211,-3.93708,1.49548,0.6409199999999999,0.978818295,-0.11218233,0.080993445
1764435051.4004211,-3.93708,1.49548,0.6409199999999999,0.978818295,-0.11218233,0.080993445
1764435051.4004211,-3.93708,1.49548,0.6409199999999999,0.978818295,-0.11218233,0.080993445
1764435051.4004211,-3.93708,1.49548,0.6409199999999999,0.978818295,-0.11218233,0.080993445
1764435051.4014275,-3.93708,1.49548,0.6409199999999999,0.978818295,-0.11218233,0.080993445
1764435051.4014275,-3.93708,1.49548,0.6409199999999999,0.978818295,-0.11218233,0.080993445
1764435051.4014275,-3.93708,1.49548,0.6409199999999999,0.978818295,-0.11218233,0.080993445
1764435051.4014275,-3.93708,1.49548,0.6409199999999999,0.978818295,-0.11218233,0.080993445
1764435051.4014275,-3.49454,1.2055399999999998,1.11398,0.978574155,-0.112853715,0.08190897
1764435051.4014275,-3.49454,1.2055399999999998,1.11398,0.978574155,-0.112853715,0.08190897
1764435051.4014275,-3.49454,1.2055399999999998,1.11398,0.978574155,-0.112853715,0.08190897
1764435051.4014275,-3.49454,1.2055399999999998,1.11398,0.978574155,-0.112853715,0.08190897
1764435051.4014275,-3.49454,1.2055399999999998,1.11398,0.978574155,-0.112853715,0.08190897
1764435051.4024274,-3.49454,1.2055399999999998,1.11398,0.978574155,-0.112853715,0.08190897
1764435051.4024274,-3.49454,1.2055399999999998,1.11398,0.978574155,-0.112853715,0.08190897
1764435051.4024274,-3.49454,1.2055399999999998,1.11398,0.978574155,-0.112853715,0.08190897
1764435051.4024274,-3.49454,1.2055399999999998,1.11398,0.978574155,-0.112853715,0.08190897
1764435051.403427,-3.49454,1.2055399999999998,1.11398,0.978574155,-0.112853715,0.08190897
1764435051.4484048,-3.09778,1.3734,1.31236,0.97851312,-0.11315889,0.08251932
1764435051.4484048,-3.09778,1.3734,1.31236,0.97851312,-0.11315889,0.08251932
1764435051.4484048,-3.09778,1.3734,1.31236,0.97851312,-0.11315889,0.08251932
1764435051.4484048,-3.09778,1.3734,1.31236,0.97851312,-0.11315889,0.08251932
1764435051.4484048,-3.09778,1.3734,1.31236,0.97851312,-0.11315889,0.08251932
1764435051.4484048,-3.09778,1.3734,1.31236,0.97851312,-0.11315889,0.08251932
1764435051.4484048,-3.09778,1.3734,1.31236,0.97851312,-0.11315889,0.08251932
1764435051.4484048,-3.09778,1.3734,1.31236,0.97851312,-0.11315889,0.08251932
1764435051.4484048,-3.09778,1.3734,1.31236,0.97851312,-0.11315889,0.08251932
1764435051.4484048,-3.09778,1.3734,1.31236,0.97851312,-0.11315889,0.08251932
1764435051.4484048,-2.91466,1.54126,1.3734,0.97997796,-0.114196485,0.082458285
1764435051.4484048,-2.91466,1.54126,1.3734,0.97997796,-0.114196485,0.082458285
1764435051.4484048,-2.91466,1.54126,1.3734,0.97997796,-0.114196485,0.082458285
1764435051.4484048,-2.91466,1.54126,1.3734,0.97997796,-0.114196485,0.082458285
1764435051.4494054,-2.91466,1.54126,1.3734,0.97997796,-0.114196485,0.082458285
1764435051.4494054,-2.91466,1.54126,1.3734,0.97997796,-0.114196485,0.082458285
1764435051.4494054,-2.91466,1.54126,1.3734,0.97997796,-0.114196485,0.082458285
1764435051.4494054,-2.91466,1.54126,1.3734,0.97997796,-0.114196485,0.082458285
1764435051.4494054,-2.91466,1.54126,1.3734,0.97997796,-0.114196485,0.082458285
1764435051.4494054,-2.91466,1.54126,1.3734,0.97997796,-0.114196485,0.082458285
1764435051.4494054,-2.289,1.48022,1.7549,0.98132073,-0.11486787,0.082336215
1764435051.4494054,-2.289,1.48022,1.7549,0.98132073,-0.11486787,0.082336215
1764435051.4929032,-2.289,1.48022,1.7549,0.98132073,-0.11486787,0.082336215
1764435051.4929032,-2.289,1.48022,1.7549,0.98132073,-0.11486787,0.082336215
1764435051.4939206,-2.289,1.48022,1.7549,0.98132073,-0.11486787,0.082336215
1764435051.4947042,-2.289,1.48022,1.7549,0.98132073,-0.11486787,0.082336215
1764435051.4947042,-2.289,1.48022,1.7549,0.98132073,-0.11486787,0.082336215
1764435051.4947042,-2.289,1.48022,1.7549,0.98132073,-0.11486787,0.082336215
1764435051.4947042,-2.289,1.48022,1.7549,0.98132073,-0.11486787,0.082336215
1764435051.4947042,-2.289,1.48022,1.7549,0.98132073,-0.11486787,0.082336215
1764435051.4947042,-1.8312,1.64808,1.526,0.98046624,-0.114074415,0.082458285
1764435051.4957182,-1.8312,1.64808,1.526,0.98046624,-0.114074415,0.082458285
1764435051.4957182,-1.8312,1.64808,1.526,0.98046624,-0.114074415,0.082458285
1764435051.4957182,-1.8312,1.64808,1.526,0.98046624,-0.114074415,0.082458285
1764435051.4957182,-1.8312,1.64808,1.526,0.98046624,-0.114074415,0.082458285
1764435051.4957182,-1.8312,1.64808,1.526,0.98046624,-0.114074415,0.082458285
1764435051.4957182,-1.8312,1.64808,1.526,0.98046624,-0.114074415,0.082458285
1764435051.4957182,-1.8312,1.64808,1.526,0.98046624,-0.114074415,0.082458285
1764435051.4957182,-1.8312,1.64808,1.526,0.98046624,-0.114074415,0.082458285
1764435051.4957182,-1.8312,1.64808,1.526,0.98046624,-0.114074415,0.082458285
1764435051.4957182,-2.18218,1.78542,1.38866,0.98107659,-0.11486787,0.08239725
1764435051.4957182,-2.18218,1.78542,1.38866,0.98107659,-0.11486787,0.08239725
1764435051.4957182,-2.18218,1.78542,1.38866,0.98107659,-0.11486787,0.08239725
1764435051.4957182,-2.18218,1.78542,1.38866,0.98107659,-0.11486787,0.08239725
1764435051.5384123,-2.18218,1.78542,1.38866,0.98107659,-0.11486787,0.08239725
1764435051.5394294,-2.18218,1.78542,1.38866,0.98107659,-0.11486787,0.08239725
1764435051.5394294,-2.18218,1.78542,1.38866,0.98107659,-0.11486787,0.08239725
1764435051.5394294,-2.18218,1.78542,1.38866,0.98107659,-0.11486787,0.08239725
1764435051.5394294,-2.18218,1.78542,1.38866,0.98107659,-0.11486787,0.08239725
1764435051.5394294,-2.18218,1.78542,1.38866,0.98107659,-0.11486787,0.08239725
1764435051.5394294,-2.57894,1.95328,1.31236,0.980771415,-0.114806835,0.083068635
1764435051.5394294,-2.57894,1.95328,1.31236,0.980771415,-0.114806835,0.083068635
1764435051.5394294,-2.57894,1.95328,1.31236,0.980771415,-0.114806835,0.083068635
1764435051.5394294,-2.57894,1.95328,1.31236,0.980771415,-0.114806835,0.083068635
1764435051.5394294,-2.57894,1.95328,1.31236,0.980771415,-0.114806835,0.083068635
1764435051.5394294,-2.57894,1.95328,1.31236,0.980771415,-0.114806835,0.083068635
1764435051.5394294,-2.57894,1.95328,1.31236,0.980771415,-0.114806835,0.083068635
1764435051.5394294,-2.57894,1.95328,1.31236,0.980771415,-0.114806835,0.083068635
1764435051.539939,-2.57894,1.95328,1.31236,0.980771415,-0.114806835,0.083068635
1764435051.539939,-2.57894,1.95328,1.31236,0.980771415,-0.114806835,0.083068635
1764435051.539939,-3.14356,1.69386,1.526,0.98010003,-0.11450166,0.08251932
1764435051.539939,-3.14356,1.69386,1.526,0.98010003,-0.11450166,0.08251932
1764435051.539939,-3.14356,1.69386,1.526,0.98010003,-0.11450166,0.08251932
1764435051.539939,-3.14356,1.69386,1.526,0.98010003,-0.11450166,0.08251932
1764435051.539939,-3.14356,1.69386,1.526,0.98010003,-0.11450166,0.08251932
1764435051.539939,-3.14356,1.69386,1.526,0.98010003,-0.11450166,0.08251932
1764435051.539939,-3.14356,1.69386,1.526,0.98010003,-0.11450166,0.08251932
1764435051.539939,-3.14356,1.69386,1.526,0.98010003,-0.11450166,0.08251932
1764435051.583896,-3.14356,1.69386,1.526,0.98010003,-0.11450166,0.08251932
1764435051.583896,-3.14356,1.69386,1.526,0.98010003,-0.11450166,0.08251932
1764435051.5844376,-3.15882,1.61756,0.8087799999999999,0.98071038,-0.11486787,0.08325174
1764435051.5844376,-3.15882,1.61756,0.8087799999999999,0.98071038,-0.11486787,0.08325174
1764435051.5844376,-3.15882,1.61756,0.8087799999999999,0.98071038,-0.11486787,0.08325174
1764435051.5844376,-3.15882,1.61756,0.8087799999999999,0.98071038,-0.11486787,0.08325174
1764435051.5844376,-3.15882,1.61756,0.8087799999999999,0.98071038,-0.11486787,0.08325174
1764435051.5844376,-3.15882,1.61756,0.8087799999999999,0.98071038,-0.11486787,0.08325174
1764435051.5844376,-3.15882,1.61756,0.8087799999999999,0.98071038,-0.11486787,0.08325174
1764435051.5844376,-3.15882,1.61756,0.8087799999999999,0.98071038,-0.11486787,0.08325174
1764435051.5844376,-3.15882,1.61756,0.8087799999999999,0.98071038,-0.11486787,0.08325174
1764435051.5844376,-3.15882,1.61756,0.8087799999999999,0.98071038,-0.11486787,0.08325174
1764435051.5844376,-3.052,1.46496,0.88508,0.98071038,-0.114562695,0.083923125
1764435051.5844376,-3.052,1.46496,0.88508,0.98071038,-0.114562695,0.083923125
1764435051.5844376,-3.052,1.46496,0.88508,0.98071038,-0.114562695,0.083923125
1764435051.5844376,-3.052,1.46496,0.88508,0.98071038,-0.114562695,0.083923125
1764435051.584966,-3.052,1.46496,0.88508,0.98071038,-0.114562695,0.083923125
1764435051.584966,-3.052,1.46496,0.88508,0.98071038,-0.114562695,0.083923125
1764435051.584966,-3.052,1.46496,0.88508,0.98071038,-0.114562695,0.083923125
1764435051.584966,-3.052,1.46496,0.88508,0.98071038,-0.114562695,0.083923125
1764435051.584966,-3.052,1.46496,0.88508,0.98071038,-0.114562695,0.083923125
1764435051.584966,-3.052,1.46496,0.88508,0.98071038,-0.114562695,0.083923125
1764435051.5859778,-2.96044,2.2127,0.6867,0.98071038,-0.11498994,0.083801055
1764435051.5859778,-2.96044,2.2127,0.6867,0.98071038,-0.11498994,0.083801055
1764435051.6349454,-2.96044,2.2127,0.6867,0.98071038,-0.11498994,0.083801055
1764435051.6349454,-2.96044,2.2127,0.6867,0.98071038,-0.11498994,0.083801055
1764435051.6349454,-2.96044,2.2127,0.6867,0.98071038,-0.11498994,0.083801055
1764435051.6349454,-2.96044,2.2127,0.6867,0.98071038,-0.11498994,0.083801055
1764435051.6359434,-2.96044,2.2127,0.6867,0.98071038,-0.11498994,0.083801055
1764435051.6359434,-2.96044,2.2127,0.6867,0.98071038,-0.11498994,0.083801055
1764435051.6359434,-2.96044,2.2127,0.6867,0.98071038,-0.11498994,0.083801055
1764435051.6359434,-2.96044,2.2127,0.6867,0.98071038,-0.11498994,0.083801055
1764435051.6359434,-2.80784,2.3653,0.763,0.97973382,-0.11523408,0.084045195
1764435051.6359434,-2.80784,2.3653,0.763,0.97973382,-0.11523408,0.084045195
1764435051.6359434,-2.80784,2.3653,0.763,0.97973382,-0.11523408,0.084045195
1764435051.6359434,-2.80784,2.3653,0.763,0.97973382,-0.11523408,0.084045195
1764435051.6359434,-2.80784,2.3653,0.763,0.97973382,-0.11523408,0.084045195
1764435051.6359434,-2.80784,2.3653,0.763,0.97973382,-0.11523408,0.084045195
1764435051.6359434,-2.80784,2.3653,0.763,0.97973382,-0.11523408,0.084045195
1764435051.6359434,-2.80784,2.3653,0.763,0.97973382,-0.11523408,0.084045195
1764435051.6359434,-2.80784,2.3653,0.763,0.97973382,-0.11523408,0.084045195
1764435051.6359434,-2.80784,2.3653,0.763,0.97973382,-0.11523408,0.084045195
1764435051.6359434,-2.91466,1.96854,1.03768,0.978574155,-0.11511201,0.08520486
1764435051.6359434,-2.91466,1.96854,1.03768,0.978574155,-0.11511201,0.08520486
1764435051.6359434,-2.91466,1.96854,1.03768,0.978574155,-0.11511201,0.08520486
1764435051.6359434,-2.91466,1.96854,1.03768,0.978574155,-0.11511201,0.08520486
1764435051.6359434,-2.91466,1.96854,1.03768,0.978574155,-0.11511201,0.08520486
1764435051.6359434,-2.91466,1.96854,1.03768,0.978574155,-0.11511201,0.08520486
1764435051.679422,-2.91466,1.96854,1.03768,0.978574155,-0.11511201,0.08520486
1764435051.679422,-2.91466,1.96854,1.03768,0.978574155,-0.11511201,0.08520486
1764435051.679422,-2.91466,1.96854,1.03768,0.978574155,-0.11511201,0.08520486
1764435051.679422,-2.91466,1.96854,1.03768,0.978574155,-0.11511201,0.08520486
1764435051.679422,-2.73154,2.01432,0.18312,0.97851312,-0.11462373,0.08508279
1764435051.679422,-2.73154,2.01432,0.18312,0.97851312,-0.11462373,0.08508279
1764435051.6804345,-2.73154,2.01432,0.18312,0.97851312,-0.11462373,0.08508279
1764435051.6804345,-2.73154,2.01432,0.18312,0.97851312,-0.11462373,0.08508279
1764435051.6804345,-2.73154,2.01432,0.18312,0.97851312,-0.11462373,0.08508279
1764435051.6804345,-2.73154,2.01432,0.18312,0.97851312,-0.11462373,0.08508279
1764435051.6804345,-2.73154,2.01432,0.18312,0.97851312,-0.11462373,0.08508279
1764435051.6804345,-2.73154,2.01432,0.18312,0.97851312,-0.11462373,0.08508279
1764435051.6804345,-2.73154,2.01432,0.18312,0.97851312,-0.11462373,0.08508279
1764435051.6804345,-2.73154,2.01432,0.18312,0.97851312,-0.11462373,0.08508279
1764435051.6804345,-2.85362,1.9075,0.09156,0.97839105,-0.114440625,0.085387965
1764435051.6804345,-2.85362,1.9075,0.09156,0.97839105,-0.114440625,0.085387965
1764435051.6804345,-2.85362,1.9075,0.09156,0.97839105,-0.114440625,0.085387965
1764435051.6804345,-2.85362,1.9075,0.09156,0.97839105,-0.114440625,0.085387965
1764435051.6804345,-2.85362,1.9075,0.09156,0.97839105,-0.114440625,0.085387965
1764435051.6804345,-2.85362,1.9075,0.09156,0.97839105,-0.114440625,0.085387965
1764435051.6809409,-2.85362,1.9075,0.09156,0.97839105,-0.114440625,0.085387965
1764435051.6809409,-2.85362,1.9075,0.09156,0.97839105,-0.114440625,0.085387965
1764435051.7238147,-2.85362,1.9075,0.09156,0.97839105,-0.114440625,0.085387965
1764435051.7238147,-2.85362,1.9075,0.09156,0.97839105,-0.114440625,0.085387965
1764435051.7238147,-2.88414,2.18218,0.51884,0.979306575,-0.1147458,0.08508279
1764435051.7238147,-2.88414,2.18218,0.51884,0.979306575,-0.1147458,0.08508279
1764435051.7238147,-2.88414,2.18218,0.51884,0.979306575,-0.1147458,0.08508279
1764435051.7238147,-2.88414,2.18218,0.51884,0.979306575,-0.1147458,0.08508279
1764435051.7238147,-2.88414,2.18218,0.51884,0.979306575,-0.1147458,0.08508279
1764435051.7238147,-2.88414,2.18218,0.51884,0.979306575,-0.1147458,0.08508279
1764435051.7238147,-2.88414,2.18218,0.51884,0.979306575,-0.1147458,0.08508279
1764435051.7238147,-2.88414,2.18218,0.51884,0.979306575,-0.1147458,0.08508279
1764435051.7238147,-2.88414,2.18218,0.51884,0.979306575,-0.1147458,0.08508279
1764435051.7238147,-2.88414,2.18218,0.51884,0.979306575,-0.1147458,0.08508279
1764435051.7238147,-2.83836,1.81594,0.0,0.97985589,-0.113952345,0.085021755
1764435051.7238147,-2.83836,1.81594,0.0,0.97985589,-0.113952345,0.085021755
1764435051.7238147,-2.83836,1.81594,0.0,0.97985589,-0.113952345,0.085021755
1764435051.7238147,-2.83836,1.81594,0.0,0.97985589,-0.113952345,0.085021755
1764435051.7238147,-2.83836,1.81594,0.0,0.97985589,-0.113952345,0.085021755
1764435051.7238147,-2.83836,1.81594,0.0,0.97985589,-0.113952345,0.085021755
1764435051.7238147,-2.83836,1.81594,0.0,0.97985589,-0.113952345,0.085021755
1764435051.7238147,-2.83836,1.81594,0.0,0.97985589,-0.113952345,0.085021755
1764435051.7238147,-2.83836,1.81594,0.0,0.97985589,-0.113952345,0.085021755
1764435051.7238147,-2.83836,1.81594,0.0,0.97985589,-0.113952345,0.085021755
1764435051.771176,-3.08252,1.19028,0.1678599999999999,0.980038995,-0.11340303,0.08520486
1764435051.771176,-3.08252,1.19028,0.1678599999999999,0.980038995,-0.11340303,0.08520486
1764435051.771176,-3.08252,1.19028,0.1678599999999999,0.980038995,-0.11340303,0.08520486
1764435051.771176,-3.08252,1.19028,0.1678599999999999,0.980038995,-0.11340303,0.08520486
1764435051.771176,-3.08252,1.19028,0.1678599999999999,0.980038995,-0.11340303,0.08520486
1764435051.771176,-3.08252,1.19028,0.1678599999999999,0.980038995,-0.11340303,0.08520486
1764435051.771176,-3.08252,1.19028,0.1678599999999999,0.980038995,-0.11340303,0.08520486
1764435051.771176,-3.08252,1.19028,0.1678599999999999,0.980038995,-0.11340303,0.08520486
1764435051.771176,-3.08252,1.19028,0.1678599999999999,0.980038995,-0.11340303,0.08520486
1764435051.771176,-3.08252,1.19028,0.1678599999999999,0.980038995,-0.11340303,0.08520486
1764435051.771176,-3.26564,1.38866,-0.03052,0.979916925,-0.112731645,0.085510035
1764435051.771176,-3.26564,1.38866,-0.03052,0.979916925,-0.112731645,0.085510035
1764435051.771176,-3.26564,1.38866,-0.03052,0.979916925,-0.112731645,0.085510035
1764435051.771176,-3.26564,1.38866,-0.03052,0.979916925,-0.112731645,0.085510035
1764435051.7721949,-3.26564,1.38866,-0.03052,0.979916925,-0.112731645,0.085510035
1764435051.7721949,-3.26564,1.38866,-0.03052,0.979916925,-0.112731645,0.085510035
1764435051.7721949,-3.26564,1.38866,-0.03052,0.979916925,-0.112731645,0.085510035
1764435051.7721949,-3.26564,1.38866,-0.03052,0.979916925,-0.112731645,0.085510035
1764435051.7721949,-3.26564,1.38866,-0.03052,0.979916925,-0.112731645,0.085510035
1764435051.7721949,-3.26564,1.38866,-0.03052,0.979916925,-0.112731645,0.085510035
1764435051.7721949,-3.18934,1.35814,-0.0762999999999999,0.97997796,-0.11303682,0.08605935
1764435051.7721949,-3.18934,1.35814,-0.0762999999999999,0.97997796,-0.11303682,0.08605935
1764435051.7721949,-3.18934,1.35814,-0.0762999999999999,0.97997796,-0.11303682,0.08605935
1764435051.7721949,-3.18934,1.35814,-0.0762999999999999,0.97997796,-0.11303682,0.08605935
1764435051.8163588,-3.18934,1.35814,-0.0762999999999999,0.97997796,-0.11303682,0.08605935
1764435051.8163588,-3.18934,1.35814,-0.0762999999999999,0.97997796,-0.11303682,0.08605935
1764435051.8163588,-3.18934,1.35814,-0.0762999999999999,0.97997796,-0.11303682,0.08605935
1764435051.8163588,-3.18934,1.35814,-0.0762999999999999,0.97997796,-0.11303682,0.08605935
1764435051.8163588,-3.18934,1.35814,-0.0762999999999999,0.97997796,-0.11303682,0.08605935
1764435051.8163588,-3.18934,1.35814,-0.0762999999999999,0.97997796,-0.11303682,0.08605935
1764435051.8163588,-3.72344,1.0682,0.1525999999999999,0.97936761,-0.11181612,0.085510035
1764435051.8163588,-3.72344,1.0682,0.1525999999999999,0.97936761,-0.11181612,0.085510035
1764435051.8173666,-3.72344,1.0682,0.1525999999999999,0.97936761,-0.11181612,0.085510035
1764435051.8173666,-3.72344,1.0682,0.1525999999999999,0.97936761,-0.11181612,0.085510035
