Timestamp,GyroX,GyroY,GyroZ,AccX,AccY,AccZ
1764434970.9638758,-6.80596,1.9838,0.50358,-0.680357145,0.71801574,0.012207
1764434970.9638758,-6.80596,1.9838,0.50358,-0.680357145,0.71801574,0.012207
1764434970.9638758,-6.24134,0.9003399999999999,0.50358,-0.68102853,0.71825988,0.01232907
1764434970.9638758,-6.24134,0.9003399999999999,0.50358,-0.68102853,0.71825988,0.01232907
1764434970.9638758,-6.24134,0.9003399999999999,0.50358,-0.68102853,0.71825988,0.01232907
1764434970.9638758,-6.24134,0.9003399999999999,0.50358,-0.68102853,0.71825988,0.01232907
1764434970.9638758,-6.24134,0.9003399999999999,0.50358,-0.68102853,0.71825988,0.01232907
1764434970.9638758,-6.24134,0.9003399999999999,0.50358,-0.68102853,0.71825988,0.01232907
1764434970.9638758,-6.24134,0.9003399999999999,0.50358,-0.68102853,0.71825988,0.01232907
1764434970.9638758,-6.24134,0.9003399999999999,0.50358,-0.68102853,0.71825988,0.01232907
1764434970.9638758,-6.24134,0.9003399999999999,0.50358,-0.68102853,0.71825988,0.01232907
1764434970.9638758,-6.24134,0.9003399999999999,0.50358,-0.68102853,0.71825988,0.01232907
1764434970.9638758,-5.1121,1.17502,0.28994,-0.679502655,0.71764953,0.0134277
1764434970.9638758,-5.1121,1.17502,0.28994,-0.679502655,0.71764953,0.0134277
1764434970.9638758,-5.1121,1.17502,0.28994,-0.679502655,0.71764953,0.0134277
1764434970.9638758,-5.1121,1.17502,0.28994,-0.679502655,0.71764953,0.0134277
1764434970.9638758,-5.1121,1.17502,0.28994,-0.679502655,0.71764953,0.0134277
1764434970.9638758,-5.1121,1.17502,0.28994,-0.679502655,0.71764953,0.0134277
1764434970.9638758,-5.1121,1.17502,0.28994,-0.679502655,0.71764953,0.0134277
1764434970.9638758,-5.1121,1.17502,0.28994,-0.679502655,0.71764953,0.0134277
1764434970.9648736,-5.1121,1.17502,0.28994,-0.679502655,0.71764953,0.0134277
1764434970.9648736,-5.1121,1.17502,0.28994,-0.679502655,0.71764953,0.0134277
1764434970.9648736,-4.74586,1.92276,0.47306,-0.678281955,0.7172833200000001,0.01318356
1764434970.9648736,-4.74586,1.92276,0.47306,-0.678281955,0.7172833200000001,0.01318356
1764434971.0088167,-4.74586,1.92276,0.47306,-0.678281955,0.7172833200000001,0.01318356
1764434971.0093358,-4.74586,1.92276,0.47306,-0.678281955,0.7172833200000001,0.01318356
1764434971.0093358,-4.74586,1.92276,0.47306,-0.678281955,0.7172833200000001,0.01318356
1764434971.0093358,-4.74586,1.92276,0.47306,-0.678281955,0.7172833200000001,0.01318356
1764434971.0093358,-4.74586,1.92276,0.47306,-0.678281955,0.7172833200000001,0.01318356
1764434971.0093358,-4.74586,1.92276,0.47306,-0.678281955,0.7172833200000001,0.01318356
1764434971.0093358,-4.74586,1.92276,0.47306,-0.678281955,0.7172833200000001,0.01318356
1764434971.0093358,-4.74586,1.92276,0.47306,-0.678281955,0.7172833200000001,0.01318356
1764434971.0093358,-5.2647,1.08346,0.7019599999999999,-0.67980783,0.718687125,0.012878385
1764434971.0093358,-5.2647,1.08346,0.7019599999999999,-0.67980783,0.718687125,0.012878385
1764434971.0093358,-5.2647,1.08346,0.7019599999999999,-0.67980783,0.718687125,0.012878385
1764434971.0093358,-5.2647,1.08346,0.7019599999999999,-0.67980783,0.718687125,0.012878385
1764434971.0093358,-5.2647,1.08346,0.7019599999999999,-0.67980783,0.718687125,0.012878385
1764434971.0093358,-5.2647,1.08346,0.7019599999999999,-0.67980783,0.718687125,0.012878385
1764434971.0093358,-5.2647,1.08346,0.7019599999999999,-0.67980783,0.718687125,0.012878385
1764434971.0093358,-5.2647,1.08346,0.7019599999999999,-0.67980783,0.718687125,0.012878385
1764434971.0093358,-5.2647,1.08346,0.7019599999999999,-0.67980783,0.718687125,0.012878385
1764434971.0093358,-5.2647,1.08346,0.7019599999999999,-0.67980783,0.718687125,0.012878385
1764434971.0093358,-5.90562,0.62566,0.18312,-0.680479215,0.719663685,0.01306149
1764434971.010336,-5.90562,0.62566,0.18312,-0.680479215,0.719663685,0.01306149
1764434971.010336,-5.90562,0.62566,0.18312,-0.680479215,0.719663685,0.01306149
1764434971.010336,-5.90562,0.62566,0.18312,-0.680479215,0.719663685,0.01306149
1764434971.0552576,-5.90562,0.62566,0.18312,-0.680479215,0.719663685,0.01306149
1764434971.0552576,-5.90562,0.62566,0.18312,-0.680479215,0.719663685,0.01306149
1764434971.0552576,-5.90562,0.62566,0.18312,-0.680479215,0.719663685,0.01306149
1764434971.0552576,-5.90562,0.62566,0.18312,-0.680479215,0.719663685,0.01306149
1764434971.0552576,-5.90562,0.62566,0.18312,-0.680479215,0.719663685,0.01306149
1764434971.0552576,-5.90562,0.62566,0.18312,-0.680479215,0.719663685,0.01306149
1764434971.0552576,-6.31764,1.51074,0.04578,-0.67907541,0.71960265,0.01416012
1764434971.0552576,-6.31764,1.51074,0.04578,-0.67907541,0.71960265,0.01416012
1764434971.0552576,-6.31764,1.51074,0.04578,-0.67907541,0.71960265,0.01416012
1764434971.0552576,-6.31764,1.51074,0.04578,-0.67907541,0.71960265,0.01416012
1764434971.0552576,-6.31764,1.51074,0.04578,-0.67907541,0.71960265,0.01416012
1764434971.0552576,-6.31764,1.51074,0.04578,-0.67907541,0.71960265,0.01416012
1764434971.0552576,-6.31764,1.51074,0.04578,-0.67907541,0.71960265,0.01416012
1764434971.0552576,-6.31764,1.51074,0.04578,-0.67907541,0.71960265,0.01416012
1764434971.0552576,-6.31764,1.51074,0.04578,-0.67907541,0.71960265,0.01416012
1764434971.0552576,-6.31764,1.51074,0.04578,-0.67907541,0.71960265,0.01416012
1764434971.0552576,-6.43972,2.15166,0.3357199999999999,-0.677915745,0.71911437,0.013977015
1764434971.0552576,-6.43972,2.15166,0.3357199999999999,-0.677915745,0.71911437,0.013977015
1764434971.0552576,-6.43972,2.15166,0.3357199999999999,-0.677915745,0.71911437,0.013977015
1764434971.0552576,-6.43972,2.15166,0.3357199999999999,-0.677915745,0.71911437,0.013977015
1764434971.0552576,-6.43972,2.15166,0.3357199999999999,-0.677915745,0.71911437,0.013977015
1764434971.0552576,-6.43972,2.15166,0.3357199999999999,-0.677915745,0.71911437,0.013977015
1764434971.0995338,-6.43972,2.15166,0.3357199999999999,-0.677915745,0.71911437,0.013977015
1764434971.0995338,-6.43972,2.15166,0.3357199999999999,-0.677915745,0.71911437,0.013977015
1764434971.0995338,-6.43972,2.15166,0.3357199999999999,-0.677915745,0.71911437,0.013977015
1764434971.0995338,-6.43972,2.15166,0.3357199999999999,-0.677915745,0.71911437,0.013977015
1764434971.0995338,-5.96666,1.89224,0.77826,-0.67822092,0.71752746,0.01367184
1764434971.0995338,-5.96666,1.89224,0.77826,-0.67822092,0.71752746,0.01367184
1764434971.0995338,-5.96666,1.89224,0.77826,-0.67822092,0.71752746,0.01367184
1764434971.0995338,-5.96666,1.89224,0.77826,-0.67822092,0.71752746,0.01367184
1764434971.0995338,-5.96666,1.89224,0.77826,-0.67822092,0.71752746,0.01367184
1764434971.0995338,-5.96666,1.89224,0.77826,-0.67822092,0.71752746,0.01367184
1764434971.0995338,-5.96666,1.89224,0.77826,-0.67822092,0.71752746,0.01367184
1764434971.0995338,-5.96666,1.89224,0.77826,-0.67822092,0.71752746,0.01367184
1764434971.0995338,-5.96666,1.89224,0.77826,-0.67822092,0.71752746,0.01367184
1764434971.0995338,-5.96666,1.89224,0.77826,-0.67822092,0.71752746,0.01367184
1764434971.0995338,-5.44782,1.25132,0.94612,-0.6784650600000001,0.716123655,0.013488735
1764434971.0995338,-5.44782,1.25132,0.94612,-0.6784650600000001,0.716123655,0.013488735
1764434971.0995338,-5.44782,1.25132,0.94612,-0.6784650600000001,0.716123655,0.013488735
1764434971.0995338,-5.44782,1.25132,0.94612,-0.6784650600000001,0.716123655,0.013488735
1764434971.1005492,-5.44782,1.25132,0.94612,-0.6784650600000001,0.716123655,0.013488735
1764434971.1005492,-5.44782,1.25132,0.94612,-0.6784650600000001,0.716123655,0.013488735
1764434971.1005492,-5.44782,1.25132,0.94612,-0.6784650600000001,0.716123655,0.013488735
1764434971.1005492,-5.44782,1.25132,0.94612,-0.6784650600000001,0.716123655,0.013488735
1764434971.1005492,-5.44782,1.25132,0.94612,-0.6784650600000001,0.716123655,0.013488735
1764434971.1005492,-5.44782,1.25132,0.94612,-0.6784650600000001,0.716123655,0.013488735
1764434971.1451323,-5.00528,0.97664,0.9919,-0.67883127,0.7151470950000001,0.013122525
1764434971.1451323,-5.00528,0.97664,0.9919,-0.67883127,0.7151470950000001,0.013122525
1764434971.1451323,-5.00528,0.97664,0.9919,-0.67883127,0.7151470950000001,0.013122525
1764434971.1451323,-5.00528,0.97664,0.9919,-0.67883127,0.7151470950000001,0.013122525
1764434971.1451323,-5.00528,0.97664,0.9919,-0.67883127,0.7151470950000001,0.013122525
1764434971.1451323,-5.00528,0.97664,0.9919,-0.67883127,0.7151470950000001,0.013122525
1764434971.1451323,-5.00528,0.97664,0.9919,-0.67883127,0.7151470950000001,0.013122525
1764434971.1451323,-5.00528,0.97664,0.9919,-0.67883127,0.7151470950000001,0.013122525
1764434971.1451323,-5.00528,0.97664,0.9919,-0.67883127,0.7151470950000001,0.013122525
1764434971.1451323,-5.00528,0.97664,0.9919,-0.67883127,0.7151470950000001,0.013122525
1764434971.1451323,-3.64714,0.51884,1.54126,-0.680235075,0.71471985,0.014221155
1764434971.1451323,-3.64714,0.51884,1.54126,-0.680235075,0.71471985,0.014221155
1764434971.1451323,-3.64714,0.51884,1.54126,-0.680235075,0.71471985,0.014221155
1764434971.1451323,-3.64714,0.51884,1.54126,-0.680235075,0.71471985,0.014221155
1764434971.1451323,-3.64714,0.51884,1.54126,-0.680235075,0.71471985,0.014221155
1764434971.1451323,-3.64714,0.51884,1.54126,-0.680235075,0.71471985,0.014221155
1764434971.148663,-3.64714,0.51884,1.54126,-0.680235075,0.71471985,0.014221155
1764434971.148663,-3.64714,0.51884,1.54126,-0.680235075,0.71471985,0.014221155
1764434971.148663,-3.64714,0.51884,1.54126,-0.680235075,0.71471985,0.014221155
1764434971.148663,-3.64714,0.51884,1.54126,-0.680235075,0.71471985,0.014221155
1764434971.148663,-4.07442,0.1678599999999999,1.55652,-0.6800519700000001,0.71520813,0.01513668
1764434971.148663,-4.07442,0.1678599999999999,1.55652,-0.6800519700000001,0.71520813,0.01513668
1764434971.148663,-4.07442,0.1678599999999999,1.55652,-0.6800519700000001,0.71520813,0.01513668
1764434971.148663,-4.07442,0.1678599999999999,1.55652,-0.6800519700000001,0.71520813,0.01513668
1764434971.1923454,-4.07442,0.1678599999999999,1.55652,-0.6800519700000001,0.71520813,0.01513668
1764434971.1923454,-4.07442,0.1678599999999999,1.55652,-0.6800519700000001,0.71520813,0.01513668
1764434971.1923454,-4.07442,0.1678599999999999,1.55652,-0.6800519700000001,0.71520813,0.01513668
1764434971.1923454,-4.07442,0.1678599999999999,1.55652,-0.6800519700000001,0.71520813,0.01513668
1764434971.1923454,-4.07442,0.1678599999999999,1.55652,-0.6800519700000001,0.71520813,0.01513668
1764434971.1923454,-4.07442,0.1678599999999999,1.55652,-0.6800519700000001,0.71520813,0.01513668
1764434971.1923454,-3.93708,0.71722,1.8312,-0.67956369,0.7165509,0.015319785
1764434971.1923454,-3.93708,0.71722,1.8312,-0.67956369,0.7165509,0.015319785
1764434971.1923454,-3.93708,0.71722,1.8312,-0.67956369,0.7165509,0.015319785
1764434971.1923454,-3.93708,0.71722,1.8312,-0.67956369,0.7165509,0.015319785
1764434971.1923454,-3.93708,0.71722,1.8312,-0.67956369,0.7165509,0.015319785
1764434971.1923454,-3.93708,0.71722,1.8312,-0.67956369,0.7165509,0.015319785
1764434971.1923454,-3.93708,0.71722,1.8312,-0.67956369,0.7165509,0.015319785
1764434971.1923454,-3.93708,0.71722,1.8312,-0.67956369,0.7165509,0.015319785
1764434971.1923454,-3.93708,0.71722,1.8312,-0.67956369,0.7165509,0.015319785
1764434971.1923454,-3.93708,0.71722,1.8312,-0.67956369,0.7165509,0.015319785
1764434971.1923454,-3.9676,1.1445,1.25132,-0.67980783,0.7177716000000001,0.014831505
1764434971.1923454,-3.9676,1.1445,1.25132,-0.67980783,0.7177716000000001,0.014831505
1764434971.1923454,-3.9676,1.1445,1.25132,-0.67980783,0.7177716000000001,0.014831505
1764434971.1923454,-3.9676,1.1445,1.25132,-0.67980783,0.7177716000000001,0.014831505
1764434971.1923454,-3.9676,1.1445,1.25132,-0.67980783,0.7177716000000001,0.014831505
1764434971.1923454,-3.9676,1.1445,1.25132,-0.67980783,0.7177716000000001,0.014831505
1764434971.1923454,-3.9676,1.1445,1.25132,-0.67980783,0.7177716000000001,0.014831505
1764434971.1923454,-3.9676,1.1445,1.25132,-0.67980783,0.7177716000000001,0.014831505
1764434971.2415106,-3.9676,1.1445,1.25132,-0.67980783,0.7177716000000001,0.014831505
1764434971.2415106,-3.9676,1.1445,1.25132,-0.67980783,0.7177716000000001,0.014831505
1764434971.2415106,-3.95234,1.1445,0.85456,-0.6790143750000001,0.719541615,0.015197715
1764434971.2415106,-3.95234,1.1445,0.85456,-0.6790143750000001,0.719541615,0.015197715
1764434971.2415106,-3.95234,1.1445,0.85456,-0.6790143750000001,0.719541615,0.015197715
1764434971.2415106,-3.95234,1.1445,0.85456,-0.6790143750000001,0.719541615,0.015197715
1764434971.2415106,-3.95234,1.1445,0.85456,-0.6790143750000001,0.719541615,0.015197715
1764434971.2415106,-3.95234,1.1445,0.85456,-0.6790143750000001,0.719541615,0.015197715
1764434971.2415106,-3.95234,1.1445,0.85456,-0.6790143750000001,0.719541615,0.015197715
1764434971.2415106,-3.95234,1.1445,0.85456,-0.6790143750000001,0.719541615,0.015197715
1764434971.2415106,-3.95234,1.1445,0.85456,-0.6790143750000001,0.719541615,0.015197715
1764434971.2415106,-3.95234,1.1445,0.85456,-0.6790143750000001,0.719541615,0.015197715
1764434971.2415106,-4.89846,1.15976,0.96138,-0.678159885,0.72070128,0.01562496
1764434971.2415106,-4.89846,1.15976,0.96138,-0.678159885,0.72070128,0.01562496
1764434971.2415106,-4.89846,1.15976,0.96138,-0.678159885,0.72070128,0.01562496
1764434971.2415106,-4.89846,1.15976,0.96138,-0.678159885,0.72070128,0.01562496
1764434971.2415106,-4.89846,1.15976,0.96138,-0.678159885,0.72070128,0.01562496
1764434971.2415106,-4.89846,1.15976,0.96138,-0.678159885,0.72070128,0.01562496
1764434971.2415106,-4.89846,1.15976,0.96138,-0.678159885,0.72070128,0.01562496
1764434971.2415106,-4.89846,1.15976,0.96138,-0.678159885,0.72070128,0.01562496
1764434971.2415106,-4.89846,1.15976,0.96138,-0.678159885,0.72070128,0.01562496
1764434971.2415106,-4.89846,1.15976,0.96138,-0.678159885,0.72070128,0.01562496
1764434971.285721,-5.55464,1.526,0.8698199999999999,-0.67736643,0.72057921,0.015685995
1764434971.285721,-5.55464,1.526,0.8698199999999999,-0.67736643,0.72057921,0.015685995
1764434971.285721,-5.55464,1.526,0.8698199999999999,-0.67736643,0.72057921,0.015685995
1764434971.285721,-5.55464,1.526,0.8698199999999999,-0.67736643,0.72057921,0.015685995
1764434971.285721,-5.55464,1.526,0.8698199999999999,-0.67736643,0.72057921,0.015685995
1764434971.285721,-5.55464,1.526,0.8698199999999999,-0.67736643,0.72057921,0.015685995
1764434971.285721,-5.55464,1.526,0.8698199999999999,-0.67736643,0.72057921,0.015685995
1764434971.285721,-5.55464,1.526,0.8698199999999999,-0.67736643,0.72057921,0.015685995
1764434971.285721,-5.55464,1.526,0.8698199999999999,-0.67736643,0.72057921,0.015685995
1764434971.285721,-5.55464,1.526,0.8698199999999999,-0.67736643,0.72057921,0.015685995
1764434971.285721,-5.5699,1.87698,0.73248,-0.6779767800000001,0.719053335,0.015930135
1764434971.285721,-5.5699,1.87698,0.73248,-0.6779767800000001,0.719053335,0.015930135
1764434971.2862515,-5.5699,1.87698,0.73248,-0.6779767800000001,0.719053335,0.015930135
1764434971.2862515,-5.5699,1.87698,0.73248,-0.6779767800000001,0.719053335,0.015930135
1764434971.2862515,-5.5699,1.87698,0.73248,-0.6779767800000001,0.719053335,0.015930135
1764434971.2862515,-5.5699,1.87698,0.73248,-0.6779767800000001,0.719053335,0.015930135
1764434971.2862515,-5.5699,1.87698,0.73248,-0.6779767800000001,0.719053335,0.015930135
1764434971.2862515,-5.5699,1.87698,0.73248,-0.6779767800000001,0.719053335,0.015930135
1764434971.2867787,-5.5699,1.87698,0.73248,-0.6779767800000001,0.719053335,0.015930135
1764434971.2867787,-5.5699,1.87698,0.73248,-0.6779767800000001,0.719053335,0.015930135
1764434971.2867787,-5.08158,2.42634,1.00716,-0.678648165,0.71825988,0.0158691
1764434971.2867787,-5.08158,2.42634,1.00716,-0.678648165,0.71825988,0.0158691
1764434971.2867787,-5.08158,2.42634,1.00716,-0.678648165,0.71825988,0.0158691
1764434971.2867787,-5.08158,2.42634,1.00716,-0.678648165,0.71825988,0.0158691
1764434971.3321972,-5.08158,2.42634,1.00716,-0.678648165,0.71825988,0.0158691
1764434971.3321972,-5.08158,2.42634,1.00716,-0.678648165,0.71825988,0.0158691
1764434971.3321972,-5.08158,2.42634,1.00716,-0.678648165,0.71825988,0.0158691
1764434971.3321972,-5.08158,2.42634,1.00716,-0.678648165,0.71825988,0.0158691
1764434971.3321972,-5.08158,2.42634,1.00716,-0.678648165,0.71825988,0.0158691
1764434971.3321972,-5.08158,2.42634,1.00716,-0.678648165,0.71825988,0.0158691
1764434971.3321972,-4.94424,1.4039199999999998,-0.10682,-0.678281955,0.718198845,0.01672359
1764434971.3321972,-4.94424,1.4039199999999998,-0.10682,-0.678281955,0.718198845,0.01672359
1764434971.3321972,-4.94424,1.4039199999999998,-0.10682,-0.678281955,0.718198845,0.01672359
1764434971.3321972,-4.94424,1.4039199999999998,-0.10682,-0.678281955,0.718198845,0.01672359
1764434971.3321972,-4.94424,1.4039199999999998,-0.10682,-0.678281955,0.718198845,0.01672359
1764434971.3321972,-4.94424,1.4039199999999998,-0.10682,-0.678281955,0.718198845,0.01672359
1764434971.3321972,-4.94424,1.4039199999999998,-0.10682,-0.678281955,0.718198845,0.01672359
1764434971.3321972,-4.94424,1.4039199999999998,-0.10682,-0.678281955,0.718198845,0.01672359
1764434971.3321972,-4.94424,1.4039199999999998,-0.10682,-0.678281955,0.718198845,0.01672359
1764434971.3321972,-4.94424,1.4039199999999998,-0.10682,-0.678281955,0.718198845,0.01672359
1764434971.3321972,-4.56274,1.84646,0.3051999999999999,-0.6774885,0.717954705,0.016540485
1764434971.3321972,-4.56274,1.84646,0.3051999999999999,-0.6774885,0.717954705,0.016540485
1764434971.334226,-4.56274,1.84646,0.3051999999999999,-0.6774885,0.717954705,0.016540485
1764434971.334226,-4.56274,1.84646,0.3051999999999999,-0.6774885,0.717954705,0.016540485
1764434971.334226,-4.56274,1.84646,0.3051999999999999,-0.6774885,0.717954705,0.016540485
1764434971.3352163,-4.56274,1.84646,0.3051999999999999,-0.6774885,0.717954705,0.016540485
1764434971.3352163,-4.56274,1.84646,0.3051999999999999,-0.6774885,0.717954705,0.016540485
1764434971.3352163,-4.56274,1.84646,0.3051999999999999,-0.6774885,0.717954705,0.016540485
1764434971.3803625,-4.56274,1.84646,0.3051999999999999,-0.6774885,0.717954705,0.016540485
1764434971.3803625,-4.56274,1.84646,0.3051999999999999,-0.6774885,0.717954705,0.016540485
1764434971.3803625,-4.59326,2.15166,0.5341,-0.676450905,0.71764953,0.0158691
1764434971.3803625,-4.59326,2.15166,0.5341,-0.676450905,0.71764953,0.0158691
1764434971.3803625,-4.59326,2.15166,0.5341,-0.676450905,0.71764953,0.0158691
1764434971.3803625,-4.59326,2.15166,0.5341,-0.676450905,0.71764953,0.0158691
1764434971.3803625,-4.59326,2.15166,0.5341,-0.676450905,0.71764953,0.0158691
1764434971.3803625,-4.59326,2.15166,0.5341,-0.676450905,0.71764953,0.0158691
1764434971.3803625,-4.59326,2.15166,0.5341,-0.676450905,0.71764953,0.0158691
1764434971.3803625,-4.59326,2.15166,0.5341,-0.676450905,0.71764953,0.0158691
1764434971.3803625,-4.59326,2.15166,0.5341,-0.676450905,0.71764953,0.0158691
1764434971.3803625,-4.59326,2.15166,0.5341,-0.676450905,0.71764953,0.0158691
1764434971.3803625,-4.41014,5.646199999999999,0.0762999999999999,-0.675596415,0.71581848,0.012756315
1764434971.3803625,-4.41014,5.646199999999999,0.0762999999999999,-0.675596415,0.71581848,0.012756315
1764434971.3813832,-4.41014,5.646199999999999,0.0762999999999999,-0.675596415,0.71581848,0.012756315
1764434971.3813832,-4.41014,5.646199999999999,0.0762999999999999,-0.675596415,0.71581848,0.012756315
1764434971.3813832,-4.41014,5.646199999999999,0.0762999999999999,-0.675596415,0.71581848,0.012756315
1764434971.3813832,-4.41014,5.646199999999999,0.0762999999999999,-0.675596415,0.71581848,0.012756315
1764434971.3813832,-4.41014,5.646199999999999,0.0762999999999999,-0.675596415,0.71581848,0.012756315
1764434971.3813832,-4.41014,5.646199999999999,0.0762999999999999,-0.675596415,0.71581848,0.012756315
1764434971.3813832,-4.41014,5.646199999999999,0.0762999999999999,-0.675596415,0.71581848,0.012756315
1764434971.3813832,-4.41014,5.646199999999999,0.0762999999999999,-0.675596415,0.71581848,0.012756315
1764434971.4244835,-3.11304,5.66146,-2.35004,-0.67968576,0.712949835,0.01037595
1764434971.4244835,-3.11304,5.66146,-2.35004,-0.67968576,0.712949835,0.01037595
1764434971.4244835,-3.11304,5.66146,-2.35004,-0.67968576,0.712949835,0.01037595
1764434971.4244835,-3.11304,5.66146,-2.35004,-0.67968576,0.712949835,0.01037595
1764434971.425019,-3.11304,5.66146,-2.35004,-0.67968576,0.712949835,0.01037595
1764434971.425019,-3.11304,5.66146,-2.35004,-0.67968576,0.712949835,0.01037595
1764434971.425019,-3.11304,5.66146,-2.35004,-0.67968576,0.712949835,0.01037595
1764434971.425019,-3.11304,5.66146,-2.35004,-0.67968576,0.712949835,0.01037595
1764434971.425019,-3.11304,5.66146,-2.35004,-0.67968576,0.712949835,0.01037595
1764434971.425019,-3.11304,5.66146,-2.35004,-0.67968576,0.712949835,0.01037595
1764434971.425019,-0.5341,1.86172,-1.99906,-0.68261544,0.71337708,0.01159665
1764434971.425019,-0.5341,1.86172,-1.99906,-0.68261544,0.71337708,0.01159665
1764434971.425019,-0.5341,1.86172,-1.99906,-0.68261544,0.71337708,0.01159665
1764434971.425019,-0.5341,1.86172,-1.99906,-0.68261544,0.71337708,0.01159665
1764434971.425019,-0.5341,1.86172,-1.99906,-0.68261544,0.71337708,0.01159665
1764434971.425019,-0.5341,1.86172,-1.99906,-0.68261544,0.71337708,0.01159665
1764434971.425019,-0.5341,1.86172,-1.99906,-0.68261544,0.71337708,0.01159665
1764434971.425019,-0.5341,1.86172,-1.99906,-0.68261544,0.71337708,0.01159665
1764434971.4269452,-0.5341,1.86172,-1.99906,-0.68261544,0.71337708,0.01159665
1764434971.4269452,-0.5341,1.86172,-1.99906,-0.68261544,0.71337708,0.01159665
1764434971.4269452,-1.26658,0.2289,-0.19838,-0.680357145,0.716978145,0.01391598
1764434971.4269452,-1.26658,0.2289,-0.19838,-0.680357145,0.716978145,0.01391598
1764434971.4269452,-1.26658,0.2289,-0.19838,-0.680357145,0.716978145,0.01391598
1764434971.4269452,-1.26658,0.2289,-0.19838,-0.680357145,0.716978145,0.01391598
1764434971.474682,-1.26658,0.2289,-0.19838,-0.680357145,0.716978145,0.01391598
1764434971.474682,-1.26658,0.2289,-0.19838,-0.680357145,0.716978145,0.01391598
1764434971.474682,-1.26658,0.2289,-0.19838,-0.680357145,0.716978145,0.01391598
1764434971.474682,-1.26658,0.2289,-0.19838,-0.680357145,0.716978145,0.01391598
1764434971.474682,-1.26658,0.2289,-0.19838,-0.680357145,0.716978145,0.01391598
1764434971.474682,-1.26658,0.2289,-0.19838,-0.680357145,0.716978145,0.01391598
1764434971.474682,-1.2055399999999998,1.1445,1.11398,-0.6787092,0.71996886,0.014709435
1764434971.4756775,-1.2055399999999998,1.1445,1.11398,-0.6787092,0.71996886,0.014709435
1764434971.4756775,-1.2055399999999998,1.1445,1.11398,-0.6787092,0.71996886,0.014709435
1764434971.4756775,-1.2055399999999998,1.1445,1.11398,-0.6787092,0.71996886,0.014709435
1764434971.4756775,-1.2055399999999998,1.1445,1.11398,-0.6787092,0.71996886,0.014709435
1764434971.4756775,-1.2055399999999998,1.1445,1.11398,-0.6787092,0.71996886,0.014709435
1764434971.4756775,-1.2055399999999998,1.1445,1.11398,-0.6787092,0.71996886,0.014709435
1764434971.4756775,-1.2055399999999998,1.1445,1.11398,-0.6787092,0.71996886,0.014709435
1764434971.4756775,-1.2055399999999998,1.1445,1.11398,-0.6787092,0.71996886,0.014709435
1764434971.4756775,-1.2055399999999998,1.1445,1.11398,-0.6787092,0.71996886,0.014709435
1764434971.4756775,-1.7549,1.61756,1.55652,-0.6790143750000001,0.72192198,0.014343225
1764434971.4756775,-1.7549,1.61756,1.55652,-0.6790143750000001,0.72192198,0.014343225
1764434971.4756775,-1.7549,1.61756,1.55652,-0.6790143750000001,0.72192198,0.014343225
1764434971.4761877,-1.7549,1.61756,1.55652,-0.6790143750000001,0.72192198,0.014343225
1764434971.4761877,-1.7549,1.61756,1.55652,-0.6790143750000001,0.72192198,0.014343225
1764434971.4761877,-1.7549,1.61756,1.55652,-0.6790143750000001,0.72192198,0.014343225
1764434971.5209315,-1.7549,1.61756,1.55652,-0.6790143750000001,0.72192198,0.014343225
1764434971.5209315,-1.7549,1.61756,1.55652,-0.6790143750000001,0.72192198,0.014343225
1764434971.5209315,-1.7549,1.61756,1.55652,-0.6790143750000001,0.72192198,0.014343225
1764434971.5209315,-1.7549,1.61756,1.55652,-0.6790143750000001,0.72192198,0.014343225
1764434971.5209315,-3.21986,1.8312,1.02242,-0.6787092,0.72350889,0.014343225
1764434971.5209315,-3.21986,1.8312,1.02242,-0.6787092,0.72350889,0.014343225
1764434971.5209315,-3.21986,1.8312,1.02242,-0.6787092,0.72350889,0.014343225
1764434971.5209315,-3.21986,1.8312,1.02242,-0.6787092,0.72350889,0.014343225
1764434971.5209315,-3.21986,1.8312,1.02242,-0.6787092,0.72350889,0.014343225
1764434971.5209315,-3.21986,1.8312,1.02242,-0.6787092,0.72350889,0.014343225
1764434971.5209315,-3.21986,1.8312,1.02242,-0.6787092,0.72350889,0.014343225
1764434971.5209315,-3.21986,1.8312,1.02242,-0.6787092,0.72350889,0.014343225
1764434971.5209315,-3.21986,1.8312,1.02242,-0.6787092,0.72350889,0.014343225
1764434971.5209315,-3.21986,1.8312,1.02242,-0.6787092,0.72350889,0.014343225
1764434971.5209315,-5.55464,1.9838,0.12208,-0.6787092,0.72375303,0.014465295
1764434971.5209315,-5.55464,1.9838,0.12208,-0.6787092,0.72375303,0.014465295
1764434971.5209315,-5.55464,1.9838,0.12208,-0.6787092,0.72375303,0.014465295
1764434971.5209315,-5.55464,1.9838,0.12208,-0.6787092,0.72375303,0.014465295
1764434971.5209315,-5.55464,1.9838,0.12208,-0.6787092,0.72375303,0.014465295
1764434971.5209315,-5.55464,1.9838,0.12208,-0.6787092,0.72375303,0.014465295
1764434971.5209315,-5.55464,1.9838,0.12208,-0.6787092,0.72375303,0.014465295
1764434971.5209315,-5.55464,1.9838,0.12208,-0.6787092,0.72375303,0.014465295
1764434971.5209315,-5.55464,1.9838,0.12208,-0.6787092,0.72375303,0.014465295
1764434971.5216043,-5.55464,1.9838,0.12208,-0.6787092,0.72375303,0.014465295
1764434971.5652547,-6.77544,1.87698,-0.44254,-0.67968576,0.722471295,0.01367184
1764434971.5652547,-6.77544,1.87698,-0.44254,-0.67968576,0.722471295,0.01367184
1764434971.5652547,-6.77544,1.87698,-0.44254,-0.67968576,0.722471295,0.01367184
1764434971.5667884,-6.77544,1.87698,-0.44254,-0.67968576,0.722471295,0.01367184
1764434971.5667884,-6.77544,1.87698,-0.44254,-0.67968576,0.722471295,0.01367184
1764434971.5667884,-6.77544,1.87698,-0.44254,-0.67968576,0.722471295,0.01367184
1764434971.5667884,-6.77544,1.87698,-0.44254,-0.67968576,0.722471295,0.01367184
1764434971.5667884,-6.77544,1.87698,-0.44254,-0.67968576,0.722471295,0.01367184
1764434971.5667884,-6.77544,1.87698,-0.44254,-0.67968576,0.722471295,0.01367184
1764434971.5667884,-6.77544,1.87698,-0.44254,-0.67968576,0.722471295,0.01367184
1764434971.5667884,-6.271859999999999,1.49548,-0.7019599999999999,-0.67956369,0.72118956,0.012390105
1764434971.5667884,-6.271859999999999,1.49548,-0.7019599999999999,-0.67956369,0.72118956,0.012390105
1764434971.5667884,-6.271859999999999,1.49548,-0.7019599999999999,-0.67956369,0.72118956,0.012390105
1764434971.5667884,-6.271859999999999,1.49548,-0.7019599999999999,-0.67956369,0.72118956,0.012390105
1764434971.5667884,-6.271859999999999,1.49548,-0.7019599999999999,-0.67956369,0.72118956,0.012390105
1764434971.5667884,-6.271859999999999,1.49548,-0.7019599999999999,-0.67956369,0.72118956,0.012390105
1764434971.5693352,-6.271859999999999,1.49548,-0.7019599999999999,-0.67956369,0.72118956,0.012390105
1764434971.5693352,-6.271859999999999,1.49548,-0.7019599999999999,-0.67956369,0.72118956,0.012390105
1764434971.5693352,-6.271859999999999,1.49548,-0.7019599999999999,-0.67956369,0.72118956,0.012390105
1764434971.5693352,-6.271859999999999,1.49548,-0.7019599999999999,-0.67956369,0.72118956,0.012390105
1764434971.5693352,-5.27996,1.2055399999999998,0.57988,-0.6799299,0.72070128,0.012145965
1764434971.5693352,-5.27996,1.2055399999999998,0.57988,-0.6799299,0.72070128,0.012145965
1764434971.5693352,-5.27996,1.2055399999999998,0.57988,-0.6799299,0.72070128,0.012145965
1764434971.5703397,-5.27996,1.2055399999999998,0.57988,-0.6799299,0.72070128,0.012145965
1764434971.6150062,-5.27996,1.2055399999999998,0.57988,-0.6799299,0.72070128,0.012145965
1764434971.6150062,-5.27996,1.2055399999999998,0.57988,-0.6799299,0.72070128,0.012145965
1764434971.6150062,-5.27996,1.2055399999999998,0.57988,-0.6799299,0.72070128,0.012145965
1764434971.6150062,-5.27996,1.2055399999999998,0.57988,-0.6799299,0.72070128,0.012145965
1764434971.6150062,-5.27996,1.2055399999999998,0.57988,-0.6799299,0.72070128,0.012145965
1764434971.6150062,-5.27996,1.2055399999999998,0.57988,-0.6799299,0.72070128,0.012145965
1764434971.6150062,-4.715339999999999,0.82404,0.59514,-0.679624725,0.72009093,0.013244595
1764434971.6150062,-4.715339999999999,0.82404,0.59514,-0.679624725,0.72009093,0.013244595
1764434971.6150062,-4.715339999999999,0.82404,0.59514,-0.679624725,0.72009093,0.013244595
1764434971.6150062,-4.715339999999999,0.82404,0.59514,-0.679624725,0.72009093,0.013244595
1764434971.6150062,-4.715339999999999,0.82404,0.59514,-0.679624725,0.72009093,0.013244595
1764434971.6150062,-4.715339999999999,0.82404,0.59514,-0.679624725,0.72009093,0.013244595
1764434971.6150062,-4.715339999999999,0.82404,0.59514,-0.679624725,0.72009093,0.013244595
1764434971.6150062,-4.715339999999999,0.82404,0.59514,-0.679624725,0.72009093,0.013244595
1764434971.6150062,-4.715339999999999,0.82404,0.59514,-0.679624725,0.72009093,0.013244595
1764434971.6150062,-4.715339999999999,0.82404,0.59514,-0.679624725,0.72009093,0.013244595
1764434971.6150062,-4.4254,1.6786,0.4578,-0.678648165,0.71850402,0.013366665
1764434971.6150062,-4.4254,1.6786,0.4578,-0.678648165,0.71850402,0.013366665
1764434971.6150062,-4.4254,1.6786,0.4578,-0.678648165,0.71850402,0.013366665
1764434971.6150062,-4.4254,1.6786,0.4578,-0.678648165,0.71850402,0.013366665
1764434971.6150062,-4.4254,1.6786,0.4578,-0.678648165,0.71850402,0.013366665
1764434971.6150062,-4.4254,1.6786,0.4578,-0.678648165,0.71850402,0.013366665
1764434971.660645,-4.4254,1.6786,0.4578,-0.678648165,0.71850402,0.013366665
1764434971.660645,-4.4254,1.6786,0.4578,-0.678648165,0.71850402,0.013366665
1764434971.660645,-4.4254,1.6786,0.4578,-0.678648165,0.71850402,0.013366665
1764434971.660645,-4.4254,1.6786,0.4578,-0.678648165,0.71850402,0.013366665
1764434971.660645,-3.7387,1.17502,0.42728,-0.679624725,0.71764953,0.01379391
1764434971.660645,-3.7387,1.17502,0.42728,-0.679624725,0.71764953,0.01379391
1764434971.660645,-3.7387,1.17502,0.42728,-0.679624725,0.71764953,0.01379391
1764434971.660645,-3.7387,1.17502,0.42728,-0.679624725,0.71764953,0.01379391
1764434971.660645,-3.7387,1.17502,0.42728,-0.679624725,0.71764953,0.01379391
1764434971.660645,-3.7387,1.17502,0.42728,-0.679624725,0.71764953,0.01379391
1764434971.660645,-3.7387,1.17502,0.42728,-0.679624725,0.71764953,0.01379391
1764434971.660645,-3.7387,1.17502,0.42728,-0.679624725,0.71764953,0.01379391
1764434971.660645,-3.7387,1.17502,0.42728,-0.679624725,0.71764953,0.01379391
1764434971.660645,-3.7387,1.17502,0.42728,-0.679624725,0.71764953,0.01379391
1764434971.660645,-4.56274,0.12208,0.3509799999999999,-0.68066232,0.718687125,0.013000455
1764434971.660645,-4.56274,0.12208,0.3509799999999999,-0.68066232,0.718687125,0.013000455
1764434971.660645,-4.56274,0.12208,0.3509799999999999,-0.68066232,0.718687125,0.013000455
1764434971.660645,-4.56274,0.12208,0.3509799999999999,-0.68066232,0.718687125,0.013000455
1764434971.660645,-4.56274,0.12208,0.3509799999999999,-0.68066232,0.718687125,0.013000455
1764434971.660645,-4.56274,0.12208,0.3509799999999999,-0.68066232,0.718687125,0.013000455
1764434971.660645,-4.56274,0.12208,0.3509799999999999,-0.68066232,0.718687125,0.013000455
1764434971.660645,-4.56274,0.12208,0.3509799999999999,-0.68066232,0.718687125,0.013000455
1764434971.660645,-4.56274,0.12208,0.3509799999999999,-0.68066232,0.718687125,0.013000455
1764434971.6616514,-4.56274,0.12208,0.3509799999999999,-0.68066232,0.718687125,0.013000455
1764434971.7079842,-4.97476,0.44254,-0.04578,-0.679380585,0.719785755,0.01232907
1764434971.7079842,-4.97476,0.44254,-0.04578,-0.679380585,0.719785755,0.01232907
1764434971.7079842,-4.97476,0.44254,-0.04578,-0.679380585,0.719785755,0.01232907
1764434971.7079842,-4.97476,0.44254,-0.04578,-0.679380585,0.719785755,0.01232907
1764434971.7079842,-4.97476,0.44254,-0.04578,-0.679380585,0.719785755,0.01232907
1764434971.7079842,-4.97476,0.44254,-0.04578,-0.679380585,0.719785755,0.01232907
1764434971.7079842,-4.97476,0.44254,-0.04578,-0.679380585,0.719785755,0.01232907
1764434971.7085264,-4.97476,0.44254,-0.04578,-0.679380585,0.719785755,0.01232907
1764434971.7085264,-4.97476,0.44254,-0.04578,-0.679380585,0.719785755,0.01232907
1764434971.7085264,-4.97476,0.44254,-0.04578,-0.679380585,0.719785755,0.01232907
1764434971.7085264,-5.81406,1.72438,-0.51884,-0.67736643,0.719663685,0.012145965
1764434971.7085264,-5.81406,1.72438,-0.51884,-0.67736643,0.719663685,0.012145965
1764434971.7085264,-5.81406,1.72438,-0.51884,-0.67736643,0.719663685,0.012145965
1764434971.7085264,-5.81406,1.72438,-0.51884,-0.67736643,0.719663685,0.012145965
1764434971.7085264,-5.81406,1.72438,-0.51884,-0.67736643,0.719663685,0.012145965
1764434971.7085264,-5.81406,1.72438,-0.51884,-0.67736643,0.719663685,0.012145965
1764434971.7085264,-5.81406,1.72438,-0.51884,-0.67736643,0.719663685,0.012145965
1764434971.7085264,-5.81406,1.72438,-0.51884,-0.67736643,0.719663685,0.012145965
1764434971.7085264,-5.81406,1.72438,-0.51884,-0.67736643,0.719663685,0.012145965
1764434971.7085264,-5.81406,1.72438,-0.51884,-0.67736643,0.719663685,0.012145965
1764434971.7085264,-5.753019999999999,2.18218,0.0762999999999999,-0.676450905,0.718687125,0.012268035
1764434971.7085264,-5.753019999999999,2.18218,0.0762999999999999,-0.676450905,0.718687125,0.012268035
1764434971.7085264,-5.753019999999999,2.18218,0.0762999999999999,-0.676450905,0.718687125,0.012268035
1764434971.7085264,-5.753019999999999,2.18218,0.0762999999999999,-0.676450905,0.718687125,0.012268035
1764434971.751618,-5.753019999999999,2.18218,0.0762999999999999,-0.676450905,0.718687125,0.012268035
1764434971.751618,-5.753019999999999,2.18218,0.0762999999999999,-0.676450905,0.718687125,0.012268035
1764434971.751618,-5.753019999999999,2.18218,0.0762999999999999,-0.676450905,0.718687125,0.012268035
1764434971.751618,-5.753019999999999,2.18218,0.0762999999999999,-0.676450905,0.718687125,0.012268035
1764434971.751618,-5.753019999999999,2.18218,0.0762999999999999,-0.676450905,0.718687125,0.012268035
1764434971.751618,-5.753019999999999,2.18218,0.0762999999999999,-0.676450905,0.718687125,0.012268035
1764434971.751618,-5.67672,1.89224,0.4578,-0.677793675,0.716978145,0.012390105
1764434971.751618,-5.67672,1.89224,0.4578,-0.677793675,0.716978145,0.012390105
1764434971.751618,-5.67672,1.89224,0.4578,-0.677793675,0.716978145,0.012390105
1764434971.751618,-5.67672,1.89224,0.4578,-0.677793675,0.716978145,0.012390105
1764434971.751618,-5.67672,1.89224,0.4578,-0.677793675,0.716978145,0.012390105
1764434971.751618,-5.67672,1.89224,0.4578,-0.677793675,0.716978145,0.012390105
1764434971.751618,-5.67672,1.89224,0.4578,-0.677793675,0.716978145,0.012390105
1764434971.7531676,-5.67672,1.89224,0.4578,-0.677793675,0.716978145,0.012390105
1764434971.7531676,-5.67672,1.89224,0.4578,-0.677793675,0.716978145,0.012390105
1764434971.7531676,-5.67672,1.89224,0.4578,-0.677793675,0.716978145,0.012390105
1764434971.7531676,-4.62378,1.6786,0.6867,-0.678648165,0.71581848,0.012512175
1764434971.7531676,-4.62378,1.6786,0.6867,-0.678648165,0.71581848,0.012512175
1764434971.7531676,-4.62378,1.6786,0.6867,-0.678648165,0.71581848,0.012512175
1764434971.7531676,-4.62378,1.6786,0.6867,-0.678648165,0.71581848,0.012512175
1764434971.7531676,-4.62378,1.6786,0.6867,-0.678648165,0.71581848,0.012512175
1764434971.7531676,-4.62378,1.6786,0.6867,-0.678648165,0.71581848,0.012512175
1764434971.7531676,-4.62378,1.6786,0.6867,-0.678648165,0.71581848,0.012512175
1764434971.7531676,-4.62378,1.6786,0.6867,-0.678648165,0.71581848,0.012512175
1764434971.8018844,-4.62378,1.6786,0.6867,-0.678648165,0.71581848,0.012512175
1764434971.8018844,-4.62378,1.6786,0.6867,-0.678648165,0.71581848,0.012512175
1764434971.8018844,-3.61662,1.26658,0.48832,-0.680113005,0.71459778,0.012390105
1764434971.8018844,-3.61662,1.26658,0.48832,-0.680113005,0.71459778,0.012390105
1764434971.8018844,-3.61662,1.26658,0.48832,-0.680113005,0.71459778,0.012390105
1764434971.8018844,-3.61662,1.26658,0.48832,-0.680113005,0.71459778,0.012390105
1764434971.8018844,-3.61662,1.26658,0.48832,-0.680113005,0.71459778,0.012390105
1764434971.8018844,-3.61662,1.26658,0.48832,-0.680113005,0.71459778,0.012390105
1764434971.8018844,-3.61662,1.26658,0.48832,-0.680113005,0.71459778,0.012390105
1764434971.8018844,-3.61662,1.26658,0.48832,-0.680113005,0.71459778,0.012390105
1764434971.8018844,-3.61662,1.26658,0.48832,-0.680113005,0.71459778,0.012390105
1764434971.8018844,-3.61662,1.26658,0.48832,-0.680113005,0.71459778,0.012390105
1764434971.8018844,-2.96044,0.9003399999999999,0.39676,-0.6811506,0.71484192,0.013000455
1764434971.8018844,-2.96044,0.9003399999999999,0.39676,-0.6811506,0.71484192,0.013000455
1764434971.8018844,-2.96044,0.9003399999999999,0.39676,-0.6811506,0.71484192,0.013000455
1764434971.8018844,-2.96044,0.9003399999999999,0.39676,-0.6811506,0.71484192,0.013000455
1764434971.8018844,-2.96044,0.9003399999999999,0.39676,-0.6811506,0.71484192,0.013000455
1764434971.802884,-2.96044,0.9003399999999999,0.39676,-0.6811506,0.71484192,0.013000455
1764434971.802884,-2.96044,0.9003399999999999,0.39676,-0.6811506,0.71484192,0.013000455
1764434971.802884,-2.96044,0.9003399999999999,0.39676,-0.6811506,0.71484192,0.013000455
1764434971.802884,-2.96044,0.9003399999999999,0.39676,-0.6811506,0.71484192,0.013000455
1764434971.802884,-2.96044,0.9003399999999999,0.39676,-0.6811506,0.71484192,0.013000455
1764434971.802884,-2.65524,0.44254,0.82404,-0.68066232,0.71630676,0.013366665
1764434971.802884,-2.65524,0.44254,0.82404,-0.68066232,0.71630676,0.013366665
1764434971.8506846,-2.65524,0.44254,0.82404,-0.68066232,0.71630676,0.013366665
1764434971.8506846,-2.65524,0.44254,0.82404,-0.68066232,0.71630676,0.013366665
1764434971.8506846,-2.65524,0.44254,0.82404,-0.68066232,0.71630676,0.013366665
1764434971.8506846,-2.65524,0.44254,0.82404,-0.68066232,0.71630676,0.013366665
1764434971.8506846,-2.65524,0.44254,0.82404,-0.68066232,0.71630676,0.013366665
1764434971.8506846,-2.65524,0.44254,0.82404,-0.68066232,0.71630676,0.013366665
1764434971.8506846,-2.65524,0.44254,0.82404,-0.68066232,0.71630676,0.013366665
1764434971.8506846,-2.65524,0.44254,0.82404,-0.68066232,0.71630676,0.013366665
1764434971.8506846,-3.08252,0.88508,0.65618,-0.679624725,0.718809195,0.01354977
1764434971.8506846,-3.08252,0.88508,0.65618,-0.679624725,0.718809195,0.01354977
1764434971.8506846,-3.08252,0.88508,0.65618,-0.679624725,0.718809195,0.01354977
1764434971.8506846,-3.08252,0.88508,0.65618,-0.679624725,0.718809195,0.01354977
1764434971.8506846,-3.08252,0.88508,0.65618,-0.679624725,0.718809195,0.01354977
1764434971.8506846,-3.08252,0.88508,0.65618,-0.679624725,0.718809195,0.01354977
1764434971.8506846,-3.08252,0.88508,0.65618,-0.679624725,0.718809195,0.01354977
1764434971.8506846,-3.08252,0.88508,0.65618,-0.679624725,0.718809195,0.01354977
1764434971.8516848,-3.08252,0.88508,0.65618,-0.679624725,0.718809195,0.01354977
1764434971.8516848,-3.08252,0.88508,0.65618,-0.679624725,0.718809195,0.01354977
1764434971.8516848,-4.08968,1.87698,0.3509799999999999,-0.67919748,0.72082335,0.01379391
1764434971.8516848,-4.08968,1.87698,0.3509799999999999,-0.67919748,0.72082335,0.01379391
1764434971.8516848,-4.08968,1.87698,0.3509799999999999,-0.67919748,0.72082335,0.01379391
1764434971.8516848,-4.08968,1.87698,0.3509799999999999,-0.67919748,0.72082335,0.01379391
1764434971.8516848,-4.08968,1.87698,0.3509799999999999,-0.67919748,0.72082335,0.01379391
1764434971.8516848,-4.08968,1.87698,0.3509799999999999,-0.67919748,0.72082335,0.01379391
1764434971.8958158,-4.08968,1.87698,0.3509799999999999,-0.67919748,0.72082335,0.01379391
1764434971.8958158,-4.08968,1.87698,0.3509799999999999,-0.67919748,0.72082335,0.01379391
1764434971.8958158,-4.08968,1.87698,0.3509799999999999,-0.67919748,0.72082335,0.01379391
1764434971.8958158,-4.08968,1.87698,0.3509799999999999,-0.67919748,0.72082335,0.01379391
1764434971.8958158,-4.99002,2.02958,0.06104,-0.678892305,0.72204405,0.014465295
1764434971.8958158,-4.99002,2.02958,0.06104,-0.678892305,0.72204405,0.014465295
1764434971.8958158,-4.99002,2.02958,0.06104,-0.678892305,0.72204405,0.014465295
1764434971.8958158,-4.99002,2.02958,0.06104,-0.678892305,0.72204405,0.014465295
1764434971.8958158,-4.99002,2.02958,0.06104,-0.678892305,0.72204405,0.014465295
1764434971.8958158,-4.99002,2.02958,0.06104,-0.678892305,0.72204405,0.014465295
1764434971.8958158,-4.99002,2.02958,0.06104,-0.678892305,0.72204405,0.014465295
1764434971.8958158,-4.99002,2.02958,0.06104,-0.678892305,0.72204405,0.014465295
1764434971.8958158,-4.99002,2.02958,0.06104,-0.678892305,0.72204405,0.014465295
1764434971.8958158,-4.99002,2.02958,0.06104,-0.678892305,0.72204405,0.014465295
1764434971.8958158,-5.5699,2.10588,0.0,-0.6790143750000001,0.72155577,0.013610805
1764434971.8958158,-5.5699,2.10588,0.0,-0.6790143750000001,0.72155577,0.013610805
1764434971.8958158,-5.5699,2.10588,0.0,-0.6790143750000001,0.72155577,0.013610805
1764434971.8958158,-5.5699,2.10588,0.0,-0.6790143750000001,0.72155577,0.013610805
1764434971.8958158,-5.5699,2.10588,0.0,-0.6790143750000001,0.72155577,0.013610805
1764434971.8958158,-5.5699,2.10588,0.0,-0.6790143750000001,0.72155577,0.013610805
1764434971.8958158,-5.5699,2.10588,0.0,-0.6790143750000001,0.72155577,0.013610805
1764434971.8958158,-5.5699,2.10588,0.0,-0.6790143750000001,0.72155577,0.013610805
1764434971.9401395,-5.5699,2.10588,0.0,-0.6790143750000001,0.72155577,0.013610805
1764434971.9401395,-5.5699,2.10588,0.0,-0.6790143750000001,0.72155577,0.013610805
1764434971.9401395,-6.165039999999999,2.04484,0.12208,-0.67907541,0.71972472,0.014221155
1764434971.9406526,-6.165039999999999,2.04484,0.12208,-0.67907541,0.71972472,0.014221155
1764434971.9406526,-6.165039999999999,2.04484,0.12208,-0.67907541,0.71972472,0.014221155
1764434971.9406526,-6.165039999999999,2.04484,0.12208,-0.67907541,0.71972472,0.014221155
1764434971.9406526,-6.165039999999999,2.04484,0.12208,-0.67907541,0.71972472,0.014221155
1764434971.9406526,-6.165039999999999,2.04484,0.12208,-0.67907541,0.71972472,0.014221155
1764434971.9406526,-6.165039999999999,2.04484,0.12208,-0.67907541,0.71972472,0.014221155
1764434971.9406526,-6.165039999999999,2.04484,0.12208,-0.67907541,0.71972472,0.014221155
1764434971.9406526,-6.165039999999999,2.04484,0.12208,-0.67907541,0.71972472,0.014221155
1764434971.9421525,-6.165039999999999,2.04484,0.12208,-0.67907541,0.71972472,0.014221155
1764434971.9421525,-5.29522,2.2127,0.28994,-0.679990935,0.71752746,0.013977015
1764434971.9421525,-5.29522,2.2127,0.28994,-0.679990935,0.71752746,0.013977015
1764434971.9421525,-5.29522,2.2127,0.28994,-0.679990935,0.71752746,0.013977015
1764434971.9421525,-5.29522,2.2127,0.28994,-0.679990935,0.71752746,0.013977015
1764434971.9421525,-5.29522,2.2127,0.28994,-0.679990935,0.71752746,0.013977015
1764434971.9421525,-5.29522,2.2127,0.28994,-0.679990935,0.71752746,0.013977015
1764434971.9421525,-5.29522,2.2127,0.28994,-0.679990935,0.71752746,0.013977015
1764434971.9421525,-5.29522,2.2127,0.28994,-0.679990935,0.71752746,0.013977015
1764434971.9421525,-5.29522,2.2127,0.28994,-0.679990935,0.71752746,0.013977015
1764434971.9421525,-5.29522,2.2127,0.28994,-0.679990935,0.71752746,0.013977015
1764434971.9869163,-4.62378,1.25132,0.39676,-0.68054025,0.71630676,0.014221155
1764434971.9869163,-4.62378,1.25132,0.39676,-0.68054025,0.71630676,0.014221155
1764434971.9869163,-4.62378,1.25132,0.39676,-0.68054025,0.71630676,0.014221155
1764434971.9888008,-4.62378,1.25132,0.39676,-0.68054025,0.71630676,0.014221155
1764434971.9888008,-4.62378,1.25132,0.39676,-0.68054025,0.71630676,0.014221155
1764434971.9888008,-4.62378,1.25132,0.39676,-0.68054025,0.71630676,0.014221155
1764434971.9888008,-4.62378,1.25132,0.39676,-0.68054025,0.71630676,0.014221155
1764434971.9888008,-4.62378,1.25132,0.39676,-0.68054025,0.71630676,0.014221155
1764434971.990811,-4.62378,1.25132,0.39676,-0.68054025,0.71630676,0.014221155
1764434971.990811,-4.62378,1.25132,0.39676,-0.68054025,0.71630676,0.014221155
1764434971.991814,-4.18124,1.26658,0.25942,-0.679990935,0.715635375,0.01391598
1764434971.991814,-4.18124,1.26658,0.25942,-0.679990935,0.715635375,0.01391598
1764434971.991814,-4.18124,1.26658,0.25942,-0.679990935,0.715635375,0.01391598
1764434971.991814,-4.18124,1.26658,0.25942,-0.679990935,0.715635375,0.01391598
1764434971.991814,-4.18124,1.26658,0.25942,-0.679990935,0.715635375,0.01391598
1764434971.991814,-4.18124,1.26658,0.25942,-0.679990935,0.715635375,0.01391598
1764434971.991814,-4.18124,1.26658,0.25942,-0.679990935,0.715635375,0.01391598
1764434971.991814,-4.18124,1.26658,0.25942,-0.679990935,0.715635375,0.01391598
1764434971.9928138,-4.18124,1.26658,0.25942,-0.679990935,0.715635375,0.01391598
1764434971.9928138,-4.18124,1.26658,0.25942,-0.679990935,0.715635375,0.01391598
1764434971.9928138,-3.44876,1.48022,0.44254,-0.679258515,0.71447571,0.01391598
1764434971.9928138,-3.44876,1.48022,0.44254,-0.679258515,0.71447571,0.01391598
1764434971.9928138,-3.44876,1.48022,0.44254,-0.679258515,0.71447571,0.01391598
1764434971.9928138,-3.44876,1.48022,0.44254,-0.679258515,0.71447571,0.01391598
1764434972.03517,-3.44876,1.48022,0.44254,-0.679258515,0.71447571,0.01391598
1764434972.03517,-3.44876,1.48022,0.44254,-0.679258515,0.71447571,0.01391598
1764434972.03517,-3.44876,1.48022,0.44254,-0.679258515,0.71447571,0.01391598
1764434972.03517,-3.44876,1.48022,0.44254,-0.679258515,0.71447571,0.01391598
1764434972.03517,-3.44876,1.48022,0.44254,-0.679258515,0.71447571,0.01391598
1764434972.03517,-3.44876,1.48022,0.44254,-0.679258515,0.71447571,0.01391598
1764434972.03517,-3.2809,2.5942,0.6103999999999999,-0.679380585,0.71594055,0.01232907
1764434972.03517,-3.2809,2.5942,0.6103999999999999,-0.679380585,0.71594055,0.01232907
1764434972.03517,-3.2809,2.5942,0.6103999999999999,-0.679380585,0.71594055,0.01232907
1764434972.03517,-3.2809,2.5942,0.6103999999999999,-0.679380585,0.71594055,0.01232907
1764434972.03517,-3.2809,2.5942,0.6103999999999999,-0.679380585,0.71594055,0.01232907
1764434972.03517,-3.2809,2.5942,0.6103999999999999,-0.679380585,0.71594055,0.01232907
1764434972.03517,-3.2809,2.5942,0.6103999999999999,-0.679380585,0.71594055,0.01232907
1764434972.03517,-3.2809,2.5942,0.6103999999999999,-0.679380585,0.71594055,0.01232907
1764434972.03517,-3.2809,2.5942,0.6103999999999999,-0.679380585,0.71594055,0.01232907
1764434972.03517,-3.2809,2.5942,0.6103999999999999,-0.679380585,0.71594055,0.01232907
1764434972.03517,-4.059159999999999,0.8392999999999999,0.42728,-0.681821985,0.719419545,0.012512175
1764434972.03517,-4.059159999999999,0.8392999999999999,0.42728,-0.681821985,0.719419545,0.012512175
1764434972.03517,-4.059159999999999,0.8392999999999999,0.42728,-0.681821985,0.719419545,0.012512175
1764434972.03517,-4.059159999999999,0.8392999999999999,0.42728,-0.681821985,0.719419545,0.012512175
1764434972.03517,-4.059159999999999,0.8392999999999999,0.42728,-0.681821985,0.719419545,0.012512175
1764434972.036688,-4.059159999999999,0.8392999999999999,0.42728,-0.681821985,0.719419545,0.012512175
1764434972.036688,-4.059159999999999,0.8392999999999999,0.42728,-0.681821985,0.719419545,0.012512175
1764434972.036688,-4.059159999999999,0.8392999999999999,0.42728,-0.681821985,0.719419545,0.012512175
1764434972.0789409,-4.059159999999999,0.8392999999999999,0.42728,-0.681821985,0.719419545,0.012512175
1764434972.0789409,-4.059159999999999,0.8392999999999999,0.42728,-0.681821985,0.719419545,0.012512175
1764434972.0799603,-5.32574,0.6714399999999999,0.10682,-0.68139474,0.7226544,0.0134277
1764434972.0799603,-5.32574,0.6714399999999999,0.10682,-0.68139474,0.7226544,0.0134277
1764434972.0799603,-5.32574,0.6714399999999999,0.10682,-0.68139474,0.7226544,0.0134277
1764434972.0799603,-5.32574,0.6714399999999999,0.10682,-0.68139474,0.7226544,0.0134277
1764434972.0799603,-5.32574,0.6714399999999999,0.10682,-0.68139474,0.7226544,0.0134277
1764434972.0799603,-5.32574,0.6714399999999999,0.10682,-0.68139474,0.7226544,0.0134277
1764434972.0799603,-5.32574,0.6714399999999999,0.10682,-0.68139474,0.7226544,0.0134277
1764434972.0799603,-5.32574,0.6714399999999999,0.10682,-0.68139474,0.7226544,0.0134277
1764434972.0799603,-5.32574,0.6714399999999999,0.10682,-0.68139474,0.7226544,0.0134277
1764434972.0799603,-5.32574,0.6714399999999999,0.10682,-0.68139474,0.7226544,0.0134277
1764434972.0799603,-5.7225,1.23606,0.1525999999999999,-0.6787092,0.721860945,0.01391598
1764434972.0799603,-5.7225,1.23606,0.1525999999999999,-0.6787092,0.721860945,0.01391598
1764434972.080958,-5.7225,1.23606,0.1525999999999999,-0.6787092,0.721860945,0.01391598
1764434972.080958,-5.7225,1.23606,0.1525999999999999,-0.6787092,0.721860945,0.01391598
1764434972.0819583,-5.7225,1.23606,0.1525999999999999,-0.6787092,0.721860945,0.01391598
1764434972.0819583,-5.7225,1.23606,0.1525999999999999,-0.6787092,0.721860945,0.01391598
1764434972.0819583,-5.7225,1.23606,0.1525999999999999,-0.6787092,0.721860945,0.01391598
1764434972.0819583,-5.7225,1.23606,0.1525999999999999,-0.6787092,0.721860945,0.01391598
1764434972.0819583,-5.7225,1.23606,0.1525999999999999,-0.6787092,0.721860945,0.01391598
1764434972.0819583,-5.7225,1.23606,0.1525999999999999,-0.6787092,0.721860945,0.01391598
1764434972.128934,-5.14262,2.41108,0.1678599999999999,-0.67675608,0.71923644,0.01379391
1764434972.128934,-5.14262,2.41108,0.1678599999999999,-0.67675608,0.71923644,0.01379391
1764434972.128934,-5.14262,2.41108,0.1678599999999999,-0.67675608,0.71923644,0.01379391
1764434972.128934,-5.14262,2.41108,0.1678599999999999,-0.67675608,0.71923644,0.01379391
1764434972.128934,-5.14262,2.41108,0.1678599999999999,-0.67675608,0.71923644,0.01379391
1764434972.128934,-5.14262,2.41108,0.1678599999999999,-0.67675608,0.71923644,0.01379391
1764434972.128934,-5.14262,2.41108,0.1678599999999999,-0.67675608,0.71923644,0.01379391
1764434972.128934,-5.14262,2.41108,0.1678599999999999,-0.67675608,0.71923644,0.01379391
1764434972.128934,-5.14262,2.41108,0.1678599999999999,-0.67675608,0.71923644,0.01379391
1764434972.128934,-5.14262,2.41108,0.1678599999999999,-0.67675608,0.71923644,0.01379391
1764434972.128934,-5.508859999999999,2.15166,0.74774,-0.67761057,0.718931265,0.013977015
1764434972.128934,-5.508859999999999,2.15166,0.74774,-0.67761057,0.718931265,0.013977015
1764434972.128934,-5.508859999999999,2.15166,0.74774,-0.67761057,0.718931265,0.013977015
1764434972.128934,-5.508859999999999,2.15166,0.74774,-0.67761057,0.718931265,0.013977015
1764434972.128934,-5.508859999999999,2.15166,0.74774,-0.67761057,0.718931265,0.013977015
1764434972.128934,-5.508859999999999,2.15166,0.74774,-0.67761057,0.718931265,0.013977015
1764434972.128934,-5.508859999999999,2.15166,0.74774,-0.67761057,0.718931265,0.013977015
1764434972.128934,-5.508859999999999,2.15166,0.74774,-0.67761057,0.718931265,0.013977015
1764434972.128934,-5.508859999999999,2.15166,0.74774,-0.67761057,0.718931265,0.013977015
1764434972.128934,-5.508859999999999,2.15166,0.74774,-0.67761057,0.718931265,0.013977015
1764434972.128934,-5.63094,2.19744,0.41202,-0.67895334,0.718442985,0.01379391
1764434972.128934,-5.63094,2.19744,0.41202,-0.67895334,0.718442985,0.01379391
1764434972.128934,-5.63094,2.19744,0.41202,-0.67895334,0.718442985,0.01379391
1764434972.128934,-5.63094,2.19744,0.41202,-0.67895334,0.718442985,0.01379391
1764434972.173397,-5.63094,2.19744,0.41202,-0.67895334,0.718442985,0.01379391
1764434972.173397,-5.63094,2.19744,0.41202,-0.67895334,0.718442985,0.01379391
1764434972.173397,-5.63094,2.19744,0.41202,-0.67895334,0.718442985,0.01379391
1764434972.1749442,-5.63094,2.19744,0.41202,-0.67895334,0.718442985,0.01379391
1764434972.1749442,-5.63094,2.19744,0.41202,-0.67895334,0.718442985,0.01379391
1764434972.1749442,-5.63094,2.19744,0.41202,-0.67895334,0.718442985,0.01379391
1764434972.1759658,-5.9514,1.99906,-0.04578,-0.679258515,0.717710565,0.01403805
1764434972.1759658,-5.9514,1.99906,-0.04578,-0.679258515,0.717710565,0.01403805
1764434972.1759658,-5.9514,1.99906,-0.04578,-0.679258515,0.717710565,0.01403805
1764434972.1759658,-5.9514,1.99906,-0.04578,-0.679258515,0.717710565,0.01403805
1764434972.1759658,-5.9514,1.99906,-0.04578,-0.679258515,0.717710565,0.01403805
1764434972.1769671,-5.9514,1.99906,-0.04578,-0.679258515,0.717710565,0.01403805
1764434972.1769671,-5.9514,1.99906,-0.04578,-0.679258515,0.717710565,0.01403805
1764434972.1769671,-5.9514,1.99906,-0.04578,-0.679258515,0.717710565,0.01403805
1764434972.1769671,-5.9514,1.99906,-0.04578,-0.679258515,0.717710565,0.01403805
1764434972.1769671,-5.9514,1.99906,-0.04578,-0.679258515,0.717710565,0.01403805
1764434972.1769671,-4.89846,1.38866,0.04578,-0.679990935,0.71618469,0.01428219
1764434972.1769671,-4.89846,1.38866,0.04578,-0.679990935,0.71618469,0.01428219
1764434972.1769671,-4.89846,1.38866,0.04578,-0.679990935,0.71618469,0.01428219
1764434972.1783264,-4.89846,1.38866,0.04578,-0.679990935,0.71618469,0.01428219
1764434972.1783264,-4.89846,1.38866,0.04578,-0.679990935,0.71618469,0.01428219
1764434972.1783264,-4.89846,1.38866,0.04578,-0.679990935,0.71618469,0.01428219
1764434972.2232325,-4.89846,1.38866,0.04578,-0.679990935,0.71618469,0.01428219
1764434972.2232325,-4.89846,1.38866,0.04578,-0.679990935,0.71618469,0.01428219
1764434972.2232325,-4.89846,1.38866,0.04578,-0.679990935,0.71618469,0.01428219
1764434972.2232325,-4.89846,1.38866,0.04578,-0.679990935,0.71618469,0.01428219
1764434972.2232325,-4.2728,1.2055399999999998,0.74774,-0.680235075,0.71520813,0.01379391
1764434972.2232325,-4.2728,1.2055399999999998,0.74774,-0.680235075,0.71520813,0.01379391
1764434972.2232325,-4.2728,1.2055399999999998,0.74774,-0.680235075,0.71520813,0.01379391
1764434972.2232325,-4.2728,1.2055399999999998,0.74774,-0.680235075,0.71520813,0.01379391
1764434972.2232325,-4.2728,1.2055399999999998,0.74774,-0.680235075,0.71520813,0.01379391
1764434972.2232325,-4.2728,1.2055399999999998,0.74774,-0.680235075,0.71520813,0.01379391
1764434972.2232325,-4.2728,1.2055399999999998,0.74774,-0.680235075,0.71520813,0.01379391
1764434972.2232325,-4.2728,1.2055399999999998,0.74774,-0.680235075,0.71520813,0.01379391
1764434972.2232325,-4.2728,1.2055399999999998,0.74774,-0.680235075,0.71520813,0.01379391
1764434972.2232325,-4.2728,1.2055399999999998,0.74774,-0.680235075,0.71520813,0.01379391
1764434972.2232325,-3.4335,1.3734,0.763,-0.6811506,0.71606262,0.014587365
1764434972.2232325,-3.4335,1.3734,0.763,-0.6811506,0.71606262,0.014587365
1764434972.2232325,-3.4335,1.3734,0.763,-0.6811506,0.71606262,0.014587365
1764434972.2232325,-3.4335,1.3734,0.763,-0.6811506,0.71606262,0.014587365
1764434972.2232325,-3.4335,1.3734,0.763,-0.6811506,0.71606262,0.014587365
1764434972.2232325,-3.4335,1.3734,0.763,-0.6811506,0.71606262,0.014587365
1764434972.2232325,-3.4335,1.3734,0.763,-0.6811506,0.71606262,0.014587365
1764434972.2232325,-3.4335,1.3734,0.763,-0.6811506,0.71606262,0.014587365
1764434972.2232325,-3.4335,1.3734,0.763,-0.6811506,0.71606262,0.014587365
1764434972.2232325,-3.4335,1.3734,0.763,-0.6811506,0.71606262,0.014587365
1764434972.2672114,-2.5179,1.34288,0.21364,-0.679868865,0.716489865,0.013732875
1764434972.2672114,-2.5179,1.34288,0.21364,-0.679868865,0.716489865,0.013732875
1764434972.2672114,-2.5179,1.34288,0.21364,-0.679868865,0.716489865,0.013732875
1764434972.2672114,-2.5179,1.34288,0.21364,-0.679868865,0.716489865,0.013732875
1764434972.2672114,-2.5179,1.34288,0.21364,-0.679868865,0.716489865,0.013732875
1764434972.2672114,-2.5179,1.34288,0.21364,-0.679868865,0.716489865,0.013732875
1764434972.2672114,-2.5179,1.34288,0.21364,-0.679868865,0.716489865,0.013732875
1764434972.2672114,-2.5179,1.34288,0.21364,-0.679868865,0.716489865,0.013732875
1764434972.2672114,-2.5179,1.34288,0.21364,-0.679868865,0.716489865,0.013732875
1764434972.2672114,-2.5179,1.34288,0.21364,-0.679868865,0.716489865,0.013732875
1764434972.2672114,-2.30426,1.81594,0.51884,-0.67919748,0.71764953,0.013732875
1764434972.2672114,-2.30426,1.81594,0.51884,-0.67919748,0.71764953,0.013732875
1764434972.2672114,-2.30426,1.81594,0.51884,-0.67919748,0.71764953,0.013732875
1764434972.2672114,-2.30426,1.81594,0.51884,-0.67919748,0.71764953,0.013732875
1764434972.2672114,-2.30426,1.81594,0.51884,-0.67919748,0.71764953,0.013732875
1764434972.2672114,-2.30426,1.81594,0.51884,-0.67919748,0.71764953,0.013732875
1764434972.2672114,-2.30426,1.81594,0.51884,-0.67919748,0.71764953,0.013732875
1764434972.2672114,-2.30426,1.81594,0.51884,-0.67919748,0.71764953,0.013732875
1764434972.2672114,-2.30426,1.81594,0.51884,-0.67919748,0.71764953,0.013732875
1764434972.2672114,-2.30426,1.81594,0.51884,-0.67919748,0.71764953,0.013732875
1764434972.2672114,-2.71628,1.38866,0.85456,-0.679990935,0.7193585100000001,0.013732875
1764434972.2672114,-2.71628,1.38866,0.85456,-0.679990935,0.7193585100000001,0.013732875
1764434972.2672114,-2.71628,1.38866,0.85456,-0.679990935,0.7193585100000001,0.013732875
1764434972.2672114,-2.71628,1.38866,0.85456,-0.679990935,0.7193585100000001,0.013732875
1764434972.3135953,-2.71628,1.38866,0.85456,-0.679990935,0.7193585100000001,0.013732875
1764434972.3135953,-2.71628,1.38866,0.85456,-0.679990935,0.7193585100000001,0.013732875
1764434972.3135953,-2.71628,1.38866,0.85456,-0.679990935,0.7193585100000001,0.013732875
1764434972.3135953,-2.71628,1.38866,0.85456,-0.679990935,0.7193585100000001,0.013732875
1764434972.3135953,-2.71628,1.38866,0.85456,-0.679990935,0.7193585100000001,0.013732875
1764434972.3135953,-2.71628,1.38866,0.85456,-0.679990935,0.7193585100000001,0.013732875
1764434972.3135953,-4.66956,1.25132,0.06104,-0.680235075,0.72228819,0.013610805
1764434972.3135953,-4.66956,1.25132,0.06104,-0.680235075,0.72228819,0.013610805
1764434972.3135953,-4.66956,1.25132,0.06104,-0.680235075,0.72228819,0.013610805
1764434972.3146122,-4.66956,1.25132,0.06104,-0.680235075,0.72228819,0.013610805
1764434972.3146122,-4.66956,1.25132,0.06104,-0.680235075,0.72228819,0.013610805
1764434972.3146122,-4.66956,1.25132,0.06104,-0.680235075,0.72228819,0.013610805
1764434972.3146122,-4.66956,1.25132,0.06104,-0.680235075,0.72228819,0.013610805
1764434972.3146122,-4.66956,1.25132,0.06104,-0.680235075,0.72228819,0.013610805
1764434972.3146122,-4.66956,1.25132,0.06104,-0.680235075,0.72228819,0.013610805
1764434972.3146122,-4.66956,1.25132,0.06104,-0.680235075,0.72228819,0.013610805
1764434972.3146122,-5.66146,1.9075,-0.71722,-0.679136445,0.72289854,0.01403805
1764434972.3146122,-5.66146,1.9075,-0.71722,-0.679136445,0.72289854,0.01403805
1764434972.3146122,-5.66146,1.9075,-0.71722,-0.679136445,0.72289854,0.01403805
1764434972.3146122,-5.66146,1.9075,-0.71722,-0.679136445,0.72289854,0.01403805
1764434972.3146122,-5.66146,1.9075,-0.71722,-0.679136445,0.72289854,0.01403805
1764434972.3146122,-5.66146,1.9075,-0.71722,-0.679136445,0.72289854,0.01403805
1764434972.3146122,-5.66146,1.9075,-0.71722,-0.679136445,0.72289854,0.01403805
1764434972.3146122,-5.66146,1.9075,-0.71722,-0.679136445,0.72289854,0.01403805
1764434972.362435,-5.66146,1.9075,-0.71722,-0.679136445,0.72289854,0.01403805
1764434972.362435,-5.66146,1.9075,-0.71722,-0.679136445,0.72289854,0.01403805
1764434972.362435,-5.21892,2.60946,-0.73248,-0.678281955,0.72131163,0.01440426
1764434972.362435,-5.21892,2.60946,-0.73248,-0.678281955,0.72131163,0.01440426
1764434972.362435,-5.21892,2.60946,-0.73248,-0.678281955,0.72131163,0.01440426
1764434972.3634515,-5.21892,2.60946,-0.73248,-0.678281955,0.72131163,0.01440426
1764434972.3634515,-5.21892,2.60946,-0.73248,-0.678281955,0.72131163,0.01440426
1764434972.3634515,-5.21892,2.60946,-0.73248,-0.678281955,0.72131163,0.01440426
1764434972.3634515,-5.21892,2.60946,-0.73248,-0.678281955,0.72131163,0.01440426
1764434972.3634515,-5.21892,2.60946,-0.73248,-0.678281955,0.72131163,0.01440426
1764434972.3634515,-5.21892,2.60946,-0.73248,-0.678281955,0.72131163,0.01440426
1764434972.3634515,-5.21892,2.60946,-0.73248,-0.678281955,0.72131163,0.01440426
1764434972.3634515,-4.66956,2.25848,-1.0682,-0.67822092,0.719663685,0.013244595
1764434972.3634515,-4.66956,2.25848,-1.0682,-0.67822092,0.719663685,0.013244595
1764434972.3649638,-4.66956,2.25848,-1.0682,-0.67822092,0.719663685,0.013244595
1764434972.3649638,-4.66956,2.25848,-1.0682,-0.67822092,0.719663685,0.013244595
1764434972.3649638,-4.66956,2.25848,-1.0682,-0.67822092,0.719663685,0.013244595
1764434972.3649638,-4.66956,2.25848,-1.0682,-0.67822092,0.719663685,0.013244595
1764434972.3649638,-4.66956,2.25848,-1.0682,-0.67822092,0.719663685,0.013244595
1764434972.3649638,-4.66956,2.25848,-1.0682,-0.67822092,0.719663685,0.013244595
1764434972.3649638,-4.66956,2.25848,-1.0682,-0.67822092,0.719663685,0.013244595
1764434972.365981,-4.66956,2.25848,-1.0682,-0.67822092,0.719663685,0.013244595
1764434972.4058695,-4.2728,1.72438,-0.94612,-0.67907541,0.71862609,0.01306149
1764434972.4058695,-4.2728,1.72438,-0.94612,-0.67907541,0.71862609,0.01306149
1764434972.4058695,-4.2728,1.72438,-0.94612,-0.67907541,0.71862609,0.01306149
1764434972.4058695,-4.2728,1.72438,-0.94612,-0.67907541,0.71862609,0.01306149
1764434972.4058695,-4.2728,1.72438,-0.94612,-0.67907541,0.71862609,0.01306149
1764434972.4068882,-4.2728,1.72438,-0.94612,-0.67907541,0.71862609,0.01306149
1764434972.4068882,-4.2728,1.72438,-0.94612,-0.67907541,0.71862609,0.01306149
1764434972.4068882,-4.2728,1.72438,-0.94612,-0.67907541,0.71862609,0.01306149
1764434972.4068882,-4.2728,1.72438,-0.94612,-0.67907541,0.71862609,0.01306149
1764434972.407402,-4.2728,1.72438,-0.94612,-0.67907541,0.71862609,0.01306149
1764434972.407402,-3.64714,1.61756,-1.72438,-0.6790143750000001,0.71764953,0.013000455
1764434972.407402,-3.64714,1.61756,-1.72438,-0.6790143750000001,0.71764953,0.013000455
1764434972.407402,-3.64714,1.61756,-1.72438,-0.6790143750000001,0.71764953,0.013000455
1764434972.407402,-3.64714,1.61756,-1.72438,-0.6790143750000001,0.71764953,0.013000455
1764434972.407402,-3.64714,1.61756,-1.72438,-0.6790143750000001,0.71764953,0.013000455
1764434972.407402,-3.64714,1.61756,-1.72438,-0.6790143750000001,0.71764953,0.013000455
1764434972.407402,-3.64714,1.61756,-1.72438,-0.6790143750000001,0.71764953,0.013000455
1764434972.407402,-3.64714,1.61756,-1.72438,-0.6790143750000001,0.71764953,0.013000455
1764434972.407402,-3.64714,1.61756,-1.72438,-0.6790143750000001,0.71764953,0.013000455
1764434972.407402,-3.64714,1.61756,-1.72438,-0.6790143750000001,0.71764953,0.013000455
1764434972.407402,-4.02864,0.8392999999999999,-3.2046,-0.67956369,0.719175405,0.012756315
1764434972.407402,-4.02864,0.8392999999999999,-3.2046,-0.67956369,0.719175405,0.012756315
1764434972.407402,-4.02864,0.8392999999999999,-3.2046,-0.67956369,0.719175405,0.012756315
1764434972.407402,-4.02864,0.8392999999999999,-3.2046,-0.67956369,0.719175405,0.012756315
1764434972.4569745,-4.02864,0.8392999999999999,-3.2046,-0.67956369,0.719175405,0.012756315
1764434972.4574866,-4.02864,0.8392999999999999,-3.2046,-0.67956369,0.719175405,0.012756315
1764434972.4574866,-4.02864,0.8392999999999999,-3.2046,-0.67956369,0.719175405,0.012756315
1764434972.4574866,-4.02864,0.8392999999999999,-3.2046,-0.67956369,0.719175405,0.012756315
1764434972.4574866,-4.02864,0.8392999999999999,-3.2046,-0.67956369,0.719175405,0.012756315
1764434972.4574866,-4.02864,0.8392999999999999,-3.2046,-0.67956369,0.719175405,0.012756315
1764434972.4585054,-4.48644,0.93086,-2.6705,-0.67919748,0.72131163,0.014465295
1764434972.4585054,-4.48644,0.93086,-2.6705,-0.67919748,0.72131163,0.014465295
1764434972.4585054,-4.48644,0.93086,-2.6705,-0.67919748,0.72131163,0.014465295
1764434972.4593012,-4.48644,0.93086,-2.6705,-0.67919748,0.72131163,0.014465295
1764434972.4593012,-4.48644,0.93086,-2.6705,-0.67919748,0.72131163,0.014465295
1764434972.4593012,-4.48644,0.93086,-2.6705,-0.67919748,0.72131163,0.014465295
1764434972.4593012,-4.48644,0.93086,-2.6705,-0.67919748,0.72131163,0.014465295
1764434972.4593012,-4.48644,0.93086,-2.6705,-0.67919748,0.72131163,0.014465295
1764434972.4593012,-4.48644,0.93086,-2.6705,-0.67919748,0.72131163,0.014465295
1764434972.4603152,-4.48644,0.93086,-2.6705,-0.67919748,0.72131163,0.014465295
1764434972.4603152,-6.1803,1.7549,-2.5179,-0.679990935,0.722349225,0.014343225
1764434972.4603152,-6.1803,1.7549,-2.5179,-0.679990935,0.722349225,0.014343225
1764434972.4603152,-6.1803,1.7549,-2.5179,-0.679990935,0.722349225,0.014343225
1764434972.4603152,-6.1803,1.7549,-2.5179,-0.679990935,0.722349225,0.014343225
1764434972.4603152,-6.1803,1.7549,-2.5179,-0.679990935,0.722349225,0.014343225
1764434972.4603152,-6.1803,1.7549,-2.5179,-0.679990935,0.722349225,0.014343225
1764434972.4613197,-6.1803,1.7549,-2.5179,-0.679990935,0.722349225,0.014343225
1764434972.4613197,-6.1803,1.7549,-2.5179,-0.679990935,0.722349225,0.014343225
1764434972.503205,-6.1803,1.7549,-2.5179,-0.679990935,0.722349225,0.014343225
1764434972.503205,-6.1803,1.7549,-2.5179,-0.679990935,0.722349225,0.014343225
1764434972.503205,-6.104,2.2127,-2.7468,-0.6810895650000001,0.72192198,0.014099085
1764434972.503205,-6.104,2.2127,-2.7468,-0.6810895650000001,0.72192198,0.014099085
1764434972.503205,-6.104,2.2127,-2.7468,-0.6810895650000001,0.72192198,0.014099085
1764434972.503205,-6.104,2.2127,-2.7468,-0.6810895650000001,0.72192198,0.014099085
1764434972.503205,-6.104,2.2127,-2.7468,-0.6810895650000001,0.72192198,0.014099085
1764434972.503205,-6.104,2.2127,-2.7468,-0.6810895650000001,0.72192198,0.014099085
1764434972.503205,-6.104,2.2127,-2.7468,-0.6810895650000001,0.72192198,0.014099085
1764434972.503205,-6.104,2.2127,-2.7468,-0.6810895650000001,0.72192198,0.014099085
1764434972.5042071,-6.104,2.2127,-2.7468,-0.6810895650000001,0.72192198,0.014099085
1764434972.5042071,-6.104,2.2127,-2.7468,-0.6810895650000001,0.72192198,0.014099085
1764434972.5042071,-5.9514,2.48738,-3.72344,-0.681577845,0.719175405,0.01416012
1764434972.5042071,-5.9514,2.48738,-3.72344,-0.681577845,0.719175405,0.01416012
1764434972.5042071,-5.9514,2.48738,-3.72344,-0.681577845,0.719175405,0.01416012
1764434972.5042071,-5.9514,2.48738,-3.72344,-0.681577845,0.719175405,0.01416012
1764434972.5042071,-5.9514,2.48738,-3.72344,-0.681577845,0.719175405,0.01416012
1764434972.5042071,-5.9514,2.48738,-3.72344,-0.681577845,0.719175405,0.01416012
1764434972.505204,-5.9514,2.48738,-3.72344,-0.681577845,0.719175405,0.01416012
1764434972.505204,-5.9514,2.48738,-3.72344,-0.681577845,0.719175405,0.01416012
1764434972.505204,-5.9514,2.48738,-3.72344,-0.681577845,0.719175405,0.01416012
1764434972.505204,-5.9514,2.48738,-3.72344,-0.681577845,0.719175405,0.01416012
1764434972.5490534,-6.28712,3.38772,-3.44876,-0.681455775,0.71496399,0.014221155
1764434972.5490534,-6.28712,3.38772,-3.44876,-0.681455775,0.71496399,0.014221155
1764434972.5490534,-6.28712,3.38772,-3.44876,-0.681455775,0.71496399,0.014221155
1764434972.5490534,-6.28712,3.38772,-3.44876,-0.681455775,0.71496399,0.014221155
1764434972.5490534,-6.28712,3.38772,-3.44876,-0.681455775,0.71496399,0.014221155
1764434972.5500717,-6.28712,3.38772,-3.44876,-0.681455775,0.71496399,0.014221155
1764434972.5500717,-6.28712,3.38772,-3.44876,-0.681455775,0.71496399,0.014221155
1764434972.5500717,-6.28712,3.38772,-3.44876,-0.681455775,0.71496399,0.014221155
1764434972.5500717,-6.28712,3.38772,-3.44876,-0.681455775,0.71496399,0.014221155
1764434972.5500717,-6.28712,3.38772,-3.44876,-0.681455775,0.71496399,0.014221155
1764434972.5500717,-6.07348,2.91466,-2.60946,-0.6821271600000001,0.711607065,0.014709435
1764434972.5500717,-6.07348,2.91466,-2.60946,-0.6821271600000001,0.711607065,0.014709435
1764434972.5500717,-6.07348,2.91466,-2.60946,-0.6821271600000001,0.711607065,0.014709435
1764434972.5520675,-6.07348,2.91466,-2.60946,-0.6821271600000001,0.711607065,0.014709435
1764434972.5520675,-6.07348,2.91466,-2.60946,-0.6821271600000001,0.711607065,0.014709435
1764434972.5520675,-6.07348,2.91466,-2.60946,-0.6821271600000001,0.711607065,0.014709435
1764434972.5520675,-6.07348,2.91466,-2.60946,-0.6821271600000001,0.711607065,0.014709435
1764434972.5520675,-6.07348,2.91466,-2.60946,-0.6821271600000001,0.711607065,0.014709435
1764434972.5520675,-6.07348,2.91466,-2.60946,-0.6821271600000001,0.711607065,0.014709435
1764434972.5520675,-6.07348,2.91466,-2.60946,-0.6821271600000001,0.711607065,0.014709435
1764434972.5520675,-6.165039999999999,2.30426,-2.3653,-0.68346993,0.70983705,0.01379391
1764434972.5520675,-6.165039999999999,2.30426,-2.3653,-0.68346993,0.70983705,0.01379391
1764434972.5520675,-6.165039999999999,2.30426,-2.3653,-0.68346993,0.70983705,0.01379391
1764434972.5520675,-6.165039999999999,2.30426,-2.3653,-0.68346993,0.70983705,0.01379391
1764434972.553066,-6.165039999999999,2.30426,-2.3653,-0.68346993,0.70983705,0.01379391
1764434972.553066,-6.165039999999999,2.30426,-2.3653,-0.68346993,0.70983705,0.01379391
1764434972.595829,-6.165039999999999,2.30426,-2.3653,-0.68346993,0.70983705,0.01379391
1764434972.595829,-6.165039999999999,2.30426,-2.3653,-0.68346993,0.70983705,0.01379391
1764434972.5963626,-6.165039999999999,2.30426,-2.3653,-0.68346993,0.70983705,0.01379391
1764434972.5963626,-6.165039999999999,2.30426,-2.3653,-0.68346993,0.70983705,0.01379391
1764434972.5963626,-4.15072,1.12924,-1.32762,-0.684629595,0.707334615,0.01391598
1764434972.5963626,-4.15072,1.12924,-1.32762,-0.684629595,0.707334615,0.01391598
1764434972.5963626,-4.15072,1.12924,-1.32762,-0.684629595,0.707334615,0.01391598
1764434972.5963626,-4.15072,1.12924,-1.32762,-0.684629595,0.707334615,0.01391598
1764434972.5963626,-4.15072,1.12924,-1.32762,-0.684629595,0.707334615,0.01391598
1764434972.5963626,-4.15072,1.12924,-1.32762,-0.684629595,0.707334615,0.01391598
1764434972.5963626,-4.15072,1.12924,-1.32762,-0.684629595,0.707334615,0.01391598
1764434972.5963626,-4.15072,1.12924,-1.32762,-0.684629595,0.707334615,0.01391598
1764434972.5968957,-4.15072,1.12924,-1.32762,-0.684629595,0.707334615,0.01391598
1764434972.5968957,-4.15072,1.12924,-1.32762,-0.684629595,0.707334615,0.01391598
1764434972.5968957,-2.42634,0.79352,-0.8698199999999999,-0.684995805,0.708189105,0.014831505
1764434972.5968957,-2.42634,0.79352,-0.8698199999999999,-0.684995805,0.708189105,0.014831505
1764434972.5968957,-2.42634,0.79352,-0.8698199999999999,-0.684995805,0.708189105,0.014831505
1764434972.5968957,-2.42634,0.79352,-0.8698199999999999,-0.684995805,0.708189105,0.014831505
1764434972.5968957,-2.42634,0.79352,-0.8698199999999999,-0.684995805,0.708189105,0.014831505
1764434972.5968957,-2.42634,0.79352,-0.8698199999999999,-0.684995805,0.708189105,0.014831505
1764434972.5968957,-2.42634,0.79352,-0.8698199999999999,-0.684995805,0.708189105,0.014831505
1764434972.5968957,-2.42634,0.79352,-0.8698199999999999,-0.684995805,0.708189105,0.014831505
1764434972.6451862,-2.42634,0.79352,-0.8698199999999999,-0.684995805,0.708189105,0.014831505
1764434972.6451862,-2.42634,0.79352,-0.8698199999999999,-0.684995805,0.708189105,0.014831505
1764434972.6451862,-1.17502,1.25132,-0.19838,-0.68383614,0.7088604900000001,0.01611324
1764434972.6451862,-1.17502,1.25132,-0.19838,-0.68383614,0.7088604900000001,0.01611324
1764434972.6451862,-1.17502,1.25132,-0.19838,-0.68383614,0.7088604900000001,0.01611324
1764434972.6451862,-1.17502,1.25132,-0.19838,-0.68383614,0.7088604900000001,0.01611324
1764434972.6451862,-1.17502,1.25132,-0.19838,-0.68383614,0.7088604900000001,0.01611324
1764434972.6451862,-1.17502,1.25132,-0.19838,-0.68383614,0.7088604900000001,0.01611324
1764434972.6451862,-1.17502,1.25132,-0.19838,-0.68383614,0.7088604900000001,0.01611324
1764434972.6451862,-1.17502,1.25132,-0.19838,-0.68383614,0.7088604900000001,0.01611324
1764434972.6451862,-1.17502,1.25132,-0.19838,-0.68383614,0.7088604900000001,0.01611324
1764434972.6451862,-1.17502,1.25132,-0.19838,-0.68383614,0.7088604900000001,0.01611324
1764434972.6451862,-2.41108,4.059159999999999,0.12208,-0.681455775,0.710874645,0.015808065
1764434972.6451862,-2.41108,4.059159999999999,0.12208,-0.681455775,0.710874645,0.015808065
1764434972.6462026,-2.41108,4.059159999999999,0.12208,-0.681455775,0.710874645,0.015808065
1764434972.6462026,-2.41108,4.059159999999999,0.12208,-0.681455775,0.710874645,0.015808065
1764434972.6462026,-2.41108,4.059159999999999,0.12208,-0.681455775,0.710874645,0.015808065
1764434972.6462026,-2.41108,4.059159999999999,0.12208,-0.681455775,0.710874645,0.015808065
1764434972.6462026,-2.41108,4.059159999999999,0.12208,-0.681455775,0.710874645,0.015808065
1764434972.6462026,-2.41108,4.059159999999999,0.12208,-0.681455775,0.710874645,0.015808065
1764434972.6462026,-2.41108,4.059159999999999,0.12208,-0.681455775,0.710874645,0.015808065
1764434972.6462026,-2.41108,4.059159999999999,0.12208,-0.681455775,0.710874645,0.015808065
1764434972.6462026,-4.70008,3.60136,0.0,-0.68420235,0.713438115,0.01428219
1764434972.6462026,-4.70008,3.60136,0.0,-0.68420235,0.713438115,0.01428219
1764434972.6903875,-4.70008,3.60136,0.0,-0.68420235,0.713438115,0.01428219
1764434972.6903875,-4.70008,3.60136,0.0,-0.68420235,0.713438115,0.01428219
1764434972.6903875,-4.70008,3.60136,0.0,-0.68420235,0.713438115,0.01428219
1764434972.6903875,-4.70008,3.60136,0.0,-0.68420235,0.713438115,0.01428219
1764434972.6903875,-4.70008,3.60136,0.0,-0.68420235,0.713438115,0.01428219
1764434972.6903875,-4.70008,3.60136,0.0,-0.68420235,0.713438115,0.01428219
1764434972.6903875,-4.70008,3.60136,0.0,-0.68420235,0.713438115,0.01428219
1764434972.6903875,-4.70008,3.60136,0.0,-0.68420235,0.713438115,0.01428219
1764434972.6903875,-5.35626,2.53316,-0.59514,-0.686826855,0.715513305,0.01428219
1764434972.6903875,-5.35626,2.53316,-0.59514,-0.686826855,0.715513305,0.01428219
1764434972.6903875,-5.35626,2.53316,-0.59514,-0.686826855,0.715513305,0.01428219
1764434972.6903875,-5.35626,2.53316,-0.59514,-0.686826855,0.715513305,0.01428219
1764434972.6903875,-5.35626,2.53316,-0.59514,-0.686826855,0.715513305,0.01428219
1764434972.6909206,-5.35626,2.53316,-0.59514,-0.686826855,0.715513305,0.01428219
1764434972.6909206,-5.35626,2.53316,-0.59514,-0.686826855,0.715513305,0.01428219
1764434972.6909206,-5.35626,2.53316,-0.59514,-0.686826855,0.715513305,0.01428219
1764434972.6909206,-5.35626,2.53316,-0.59514,-0.686826855,0.715513305,0.01428219
1764434972.6909206,-5.35626,2.53316,-0.59514,-0.686826855,0.715513305,0.01428219
1764434972.6909206,-3.95234,1.64808,-0.42728,-0.687193065,0.714902955,0.01318356
1764434972.6909206,-3.95234,1.64808,-0.42728,-0.687193065,0.714902955,0.01318356
1764434972.6909206,-3.95234,1.64808,-0.42728,-0.687193065,0.714902955,0.01318356
1764434972.6909206,-3.95234,1.64808,-0.42728,-0.687193065,0.714902955,0.01318356
1764434972.737611,-3.95234,1.64808,-0.42728,-0.687193065,0.714902955,0.01318356
1764434972.737611,-3.95234,1.64808,-0.42728,-0.687193065,0.714902955,0.01318356
1764434972.737611,-3.95234,1.64808,-0.42728,-0.687193065,0.714902955,0.01318356
1764434972.737611,-3.95234,1.64808,-0.42728,-0.687193065,0.714902955,0.01318356
1764434972.737611,-3.95234,1.64808,-0.42728,-0.687193065,0.714902955,0.01318356
1764434972.737611,-3.95234,1.64808,-0.42728,-0.687193065,0.714902955,0.01318356
1764434972.737611,-2.24322,2.19744,-0.0762999999999999,-0.685239945,0.714780885,0.01293942
1764434972.737611,-2.24322,2.19744,-0.0762999999999999,-0.685239945,0.714780885,0.01293942
1764434972.737611,-2.24322,2.19744,-0.0762999999999999,-0.685239945,0.714780885,0.01293942
1764434972.737611,-2.24322,2.19744,-0.0762999999999999,-0.685239945,0.714780885,0.01293942
1764434972.737611,-2.24322,2.19744,-0.0762999999999999,-0.685239945,0.714780885,0.01293942
1764434972.737611,-2.24322,2.19744,-0.0762999999999999,-0.685239945,0.714780885,0.01293942
1764434972.737611,-2.24322,2.19744,-0.0762999999999999,-0.685239945,0.714780885,0.01293942
1764434972.737611,-2.24322,2.19744,-0.0762999999999999,-0.685239945,0.714780885,0.01293942
1764434972.737611,-2.24322,2.19744,-0.0762999999999999,-0.685239945,0.714780885,0.01293942
1764434972.737611,-2.24322,2.19744,-0.0762999999999999,-0.685239945,0.714780885,0.01293942
1764434972.737611,-2.53316,3.9676,-0.04578,-0.68420235,0.71545227,0.01281735
1764434972.737611,-2.53316,3.9676,-0.04578,-0.68420235,0.71545227,0.01281735
1764434972.737611,-2.53316,3.9676,-0.04578,-0.68420235,0.71545227,0.01281735
1764434972.737611,-2.53316,3.9676,-0.04578,-0.68420235,0.71545227,0.01281735
1764434972.737611,-2.53316,3.9676,-0.04578,-0.68420235,0.71545227,0.01281735
1764434972.737611,-2.53316,3.9676,-0.04578,-0.68420235,0.71545227,0.01281735
1764434972.737611,-2.53316,3.9676,-0.04578,-0.68420235,0.71545227,0.01281735
1764434972.737611,-2.53316,3.9676,-0.04578,-0.68420235,0.71545227,0.01281735
1764434972.7854116,-2.53316,3.9676,-0.04578,-0.68420235,0.71545227,0.01281735
1764434972.7854116,-2.53316,3.9676,-0.04578,-0.68420235,0.71545227,0.01281735
1764434972.7854116,-4.715339999999999,3.93708,-0.79352,-0.68542305,0.71618469,0.013732875
1764434972.7854116,-4.715339999999999,3.93708,-0.79352,-0.68542305,0.71618469,0.013732875
1764434972.7854116,-4.715339999999999,3.93708,-0.79352,-0.68542305,0.71618469,0.013732875
1764434972.7854116,-4.715339999999999,3.93708,-0.79352,-0.68542305,0.71618469,0.013732875
1764434972.7854116,-4.715339999999999,3.93708,-0.79352,-0.68542305,0.71618469,0.013732875
1764434972.7854116,-4.715339999999999,3.93708,-0.79352,-0.68542305,0.71618469,0.013732875
1764434972.7854116,-4.715339999999999,3.93708,-0.79352,-0.68542305,0.71618469,0.013732875
1764434972.7869227,-4.715339999999999,3.93708,-0.79352,-0.68542305,0.71618469,0.013732875
1764434972.7869227,-4.715339999999999,3.93708,-0.79352,-0.68542305,0.71618469,0.013732875
1764434972.7869227,-4.715339999999999,3.93708,-0.79352,-0.68542305,0.71618469,0.013732875
1764434972.7869227,-7.065379999999999,4.16598,-3.17408,-0.686460645,0.716245725,0.01440426
1764434972.7869227,-7.065379999999999,4.16598,-3.17408,-0.686460645,0.716245725,0.01440426
1764434972.7869227,-7.065379999999999,4.16598,-3.17408,-0.686460645,0.716245725,0.01440426
1764434972.7869227,-7.065379999999999,4.16598,-3.17408,-0.686460645,0.716245725,0.01440426
1764434972.7879364,-7.065379999999999,4.16598,-3.17408,-0.686460645,0.716245725,0.01440426
1764434972.7879364,-7.065379999999999,4.16598,-3.17408,-0.686460645,0.716245725,0.01440426
1764434972.7879364,-7.065379999999999,4.16598,-3.17408,-0.686460645,0.716245725,0.01440426
1764434972.7879364,-7.065379999999999,4.16598,-3.17408,-0.686460645,0.716245725,0.01440426
1764434972.7879364,-7.065379999999999,4.16598,-3.17408,-0.686460645,0.716245725,0.01440426
1764434972.7879364,-7.065379999999999,4.16598,-3.17408,-0.686460645,0.716245725,0.01440426
1764434972.7879364,-8.20988,5.58516,-4.10494,-0.68627754,0.71630676,0.014465295
1764434972.7879364,-8.20988,5.58516,-4.10494,-0.68627754,0.71630676,0.014465295
1764434972.8339643,-8.20988,5.58516,-4.10494,-0.68627754,0.71630676,0.014465295
1764434972.8339643,-8.20988,5.58516,-4.10494,-0.68627754,0.71630676,0.014465295
1764434972.8339643,-8.20988,5.58516,-4.10494,-0.68627754,0.71630676,0.014465295
1764434972.8339643,-8.20988,5.58516,-4.10494,-0.68627754,0.71630676,0.014465295
1764434972.8339643,-8.20988,5.58516,-4.10494,-0.68627754,0.71630676,0.014465295
1764434972.8339643,-8.20988,5.58516,-4.10494,-0.68627754,0.71630676,0.014465295
1764434972.8339643,-8.20988,5.58516,-4.10494,-0.68627754,0.71630676,0.014465295
1764434972.8339643,-8.20988,5.58516,-4.10494,-0.68627754,0.71630676,0.014465295
1764434972.8339643,-7.52318,6.08874,-2.42634,-0.687559275,0.715269165,0.01440426
1764434972.8339643,-7.52318,6.08874,-2.42634,-0.687559275,0.715269165,0.01440426
1764434972.8339643,-7.52318,6.08874,-2.42634,-0.687559275,0.715269165,0.01440426
1764434972.8339643,-7.52318,6.08874,-2.42634,-0.687559275,0.715269165,0.01440426
1764434972.8339643,-7.52318,6.08874,-2.42634,-0.687559275,0.715269165,0.01440426
1764434972.8339643,-7.52318,6.08874,-2.42634,-0.687559275,0.715269165,0.01440426
1764434972.8339643,-7.52318,6.08874,-2.42634,-0.687559275,0.715269165,0.01440426
1764434972.8339643,-7.52318,6.08874,-2.42634,-0.687559275,0.715269165,0.01440426
1764434972.8339643,-7.52318,6.08874,-2.42634,-0.687559275,0.715269165,0.01440426
1764434972.8339643,-7.52318,6.08874,-2.42634,-0.687559275,0.715269165,0.01440426
1764434972.8339643,-6.04296,4.8069,-2.7468,-0.687803415,0.7114849950000001,0.01489254
1764434972.8339643,-6.04296,4.8069,-2.7468,-0.687803415,0.7114849950000001,0.01489254
1764434972.8339643,-6.04296,4.8069,-2.7468,-0.687803415,0.7114849950000001,0.01489254
1764434972.8339643,-6.04296,4.8069,-2.7468,-0.687803415,0.7114849950000001,0.01489254
1764434972.8339643,-6.04296,4.8069,-2.7468,-0.687803415,0.7114849950000001,0.01489254
1764434972.8339643,-6.04296,4.8069,-2.7468,-0.687803415,0.7114849950000001,0.01489254
1764434972.8783274,-6.04296,4.8069,-2.7468,-0.687803415,0.7114849950000001,0.01489254
1764434972.8783274,-6.04296,4.8069,-2.7468,-0.687803415,0.7114849950000001,0.01489254
1764434972.8783274,-6.04296,4.8069,-2.7468,-0.687803415,0.7114849950000001,0.01489254
1764434972.8798437,-6.04296,4.8069,-2.7468,-0.687803415,0.7114849950000001,0.01489254
1764434972.8798437,-6.11926,4.99002,-4.0439,-0.68639961,0.7088604900000001,0.013122525
1764434972.8798437,-6.11926,4.99002,-4.0439,-0.68639961,0.7088604900000001,0.013122525
1764434972.8798437,-6.11926,4.99002,-4.0439,-0.68639961,0.7088604900000001,0.013122525
1764434972.8798437,-6.11926,4.99002,-4.0439,-0.68639961,0.7088604900000001,0.013122525
1764434972.8798437,-6.11926,4.99002,-4.0439,-0.68639961,0.7088604900000001,0.013122525
1764434972.8798437,-6.11926,4.99002,-4.0439,-0.68639961,0.7088604900000001,0.013122525
1764434972.8808596,-6.11926,4.99002,-4.0439,-0.68639961,0.7088604900000001,0.013122525
1764434972.8808596,-6.11926,4.99002,-4.0439,-0.68639961,0.7088604900000001,0.013122525
1764434972.8808596,-6.11926,4.99002,-4.0439,-0.68639961,0.7088604900000001,0.013122525
1764434972.8808596,-6.11926,4.99002,-4.0439,-0.68639961,0.7088604900000001,0.013122525
1764434972.8808596,-3.98286,4.0439,-4.39488,-0.68578926,0.70776186,0.01074216
1764434972.8818586,-3.98286,4.0439,-4.39488,-0.68578926,0.70776186,0.01074216
1764434972.8818586,-3.98286,4.0439,-4.39488,-0.68578926,0.70776186,0.01074216
1764434972.8822515,-3.98286,4.0439,-4.39488,-0.68578926,0.70776186,0.01074216
1764434972.8822515,-3.98286,4.0439,-4.39488,-0.68578926,0.70776186,0.01074216
1764434972.8822515,-3.98286,4.0439,-4.39488,-0.68578926,0.70776186,0.01074216
1764434972.8828566,-3.98286,4.0439,-4.39488,-0.68578926,0.70776186,0.01074216
1764434972.8828566,-3.98286,4.0439,-4.39488,-0.68578926,0.70776186,0.01074216
1764434972.9258602,-3.98286,4.0439,-4.39488,-0.68578926,0.70776186,0.01074216
1764434972.9258602,-3.98286,4.0439,-4.39488,-0.68578926,0.70776186,0.01074216
1764434972.926872,-2.25848,2.53316,-3.46402,-0.686582715,0.711851205,0.00671385
1764434972.926872,-2.25848,2.53316,-3.46402,-0.686582715,0.711851205,0.00671385
1764434972.926872,-2.25848,2.53316,-3.46402,-0.686582715,0.711851205,0.00671385
1764434972.926872,-2.25848,2.53316,-3.46402,-0.686582715,0.711851205,0.00671385
1764434972.926872,-2.25848,2.53316,-3.46402,-0.686582715,0.711851205,0.00671385
1764434972.926872,-2.25848,2.53316,-3.46402,-0.686582715,0.711851205,0.00671385
1764434972.926872,-2.25848,2.53316,-3.46402,-0.686582715,0.711851205,0.00671385
1764434972.928019,-2.25848,2.53316,-3.46402,-0.686582715,0.711851205,0.00671385
1764434972.928019,-2.25848,2.53316,-3.46402,-0.686582715,0.711851205,0.00671385
1764434972.928019,-2.25848,2.53316,-3.46402,-0.686582715,0.711851205,0.00671385
1764434972.928019,-2.10588,1.0682,-3.32668,-0.68786445,0.71740539,0.003601065
1764434972.928019,-2.10588,1.0682,-3.32668,-0.68786445,0.71740539,0.003601065
1764434972.9290206,-2.10588,1.0682,-3.32668,-0.68786445,0.71740539,0.003601065
1764434972.929402,-2.10588,1.0682,-3.32668,-0.68786445,0.71740539,0.003601065
1764434972.929402,-2.10588,1.0682,-3.32668,-0.68786445,0.71740539,0.003601065
1764434972.929402,-2.10588,1.0682,-3.32668,-0.68786445,0.71740539,0.003601065
1764434972.929402,-2.10588,1.0682,-3.32668,-0.68786445,0.71740539,0.003601065
1764434972.929402,-2.10588,1.0682,-3.32668,-0.68786445,0.71740539,0.003601065
1764434972.929402,-2.10588,1.0682,-3.32668,-0.68786445,0.71740539,0.003601065
1764434972.929402,-2.10588,1.0682,-3.32668,-0.68786445,0.71740539,0.003601065
1764434972.929402,-4.70008,-0.0762999999999999,-4.22702,-0.68676582,0.720029895,0.003601065
1764434972.929402,-4.70008,-0.0762999999999999,-4.22702,-0.68676582,0.720029895,0.003601065
1764434972.9735465,-4.70008,-0.0762999999999999,-4.22702,-0.68676582,0.720029895,0.003601065
1764434972.9735465,-4.70008,-0.0762999999999999,-4.22702,-0.68676582,0.720029895,0.003601065
1764434972.9735465,-4.70008,-0.0762999999999999,-4.22702,-0.68676582,0.720029895,0.003601065
1764434972.9735465,-4.70008,-0.0762999999999999,-4.22702,-0.68676582,0.720029895,0.003601065
1764434972.9735465,-4.70008,-0.0762999999999999,-4.22702,-0.68676582,0.720029895,0.003601065
1764434972.9735465,-4.70008,-0.0762999999999999,-4.22702,-0.68676582,0.720029895,0.003601065
1764434972.9735465,-4.70008,-0.0762999999999999,-4.22702,-0.68676582,0.720029895,0.003601065
1764434972.9735465,-4.70008,-0.0762999999999999,-4.22702,-0.68676582,0.720029895,0.003601065
1764434972.9735465,-8.13358,2.30426,-4.91372,-0.684873735,0.71838195,0.00598143
1764434972.9735465,-8.13358,2.30426,-4.91372,-0.684873735,0.71838195,0.00598143
1764434972.9735465,-8.13358,2.30426,-4.91372,-0.684873735,0.71838195,0.00598143
1764434972.9735465,-8.13358,2.30426,-4.91372,-0.684873735,0.71838195,0.00598143
1764434972.9735465,-8.13358,2.30426,-4.91372,-0.684873735,0.71838195,0.00598143
1764434972.9735465,-8.13358,2.30426,-4.91372,-0.684873735,0.71838195,0.00598143
1764434972.9745407,-8.13358,2.30426,-4.91372,-0.684873735,0.71838195,0.00598143
1764434972.9745407,-8.13358,2.30426,-4.91372,-0.684873735,0.71838195,0.00598143
1764434972.9745407,-8.13358,2.30426,-4.91372,-0.684873735,0.71838195,0.00598143
1764434972.9745407,-8.13358,2.30426,-4.91372,-0.684873735,0.71838195,0.00598143
1764434972.9745407,-10.86512,5.15788,-4.21176,-0.6837140700000001,0.712949835,0.00878904
1764434972.9745407,-10.86512,5.15788,-4.21176,-0.6837140700000001,0.712949835,0.00878904
1764434972.9755433,-10.86512,5.15788,-4.21176,-0.6837140700000001,0.712949835,0.00878904
1764434972.9755433,-10.86512,5.15788,-4.21176,-0.6837140700000001,0.712949835,0.00878904
1764434972.9755433,-10.86512,5.15788,-4.21176,-0.6837140700000001,0.712949835,0.00878904
1764434972.9755433,-10.86512,5.15788,-4.21176,-0.6837140700000001,0.712949835,0.00878904
1764434973.0200157,-10.86512,5.15788,-4.21176,-0.6837140700000001,0.712949835,0.00878904
1764434973.0200157,-10.86512,5.15788,-4.21176,-0.6837140700000001,0.712949835,0.00878904
1764434973.0200157,-10.86512,5.15788,-4.21176,-0.6837140700000001,0.712949835,0.00878904
1764434973.0200157,-10.86512,5.15788,-4.21176,-0.6837140700000001,0.712949835,0.00878904
1764434973.0200157,-9.81218,5.82932,-3.08252,-0.686582715,0.70507632,0.008972145
1764434973.0200157,-9.81218,5.82932,-3.08252,-0.686582715,0.70507632,0.008972145
1764434973.0200157,-9.81218,5.82932,-3.08252,-0.686582715,0.70507632,0.008972145
1764434973.0200157,-9.81218,5.82932,-3.08252,-0.686582715,0.70507632,0.008972145
1764434973.0200157,-9.81218,5.82932,-3.08252,-0.686582715,0.70507632,0.008972145
1764434973.0200157,-9.81218,5.82932,-3.08252,-0.686582715,0.70507632,0.008972145
1764434973.0200157,-9.81218,5.82932,-3.08252,-0.686582715,0.70507632,0.008972145
1764434973.0200157,-9.81218,5.82932,-3.08252,-0.686582715,0.70507632,0.008972145
1764434973.0200157,-9.81218,5.82932,-3.08252,-0.686582715,0.70507632,0.008972145
1764434973.0200157,-9.81218,5.82932,-3.08252,-0.686582715,0.70507632,0.008972145
1764434973.0200157,-5.615679999999999,2.80784,-0.6714399999999999,-0.690855165,0.69665349,0.00866697
1764434973.0200157,-5.615679999999999,2.80784,-0.6714399999999999,-0.690855165,0.69665349,0.00866697
1764434973.0200157,-5.615679999999999,2.80784,-0.6714399999999999,-0.690855165,0.69665349,0.00866697
1764434973.0200157,-5.615679999999999,2.80784,-0.6714399999999999,-0.690855165,0.69665349,0.00866697
1764434973.0200157,-5.615679999999999,2.80784,-0.6714399999999999,-0.690855165,0.69665349,0.00866697
1764434973.0200157,-5.615679999999999,2.80784,-0.6714399999999999,-0.690855165,0.69665349,0.00866697
1764434973.0200157,-5.615679999999999,2.80784,-0.6714399999999999,-0.690855165,0.69665349,0.00866697
1764434973.0200157,-5.615679999999999,2.80784,-0.6714399999999999,-0.690855165,0.69665349,0.00866697
1764434973.0640118,-5.615679999999999,2.80784,-0.6714399999999999,-0.690855165,0.69665349,0.00866697
1764434973.0640118,-5.615679999999999,2.80784,-0.6714399999999999,-0.690855165,0.69665349,0.00866697
1764434973.0640118,-0.0762999999999999,0.04578,1.49548,-0.695615895,0.69128241,0.008361795
1764434973.0640118,-0.0762999999999999,0.04578,1.49548,-0.695615895,0.69128241,0.008361795
1764434973.0640118,-0.0762999999999999,0.04578,1.49548,-0.695615895,0.69128241,0.008361795
1764434973.0640118,-0.0762999999999999,0.04578,1.49548,-0.695615895,0.69128241,0.008361795
1764434973.0640118,-0.0762999999999999,0.04578,1.49548,-0.695615895,0.69128241,0.008361795
1764434973.0640118,-0.0762999999999999,0.04578,1.49548,-0.695615895,0.69128241,0.008361795
1764434973.0640118,-0.0762999999999999,0.04578,1.49548,-0.695615895,0.69128241,0.008361795
1764434973.0640118,-0.0762999999999999,0.04578,1.49548,-0.695615895,0.69128241,0.008361795
1764434973.0640118,-0.0762999999999999,0.04578,1.49548,-0.695615895,0.69128241,0.008361795
1764434973.0640118,-0.0762999999999999,0.04578,1.49548,-0.695615895,0.69128241,0.008361795
1764434973.0640118,2.5942,-1.31236,3.14356,-0.698179365,0.69140448,0.00915525
1764434973.0640118,2.5942,-1.31236,3.14356,-0.698179365,0.69140448,0.00915525
1764434973.0640118,2.5942,-1.31236,3.14356,-0.698179365,0.69140448,0.00915525
1764434973.0640118,2.5942,-1.31236,3.14356,-0.698179365,0.69140448,0.00915525
1764434973.0640118,2.5942,-1.31236,3.14356,-0.698179365,0.69140448,0.00915525
1764434973.0640118,2.5942,-1.31236,3.14356,-0.698179365,0.69140448,0.00915525
1764434973.0640118,2.5942,-1.31236,3.14356,-0.698179365,0.69140448,0.00915525
1764434973.0640118,2.5942,-1.31236,3.14356,-0.698179365,0.69140448,0.00915525
1764434973.0655243,2.5942,-1.31236,3.14356,-0.698179365,0.69140448,0.00915525
1764434973.0655243,2.5942,-1.31236,3.14356,-0.698179365,0.69140448,0.00915525
1764434973.0655243,3.5861,-0.97664,4.36436,-0.695860035,0.69518865,0.01013181
1764434973.0655243,3.5861,-0.97664,4.36436,-0.695860035,0.69518865,0.01013181
1764434973.1100538,3.5861,-0.97664,4.36436,-0.695860035,0.69518865,0.01013181
1764434973.1100538,3.5861,-0.97664,4.36436,-0.695860035,0.69518865,0.01013181
1764434973.1100538,3.5861,-0.97664,4.36436,-0.695860035,0.69518865,0.01013181
1764434973.1100538,3.5861,-0.97664,4.36436,-0.695860035,0.69518865,0.01013181
1764434973.1100538,3.5861,-0.97664,4.36436,-0.695860035,0.69518865,0.01013181
1764434973.1100538,3.5861,-0.97664,4.36436,-0.695860035,0.69518865,0.01013181
1764434973.1100538,3.5861,-0.97664,4.36436,-0.695860035,0.69518865,0.01013181
1764434973.1100538,3.5861,-0.97664,4.36436,-0.695860035,0.69518865,0.01013181
1764434973.1100538,2.8994,-0.06104,3.95234,-0.692930355,0.6999493800000001,0.01123044
1764434973.1100538,2.8994,-0.06104,3.95234,-0.692930355,0.6999493800000001,0.01123044
1764434973.1110654,2.8994,-0.06104,3.95234,-0.692930355,0.6999493800000001,0.01123044
1764434973.1110654,2.8994,-0.06104,3.95234,-0.692930355,0.6999493800000001,0.01123044
1764434973.1110654,2.8994,-0.06104,3.95234,-0.692930355,0.6999493800000001,0.01123044
1764434973.1110654,2.8994,-0.06104,3.95234,-0.692930355,0.6999493800000001,0.01123044
1764434973.1110654,2.8994,-0.06104,3.95234,-0.692930355,0.6999493800000001,0.01123044
1764434973.1110654,2.8994,-0.06104,3.95234,-0.692930355,0.6999493800000001,0.01123044
1764434973.1110654,2.8994,-0.06104,3.95234,-0.692930355,0.6999493800000001,0.01123044
1764434973.1110654,2.8994,-0.06104,3.95234,-0.692930355,0.6999493800000001,0.01123044
1764434973.1110654,0.3509799999999999,0.82404,1.58704,-0.69164862,0.70605288,0.0109863
1764434973.1110654,0.3509799999999999,0.82404,1.58704,-0.69164862,0.70605288,0.0109863
1764434973.1110654,0.3509799999999999,0.82404,1.58704,-0.69164862,0.70605288,0.0109863
1764434973.1110654,0.3509799999999999,0.82404,1.58704,-0.69164862,0.70605288,0.0109863
1764434973.154853,0.3509799999999999,0.82404,1.58704,-0.69164862,0.70605288,0.0109863
1764434973.154853,0.3509799999999999,0.82404,1.58704,-0.69164862,0.70605288,0.0109863
1764434973.1563804,0.3509799999999999,0.82404,1.58704,-0.69164862,0.70605288,0.0109863
1764434973.1563804,0.3509799999999999,0.82404,1.58704,-0.69164862,0.70605288,0.0109863
1764434973.1563804,0.3509799999999999,0.82404,1.58704,-0.69164862,0.70605288,0.0109863
1764434973.1563804,0.3509799999999999,0.82404,1.58704,-0.69164862,0.70605288,0.0109863
1764434973.1563804,-2.54842,0.97664,0.56462,-0.690611025,0.71227845,0.010314915
1764434973.1568918,-2.54842,0.97664,0.56462,-0.690611025,0.71227845,0.010314915
1764434973.1568918,-2.54842,0.97664,0.56462,-0.690611025,0.71227845,0.010314915
1764434973.1568918,-2.54842,0.97664,0.56462,-0.690611025,0.71227845,0.010314915
1764434973.1568918,-2.54842,0.97664,0.56462,-0.690611025,0.71227845,0.010314915
1764434973.157908,-2.54842,0.97664,0.56462,-0.690611025,0.71227845,0.010314915
1764434973.157908,-2.54842,0.97664,0.56462,-0.690611025,0.71227845,0.010314915
1764434973.1589065,-2.54842,0.97664,0.56462,-0.690611025,0.71227845,0.010314915
1764434973.1589065,-2.54842,0.97664,0.56462,-0.690611025,0.71227845,0.010314915
1764434973.1589065,-2.54842,0.97664,0.56462,-0.690611025,0.71227845,0.010314915
1764434973.1589065,-4.94424,2.1364,0.763,-0.68945136,0.71594055,0.011047335
1764434973.159906,-4.94424,2.1364,0.763,-0.68945136,0.71594055,0.011047335
1764434973.159906,-4.94424,2.1364,0.763,-0.68945136,0.71594055,0.011047335
1764434973.159906,-4.94424,2.1364,0.763,-0.68945136,0.71594055,0.011047335
1764434973.159906,-4.94424,2.1364,0.763,-0.68945136,0.71594055,0.011047335
1764434973.1609054,-4.94424,2.1364,0.763,-0.68945136,0.71594055,0.011047335
1764434973.1609054,-4.94424,2.1364,0.763,-0.68945136,0.71594055,0.011047335
1764434973.1609054,-4.94424,2.1364,0.763,-0.68945136,0.71594055,0.011047335
1764434973.2059815,-4.94424,2.1364,0.763,-0.68945136,0.71594055,0.011047335
1764434973.2059815,-4.94424,2.1364,0.763,-0.68945136,0.71594055,0.011047335
1764434973.2059815,-6.66862,0.97664,0.09156,-0.68920722,0.716245725,0.01049802
1764434973.206983,-6.66862,0.97664,0.09156,-0.68920722,0.716245725,0.01049802
1764434973.206983,-6.66862,0.97664,0.09156,-0.68920722,0.716245725,0.01049802
1764434973.206983,-6.66862,0.97664,0.09156,-0.68920722,0.716245725,0.01049802
1764434973.206983,-6.66862,0.97664,0.09156,-0.68920722,0.716245725,0.01049802
1764434973.206983,-6.66862,0.97664,0.09156,-0.68920722,0.716245725,0.01049802
1764434973.206983,-6.66862,0.97664,0.09156,-0.68920722,0.716245725,0.01049802
1764434973.206983,-6.66862,0.97664,0.09156,-0.68920722,0.716245725,0.01049802
1764434973.206983,-6.66862,0.97664,0.09156,-0.68920722,0.716245725,0.01049802
1764434973.2075014,-6.66862,0.97664,0.09156,-0.68920722,0.716245725,0.01049802
1764434973.2075014,-6.958559999999999,0.73248,-1.63282,-0.688047555,0.715391235,0.01196286
1764434973.2075014,-6.958559999999999,0.73248,-1.63282,-0.688047555,0.715391235,0.01196286
1764434973.2075014,-6.958559999999999,0.73248,-1.63282,-0.688047555,0.715391235,0.01196286
1764434973.2075014,-6.958559999999999,0.73248,-1.63282,-0.688047555,0.715391235,0.01196286
1764434973.2075014,-6.958559999999999,0.73248,-1.63282,-0.688047555,0.715391235,0.01196286
1764434973.2075014,-6.958559999999999,0.73248,-1.63282,-0.688047555,0.715391235,0.01196286
1764434973.2075014,-6.958559999999999,0.73248,-1.63282,-0.688047555,0.715391235,0.01196286
1764434973.2075014,-6.958559999999999,0.73248,-1.63282,-0.688047555,0.715391235,0.01196286
1764434973.208505,-6.958559999999999,0.73248,-1.63282,-0.688047555,0.715391235,0.01196286
1764434973.208505,-6.958559999999999,0.73248,-1.63282,-0.688047555,0.715391235,0.01196286
1764434973.208505,-6.97382,1.9838,-2.33478,-0.6872541,0.714414675,0.01281735
1764434973.208505,-6.97382,1.9838,-2.33478,-0.6872541,0.714414675,0.01281735
1764434973.2519448,-6.97382,1.9838,-2.33478,-0.6872541,0.714414675,0.01281735
1764434973.2519448,-6.97382,1.9838,-2.33478,-0.6872541,0.714414675,0.01281735
1764434973.2534072,-6.97382,1.9838,-2.33478,-0.6872541,0.714414675,0.01281735
1764434973.2534072,-6.97382,1.9838,-2.33478,-0.6872541,0.714414675,0.01281735
1764434973.2534072,-6.97382,1.9838,-2.33478,-0.6872541,0.714414675,0.01281735
1764434973.2534072,-6.97382,1.9838,-2.33478,-0.6872541,0.714414675,0.01281735
1764434973.2534072,-6.97382,1.9838,-2.33478,-0.6872541,0.714414675,0.01281735
1764434973.2534072,-6.97382,1.9838,-2.33478,-0.6872541,0.714414675,0.01281735
1764434973.2534072,-7.919939999999999,2.6705,-2.76206,-0.686094435,0.71325501,0.011047335
1764434973.2544248,-7.919939999999999,2.6705,-2.76206,-0.686094435,0.71325501,0.011047335
1764434973.2544248,-7.919939999999999,2.6705,-2.76206,-0.686094435,0.71325501,0.011047335
1764434973.2544248,-7.919939999999999,2.6705,-2.76206,-0.686094435,0.71325501,0.011047335
1764434973.2544248,-7.919939999999999,2.6705,-2.76206,-0.686094435,0.71325501,0.011047335
1764434973.2544248,-7.919939999999999,2.6705,-2.76206,-0.686094435,0.71325501,0.011047335
1764434973.2544248,-7.919939999999999,2.6705,-2.76206,-0.686094435,0.71325501,0.011047335
1764434973.2544248,-7.919939999999999,2.6705,-2.76206,-0.686094435,0.71325501,0.011047335
1764434973.2544248,-7.919939999999999,2.6705,-2.76206,-0.686094435,0.71325501,0.011047335
1764434973.2544248,-7.919939999999999,2.6705,-2.76206,-0.686094435,0.71325501,0.011047335
1764434973.2544248,-9.47646,2.9757,-2.91466,-0.688535835,0.714170535,0.008850075
1764434973.2544248,-9.47646,2.9757,-2.91466,-0.688535835,0.714170535,0.008850075
1764434973.2544248,-9.47646,2.9757,-2.91466,-0.688535835,0.714170535,0.008850075
1764434973.2544248,-9.47646,2.9757,-2.91466,-0.688535835,0.714170535,0.008850075
1764434973.299495,-9.47646,2.9757,-2.91466,-0.688535835,0.714170535,0.008850075
1764434973.299495,-9.47646,2.9757,-2.91466,-0.688535835,0.714170535,0.008850075
1764434973.299495,-9.47646,2.9757,-2.91466,-0.688535835,0.714170535,0.008850075
1764434973.299495,-9.47646,2.9757,-2.91466,-0.688535835,0.714170535,0.008850075
1764434973.299495,-9.47646,2.9757,-2.91466,-0.688535835,0.714170535,0.008850075
1764434973.299495,-9.47646,2.9757,-2.91466,-0.688535835,0.714170535,0.008850075
1764434973.299495,-9.6901,1.64808,-2.9757,-0.69189276,0.71276673,0.009216285
1764434973.299495,-9.6901,1.64808,-2.9757,-0.69189276,0.71276673,0.009216285
1764434973.299495,-9.6901,1.64808,-2.9757,-0.69189276,0.71276673,0.009216285
1764434973.299495,-9.6901,1.64808,-2.9757,-0.69189276,0.71276673,0.009216285
1764434973.299495,-9.6901,1.64808,-2.9757,-0.69189276,0.71276673,0.009216285
1764434973.299495,-9.6901,1.64808,-2.9757,-0.69189276,0.71276673,0.009216285
1764434973.299495,-9.6901,1.64808,-2.9757,-0.69189276,0.71276673,0.009216285
1764434973.299495,-9.6901,1.64808,-2.9757,-0.69189276,0.71276673,0.009216285
1764434973.299495,-9.6901,1.64808,-2.9757,-0.69189276,0.71276673,0.009216285
1764434973.299495,-9.6901,1.64808,-2.9757,-0.69189276,0.71276673,0.009216285
1764434973.299495,-9.96478,2.27374,-2.8994,-0.692197935,0.709287735,0.01062009
1764434973.299495,-9.96478,2.27374,-2.8994,-0.692197935,0.709287735,0.01062009
1764434973.299495,-9.96478,2.27374,-2.8994,-0.692197935,0.709287735,0.01062009
1764434973.299495,-9.96478,2.27374,-2.8994,-0.692197935,0.709287735,0.01062009
1764434973.3005097,-9.96478,2.27374,-2.8994,-0.692197935,0.709287735,0.01062009
1764434973.3005097,-9.96478,2.27374,-2.8994,-0.692197935,0.709287735,0.01062009
1764434973.3005097,-9.96478,2.27374,-2.8994,-0.692197935,0.709287735,0.01062009
1764434973.3005097,-9.96478,2.27374,-2.8994,-0.692197935,0.709287735,0.01062009
1764434973.34379,-9.96478,2.27374,-2.8994,-0.692197935,0.709287735,0.01062009
1764434973.34379,-9.96478,2.27374,-2.8994,-0.692197935,0.709287735,0.01062009
1764434973.34379,-8.8508,2.56368,-2.7468,-0.69250311,0.70361148,0.011535615
1764434973.34379,-8.8508,2.56368,-2.7468,-0.69250311,0.70361148,0.011535615
1764434973.34379,-8.8508,2.56368,-2.7468,-0.69250311,0.70361148,0.011535615
1764434973.34379,-8.8508,2.56368,-2.7468,-0.69250311,0.70361148,0.011535615
1764434973.34379,-8.8508,2.56368,-2.7468,-0.69250311,0.70361148,0.011535615
1764434973.34379,-8.8508,2.56368,-2.7468,-0.69250311,0.70361148,0.011535615
1764434973.34379,-8.8508,2.56368,-2.7468,-0.69250311,0.70361148,0.011535615
1764434973.34379,-8.8508,2.56368,-2.7468,-0.69250311,0.70361148,0.011535615
1764434973.34379,-8.8508,2.56368,-2.7468,-0.69250311,0.70361148,0.011535615
1764434973.34379,-8.8508,2.56368,-2.7468,-0.69250311,0.70361148,0.011535615
1764434973.34379,-8.57612,2.68576,-1.63282,-0.6921369,0.701231115,0.010436985
1764434973.34379,-8.57612,2.68576,-1.63282,-0.6921369,0.701231115,0.010436985
1764434973.34379,-8.57612,2.68576,-1.63282,-0.6921369,0.701231115,0.010436985
1764434973.34379,-8.57612,2.68576,-1.63282,-0.6921369,0.701231115,0.010436985
1764434973.34379,-8.57612,2.68576,-1.63282,-0.6921369,0.701231115,0.010436985
1764434973.34379,-8.57612,2.68576,-1.63282,-0.6921369,0.701231115,0.010436985
1764434973.34379,-8.57612,2.68576,-1.63282,-0.6921369,0.701231115,0.010436985
1764434973.3448002,-8.57612,2.68576,-1.63282,-0.6921369,0.701231115,0.010436985
1764434973.3448002,-8.57612,2.68576,-1.63282,-0.6921369,0.701231115,0.010436985
1764434973.3448002,-8.57612,2.68576,-1.63282,-0.6921369,0.701231115,0.010436985
1764434973.3448002,-8.95762,2.30426,-1.02242,-0.6910382700000001,0.70141422,0.009826635
1764434973.3448002,-8.95762,2.30426,-1.02242,-0.6910382700000001,0.70141422,0.009826635
1764434973.3944206,-8.95762,2.30426,-1.02242,-0.6910382700000001,0.70141422,0.009826635
1764434973.3944206,-8.95762,2.30426,-1.02242,-0.6910382700000001,0.70141422,0.009826635
1764434973.3944206,-8.95762,2.30426,-1.02242,-0.6910382700000001,0.70141422,0.009826635
1764434973.3944206,-8.95762,2.30426,-1.02242,-0.6910382700000001,0.70141422,0.009826635
1764434973.3944206,-8.95762,2.30426,-1.02242,-0.6910382700000001,0.70141422,0.009826635
1764434973.3944206,-8.95762,2.30426,-1.02242,-0.6910382700000001,0.70141422,0.009826635
1764434973.395428,-8.95762,2.30426,-1.02242,-0.6910382700000001,0.70141422,0.009826635
1764434973.395428,-8.95762,2.30426,-1.02242,-0.6910382700000001,0.70141422,0.009826635
1764434973.395428,-8.98814,2.4416,-0.51884,-0.690366885,0.70226871,0.010681125
1764434973.395428,-8.98814,2.4416,-0.51884,-0.690366885,0.70226871,0.010681125
1764434973.395428,-8.98814,2.4416,-0.51884,-0.690366885,0.70226871,0.010681125
1764434973.395428,-8.98814,2.4416,-0.51884,-0.690366885,0.70226871,0.010681125
1764434973.395428,-8.98814,2.4416,-0.51884,-0.690366885,0.70226871,0.010681125
1764434973.395428,-8.98814,2.4416,-0.51884,-0.690366885,0.70226871,0.010681125
1764434973.395428,-8.98814,2.4416,-0.51884,-0.690366885,0.70226871,0.010681125
1764434973.3969395,-8.98814,2.4416,-0.51884,-0.690366885,0.70226871,0.010681125
1764434973.3969395,-8.98814,2.4416,-0.51884,-0.690366885,0.70226871,0.010681125
1764434973.3969395,-8.98814,2.4416,-0.51884,-0.690366885,0.70226871,0.010681125
1764434973.3969395,-8.48456,2.30426,-0.3357199999999999,-0.69079413,0.700620765,0.01208493
1764434973.397519,-8.48456,2.30426,-0.3357199999999999,-0.69079413,0.700620765,0.01208493
1764434973.397519,-8.48456,2.30426,-0.3357199999999999,-0.69079413,0.700620765,0.01208493
1764434973.397519,-8.48456,2.30426,-0.3357199999999999,-0.69079413,0.700620765,0.01208493
1764434973.397519,-8.48456,2.30426,-0.3357199999999999,-0.69079413,0.700620765,0.01208493
1764434973.397519,-8.48456,2.30426,-0.3357199999999999,-0.69079413,0.700620765,0.01208493
1764434973.4383998,-8.48456,2.30426,-0.3357199999999999,-0.69079413,0.700620765,0.01208493
1764434973.4383998,-8.48456,2.30426,-0.3357199999999999,-0.69079413,0.700620765,0.01208493
1764434973.4383998,-8.48456,2.30426,-0.3357199999999999,-0.69079413,0.700620765,0.01208493
1764434973.4383998,-8.48456,2.30426,-0.3357199999999999,-0.69079413,0.700620765,0.01208493
1764434973.4383998,-7.828379999999999,2.02958,-0.19838,-0.69201483,0.699766275,0.013000455
1764434973.4383998,-7.828379999999999,2.02958,-0.19838,-0.69201483,0.699766275,0.013000455
1764434973.4383998,-7.828379999999999,2.02958,-0.19838,-0.69201483,0.699766275,0.013000455
1764434973.4383998,-7.828379999999999,2.02958,-0.19838,-0.69201483,0.699766275,0.013000455
1764434973.4383998,-7.828379999999999,2.02958,-0.19838,-0.69201483,0.699766275,0.013000455
1764434973.4383998,-7.828379999999999,2.02958,-0.19838,-0.69201483,0.699766275,0.013000455
1764434973.4383998,-7.828379999999999,2.02958,-0.19838,-0.69201483,0.699766275,0.013000455
1764434973.4383998,-7.828379999999999,2.02958,-0.19838,-0.69201483,0.699766275,0.013000455
1764434973.4383998,-7.828379999999999,2.02958,-0.19838,-0.69201483,0.699766275,0.013000455
1764434973.4383998,-7.828379999999999,2.02958,-0.19838,-0.69201483,0.699766275,0.013000455
1764434973.4383998,-6.57706,1.8312,0.0,-0.69347967,0.70141422,0.013488735
1764434973.4393992,-6.57706,1.8312,0.0,-0.69347967,0.70141422,0.013488735
1764434973.4393992,-6.57706,1.8312,0.0,-0.69347967,0.70141422,0.013488735
1764434973.4393992,-6.57706,1.8312,0.0,-0.69347967,0.70141422,0.013488735
1764434973.4393992,-6.57706,1.8312,0.0,-0.69347967,0.70141422,0.013488735
1764434973.4393992,-6.57706,1.8312,0.0,-0.69347967,0.70141422,0.013488735
1764434973.4393992,-6.57706,1.8312,0.0,-0.69347967,0.70141422,0.013488735
1764434973.4393992,-6.57706,1.8312,0.0,-0.69347967,0.70141422,0.013488735
1764434973.486802,-6.57706,1.8312,0.0,-0.69347967,0.70141422,0.013488735
1764434973.486802,-6.57706,1.8312,0.0,-0.69347967,0.70141422,0.013488735
1764434973.486802,-4.68482,0.763,-0.6103999999999999,-0.69323553,0.701597325,0.012756315
1764434973.486802,-4.68482,0.763,-0.6103999999999999,-0.69323553,0.701597325,0.012756315
1764434973.486802,-4.68482,0.763,-0.6103999999999999,-0.69323553,0.701597325,0.012756315
1764434973.486802,-4.68482,0.763,-0.6103999999999999,-0.69323553,0.701597325,0.012756315
1764434973.4878156,-4.68482,0.763,-0.6103999999999999,-0.69323553,0.701597325,0.012756315
1764434973.4878156,-4.68482,0.763,-0.6103999999999999,-0.69323553,0.701597325,0.012756315
1764434973.4878156,-4.68482,0.763,-0.6103999999999999,-0.69323553,0.701597325,0.012756315
1764434973.4878156,-4.68482,0.763,-0.6103999999999999,-0.69323553,0.701597325,0.012756315
1764434973.4878156,-4.68482,0.763,-0.6103999999999999,-0.69323553,0.701597325,0.012756315
1764434973.4878156,-4.68482,0.763,-0.6103999999999999,-0.69323553,0.701597325,0.012756315
1764434973.4878156,-3.87604,1.17502,-1.19028,-0.692564145,0.703916655,0.011291475
1764434973.4878156,-3.87604,1.17502,-1.19028,-0.692564145,0.703916655,0.011291475
1764434973.4878156,-3.87604,1.17502,-1.19028,-0.692564145,0.703916655,0.011291475
1764434973.4878156,-3.87604,1.17502,-1.19028,-0.692564145,0.703916655,0.011291475
1764434973.4878156,-3.87604,1.17502,-1.19028,-0.692564145,0.703916655,0.011291475
1764434973.4878156,-3.87604,1.17502,-1.19028,-0.692564145,0.703916655,0.011291475
1764434973.4878156,-3.87604,1.17502,-1.19028,-0.692564145,0.703916655,0.011291475
1764434973.4878156,-3.87604,1.17502,-1.19028,-0.692564145,0.703916655,0.011291475
1764434973.4878156,-3.87604,1.17502,-1.19028,-0.692564145,0.703916655,0.011291475
1764434973.4878156,-3.87604,1.17502,-1.19028,-0.692564145,0.703916655,0.011291475
1764434973.4878156,-4.41014,0.59514,-0.48832,-0.692930355,0.709531875,0.01025388
1764434973.4878156,-4.41014,0.59514,-0.48832,-0.692930355,0.709531875,0.01025388
1764434973.5329528,-4.41014,0.59514,-0.48832,-0.692930355,0.709531875,0.01025388
1764434973.5329528,-4.41014,0.59514,-0.48832,-0.692930355,0.709531875,0.01025388
1764434973.5329528,-4.41014,0.59514,-0.48832,-0.692930355,0.709531875,0.01025388
1764434973.5329528,-4.41014,0.59514,-0.48832,-0.692930355,0.709531875,0.01025388
1764434973.5329528,-4.41014,0.59514,-0.48832,-0.692930355,0.709531875,0.01025388
1764434973.5329528,-4.41014,0.59514,-0.48832,-0.692930355,0.709531875,0.01025388
1764434973.5329528,-4.41014,0.59514,-0.48832,-0.692930355,0.709531875,0.01025388
1764434973.5329528,-4.41014,0.59514,-0.48832,-0.692930355,0.709531875,0.01025388
1764434973.5329528,-6.28712,0.04578,-0.41202,-0.6926251800000001,0.714048465,0.012207
1764434973.5329528,-6.28712,0.04578,-0.41202,-0.6926251800000001,0.714048465,0.012207
1764434973.5329528,-6.28712,0.04578,-0.41202,-0.6926251800000001,0.714048465,0.012207
1764434973.5329528,-6.28712,0.04578,-0.41202,-0.6926251800000001,0.714048465,0.012207
1764434973.5329528,-6.28712,0.04578,-0.41202,-0.6926251800000001,0.714048465,0.012207
1764434973.5329528,-6.28712,0.04578,-0.41202,-0.6926251800000001,0.714048465,0.012207
1764434973.533953,-6.28712,0.04578,-0.41202,-0.6926251800000001,0.714048465,0.012207
1764434973.533953,-6.28712,0.04578,-0.41202,-0.6926251800000001,0.714048465,0.012207
1764434973.533953,-6.28712,0.04578,-0.41202,-0.6926251800000001,0.714048465,0.012207
1764434973.533953,-6.28712,0.04578,-0.41202,-0.6926251800000001,0.714048465,0.012207
1764434973.533953,-8.68294,1.46496,-1.51074,-0.69225897,0.71423157,0.01525875
1764434973.533953,-8.68294,1.46496,-1.51074,-0.69225897,0.71423157,0.01525875
1764434973.533953,-8.68294,1.46496,-1.51074,-0.69225897,0.71423157,0.01525875
1764434973.533953,-8.68294,1.46496,-1.51074,-0.69225897,0.71423157,0.01525875
1764434973.5349522,-8.68294,1.46496,-1.51074,-0.69225897,0.71423157,0.01525875
1764434973.5349522,-8.68294,1.46496,-1.51074,-0.69225897,0.71423157,0.01525875
1764434973.5787485,-8.68294,1.46496,-1.51074,-0.69225897,0.71423157,0.01525875
1764434973.5787485,-8.68294,1.46496,-1.51074,-0.69225897,0.71423157,0.01525875
1764434973.5787485,-8.68294,1.46496,-1.51074,-0.69225897,0.71423157,0.01525875
1764434973.5787485,-8.68294,1.46496,-1.51074,-0.69225897,0.71423157,0.01525875
1764434973.5787485,-10.05634,3.37246,-1.51074,-0.69225897,0.71093568,0.017272905
1764434973.5787485,-10.05634,3.37246,-1.51074,-0.69225897,0.71093568,0.017272905
1764434973.579764,-10.05634,3.37246,-1.51074,-0.69225897,0.71093568,0.017272905
1764434973.579764,-10.05634,3.37246,-1.51074,-0.69225897,0.71093568,0.017272905
1764434973.579764,-10.05634,3.37246,-1.51074,-0.69225897,0.71093568,0.017272905
1764434973.579764,-10.05634,3.37246,-1.51074,-0.69225897,0.71093568,0.017272905
1764434973.5807624,-10.05634,3.37246,-1.51074,-0.69225897,0.71093568,0.017272905
1764434973.5807624,-10.05634,3.37246,-1.51074,-0.69225897,0.71093568,0.017272905
1764434973.5807624,-10.05634,3.37246,-1.51074,-0.69225897,0.71093568,0.017272905
1764434973.5807624,-10.05634,3.37246,-1.51074,-0.69225897,0.71093568,0.017272905
1764434973.5807624,-10.39206,3.09778,-1.05294,-0.6931744950000001,0.70629702,0.01611324
1764434973.581762,-10.39206,3.09778,-1.05294,-0.6931744950000001,0.70629702,0.01611324
1764434973.581762,-10.39206,3.09778,-1.05294,-0.6931744950000001,0.70629702,0.01611324
1764434973.581762,-10.39206,3.09778,-1.05294,-0.6931744950000001,0.70629702,0.01611324
1764434973.581762,-10.39206,3.09778,-1.05294,-0.6931744950000001,0.70629702,0.01611324
1764434973.581762,-10.39206,3.09778,-1.05294,-0.6931744950000001,0.70629702,0.01611324
1764434973.58276,-10.39206,3.09778,-1.05294,-0.6931744950000001,0.70629702,0.01611324
1764434973.58276,-10.39206,3.09778,-1.05294,-0.6931744950000001,0.70629702,0.01611324
1764434973.621735,-10.39206,3.09778,-1.05294,-0.6931744950000001,0.70629702,0.01611324
1764434973.621735,-10.39206,3.09778,-1.05294,-0.6931744950000001,0.70629702,0.01611324
1764434973.621735,-8.469299999999999,2.24322,-0.62566,-0.6936627750000001,0.70092594,0.01391598
1764434973.621735,-8.469299999999999,2.24322,-0.62566,-0.6936627750000001,0.70092594,0.01391598
1764434973.6222572,-8.469299999999999,2.24322,-0.62566,-0.6936627750000001,0.70092594,0.01391598
1764434973.6222572,-8.469299999999999,2.24322,-0.62566,-0.6936627750000001,0.70092594,0.01391598
1764434973.6222572,-8.469299999999999,2.24322,-0.62566,-0.6936627750000001,0.70092594,0.01391598
1764434973.6222572,-8.469299999999999,2.24322,-0.62566,-0.6936627750000001,0.70092594,0.01391598
1764434973.6222572,-8.469299999999999,2.24322,-0.62566,-0.6936627750000001,0.70092594,0.01391598
1764434973.6222572,-8.469299999999999,2.24322,-0.62566,-0.6936627750000001,0.70092594,0.01391598
1764434973.6222572,-8.469299999999999,2.24322,-0.62566,-0.6936627750000001,0.70092594,0.01391598
1764434973.6222572,-8.469299999999999,2.24322,-0.62566,-0.6936627750000001,0.70092594,0.01391598
1764434973.6222572,-5.73776,1.54126,-0.24416,-0.69409002,0.69616521,0.013000455
1764434973.6222572,-5.73776,1.54126,-0.24416,-0.69409002,0.69616521,0.013000455
1764434973.6222572,-5.73776,1.54126,-0.24416,-0.69409002,0.69616521,0.013000455
1764434973.6222572,-5.73776,1.54126,-0.24416,-0.69409002,0.69616521,0.013000455
1764434973.6222572,-5.73776,1.54126,-0.24416,-0.69409002,0.69616521,0.013000455
1764434973.6222572,-5.73776,1.54126,-0.24416,-0.69409002,0.69616521,0.013000455
1764434973.6222572,-5.73776,1.54126,-0.24416,-0.69409002,0.69616521,0.013000455
1764434973.6222572,-5.73776,1.54126,-0.24416,-0.69409002,0.69616521,0.013000455
1764434973.6222572,-5.73776,1.54126,-0.24416,-0.69409002,0.69616521,0.013000455
1764434973.6222572,-5.73776,1.54126,-0.24416,-0.69409002,0.69616521,0.013000455
1764434973.670292,-2.86888,-0.24416,0.50358,-0.69665349,0.69360174,0.013610805
1764434973.670292,-2.86888,-0.24416,0.50358,-0.69665349,0.69360174,0.013610805
1764434973.670292,-2.86888,-0.24416,0.50358,-0.69665349,0.69360174,0.013610805
1764434973.670292,-2.86888,-0.24416,0.50358,-0.69665349,0.69360174,0.013610805
1764434973.670292,-2.86888,-0.24416,0.50358,-0.69665349,0.69360174,0.013610805
1764434973.671293,-2.86888,-0.24416,0.50358,-0.69665349,0.69360174,0.013610805
1764434973.671293,-2.86888,-0.24416,0.50358,-0.69665349,0.69360174,0.013610805
1764434973.671293,-2.86888,-0.24416,0.50358,-0.69665349,0.69360174,0.013610805
1764434973.671293,-2.86888,-0.24416,0.50358,-0.69665349,0.69360174,0.013610805
1764434973.671293,-2.86888,-0.24416,0.50358,-0.69665349,0.69360174,0.013610805
1764434973.671293,-1.46496,-1.2208,1.95328,-0.69677556,0.694883475,0.01599117
1764434973.671293,-1.46496,-1.2208,1.95328,-0.69677556,0.694883475,0.01599117
1764434973.671293,-1.46496,-1.2208,1.95328,-0.69677556,0.694883475,0.01599117
1764434973.671293,-1.46496,-1.2208,1.95328,-0.69677556,0.694883475,0.01599117
1764434973.671293,-1.46496,-1.2208,1.95328,-0.69677556,0.694883475,0.01599117
1764434973.671293,-1.46496,-1.2208,1.95328,-0.69677556,0.694883475,0.01599117
1764434973.671293,-1.46496,-1.2208,1.95328,-0.69677556,0.694883475,0.01599117
1764434973.671293,-1.46496,-1.2208,1.95328,-0.69677556,0.694883475,0.01599117
1764434973.671293,-1.46496,-1.2208,1.95328,-0.69677556,0.694883475,0.01599117
1764434973.671293,-1.46496,-1.2208,1.95328,-0.69677556,0.694883475,0.01599117
1764434973.671293,-1.9075,-0.4578,1.7549,-0.695615895,0.699033855,0.01721187
1764434973.671293,-1.9075,-0.4578,1.7549,-0.695615895,0.699033855,0.01721187
1764434973.6722903,-1.9075,-0.4578,1.7549,-0.695615895,0.699033855,0.01721187
1764434973.6722903,-1.9075,-0.4578,1.7549,-0.695615895,0.699033855,0.01721187
1764434973.7184422,-1.9075,-0.4578,1.7549,-0.695615895,0.699033855,0.01721187
1764434973.719462,-1.9075,-0.4578,1.7549,-0.695615895,0.699033855,0.01721187
1764434973.719462,-1.9075,-0.4578,1.7549,-0.695615895,0.699033855,0.01721187
1764434973.719462,-1.9075,-0.4578,1.7549,-0.695615895,0.699033855,0.01721187
1764434973.719462,-1.9075,-0.4578,1.7549,-0.695615895,0.699033855,0.01721187
1764434973.7204764,-1.9075,-0.4578,1.7549,-0.695615895,0.699033855,0.01721187
1764434973.7204764,-2.9757,0.10682,1.03768,-0.69433416,0.704038725,0.01867671
1764434973.7204764,-2.9757,0.10682,1.03768,-0.69433416,0.704038725,0.01867671
1764434973.7204764,-2.9757,0.10682,1.03768,-0.69433416,0.704038725,0.01867671
1764434973.7204764,-2.9757,0.10682,1.03768,-0.69433416,0.704038725,0.01867671
1764434973.7214837,-2.9757,0.10682,1.03768,-0.69433416,0.704038725,0.01867671
1764434973.7214837,-2.9757,0.10682,1.03768,-0.69433416,0.704038725,0.01867671
1764434973.7214837,-2.9757,0.10682,1.03768,-0.69433416,0.704038725,0.01867671
1764434973.7214837,-2.9757,0.10682,1.03768,-0.69433416,0.704038725,0.01867671
1764434973.7224448,-2.9757,0.10682,1.03768,-0.69433416,0.704038725,0.01867671
1764434973.7224448,-2.9757,0.10682,1.03768,-0.69433416,0.704038725,0.01867671
1764434973.7224448,-4.440659999999999,1.4497,0.42728,-0.69347967,0.708006,0.019470165
1764434973.7224448,-4.440659999999999,1.4497,0.42728,-0.69347967,0.708006,0.019470165
1764434973.7224448,-4.440659999999999,1.4497,0.42728,-0.69347967,0.708006,0.019470165
1764434973.7224448,-4.440659999999999,1.4497,0.42728,-0.69347967,0.708006,0.019470165
1764434973.7224448,-4.440659999999999,1.4497,0.42728,-0.69347967,0.708006,0.019470165
1764434973.7224448,-4.440659999999999,1.4497,0.42728,-0.69347967,0.708006,0.019470165
1764434973.7224448,-4.440659999999999,1.4497,0.42728,-0.69347967,0.708006,0.019470165
1764434973.7224448,-4.440659999999999,1.4497,0.42728,-0.69347967,0.708006,0.019470165
1764434973.7619934,-4.440659999999999,1.4497,0.42728,-0.69347967,0.708006,0.019470165
1764434973.7640097,-4.440659999999999,1.4497,0.42728,-0.69347967,0.708006,0.019470165
1764434973.7640097,-6.31764,1.81594,0.01526,-0.692930355,0.7104474000000001,0.019958445
1764434973.7640097,-6.31764,1.81594,0.01526,-0.692930355,0.7104474000000001,0.019958445
1764434973.7640097,-6.31764,1.81594,0.01526,-0.692930355,0.7104474000000001,0.019958445
1764434973.7640097,-6.31764,1.81594,0.01526,-0.692930355,0.7104474000000001,0.019958445
1764434973.7640097,-6.31764,1.81594,0.01526,-0.692930355,0.7104474000000001,0.019958445
1764434973.7650084,-6.31764,1.81594,0.01526,-0.692930355,0.7104474000000001,0.019958445
1764434973.7650084,-6.31764,1.81594,0.01526,-0.692930355,0.7104474000000001,0.019958445
1764434973.7650084,-6.31764,1.81594,0.01526,-0.692930355,0.7104474000000001,0.019958445
1764434973.7650084,-6.31764,1.81594,0.01526,-0.692930355,0.7104474000000001,0.019958445
1764434973.7650084,-6.31764,1.81594,0.01526,-0.692930355,0.7104474000000001,0.019958445
1764434973.7660527,-8.05728,2.45686,0.1525999999999999,-0.69286932,0.710508435,0.01965327
1764434973.7660527,-8.05728,2.45686,0.1525999999999999,-0.69286932,0.710508435,0.01965327
1764434973.7660527,-8.05728,2.45686,0.1525999999999999,-0.69286932,0.710508435,0.01965327
1764434973.7660527,-8.05728,2.45686,0.1525999999999999,-0.69286932,0.710508435,0.01965327
1764434973.7660527,-8.05728,2.45686,0.1525999999999999,-0.69286932,0.710508435,0.01965327
1764434973.7660527,-8.05728,2.45686,0.1525999999999999,-0.69286932,0.710508435,0.01965327
1764434973.767053,-8.05728,2.45686,0.1525999999999999,-0.69286932,0.710508435,0.01965327
1764434973.767053,-8.05728,2.45686,0.1525999999999999,-0.69286932,0.710508435,0.01965327
1764434973.767053,-8.05728,2.45686,0.1525999999999999,-0.69286932,0.710508435,0.01965327
1764434973.767053,-8.05728,2.45686,0.1525999999999999,-0.69286932,0.710508435,0.01965327
1764434973.767053,-9.0797,2.86888,0.01526,-0.692808285,0.708189105,0.01928706
1764434973.767053,-9.0797,2.86888,0.01526,-0.692808285,0.708189105,0.01928706
1764434973.8087175,-9.0797,2.86888,0.01526,-0.692808285,0.708189105,0.01928706
1764434973.8087175,-9.0797,2.86888,0.01526,-0.692808285,0.708189105,0.01928706
1764434973.8107429,-9.0797,2.86888,0.01526,-0.692808285,0.708189105,0.01928706
1764434973.8107429,-9.0797,2.86888,0.01526,-0.692808285,0.708189105,0.01928706
1764434973.8107429,-9.0797,2.86888,0.01526,-0.692808285,0.708189105,0.01928706
1764434973.8117468,-9.0797,2.86888,0.01526,-0.692808285,0.708189105,0.01928706
1764434973.8117468,-9.0797,2.86888,0.01526,-0.692808285,0.708189105,0.01928706
1764434973.8117468,-9.0797,2.86888,0.01526,-0.692808285,0.708189105,0.01928706
1764434973.8117468,-7.7063,3.11304,-0.12208,-0.692686215,0.702818025,0.019103955
1764434973.8117468,-7.7063,3.11304,-0.12208,-0.692686215,0.702818025,0.019103955
