Timestamp,GyroX,GyroY,GyroZ,AccX,AccY,AccZ
1764435361.0303254,-1.4039199999999998,3.8913,0.57988,0.537413175,-0.724302345,-0.44836311
1764435361.0303254,-1.4039199999999998,3.8913,0.57988,0.537413175,-0.724302345,-0.44836311
1764435361.0303254,-1.4039199999999998,3.8913,0.57988,0.537413175,-0.724302345,-0.44836311
1764435361.0303254,-1.4039199999999998,3.8913,0.57988,0.537413175,-0.724302345,-0.44836311
1764435361.0303254,-1.4039199999999998,3.8913,0.57988,0.537413175,-0.724302345,-0.44836311
1764435361.0303254,-1.4039199999999998,3.8913,0.57988,0.537413175,-0.724302345,-0.44836311
1764435361.0303254,-1.4039199999999998,3.64714,0.93086,0.537169035,-0.7235699250000001,-0.448057935
1764435361.0303254,-1.4039199999999998,3.64714,0.93086,0.537169035,-0.7235699250000001,-0.448057935
1764435361.0303254,-1.4039199999999998,3.64714,0.93086,0.537169035,-0.7235699250000001,-0.448057935
1764435361.0303254,-1.4039199999999998,3.64714,0.93086,0.537169035,-0.7235699250000001,-0.448057935
1764435361.0303254,-1.4039199999999998,3.64714,0.93086,0.537169035,-0.7235699250000001,-0.448057935
1764435361.0303254,-1.4039199999999998,3.64714,0.93086,0.537169035,-0.7235699250000001,-0.448057935
1764435361.0303254,-1.4039199999999998,3.64714,0.93086,0.537169035,-0.7235699250000001,-0.448057935
1764435361.0303254,-1.4039199999999998,3.64714,0.93086,0.537169035,-0.7235699250000001,-0.448057935
1764435361.0303254,-1.4039199999999998,3.64714,0.93086,0.537169035,-0.7235699250000001,-0.448057935
1764435361.0303254,-1.4039199999999998,3.64714,0.93086,0.537169035,-0.7235699250000001,-0.448057935
1764435361.0313375,-1.7549,3.5861,0.8087799999999999,0.5374742100000001,-0.72399717,-0.448912425
1764435361.0313375,-1.7549,3.5861,0.8087799999999999,0.5374742100000001,-0.72399717,-0.448912425
1764435361.0313375,-1.7549,3.5861,0.8087799999999999,0.5374742100000001,-0.72399717,-0.448912425
1764435361.0313375,-1.7549,3.5861,0.8087799999999999,0.5374742100000001,-0.72399717,-0.448912425
1764435361.0313375,-1.7549,3.5861,0.8087799999999999,0.5374742100000001,-0.72399717,-0.448912425
1764435361.0313375,-1.7549,3.5861,0.8087799999999999,0.5374742100000001,-0.72399717,-0.448912425
1764435361.0313375,-1.7549,3.5861,0.8087799999999999,0.5374742100000001,-0.72399717,-0.448912425
1764435361.0313375,-1.7549,3.5861,0.8087799999999999,0.5374742100000001,-0.72399717,-0.448912425
1764435361.0313375,-1.7549,3.5861,0.8087799999999999,0.5374742100000001,-0.72399717,-0.448912425
1764435361.0313375,-1.7549,3.5861,0.8087799999999999,0.5374742100000001,-0.72399717,-0.448912425
1764435361.0761087,-1.35814,3.6624,0.7019599999999999,0.5374742100000001,-0.72326475,-0.448424145
1764435361.0761087,-1.35814,3.6624,0.7019599999999999,0.5374742100000001,-0.72326475,-0.448424145
1764435361.0761087,-1.35814,3.6624,0.7019599999999999,0.5374742100000001,-0.72326475,-0.448424145
1764435361.077117,-1.35814,3.6624,0.7019599999999999,0.5374742100000001,-0.72326475,-0.448424145
1764435361.077117,-1.35814,3.6624,0.7019599999999999,0.5374742100000001,-0.72326475,-0.448424145
1764435361.077117,-1.35814,3.6624,0.7019599999999999,0.5374742100000001,-0.72326475,-0.448424145
1764435361.077117,-1.35814,3.6624,0.7019599999999999,0.5374742100000001,-0.72326475,-0.448424145
1764435361.0781302,-1.35814,3.6624,0.7019599999999999,0.5374742100000001,-0.72326475,-0.448424145
1764435361.0781302,-1.35814,3.6624,0.7019599999999999,0.5374742100000001,-0.72326475,-0.448424145
1764435361.0791285,-1.35814,3.6624,0.7019599999999999,0.5374742100000001,-0.72326475,-0.448424145
1764435361.0791285,-0.94612,3.75396,0.763,0.537108,-0.723081645,-0.448546215
1764435361.0791285,-0.94612,3.75396,0.763,0.537108,-0.723081645,-0.448546215
1764435361.0791285,-0.94612,3.75396,0.763,0.537108,-0.723081645,-0.448546215
1764435361.0791285,-0.94612,3.75396,0.763,0.537108,-0.723081645,-0.448546215
1764435361.0801282,-0.94612,3.75396,0.763,0.537108,-0.723081645,-0.448546215
1764435361.0801282,-0.94612,3.75396,0.763,0.537108,-0.723081645,-0.448546215
1764435361.0801282,-0.94612,3.75396,0.763,0.537108,-0.723081645,-0.448546215
1764435361.0801282,-0.94612,3.75396,0.763,0.537108,-0.723081645,-0.448546215
1764435361.0801282,-0.94612,3.75396,0.763,0.537108,-0.723081645,-0.448546215
1764435361.0811276,-0.94612,3.75396,0.763,0.537108,-0.723081645,-0.448546215
1764435361.0811276,-0.3051999999999999,4.1965,0.39676,0.537108,-0.722837505,-0.448546215
1764435361.0811276,-0.3051999999999999,4.1965,0.39676,0.537108,-0.722837505,-0.448546215
1764435361.1243184,-0.3051999999999999,4.1965,0.39676,0.537108,-0.722837505,-0.448546215
1764435361.1243184,-0.3051999999999999,4.1965,0.39676,0.537108,-0.722837505,-0.448546215
1764435361.1243184,-0.3051999999999999,4.1965,0.39676,0.537108,-0.722837505,-0.448546215
1764435361.1243184,-0.3051999999999999,4.1965,0.39676,0.537108,-0.722837505,-0.448546215
1764435361.1243184,-0.3051999999999999,4.1965,0.39676,0.537108,-0.722837505,-0.448546215
1764435361.1243184,-0.3051999999999999,4.1965,0.39676,0.537108,-0.722837505,-0.448546215
1764435361.1243184,-0.3051999999999999,4.1965,0.39676,0.537108,-0.722837505,-0.448546215
1764435361.1243184,-0.3051999999999999,4.1965,0.39676,0.537108,-0.722837505,-0.448546215
1764435361.1243184,-0.13734,3.64714,0.2289,0.53674179,-0.72241026,-0.448057935
1764435361.1243184,-0.13734,3.64714,0.2289,0.53674179,-0.72241026,-0.448057935
1764435361.1253378,-0.13734,3.64714,0.2289,0.53674179,-0.72241026,-0.448057935
1764435361.1253378,-0.13734,3.64714,0.2289,0.53674179,-0.72241026,-0.448057935
1764435361.1253378,-0.13734,3.64714,0.2289,0.53674179,-0.72241026,-0.448057935
1764435361.1253378,-0.13734,3.64714,0.2289,0.53674179,-0.72241026,-0.448057935
1764435361.1253378,-0.13734,3.64714,0.2289,0.53674179,-0.72241026,-0.448057935
1764435361.1253378,-0.13734,3.64714,0.2289,0.53674179,-0.72241026,-0.448057935
1764435361.1253378,-0.13734,3.64714,0.2289,0.53674179,-0.72241026,-0.448057935
1764435361.1253378,-0.13734,3.64714,0.2289,0.53674179,-0.72241026,-0.448057935
1764435361.1253378,-0.27468,3.70818,0.6409199999999999,0.536314545,-0.722715435,-0.448057935
1764435361.1253378,-0.27468,3.70818,0.6409199999999999,0.536314545,-0.722715435,-0.448057935
1764435361.1253378,-0.27468,3.70818,0.6409199999999999,0.536314545,-0.722715435,-0.448057935
1764435361.1253378,-0.27468,3.70818,0.6409199999999999,0.536314545,-0.722715435,-0.448057935
1764435361.169547,-0.27468,3.70818,0.6409199999999999,0.536314545,-0.722715435,-0.448057935
1764435361.169547,-0.27468,3.70818,0.6409199999999999,0.536314545,-0.722715435,-0.448057935
1764435361.169547,-0.27468,3.70818,0.6409199999999999,0.536314545,-0.722715435,-0.448057935
1764435361.169547,-0.27468,3.70818,0.6409199999999999,0.536314545,-0.722715435,-0.448057935
1764435361.169547,-0.27468,3.70818,0.6409199999999999,0.536314545,-0.722715435,-0.448057935
1764435361.169547,-0.27468,3.70818,0.6409199999999999,0.536314545,-0.722715435,-0.448057935
1764435361.169547,-0.01526,4.10494,0.42728,0.536680755,-0.723325785,-0.44872932
1764435361.169547,-0.01526,4.10494,0.42728,0.536680755,-0.723325785,-0.44872932
1764435361.169547,-0.01526,4.10494,0.42728,0.536680755,-0.723325785,-0.44872932
1764435361.169547,-0.01526,4.10494,0.42728,0.536680755,-0.723325785,-0.44872932
1764435361.169547,-0.01526,4.10494,0.42728,0.536680755,-0.723325785,-0.44872932
1764435361.169547,-0.01526,4.10494,0.42728,0.536680755,-0.723325785,-0.44872932
1764435361.169547,-0.01526,4.10494,0.42728,0.536680755,-0.723325785,-0.44872932
1764435361.169547,-0.01526,4.10494,0.42728,0.536680755,-0.723325785,-0.44872932
1764435361.169547,-0.01526,4.10494,0.42728,0.536680755,-0.723325785,-0.44872932
1764435361.169547,-0.01526,4.10494,0.42728,0.536680755,-0.723325785,-0.44872932
1764435361.169547,0.28994,4.24228,1.1445,0.53661972,-0.722959575,-0.448790355
1764435361.169547,0.28994,4.24228,1.1445,0.53661972,-0.722959575,-0.448790355
1764435361.169547,0.28994,4.24228,1.1445,0.53661972,-0.722959575,-0.448790355
1764435361.169547,0.28994,4.24228,1.1445,0.53661972,-0.722959575,-0.448790355
1764435361.169547,0.28994,4.24228,1.1445,0.53661972,-0.722959575,-0.448790355
1764435361.169547,0.28994,4.24228,1.1445,0.53661972,-0.722959575,-0.448790355
1764435361.169547,0.28994,4.24228,1.1445,0.53661972,-0.722959575,-0.448790355
1764435361.169547,0.28994,4.24228,1.1445,0.53661972,-0.722959575,-0.448790355
1764435361.216537,0.28994,4.24228,1.1445,0.53661972,-0.722959575,-0.448790355
1764435361.216537,0.28994,4.24228,1.1445,0.53661972,-0.722959575,-0.448790355
1764435361.216537,0.51884,3.99812,1.15976,0.536924895,-0.72363096,-0.448546215
1764435361.216537,0.51884,3.99812,1.15976,0.536924895,-0.72363096,-0.448546215
1764435361.216537,0.51884,3.99812,1.15976,0.536924895,-0.72363096,-0.448546215
1764435361.216537,0.51884,3.99812,1.15976,0.536924895,-0.72363096,-0.448546215
1764435361.216537,0.51884,3.99812,1.15976,0.536924895,-0.72363096,-0.448546215
1764435361.216537,0.51884,3.99812,1.15976,0.536924895,-0.72363096,-0.448546215
1764435361.216537,0.51884,3.99812,1.15976,0.536924895,-0.72363096,-0.448546215
1764435361.216537,0.51884,3.99812,1.15976,0.536924895,-0.72363096,-0.448546215
1764435361.216537,0.51884,3.99812,1.15976,0.536924895,-0.72363096,-0.448546215
1764435361.216537,0.51884,3.99812,1.15976,0.536924895,-0.72363096,-0.448546215
1764435361.216537,0.42728,4.07442,0.6867,0.537291105,-0.723081645,-0.448302075
1764435361.216537,0.42728,4.07442,0.6867,0.537291105,-0.723081645,-0.448302075
1764435361.216537,0.42728,4.07442,0.6867,0.537291105,-0.723081645,-0.448302075
1764435361.216537,0.42728,4.07442,0.6867,0.537291105,-0.723081645,-0.448302075
1764435361.217544,0.42728,4.07442,0.6867,0.537291105,-0.723081645,-0.448302075
1764435361.217544,0.42728,4.07442,0.6867,0.537291105,-0.723081645,-0.448302075
1764435361.217544,0.42728,4.07442,0.6867,0.537291105,-0.723081645,-0.448302075
1764435361.217544,0.42728,4.07442,0.6867,0.537291105,-0.723081645,-0.448302075
1764435361.217544,0.42728,4.07442,0.6867,0.537291105,-0.723081645,-0.448302075
1764435361.217544,0.42728,4.07442,0.6867,0.537291105,-0.723081645,-0.448302075
1764435361.217544,0.1525999999999999,3.98286,0.57988,0.537413175,-0.723325785,-0.44860725
1764435361.217544,0.1525999999999999,3.98286,0.57988,0.537413175,-0.723325785,-0.44860725
1764435361.2614636,0.1525999999999999,3.98286,0.57988,0.537413175,-0.723325785,-0.44860725
1764435361.2614636,0.1525999999999999,3.98286,0.57988,0.537413175,-0.723325785,-0.44860725
1764435361.2614636,0.1525999999999999,3.98286,0.57988,0.537413175,-0.723325785,-0.44860725
1764435361.2614636,0.1525999999999999,3.98286,0.57988,0.537413175,-0.723325785,-0.44860725
1764435361.2624657,0.1525999999999999,3.98286,0.57988,0.537413175,-0.723325785,-0.44860725
1764435361.2624657,0.1525999999999999,3.98286,0.57988,0.537413175,-0.723325785,-0.44860725
1764435361.2624657,0.1525999999999999,3.98286,0.57988,0.537413175,-0.723325785,-0.44860725
1764435361.2624657,0.1525999999999999,3.98286,0.57988,0.537413175,-0.723325785,-0.44860725
1764435361.2624657,0.51884,4.13546,0.59514,0.53735214,-0.723325785,-0.44811897
1764435361.2624657,0.51884,4.13546,0.59514,0.53735214,-0.723325785,-0.44811897
1764435361.2624657,0.51884,4.13546,0.59514,0.53735214,-0.723325785,-0.44811897
1764435361.2624657,0.51884,4.13546,0.59514,0.53735214,-0.723325785,-0.44811897
1764435361.2624657,0.51884,4.13546,0.59514,0.53735214,-0.723325785,-0.44811897
1764435361.2624657,0.51884,4.13546,0.59514,0.53735214,-0.723325785,-0.44811897
1764435361.2624657,0.51884,4.13546,0.59514,0.53735214,-0.723325785,-0.44811897
1764435361.2624657,0.51884,4.13546,0.59514,0.53735214,-0.723325785,-0.44811897
1764435361.2624657,0.51884,4.13546,0.59514,0.53735214,-0.723325785,-0.44811897
1764435361.2629745,0.51884,4.13546,0.59514,0.53735214,-0.723325785,-0.44811897
1764435361.2629745,0.03052,4.07442,0.74774,0.53723007,-0.7235699250000001,-0.44763069
1764435361.2629745,0.03052,4.07442,0.74774,0.53723007,-0.7235699250000001,-0.44763069
1764435361.2629745,0.03052,4.07442,0.74774,0.53723007,-0.7235699250000001,-0.44763069
1764435361.2629745,0.03052,4.07442,0.74774,0.53723007,-0.7235699250000001,-0.44763069
1764435361.305685,0.03052,4.07442,0.74774,0.53723007,-0.7235699250000001,-0.44763069
1764435361.305685,0.03052,4.07442,0.74774,0.53723007,-0.7235699250000001,-0.44763069
1764435361.305685,0.03052,4.07442,0.74774,0.53723007,-0.7235699250000001,-0.44763069
1764435361.305685,0.03052,4.07442,0.74774,0.53723007,-0.7235699250000001,-0.44763069
1764435361.305685,0.03052,4.07442,0.74774,0.53723007,-0.7235699250000001,-0.44763069
1764435361.305685,0.03052,4.07442,0.74774,0.53723007,-0.7235699250000001,-0.44763069
1764435361.305685,0.4578,3.98286,0.93086,0.537108,-0.72314268,-0.44714241
1764435361.305685,0.4578,3.98286,0.93086,0.537108,-0.72314268,-0.44714241
1764435361.305685,0.4578,3.98286,0.93086,0.537108,-0.72314268,-0.44714241
1764435361.305685,0.4578,3.98286,0.93086,0.537108,-0.72314268,-0.44714241
1764435361.305685,0.4578,3.98286,0.93086,0.537108,-0.72314268,-0.44714241
1764435361.305685,0.4578,3.98286,0.93086,0.537108,-0.72314268,-0.44714241
1764435361.305685,0.4578,3.98286,0.93086,0.537108,-0.72314268,-0.44714241
1764435361.305685,0.4578,3.98286,0.93086,0.537108,-0.72314268,-0.44714241
1764435361.305685,0.4578,3.98286,0.93086,0.537108,-0.72314268,-0.44714241
1764435361.305685,0.4578,3.98286,0.93086,0.537108,-0.72314268,-0.44714241
1764435361.305685,0.48832,3.84552,0.56462,0.5364366150000001,-0.72375303,-0.44726448
1764435361.305685,0.48832,3.84552,0.56462,0.5364366150000001,-0.72375303,-0.44726448
1764435361.305685,0.48832,3.84552,0.56462,0.5364366150000001,-0.72375303,-0.44726448
1764435361.305685,0.48832,3.84552,0.56462,0.5364366150000001,-0.72375303,-0.44726448
1764435361.305685,0.48832,3.84552,0.56462,0.5364366150000001,-0.72375303,-0.44726448
1764435361.305685,0.48832,3.84552,0.56462,0.5364366150000001,-0.72375303,-0.44726448
1764435361.305685,0.48832,3.84552,0.56462,0.5364366150000001,-0.72375303,-0.44726448
1764435361.305685,0.48832,3.84552,0.56462,0.5364366150000001,-0.72375303,-0.44726448
1764435361.3535376,0.48832,3.84552,0.56462,0.5364366150000001,-0.72375303,-0.44726448
1764435361.3535376,0.48832,3.84552,0.56462,0.5364366150000001,-0.72375303,-0.44726448
1764435361.3535376,0.3357199999999999,3.86078,0.77826,0.53661972,-0.7238751,-0.446837235
1764435361.3535376,0.3357199999999999,3.86078,0.77826,0.53661972,-0.7238751,-0.446837235
1764435361.3535376,0.3357199999999999,3.86078,0.77826,0.53661972,-0.7238751,-0.446837235
1764435361.3535376,0.3357199999999999,3.86078,0.77826,0.53661972,-0.7238751,-0.446837235
1764435361.35509,0.3357199999999999,3.86078,0.77826,0.53661972,-0.7238751,-0.446837235
1764435361.35509,0.3357199999999999,3.86078,0.77826,0.53661972,-0.7238751,-0.446837235
1764435361.35509,0.3357199999999999,3.86078,0.77826,0.53661972,-0.7238751,-0.446837235
1764435361.35509,0.3357199999999999,3.86078,0.77826,0.53661972,-0.7238751,-0.446837235
1764435361.356103,0.3357199999999999,3.86078,0.77826,0.53661972,-0.7238751,-0.446837235
1764435361.356103,0.3357199999999999,3.86078,0.77826,0.53661972,-0.7238751,-0.446837235
1764435361.356103,0.79352,4.059159999999999,1.03768,0.53600937,-0.72448545,-0.44640999
1764435361.356103,0.79352,4.059159999999999,1.03768,0.53600937,-0.72448545,-0.44640999
1764435361.3571007,0.79352,4.059159999999999,1.03768,0.53600937,-0.72448545,-0.44640999
1764435361.3571007,0.79352,4.059159999999999,1.03768,0.53600937,-0.72448545,-0.44640999
1764435361.3571007,0.79352,4.059159999999999,1.03768,0.53600937,-0.72448545,-0.44640999
1764435361.3571007,0.79352,4.059159999999999,1.03768,0.53600937,-0.72448545,-0.44640999
1764435361.3581057,0.79352,4.059159999999999,1.03768,0.53600937,-0.72448545,-0.44640999
1764435361.3581057,0.79352,4.059159999999999,1.03768,0.53600937,-0.72448545,-0.44640999
1764435361.3581057,0.79352,4.059159999999999,1.03768,0.53600937,-0.72448545,-0.44640999
1764435361.3581057,0.79352,4.059159999999999,1.03768,0.53600937,-0.72448545,-0.44640999
1764435361.4021072,1.48022,4.47118,0.79352,0.53649765,-0.7238751,-0.44653206
1764435361.4021072,1.48022,4.47118,0.79352,0.53649765,-0.7238751,-0.44653206
1764435361.4021072,1.48022,4.47118,0.79352,0.53649765,-0.7238751,-0.44653206
1764435361.4021072,1.48022,4.47118,0.79352,0.53649765,-0.7238751,-0.44653206
1764435361.4021072,1.48022,4.47118,0.79352,0.53649765,-0.7238751,-0.44653206
1764435361.4021072,1.48022,4.47118,0.79352,0.53649765,-0.7238751,-0.44653206
1764435361.4021072,1.48022,4.47118,0.79352,0.53649765,-0.7238751,-0.44653206
1764435361.4026158,1.48022,4.47118,0.79352,0.53649765,-0.7238751,-0.44653206
1764435361.4026158,1.48022,4.47118,0.79352,0.53649765,-0.7238751,-0.44653206
1764435361.4026158,1.48022,4.47118,0.79352,0.53649765,-0.7238751,-0.44653206
1764435361.4026158,1.49548,4.79164,0.8087799999999999,0.5369859300000001,-0.7238751,-0.446471025
1764435361.4026158,1.49548,4.79164,0.8087799999999999,0.5369859300000001,-0.7238751,-0.446471025
1764435361.4026158,1.49548,4.79164,0.8087799999999999,0.5369859300000001,-0.7238751,-0.446471025
1764435361.4026158,1.49548,4.79164,0.8087799999999999,0.5369859300000001,-0.7238751,-0.446471025
1764435361.4026158,1.49548,4.79164,0.8087799999999999,0.5369859300000001,-0.7238751,-0.446471025
1764435361.4026158,1.49548,4.79164,0.8087799999999999,0.5369859300000001,-0.7238751,-0.446471025
1764435361.4026158,1.49548,4.79164,0.8087799999999999,0.5369859300000001,-0.7238751,-0.446471025
1764435361.4026158,1.49548,4.79164,0.8087799999999999,0.5369859300000001,-0.7238751,-0.446471025
1764435361.4026158,1.49548,4.79164,0.8087799999999999,0.5369859300000001,-0.7238751,-0.446471025
1764435361.4026158,1.49548,4.79164,0.8087799999999999,0.5369859300000001,-0.7238751,-0.446471025
1764435361.4026158,1.2208,4.2728,0.96138,0.53674179,-0.72399717,-0.44665413
1764435361.4026158,1.2208,4.2728,0.96138,0.53674179,-0.72399717,-0.44665413
1764435361.4026158,1.2208,4.2728,0.96138,0.53674179,-0.72399717,-0.44665413
1764435361.4026158,1.2208,4.2728,0.96138,0.53674179,-0.72399717,-0.44665413
1764435361.4481995,1.2208,4.2728,0.96138,0.53674179,-0.72399717,-0.44665413
1764435361.4481995,1.2208,4.2728,0.96138,0.53674179,-0.72399717,-0.44665413
1764435361.4481995,1.2208,4.2728,0.96138,0.53674179,-0.72399717,-0.44665413
1764435361.4481995,1.2208,4.2728,0.96138,0.53674179,-0.72399717,-0.44665413
1764435361.4481995,1.2208,4.2728,0.96138,0.53674179,-0.72399717,-0.44665413
1764435361.4481995,1.2208,4.2728,0.96138,0.53674179,-0.72399717,-0.44665413
1764435361.4481995,0.6714399999999999,4.08968,0.96138,0.536924895,-0.72448545,-0.445616535
1764435361.4481995,0.6714399999999999,4.08968,0.96138,0.536924895,-0.72448545,-0.445616535
1764435361.4481995,0.6714399999999999,4.08968,0.96138,0.536924895,-0.72448545,-0.445616535
1764435361.4481995,0.6714399999999999,4.08968,0.96138,0.536924895,-0.72448545,-0.445616535
1764435361.4481995,0.6714399999999999,4.08968,0.96138,0.536924895,-0.72448545,-0.445616535
1764435361.4481995,0.6714399999999999,4.08968,0.96138,0.536924895,-0.72448545,-0.445616535
1764435361.4481995,0.6714399999999999,4.08968,0.96138,0.536924895,-0.72448545,-0.445616535
1764435361.4481995,0.6714399999999999,4.08968,0.96138,0.536924895,-0.72448545,-0.445616535
1764435361.4481995,0.6714399999999999,4.08968,0.96138,0.536924895,-0.72448545,-0.445616535
1764435361.4481995,0.6714399999999999,4.08968,0.96138,0.536924895,-0.72448545,-0.445616535
1764435361.4481995,0.6103999999999999,4.15072,0.47306,0.536924895,-0.72424131,-0.446104815
1764435361.4481995,0.6103999999999999,4.15072,0.47306,0.536924895,-0.72424131,-0.446104815
1764435361.4481995,0.6103999999999999,4.15072,0.47306,0.536924895,-0.72424131,-0.446104815
1764435361.4481995,0.6103999999999999,4.15072,0.47306,0.536924895,-0.72424131,-0.446104815
1764435361.4481995,0.6103999999999999,4.15072,0.47306,0.536924895,-0.72424131,-0.446104815
1764435361.4481995,0.6103999999999999,4.15072,0.47306,0.536924895,-0.72424131,-0.446104815
1764435361.4481995,0.6103999999999999,4.15072,0.47306,0.536924895,-0.72424131,-0.446104815
1764435361.4481995,0.6103999999999999,4.15072,0.47306,0.536924895,-0.72424131,-0.446104815
1764435361.493889,0.6103999999999999,4.15072,0.47306,0.536924895,-0.72424131,-0.446104815
1764435361.493889,0.6103999999999999,4.15072,0.47306,0.536924895,-0.72424131,-0.446104815
1764435361.493889,0.19838,3.64714,0.44254,0.537535245,-0.72424131,-0.446104815
1764435361.493889,0.19838,3.64714,0.44254,0.537535245,-0.72424131,-0.446104815
1764435361.493889,0.19838,3.64714,0.44254,0.537535245,-0.72424131,-0.446104815
1764435361.493889,0.19838,3.64714,0.44254,0.537535245,-0.72424131,-0.446104815
1764435361.493889,0.19838,3.64714,0.44254,0.537535245,-0.72424131,-0.446104815
1764435361.493889,0.19838,3.64714,0.44254,0.537535245,-0.72424131,-0.446104815
1764435361.493889,0.19838,3.64714,0.44254,0.537535245,-0.72424131,-0.446104815
1764435361.493889,0.19838,3.64714,0.44254,0.537535245,-0.72424131,-0.446104815
1764435361.493889,0.19838,3.64714,0.44254,0.537535245,-0.72424131,-0.446104815
1764435361.495401,0.19838,3.64714,0.44254,0.537535245,-0.72424131,-0.446104815
1764435361.495401,0.0762999999999999,3.815,0.48832,0.53759628,-0.725156835,-0.44579964
1764435361.495401,0.0762999999999999,3.815,0.48832,0.53759628,-0.725156835,-0.44579964
1764435361.495401,0.0762999999999999,3.815,0.48832,0.53759628,-0.725156835,-0.44579964
1764435361.495401,0.0762999999999999,3.815,0.48832,0.53759628,-0.725156835,-0.44579964
1764435361.495401,0.0762999999999999,3.815,0.48832,0.53759628,-0.725156835,-0.44579964
1764435361.495401,0.0762999999999999,3.815,0.48832,0.53759628,-0.725156835,-0.44579964
1764435361.495401,0.0762999999999999,3.815,0.48832,0.53759628,-0.725156835,-0.44579964
1764435361.495401,0.0762999999999999,3.815,0.48832,0.53759628,-0.725156835,-0.44579964
1764435361.495401,0.0762999999999999,3.815,0.48832,0.53759628,-0.725156835,-0.44579964
1764435361.495401,0.0762999999999999,3.815,0.48832,0.53759628,-0.725156835,-0.44579964
1764435361.5393655,0.25942,4.15072,1.08346,0.537291105,-0.72448545,-0.444884115
1764435361.5403774,0.25942,4.15072,1.08346,0.537291105,-0.72448545,-0.444884115
1764435361.5403774,0.25942,4.15072,1.08346,0.537291105,-0.72448545,-0.444884115
1764435361.5403774,0.25942,4.15072,1.08346,0.537291105,-0.72448545,-0.444884115
1764435361.5403774,0.25942,4.15072,1.08346,0.537291105,-0.72448545,-0.444884115
1764435361.5413752,0.25942,4.15072,1.08346,0.537291105,-0.72448545,-0.444884115
1764435361.5413752,0.25942,4.15072,1.08346,0.537291105,-0.72448545,-0.444884115
1764435361.5413752,0.25942,4.15072,1.08346,0.537291105,-0.72448545,-0.444884115
1764435361.5413752,0.25942,4.15072,1.08346,0.537291105,-0.72448545,-0.444884115
1764435361.5413752,0.25942,4.15072,1.08346,0.537291105,-0.72448545,-0.444884115
1764435361.5413752,0.01526,3.8913,0.8698199999999999,0.537535245,-0.7250958,-0.44543343
1764435361.5423756,0.01526,3.8913,0.8698199999999999,0.537535245,-0.7250958,-0.44543343
1764435361.5423756,0.01526,3.8913,0.8698199999999999,0.537535245,-0.7250958,-0.44543343
1764435361.5423756,0.01526,3.8913,0.8698199999999999,0.537535245,-0.7250958,-0.44543343
1764435361.5423756,0.01526,3.8913,0.8698199999999999,0.537535245,-0.7250958,-0.44543343
1764435361.5423756,0.01526,3.8913,0.8698199999999999,0.537535245,-0.7250958,-0.44543343
1764435361.5423756,0.01526,3.8913,0.8698199999999999,0.537535245,-0.7250958,-0.44543343
1764435361.5423756,0.01526,3.8913,0.8698199999999999,0.537535245,-0.7250958,-0.44543343
1764435361.5423756,0.01526,3.8913,0.8698199999999999,0.537535245,-0.7250958,-0.44543343
1764435361.5423756,0.01526,3.8913,0.8698199999999999,0.537535245,-0.7250958,-0.44543343
1764435361.54346,-0.0762999999999999,4.21176,0.7019599999999999,0.53771835,-0.725278905,-0.445372395
1764435361.54346,-0.0762999999999999,4.21176,0.7019599999999999,0.53771835,-0.725278905,-0.445372395
1764435361.584653,-0.0762999999999999,4.21176,0.7019599999999999,0.53771835,-0.725278905,-0.445372395
1764435361.584653,-0.0762999999999999,4.21176,0.7019599999999999,0.53771835,-0.725278905,-0.445372395
1764435361.584653,-0.0762999999999999,4.21176,0.7019599999999999,0.53771835,-0.725278905,-0.445372395
1764435361.584653,-0.0762999999999999,4.21176,0.7019599999999999,0.53771835,-0.725278905,-0.445372395
1764435361.584653,-0.0762999999999999,4.21176,0.7019599999999999,0.53771835,-0.725278905,-0.445372395
1764435361.584653,-0.0762999999999999,4.21176,0.7019599999999999,0.53771835,-0.725278905,-0.445372395
1764435361.584653,-0.0762999999999999,4.21176,0.7019599999999999,0.53771835,-0.725278905,-0.445372395
1764435361.584653,-0.0762999999999999,4.21176,0.7019599999999999,0.53771835,-0.725278905,-0.445372395
1764435361.584653,0.47306,4.059159999999999,0.59514,0.53808456,-0.7256451150000001,-0.445738605
1764435361.584653,0.47306,4.059159999999999,0.59514,0.53808456,-0.7256451150000001,-0.445738605
1764435361.584653,0.47306,4.059159999999999,0.59514,0.53808456,-0.7256451150000001,-0.445738605
1764435361.584653,0.47306,4.059159999999999,0.59514,0.53808456,-0.7256451150000001,-0.445738605
1764435361.584653,0.47306,4.059159999999999,0.59514,0.53808456,-0.7256451150000001,-0.445738605
1764435361.584653,0.47306,4.059159999999999,0.59514,0.53808456,-0.7256451150000001,-0.445738605
1764435361.5856657,0.47306,4.059159999999999,0.59514,0.53808456,-0.7256451150000001,-0.445738605
1764435361.5856657,0.47306,4.059159999999999,0.59514,0.53808456,-0.7256451150000001,-0.445738605
1764435361.5856657,0.47306,4.059159999999999,0.59514,0.53808456,-0.7256451150000001,-0.445738605
1764435361.5856657,0.47306,4.059159999999999,0.59514,0.53808456,-0.7256451150000001,-0.445738605
1764435361.5856657,0.41202,4.08968,1.25132,0.53759628,-0.72546201,-0.44482308
1764435361.5856657,0.41202,4.08968,1.25132,0.53759628,-0.72546201,-0.44482308
1764435361.5856657,0.41202,4.08968,1.25132,0.53759628,-0.72546201,-0.44482308
1764435361.5856657,0.41202,4.08968,1.25132,0.53759628,-0.72546201,-0.44482308
1764435361.5856657,0.41202,4.08968,1.25132,0.53759628,-0.72546201,-0.44482308
1764435361.5856657,0.41202,4.08968,1.25132,0.53759628,-0.72546201,-0.44482308
1764435361.6339438,0.41202,4.08968,1.25132,0.53759628,-0.72546201,-0.44482308
1764435361.6339438,0.41202,4.08968,1.25132,0.53759628,-0.72546201,-0.44482308
1764435361.6339438,0.41202,4.08968,1.25132,0.53759628,-0.72546201,-0.44482308
1764435361.6339438,0.41202,4.08968,1.25132,0.53759628,-0.72546201,-0.44482308
1764435361.6339438,0.59514,3.54032,0.57988,0.53796249,-0.72595029,-0.44470101
1764435361.6339438,0.59514,3.54032,0.57988,0.53796249,-0.72595029,-0.44470101
1764435361.6339438,0.59514,3.54032,0.57988,0.53796249,-0.72595029,-0.44470101
1764435361.6349428,0.59514,3.54032,0.57988,0.53796249,-0.72595029,-0.44470101
1764435361.6349428,0.59514,3.54032,0.57988,0.53796249,-0.72595029,-0.44470101
1764435361.6349428,0.59514,3.54032,0.57988,0.53796249,-0.72595029,-0.44470101
1764435361.6349428,0.59514,3.54032,0.57988,0.53796249,-0.72595029,-0.44470101
1764435361.6349428,0.59514,3.54032,0.57988,0.53796249,-0.72595029,-0.44470101
1764435361.6361098,0.59514,3.54032,0.57988,0.53796249,-0.72595029,-0.44470101
1764435361.6361098,0.59514,3.54032,0.57988,0.53796249,-0.72595029,-0.44470101
1764435361.6361098,0.51884,3.72344,0.6714399999999999,0.53796249,-0.724912695,-0.445128255
1764435361.6361098,0.51884,3.72344,0.6714399999999999,0.53796249,-0.724912695,-0.445128255
1764435361.6361098,0.51884,3.72344,0.6714399999999999,0.53796249,-0.724912695,-0.445128255
1764435361.6371105,0.51884,3.72344,0.6714399999999999,0.53796249,-0.724912695,-0.445128255
1764435361.6371105,0.51884,3.72344,0.6714399999999999,0.53796249,-0.724912695,-0.445128255
1764435361.6371105,0.51884,3.72344,0.6714399999999999,0.53796249,-0.724912695,-0.445128255
1764435361.6371105,0.51884,3.72344,0.6714399999999999,0.53796249,-0.724912695,-0.445128255
1764435361.6371105,0.51884,3.72344,0.6714399999999999,0.53796249,-0.724912695,-0.445128255
1764435361.6381135,0.51884,3.72344,0.6714399999999999,0.53796249,-0.724912695,-0.445128255
1764435361.6381135,0.51884,3.72344,0.6714399999999999,0.53796249,-0.724912695,-0.445128255
1764435361.6807146,-0.09156,3.44876,0.59514,0.5380235250000001,-0.72533994,-0.4443348
1764435361.6807146,-0.09156,3.44876,0.59514,0.5380235250000001,-0.72533994,-0.4443348
1764435361.6818364,-0.09156,3.44876,0.59514,0.5380235250000001,-0.72533994,-0.4443348
1764435361.6818364,-0.09156,3.44876,0.59514,0.5380235250000001,-0.72533994,-0.4443348
1764435361.6823444,-0.09156,3.44876,0.59514,0.5380235250000001,-0.72533994,-0.4443348
1764435361.6823444,-0.09156,3.44876,0.59514,0.5380235250000001,-0.72533994,-0.4443348
1764435361.6823444,-0.09156,3.44876,0.59514,0.5380235250000001,-0.72533994,-0.4443348
1764435361.6823444,-0.09156,3.44876,0.59514,0.5380235250000001,-0.72533994,-0.4443348
1764435361.6833549,-0.09156,3.44876,0.59514,0.5380235250000001,-0.72533994,-0.4443348
1764435361.6833549,-0.09156,3.44876,0.59514,0.5380235250000001,-0.72533994,-0.4443348
1764435361.6833549,-0.48832,3.79974,0.77826,0.537169035,-0.725767185,-0.4443348
1764435361.6833549,-0.48832,3.79974,0.77826,0.537169035,-0.725767185,-0.4443348
1764435361.6833549,-0.48832,3.79974,0.77826,0.537169035,-0.725767185,-0.4443348
1764435361.6833549,-0.48832,3.79974,0.77826,0.537169035,-0.725767185,-0.4443348
1764435361.6833549,-0.48832,3.79974,0.77826,0.537169035,-0.725767185,-0.4443348
1764435361.6833549,-0.48832,3.79974,0.77826,0.537169035,-0.725767185,-0.4443348
1764435361.6833549,-0.48832,3.79974,0.77826,0.537169035,-0.725767185,-0.4443348
1764435361.6833549,-0.48832,3.79974,0.77826,0.537169035,-0.725767185,-0.4443348
1764435361.6843598,-0.48832,3.79974,0.77826,0.537169035,-0.725767185,-0.4443348
1764435361.6843598,-0.48832,3.79974,0.77826,0.537169035,-0.725767185,-0.4443348
1764435361.6843598,-0.3357199999999999,3.86078,0.7019599999999999,0.5369859300000001,-0.725767185,-0.444273765
1764435361.6843598,-0.3357199999999999,3.86078,0.7019599999999999,0.5369859300000001,-0.725767185,-0.444273765
1764435361.6843598,-0.3357199999999999,3.86078,0.7019599999999999,0.5369859300000001,-0.725767185,-0.444273765
1764435361.6843598,-0.3357199999999999,3.86078,0.7019599999999999,0.5369859300000001,-0.725767185,-0.444273765
1764435361.7231803,-0.3357199999999999,3.86078,0.7019599999999999,0.5369859300000001,-0.725767185,-0.444273765
1764435361.7231803,-0.3357199999999999,3.86078,0.7019599999999999,0.5369859300000001,-0.725767185,-0.444273765
1764435361.724197,-0.3357199999999999,3.86078,0.7019599999999999,0.5369859300000001,-0.725767185,-0.444273765
1764435361.724197,-0.3357199999999999,3.86078,0.7019599999999999,0.5369859300000001,-0.725767185,-0.444273765
1764435361.724197,-0.3357199999999999,3.86078,0.7019599999999999,0.5369859300000001,-0.725767185,-0.444273765
1764435361.724197,-0.3357199999999999,3.86078,0.7019599999999999,0.5369859300000001,-0.725767185,-0.444273765
1764435361.724197,-0.7019599999999999,3.815,0.71722,0.53723007,-0.72607236,-0.44421273
1764435361.724197,-0.7019599999999999,3.815,0.71722,0.53723007,-0.72607236,-0.44421273
1764435361.724197,-0.7019599999999999,3.815,0.71722,0.53723007,-0.72607236,-0.44421273
1764435361.724197,-0.7019599999999999,3.815,0.71722,0.53723007,-0.72607236,-0.44421273
1764435361.7251935,-0.7019599999999999,3.815,0.71722,0.53723007,-0.72607236,-0.44421273
1764435361.7251935,-0.7019599999999999,3.815,0.71722,0.53723007,-0.72607236,-0.44421273
1764435361.7251935,-0.7019599999999999,3.815,0.71722,0.53723007,-0.72607236,-0.44421273
1764435361.725705,-0.7019599999999999,3.815,0.71722,0.53723007,-0.72607236,-0.44421273
1764435361.725705,-0.7019599999999999,3.815,0.71722,0.53723007,-0.72607236,-0.44421273
1764435361.725705,-0.7019599999999999,3.815,0.71722,0.53723007,-0.72607236,-0.44421273
1764435361.725705,-0.44254,3.57084,0.57988,0.5374742100000001,-0.72607236,-0.44396859
1764435361.725705,-0.44254,3.57084,0.57988,0.5374742100000001,-0.72607236,-0.44396859
1764435361.725705,-0.44254,3.57084,0.57988,0.5374742100000001,-0.72607236,-0.44396859
1764435361.725705,-0.44254,3.57084,0.57988,0.5374742100000001,-0.72607236,-0.44396859
1764435361.725705,-0.44254,3.57084,0.57988,0.5374742100000001,-0.72607236,-0.44396859
1764435361.725705,-0.44254,3.57084,0.57988,0.5374742100000001,-0.72607236,-0.44396859
1764435361.7722428,-0.44254,3.57084,0.57988,0.5374742100000001,-0.72607236,-0.44396859
1764435361.7727854,-0.44254,3.57084,0.57988,0.5374742100000001,-0.72607236,-0.44396859
1764435361.7727854,-0.44254,3.57084,0.57988,0.5374742100000001,-0.72607236,-0.44396859
1764435361.7727854,-0.44254,3.57084,0.57988,0.5374742100000001,-0.72607236,-0.44396859
1764435361.7727854,-0.41202,3.8913,0.73248,0.537657315,-0.725889255,-0.444151695
1764435361.7727854,-0.41202,3.8913,0.73248,0.537657315,-0.725889255,-0.444151695
1764435361.7727854,-0.41202,3.8913,0.73248,0.537657315,-0.725889255,-0.444151695
1764435361.7727854,-0.41202,3.8913,0.73248,0.537657315,-0.725889255,-0.444151695
1764435361.7727854,-0.41202,3.8913,0.73248,0.537657315,-0.725889255,-0.444151695
1764435361.7727854,-0.41202,3.8913,0.73248,0.537657315,-0.725889255,-0.444151695
1764435361.7727854,-0.41202,3.8913,0.73248,0.537657315,-0.725889255,-0.444151695
1764435361.7727854,-0.41202,3.8913,0.73248,0.537657315,-0.725889255,-0.444151695
1764435361.7727854,-0.41202,3.8913,0.73248,0.537657315,-0.725889255,-0.444151695
1764435361.7727854,-0.41202,3.8913,0.73248,0.537657315,-0.725889255,-0.444151695
1764435361.7727854,-0.13734,3.93708,0.9156,0.53735214,-0.7263165,-0.444273765
1764435361.7727854,-0.13734,3.93708,0.9156,0.53735214,-0.7263165,-0.444273765
1764435361.7727854,-0.13734,3.93708,0.9156,0.53735214,-0.7263165,-0.444273765
1764435361.7727854,-0.13734,3.93708,0.9156,0.53735214,-0.7263165,-0.444273765
1764435361.7727854,-0.13734,3.93708,0.9156,0.53735214,-0.7263165,-0.444273765
1764435361.7727854,-0.13734,3.93708,0.9156,0.53735214,-0.7263165,-0.444273765
1764435361.7727854,-0.13734,3.93708,0.9156,0.53735214,-0.7263165,-0.444273765
1764435361.7727854,-0.13734,3.93708,0.9156,0.53735214,-0.7263165,-0.444273765
1764435361.7727854,-0.13734,3.93708,0.9156,0.53735214,-0.7263165,-0.444273765
1764435361.7727854,-0.13734,3.93708,0.9156,0.53735214,-0.7263165,-0.444273765
1764435361.8201284,-0.24416,3.78448,0.65618,0.53723007,-0.72680478,-0.44445687
1764435361.8201284,-0.24416,3.78448,0.65618,0.53723007,-0.72680478,-0.44445687
1764435361.8201284,-0.24416,3.78448,0.65618,0.53723007,-0.72680478,-0.44445687
1764435361.8201284,-0.24416,3.78448,0.65618,0.53723007,-0.72680478,-0.44445687
1764435361.8201284,-0.24416,3.78448,0.65618,0.53723007,-0.72680478,-0.44445687
1764435361.8201284,-0.24416,3.78448,0.65618,0.53723007,-0.72680478,-0.44445687
1764435361.8201284,-0.24416,3.78448,0.65618,0.53723007,-0.72680478,-0.44445687
1764435361.8206687,-0.24416,3.78448,0.65618,0.53723007,-0.72680478,-0.44445687
1764435361.8206687,-0.24416,3.78448,0.65618,0.53723007,-0.72680478,-0.44445687
1764435361.8206687,-0.24416,3.78448,0.65618,0.53723007,-0.72680478,-0.44445687
1764435361.8206687,-0.01526,3.69292,0.82404,0.536924895,-0.72656064,-0.44421273
1764435361.8206687,-0.01526,3.69292,0.82404,0.536924895,-0.72656064,-0.44421273
1764435361.8206687,-0.01526,3.69292,0.82404,0.536924895,-0.72656064,-0.44421273
1764435361.8206687,-0.01526,3.69292,0.82404,0.536924895,-0.72656064,-0.44421273
1764435361.8206687,-0.01526,3.69292,0.82404,0.536924895,-0.72656064,-0.44421273
1764435361.8206687,-0.01526,3.69292,0.82404,0.536924895,-0.72656064,-0.44421273
1764435361.8206687,-0.01526,3.69292,0.82404,0.536924895,-0.72656064,-0.44421273
1764435361.8206687,-0.01526,3.69292,0.82404,0.536924895,-0.72656064,-0.44421273
1764435361.8206687,-0.01526,3.69292,0.82404,0.536924895,-0.72656064,-0.44421273
1764435361.8206687,-0.01526,3.69292,0.82404,0.536924895,-0.72656064,-0.44421273
1764435361.8206687,-0.1525999999999999,3.8913,0.8087799999999999,0.537046965,-0.7263165,-0.443663415
1764435361.8206687,-0.1525999999999999,3.8913,0.8087799999999999,0.537046965,-0.7263165,-0.443663415
1764435361.8688536,-0.1525999999999999,3.8913,0.8087799999999999,0.537046965,-0.7263165,-0.443663415
1764435361.8688536,-0.1525999999999999,3.8913,0.8087799999999999,0.537046965,-0.7263165,-0.443663415
1764435361.869868,-0.1525999999999999,3.8913,0.8087799999999999,0.537046965,-0.7263165,-0.443663415
1764435361.869868,-0.1525999999999999,3.8913,0.8087799999999999,0.537046965,-0.7263165,-0.443663415
1764435361.869868,-0.1525999999999999,3.8913,0.8087799999999999,0.537046965,-0.7263165,-0.443663415
1764435361.869868,-0.1525999999999999,3.8913,0.8087799999999999,0.537046965,-0.7263165,-0.443663415
1764435361.869868,-0.1525999999999999,3.8913,0.8087799999999999,0.537046965,-0.7263165,-0.443663415
1764435361.869868,-0.1525999999999999,3.8913,0.8087799999999999,0.537046965,-0.7263165,-0.443663415
1764435361.869868,-0.3815,3.86078,0.6714399999999999,0.53686386,-0.72521787,-0.44396859
1764435361.869868,-0.3815,3.86078,0.6714399999999999,0.53686386,-0.72521787,-0.44396859
1764435361.869868,-0.3815,3.86078,0.6714399999999999,0.53686386,-0.72521787,-0.44396859
1764435361.869868,-0.3815,3.86078,0.6714399999999999,0.53686386,-0.72521787,-0.44396859
1764435361.869868,-0.3815,3.86078,0.6714399999999999,0.53686386,-0.72521787,-0.44396859
1764435361.869868,-0.3815,3.86078,0.6714399999999999,0.53686386,-0.72521787,-0.44396859
1764435361.869868,-0.3815,3.86078,0.6714399999999999,0.53686386,-0.72521787,-0.44396859
1764435361.869868,-0.3815,3.86078,0.6714399999999999,0.53686386,-0.72521787,-0.44396859
1764435361.869868,-0.3815,3.86078,0.6714399999999999,0.53686386,-0.72521787,-0.44396859
1764435361.869868,-0.3815,3.86078,0.6714399999999999,0.53686386,-0.72521787,-0.44396859
1764435361.869868,-0.763,3.49454,0.9003399999999999,0.537779385,-0.72570615,-0.443175135
1764435361.869868,-0.763,3.49454,0.9003399999999999,0.537779385,-0.72570615,-0.443175135
1764435361.869868,-0.763,3.49454,0.9003399999999999,0.537779385,-0.72570615,-0.443175135
1764435361.869868,-0.763,3.49454,0.9003399999999999,0.537779385,-0.72570615,-0.443175135
1764435361.870854,-0.763,3.49454,0.9003399999999999,0.537779385,-0.72570615,-0.443175135
1764435361.870854,-0.763,3.49454,0.9003399999999999,0.537779385,-0.72570615,-0.443175135
1764435361.910638,-0.763,3.49454,0.9003399999999999,0.537779385,-0.72570615,-0.443175135
1764435361.910638,-0.763,3.49454,0.9003399999999999,0.537779385,-0.72570615,-0.443175135
1764435361.910638,-0.763,3.49454,0.9003399999999999,0.537779385,-0.72570615,-0.443175135
1764435361.910638,-0.763,3.49454,0.9003399999999999,0.537779385,-0.72570615,-0.443175135
1764435361.910638,-0.94612,3.6624,0.50358,0.53686386,-0.72582822,-0.442564785
1764435361.9111512,-0.94612,3.6624,0.50358,0.53686386,-0.72582822,-0.442564785
1764435361.9111512,-0.94612,3.6624,0.50358,0.53686386,-0.72582822,-0.442564785
1764435361.9111512,-0.94612,3.6624,0.50358,0.53686386,-0.72582822,-0.442564785
1764435361.9111512,-0.94612,3.6624,0.50358,0.53686386,-0.72582822,-0.442564785
1764435361.9111512,-0.94612,3.6624,0.50358,0.53686386,-0.72582822,-0.442564785
1764435361.9111512,-0.94612,3.6624,0.50358,0.53686386,-0.72582822,-0.442564785
1764435361.9111512,-0.94612,3.6624,0.50358,0.53686386,-0.72582822,-0.442564785
1764435361.9111512,-0.94612,3.6624,0.50358,0.53686386,-0.72582822,-0.442564785
1764435361.9111512,-0.94612,3.6624,0.50358,0.53686386,-0.72582822,-0.442564785
1764435361.9111512,-0.57988,4.01338,0.3815,0.53771835,-0.72533994,-0.44299203
1764435361.9111512,-0.57988,4.01338,0.3815,0.53771835,-0.72533994,-0.44299203
1764435361.9116604,-0.57988,4.01338,0.3815,0.53771835,-0.72533994,-0.44299203
1764435361.9116604,-0.57988,4.01338,0.3815,0.53771835,-0.72533994,-0.44299203
1764435361.9116604,-0.57988,4.01338,0.3815,0.53771835,-0.72533994,-0.44299203
1764435361.9116604,-0.57988,4.01338,0.3815,0.53771835,-0.72533994,-0.44299203
1764435361.9116604,-0.57988,4.01338,0.3815,0.53771835,-0.72533994,-0.44299203
1764435361.9116604,-0.57988,4.01338,0.3815,0.53771835,-0.72533994,-0.44299203
1764435361.9116604,-0.57988,4.01338,0.3815,0.53771835,-0.72533994,-0.44299203
1764435361.9116604,-0.57988,4.01338,0.3815,0.53771835,-0.72533994,-0.44299203
1764435361.9591696,-0.79352,3.5861,0.93086,0.537657315,-0.72546201,-0.44262582
1764435361.9597192,-0.79352,3.5861,0.93086,0.537657315,-0.72546201,-0.44262582
1764435361.9597192,-0.79352,3.5861,0.93086,0.537657315,-0.72546201,-0.44262582
1764435361.9597192,-0.79352,3.5861,0.93086,0.537657315,-0.72546201,-0.44262582
1764435361.9597192,-0.79352,3.5861,0.93086,0.537657315,-0.72546201,-0.44262582
1764435361.9597192,-0.79352,3.5861,0.93086,0.537657315,-0.72546201,-0.44262582
1764435361.9597192,-0.79352,3.5861,0.93086,0.537657315,-0.72546201,-0.44262582
1764435361.9597192,-0.79352,3.5861,0.93086,0.537657315,-0.72546201,-0.44262582
1764435361.9597192,-0.79352,3.5861,0.93086,0.537657315,-0.72546201,-0.44262582
1764435361.9597192,-0.79352,3.5861,0.93086,0.537657315,-0.72546201,-0.44262582
1764435361.9597192,-0.39676,3.92182,0.3815,0.5364366150000001,-0.7263165,-0.44213754
1764435361.9607356,-0.39676,3.92182,0.3815,0.5364366150000001,-0.7263165,-0.44213754
1764435361.9607356,-0.39676,3.92182,0.3815,0.5364366150000001,-0.7263165,-0.44213754
1764435361.9607356,-0.39676,3.92182,0.3815,0.5364366150000001,-0.7263165,-0.44213754
1764435361.9607356,-0.39676,3.92182,0.3815,0.5364366150000001,-0.7263165,-0.44213754
1764435361.9607356,-0.39676,3.92182,0.3815,0.5364366150000001,-0.7263165,-0.44213754
1764435361.9607356,-0.39676,3.92182,0.3815,0.5364366150000001,-0.7263165,-0.44213754
1764435361.9607356,-0.39676,3.92182,0.3815,0.5364366150000001,-0.7263165,-0.44213754
1764435361.9607356,-0.39676,3.92182,0.3815,0.5364366150000001,-0.7263165,-0.44213754
1764435361.9607356,-0.39676,3.92182,0.3815,0.5364366150000001,-0.7263165,-0.44213754
1764435361.9607356,-0.82404,3.8913,0.88508,0.536680755,-0.725523045,-0.442442715
1764435361.9607356,-0.82404,3.8913,0.88508,0.536680755,-0.725523045,-0.442442715
1764435361.9607356,-0.82404,3.8913,0.88508,0.536680755,-0.725523045,-0.442442715
1764435361.9618187,-0.82404,3.8913,0.88508,0.536680755,-0.725523045,-0.442442715
1764435362.0062222,-0.82404,3.8913,0.88508,0.536680755,-0.725523045,-0.442442715
1764435362.0062222,-0.82404,3.8913,0.88508,0.536680755,-0.725523045,-0.442442715
1764435362.0062222,-0.82404,3.8913,0.88508,0.536680755,-0.725523045,-0.442442715
1764435362.0062222,-0.82404,3.8913,0.88508,0.536680755,-0.725523045,-0.442442715
1764435362.0062222,-0.82404,3.8913,0.88508,0.536680755,-0.725523045,-0.442442715
1764435362.0062222,-0.82404,3.8913,0.88508,0.536680755,-0.725523045,-0.442442715
1764435362.0062222,-0.56462,4.15072,0.85456,0.5369859300000001,-0.7261944300000001,-0.442564785
1764435362.0062222,-0.56462,4.15072,0.85456,0.5369859300000001,-0.7261944300000001,-0.442564785
1764435362.0062222,-0.56462,4.15072,0.85456,0.5369859300000001,-0.7261944300000001,-0.442564785
1764435362.0062222,-0.56462,4.15072,0.85456,0.5369859300000001,-0.7261944300000001,-0.442564785
1764435362.0062222,-0.56462,4.15072,0.85456,0.5369859300000001,-0.7261944300000001,-0.442564785
1764435362.0062222,-0.56462,4.15072,0.85456,0.5369859300000001,-0.7261944300000001,-0.442564785
1764435362.0062222,-0.56462,4.15072,0.85456,0.5369859300000001,-0.7261944300000001,-0.442564785
1764435362.0062222,-0.56462,4.15072,0.85456,0.5369859300000001,-0.7261944300000001,-0.442564785
1764435362.0062222,-0.56462,4.15072,0.85456,0.5369859300000001,-0.7261944300000001,-0.442564785
1764435362.0062222,-0.56462,4.15072,0.85456,0.5369859300000001,-0.7261944300000001,-0.442564785
1764435362.0062222,-0.27468,3.41824,0.79352,0.537046965,-0.725767185,-0.44250375
1764435362.0062222,-0.27468,3.41824,0.79352,0.537046965,-0.725767185,-0.44250375
1764435362.0062222,-0.27468,3.41824,0.79352,0.537046965,-0.725767185,-0.44250375
1764435362.0062222,-0.27468,3.41824,0.79352,0.537046965,-0.725767185,-0.44250375
1764435362.0062222,-0.27468,3.41824,0.79352,0.537046965,-0.725767185,-0.44250375
1764435362.0062222,-0.27468,3.41824,0.79352,0.537046965,-0.725767185,-0.44250375
1764435362.0503616,-0.27468,3.41824,0.79352,0.537046965,-0.725767185,-0.44250375
1764435362.0503616,-0.27468,3.41824,0.79352,0.537046965,-0.725767185,-0.44250375
1764435362.0503616,-0.27468,3.41824,0.79352,0.537046965,-0.725767185,-0.44250375
1764435362.0503616,-0.27468,3.41824,0.79352,0.537046965,-0.725767185,-0.44250375
1764435362.0503616,-0.3357199999999999,3.9676,0.3509799999999999,0.536802825,-0.72656064,-0.443175135
1764435362.051378,-0.3357199999999999,3.9676,0.3509799999999999,0.536802825,-0.72656064,-0.443175135
1764435362.051378,-0.3357199999999999,3.9676,0.3509799999999999,0.536802825,-0.72656064,-0.443175135
1764435362.051378,-0.3357199999999999,3.9676,0.3509799999999999,0.536802825,-0.72656064,-0.443175135
1764435362.051378,-0.3357199999999999,3.9676,0.3509799999999999,0.536802825,-0.72656064,-0.443175135
1764435362.051378,-0.3357199999999999,3.9676,0.3509799999999999,0.536802825,-0.72656064,-0.443175135
1764435362.0524306,-0.3357199999999999,3.9676,0.3509799999999999,0.536802825,-0.72656064,-0.443175135
1764435362.0524306,-0.3357199999999999,3.9676,0.3509799999999999,0.536802825,-0.72656064,-0.443175135
1764435362.0524306,-0.3357199999999999,3.9676,0.3509799999999999,0.536802825,-0.72656064,-0.443175135
1764435362.0524306,-0.3357199999999999,3.9676,0.3509799999999999,0.536802825,-0.72656064,-0.443175135
1764435362.0524306,-0.24416,3.76922,0.6103999999999999,0.537169035,-0.72741513,-0.44348031
1764435362.0524306,-0.24416,3.76922,0.6103999999999999,0.537169035,-0.72741513,-0.44348031
1764435362.0524306,-0.24416,3.76922,0.6103999999999999,0.537169035,-0.72741513,-0.44348031
1764435362.0524306,-0.24416,3.76922,0.6103999999999999,0.537169035,-0.72741513,-0.44348031
1764435362.0524306,-0.24416,3.76922,0.6103999999999999,0.537169035,-0.72741513,-0.44348031
1764435362.0524306,-0.24416,3.76922,0.6103999999999999,0.537169035,-0.72741513,-0.44348031
1764435362.0524306,-0.24416,3.76922,0.6103999999999999,0.537169035,-0.72741513,-0.44348031
1764435362.0524306,-0.24416,3.76922,0.6103999999999999,0.537169035,-0.72741513,-0.44348031
1764435362.0524306,-0.24416,3.76922,0.6103999999999999,0.537169035,-0.72741513,-0.44348031
1764435362.0534515,-0.24416,3.76922,0.6103999999999999,0.537169035,-0.72741513,-0.44348031
1764435362.1005363,-0.48832,4.303319999999999,0.73248,0.53784042,-0.726743745,-0.44299203
1764435362.1005363,-0.48832,4.303319999999999,0.73248,0.53784042,-0.726743745,-0.44299203
1764435362.1005363,-0.48832,4.303319999999999,0.73248,0.53784042,-0.726743745,-0.44299203
1764435362.1005363,-0.48832,4.303319999999999,0.73248,0.53784042,-0.726743745,-0.44299203
1764435362.1005363,-0.48832,4.303319999999999,0.73248,0.53784042,-0.726743745,-0.44299203
1764435362.1005363,-0.48832,4.303319999999999,0.73248,0.53784042,-0.726743745,-0.44299203
1764435362.1005363,-0.48832,4.303319999999999,0.73248,0.53784042,-0.726743745,-0.44299203
1764435362.1005363,-0.48832,4.303319999999999,0.73248,0.53784042,-0.726743745,-0.44299203
1764435362.1005363,-0.48832,4.303319999999999,0.73248,0.53784042,-0.726743745,-0.44299203
1764435362.1005363,-0.48832,4.303319999999999,0.73248,0.53784042,-0.726743745,-0.44299203
1764435362.1005363,-1.02242,3.54032,0.74774,0.5383287,-0.726377535,-0.443053065
1764435362.1005363,-1.02242,3.54032,0.74774,0.5383287,-0.726377535,-0.443053065
1764435362.1005363,-1.02242,3.54032,0.74774,0.5383287,-0.726377535,-0.443053065
1764435362.1005363,-1.02242,3.54032,0.74774,0.5383287,-0.726377535,-0.443053065
1764435362.1005363,-1.02242,3.54032,0.74774,0.5383287,-0.726377535,-0.443053065
1764435362.1005363,-1.02242,3.54032,0.74774,0.5383287,-0.726377535,-0.443053065
1764435362.1005363,-1.02242,3.54032,0.74774,0.5383287,-0.726377535,-0.443053065
1764435362.1015306,-1.02242,3.54032,0.74774,0.5383287,-0.726377535,-0.443053065
1764435362.1015306,-1.02242,3.54032,0.74774,0.5383287,-0.726377535,-0.443053065
1764435362.1015306,-1.02242,3.54032,0.74774,0.5383287,-0.726377535,-0.443053065
1764435362.1015306,-1.02242,3.98286,0.77826,0.53723007,-0.7266827100000001,-0.443541345
1764435362.1015306,-1.02242,3.98286,0.77826,0.53723007,-0.7266827100000001,-0.443541345
1764435362.1441011,-1.02242,3.98286,0.77826,0.53723007,-0.7266827100000001,-0.443541345
1764435362.144636,-1.02242,3.98286,0.77826,0.53723007,-0.7266827100000001,-0.443541345
1764435362.144636,-1.02242,3.98286,0.77826,0.53723007,-0.7266827100000001,-0.443541345
1764435362.144636,-1.02242,3.98286,0.77826,0.53723007,-0.7266827100000001,-0.443541345
1764435362.144636,-1.02242,3.98286,0.77826,0.53723007,-0.7266827100000001,-0.443541345
1764435362.144636,-1.02242,3.98286,0.77826,0.53723007,-0.7266827100000001,-0.443541345
1764435362.144636,-1.02242,3.98286,0.77826,0.53723007,-0.7266827100000001,-0.443541345
1764435362.144636,-1.02242,3.98286,0.77826,0.53723007,-0.7266827100000001,-0.443541345
1764435362.144636,-1.41918,3.64714,0.73248,0.537291105,-0.72692685,-0.442686855
1764435362.144636,-1.41918,3.64714,0.73248,0.537291105,-0.72692685,-0.442686855
1764435362.144636,-1.41918,3.64714,0.73248,0.537291105,-0.72692685,-0.442686855
1764435362.144636,-1.41918,3.64714,0.73248,0.537291105,-0.72692685,-0.442686855
1764435362.144636,-1.41918,3.64714,0.73248,0.537291105,-0.72692685,-0.442686855
1764435362.144636,-1.41918,3.64714,0.73248,0.537291105,-0.72692685,-0.442686855
1764435362.144636,-1.41918,3.64714,0.73248,0.537291105,-0.72692685,-0.442686855
1764435362.144636,-1.41918,3.64714,0.73248,0.537291105,-0.72692685,-0.442686855
1764435362.144636,-1.41918,3.64714,0.73248,0.537291105,-0.72692685,-0.442686855
1764435362.144636,-1.41918,3.64714,0.73248,0.537291105,-0.72692685,-0.442686855
1764435362.144636,-1.05294,3.60136,0.6867,0.5369859300000001,-0.726743745,-0.44274789
1764435362.144636,-1.05294,3.60136,0.6867,0.5369859300000001,-0.726743745,-0.44274789
1764435362.144636,-1.05294,3.60136,0.6867,0.5369859300000001,-0.726743745,-0.44274789
1764435362.144636,-1.05294,3.60136,0.6867,0.5369859300000001,-0.726743745,-0.44274789
1764435362.144636,-1.05294,3.60136,0.6867,0.5369859300000001,-0.726743745,-0.44274789
1764435362.144636,-1.05294,3.60136,0.6867,0.5369859300000001,-0.726743745,-0.44274789
1764435362.1932275,-1.05294,3.60136,0.6867,0.5369859300000001,-0.726743745,-0.44274789
1764435362.1938536,-1.05294,3.60136,0.6867,0.5369859300000001,-0.726743745,-0.44274789
1764435362.1938536,-1.05294,3.60136,0.6867,0.5369859300000001,-0.726743745,-0.44274789
1764435362.1938536,-1.05294,3.60136,0.6867,0.5369859300000001,-0.726743745,-0.44274789
1764435362.1938536,-0.96138,4.08968,0.85456,0.5374742100000001,-0.726255465,-0.44286996
1764435362.1938536,-0.96138,4.08968,0.85456,0.5374742100000001,-0.726255465,-0.44286996
1764435362.1938536,-0.96138,4.08968,0.85456,0.5374742100000001,-0.726255465,-0.44286996
1764435362.1938536,-0.96138,4.08968,0.85456,0.5374742100000001,-0.726255465,-0.44286996
1764435362.1938536,-0.96138,4.08968,0.85456,0.5374742100000001,-0.726255465,-0.44286996
1764435362.1938536,-0.96138,4.08968,0.85456,0.5374742100000001,-0.726255465,-0.44286996
1764435362.1938536,-0.96138,4.08968,0.85456,0.5374742100000001,-0.726255465,-0.44286996
1764435362.1938536,-0.96138,4.08968,0.85456,0.5374742100000001,-0.726255465,-0.44286996
1764435362.1938536,-0.96138,4.08968,0.85456,0.5374742100000001,-0.726255465,-0.44286996
1764435362.1938536,-0.96138,4.08968,0.85456,0.5374742100000001,-0.726255465,-0.44286996
1764435362.1938536,-0.57988,3.7387,0.8392999999999999,0.537779385,-0.726011325,-0.442564785
1764435362.1938536,-0.57988,3.7387,0.8392999999999999,0.537779385,-0.726011325,-0.442564785
1764435362.1938536,-0.57988,3.7387,0.8392999999999999,0.537779385,-0.726011325,-0.442564785
1764435362.1938536,-0.57988,3.7387,0.8392999999999999,0.537779385,-0.726011325,-0.442564785
1764435362.1938536,-0.57988,3.7387,0.8392999999999999,0.537779385,-0.726011325,-0.442564785
1764435362.1938536,-0.57988,3.7387,0.8392999999999999,0.537779385,-0.726011325,-0.442564785
1764435362.1938536,-0.57988,3.7387,0.8392999999999999,0.537779385,-0.726011325,-0.442564785
1764435362.1938536,-0.57988,3.7387,0.8392999999999999,0.537779385,-0.726011325,-0.442564785
1764435362.1948593,-0.57988,3.7387,0.8392999999999999,0.537779385,-0.726011325,-0.442564785
1764435362.1948593,-0.57988,3.7387,0.8392999999999999,0.537779385,-0.726011325,-0.442564785
1764435362.2388294,-0.0762999999999999,3.63188,0.74774,0.537535245,-0.726377535,-0.44250375
1764435362.2388294,-0.0762999999999999,3.63188,0.74774,0.537535245,-0.726377535,-0.44250375
1764435362.2388294,-0.0762999999999999,3.63188,0.74774,0.537535245,-0.726377535,-0.44250375
1764435362.2388294,-0.0762999999999999,3.63188,0.74774,0.537535245,-0.726377535,-0.44250375
1764435362.2388294,-0.0762999999999999,3.63188,0.74774,0.537535245,-0.726377535,-0.44250375
1764435362.2388294,-0.0762999999999999,3.63188,0.74774,0.537535245,-0.726377535,-0.44250375
1764435362.2388294,-0.0762999999999999,3.63188,0.74774,0.537535245,-0.726377535,-0.44250375
1764435362.2388294,-0.0762999999999999,3.63188,0.74774,0.537535245,-0.726377535,-0.44250375
1764435362.2388294,-0.0762999999999999,3.63188,0.74774,0.537535245,-0.726377535,-0.44250375
1764435362.2388294,-0.0762999999999999,3.63188,0.74774,0.537535245,-0.726377535,-0.44250375
1764435362.2388294,0.3357199999999999,3.55558,0.5341,0.53771835,-0.726255465,-0.44201547
1764435362.2388294,0.3357199999999999,3.55558,0.5341,0.53771835,-0.726255465,-0.44201547
1764435362.23936,0.3357199999999999,3.55558,0.5341,0.53771835,-0.726255465,-0.44201547
1764435362.23936,0.3357199999999999,3.55558,0.5341,0.53771835,-0.726255465,-0.44201547
1764435362.2403743,0.3357199999999999,3.55558,0.5341,0.53771835,-0.726255465,-0.44201547
1764435362.2403743,0.3357199999999999,3.55558,0.5341,0.53771835,-0.726255465,-0.44201547
1764435362.2403743,0.3357199999999999,3.55558,0.5341,0.53771835,-0.726255465,-0.44201547
1764435362.2403743,0.3357199999999999,3.55558,0.5341,0.53771835,-0.726255465,-0.44201547
1764435362.2403743,0.3357199999999999,3.55558,0.5341,0.53771835,-0.726255465,-0.44201547
1764435362.2403743,0.3357199999999999,3.55558,0.5341,0.53771835,-0.726255465,-0.44201547
1764435362.2403743,-0.27468,3.76922,0.48832,0.53771835,-0.726133395,-0.441954435
1764435362.2403743,-0.27468,3.76922,0.48832,0.53771835,-0.726133395,-0.441954435
1764435362.2403743,-0.27468,3.76922,0.48832,0.53771835,-0.726133395,-0.441954435
1764435362.2403743,-0.27468,3.76922,0.48832,0.53771835,-0.726133395,-0.441954435
1764435362.288394,-0.27468,3.76922,0.48832,0.53771835,-0.726133395,-0.441954435
1764435362.288394,-0.27468,3.76922,0.48832,0.53771835,-0.726133395,-0.441954435
1764435362.288394,-0.27468,3.76922,0.48832,0.53771835,-0.726133395,-0.441954435
1764435362.288394,-0.27468,3.76922,0.48832,0.53771835,-0.726133395,-0.441954435
1764435362.288394,-0.27468,3.76922,0.48832,0.53771835,-0.726133395,-0.441954435
1764435362.288394,-0.27468,3.76922,0.48832,0.53771835,-0.726133395,-0.441954435
1764435362.288394,-0.6103999999999999,3.815,0.8392999999999999,0.537779385,-0.72595029,-0.44238168
1764435362.288394,-0.6103999999999999,3.815,0.8392999999999999,0.537779385,-0.72595029,-0.44238168
1764435362.288394,-0.6103999999999999,3.815,0.8392999999999999,0.537779385,-0.72595029,-0.44238168
1764435362.288394,-0.6103999999999999,3.815,0.8392999999999999,0.537779385,-0.72595029,-0.44238168
1764435362.288394,-0.6103999999999999,3.815,0.8392999999999999,0.537779385,-0.72595029,-0.44238168
1764435362.288394,-0.6103999999999999,3.815,0.8392999999999999,0.537779385,-0.72595029,-0.44238168
1764435362.288394,-0.6103999999999999,3.815,0.8392999999999999,0.537779385,-0.72595029,-0.44238168
1764435362.288394,-0.6103999999999999,3.815,0.8392999999999999,0.537779385,-0.72595029,-0.44238168
1764435362.288394,-0.6103999999999999,3.815,0.8392999999999999,0.537779385,-0.72595029,-0.44238168
1764435362.288394,-0.6103999999999999,3.815,0.8392999999999999,0.537779385,-0.72595029,-0.44238168
1764435362.288394,-1.1445,3.6624,0.82404,0.537291105,-0.726011325,-0.44274789
1764435362.288394,-1.1445,3.6624,0.82404,0.537291105,-0.726011325,-0.44274789
1764435362.288394,-1.1445,3.6624,0.82404,0.537291105,-0.726011325,-0.44274789
1764435362.288394,-1.1445,3.6624,0.82404,0.537291105,-0.726011325,-0.44274789
1764435362.288394,-1.1445,3.6624,0.82404,0.537291105,-0.726011325,-0.44274789
1764435362.2899525,-1.1445,3.6624,0.82404,0.537291105,-0.726011325,-0.44274789
1764435362.333741,-1.1445,3.6624,0.82404,0.537291105,-0.726011325,-0.44274789
1764435362.333741,-1.1445,3.6624,0.82404,0.537291105,-0.726011325,-0.44274789
1764435362.333741,-1.1445,3.6624,0.82404,0.537291105,-0.726011325,-0.44274789
1764435362.333741,-1.1445,3.6624,0.82404,0.537291105,-0.726011325,-0.44274789
1764435362.333741,-1.17502,3.815,0.6714399999999999,0.53771835,-0.726255465,-0.44274789
1764435362.333741,-1.17502,3.815,0.6714399999999999,0.53771835,-0.726255465,-0.44274789
1764435362.333741,-1.17502,3.815,0.6714399999999999,0.53771835,-0.726255465,-0.44274789
1764435362.333741,-1.17502,3.815,0.6714399999999999,0.53771835,-0.726255465,-0.44274789
1764435362.333741,-1.17502,3.815,0.6714399999999999,0.53771835,-0.726255465,-0.44274789
1764435362.333741,-1.17502,3.815,0.6714399999999999,0.53771835,-0.726255465,-0.44274789
1764435362.3347614,-1.17502,3.815,0.6714399999999999,0.53771835,-0.726255465,-0.44274789
1764435362.3347614,-1.17502,3.815,0.6714399999999999,0.53771835,-0.726255465,-0.44274789
1764435362.3347614,-1.17502,3.815,0.6714399999999999,0.53771835,-0.726255465,-0.44274789
1764435362.3347614,-1.17502,3.815,0.6714399999999999,0.53771835,-0.726255465,-0.44274789
1764435362.3347614,-1.03768,3.72344,0.3204599999999999,0.537901455,-0.726133395,-0.44262582
1764435362.335753,-1.03768,3.72344,0.3204599999999999,0.537901455,-0.726133395,-0.44262582
1764435362.335753,-1.03768,3.72344,0.3204599999999999,0.537901455,-0.726133395,-0.44262582
1764435362.335753,-1.03768,3.72344,0.3204599999999999,0.537901455,-0.726133395,-0.44262582
1764435362.335753,-1.03768,3.72344,0.3204599999999999,0.537901455,-0.726133395,-0.44262582
1764435362.336877,-1.03768,3.72344,0.3204599999999999,0.537901455,-0.726133395,-0.44262582
1764435362.336877,-1.03768,3.72344,0.3204599999999999,0.537901455,-0.726133395,-0.44262582
1764435362.336877,-1.03768,3.72344,0.3204599999999999,0.537901455,-0.726133395,-0.44262582
1764435362.33788,-1.03768,3.72344,0.3204599999999999,0.537901455,-0.726133395,-0.44262582
1764435362.33788,-1.03768,3.72344,0.3204599999999999,0.537901455,-0.726133395,-0.44262582
1764435362.3805797,-0.8698199999999999,4.10494,0.62566,0.537535245,-0.726011325,-0.44286996
1764435362.3805797,-0.8698199999999999,4.10494,0.62566,0.537535245,-0.726011325,-0.44286996
1764435362.3805797,-0.8698199999999999,4.10494,0.62566,0.537535245,-0.726011325,-0.44286996
1764435362.3805797,-0.8698199999999999,4.10494,0.62566,0.537535245,-0.726011325,-0.44286996
1764435362.3805797,-0.8698199999999999,4.10494,0.62566,0.537535245,-0.726011325,-0.44286996
1764435362.3805797,-0.8698199999999999,4.10494,0.62566,0.537535245,-0.726011325,-0.44286996
1764435362.3805797,-0.8698199999999999,4.10494,0.62566,0.537535245,-0.726011325,-0.44286996
1764435362.3805797,-0.8698199999999999,4.10494,0.62566,0.537535245,-0.726011325,-0.44286996
1764435362.3805797,-0.8698199999999999,4.10494,0.62566,0.537535245,-0.726011325,-0.44286996
1764435362.3805797,-0.8698199999999999,4.10494,0.62566,0.537535245,-0.726011325,-0.44286996
1764435362.3805797,-0.48832,4.08968,1.03768,0.53796249,-0.726377535,-0.44299203
1764435362.3805797,-0.48832,4.08968,1.03768,0.53796249,-0.726377535,-0.44299203
1764435362.3805797,-0.48832,4.08968,1.03768,0.53796249,-0.726377535,-0.44299203
1764435362.3805797,-0.48832,4.08968,1.03768,0.53796249,-0.726377535,-0.44299203
1764435362.381594,-0.48832,4.08968,1.03768,0.53796249,-0.726377535,-0.44299203
1764435362.381594,-0.48832,4.08968,1.03768,0.53796249,-0.726377535,-0.44299203
1764435362.381594,-0.48832,4.08968,1.03768,0.53796249,-0.726377535,-0.44299203
1764435362.381594,-0.48832,4.08968,1.03768,0.53796249,-0.726377535,-0.44299203
1764435362.381594,-0.48832,4.08968,1.03768,0.53796249,-0.726377535,-0.44299203
1764435362.381594,-0.48832,4.08968,1.03768,0.53796249,-0.726377535,-0.44299203
1764435362.381594,-0.39676,3.99812,0.82404,0.5374742100000001,-0.726133395,-0.44360238
1764435362.381594,-0.39676,3.99812,0.82404,0.5374742100000001,-0.726133395,-0.44360238
1764435362.381594,-0.39676,3.99812,0.82404,0.5374742100000001,-0.726133395,-0.44360238
1764435362.381594,-0.39676,3.99812,0.82404,0.5374742100000001,-0.726133395,-0.44360238
1764435362.4280455,-0.39676,3.99812,0.82404,0.5374742100000001,-0.726133395,-0.44360238
1764435362.4280455,-0.39676,3.99812,0.82404,0.5374742100000001,-0.726133395,-0.44360238
1764435362.4280455,-0.39676,3.99812,0.82404,0.5374742100000001,-0.726133395,-0.44360238
1764435362.4280455,-0.39676,3.99812,0.82404,0.5374742100000001,-0.726133395,-0.44360238
1764435362.4280455,-0.39676,3.99812,0.82404,0.5374742100000001,-0.726133395,-0.44360238
1764435362.4280455,-0.39676,3.99812,0.82404,0.5374742100000001,-0.726133395,-0.44360238
1764435362.4280455,-0.51884,3.90656,0.6867,0.53735214,-0.726011325,-0.442564785
1764435362.4280455,-0.51884,3.90656,0.6867,0.53735214,-0.726011325,-0.442564785
1764435362.4280455,-0.51884,3.90656,0.6867,0.53735214,-0.726011325,-0.442564785
1764435362.4280455,-0.51884,3.90656,0.6867,0.53735214,-0.726011325,-0.442564785
1764435362.4280455,-0.51884,3.90656,0.6867,0.53735214,-0.726011325,-0.442564785
1764435362.4280455,-0.51884,3.90656,0.6867,0.53735214,-0.726011325,-0.442564785
1764435362.4280455,-0.51884,3.90656,0.6867,0.53735214,-0.726011325,-0.442564785
1764435362.4280455,-0.51884,3.90656,0.6867,0.53735214,-0.726011325,-0.442564785
1764435362.4280455,-0.51884,3.90656,0.6867,0.53735214,-0.726011325,-0.442564785
1764435362.4280455,-0.51884,3.90656,0.6867,0.53735214,-0.726011325,-0.442564785
1764435362.4280455,-0.4578,3.92182,0.50358,0.537779385,-0.726743745,-0.442564785
1764435362.4280455,-0.4578,3.92182,0.50358,0.537779385,-0.726743745,-0.442564785
1764435362.4280455,-0.4578,3.92182,0.50358,0.537779385,-0.726743745,-0.442564785
1764435362.4280455,-0.4578,3.92182,0.50358,0.537779385,-0.726743745,-0.442564785
1764435362.4280455,-0.4578,3.92182,0.50358,0.537779385,-0.726743745,-0.442564785
1764435362.4280455,-0.4578,3.92182,0.50358,0.537779385,-0.726743745,-0.442564785
1764435362.4280455,-0.4578,3.92182,0.50358,0.537779385,-0.726743745,-0.442564785
1764435362.4280455,-0.4578,3.92182,0.50358,0.537779385,-0.726743745,-0.442564785
1764435362.4769742,-0.4578,3.92182,0.50358,0.537779385,-0.726743745,-0.442564785
1764435362.4769742,-0.4578,3.92182,0.50358,0.537779385,-0.726743745,-0.442564785
1764435362.4769742,-0.59514,3.60136,0.74774,0.53820663,-0.7266827100000001,-0.442564785
1764435362.4769742,-0.59514,3.60136,0.74774,0.53820663,-0.7266827100000001,-0.442564785
1764435362.4769742,-0.59514,3.60136,0.74774,0.53820663,-0.7266827100000001,-0.442564785
1764435362.4769742,-0.59514,3.60136,0.74774,0.53820663,-0.7266827100000001,-0.442564785
1764435362.4769742,-0.59514,3.60136,0.74774,0.53820663,-0.7266827100000001,-0.442564785
1764435362.4769742,-0.59514,3.60136,0.74774,0.53820663,-0.7266827100000001,-0.442564785
1764435362.4769742,-0.59514,3.60136,0.74774,0.53820663,-0.7266827100000001,-0.442564785
1764435362.4769742,-0.59514,3.60136,0.74774,0.53820663,-0.7266827100000001,-0.442564785
1764435362.4769742,-0.59514,3.60136,0.74774,0.53820663,-0.7266827100000001,-0.442564785
1764435362.4769742,-0.59514,3.60136,0.74774,0.53820663,-0.7266827100000001,-0.442564785
1764435362.4769742,-0.56462,3.95234,0.57988,0.537413175,-0.726377535,-0.44213754
1764435362.4769742,-0.56462,3.95234,0.57988,0.537413175,-0.726377535,-0.44213754
1764435362.4769742,-0.56462,3.95234,0.57988,0.537413175,-0.726377535,-0.44213754
1764435362.4769742,-0.56462,3.95234,0.57988,0.537413175,-0.726377535,-0.44213754
1764435362.4769742,-0.56462,3.95234,0.57988,0.537413175,-0.726377535,-0.44213754
1764435362.4769742,-0.56462,3.95234,0.57988,0.537413175,-0.726377535,-0.44213754
1764435362.4769742,-0.56462,3.95234,0.57988,0.537413175,-0.726377535,-0.44213754
1764435362.4769742,-0.56462,3.95234,0.57988,0.537413175,-0.726377535,-0.44213754
1764435362.4769742,-0.56462,3.95234,0.57988,0.537413175,-0.726377535,-0.44213754
1764435362.4769742,-0.56462,3.95234,0.57988,0.537413175,-0.726377535,-0.44213754
1764435362.5215278,-0.77826,3.93708,0.93086,0.537291105,-0.72692685,-0.4418934
1764435362.5215278,-0.77826,3.93708,0.93086,0.537291105,-0.72692685,-0.4418934
1764435362.5215278,-0.77826,3.93708,0.93086,0.537291105,-0.72692685,-0.4418934
1764435362.5215278,-0.77826,3.93708,0.93086,0.537291105,-0.72692685,-0.4418934
1764435362.5215278,-0.77826,3.93708,0.93086,0.537291105,-0.72692685,-0.4418934
1764435362.5215278,-0.77826,3.93708,0.93086,0.537291105,-0.72692685,-0.4418934
1764435362.5215278,-0.77826,3.93708,0.93086,0.537291105,-0.72692685,-0.4418934
1764435362.5215278,-0.77826,3.93708,0.93086,0.537291105,-0.72692685,-0.4418934
1764435362.5215278,-0.77826,3.93708,0.93086,0.537291105,-0.72692685,-0.4418934
1764435362.5215278,-0.77826,3.93708,0.93086,0.537291105,-0.72692685,-0.4418934
1764435362.5215278,-1.08346,3.55558,0.48832,0.53784042,-0.726743745,-0.442808925
1764435362.5225265,-1.08346,3.55558,0.48832,0.53784042,-0.726743745,-0.442808925
1764435362.5225265,-1.08346,3.55558,0.48832,0.53784042,-0.726743745,-0.442808925
1764435362.5225265,-1.08346,3.55558,0.48832,0.53784042,-0.726743745,-0.442808925
1764435362.5225265,-1.08346,3.55558,0.48832,0.53784042,-0.726743745,-0.442808925
1764435362.5225265,-1.08346,3.55558,0.48832,0.53784042,-0.726743745,-0.442808925
1764435362.5225265,-1.08346,3.55558,0.48832,0.53784042,-0.726743745,-0.442808925
1764435362.5225265,-1.08346,3.55558,0.48832,0.53784042,-0.726743745,-0.442808925
1764435362.5225265,-1.08346,3.55558,0.48832,0.53784042,-0.726743745,-0.442808925
1764435362.5236244,-1.08346,3.55558,0.48832,0.53784042,-0.726743745,-0.442808925
1764435362.5236244,-1.15976,3.72344,0.763,0.537779385,-0.726865815,-0.44286996
1764435362.5236244,-1.15976,3.72344,0.763,0.537779385,-0.726865815,-0.44286996
1764435362.5666287,-1.15976,3.72344,0.763,0.537779385,-0.726865815,-0.44286996
1764435362.5666287,-1.15976,3.72344,0.763,0.537779385,-0.726865815,-0.44286996
1764435362.5666287,-1.15976,3.72344,0.763,0.537779385,-0.726865815,-0.44286996
1764435362.5666287,-1.15976,3.72344,0.763,0.537779385,-0.726865815,-0.44286996
1764435362.5671685,-1.15976,3.72344,0.763,0.537779385,-0.726865815,-0.44286996
1764435362.5671685,-1.15976,3.72344,0.763,0.537779385,-0.726865815,-0.44286996
1764435362.5671685,-1.15976,3.72344,0.763,0.537779385,-0.726865815,-0.44286996
1764435362.5671685,-1.15976,3.72344,0.763,0.537779385,-0.726865815,-0.44286996
1764435362.5671685,-1.02242,3.78448,0.65618,0.53735214,-0.7261944300000001,-0.442930995
1764435362.5671685,-1.02242,3.78448,0.65618,0.53735214,-0.7261944300000001,-0.442930995
1764435362.5671685,-1.02242,3.78448,0.65618,0.53735214,-0.7261944300000001,-0.442930995
1764435362.5671685,-1.02242,3.78448,0.65618,0.53735214,-0.7261944300000001,-0.442930995
1764435362.5671685,-1.02242,3.78448,0.65618,0.53735214,-0.7261944300000001,-0.442930995
1764435362.5671685,-1.02242,3.78448,0.65618,0.53735214,-0.7261944300000001,-0.442930995
1764435362.5671685,-1.02242,3.78448,0.65618,0.53735214,-0.7261944300000001,-0.442930995
1764435362.5671685,-1.02242,3.78448,0.65618,0.53735214,-0.7261944300000001,-0.442930995
1764435362.5671685,-1.02242,3.78448,0.65618,0.53735214,-0.7261944300000001,-0.442930995
1764435362.5671685,-1.02242,3.78448,0.65618,0.53735214,-0.7261944300000001,-0.442930995
1764435362.5671685,-0.93086,3.87604,0.59514,0.536558685,-0.7263165,-0.44262582
1764435362.5671685,-0.93086,3.87604,0.59514,0.536558685,-0.7263165,-0.44262582
1764435362.5671685,-0.93086,3.87604,0.59514,0.536558685,-0.7263165,-0.44262582
1764435362.567696,-0.93086,3.87604,0.59514,0.536558685,-0.7263165,-0.44262582
1764435362.567696,-0.93086,3.87604,0.59514,0.536558685,-0.7263165,-0.44262582
1764435362.567696,-0.93086,3.87604,0.59514,0.536558685,-0.7263165,-0.44262582
1764435362.6141346,-0.93086,3.87604,0.59514,0.536558685,-0.7263165,-0.44262582
1764435362.6141346,-0.93086,3.87604,0.59514,0.536558685,-0.7263165,-0.44262582
1764435362.6141346,-0.93086,3.87604,0.59514,0.536558685,-0.7263165,-0.44262582
1764435362.6141346,-0.93086,3.87604,0.59514,0.536558685,-0.7263165,-0.44262582
1764435362.6141346,-0.7019599999999999,3.92182,0.65618,0.537108,-0.725767185,-0.44299203
1764435362.6141346,-0.7019599999999999,3.92182,0.65618,0.537108,-0.725767185,-0.44299203
1764435362.6141346,-0.7019599999999999,3.92182,0.65618,0.537108,-0.725767185,-0.44299203
1764435362.6141346,-0.7019599999999999,3.92182,0.65618,0.537108,-0.725767185,-0.44299203
1764435362.6141346,-0.7019599999999999,3.92182,0.65618,0.537108,-0.725767185,-0.44299203
1764435362.6141346,-0.7019599999999999,3.92182,0.65618,0.537108,-0.725767185,-0.44299203
1764435362.6141346,-0.7019599999999999,3.92182,0.65618,0.537108,-0.725767185,-0.44299203
1764435362.6141346,-0.7019599999999999,3.92182,0.65618,0.537108,-0.725767185,-0.44299203
1764435362.6141346,-0.7019599999999999,3.92182,0.65618,0.537108,-0.725767185,-0.44299203
1764435362.6141346,-0.7019599999999999,3.92182,0.65618,0.537108,-0.725767185,-0.44299203
1764435362.6141346,-0.77826,3.32668,0.6103999999999999,0.536558685,-0.72582822,-0.442808925
1764435362.6141346,-0.77826,3.32668,0.6103999999999999,0.536558685,-0.72582822,-0.442808925
1764435362.6141346,-0.77826,3.32668,0.6103999999999999,0.536558685,-0.72582822,-0.442808925
1764435362.615152,-0.77826,3.32668,0.6103999999999999,0.536558685,-0.72582822,-0.442808925
1764435362.615152,-0.77826,3.32668,0.6103999999999999,0.536558685,-0.72582822,-0.442808925
1764435362.615152,-0.77826,3.32668,0.6103999999999999,0.536558685,-0.72582822,-0.442808925
1764435362.615152,-0.77826,3.32668,0.6103999999999999,0.536558685,-0.72582822,-0.442808925
1764435362.615152,-0.77826,3.32668,0.6103999999999999,0.536558685,-0.72582822,-0.442808925
1764435362.615152,-0.77826,3.32668,0.6103999999999999,0.536558685,-0.72582822,-0.442808925
1764435362.615152,-0.77826,3.32668,0.6103999999999999,0.536558685,-0.72582822,-0.442808925
1764435362.6583967,-1.08346,3.93708,0.3357199999999999,0.536802825,-0.72656064,-0.442564785
1764435362.6589289,-1.08346,3.93708,0.3357199999999999,0.536802825,-0.72656064,-0.442564785
1764435362.6589289,-1.08346,3.93708,0.3357199999999999,0.536802825,-0.72656064,-0.442564785
1764435362.6589289,-1.08346,3.93708,0.3357199999999999,0.536802825,-0.72656064,-0.442564785
1764435362.6589289,-1.08346,3.93708,0.3357199999999999,0.536802825,-0.72656064,-0.442564785
1764435362.6589289,-1.08346,3.93708,0.3357199999999999,0.536802825,-0.72656064,-0.442564785
1764435362.6589289,-1.08346,3.93708,0.3357199999999999,0.536802825,-0.72656064,-0.442564785
1764435362.6589289,-1.08346,3.93708,0.3357199999999999,0.536802825,-0.72656064,-0.442564785
1764435362.6589289,-1.08346,3.93708,0.3357199999999999,0.536802825,-0.72656064,-0.442564785
1764435362.6589289,-1.08346,3.93708,0.3357199999999999,0.536802825,-0.72656064,-0.442564785
1764435362.6589289,-0.18312,3.7387,0.77826,0.537108,-0.72729306,-0.44274789
1764435362.6589289,-0.18312,3.7387,0.77826,0.537108,-0.72729306,-0.44274789
1764435362.6589289,-0.18312,3.7387,0.77826,0.537108,-0.72729306,-0.44274789
1764435362.6589289,-0.18312,3.7387,0.77826,0.537108,-0.72729306,-0.44274789
1764435362.6589289,-0.18312,3.7387,0.77826,0.537108,-0.72729306,-0.44274789
1764435362.6589289,-0.18312,3.7387,0.77826,0.537108,-0.72729306,-0.44274789
1764435362.6589289,-0.18312,3.7387,0.77826,0.537108,-0.72729306,-0.44274789
1764435362.6589289,-0.18312,3.7387,0.77826,0.537108,-0.72729306,-0.44274789
1764435362.6589289,-0.18312,3.7387,0.77826,0.537108,-0.72729306,-0.44274789
1764435362.6589289,-0.18312,3.7387,0.77826,0.537108,-0.72729306,-0.44274789
1764435362.6589289,-0.18312,3.70818,0.88508,0.53735214,-0.72692685,-0.44323617
1764435362.6589289,-0.18312,3.70818,0.88508,0.53735214,-0.72692685,-0.44323617
1764435362.707267,-0.18312,3.70818,0.88508,0.53735214,-0.72692685,-0.44323617
1764435362.707267,-0.18312,3.70818,0.88508,0.53735214,-0.72692685,-0.44323617
1764435362.707267,-0.18312,3.70818,0.88508,0.53735214,-0.72692685,-0.44323617
1764435362.707267,-0.18312,3.70818,0.88508,0.53735214,-0.72692685,-0.44323617
1764435362.707267,-0.18312,3.70818,0.88508,0.53735214,-0.72692685,-0.44323617
1764435362.707267,-0.18312,3.70818,0.88508,0.53735214,-0.72692685,-0.44323617
1764435362.707267,-0.18312,3.70818,0.88508,0.53735214,-0.72692685,-0.44323617
1764435362.707267,-0.18312,3.70818,0.88508,0.53735214,-0.72692685,-0.44323617
1764435362.707267,-0.42728,3.7387,0.62566,0.536680755,-0.726133395,-0.442930995
1764435362.707267,-0.42728,3.7387,0.62566,0.536680755,-0.726133395,-0.442930995
1764435362.707267,-0.42728,3.7387,0.62566,0.536680755,-0.726133395,-0.442930995
1764435362.707267,-0.42728,3.7387,0.62566,0.536680755,-0.726133395,-0.442930995
1764435362.707267,-0.42728,3.7387,0.62566,0.536680755,-0.726133395,-0.442930995
1764435362.7082803,-0.42728,3.7387,0.62566,0.536680755,-0.726133395,-0.442930995
1764435362.7082803,-0.42728,3.7387,0.62566,0.536680755,-0.726133395,-0.442930995
1764435362.7082803,-0.42728,3.7387,0.62566,0.536680755,-0.726133395,-0.442930995
1764435362.7082803,-0.42728,3.7387,0.62566,0.536680755,-0.726133395,-0.442930995
1764435362.7082803,-0.42728,3.7387,0.62566,0.536680755,-0.726133395,-0.442930995
1764435362.7082803,-0.763,3.87604,1.03768,0.537291105,-0.72656064,-0.442076505
1764435362.7082803,-0.763,3.87604,1.03768,0.537291105,-0.72656064,-0.442076505
1764435362.7082803,-0.763,3.87604,1.03768,0.537291105,-0.72656064,-0.442076505
1764435362.7082803,-0.763,3.87604,1.03768,0.537291105,-0.72656064,-0.442076505
1764435362.751335,-0.763,3.87604,1.03768,0.537291105,-0.72656064,-0.442076505
1764435362.751335,-0.763,3.87604,1.03768,0.537291105,-0.72656064,-0.442076505
1764435362.751335,-0.763,3.87604,1.03768,0.537291105,-0.72656064,-0.442076505
1764435362.751335,-0.763,3.87604,1.03768,0.537291105,-0.72656064,-0.442076505
1764435362.751335,-0.763,3.87604,1.03768,0.537291105,-0.72656064,-0.442076505
1764435362.751335,-0.763,3.87604,1.03768,0.537291105,-0.72656064,-0.442076505
1764435362.751335,-1.34288,3.61662,0.7019599999999999,0.537291105,-0.72643857,-0.44238168
1764435362.751335,-1.34288,3.61662,0.7019599999999999,0.537291105,-0.72643857,-0.44238168
1764435362.751335,-1.34288,3.61662,0.7019599999999999,0.537291105,-0.72643857,-0.44238168
1764435362.751335,-1.34288,3.61662,0.7019599999999999,0.537291105,-0.72643857,-0.44238168
1764435362.751335,-1.34288,3.61662,0.7019599999999999,0.537291105,-0.72643857,-0.44238168
1764435362.751335,-1.34288,3.61662,0.7019599999999999,0.537291105,-0.72643857,-0.44238168
1764435362.751335,-1.34288,3.61662,0.7019599999999999,0.537291105,-0.72643857,-0.44238168
1764435362.751335,-1.34288,3.61662,0.7019599999999999,0.537291105,-0.72643857,-0.44238168
1764435362.751335,-1.34288,3.61662,0.7019599999999999,0.537291105,-0.72643857,-0.44238168
1764435362.751335,-1.34288,3.61662,0.7019599999999999,0.537291105,-0.72643857,-0.44238168
1764435362.751335,-1.4039199999999998,3.47928,0.44254,0.537046965,-0.726377535,-0.442076505
1764435362.751335,-1.4039199999999998,3.47928,0.44254,0.537046965,-0.726377535,-0.442076505
1764435362.751335,-1.4039199999999998,3.47928,0.44254,0.537046965,-0.726377535,-0.442076505
1764435362.751335,-1.4039199999999998,3.47928,0.44254,0.537046965,-0.726377535,-0.442076505
1764435362.751335,-1.4039199999999998,3.47928,0.44254,0.537046965,-0.726377535,-0.442076505
1764435362.751335,-1.4039199999999998,3.47928,0.44254,0.537046965,-0.726377535,-0.442076505
1764435362.751335,-1.4039199999999998,3.47928,0.44254,0.537046965,-0.726377535,-0.442076505
1764435362.751335,-1.4039199999999998,3.47928,0.44254,0.537046965,-0.726377535,-0.442076505
1764435362.7950947,-1.4039199999999998,3.47928,0.44254,0.537046965,-0.726377535,-0.442076505
1764435362.7950947,-1.4039199999999998,3.47928,0.44254,0.537046965,-0.726377535,-0.442076505
1764435362.7950947,-1.1445,3.5098,0.85456,0.5374742100000001,-0.72692685,-0.441710295
1764435362.7950947,-1.1445,3.5098,0.85456,0.5374742100000001,-0.72692685,-0.441710295
1764435362.7950947,-1.1445,3.5098,0.85456,0.5374742100000001,-0.72692685,-0.441710295
1764435362.7950947,-1.1445,3.5098,0.85456,0.5374742100000001,-0.72692685,-0.441710295
1764435362.7950947,-1.1445,3.5098,0.85456,0.5374742100000001,-0.72692685,-0.441710295
1764435362.7950947,-1.1445,3.5098,0.85456,0.5374742100000001,-0.72692685,-0.441710295
1764435362.796118,-1.1445,3.5098,0.85456,0.5374742100000001,-0.72692685,-0.441710295
1764435362.796118,-1.1445,3.5098,0.85456,0.5374742100000001,-0.72692685,-0.441710295
1764435362.796118,-1.1445,3.5098,0.85456,0.5374742100000001,-0.72692685,-0.441710295
1764435362.796118,-1.1445,3.5098,0.85456,0.5374742100000001,-0.72692685,-0.441710295
1764435362.796118,-1.34288,3.75396,0.6714399999999999,0.53796249,-0.72717099,-0.4418934
1764435362.796118,-1.34288,3.75396,0.6714399999999999,0.53796249,-0.72717099,-0.4418934
1764435362.796118,-1.34288,3.75396,0.6714399999999999,0.53796249,-0.72717099,-0.4418934
1764435362.796118,-1.34288,3.75396,0.6714399999999999,0.53796249,-0.72717099,-0.4418934
1764435362.796118,-1.34288,3.75396,0.6714399999999999,0.53796249,-0.72717099,-0.4418934
1764435362.796118,-1.34288,3.75396,0.6714399999999999,0.53796249,-0.72717099,-0.4418934
1764435362.796118,-1.34288,3.75396,0.6714399999999999,0.53796249,-0.72717099,-0.4418934
1764435362.796118,-1.34288,3.75396,0.6714399999999999,0.53796249,-0.72717099,-0.4418934
1764435362.796118,-1.34288,3.75396,0.6714399999999999,0.53796249,-0.72717099,-0.4418934
1764435362.796118,-1.34288,3.75396,0.6714399999999999,0.53796249,-0.72717099,-0.4418934
1764435362.7971146,-0.8698199999999999,3.60136,0.44254,0.537108,-0.727720305,-0.441588225
1764435362.7971146,-0.8698199999999999,3.60136,0.44254,0.537108,-0.727720305,-0.441588225
1764435362.8430362,-0.8698199999999999,3.60136,0.44254,0.537108,-0.727720305,-0.441588225
1764435362.8430362,-0.8698199999999999,3.60136,0.44254,0.537108,-0.727720305,-0.441588225
1764435362.8430362,-0.8698199999999999,3.60136,0.44254,0.537108,-0.727720305,-0.441588225
1764435362.8440497,-0.8698199999999999,3.60136,0.44254,0.537108,-0.727720305,-0.441588225
1764435362.8440497,-0.8698199999999999,3.60136,0.44254,0.537108,-0.727720305,-0.441588225
1764435362.8440497,-0.8698199999999999,3.60136,0.44254,0.537108,-0.727720305,-0.441588225
1764435362.8440497,-0.8698199999999999,3.60136,0.44254,0.537108,-0.727720305,-0.441588225
1764435362.8440497,-0.8698199999999999,3.60136,0.44254,0.537108,-0.727720305,-0.441588225
1764435362.8440497,-0.8087799999999999,3.67766,0.77826,0.5369859300000001,-0.72692685,-0.4418934
1764435362.8440497,-0.8087799999999999,3.67766,0.77826,0.5369859300000001,-0.72692685,-0.4418934
1764435362.8440497,-0.8087799999999999,3.67766,0.77826,0.5369859300000001,-0.72692685,-0.4418934
1764435362.8440497,-0.8087799999999999,3.67766,0.77826,0.5369859300000001,-0.72692685,-0.4418934
1764435362.8440497,-0.8087799999999999,3.67766,0.77826,0.5369859300000001,-0.72692685,-0.4418934
1764435362.8440497,-0.8087799999999999,3.67766,0.77826,0.5369859300000001,-0.72692685,-0.4418934
1764435362.844561,-0.8087799999999999,3.67766,0.77826,0.5369859300000001,-0.72692685,-0.4418934
1764435362.844561,-0.8087799999999999,3.67766,0.77826,0.5369859300000001,-0.72692685,-0.4418934
1764435362.844561,-0.8087799999999999,3.67766,0.77826,0.5369859300000001,-0.72692685,-0.4418934
1764435362.844561,-0.8087799999999999,3.67766,0.77826,0.5369859300000001,-0.72692685,-0.4418934
1764435362.844561,-0.65618,3.9676,0.7019599999999999,0.53686386,-0.7266827100000001,-0.442930995
1764435362.844561,-0.65618,3.9676,0.7019599999999999,0.53686386,-0.7266827100000001,-0.442930995
1764435362.844561,-0.65618,3.9676,0.7019599999999999,0.53686386,-0.7266827100000001,-0.442930995
1764435362.844561,-0.65618,3.9676,0.7019599999999999,0.53686386,-0.7266827100000001,-0.442930995
1764435362.8868768,-0.65618,3.9676,0.7019599999999999,0.53686386,-0.7266827100000001,-0.442930995
1764435362.8868768,-0.65618,3.9676,0.7019599999999999,0.53686386,-0.7266827100000001,-0.442930995
1764435362.8868768,-0.65618,3.9676,0.7019599999999999,0.53686386,-0.7266827100000001,-0.442930995
1764435362.8878927,-0.65618,3.9676,0.7019599999999999,0.53686386,-0.7266827100000001,-0.442930995
1764435362.8878927,-0.65618,3.9676,0.7019599999999999,0.53686386,-0.7266827100000001,-0.442930995
1764435362.8878927,-0.65618,3.9676,0.7019599999999999,0.53686386,-0.7266827100000001,-0.442930995
1764435362.888404,0.0,3.69292,1.1445,0.53723007,-0.726621675,-0.44201547
1764435362.888404,0.0,3.69292,1.1445,0.53723007,-0.726621675,-0.44201547
1764435362.888404,0.0,3.69292,1.1445,0.53723007,-0.726621675,-0.44201547
1764435362.888404,0.0,3.69292,1.1445,0.53723007,-0.726621675,-0.44201547
1764435362.888404,0.0,3.69292,1.1445,0.53723007,-0.726621675,-0.44201547
1764435362.888404,0.0,3.69292,1.1445,0.53723007,-0.726621675,-0.44201547
1764435362.888404,0.0,3.69292,1.1445,0.53723007,-0.726621675,-0.44201547
1764435362.888404,0.0,3.69292,1.1445,0.53723007,-0.726621675,-0.44201547
1764435362.889914,0.0,3.69292,1.1445,0.53723007,-0.726621675,-0.44201547
1764435362.889914,0.0,3.69292,1.1445,0.53723007,-0.726621675,-0.44201547
1764435362.889914,-0.3509799999999999,3.54032,0.6103999999999999,0.536802825,-0.725889255,-0.44225961
1764435362.889914,-0.3509799999999999,3.54032,0.6103999999999999,0.536802825,-0.725889255,-0.44225961
1764435362.889914,-0.3509799999999999,3.54032,0.6103999999999999,0.536802825,-0.725889255,-0.44225961
1764435362.889914,-0.3509799999999999,3.54032,0.6103999999999999,0.536802825,-0.725889255,-0.44225961
1764435362.889914,-0.3509799999999999,3.54032,0.6103999999999999,0.536802825,-0.725889255,-0.44225961
1764435362.889914,-0.3509799999999999,3.54032,0.6103999999999999,0.536802825,-0.725889255,-0.44225961
1764435362.9341786,-0.3509799999999999,3.54032,0.6103999999999999,0.536802825,-0.725889255,-0.44225961
1764435362.9341786,-0.3509799999999999,3.54032,0.6103999999999999,0.536802825,-0.725889255,-0.44225961
1764435362.9341786,-0.3509799999999999,3.54032,0.6103999999999999,0.536802825,-0.725889255,-0.44225961
1764435362.9347134,-0.3509799999999999,3.54032,0.6103999999999999,0.536802825,-0.725889255,-0.44225961
1764435362.9347134,-0.65618,3.47928,0.6103999999999999,0.537535245,-0.72656064,-0.44262582
1764435362.9347134,-0.65618,3.47928,0.6103999999999999,0.537535245,-0.72656064,-0.44262582
1764435362.9347134,-0.65618,3.47928,0.6103999999999999,0.537535245,-0.72656064,-0.44262582
1764435362.9347134,-0.65618,3.47928,0.6103999999999999,0.537535245,-0.72656064,-0.44262582
1764435362.9347134,-0.65618,3.47928,0.6103999999999999,0.537535245,-0.72656064,-0.44262582
1764435362.9347134,-0.65618,3.47928,0.6103999999999999,0.537535245,-0.72656064,-0.44262582
1764435362.9347134,-0.65618,3.47928,0.6103999999999999,0.537535245,-0.72656064,-0.44262582
1764435362.9347134,-0.65618,3.47928,0.6103999999999999,0.537535245,-0.72656064,-0.44262582
1764435362.9362552,-0.65618,3.47928,0.6103999999999999,0.537535245,-0.72656064,-0.44262582
1764435362.9362552,-0.65618,3.47928,0.6103999999999999,0.537535245,-0.72656064,-0.44262582
1764435362.9362552,-1.1445,3.54032,0.88508,0.53686386,-0.72643857,-0.44299203
1764435362.9362552,-1.1445,3.54032,0.88508,0.53686386,-0.72643857,-0.44299203
1764435362.9362552,-1.1445,3.54032,0.88508,0.53686386,-0.72643857,-0.44299203
1764435362.9362552,-1.1445,3.54032,0.88508,0.53686386,-0.72643857,-0.44299203
1764435362.9362552,-1.1445,3.54032,0.88508,0.53686386,-0.72643857,-0.44299203
1764435362.9362552,-1.1445,3.54032,0.88508,0.53686386,-0.72643857,-0.44299203
1764435362.9362552,-1.1445,3.54032,0.88508,0.53686386,-0.72643857,-0.44299203
1764435362.9362552,-1.1445,3.54032,0.88508,0.53686386,-0.72643857,-0.44299203
1764435362.9362552,-1.1445,3.54032,0.88508,0.53686386,-0.72643857,-0.44299203
1764435362.9362552,-1.1445,3.54032,0.88508,0.53686386,-0.72643857,-0.44299203
1764435362.98483,-1.2971,3.67766,0.57988,0.53686386,-0.72643857,-0.44323617
1764435362.98483,-1.2971,3.67766,0.57988,0.53686386,-0.72643857,-0.44323617
1764435362.98483,-1.2971,3.67766,0.57988,0.53686386,-0.72643857,-0.44323617
1764435362.98483,-1.2971,3.67766,0.57988,0.53686386,-0.72643857,-0.44323617
1764435362.98483,-1.2971,3.67766,0.57988,0.53686386,-0.72643857,-0.44323617
1764435362.98483,-1.2971,3.67766,0.57988,0.53686386,-0.72643857,-0.44323617
1764435362.98483,-1.2971,3.67766,0.57988,0.53686386,-0.72643857,-0.44323617
1764435362.98483,-1.2971,3.67766,0.57988,0.53686386,-0.72643857,-0.44323617
1764435362.98483,-1.2971,3.67766,0.57988,0.53686386,-0.72643857,-0.44323617
1764435362.98483,-1.2971,3.67766,0.57988,0.53686386,-0.72643857,-0.44323617
1764435362.9865804,-1.03768,3.69292,0.51884,0.536558685,-0.72595029,-0.442930995
1764435362.9865804,-1.03768,3.69292,0.51884,0.536558685,-0.72595029,-0.442930995
1764435362.9865804,-1.03768,3.69292,0.51884,0.536558685,-0.72595029,-0.442930995
1764435362.9872448,-1.03768,3.69292,0.51884,0.536558685,-0.72595029,-0.442930995
1764435362.9872448,-1.03768,3.69292,0.51884,0.536558685,-0.72595029,-0.442930995
1764435362.9872448,-1.03768,3.69292,0.51884,0.536558685,-0.72595029,-0.442930995
1764435362.9872448,-1.03768,3.69292,0.51884,0.536558685,-0.72595029,-0.442930995
1764435362.9872448,-1.03768,3.69292,0.51884,0.536558685,-0.72595029,-0.442930995
1764435362.9872448,-1.03768,3.69292,0.51884,0.536558685,-0.72595029,-0.442930995
1764435362.9872448,-1.03768,3.69292,0.51884,0.536558685,-0.72595029,-0.442930995
1764435362.9872448,-0.44254,3.83026,0.39676,0.53661972,-0.7261944300000001,-0.442320645
1764435362.9872448,-0.44254,3.83026,0.39676,0.53661972,-0.7261944300000001,-0.442320645
1764435362.9872448,-0.44254,3.83026,0.39676,0.53661972,-0.7261944300000001,-0.442320645
1764435362.9872448,-0.44254,3.83026,0.39676,0.53661972,-0.7261944300000001,-0.442320645
1764435363.0306668,-0.44254,3.83026,0.39676,0.53661972,-0.7261944300000001,-0.442320645
1764435363.0306668,-0.44254,3.83026,0.39676,0.53661972,-0.7261944300000001,-0.442320645
1764435363.0306668,-0.44254,3.83026,0.39676,0.53661972,-0.7261944300000001,-0.442320645
1764435363.0306668,-0.44254,3.83026,0.39676,0.53661972,-0.7261944300000001,-0.442320645
1764435363.0306668,-0.44254,3.83026,0.39676,0.53661972,-0.7261944300000001,-0.442320645
1764435363.0306668,-0.44254,3.83026,0.39676,0.53661972,-0.7261944300000001,-0.442320645
1764435363.0306668,-0.59514,4.31858,0.6714399999999999,0.53735214,-0.7266827100000001,-0.443053065
1764435363.0306668,-0.59514,4.31858,0.6714399999999999,0.53735214,-0.7266827100000001,-0.443053065
1764435363.0306668,-0.59514,4.31858,0.6714399999999999,0.53735214,-0.7266827100000001,-0.443053065
1764435363.0306668,-0.59514,4.31858,0.6714399999999999,0.53735214,-0.7266827100000001,-0.443053065
1764435363.0306668,-0.59514,4.31858,0.6714399999999999,0.53735214,-0.7266827100000001,-0.443053065
1764435363.0306668,-0.59514,4.31858,0.6714399999999999,0.53735214,-0.7266827100000001,-0.443053065
1764435363.0306668,-0.59514,4.31858,0.6714399999999999,0.53735214,-0.7266827100000001,-0.443053065
1764435363.0316818,-0.59514,4.31858,0.6714399999999999,0.53735214,-0.7266827100000001,-0.443053065
1764435363.0316818,-0.59514,4.31858,0.6714399999999999,0.53735214,-0.7266827100000001,-0.443053065
1764435363.0316818,-0.59514,4.31858,0.6714399999999999,0.53735214,-0.7266827100000001,-0.443053065
1764435363.0316818,-0.54936,4.02864,0.763,0.537108,-0.72680478,-0.442930995
1764435363.0316818,-0.54936,4.02864,0.763,0.537108,-0.72680478,-0.442930995
1764435363.0316818,-0.54936,4.02864,0.763,0.537108,-0.72680478,-0.442930995
1764435363.0316818,-0.54936,4.02864,0.763,0.537108,-0.72680478,-0.442930995
1764435363.0316818,-0.54936,4.02864,0.763,0.537108,-0.72680478,-0.442930995
1764435363.0316818,-0.54936,4.02864,0.763,0.537108,-0.72680478,-0.442930995
1764435363.0316818,-0.54936,4.02864,0.763,0.537108,-0.72680478,-0.442930995
1764435363.0316818,-0.54936,4.02864,0.763,0.537108,-0.72680478,-0.442930995
1764435363.0765972,-0.54936,4.02864,0.763,0.537108,-0.72680478,-0.442930995
1764435363.0765972,-0.54936,4.02864,0.763,0.537108,-0.72680478,-0.442930995
1764435363.0765972,-0.21364,3.6624,0.28994,0.537108,-0.7261944300000001,-0.442076505
1764435363.0765972,-0.21364,3.6624,0.28994,0.537108,-0.7261944300000001,-0.442076505
1764435363.0765972,-0.21364,3.6624,0.28994,0.537108,-0.7261944300000001,-0.442076505
1764435363.0765972,-0.21364,3.6624,0.28994,0.537108,-0.7261944300000001,-0.442076505
1764435363.0765972,-0.21364,3.6624,0.28994,0.537108,-0.7261944300000001,-0.442076505
1764435363.0765972,-0.21364,3.6624,0.28994,0.537108,-0.7261944300000001,-0.442076505
1764435363.0765972,-0.21364,3.6624,0.28994,0.537108,-0.7261944300000001,-0.442076505
1764435363.0765972,-0.21364,3.6624,0.28994,0.537108,-0.7261944300000001,-0.442076505
1764435363.0765972,-0.21364,3.6624,0.28994,0.537108,-0.7261944300000001,-0.442076505
1764435363.0765972,-0.21364,3.6624,0.28994,0.537108,-0.7261944300000001,-0.442076505
1764435363.0765972,-0.2289,3.84552,0.3815,0.53661972,-0.7263165,-0.44225961
1764435363.0765972,-0.2289,3.84552,0.3815,0.53661972,-0.7263165,-0.44225961
1764435363.0765972,-0.2289,3.84552,0.3815,0.53661972,-0.7263165,-0.44225961
1764435363.0776136,-0.2289,3.84552,0.3815,0.53661972,-0.7263165,-0.44225961
1764435363.0776136,-0.2289,3.84552,0.3815,0.53661972,-0.7263165,-0.44225961
1764435363.0776136,-0.2289,3.84552,0.3815,0.53661972,-0.7263165,-0.44225961
1764435363.0776136,-0.2289,3.84552,0.3815,0.53661972,-0.7263165,-0.44225961
1764435363.0776136,-0.2289,3.84552,0.3815,0.53661972,-0.7263165,-0.44225961
1764435363.0776136,-0.2289,3.84552,0.3815,0.53661972,-0.7263165,-0.44225961
1764435363.0776136,-0.2289,3.84552,0.3815,0.53661972,-0.7263165,-0.44225961
1764435363.078636,-0.7019599999999999,3.70818,0.57988,0.53649765,-0.72643857,-0.442320645
1764435363.078636,-0.7019599999999999,3.70818,0.57988,0.53649765,-0.72643857,-0.442320645
1764435363.1221275,-0.7019599999999999,3.70818,0.57988,0.53649765,-0.72643857,-0.442320645
1764435363.122641,-0.7019599999999999,3.70818,0.57988,0.53649765,-0.72643857,-0.442320645
1764435363.122641,-0.7019599999999999,3.70818,0.57988,0.53649765,-0.72643857,-0.442320645
1764435363.122641,-0.7019599999999999,3.70818,0.57988,0.53649765,-0.72643857,-0.442320645
1764435363.122641,-0.7019599999999999,3.70818,0.57988,0.53649765,-0.72643857,-0.442320645
1764435363.122641,-0.7019599999999999,3.70818,0.57988,0.53649765,-0.72643857,-0.442320645
1764435363.122641,-0.7019599999999999,3.70818,0.57988,0.53649765,-0.72643857,-0.442320645
1764435363.122641,-0.7019599999999999,3.70818,0.57988,0.53649765,-0.72643857,-0.442320645
1764435363.122641,-0.6867,3.83026,0.94612,0.536558685,-0.726987885,-0.442686855
1764435363.122641,-0.6867,3.83026,0.94612,0.536558685,-0.726987885,-0.442686855
1764435363.122641,-0.6867,3.83026,0.94612,0.536558685,-0.726987885,-0.442686855
1764435363.122641,-0.6867,3.83026,0.94612,0.536558685,-0.726987885,-0.442686855
1764435363.122641,-0.6867,3.83026,0.94612,0.536558685,-0.726987885,-0.442686855
1764435363.122641,-0.6867,3.83026,0.94612,0.536558685,-0.726987885,-0.442686855
1764435363.122641,-0.6867,3.83026,0.94612,0.536558685,-0.726987885,-0.442686855
1764435363.122641,-0.6867,3.83026,0.94612,0.536558685,-0.726987885,-0.442686855
1764435363.122641,-0.6867,3.83026,0.94612,0.536558685,-0.726987885,-0.442686855
1764435363.122641,-0.6867,3.83026,0.94612,0.536558685,-0.726987885,-0.442686855
1764435363.123652,-1.12924,3.6624,0.24416,0.536680755,-0.72680478,-0.442808925
1764435363.123652,-1.12924,3.6624,0.24416,0.536680755,-0.72680478,-0.442808925
1764435363.123652,-1.12924,3.6624,0.24416,0.536680755,-0.72680478,-0.442808925
1764435363.123652,-1.12924,3.6624,0.24416,0.536680755,-0.72680478,-0.442808925
1764435363.1714706,-1.12924,3.6624,0.24416,0.536680755,-0.72680478,-0.442808925
1764435363.1714706,-1.12924,3.6624,0.24416,0.536680755,-0.72680478,-0.442808925
1764435363.1714706,-1.12924,3.6624,0.24416,0.536680755,-0.72680478,-0.442808925
1764435363.1714706,-1.12924,3.6624,0.24416,0.536680755,-0.72680478,-0.442808925
1764435363.1714706,-1.12924,3.6624,0.24416,0.536680755,-0.72680478,-0.442808925
1764435363.172983,-1.12924,3.6624,0.24416,0.536680755,-0.72680478,-0.442808925
1764435363.172983,-1.26658,3.86078,1.19028,0.53735214,-0.726377535,-0.44213754
1764435363.172983,-1.26658,3.86078,1.19028,0.53735214,-0.726377535,-0.44213754
1764435363.172983,-1.26658,3.86078,1.19028,0.53735214,-0.726377535,-0.44213754
1764435363.172983,-1.26658,3.86078,1.19028,0.53735214,-0.726377535,-0.44213754
1764435363.172983,-1.26658,3.86078,1.19028,0.53735214,-0.726377535,-0.44213754
1764435363.172983,-1.26658,3.86078,1.19028,0.53735214,-0.726377535,-0.44213754
1764435363.172983,-1.26658,3.86078,1.19028,0.53735214,-0.726377535,-0.44213754
1764435363.172983,-1.26658,3.86078,1.19028,0.53735214,-0.726377535,-0.44213754
1764435363.172983,-1.26658,3.86078,1.19028,0.53735214,-0.726377535,-0.44213754
1764435363.172983,-1.26658,3.86078,1.19028,0.53735214,-0.726377535,-0.44213754
1764435363.1739943,-1.1445,4.0439,0.77826,0.537413175,-0.72656064,-0.442076505
1764435363.1739943,-1.1445,4.0439,0.77826,0.537413175,-0.72656064,-0.442076505
1764435363.1739943,-1.1445,4.0439,0.77826,0.537413175,-0.72656064,-0.442076505
1764435363.1739943,-1.1445,4.0439,0.77826,0.537413175,-0.72656064,-0.442076505
1764435363.1739943,-1.1445,4.0439,0.77826,0.537413175,-0.72656064,-0.442076505
1764435363.174997,-1.1445,4.0439,0.77826,0.537413175,-0.72656064,-0.442076505
1764435363.2175171,-1.1445,4.0439,0.77826,0.537413175,-0.72656064,-0.442076505
1764435363.2175171,-1.1445,4.0439,0.77826,0.537413175,-0.72656064,-0.442076505
1764435363.2175171,-1.1445,4.0439,0.77826,0.537413175,-0.72656064,-0.442076505
1764435363.2175171,-1.1445,4.0439,0.77826,0.537413175,-0.72656064,-0.442076505
1764435363.2175171,-1.23606,3.55558,0.763,0.537291105,-0.726743745,-0.44225961
1764435363.2175171,-1.23606,3.55558,0.763,0.537291105,-0.726743745,-0.44225961
1764435363.2175171,-1.23606,3.55558,0.763,0.537291105,-0.726743745,-0.44225961
1764435363.2175171,-1.23606,3.55558,0.763,0.537291105,-0.726743745,-0.44225961
1764435363.2175171,-1.23606,3.55558,0.763,0.537291105,-0.726743745,-0.44225961
1764435363.2175171,-1.23606,3.55558,0.763,0.537291105,-0.726743745,-0.44225961
1764435363.2175171,-1.23606,3.55558,0.763,0.537291105,-0.726743745,-0.44225961
1764435363.2175171,-1.23606,3.55558,0.763,0.537291105,-0.726743745,-0.44225961
1764435363.2175171,-1.23606,3.55558,0.763,0.537291105,-0.726743745,-0.44225961
1764435363.2175171,-1.23606,3.55558,0.763,0.537291105,-0.726743745,-0.44225961
1764435363.2175171,-0.3815,3.69292,0.6409199999999999,0.53796249,-0.726499605,-0.441954435
1764435363.2175171,-0.3815,3.69292,0.6409199999999999,0.53796249,-0.726499605,-0.441954435
1764435363.2185154,-0.3815,3.69292,0.6409199999999999,0.53796249,-0.726499605,-0.441954435
1764435363.2185154,-0.3815,3.69292,0.6409199999999999,0.53796249,-0.726499605,-0.441954435
1764435363.2185154,-0.3815,3.69292,0.6409199999999999,0.53796249,-0.726499605,-0.441954435
1764435363.2185154,-0.3815,3.69292,0.6409199999999999,0.53796249,-0.726499605,-0.441954435
1764435363.2185154,-0.3815,3.69292,0.6409199999999999,0.53796249,-0.726499605,-0.441954435
1764435363.2185154,-0.3815,3.69292,0.6409199999999999,0.53796249,-0.726499605,-0.441954435
1764435363.2185154,-0.3815,3.69292,0.6409199999999999,0.53796249,-0.726499605,-0.441954435
1764435363.2185154,-0.3815,3.69292,0.6409199999999999,0.53796249,-0.726499605,-0.441954435
1764435363.261619,-1.05294,3.84552,0.6409199999999999,0.53735214,-0.72717099,-0.44225961
1764435363.261619,-1.05294,3.84552,0.6409199999999999,0.53735214,-0.72717099,-0.44225961
1764435363.261619,-1.05294,3.84552,0.6409199999999999,0.53735214,-0.72717099,-0.44225961
1764435363.261619,-1.05294,3.84552,0.6409199999999999,0.53735214,-0.72717099,-0.44225961
1764435363.261619,-1.05294,3.84552,0.6409199999999999,0.53735214,-0.72717099,-0.44225961
1764435363.261619,-1.05294,3.84552,0.6409199999999999,0.53735214,-0.72717099,-0.44225961
1764435363.261619,-1.05294,3.84552,0.6409199999999999,0.53735214,-0.72717099,-0.44225961
1764435363.261619,-1.05294,3.84552,0.6409199999999999,0.53735214,-0.72717099,-0.44225961
1764435363.261619,-1.05294,3.84552,0.6409199999999999,0.53735214,-0.72717099,-0.44225961
1764435363.261619,-1.05294,3.84552,0.6409199999999999,0.53735214,-0.72717099,-0.44225961
1764435363.261619,-0.54936,3.61662,0.47306,0.537779385,-0.726743745,-0.44262582
1764435363.261619,-0.54936,3.61662,0.47306,0.537779385,-0.726743745,-0.44262582
1764435363.261619,-0.54936,3.61662,0.47306,0.537779385,-0.726743745,-0.44262582
1764435363.2626293,-0.54936,3.61662,0.47306,0.537779385,-0.726743745,-0.44262582
1764435363.2626293,-0.54936,3.61662,0.47306,0.537779385,-0.726743745,-0.44262582
1764435363.2626293,-0.54936,3.61662,0.47306,0.537779385,-0.726743745,-0.44262582
1764435363.2626293,-0.54936,3.61662,0.47306,0.537779385,-0.726743745,-0.44262582
1764435363.2626293,-0.54936,3.61662,0.47306,0.537779385,-0.726743745,-0.44262582
1764435363.2626293,-0.54936,3.61662,0.47306,0.537779385,-0.726743745,-0.44262582
1764435363.2626293,-0.54936,3.61662,0.47306,0.537779385,-0.726743745,-0.44262582
1764435363.2626293,-0.4578,3.46402,0.79352,0.537535245,-0.72680478,-0.442442715
1764435363.2626293,-0.4578,3.46402,0.79352,0.537535245,-0.72680478,-0.442442715
1764435363.3072026,-0.4578,3.46402,0.79352,0.537535245,-0.72680478,-0.442442715
1764435363.3072026,-0.4578,3.46402,0.79352,0.537535245,-0.72680478,-0.442442715
1764435363.3072026,-0.4578,3.46402,0.79352,0.537535245,-0.72680478,-0.442442715
1764435363.3072026,-0.4578,3.46402,0.79352,0.537535245,-0.72680478,-0.442442715
1764435363.3072026,-0.4578,3.46402,0.79352,0.537535245,-0.72680478,-0.442442715
1764435363.3072026,-0.4578,3.46402,0.79352,0.537535245,-0.72680478,-0.442442715
1764435363.3072026,-0.4578,3.46402,0.79352,0.537535245,-0.72680478,-0.442442715
1764435363.3072026,-0.4578,3.46402,0.79352,0.537535245,-0.72680478,-0.442442715
1764435363.3072026,-0.9003399999999999,3.67766,0.41202,0.537535245,-0.726621675,-0.44274789
1764435363.3072026,-0.9003399999999999,3.67766,0.41202,0.537535245,-0.726621675,-0.44274789
1764435363.3072026,-0.9003399999999999,3.67766,0.41202,0.537535245,-0.726621675,-0.44274789
1764435363.3072026,-0.9003399999999999,3.67766,0.41202,0.537535245,-0.726621675,-0.44274789
1764435363.3072026,-0.9003399999999999,3.67766,0.41202,0.537535245,-0.726621675,-0.44274789
1764435363.3072026,-0.9003399999999999,3.67766,0.41202,0.537535245,-0.726621675,-0.44274789
1764435363.3072026,-0.9003399999999999,3.67766,0.41202,0.537535245,-0.726621675,-0.44274789
1764435363.3072026,-0.9003399999999999,3.67766,0.41202,0.537535245,-0.726621675,-0.44274789
1764435363.3072026,-0.9003399999999999,3.67766,0.41202,0.537535245,-0.726621675,-0.44274789
1764435363.3072026,-0.9003399999999999,3.67766,0.41202,0.537535245,-0.726621675,-0.44274789
1764435363.3072026,-1.0682,3.40298,0.62566,0.537413175,-0.726987885,-0.442564785
1764435363.3072026,-1.0682,3.40298,0.62566,0.537413175,-0.726987885,-0.442564785
1764435363.3072026,-1.0682,3.40298,0.62566,0.537413175,-0.726987885,-0.442564785
1764435363.3082204,-1.0682,3.40298,0.62566,0.537413175,-0.726987885,-0.442564785
1764435363.3560412,-1.0682,3.40298,0.62566,0.537413175,-0.726987885,-0.442564785
1764435363.3560412,-1.0682,3.40298,0.62566,0.537413175,-0.726987885,-0.442564785
1764435363.3560412,-1.0682,3.40298,0.62566,0.537413175,-0.726987885,-0.442564785
1764435363.3560412,-1.0682,3.40298,0.62566,0.537413175,-0.726987885,-0.442564785
1764435363.3560412,-1.0682,3.40298,0.62566,0.537413175,-0.726987885,-0.442564785
1764435363.3560412,-1.0682,3.40298,0.62566,0.537413175,-0.726987885,-0.442564785
1764435363.3560412,-0.85456,4.10494,0.71722,0.537535245,-0.7272320250000001,-0.4431141
1764435363.3560412,-0.85456,4.10494,0.71722,0.537535245,-0.7272320250000001,-0.4431141
1764435363.3560412,-0.85456,4.10494,0.71722,0.537535245,-0.7272320250000001,-0.4431141
1764435363.3560412,-0.85456,4.10494,0.71722,0.537535245,-0.7272320250000001,-0.4431141
1764435363.3560412,-0.85456,4.10494,0.71722,0.537535245,-0.7272320250000001,-0.4431141
1764435363.3560412,-0.85456,4.10494,0.71722,0.537535245,-0.7272320250000001,-0.4431141
1764435363.3560412,-0.85456,4.10494,0.71722,0.537535245,-0.7272320250000001,-0.4431141
1764435363.3560412,-0.85456,4.10494,0.71722,0.537535245,-0.7272320250000001,-0.4431141
1764435363.3560412,-0.85456,4.10494,0.71722,0.537535245,-0.7272320250000001,-0.4431141
1764435363.3566418,-0.85456,4.10494,0.71722,0.537535245,-0.7272320250000001,-0.4431141
1764435363.3566418,-0.79352,4.01338,0.71722,0.537291105,-0.727598235,-0.443053065
1764435363.3566418,-0.79352,4.01338,0.71722,0.537291105,-0.727598235,-0.443053065
1764435363.3566418,-0.79352,4.01338,0.71722,0.537291105,-0.727598235,-0.443053065
1764435363.3566418,-0.79352,4.01338,0.71722,0.537291105,-0.727598235,-0.443053065
1764435363.3566418,-0.79352,4.01338,0.71722,0.537291105,-0.727598235,-0.443053065
1764435363.3566418,-0.79352,4.01338,0.71722,0.537291105,-0.727598235,-0.443053065
1764435363.3566418,-0.79352,4.01338,0.71722,0.537291105,-0.727598235,-0.443053065
1764435363.3566418,-0.79352,4.01338,0.71722,0.537291105,-0.727598235,-0.443053065
1764435363.4014108,-0.79352,4.01338,0.71722,0.537291105,-0.727598235,-0.443053065
1764435363.4014108,-0.79352,4.01338,0.71722,0.537291105,-0.727598235,-0.443053065
1764435363.4014108,-1.64808,3.79974,0.51884,0.53735214,-0.727842375,-0.44335824
1764435363.4014108,-1.64808,3.79974,0.51884,0.53735214,-0.727842375,-0.44335824
1764435363.4014108,-1.64808,3.79974,0.51884,0.53735214,-0.727842375,-0.44335824
1764435363.4014108,-1.64808,3.79974,0.51884,0.53735214,-0.727842375,-0.44335824
1764435363.4014108,-1.64808,3.79974,0.51884,0.53735214,-0.727842375,-0.44335824
1764435363.4014108,-1.64808,3.79974,0.51884,0.53735214,-0.727842375,-0.44335824
1764435363.4014108,-1.64808,3.79974,0.51884,0.53735214,-0.727842375,-0.44335824
1764435363.4014108,-1.64808,3.79974,0.51884,0.53735214,-0.727842375,-0.44335824
1764435363.4014108,-1.64808,3.79974,0.51884,0.53735214,-0.727842375,-0.44335824
1764435363.4014108,-1.64808,3.79974,0.51884,0.53735214,-0.727842375,-0.44335824
1764435363.4014108,-2.31952,3.5098,1.00716,0.537413175,-0.7272320250000001,-0.44360238
1764435363.4014108,-2.31952,3.5098,1.00716,0.537413175,-0.7272320250000001,-0.44360238
1764435363.4014108,-2.31952,3.5098,1.00716,0.537413175,-0.7272320250000001,-0.44360238
1764435363.4014108,-2.31952,3.5098,1.00716,0.537413175,-0.7272320250000001,-0.44360238
1764435363.4014108,-2.31952,3.5098,1.00716,0.537413175,-0.7272320250000001,-0.44360238
1764435363.4014108,-2.31952,3.5098,1.00716,0.537413175,-0.7272320250000001,-0.44360238
1764435363.4014108,-2.31952,3.5098,1.00716,0.537413175,-0.7272320250000001,-0.44360238
1764435363.4014108,-2.31952,3.5098,1.00716,0.537413175,-0.7272320250000001,-0.44360238
1764435363.4014108,-2.31952,3.5098,1.00716,0.537413175,-0.7272320250000001,-0.44360238
1764435363.4014108,-2.31952,3.5098,1.00716,0.537413175,-0.7272320250000001,-0.44360238
1764435363.4014108,-2.01432,3.47928,0.1525999999999999,0.536558685,-0.72643857,-0.44372445
1764435363.4014108,-2.01432,3.47928,0.1525999999999999,0.536558685,-0.72643857,-0.44372445
1764435363.4475305,-2.01432,3.47928,0.1525999999999999,0.536558685,-0.72643857,-0.44372445
1764435363.4475305,-2.01432,3.47928,0.1525999999999999,0.536558685,-0.72643857,-0.44372445
1764435363.4475305,-2.01432,3.47928,0.1525999999999999,0.536558685,-0.72643857,-0.44372445
1764435363.4475305,-2.01432,3.47928,0.1525999999999999,0.536558685,-0.72643857,-0.44372445
1764435363.4475305,-2.01432,3.47928,0.1525999999999999,0.536558685,-0.72643857,-0.44372445
1764435363.4475305,-2.01432,3.47928,0.1525999999999999,0.536558685,-0.72643857,-0.44372445
1764435363.4475305,-2.01432,3.47928,0.1525999999999999,0.536558685,-0.72643857,-0.44372445
1764435363.4475305,-2.01432,3.47928,0.1525999999999999,0.536558685,-0.72643857,-0.44372445
1764435363.4475305,-2.27374,3.61662,0.3204599999999999,0.53661972,-0.726011325,-0.443663415
1764435363.4475305,-2.27374,3.61662,0.3204599999999999,0.53661972,-0.726011325,-0.443663415
1764435363.4475305,-2.27374,3.61662,0.3204599999999999,0.53661972,-0.726011325,-0.443663415
1764435363.4475305,-2.27374,3.61662,0.3204599999999999,0.53661972,-0.726011325,-0.443663415
1764435363.4475305,-2.27374,3.61662,0.3204599999999999,0.53661972,-0.726011325,-0.443663415
1764435363.4475305,-2.27374,3.61662,0.3204599999999999,0.53661972,-0.726011325,-0.443663415
1764435363.4475305,-2.27374,3.61662,0.3204599999999999,0.53661972,-0.726011325,-0.443663415
1764435363.4475305,-2.27374,3.61662,0.3204599999999999,0.53661972,-0.726011325,-0.443663415
1764435363.4485292,-2.27374,3.61662,0.3204599999999999,0.53661972,-0.726011325,-0.443663415
1764435363.4485292,-2.27374,3.61662,0.3204599999999999,0.53661972,-0.726011325,-0.443663415
1764435363.4485292,-2.07536,3.52506,0.21364,0.53723007,-0.726133395,-0.443541345
1764435363.4485292,-2.07536,3.52506,0.21364,0.53723007,-0.726133395,-0.443541345
1764435363.4485292,-2.07536,3.52506,0.21364,0.53723007,-0.726133395,-0.443541345
1764435363.4485292,-2.07536,3.52506,0.21364,0.53723007,-0.726133395,-0.443541345
1764435363.4485292,-2.07536,3.52506,0.21364,0.53723007,-0.726133395,-0.443541345
1764435363.4485292,-2.07536,3.52506,0.21364,0.53723007,-0.726133395,-0.443541345
1764435363.4933436,-2.07536,3.52506,0.21364,0.53723007,-0.726133395,-0.443541345
1764435363.4933436,-2.07536,3.52506,0.21364,0.53723007,-0.726133395,-0.443541345
1764435363.4933436,-2.07536,3.52506,0.21364,0.53723007,-0.726133395,-0.443541345
1764435363.4943593,-2.07536,3.52506,0.21364,0.53723007,-0.726133395,-0.443541345
1764435363.4943593,-1.99906,3.76922,0.79352,0.53771835,-0.726255465,-0.443419275
1764435363.4943593,-1.99906,3.76922,0.79352,0.53771835,-0.726255465,-0.443419275
1764435363.4943593,-1.99906,3.76922,0.79352,0.53771835,-0.726255465,-0.443419275
1764435363.495362,-1.99906,3.76922,0.79352,0.53771835,-0.726255465,-0.443419275
1764435363.495362,-1.99906,3.76922,0.79352,0.53771835,-0.726255465,-0.443419275
1764435363.495362,-1.99906,3.76922,0.79352,0.53771835,-0.726255465,-0.443419275
1764435363.495362,-1.99906,3.76922,0.79352,0.53771835,-0.726255465,-0.443419275
1764435363.495362,-1.99906,3.76922,0.79352,0.53771835,-0.726255465,-0.443419275
1764435363.495362,-1.99906,3.76922,0.79352,0.53771835,-0.726255465,-0.443419275
1764435363.495362,-1.99906,3.76922,0.79352,0.53771835,-0.726255465,-0.443419275
1764435363.495362,-1.72438,3.9676,0.59514,0.538145595,-0.726621675,-0.443785485
1764435363.495362,-1.72438,3.9676,0.59514,0.538145595,-0.726621675,-0.443785485
1764435363.496374,-1.72438,3.9676,0.59514,0.538145595,-0.726621675,-0.443785485
1764435363.496374,-1.72438,3.9676,0.59514,0.538145595,-0.726621675,-0.443785485
1764435363.496374,-1.72438,3.9676,0.59514,0.538145595,-0.726621675,-0.443785485
1764435363.496374,-1.72438,3.9676,0.59514,0.538145595,-0.726621675,-0.443785485
1764435363.496374,-1.72438,3.9676,0.59514,0.538145595,-0.726621675,-0.443785485
1764435363.496374,-1.72438,3.9676,0.59514,0.538145595,-0.726621675,-0.443785485
1764435363.5405958,-1.72438,3.9676,0.59514,0.538145595,-0.726621675,-0.443785485
1764435363.5405958,-1.72438,3.9676,0.59514,0.538145595,-0.726621675,-0.443785485
1764435363.5405958,-1.31236,3.52506,0.9919,0.53735214,-0.72643857,-0.443663415
1764435363.5405958,-1.31236,3.52506,0.9919,0.53735214,-0.72643857,-0.443663415
1764435363.5405958,-1.31236,3.52506,0.9919,0.53735214,-0.72643857,-0.443663415
1764435363.5405958,-1.31236,3.52506,0.9919,0.53735214,-0.72643857,-0.443663415
1764435363.5405958,-1.31236,3.52506,0.9919,0.53735214,-0.72643857,-0.443663415
1764435363.5405958,-1.31236,3.52506,0.9919,0.53735214,-0.72643857,-0.443663415
1764435363.5405958,-1.31236,3.52506,0.9919,0.53735214,-0.72643857,-0.443663415
1764435363.5405958,-1.31236,3.52506,0.9919,0.53735214,-0.72643857,-0.443663415
1764435363.5405958,-1.31236,3.52506,0.9919,0.53735214,-0.72643857,-0.443663415
1764435363.5405958,-1.31236,3.52506,0.9919,0.53735214,-0.72643857,-0.443663415
1764435363.5405958,-1.46496,3.75396,1.03768,0.537779385,-0.725767185,-0.44360238
1764435363.5405958,-1.46496,3.75396,1.03768,0.537779385,-0.725767185,-0.44360238
1764435363.5405958,-1.46496,3.75396,1.03768,0.537779385,-0.725767185,-0.44360238
1764435363.5405958,-1.46496,3.75396,1.03768,0.537779385,-0.725767185,-0.44360238
1764435363.5405958,-1.46496,3.75396,1.03768,0.537779385,-0.725767185,-0.44360238
1764435363.5405958,-1.46496,3.75396,1.03768,0.537779385,-0.725767185,-0.44360238
1764435363.5405958,-1.46496,3.75396,1.03768,0.537779385,-0.725767185,-0.44360238
1764435363.5405958,-1.46496,3.75396,1.03768,0.537779385,-0.725767185,-0.44360238
1764435363.5405958,-1.46496,3.75396,1.03768,0.537779385,-0.725767185,-0.44360238
1764435363.5405958,-1.46496,3.75396,1.03768,0.537779385,-0.725767185,-0.44360238
1764435363.587769,-1.95328,3.08252,0.36624,0.537413175,-0.72582822,-0.443663415
1764435363.587769,-1.95328,3.08252,0.36624,0.537413175,-0.72582822,-0.443663415
1764435363.587769,-1.95328,3.08252,0.36624,0.537413175,-0.72582822,-0.443663415
1764435363.587769,-1.95328,3.08252,0.36624,0.537413175,-0.72582822,-0.443663415
1764435363.587769,-1.95328,3.08252,0.36624,0.537413175,-0.72582822,-0.443663415
1764435363.587769,-1.95328,3.08252,0.36624,0.537413175,-0.72582822,-0.443663415
1764435363.587769,-1.95328,3.08252,0.36624,0.537413175,-0.72582822,-0.443663415
1764435363.587769,-1.95328,3.08252,0.36624,0.537413175,-0.72582822,-0.443663415
1764435363.587769,-1.95328,3.08252,0.36624,0.537413175,-0.72582822,-0.443663415
1764435363.587769,-1.95328,3.08252,0.36624,0.537413175,-0.72582822,-0.443663415
1764435363.587769,-1.9838,3.69292,0.5341,0.536680755,-0.725523045,-0.444029625
1764435363.587769,-1.9838,3.69292,0.5341,0.536680755,-0.725523045,-0.444029625
1764435363.587769,-1.9838,3.69292,0.5341,0.536680755,-0.725523045,-0.444029625
1764435363.587769,-1.9838,3.69292,0.5341,0.536680755,-0.725523045,-0.444029625
1764435363.587769,-1.9838,3.69292,0.5341,0.536680755,-0.725523045,-0.444029625
1764435363.587769,-1.9838,3.69292,0.5341,0.536680755,-0.725523045,-0.444029625
1764435363.587769,-1.9838,3.69292,0.5341,0.536680755,-0.725523045,-0.444029625
1764435363.587769,-1.9838,3.69292,0.5341,0.536680755,-0.725523045,-0.444029625
1764435363.587769,-1.9838,3.69292,0.5341,0.536680755,-0.725523045,-0.444029625
1764435363.587769,-1.9838,3.69292,0.5341,0.536680755,-0.725523045,-0.444029625
1764435363.587769,-2.79258,3.26564,0.36624,0.537046965,-0.725278905,-0.44421273
1764435363.587769,-2.79258,3.26564,0.36624,0.537046965,-0.725278905,-0.44421273
1764435363.587769,-2.79258,3.26564,0.36624,0.537046965,-0.725278905,-0.44421273
1764435363.587769,-2.79258,3.26564,0.36624,0.537046965,-0.725278905,-0.44421273
1764435363.63315,-2.79258,3.26564,0.36624,0.537046965,-0.725278905,-0.44421273
1764435363.63315,-2.79258,3.26564,0.36624,0.537046965,-0.725278905,-0.44421273
1764435363.63315,-2.79258,3.26564,0.36624,0.537046965,-0.725278905,-0.44421273
1764435363.63315,-2.79258,3.26564,0.36624,0.537046965,-0.725278905,-0.44421273
1764435363.63315,-2.79258,3.26564,0.36624,0.537046965,-0.725278905,-0.44421273
1764435363.63315,-2.79258,3.26564,0.36624,0.537046965,-0.725278905,-0.44421273
1764435363.63315,-2.15166,3.78448,0.5341,0.536680755,-0.72582822,-0.44445687
1764435363.63315,-2.15166,3.78448,0.5341,0.536680755,-0.72582822,-0.44445687
1764435363.63315,-2.15166,3.78448,0.5341,0.536680755,-0.72582822,-0.44445687
1764435363.63315,-2.15166,3.78448,0.5341,0.536680755,-0.72582822,-0.44445687
1764435363.6336825,-2.15166,3.78448,0.5341,0.536680755,-0.72582822,-0.44445687
1764435363.6336825,-2.15166,3.78448,0.5341,0.536680755,-0.72582822,-0.44445687
1764435363.6336825,-2.15166,3.78448,0.5341,0.536680755,-0.72582822,-0.44445687
1764435363.6336825,-2.15166,3.78448,0.5341,0.536680755,-0.72582822,-0.44445687
1764435363.6336825,-2.15166,3.78448,0.5341,0.536680755,-0.72582822,-0.44445687
1764435363.6336825,-2.15166,3.78448,0.5341,0.536680755,-0.72582822,-0.44445687
1764435363.6336825,-2.8231,3.37246,0.85456,0.537413175,-0.7256451150000001,-0.444395835
1764435363.6336825,-2.8231,3.37246,0.85456,0.537413175,-0.7256451150000001,-0.444395835
1764435363.6336825,-2.8231,3.37246,0.85456,0.537413175,-0.7256451150000001,-0.444395835
1764435363.6336825,-2.8231,3.37246,0.85456,0.537413175,-0.7256451150000001,-0.444395835
1764435363.6336825,-2.8231,3.37246,0.85456,0.537413175,-0.7256451150000001,-0.444395835
1764435363.6336825,-2.8231,3.37246,0.85456,0.537413175,-0.7256451150000001,-0.444395835
1764435363.6336825,-2.8231,3.37246,0.85456,0.537413175,-0.7256451150000001,-0.444395835
1764435363.6336825,-2.8231,3.37246,0.85456,0.537413175,-0.7256451150000001,-0.444395835
1764435363.6820707,-2.8231,3.37246,0.85456,0.537413175,-0.7256451150000001,-0.444395835
1764435363.6820707,-2.8231,3.37246,0.85456,0.537413175,-0.7256451150000001,-0.444395835
1764435363.6820707,-2.0601,3.3572,0.42728,0.537108,-0.72521787,-0.445006185
1764435363.6820707,-2.0601,3.3572,0.42728,0.537108,-0.72521787,-0.445006185
1764435363.6820707,-2.0601,3.3572,0.42728,0.537108,-0.72521787,-0.445006185
1764435363.6820707,-2.0601,3.3572,0.42728,0.537108,-0.72521787,-0.445006185
1764435363.6820707,-2.0601,3.3572,0.42728,0.537108,-0.72521787,-0.445006185
1764435363.6830702,-2.0601,3.3572,0.42728,0.537108,-0.72521787,-0.445006185
1764435363.6830702,-2.0601,3.3572,0.42728,0.537108,-0.72521787,-0.445006185
1764435363.6830702,-2.0601,3.3572,0.42728,0.537108,-0.72521787,-0.445006185
1764435363.6830702,-2.0601,3.3572,0.42728,0.537108,-0.72521787,-0.445006185
1764435363.6830702,-2.0601,3.3572,0.42728,0.537108,-0.72521787,-0.445006185
1764435363.6830702,-1.6633399999999998,3.29616,0.74774,0.53674179,-0.7250958,-0.445006185
1764435363.6830702,-1.6633399999999998,3.29616,0.74774,0.53674179,-0.7250958,-0.445006185
1764435363.6830702,-1.6633399999999998,3.29616,0.74774,0.53674179,-0.7250958,-0.445006185
1764435363.6830702,-1.6633399999999998,3.29616,0.74774,0.53674179,-0.7250958,-0.445006185
1764435363.6830702,-1.6633399999999998,3.29616,0.74774,0.53674179,-0.7250958,-0.445006185
1764435363.6830702,-1.6633399999999998,3.29616,0.74774,0.53674179,-0.7250958,-0.445006185
1764435363.6830702,-1.6633399999999998,3.29616,0.74774,0.53674179,-0.7250958,-0.445006185
1764435363.6835794,-1.6633399999999998,3.29616,0.74774,0.53674179,-0.7250958,-0.445006185
1764435363.6835794,-1.6633399999999998,3.29616,0.74774,0.53674179,-0.7250958,-0.445006185
1764435363.6835794,-1.6633399999999998,3.29616,0.74774,0.53674179,-0.7250958,-0.445006185
1764435363.6835794,-1.6022999999999998,3.64714,0.59514,0.536924895,-0.7250958,-0.44506722
1764435363.6835794,-1.6022999999999998,3.64714,0.59514,0.536924895,-0.7250958,-0.44506722
1764435363.724379,-1.6022999999999998,3.64714,0.59514,0.536924895,-0.7250958,-0.44506722
1764435363.724379,-1.6022999999999998,3.64714,0.59514,0.536924895,-0.7250958,-0.44506722
1764435363.724379,-1.6022999999999998,3.64714,0.59514,0.536924895,-0.7250958,-0.44506722
1764435363.724379,-1.6022999999999998,3.64714,0.59514,0.536924895,-0.7250958,-0.44506722
1764435363.724379,-1.6022999999999998,3.64714,0.59514,0.536924895,-0.7250958,-0.44506722
1764435363.724379,-1.6022999999999998,3.64714,0.59514,0.536924895,-0.7250958,-0.44506722
1764435363.724379,-1.6022999999999998,3.64714,0.59514,0.536924895,-0.7250958,-0.44506722
1764435363.724379,-1.6022999999999998,3.64714,0.59514,0.536924895,-0.7250958,-0.44506722
1764435363.724379,-1.1445,3.75396,1.09872,0.537291105,-0.72521787,-0.44494515
1764435363.724379,-1.1445,3.75396,1.09872,0.537291105,-0.72521787,-0.44494515
1764435363.7263963,-1.1445,3.75396,1.09872,0.537291105,-0.72521787,-0.44494515
1764435363.7263963,-1.1445,3.75396,1.09872,0.537291105,-0.72521787,-0.44494515
1764435363.7263963,-1.1445,3.75396,1.09872,0.537291105,-0.72521787,-0.44494515
1764435363.7263963,-1.1445,3.75396,1.09872,0.537291105,-0.72521787,-0.44494515
1764435363.7273974,-1.1445,3.75396,1.09872,0.537291105,-0.72521787,-0.44494515
1764435363.7273974,-1.1445,3.75396,1.09872,0.537291105,-0.72521787,-0.44494515
1764435363.7273974,-1.1445,3.75396,1.09872,0.537291105,-0.72521787,-0.44494515
1764435363.7273974,-1.1445,3.75396,1.09872,0.537291105,-0.72521787,-0.44494515
1764435363.7273974,-1.57178,3.7387,0.50358,0.536924895,-0.725034765,-0.445372395
1764435363.7273974,-1.57178,3.7387,0.50358,0.536924895,-0.725034765,-0.445372395
1764435363.7273974,-1.57178,3.7387,0.50358,0.536924895,-0.725034765,-0.445372395
1764435363.7273974,-1.57178,3.7387,0.50358,0.536924895,-0.725034765,-0.445372395
1764435363.7703,-1.57178,3.7387,0.50358,0.536924895,-0.725034765,-0.445372395
1764435363.7703,-1.57178,3.7387,0.50358,0.536924895,-0.725034765,-0.445372395
1764435363.7714837,-1.57178,3.7387,0.50358,0.536924895,-0.725034765,-0.445372395
1764435363.7714837,-1.57178,3.7387,0.50358,0.536924895,-0.725034765,-0.445372395
1764435363.7714837,-1.57178,3.7387,0.50358,0.536924895,-0.725034765,-0.445372395
1764435363.7714837,-1.57178,3.7387,0.50358,0.536924895,-0.725034765,-0.445372395
1764435363.7714837,-1.9075,3.61662,0.6867,0.537108,-0.7250958,-0.445982745
1764435363.7714837,-1.9075,3.61662,0.6867,0.537108,-0.7250958,-0.445982745
1764435363.7714837,-1.9075,3.61662,0.6867,0.537108,-0.7250958,-0.445982745
1764435363.7714837,-1.9075,3.61662,0.6867,0.537108,-0.7250958,-0.445982745
1764435363.7714837,-1.9075,3.61662,0.6867,0.537108,-0.7250958,-0.445982745
1764435363.7714837,-1.9075,3.61662,0.6867,0.537108,-0.7250958,-0.445982745
1764435363.7714837,-1.9075,3.61662,0.6867,0.537108,-0.7250958,-0.445982745
1764435363.772993,-1.9075,3.61662,0.6867,0.537108,-0.7250958,-0.445982745
1764435363.772993,-1.9075,3.61662,0.6867,0.537108,-0.7250958,-0.445982745
1764435363.772993,-1.9075,3.61662,0.6867,0.537108,-0.7250958,-0.445982745
1764435363.772993,-1.95328,3.3572,0.56462,0.537169035,-0.7246075200000001,-0.44604378
1764435363.7735198,-1.95328,3.3572,0.56462,0.537169035,-0.7246075200000001,-0.44604378
1764435363.7735198,-1.95328,3.3572,0.56462,0.537169035,-0.7246075200000001,-0.44604378
1764435363.7735198,-1.95328,3.3572,0.56462,0.537169035,-0.7246075200000001,-0.44604378
1764435363.7740169,-1.95328,3.3572,0.56462,0.537169035,-0.7246075200000001,-0.44604378
1764435363.7740169,-1.95328,3.3572,0.56462,0.537169035,-0.7246075200000001,-0.44604378
1764435363.8172724,-1.95328,3.3572,0.56462,0.537169035,-0.7246075200000001,-0.44604378
1764435363.8172724,-1.95328,3.3572,0.56462,0.537169035,-0.7246075200000001,-0.44604378
1764435363.8172724,-1.95328,3.3572,0.56462,0.537169035,-0.7246075200000001,-0.44604378
1764435363.8172724,-1.95328,3.3572,0.56462,0.537169035,-0.7246075200000001,-0.44604378
1764435363.8182845,-2.5179,3.5098,0.73248,0.53686386,-0.72497373,-0.44579964
1764435363.8182845,-2.5179,3.5098,0.73248,0.53686386,-0.72497373,-0.44579964
1764435363.8182845,-2.5179,3.5098,0.73248,0.53686386,-0.72497373,-0.44579964
1764435363.8182845,-2.5179,3.5098,0.73248,0.53686386,-0.72497373,-0.44579964
1764435363.8182845,-2.5179,3.5098,0.73248,0.53686386,-0.72497373,-0.44579964
1764435363.8182845,-2.5179,3.5098,0.73248,0.53686386,-0.72497373,-0.44579964
1764435363.8182845,-2.5179,3.5098,0.73248,0.53686386,-0.72497373,-0.44579964
1764435363.8182845,-2.5179,3.5098,0.73248,0.53686386,-0.72497373,-0.44579964
1764435363.8182845,-2.5179,3.5098,0.73248,0.53686386,-0.72497373,-0.44579964
1764435363.8182845,-2.5179,3.5098,0.73248,0.53686386,-0.72497373,-0.44579964
1764435363.8182845,-2.22796,3.7387,0.6714399999999999,0.537291105,-0.724180275,-0.44640999
1764435363.8182845,-2.22796,3.7387,0.6714399999999999,0.537291105,-0.724180275,-0.44640999
1764435363.8182845,-2.22796,3.7387,0.6714399999999999,0.537291105,-0.724180275,-0.44640999
