Timestamp,GyroX,GyroY,GyroZ,AccX,AccY,AccZ
1764435595.0815158,-5.90562,1.87698,-0.18312,-0.6522810450000001,0.744932175,-0.11669892
1764435595.0815158,-5.90562,1.87698,-0.18312,-0.6522810450000001,0.744932175,-0.11669892
1764435595.0815158,-5.90562,1.87698,-0.18312,-0.6522810450000001,0.744932175,-0.11669892
1764435595.0815158,-5.90562,1.87698,-0.18312,-0.6522810450000001,0.744932175,-0.11669892
1764435595.0820425,-5.90562,1.87698,-0.18312,-0.6522810450000001,0.744932175,-0.11669892
1764435595.0820425,-5.90562,1.87698,-0.18312,-0.6522810450000001,0.744932175,-0.11669892
1764435595.0820425,-7.53844,2.8231,-0.9003399999999999,-0.65160966,0.7440166500000001,-0.11694306
1764435595.0820425,-7.53844,2.8231,-0.9003399999999999,-0.65160966,0.7440166500000001,-0.11694306
1764435595.0820425,-7.53844,2.8231,-0.9003399999999999,-0.65160966,0.7440166500000001,-0.11694306
1764435595.0820425,-7.53844,2.8231,-0.9003399999999999,-0.65160966,0.7440166500000001,-0.11694306
1764435595.0820425,-7.53844,2.8231,-0.9003399999999999,-0.65160966,0.7440166500000001,-0.11694306
1764435595.0820425,-7.53844,2.8231,-0.9003399999999999,-0.65160966,0.7440166500000001,-0.11694306
1764435595.0820425,-7.53844,2.8231,-0.9003399999999999,-0.65160966,0.7440166500000001,-0.11694306
1764435595.0820425,-7.53844,2.8231,-0.9003399999999999,-0.65160966,0.7440166500000001,-0.11694306
1764435595.0820425,-7.53844,2.8231,-0.9003399999999999,-0.65160966,0.7440166500000001,-0.11694306
1764435595.0820425,-7.53844,2.8231,-0.9003399999999999,-0.65160966,0.7440166500000001,-0.11694306
1764435595.0820425,-8.34722,3.83026,-0.54936,-0.65075517,0.740415585,-0.11828583
1764435595.0820425,-8.34722,3.83026,-0.54936,-0.65075517,0.740415585,-0.11828583
1764435595.0820425,-8.34722,3.83026,-0.54936,-0.65075517,0.740415585,-0.11828583
1764435595.0820425,-8.34722,3.83026,-0.54936,-0.65075517,0.740415585,-0.11828583
1764435595.0820425,-8.34722,3.83026,-0.54936,-0.65075517,0.740415585,-0.11828583
1764435595.0820425,-8.34722,3.83026,-0.54936,-0.65075517,0.740415585,-0.11828583
1764435595.1281564,-8.34722,3.83026,-0.54936,-0.65075517,0.740415585,-0.11828583
1764435595.1281564,-8.34722,3.83026,-0.54936,-0.65075517,0.740415585,-0.11828583
1764435595.1281564,-8.34722,3.83026,-0.54936,-0.65075517,0.740415585,-0.11828583
1764435595.1281564,-8.34722,3.83026,-0.54936,-0.65075517,0.740415585,-0.11828583
1764435595.1281564,-7.84364,3.7387,-0.3509799999999999,-0.65136552,0.73571589,-0.119811705
1764435595.1281564,-7.84364,3.7387,-0.3509799999999999,-0.65136552,0.73571589,-0.119811705
1764435595.1281564,-7.84364,3.7387,-0.3509799999999999,-0.65136552,0.73571589,-0.119811705
1764435595.1281564,-7.84364,3.7387,-0.3509799999999999,-0.65136552,0.73571589,-0.119811705
1764435595.1281564,-7.84364,3.7387,-0.3509799999999999,-0.65136552,0.73571589,-0.119811705
1764435595.1281564,-7.84364,3.7387,-0.3509799999999999,-0.65136552,0.73571589,-0.119811705
1764435595.1281564,-7.84364,3.7387,-0.3509799999999999,-0.65136552,0.73571589,-0.119811705
1764435595.1281564,-7.84364,3.7387,-0.3509799999999999,-0.65136552,0.73571589,-0.119811705
1764435595.1281564,-7.84364,3.7387,-0.3509799999999999,-0.65136552,0.73571589,-0.119811705
1764435595.1281564,-7.84364,3.7387,-0.3509799999999999,-0.65136552,0.73571589,-0.119811705
1764435595.1281564,-5.93614,2.94518,-0.6103999999999999,-0.65344071,0.731748615,-0.121398615
1764435595.1281564,-5.93614,2.94518,-0.6103999999999999,-0.65344071,0.731748615,-0.121398615
1764435595.1281564,-5.93614,2.94518,-0.6103999999999999,-0.65344071,0.731748615,-0.121398615
1764435595.1281564,-5.93614,2.94518,-0.6103999999999999,-0.65344071,0.731748615,-0.121398615
1764435595.1281564,-5.93614,2.94518,-0.6103999999999999,-0.65344071,0.731748615,-0.121398615
1764435595.1281564,-5.93614,2.94518,-0.6103999999999999,-0.65344071,0.731748615,-0.121398615
1764435595.1281564,-5.93614,2.94518,-0.6103999999999999,-0.65344071,0.731748615,-0.121398615
1764435595.1281564,-5.93614,2.94518,-0.6103999999999999,-0.65344071,0.731748615,-0.121398615
1764435595.1296463,-5.93614,2.94518,-0.6103999999999999,-0.65344071,0.731748615,-0.121398615
1764435595.1296463,-5.93614,2.94518,-0.6103999999999999,-0.65344071,0.731748615,-0.121398615
1764435595.176921,-4.6543,1.9838,-0.03052,-0.655699005,0.72814755,-0.12280242
1764435595.177935,-4.6543,1.9838,-0.03052,-0.655699005,0.72814755,-0.12280242
1764435595.177935,-4.6543,1.9838,-0.03052,-0.655699005,0.72814755,-0.12280242
1764435595.177935,-4.6543,1.9838,-0.03052,-0.655699005,0.72814755,-0.12280242
1764435595.177935,-4.6543,1.9838,-0.03052,-0.655699005,0.72814755,-0.12280242
1764435595.177935,-4.6543,1.9838,-0.03052,-0.655699005,0.72814755,-0.12280242
1764435595.177935,-4.6543,1.9838,-0.03052,-0.655699005,0.72814755,-0.12280242
1764435595.177935,-4.6543,1.9838,-0.03052,-0.655699005,0.72814755,-0.12280242
1764435595.1789396,-4.6543,1.9838,-0.03052,-0.655699005,0.72814755,-0.12280242
1764435595.1789396,-4.6543,1.9838,-0.03052,-0.655699005,0.72814755,-0.12280242
1764435595.1789396,-3.21986,1.7549,0.50358,-0.65820144,0.72741513,-0.12280242
1764435595.1789396,-3.21986,1.7549,0.50358,-0.65820144,0.72741513,-0.12280242
1764435595.1789396,-3.21986,1.7549,0.50358,-0.65820144,0.72741513,-0.12280242
1764435595.1789396,-3.21986,1.7549,0.50358,-0.65820144,0.72741513,-0.12280242
1764435595.1789396,-3.21986,1.7549,0.50358,-0.65820144,0.72741513,-0.12280242
1764435595.1789396,-3.21986,1.7549,0.50358,-0.65820144,0.72741513,-0.12280242
1764435595.1789396,-3.21986,1.7549,0.50358,-0.65820144,0.72741513,-0.12280242
1764435595.1789396,-3.21986,1.7549,0.50358,-0.65820144,0.72741513,-0.12280242
1764435595.1789396,-3.21986,1.7549,0.50358,-0.65820144,0.72741513,-0.12280242
1764435595.1789396,-3.21986,1.7549,0.50358,-0.65820144,0.72741513,-0.12280242
1764435595.1789396,-1.84646,0.6867,1.35814,-0.659116965,0.72765927,-0.122741385
1764435595.1789396,-1.84646,0.6867,1.35814,-0.659116965,0.72765927,-0.122741385
1764435595.1789396,-1.84646,0.6867,1.35814,-0.659116965,0.72765927,-0.122741385
1764435595.1789396,-1.84646,0.6867,1.35814,-0.659116965,0.72765927,-0.122741385
1764435595.2201743,-1.84646,0.6867,1.35814,-0.659116965,0.72765927,-0.122741385
1764435595.2201743,-1.84646,0.6867,1.35814,-0.659116965,0.72765927,-0.122741385
1764435595.2211692,-1.84646,0.6867,1.35814,-0.659116965,0.72765927,-0.122741385
1764435595.2211692,-1.84646,0.6867,1.35814,-0.659116965,0.72765927,-0.122741385
1764435595.2211692,-1.84646,0.6867,1.35814,-0.659116965,0.72765927,-0.122741385
1764435595.2221682,-1.84646,0.6867,1.35814,-0.659116965,0.72765927,-0.122741385
1764435595.2221682,-1.08346,-0.57988,1.70912,-0.6606428400000001,0.72936825,-0.122497245
1764435595.2221682,-1.08346,-0.57988,1.70912,-0.6606428400000001,0.72936825,-0.122497245
1764435595.2221682,-1.08346,-0.57988,1.70912,-0.6606428400000001,0.72936825,-0.122497245
1764435595.2231734,-1.08346,-0.57988,1.70912,-0.6606428400000001,0.72936825,-0.122497245
1764435595.2231734,-1.08346,-0.57988,1.70912,-0.6606428400000001,0.72936825,-0.122497245
1764435595.2231734,-1.08346,-0.57988,1.70912,-0.6606428400000001,0.72936825,-0.122497245
1764435595.2231734,-1.08346,-0.57988,1.70912,-0.6606428400000001,0.72936825,-0.122497245
1764435595.2231734,-1.08346,-0.57988,1.70912,-0.6606428400000001,0.72936825,-0.122497245
1764435595.2241695,-1.08346,-0.57988,1.70912,-0.6606428400000001,0.72936825,-0.122497245
1764435595.2241695,-1.08346,-0.57988,1.70912,-0.6606428400000001,0.72936825,-0.122497245
1764435595.2241695,-0.3815,-0.6409199999999999,1.46496,-0.659483175,0.7314434400000001,-0.121032405
1764435595.2241695,-0.3815,-0.6409199999999999,1.46496,-0.659483175,0.7314434400000001,-0.121032405
1764435595.2241695,-0.3815,-0.6409199999999999,1.46496,-0.659483175,0.7314434400000001,-0.121032405
1764435595.2241695,-0.3815,-0.6409199999999999,1.46496,-0.659483175,0.7314434400000001,-0.121032405
1764435595.2241695,-0.3815,-0.6409199999999999,1.46496,-0.659483175,0.7314434400000001,-0.121032405
1764435595.2241695,-0.3815,-0.6409199999999999,1.46496,-0.659483175,0.7314434400000001,-0.121032405
1764435595.2679574,-0.3815,-0.6409199999999999,1.46496,-0.659483175,0.7314434400000001,-0.121032405
1764435595.2679574,-0.3815,-0.6409199999999999,1.46496,-0.659483175,0.7314434400000001,-0.121032405
1764435595.2679574,-0.3815,-0.6409199999999999,1.46496,-0.659483175,0.7314434400000001,-0.121032405
1764435595.2689774,-0.3815,-0.6409199999999999,1.46496,-0.659483175,0.7314434400000001,-0.121032405
1764435595.2689774,-0.27468,-0.47306,1.25132,-0.65746902,0.73425105,-0.11999481
1764435595.2689774,-0.27468,-0.47306,1.25132,-0.65746902,0.73425105,-0.11999481
1764435595.2689774,-0.27468,-0.47306,1.25132,-0.65746902,0.73425105,-0.11999481
1764435595.2689774,-0.27468,-0.47306,1.25132,-0.65746902,0.73425105,-0.11999481
1764435595.2689774,-0.27468,-0.47306,1.25132,-0.65746902,0.73425105,-0.11999481
1764435595.2689774,-0.27468,-0.47306,1.25132,-0.65746902,0.73425105,-0.11999481
1764435595.2689774,-0.27468,-0.47306,1.25132,-0.65746902,0.73425105,-0.11999481
1764435595.2689774,-0.27468,-0.47306,1.25132,-0.65746902,0.73425105,-0.11999481
1764435595.2689774,-0.27468,-0.47306,1.25132,-0.65746902,0.73425105,-0.11999481
1764435595.2689774,-0.27468,-0.47306,1.25132,-0.65746902,0.73425105,-0.11999481
1764435595.2689774,-1.17502,-0.27468,0.79352,-0.654844515,0.738340395,-0.118957215
1764435595.2689774,-1.17502,-0.27468,0.79352,-0.654844515,0.738340395,-0.118957215
1764435595.2689774,-1.17502,-0.27468,0.79352,-0.654844515,0.738340395,-0.118957215
1764435595.270492,-1.17502,-0.27468,0.79352,-0.654844515,0.738340395,-0.118957215
1764435595.270492,-1.17502,-0.27468,0.79352,-0.654844515,0.738340395,-0.118957215
1764435595.270492,-1.17502,-0.27468,0.79352,-0.654844515,0.738340395,-0.118957215
1764435595.270492,-1.17502,-0.27468,0.79352,-0.654844515,0.738340395,-0.118957215
1764435595.270492,-1.17502,-0.27468,0.79352,-0.654844515,0.738340395,-0.118957215
1764435595.270492,-1.17502,-0.27468,0.79352,-0.654844515,0.738340395,-0.118957215
1764435595.270492,-1.17502,-0.27468,0.79352,-0.654844515,0.738340395,-0.118957215
1764435595.31521,-2.65524,0.97664,0.71722,-0.653013465,0.7421856,-0.118346865
1764435595.31521,-2.65524,0.97664,0.71722,-0.653013465,0.7421856,-0.118346865
1764435595.31521,-2.65524,0.97664,0.71722,-0.653013465,0.7421856,-0.118346865
1764435595.31521,-2.65524,0.97664,0.71722,-0.653013465,0.7421856,-0.118346865
1764435595.31521,-2.65524,0.97664,0.71722,-0.653013465,0.7421856,-0.118346865
1764435595.31521,-2.65524,0.97664,0.71722,-0.653013465,0.7421856,-0.118346865
1764435595.31621,-2.65524,0.97664,0.71722,-0.653013465,0.7421856,-0.118346865
1764435595.31621,-2.65524,0.97664,0.71722,-0.653013465,0.7421856,-0.118346865
1764435595.31621,-2.65524,0.97664,0.71722,-0.653013465,0.7421856,-0.118346865
1764435595.31621,-2.65524,0.97664,0.71722,-0.653013465,0.7421856,-0.118346865
1764435595.31621,-4.02864,1.96854,0.24416,-0.65234208,0.74365044,-0.11779755
1764435595.31621,-4.02864,1.96854,0.24416,-0.65234208,0.74365044,-0.11779755
1764435595.31621,-4.02864,1.96854,0.24416,-0.65234208,0.74365044,-0.11779755
1764435595.31621,-4.02864,1.96854,0.24416,-0.65234208,0.74365044,-0.11779755
1764435595.31621,-4.02864,1.96854,0.24416,-0.65234208,0.74365044,-0.11779755
1764435595.31621,-4.02864,1.96854,0.24416,-0.65234208,0.74365044,-0.11779755
1764435595.31621,-4.02864,1.96854,0.24416,-0.65234208,0.74365044,-0.11779755
1764435595.31621,-4.02864,1.96854,0.24416,-0.65234208,0.74365044,-0.11779755
1764435595.31621,-4.02864,1.96854,0.24416,-0.65234208,0.74365044,-0.11779755
1764435595.31621,-4.02864,1.96854,0.24416,-0.65234208,0.74365044,-0.11779755
1764435595.31621,-5.0358,1.77016,-0.3815,-0.6518538,0.743101125,-0.117492375
1764435595.31621,-5.0358,1.77016,-0.3815,-0.6518538,0.743101125,-0.117492375
1764435595.35734,-5.0358,1.77016,-0.3815,-0.6518538,0.743101125,-0.117492375
1764435595.35734,-5.0358,1.77016,-0.3815,-0.6518538,0.743101125,-0.117492375
1764435595.35734,-5.0358,1.77016,-0.3815,-0.6518538,0.743101125,-0.117492375
1764435595.35734,-5.0358,1.77016,-0.3815,-0.6518538,0.743101125,-0.117492375
1764435595.3583586,-5.0358,1.77016,-0.3815,-0.6518538,0.743101125,-0.117492375
1764435595.3583586,-5.0358,1.77016,-0.3815,-0.6518538,0.743101125,-0.117492375
1764435595.3583586,-5.0358,1.77016,-0.3815,-0.6518538,0.743101125,-0.117492375
1764435595.3593583,-5.0358,1.77016,-0.3815,-0.6518538,0.743101125,-0.117492375
1764435595.3593583,-5.753019999999999,2.63998,-0.8087799999999999,-0.650816205,0.7413921450000001,-0.117004095
1764435595.3593583,-5.753019999999999,2.63998,-0.8087799999999999,-0.650816205,0.7413921450000001,-0.117004095
1764435595.3593583,-5.753019999999999,2.63998,-0.8087799999999999,-0.650816205,0.7413921450000001,-0.117004095
1764435595.3603556,-5.753019999999999,2.63998,-0.8087799999999999,-0.650816205,0.7413921450000001,-0.117004095
1764435595.3603556,-5.753019999999999,2.63998,-0.8087799999999999,-0.650816205,0.7413921450000001,-0.117004095
1764435595.3603556,-5.753019999999999,2.63998,-0.8087799999999999,-0.650816205,0.7413921450000001,-0.117004095
1764435595.3603556,-5.753019999999999,2.63998,-0.8087799999999999,-0.650816205,0.7413921450000001,-0.117004095
1764435595.3613558,-5.753019999999999,2.63998,-0.8087799999999999,-0.650816205,0.7413921450000001,-0.117004095
1764435595.3613558,-5.753019999999999,2.63998,-0.8087799999999999,-0.650816205,0.7413921450000001,-0.117004095
1764435595.3613558,-5.753019999999999,2.63998,-0.8087799999999999,-0.650816205,0.7413921450000001,-0.117004095
1764435595.3623586,-5.70724,3.15882,-0.24416,-0.65014482,0.7397442,-0.11828583
1764435595.3623586,-5.70724,3.15882,-0.24416,-0.65014482,0.7397442,-0.11828583
1764435595.363357,-5.70724,3.15882,-0.24416,-0.65014482,0.7397442,-0.11828583
1764435595.363357,-5.70724,3.15882,-0.24416,-0.65014482,0.7397442,-0.11828583
1764435595.363357,-5.70724,3.15882,-0.24416,-0.65014482,0.7397442,-0.11828583
1764435595.363357,-5.70724,3.15882,-0.24416,-0.65014482,0.7397442,-0.11828583
1764435595.4057603,-5.70724,3.15882,-0.24416,-0.65014482,0.7397442,-0.11828583
1764435595.4057603,-5.70724,3.15882,-0.24416,-0.65014482,0.7397442,-0.11828583
1764435595.4057603,-5.70724,3.15882,-0.24416,-0.65014482,0.7397442,-0.11828583
1764435595.4057603,-5.70724,3.15882,-0.24416,-0.65014482,0.7397442,-0.11828583
1764435595.4067836,-4.83742,3.64714,-0.6103999999999999,-0.64892412,0.736631415,-0.119445495
1764435595.4067836,-4.83742,3.64714,-0.6103999999999999,-0.64892412,0.736631415,-0.119445495
1764435595.4067836,-4.83742,3.64714,-0.6103999999999999,-0.64892412,0.736631415,-0.119445495
1764435595.4067836,-4.83742,3.64714,-0.6103999999999999,-0.64892412,0.736631415,-0.119445495
1764435595.4067836,-4.83742,3.64714,-0.6103999999999999,-0.64892412,0.736631415,-0.119445495
1764435595.4067836,-4.83742,3.64714,-0.6103999999999999,-0.64892412,0.736631415,-0.119445495
1764435595.4067836,-4.83742,3.64714,-0.6103999999999999,-0.64892412,0.736631415,-0.119445495
1764435595.4067836,-4.83742,3.64714,-0.6103999999999999,-0.64892412,0.736631415,-0.119445495
1764435595.4067836,-4.83742,3.64714,-0.6103999999999999,-0.64892412,0.736631415,-0.119445495
1764435595.4067836,-4.83742,3.64714,-0.6103999999999999,-0.64892412,0.736631415,-0.119445495
1764435595.4067836,-4.74586,3.64714,-0.8087799999999999,-0.651060345,0.735532785,-0.122253105
1764435595.4067836,-4.74586,3.64714,-0.8087799999999999,-0.651060345,0.735532785,-0.122253105
1764435595.4067836,-4.74586,3.64714,-0.8087799999999999,-0.651060345,0.735532785,-0.122253105
1764435595.4067836,-4.74586,3.64714,-0.8087799999999999,-0.651060345,0.735532785,-0.122253105
1764435595.4067836,-4.74586,3.64714,-0.8087799999999999,-0.651060345,0.735532785,-0.122253105
1764435595.4067836,-4.74586,3.64714,-0.8087799999999999,-0.651060345,0.735532785,-0.122253105
1764435595.4067836,-4.74586,3.64714,-0.8087799999999999,-0.651060345,0.735532785,-0.122253105
1764435595.4067836,-4.74586,3.64714,-0.8087799999999999,-0.651060345,0.735532785,-0.122253105
1764435595.4067836,-4.74586,3.64714,-0.8087799999999999,-0.651060345,0.735532785,-0.122253105
1764435595.4078372,-4.74586,3.64714,-0.8087799999999999,-0.651060345,0.735532785,-0.122253105
1764435595.451002,-5.340999999999999,1.81594,-0.18312,-0.65502762,0.7351055400000001,-0.12365691
1764435595.451002,-5.340999999999999,1.81594,-0.18312,-0.65502762,0.7351055400000001,-0.12365691
1764435595.451538,-5.340999999999999,1.81594,-0.18312,-0.65502762,0.7351055400000001,-0.12365691
1764435595.451538,-5.340999999999999,1.81594,-0.18312,-0.65502762,0.7351055400000001,-0.12365691
1764435595.451538,-5.340999999999999,1.81594,-0.18312,-0.65502762,0.7351055400000001,-0.12365691
1764435595.451538,-5.340999999999999,1.81594,-0.18312,-0.65502762,0.7351055400000001,-0.12365691
1764435595.451538,-5.340999999999999,1.81594,-0.18312,-0.65502762,0.7351055400000001,-0.12365691
1764435595.451538,-5.340999999999999,1.81594,-0.18312,-0.65502762,0.7351055400000001,-0.12365691
1764435595.4535537,-5.340999999999999,1.81594,-0.18312,-0.65502762,0.7351055400000001,-0.12365691
1764435595.4535537,-5.340999999999999,1.81594,-0.18312,-0.65502762,0.7351055400000001,-0.12365691
1764435595.4535537,-5.06632,1.0682,0.10682,-0.65868972,0.735410715,-0.123840015
1764435595.4535537,-5.06632,1.0682,0.10682,-0.65868972,0.735410715,-0.123840015
1764435595.4535537,-5.06632,1.0682,0.10682,-0.65868972,0.735410715,-0.123840015
1764435595.4535537,-5.06632,1.0682,0.10682,-0.65868972,0.735410715,-0.123840015
1764435595.4535537,-5.06632,1.0682,0.10682,-0.65868972,0.735410715,-0.123840015
1764435595.4535537,-5.06632,1.0682,0.10682,-0.65868972,0.735410715,-0.123840015
1764435595.4535537,-5.06632,1.0682,0.10682,-0.65868972,0.735410715,-0.123840015
1764435595.4535537,-5.06632,1.0682,0.10682,-0.65868972,0.735410715,-0.123840015
1764435595.4535537,-5.06632,1.0682,0.10682,-0.65868972,0.735410715,-0.123840015
1764435595.4535537,-5.06632,1.0682,0.10682,-0.65868972,0.735410715,-0.123840015
1764435595.4545524,-4.18124,1.2208,-0.3051999999999999,-0.65978835,0.7329693150000001,-0.12255828
1764435595.4545524,-4.18124,1.2208,-0.3051999999999999,-0.65978835,0.7329693150000001,-0.12255828
1764435595.4980097,-4.18124,1.2208,-0.3051999999999999,-0.65978835,0.7329693150000001,-0.12255828
1764435595.4990273,-4.18124,1.2208,-0.3051999999999999,-0.65978835,0.7329693150000001,-0.12255828
1764435595.4990273,-4.18124,1.2208,-0.3051999999999999,-0.65978835,0.7329693150000001,-0.12255828
1764435595.5000224,-4.18124,1.2208,-0.3051999999999999,-0.65978835,0.7329693150000001,-0.12255828
1764435595.5000224,-4.18124,1.2208,-0.3051999999999999,-0.65978835,0.7329693150000001,-0.12255828
1764435595.5000224,-4.18124,1.2208,-0.3051999999999999,-0.65978835,0.7329693150000001,-0.12255828
1764435595.5000224,-4.18124,1.2208,-0.3051999999999999,-0.65978835,0.7329693150000001,-0.12255828
1764435595.5000224,-4.18124,1.2208,-0.3051999999999999,-0.65978835,0.7329693150000001,-0.12255828
1764435595.5000224,-2.48738,1.99906,-0.24416,-0.659971455,0.729917565,-0.12365691
1764435595.5000224,-2.48738,1.99906,-0.24416,-0.659971455,0.729917565,-0.12365691
1764435595.5000224,-2.48738,1.99906,-0.24416,-0.659971455,0.729917565,-0.12365691
1764435595.50102,-2.48738,1.99906,-0.24416,-0.659971455,0.729917565,-0.12365691
1764435595.50102,-2.48738,1.99906,-0.24416,-0.659971455,0.729917565,-0.12365691
1764435595.50102,-2.48738,1.99906,-0.24416,-0.659971455,0.729917565,-0.12365691
1764435595.50102,-2.48738,1.99906,-0.24416,-0.659971455,0.729917565,-0.12365691
1764435595.5020823,-2.48738,1.99906,-0.24416,-0.659971455,0.729917565,-0.12365691
1764435595.5020823,-2.48738,1.99906,-0.24416,-0.659971455,0.729917565,-0.12365691
1764435595.5030837,-2.48738,1.99906,-0.24416,-0.659971455,0.729917565,-0.12365691
1764435595.5030837,-1.11398,1.526,0.4578,-0.65942214,0.7287579,-0.12353484
1764435595.5030837,-1.11398,1.526,0.4578,-0.65942214,0.7287579,-0.12353484
1764435595.5030837,-1.11398,1.526,0.4578,-0.65942214,0.7287579,-0.12353484
1764435595.504088,-1.11398,1.526,0.4578,-0.65942214,0.7287579,-0.12353484
1764435595.504088,-1.11398,1.526,0.4578,-0.65942214,0.7287579,-0.12353484
1764435595.504088,-1.11398,1.526,0.4578,-0.65942214,0.7287579,-0.12353484
1764435595.5455024,-1.11398,1.526,0.4578,-0.65942214,0.7287579,-0.12353484
1764435595.5455024,-1.11398,1.526,0.4578,-0.65942214,0.7287579,-0.12353484
1764435595.5455024,-1.11398,1.526,0.4578,-0.65942214,0.7287579,-0.12353484
1764435595.5455024,-1.11398,1.526,0.4578,-0.65942214,0.7287579,-0.12353484
1764435595.5455024,-1.0682,0.36624,0.57988,-0.659361105,0.72961239,-0.123229665
1764435595.5455024,-1.0682,0.36624,0.57988,-0.659361105,0.72961239,-0.123229665
1764435595.5455024,-1.0682,0.36624,0.57988,-0.659361105,0.72961239,-0.123229665
1764435595.5455024,-1.0682,0.36624,0.57988,-0.659361105,0.72961239,-0.123229665
1764435595.5455024,-1.0682,0.36624,0.57988,-0.659361105,0.72961239,-0.123229665
1764435595.5455024,-1.0682,0.36624,0.57988,-0.659361105,0.72961239,-0.123229665
1764435595.5455024,-1.0682,0.36624,0.57988,-0.659361105,0.72961239,-0.123229665
1764435595.5465066,-1.0682,0.36624,0.57988,-0.659361105,0.72961239,-0.123229665
1764435595.5465066,-1.0682,0.36624,0.57988,-0.659361105,0.72961239,-0.123229665
1764435595.5470178,-1.0682,0.36624,0.57988,-0.659361105,0.72961239,-0.123229665
1764435595.5470178,-0.77826,0.04578,0.93086,-0.6575300550000001,0.7311993,-0.122008965
1764435595.5470178,-0.77826,0.04578,0.93086,-0.6575300550000001,0.7311993,-0.122008965
1764435595.5470178,-0.77826,0.04578,0.93086,-0.6575300550000001,0.7311993,-0.122008965
1764435595.5480328,-0.77826,0.04578,0.93086,-0.6575300550000001,0.7311993,-0.122008965
1764435595.548432,-0.77826,0.04578,0.93086,-0.6575300550000001,0.7311993,-0.122008965
1764435595.548432,-0.77826,0.04578,0.93086,-0.6575300550000001,0.7311993,-0.122008965
1764435595.5490327,-0.77826,0.04578,0.93086,-0.6575300550000001,0.7311993,-0.122008965
1764435595.5490327,-0.77826,0.04578,0.93086,-0.6575300550000001,0.7311993,-0.122008965
1764435595.5925162,-0.77826,0.04578,0.93086,-0.6575300550000001,0.7311993,-0.122008965
1764435595.5925162,-0.77826,0.04578,0.93086,-0.6575300550000001,0.7311993,-0.122008965
1764435595.5925162,-0.8698199999999999,-0.42728,0.9156,-0.65612625,0.731992755,-0.121642755
1764435595.5925162,-0.8698199999999999,-0.42728,0.9156,-0.65612625,0.731992755,-0.121642755
1764435595.5930505,-0.8698199999999999,-0.42728,0.9156,-0.65612625,0.731992755,-0.121642755
1764435595.5930505,-0.8698199999999999,-0.42728,0.9156,-0.65612625,0.731992755,-0.121642755
1764435595.5930505,-0.8698199999999999,-0.42728,0.9156,-0.65612625,0.731992755,-0.121642755
1764435595.5930505,-0.8698199999999999,-0.42728,0.9156,-0.65612625,0.731992755,-0.121642755
1764435595.5930505,-0.8698199999999999,-0.42728,0.9156,-0.65612625,0.731992755,-0.121642755
1764435595.5930505,-0.8698199999999999,-0.42728,0.9156,-0.65612625,0.731992755,-0.121642755
1764435595.5930505,-0.8698199999999999,-0.42728,0.9156,-0.65612625,0.731992755,-0.121642755
1764435595.5930505,-0.8698199999999999,-0.42728,0.9156,-0.65612625,0.731992755,-0.121642755
1764435595.5930505,-0.93086,0.25942,1.1445,-0.654844515,0.734678295,-0.12109344
1764435595.5930505,-0.93086,0.25942,1.1445,-0.654844515,0.734678295,-0.12109344
1764435595.5930505,-0.93086,0.25942,1.1445,-0.654844515,0.734678295,-0.12109344
1764435595.5930505,-0.93086,0.25942,1.1445,-0.654844515,0.734678295,-0.12109344
1764435595.5930505,-0.93086,0.25942,1.1445,-0.654844515,0.734678295,-0.12109344
1764435595.5930505,-0.93086,0.25942,1.1445,-0.654844515,0.734678295,-0.12109344
1764435595.5930505,-0.93086,0.25942,1.1445,-0.654844515,0.734678295,-0.12109344
1764435595.5930505,-0.93086,0.25942,1.1445,-0.654844515,0.734678295,-0.12109344
1764435595.5930505,-0.93086,0.25942,1.1445,-0.654844515,0.734678295,-0.12109344
1764435595.5930505,-0.93086,0.25942,1.1445,-0.654844515,0.734678295,-0.12109344
1764435595.5930505,-0.65618,-0.1525999999999999,-0.06104,-0.654844515,0.737485905,-0.12133758
1764435595.5930505,-0.65618,-0.1525999999999999,-0.06104,-0.654844515,0.737485905,-0.12133758
1764435595.6367412,-0.65618,-0.1525999999999999,-0.06104,-0.654844515,0.737485905,-0.12133758
1764435595.6367412,-0.65618,-0.1525999999999999,-0.06104,-0.654844515,0.737485905,-0.12133758
1764435595.6367412,-0.65618,-0.1525999999999999,-0.06104,-0.654844515,0.737485905,-0.12133758
1764435595.6372514,-0.65618,-0.1525999999999999,-0.06104,-0.654844515,0.737485905,-0.12133758
1764435595.6372514,-0.65618,-0.1525999999999999,-0.06104,-0.654844515,0.737485905,-0.12133758
1764435595.6372514,-0.65618,-0.1525999999999999,-0.06104,-0.654844515,0.737485905,-0.12133758
1764435595.6372514,-0.65618,-0.1525999999999999,-0.06104,-0.654844515,0.737485905,-0.12133758
1764435595.6372514,-0.65618,-0.1525999999999999,-0.06104,-0.654844515,0.737485905,-0.12133758
1764435595.6382687,-1.2971,1.09872,-0.50358,-0.652891395,0.740293515,-0.12060516
1764435595.6382687,-1.2971,1.09872,-0.50358,-0.652891395,0.740293515,-0.12060516
1764435595.6382687,-1.2971,1.09872,-0.50358,-0.652891395,0.740293515,-0.12060516
1764435595.6382687,-1.2971,1.09872,-0.50358,-0.652891395,0.740293515,-0.12060516
1764435595.6382687,-1.2971,1.09872,-0.50358,-0.652891395,0.740293515,-0.12060516
1764435595.6382687,-1.2971,1.09872,-0.50358,-0.652891395,0.740293515,-0.12060516
1764435595.6382687,-1.2971,1.09872,-0.50358,-0.652891395,0.740293515,-0.12060516
1764435595.6392689,-1.2971,1.09872,-0.50358,-0.652891395,0.740293515,-0.12060516
1764435595.6392689,-1.2971,1.09872,-0.50358,-0.652891395,0.740293515,-0.12060516
1764435595.6392689,-1.2971,1.09872,-0.50358,-0.652891395,0.740293515,-0.12060516
1764435595.6392689,-2.65524,2.5942,-0.77826,-0.65136552,0.741514215,-0.119689635
1764435595.640787,-2.65524,2.5942,-0.77826,-0.65136552,0.741514215,-0.119689635
1764435595.640787,-2.65524,2.5942,-0.77826,-0.65136552,0.741514215,-0.119689635
1764435595.640787,-2.65524,2.5942,-0.77826,-0.65136552,0.741514215,-0.119689635
1764435595.6417997,-2.65524,2.5942,-0.77826,-0.65136552,0.741514215,-0.119689635
1764435595.6417997,-2.65524,2.5942,-0.77826,-0.65136552,0.741514215,-0.119689635
1764435595.6816716,-2.65524,2.5942,-0.77826,-0.65136552,0.741514215,-0.119689635
1764435595.6816716,-2.65524,2.5942,-0.77826,-0.65136552,0.741514215,-0.119689635
1764435595.6816716,-2.65524,2.5942,-0.77826,-0.65136552,0.741514215,-0.119689635
1764435595.682187,-2.65524,2.5942,-0.77826,-0.65136552,0.741514215,-0.119689635
1764435595.682187,-4.13546,3.41824,-1.2055399999999998,-0.652647255,0.742490775,-0.120299985
1764435595.682187,-4.13546,3.41824,-1.2055399999999998,-0.652647255,0.742490775,-0.120299985
1764435595.682718,-4.13546,3.41824,-1.2055399999999998,-0.652647255,0.742490775,-0.120299985
1764435595.682718,-4.13546,3.41824,-1.2055399999999998,-0.652647255,0.742490775,-0.120299985
1764435595.682718,-4.13546,3.41824,-1.2055399999999998,-0.652647255,0.742490775,-0.120299985
1764435595.682718,-4.13546,3.41824,-1.2055399999999998,-0.652647255,0.742490775,-0.120299985
1764435595.682718,-4.13546,3.41824,-1.2055399999999998,-0.652647255,0.742490775,-0.120299985
1764435595.682718,-4.13546,3.41824,-1.2055399999999998,-0.652647255,0.742490775,-0.120299985
1764435595.682718,-4.13546,3.41824,-1.2055399999999998,-0.652647255,0.742490775,-0.120299985
1764435595.682718,-4.13546,3.41824,-1.2055399999999998,-0.652647255,0.742490775,-0.120299985
1764435595.684734,-5.76828,3.47928,-1.11398,-0.653623815,0.742734915,-0.12219207
1764435595.684734,-5.76828,3.47928,-1.11398,-0.653623815,0.742734915,-0.12219207
1764435595.684734,-5.76828,3.47928,-1.11398,-0.653623815,0.742734915,-0.12219207
1764435595.684734,-5.76828,3.47928,-1.11398,-0.653623815,0.742734915,-0.12219207
1764435595.684734,-5.76828,3.47928,-1.11398,-0.653623815,0.742734915,-0.12219207
1764435595.684734,-5.76828,3.47928,-1.11398,-0.653623815,0.742734915,-0.12219207
1764435595.685732,-5.76828,3.47928,-1.11398,-0.653623815,0.742734915,-0.12219207
1764435595.685732,-5.76828,3.47928,-1.11398,-0.653623815,0.742734915,-0.12219207
1764435595.729715,-5.76828,3.47928,-1.11398,-0.653623815,0.742734915,-0.12219207
1764435595.729715,-5.76828,3.47928,-1.11398,-0.653623815,0.742734915,-0.12219207
1764435595.729715,-7.095899999999999,3.3572,-1.58704,-0.65356278,0.74072076,-0.1232907
1764435595.729715,-7.095899999999999,3.3572,-1.58704,-0.65356278,0.74072076,-0.1232907
1764435595.729715,-7.095899999999999,3.3572,-1.58704,-0.65356278,0.74072076,-0.1232907
1764435595.729715,-7.095899999999999,3.3572,-1.58704,-0.65356278,0.74072076,-0.1232907
1764435595.729715,-7.095899999999999,3.3572,-1.58704,-0.65356278,0.74072076,-0.1232907
1764435595.729715,-7.095899999999999,3.3572,-1.58704,-0.65356278,0.74072076,-0.1232907
1764435595.729715,-7.095899999999999,3.3572,-1.58704,-0.65356278,0.74072076,-0.1232907
1764435595.729715,-7.095899999999999,3.3572,-1.58704,-0.65356278,0.74072076,-0.1232907
1764435595.729715,-7.095899999999999,3.3572,-1.58704,-0.65356278,0.74072076,-0.1232907
1764435595.729715,-7.095899999999999,3.3572,-1.58704,-0.65356278,0.74072076,-0.1232907
1764435595.729715,-6.790699999999999,3.83026,-1.6022999999999998,-0.65380692,0.735898995,-0.12414519
1764435595.729715,-6.790699999999999,3.83026,-1.6022999999999998,-0.65380692,0.735898995,-0.12414519
1764435595.729715,-6.790699999999999,3.83026,-1.6022999999999998,-0.65380692,0.735898995,-0.12414519
1764435595.729715,-6.790699999999999,3.83026,-1.6022999999999998,-0.65380692,0.735898995,-0.12414519
1764435595.729715,-6.790699999999999,3.83026,-1.6022999999999998,-0.65380692,0.735898995,-0.12414519
1764435595.729715,-6.790699999999999,3.83026,-1.6022999999999998,-0.65380692,0.735898995,-0.12414519
1764435595.729715,-6.790699999999999,3.83026,-1.6022999999999998,-0.65380692,0.735898995,-0.12414519
1764435595.7307148,-6.790699999999999,3.83026,-1.6022999999999998,-0.65380692,0.735898995,-0.12414519
1764435595.7307148,-6.790699999999999,3.83026,-1.6022999999999998,-0.65380692,0.735898995,-0.12414519
1764435595.7307148,-6.790699999999999,3.83026,-1.6022999999999998,-0.65380692,0.735898995,-0.12414519
1764435595.773563,-5.93614,3.15882,-1.1445,-0.65441727,0.73083309,-0.12597624
1764435595.7741084,-5.93614,3.15882,-1.1445,-0.65441727,0.73083309,-0.12597624
1764435595.7741084,-5.93614,3.15882,-1.1445,-0.65441727,0.73083309,-0.12597624
1764435595.7741084,-5.93614,3.15882,-1.1445,-0.65441727,0.73083309,-0.12597624
1764435595.7741084,-5.93614,3.15882,-1.1445,-0.65441727,0.73083309,-0.12597624
1764435595.7741084,-5.93614,3.15882,-1.1445,-0.65441727,0.73083309,-0.12597624
1764435595.7741084,-5.93614,3.15882,-1.1445,-0.65441727,0.73083309,-0.12597624
1764435595.7741084,-5.93614,3.15882,-1.1445,-0.65441727,0.73083309,-0.12597624
1764435595.7741084,-5.93614,3.15882,-1.1445,-0.65441727,0.73083309,-0.12597624
1764435595.7741084,-5.93614,3.15882,-1.1445,-0.65441727,0.73083309,-0.12597624
1764435595.7751317,-4.3491,2.60946,-0.96138,-0.65563797,0.72692685,-0.12719694
1764435595.7751317,-4.3491,2.60946,-0.96138,-0.65563797,0.72692685,-0.12719694
1764435595.7751317,-4.3491,2.60946,-0.96138,-0.65563797,0.72692685,-0.12719694
1764435595.7751317,-4.3491,2.60946,-0.96138,-0.65563797,0.72692685,-0.12719694
1764435595.7751317,-4.3491,2.60946,-0.96138,-0.65563797,0.72692685,-0.12719694
1764435595.7751317,-4.3491,2.60946,-0.96138,-0.65563797,0.72692685,-0.12719694
1764435595.7751317,-4.3491,2.60946,-0.96138,-0.65563797,0.72692685,-0.12719694
1764435595.7751317,-4.3491,2.60946,-0.96138,-0.65563797,0.72692685,-0.12719694
1764435595.7751317,-4.3491,2.60946,-0.96138,-0.65563797,0.72692685,-0.12719694
1764435595.7751317,-4.3491,2.60946,-0.96138,-0.65563797,0.72692685,-0.12719694
1764435595.7771485,-2.12114,1.48022,-0.10682,-0.65881179,0.72326475,-0.12829557
1764435595.7771485,-2.12114,1.48022,-0.10682,-0.65881179,0.72326475,-0.12829557
1764435595.7771485,-2.12114,1.48022,-0.10682,-0.65881179,0.72326475,-0.12829557
1764435595.7771485,-2.12114,1.48022,-0.10682,-0.65881179,0.72326475,-0.12829557
1764435595.8223078,-2.12114,1.48022,-0.10682,-0.65881179,0.72326475,-0.12829557
1764435595.8223078,-2.12114,1.48022,-0.10682,-0.65881179,0.72326475,-0.12829557
1764435595.8223078,-2.12114,1.48022,-0.10682,-0.65881179,0.72326475,-0.12829557
1764435595.8223078,-2.12114,1.48022,-0.10682,-0.65881179,0.72326475,-0.12829557
1764435595.8223078,-2.12114,1.48022,-0.10682,-0.65881179,0.72326475,-0.12829557
1764435595.8223078,-2.12114,1.48022,-0.10682,-0.65881179,0.72326475,-0.12829557
1764435595.8223078,-0.3357199999999999,0.6714399999999999,0.56462,-0.66088698,0.722959575,-0.12878385
1764435595.8223078,-0.3357199999999999,0.6714399999999999,0.56462,-0.66088698,0.722959575,-0.12878385
1764435595.8223078,-0.3357199999999999,0.6714399999999999,0.56462,-0.66088698,0.722959575,-0.12878385
1764435595.8223078,-0.3357199999999999,0.6714399999999999,0.56462,-0.66088698,0.722959575,-0.12878385
1764435595.8223078,-0.3357199999999999,0.6714399999999999,0.56462,-0.66088698,0.722959575,-0.12878385
1764435595.8223078,-0.3357199999999999,0.6714399999999999,0.56462,-0.66088698,0.722959575,-0.12878385
1764435595.8223078,-0.3357199999999999,0.6714399999999999,0.56462,-0.66088698,0.722959575,-0.12878385
1764435595.8223078,-0.3357199999999999,0.6714399999999999,0.56462,-0.66088698,0.722959575,-0.12878385
1764435595.8223078,-0.3357199999999999,0.6714399999999999,0.56462,-0.66088698,0.722959575,-0.12878385
1764435595.8223078,-0.3357199999999999,0.6714399999999999,0.56462,-0.66088698,0.722959575,-0.12878385
1764435595.8223078,1.58704,-0.71722,1.23606,-0.6616194,0.72350889,-0.128234535
1764435595.8223078,1.58704,-0.71722,1.23606,-0.6616194,0.72350889,-0.128234535
1764435595.8223078,1.58704,-0.71722,1.23606,-0.6616194,0.72350889,-0.128234535
1764435595.8223078,1.58704,-0.71722,1.23606,-0.6616194,0.72350889,-0.128234535
1764435595.8223078,1.58704,-0.71722,1.23606,-0.6616194,0.72350889,-0.128234535
1764435595.8233273,1.58704,-0.71722,1.23606,-0.6616194,0.72350889,-0.128234535
1764435595.8233273,1.58704,-0.71722,1.23606,-0.6616194,0.72350889,-0.128234535
1764435595.8233273,1.58704,-0.71722,1.23606,-0.6616194,0.72350889,-0.128234535
1764435595.8679748,1.58704,-0.71722,1.23606,-0.6616194,0.72350889,-0.128234535
1764435595.8679748,1.58704,-0.71722,1.23606,-0.6616194,0.72350889,-0.128234535
1764435595.8679748,2.54842,-0.71722,1.19028,-0.66149733,0.72582822,-0.12744108
1764435595.8679748,2.54842,-0.71722,1.19028,-0.66149733,0.72582822,-0.12744108
1764435595.8679748,2.54842,-0.71722,1.19028,-0.66149733,0.72582822,-0.12744108
1764435595.8679748,2.54842,-0.71722,1.19028,-0.66149733,0.72582822,-0.12744108
1764435595.8679748,2.54842,-0.71722,1.19028,-0.66149733,0.72582822,-0.12744108
1764435595.8679748,2.54842,-0.71722,1.19028,-0.66149733,0.72582822,-0.12744108
1764435595.8679748,2.54842,-0.71722,1.19028,-0.66149733,0.72582822,-0.12744108
1764435595.8679748,2.54842,-0.71722,1.19028,-0.66149733,0.72582822,-0.12744108
1764435595.8679748,2.54842,-0.71722,1.19028,-0.66149733,0.72582822,-0.12744108
1764435595.8679748,2.54842,-0.71722,1.19028,-0.66149733,0.72582822,-0.12744108
1764435595.8679748,2.8231,-0.9003399999999999,1.26658,-0.66027663,0.72949032,-0.126159345
1764435595.8679748,2.8231,-0.9003399999999999,1.26658,-0.66027663,0.72949032,-0.126159345
1764435595.8679748,2.8231,-0.9003399999999999,1.26658,-0.66027663,0.72949032,-0.126159345
1764435595.8679748,2.8231,-0.9003399999999999,1.26658,-0.66027663,0.72949032,-0.126159345
1764435595.8679748,2.8231,-0.9003399999999999,1.26658,-0.66027663,0.72949032,-0.126159345
1764435595.8679748,2.8231,-0.9003399999999999,1.26658,-0.66027663,0.72949032,-0.126159345
1764435595.8695097,2.8231,-0.9003399999999999,1.26658,-0.66027663,0.72949032,-0.126159345
1764435595.8695097,2.8231,-0.9003399999999999,1.26658,-0.66027663,0.72949032,-0.126159345
1764435595.8705258,2.8231,-0.9003399999999999,1.26658,-0.66027663,0.72949032,-0.126159345
1764435595.8705258,2.8231,-0.9003399999999999,1.26658,-0.66027663,0.72949032,-0.126159345
1764435595.913653,2.24322,-0.3815,1.09872,-0.65771316,0.73461726,-0.12512175
1764435595.913653,2.24322,-0.3815,1.09872,-0.65771316,0.73461726,-0.12512175
1764435595.913653,2.24322,-0.3815,1.09872,-0.65771316,0.73461726,-0.12512175
1764435595.913653,2.24322,-0.3815,1.09872,-0.65771316,0.73461726,-0.12512175
1764435595.9146738,2.24322,-0.3815,1.09872,-0.65771316,0.73461726,-0.12512175
1764435595.9146738,2.24322,-0.3815,1.09872,-0.65771316,0.73461726,-0.12512175
1764435595.9146738,2.24322,-0.3815,1.09872,-0.65771316,0.73461726,-0.12512175
1764435595.9146738,2.24322,-0.3815,1.09872,-0.65771316,0.73461726,-0.12512175
1764435595.9146738,2.24322,-0.3815,1.09872,-0.65771316,0.73461726,-0.12512175
1764435595.9146738,2.24322,-0.3815,1.09872,-0.65771316,0.73461726,-0.12512175
1764435595.9146738,0.51884,-0.09156,0.36624,-0.65466141,0.739927305,-0.1245114
1764435595.9146738,0.51884,-0.09156,0.36624,-0.65466141,0.739927305,-0.1245114
1764435595.9146738,0.51884,-0.09156,0.36624,-0.65466141,0.739927305,-0.1245114
1764435595.9146738,0.51884,-0.09156,0.36624,-0.65466141,0.739927305,-0.1245114
1764435595.9146738,0.51884,-0.09156,0.36624,-0.65466141,0.739927305,-0.1245114
1764435595.9146738,0.51884,-0.09156,0.36624,-0.65466141,0.739927305,-0.1245114
1764435595.9146738,0.51884,-0.09156,0.36624,-0.65466141,0.739927305,-0.1245114
1764435595.9146738,0.51884,-0.09156,0.36624,-0.65466141,0.739927305,-0.1245114
1764435595.9146738,0.51884,-0.09156,0.36624,-0.65466141,0.739927305,-0.1245114
1764435595.9146738,0.51884,-0.09156,0.36624,-0.65466141,0.739927305,-0.1245114
1764435595.9146738,-2.27374,1.23606,-0.19838,-0.651914835,0.7434063,-0.123717945
1764435595.9146738,-2.27374,1.23606,-0.19838,-0.651914835,0.7434063,-0.123717945
1764435595.965025,-2.27374,1.23606,-0.19838,-0.651914835,0.7434063,-0.123717945
1764435595.965025,-2.27374,1.23606,-0.19838,-0.651914835,0.7434063,-0.123717945
1764435595.965025,-2.27374,1.23606,-0.19838,-0.651914835,0.7434063,-0.123717945
1764435595.965025,-2.27374,1.23606,-0.19838,-0.651914835,0.7434063,-0.123717945
1764435595.965025,-2.27374,1.23606,-0.19838,-0.651914835,0.7434063,-0.123717945
1764435595.965025,-2.27374,1.23606,-0.19838,-0.651914835,0.7434063,-0.123717945
1764435595.965025,-2.27374,1.23606,-0.19838,-0.651914835,0.7434063,-0.123717945
1764435595.965025,-2.27374,1.23606,-0.19838,-0.651914835,0.7434063,-0.123717945
1764435595.965025,-4.440659999999999,2.4416,-0.48832,-0.65136552,0.745542525,-0.123962085
1764435595.965025,-4.440659999999999,2.4416,-0.48832,-0.65136552,0.745542525,-0.123962085
1764435595.965025,-4.440659999999999,2.4416,-0.48832,-0.65136552,0.745542525,-0.123962085
1764435595.965025,-4.440659999999999,2.4416,-0.48832,-0.65136552,0.745542525,-0.123962085
1764435595.965025,-4.440659999999999,2.4416,-0.48832,-0.65136552,0.745542525,-0.123962085
1764435595.965025,-4.440659999999999,2.4416,-0.48832,-0.65136552,0.745542525,-0.123962085
1764435595.965025,-4.440659999999999,2.4416,-0.48832,-0.65136552,0.745542525,-0.123962085
1764435595.965025,-4.440659999999999,2.4416,-0.48832,-0.65136552,0.745542525,-0.123962085
1764435595.965025,-4.440659999999999,2.4416,-0.48832,-0.65136552,0.745542525,-0.123962085
1764435595.966019,-4.440659999999999,2.4416,-0.48832,-0.65136552,0.745542525,-0.123962085
1764435595.966019,-6.57706,3.54032,-0.65618,-0.651182415,0.7434673350000001,-0.12426726
1764435595.966019,-6.57706,3.54032,-0.65618,-0.651182415,0.7434673350000001,-0.12426726
1764435595.966019,-6.57706,3.54032,-0.65618,-0.651182415,0.7434673350000001,-0.12426726
1764435595.966019,-6.57706,3.54032,-0.65618,-0.651182415,0.7434673350000001,-0.12426726
1764435595.966019,-6.57706,3.54032,-0.65618,-0.651182415,0.7434673350000001,-0.12426726
1764435595.966019,-6.57706,3.54032,-0.65618,-0.651182415,0.7434673350000001,-0.12426726
1764435596.009881,-6.57706,3.54032,-0.65618,-0.651182415,0.7434673350000001,-0.12426726
1764435596.009881,-6.57706,3.54032,-0.65618,-0.651182415,0.7434673350000001,-0.12426726
1764435596.009881,-6.57706,3.54032,-0.65618,-0.651182415,0.7434673350000001,-0.12426726
1764435596.0104153,-6.57706,3.54032,-0.65618,-0.651182415,0.7434673350000001,-0.12426726
1764435596.0104153,-7.00434,3.9676,-0.9156,-0.65234208,0.739194885,-0.12475554
1764435596.0104153,-7.00434,3.9676,-0.9156,-0.65234208,0.739194885,-0.12475554
1764435596.0104153,-7.00434,3.9676,-0.9156,-0.65234208,0.739194885,-0.12475554
1764435596.0104153,-7.00434,3.9676,-0.9156,-0.65234208,0.739194885,-0.12475554
1764435596.0104153,-7.00434,3.9676,-0.9156,-0.65234208,0.739194885,-0.12475554
1764435596.0104153,-7.00434,3.9676,-0.9156,-0.65234208,0.739194885,-0.12475554
1764435596.0104153,-7.00434,3.9676,-0.9156,-0.65234208,0.739194885,-0.12475554
1764435596.0104153,-7.00434,3.9676,-0.9156,-0.65234208,0.739194885,-0.12475554
1764435596.0104153,-7.00434,3.9676,-0.9156,-0.65234208,0.739194885,-0.12475554
1764435596.0104153,-7.00434,3.9676,-0.9156,-0.65234208,0.739194885,-0.12475554
1764435596.0104153,-6.42446,3.72344,-0.77826,-0.65319657,0.735166575,-0.126403485
1764435596.0104153,-6.42446,3.72344,-0.77826,-0.65319657,0.735166575,-0.126403485
1764435596.0104153,-6.42446,3.72344,-0.77826,-0.65319657,0.735166575,-0.126403485
1764435596.0104153,-6.42446,3.72344,-0.77826,-0.65319657,0.735166575,-0.126403485
1764435596.0104153,-6.42446,3.72344,-0.77826,-0.65319657,0.735166575,-0.126403485
1764435596.0104153,-6.42446,3.72344,-0.77826,-0.65319657,0.735166575,-0.126403485
1764435596.0104153,-6.42446,3.72344,-0.77826,-0.65319657,0.735166575,-0.126403485
1764435596.0104153,-6.42446,3.72344,-0.77826,-0.65319657,0.735166575,-0.126403485
1764435596.053342,-6.42446,3.72344,-0.77826,-0.65319657,0.735166575,-0.126403485
1764435596.053342,-6.42446,3.72344,-0.77826,-0.65319657,0.735166575,-0.126403485
1764435596.053342,-5.63094,3.29616,-0.88508,-0.65356278,0.731382405,-0.12731901
1764435596.053342,-5.63094,3.29616,-0.88508,-0.65356278,0.731382405,-0.12731901
1764435596.053342,-5.63094,3.29616,-0.88508,-0.65356278,0.731382405,-0.12731901
1764435596.053342,-5.63094,3.29616,-0.88508,-0.65356278,0.731382405,-0.12731901
1764435596.053342,-5.63094,3.29616,-0.88508,-0.65356278,0.731382405,-0.12731901
1764435596.053342,-5.63094,3.29616,-0.88508,-0.65356278,0.731382405,-0.12731901
1764435596.053342,-5.63094,3.29616,-0.88508,-0.65356278,0.731382405,-0.12731901
1764435596.0548763,-5.63094,3.29616,-0.88508,-0.65356278,0.731382405,-0.12731901
1764435596.0548763,-5.63094,3.29616,-0.88508,-0.65356278,0.731382405,-0.12731901
1764435596.0548763,-5.63094,3.29616,-0.88508,-0.65356278,0.731382405,-0.12731901
1764435596.0548763,-5.60042,2.70102,-0.97664,-0.6542952,0.727476165,-0.12890592
1764435596.0548763,-5.60042,2.70102,-0.97664,-0.6542952,0.727476165,-0.12890592
1764435596.0548763,-5.60042,2.70102,-0.97664,-0.6542952,0.727476165,-0.12890592
1764435596.0548763,-5.60042,2.70102,-0.97664,-0.6542952,0.727476165,-0.12890592
1764435596.0548763,-5.60042,2.70102,-0.97664,-0.6542952,0.727476165,-0.12890592
1764435596.0548763,-5.60042,2.70102,-0.97664,-0.6542952,0.727476165,-0.12890592
1764435596.0548763,-5.60042,2.70102,-0.97664,-0.6542952,0.727476165,-0.12890592
1764435596.055892,-5.60042,2.70102,-0.97664,-0.6542952,0.727476165,-0.12890592
1764435596.055892,-5.60042,2.70102,-0.97664,-0.6542952,0.727476165,-0.12890592
1764435596.055892,-5.60042,2.70102,-0.97664,-0.6542952,0.727476165,-0.12890592
1764435596.055892,-4.18124,3.00622,-0.48832,-0.654600375,0.72472959,-0.131042145
1764435596.055892,-4.18124,3.00622,-0.48832,-0.654600375,0.72472959,-0.131042145
1764435596.1033683,-4.18124,3.00622,-0.48832,-0.654600375,0.72472959,-0.131042145
1764435596.1033683,-4.18124,3.00622,-0.48832,-0.654600375,0.72472959,-0.131042145
1764435596.1033683,-4.18124,3.00622,-0.48832,-0.654600375,0.72472959,-0.131042145
1764435596.104385,-4.18124,3.00622,-0.48832,-0.654600375,0.72472959,-0.131042145
1764435596.104385,-4.18124,3.00622,-0.48832,-0.654600375,0.72472959,-0.131042145
1764435596.104385,-4.18124,3.00622,-0.48832,-0.654600375,0.72472959,-0.131042145
1764435596.104385,-4.18124,3.00622,-0.48832,-0.654600375,0.72472959,-0.131042145
1764435596.104385,-4.18124,3.00622,-0.48832,-0.654600375,0.72472959,-0.131042145
1764435596.104385,-4.0439,2.91466,0.65618,-0.657285915,0.723936135,-0.134338035
1764435596.104385,-4.0439,2.91466,0.65618,-0.657285915,0.723936135,-0.134338035
1764435596.1053824,-4.0439,2.91466,0.65618,-0.657285915,0.723936135,-0.134338035
1764435596.1053824,-4.0439,2.91466,0.65618,-0.657285915,0.723936135,-0.134338035
1764435596.1053824,-4.0439,2.91466,0.65618,-0.657285915,0.723936135,-0.134338035
1764435596.1053824,-4.0439,2.91466,0.65618,-0.657285915,0.723936135,-0.134338035
1764435596.1053824,-4.0439,2.91466,0.65618,-0.657285915,0.723936135,-0.134338035
1764435596.1053824,-4.0439,2.91466,0.65618,-0.657285915,0.723936135,-0.134338035
1764435596.1053824,-4.0439,2.91466,0.65618,-0.657285915,0.723936135,-0.134338035
1764435596.1053824,-4.0439,2.91466,0.65618,-0.657285915,0.723936135,-0.134338035
1764435596.1053824,-3.37246,0.24416,1.6786,-0.66296217,0.725523045,-0.13403286
1764435596.1053824,-3.37246,0.24416,1.6786,-0.66296217,0.725523045,-0.13403286
1764435596.105892,-3.37246,0.24416,1.6786,-0.66296217,0.725523045,-0.13403286
1764435596.105892,-3.37246,0.24416,1.6786,-0.66296217,0.725523045,-0.13403286
1764435596.105892,-3.37246,0.24416,1.6786,-0.66296217,0.725523045,-0.13403286
1764435596.105892,-3.37246,0.24416,1.6786,-0.66296217,0.725523045,-0.13403286
1764435596.150799,-3.37246,0.24416,1.6786,-0.66296217,0.725523045,-0.13403286
1764435596.150799,-3.37246,0.24416,1.6786,-0.66296217,0.725523045,-0.13403286
1764435596.150799,-3.37246,0.24416,1.6786,-0.66296217,0.725523045,-0.13403286
1764435596.150799,-3.37246,0.24416,1.6786,-0.66296217,0.725523045,-0.13403286
1764435596.150799,-2.30426,-1.4497,2.19744,-0.665830815,0.72570615,-0.132018705
1764435596.150799,-2.30426,-1.4497,2.19744,-0.665830815,0.72570615,-0.132018705
1764435596.150799,-2.30426,-1.4497,2.19744,-0.665830815,0.72570615,-0.132018705
1764435596.150799,-2.30426,-1.4497,2.19744,-0.665830815,0.72570615,-0.132018705
1764435596.150799,-2.30426,-1.4497,2.19744,-0.665830815,0.72570615,-0.132018705
1764435596.150799,-2.30426,-1.4497,2.19744,-0.665830815,0.72570615,-0.132018705
1764435596.150799,-2.30426,-1.4497,2.19744,-0.665830815,0.72570615,-0.132018705
1764435596.150799,-2.30426,-1.4497,2.19744,-0.665830815,0.72570615,-0.132018705
1764435596.150799,-2.30426,-1.4497,2.19744,-0.665830815,0.72570615,-0.132018705
1764435596.150799,-2.30426,-1.4497,2.19744,-0.665830815,0.72570615,-0.132018705
1764435596.150799,-1.00716,-1.69386,2.2127,-0.663389415,0.72485166,-0.13098111
1764435596.150799,-1.00716,-1.69386,2.2127,-0.663389415,0.72485166,-0.13098111
1764435596.150799,-1.00716,-1.69386,2.2127,-0.663389415,0.72485166,-0.13098111
1764435596.150799,-1.00716,-1.69386,2.2127,-0.663389415,0.72485166,-0.13098111
1764435596.150799,-1.00716,-1.69386,2.2127,-0.663389415,0.72485166,-0.13098111
1764435596.150799,-1.00716,-1.69386,2.2127,-0.663389415,0.72485166,-0.13098111
1764435596.150799,-1.00716,-1.69386,2.2127,-0.663389415,0.72485166,-0.13098111
1764435596.150799,-1.00716,-1.69386,2.2127,-0.663389415,0.72485166,-0.13098111
1764435596.150799,-1.00716,-1.69386,2.2127,-0.663389415,0.72485166,-0.13098111
1764435596.150799,-1.00716,-1.69386,2.2127,-0.663389415,0.72485166,-0.13098111
1764435596.1952436,0.12208,-0.6103999999999999,1.95328,-0.658628685,0.726133395,-0.129577305
1764435596.1952436,0.12208,-0.6103999999999999,1.95328,-0.658628685,0.726133395,-0.129577305
1764435596.1952436,0.12208,-0.6103999999999999,1.95328,-0.658628685,0.726133395,-0.129577305
1764435596.1952436,0.12208,-0.6103999999999999,1.95328,-0.658628685,0.726133395,-0.129577305
1764435596.1952436,0.12208,-0.6103999999999999,1.95328,-0.658628685,0.726133395,-0.129577305
1764435596.1952436,0.12208,-0.6103999999999999,1.95328,-0.658628685,0.726133395,-0.129577305
1764435596.1962633,0.12208,-0.6103999999999999,1.95328,-0.658628685,0.726133395,-0.129577305
1764435596.1962633,0.12208,-0.6103999999999999,1.95328,-0.658628685,0.726133395,-0.129577305
1764435596.1962633,0.12208,-0.6103999999999999,1.95328,-0.658628685,0.726133395,-0.129577305
1764435596.1962633,0.12208,-0.6103999999999999,1.95328,-0.658628685,0.726133395,-0.129577305
1764435596.1962633,-0.3815,-0.04578,1.49548,-0.65441727,0.731138265,-0.12902799
1764435596.1962633,-0.3815,-0.04578,1.49548,-0.65441727,0.731138265,-0.12902799
1764435596.1962633,-0.3815,-0.04578,1.49548,-0.65441727,0.731138265,-0.12902799
1764435596.1962633,-0.3815,-0.04578,1.49548,-0.65441727,0.731138265,-0.12902799
1764435596.1962633,-0.3815,-0.04578,1.49548,-0.65441727,0.731138265,-0.12902799
1764435596.1962633,-0.3815,-0.04578,1.49548,-0.65441727,0.731138265,-0.12902799
1764435596.1962633,-0.3815,-0.04578,1.49548,-0.65441727,0.731138265,-0.12902799
1764435596.1962633,-0.3815,-0.04578,1.49548,-0.65441727,0.731138265,-0.12902799
1764435596.1962633,-0.3815,-0.04578,1.49548,-0.65441727,0.731138265,-0.12902799
1764435596.1962633,-0.3815,-0.04578,1.49548,-0.65441727,0.731138265,-0.12902799
1764435596.1962633,-3.052,0.48832,1.03768,-0.652891395,0.737363835,-0.127746255
1764435596.1962633,-3.052,0.48832,1.03768,-0.652891395,0.737363835,-0.127746255
1764435596.240064,-3.052,0.48832,1.03768,-0.652891395,0.737363835,-0.127746255
1764435596.240064,-3.052,0.48832,1.03768,-0.652891395,0.737363835,-0.127746255
1764435596.240064,-3.052,0.48832,1.03768,-0.652891395,0.737363835,-0.127746255
1764435596.240064,-3.052,0.48832,1.03768,-0.652891395,0.737363835,-0.127746255
1764435596.240064,-3.052,0.48832,1.03768,-0.652891395,0.737363835,-0.127746255
1764435596.240602,-3.052,0.48832,1.03768,-0.652891395,0.737363835,-0.127746255
1764435596.240602,-3.052,0.48832,1.03768,-0.652891395,0.737363835,-0.127746255
1764435596.240602,-3.052,0.48832,1.03768,-0.652891395,0.737363835,-0.127746255
1764435596.240602,-6.21082,0.85456,0.6409199999999999,-0.6512434500000001,0.74169732,-0.12609831
1764435596.240602,-6.21082,0.85456,0.6409199999999999,-0.6512434500000001,0.74169732,-0.12609831
1764435596.240602,-6.21082,0.85456,0.6409199999999999,-0.6512434500000001,0.74169732,-0.12609831
1764435596.240602,-6.21082,0.85456,0.6409199999999999,-0.6512434500000001,0.74169732,-0.12609831
1764435596.240602,-6.21082,0.85456,0.6409199999999999,-0.6512434500000001,0.74169732,-0.12609831
1764435596.240602,-6.21082,0.85456,0.6409199999999999,-0.6512434500000001,0.74169732,-0.12609831
1764435596.240602,-6.21082,0.85456,0.6409199999999999,-0.6512434500000001,0.74169732,-0.12609831
1764435596.240602,-6.21082,0.85456,0.6409199999999999,-0.6512434500000001,0.74169732,-0.12609831
1764435596.240602,-6.21082,0.85456,0.6409199999999999,-0.6512434500000001,0.74169732,-0.12609831
1764435596.240602,-6.21082,0.85456,0.6409199999999999,-0.6512434500000001,0.74169732,-0.12609831
1764435596.240602,-8.20988,2.10588,0.1678599999999999,-0.650816205,0.7434063,-0.125182785
1764435596.240602,-8.20988,2.10588,0.1678599999999999,-0.650816205,0.7434063,-0.125182785
1764435596.240602,-8.20988,2.10588,0.1678599999999999,-0.650816205,0.7434063,-0.125182785
1764435596.240602,-8.20988,2.10588,0.1678599999999999,-0.650816205,0.7434063,-0.125182785
1764435596.287484,-8.20988,2.10588,0.1678599999999999,-0.650816205,0.7434063,-0.125182785
1764435596.287484,-8.20988,2.10588,0.1678599999999999,-0.650816205,0.7434063,-0.125182785
1764435596.287484,-8.20988,2.10588,0.1678599999999999,-0.650816205,0.7434063,-0.125182785
1764435596.287484,-8.20988,2.10588,0.1678599999999999,-0.650816205,0.7434063,-0.125182785
1764435596.287484,-8.20988,2.10588,0.1678599999999999,-0.650816205,0.7434063,-0.125182785
1764435596.287484,-8.20988,2.10588,0.1678599999999999,-0.650816205,0.7434063,-0.125182785
1764435596.287484,-9.49172,3.21986,0.25942,-0.650816205,0.742856985,-0.125426925
1764435596.287484,-9.49172,3.21986,0.25942,-0.650816205,0.742856985,-0.125426925
1764435596.287484,-9.49172,3.21986,0.25942,-0.650816205,0.742856985,-0.125426925
1764435596.287484,-9.49172,3.21986,0.25942,-0.650816205,0.742856985,-0.125426925
1764435596.287484,-9.49172,3.21986,0.25942,-0.650816205,0.742856985,-0.125426925
1764435596.287484,-9.49172,3.21986,0.25942,-0.650816205,0.742856985,-0.125426925
1764435596.287484,-9.49172,3.21986,0.25942,-0.650816205,0.742856985,-0.125426925
1764435596.287484,-9.49172,3.21986,0.25942,-0.650816205,0.742856985,-0.125426925
1764435596.287484,-9.49172,3.21986,0.25942,-0.650816205,0.742856985,-0.125426925
1764435596.2884989,-9.49172,3.21986,0.25942,-0.650816205,0.742856985,-0.125426925
1764435596.2884989,-9.6138,2.88414,-0.9003399999999999,-0.652403115,0.7392559200000001,-0.127013835
1764435596.2884989,-9.6138,2.88414,-0.9003399999999999,-0.652403115,0.7392559200000001,-0.127013835
1764435596.2884989,-9.6138,2.88414,-0.9003399999999999,-0.652403115,0.7392559200000001,-0.127013835
1764435596.2884989,-9.6138,2.88414,-0.9003399999999999,-0.652403115,0.7392559200000001,-0.127013835
1764435596.2884989,-9.6138,2.88414,-0.9003399999999999,-0.652403115,0.7392559200000001,-0.127013835
1764435596.2884989,-9.6138,2.88414,-0.9003399999999999,-0.652403115,0.7392559200000001,-0.127013835
1764435596.2884989,-9.6138,2.88414,-0.9003399999999999,-0.652403115,0.7392559200000001,-0.127013835
1764435596.2884989,-9.6138,2.88414,-0.9003399999999999,-0.652403115,0.7392559200000001,-0.127013835
1764435596.3311796,-9.6138,2.88414,-0.9003399999999999,-0.652403115,0.7392559200000001,-0.127013835
1764435596.3311796,-9.6138,2.88414,-0.9003399999999999,-0.652403115,0.7392559200000001,-0.127013835
1764435596.3311796,-8.37774,3.92182,-0.62566,-0.65270829,0.73425105,-0.12890592
1764435596.3311796,-8.37774,3.92182,-0.62566,-0.65270829,0.73425105,-0.12890592
1764435596.3311796,-8.37774,3.92182,-0.62566,-0.65270829,0.73425105,-0.12890592
1764435596.3311796,-8.37774,3.92182,-0.62566,-0.65270829,0.73425105,-0.12890592
1764435596.3311796,-8.37774,3.92182,-0.62566,-0.65270829,0.73425105,-0.12890592
1764435596.3311796,-8.37774,3.92182,-0.62566,-0.65270829,0.73425105,-0.12890592
1764435596.3321946,-8.37774,3.92182,-0.62566,-0.65270829,0.73425105,-0.12890592
1764435596.3321946,-8.37774,3.92182,-0.62566,-0.65270829,0.73425105,-0.12890592
1764435596.3321946,-8.37774,3.92182,-0.62566,-0.65270829,0.73425105,-0.12890592
1764435596.3321946,-8.37774,3.92182,-0.62566,-0.65270829,0.73425105,-0.12890592
1764435596.3321946,-7.52318,3.31142,-0.6409199999999999,-0.655088655,0.730772055,-0.129943515
1764435596.3321946,-7.52318,3.31142,-0.6409199999999999,-0.655088655,0.730772055,-0.129943515
1764435596.3321946,-7.52318,3.31142,-0.6409199999999999,-0.655088655,0.730772055,-0.129943515
1764435596.3321946,-7.52318,3.31142,-0.6409199999999999,-0.655088655,0.730772055,-0.129943515
1764435596.3321946,-7.52318,3.31142,-0.6409199999999999,-0.655088655,0.730772055,-0.129943515
1764435596.3321946,-7.52318,3.31142,-0.6409199999999999,-0.655088655,0.730772055,-0.129943515
1764435596.3321946,-7.52318,3.31142,-0.6409199999999999,-0.655088655,0.730772055,-0.129943515
1764435596.3321946,-7.52318,3.31142,-0.6409199999999999,-0.655088655,0.730772055,-0.129943515
1764435596.3321946,-7.52318,3.31142,-0.6409199999999999,-0.655088655,0.730772055,-0.129943515
1764435596.3321946,-7.52318,3.31142,-0.6409199999999999,-0.655088655,0.730772055,-0.129943515
1764435596.3321946,-6.6381,1.86172,0.19838,-0.65832351,0.72973446,-0.1306149
1764435596.3321946,-6.6381,1.86172,0.19838,-0.65832351,0.72973446,-0.1306149
1764435596.3790238,-6.6381,1.86172,0.19838,-0.65832351,0.72973446,-0.1306149
1764435596.3790238,-6.6381,1.86172,0.19838,-0.65832351,0.72973446,-0.1306149
1764435596.3790238,-6.6381,1.86172,0.19838,-0.65832351,0.72973446,-0.1306149
1764435596.3790238,-6.6381,1.86172,0.19838,-0.65832351,0.72973446,-0.1306149
1764435596.3790238,-6.6381,1.86172,0.19838,-0.65832351,0.72973446,-0.1306149
1764435596.3790238,-6.6381,1.86172,0.19838,-0.65832351,0.72973446,-0.1306149
1764435596.3790238,-6.6381,1.86172,0.19838,-0.65832351,0.72973446,-0.1306149
1764435596.3790238,-6.6381,1.86172,0.19838,-0.65832351,0.72973446,-0.1306149
1764435596.3790238,-5.63094,0.3051999999999999,1.08346,-0.66076491,0.72851376,-0.13049283
1764435596.3790238,-5.63094,0.3051999999999999,1.08346,-0.66076491,0.72851376,-0.13049283
1764435596.3790238,-5.63094,0.3051999999999999,1.08346,-0.66076491,0.72851376,-0.13049283
1764435596.3790238,-5.63094,0.3051999999999999,1.08346,-0.66076491,0.72851376,-0.13049283
1764435596.3790238,-5.63094,0.3051999999999999,1.08346,-0.66076491,0.72851376,-0.13049283
1764435596.3790238,-5.63094,0.3051999999999999,1.08346,-0.66076491,0.72851376,-0.13049283
1764435596.3790238,-5.63094,0.3051999999999999,1.08346,-0.66076491,0.72851376,-0.13049283
1764435596.3790238,-5.63094,0.3051999999999999,1.08346,-0.66076491,0.72851376,-0.13049283
1764435596.3790238,-5.63094,0.3051999999999999,1.08346,-0.66076491,0.72851376,-0.13049283
1764435596.3790238,-5.63094,0.3051999999999999,1.08346,-0.66076491,0.72851376,-0.13049283
1764435596.3790238,-5.00528,0.24416,0.9003399999999999,-0.6611921550000001,0.727964445,-0.12951627
1764435596.3790238,-5.00528,0.24416,0.9003399999999999,-0.6611921550000001,0.727964445,-0.12951627
1764435596.3790238,-5.00528,0.24416,0.9003399999999999,-0.6611921550000001,0.727964445,-0.12951627
1764435596.3790238,-5.00528,0.24416,0.9003399999999999,-0.6611921550000001,0.727964445,-0.12951627
1764435596.4267468,-5.00528,0.24416,0.9003399999999999,-0.6611921550000001,0.727964445,-0.12951627
1764435596.4267468,-5.00528,0.24416,0.9003399999999999,-0.6611921550000001,0.727964445,-0.12951627
1764435596.4267468,-5.00528,0.24416,0.9003399999999999,-0.6611921550000001,0.727964445,-0.12951627
1764435596.4272597,-5.00528,0.24416,0.9003399999999999,-0.6611921550000001,0.727964445,-0.12951627
1764435596.4272597,-5.00528,0.24416,0.9003399999999999,-0.6611921550000001,0.727964445,-0.12951627
1764435596.4272597,-5.00528,0.24416,0.9003399999999999,-0.6611921550000001,0.727964445,-0.12951627
1764435596.4272597,-3.95234,-0.03052,1.05294,-0.65991042,0.727354095,-0.128478675
1764435596.4272597,-3.95234,-0.03052,1.05294,-0.65991042,0.727354095,-0.128478675
1764435596.4272597,-3.95234,-0.03052,1.05294,-0.65991042,0.727354095,-0.128478675
1764435596.4272597,-3.95234,-0.03052,1.05294,-0.65991042,0.727354095,-0.128478675
1764435596.4272597,-3.95234,-0.03052,1.05294,-0.65991042,0.727354095,-0.128478675
1764435596.4272597,-3.95234,-0.03052,1.05294,-0.65991042,0.727354095,-0.128478675
1764435596.4272597,-3.95234,-0.03052,1.05294,-0.65991042,0.727354095,-0.128478675
1764435596.4272597,-3.95234,-0.03052,1.05294,-0.65991042,0.727354095,-0.128478675
1764435596.4272597,-3.95234,-0.03052,1.05294,-0.65991042,0.727354095,-0.128478675
1764435596.4272597,-3.95234,-0.03052,1.05294,-0.65991042,0.727354095,-0.128478675
1764435596.4272597,-3.23512,0.04578,1.38866,-0.658262475,0.728696865,-0.128600745
1764435596.4272597,-3.23512,0.04578,1.38866,-0.658262475,0.728696865,-0.128600745
1764435596.4272597,-3.23512,0.04578,1.38866,-0.658262475,0.728696865,-0.128600745
1764435596.4272597,-3.23512,0.04578,1.38866,-0.658262475,0.728696865,-0.128600745
1764435596.4272597,-3.23512,0.04578,1.38866,-0.658262475,0.728696865,-0.128600745
1764435596.4272597,-3.23512,0.04578,1.38866,-0.658262475,0.728696865,-0.128600745
1764435596.4272597,-3.23512,0.04578,1.38866,-0.658262475,0.728696865,-0.128600745
1764435596.4272597,-3.23512,0.04578,1.38866,-0.658262475,0.728696865,-0.128600745
1764435596.470575,-3.23512,0.04578,1.38866,-0.658262475,0.728696865,-0.128600745
1764435596.470575,-3.23512,0.04578,1.38866,-0.658262475,0.728696865,-0.128600745
1764435596.470575,-3.18934,-0.06104,1.72438,-0.656431425,0.731626545,-0.12792936
1764435596.470575,-3.18934,-0.06104,1.72438,-0.656431425,0.731626545,-0.12792936
1764435596.470575,-3.18934,-0.06104,1.72438,-0.656431425,0.731626545,-0.12792936
1764435596.470575,-3.18934,-0.06104,1.72438,-0.656431425,0.731626545,-0.12792936
1764435596.470575,-3.18934,-0.06104,1.72438,-0.656431425,0.731626545,-0.12792936
1764435596.470575,-3.18934,-0.06104,1.72438,-0.656431425,0.731626545,-0.12792936
1764435596.4715908,-3.18934,-0.06104,1.72438,-0.656431425,0.731626545,-0.12792936
1764435596.4715908,-3.18934,-0.06104,1.72438,-0.656431425,0.731626545,-0.12792936
1764435596.4715908,-3.18934,-0.06104,1.72438,-0.656431425,0.731626545,-0.12792936
1764435596.4715908,-3.18934,-0.06104,1.72438,-0.656431425,0.731626545,-0.12792936
1764435596.4715908,-3.63188,-0.3051999999999999,1.54126,-0.655576935,0.735044505,-0.12658659
1764435596.4715908,-3.63188,-0.3051999999999999,1.54126,-0.655576935,0.735044505,-0.12658659
1764435596.4715908,-3.63188,-0.3051999999999999,1.54126,-0.655576935,0.735044505,-0.12658659
1764435596.4715908,-3.63188,-0.3051999999999999,1.54126,-0.655576935,0.735044505,-0.12658659
1764435596.4715908,-3.63188,-0.3051999999999999,1.54126,-0.655576935,0.735044505,-0.12658659
1764435596.4715908,-3.63188,-0.3051999999999999,1.54126,-0.655576935,0.735044505,-0.12658659
1764435596.4715908,-3.63188,-0.3051999999999999,1.54126,-0.655576935,0.735044505,-0.12658659
1764435596.4715908,-3.63188,-0.3051999999999999,1.54126,-0.655576935,0.735044505,-0.12658659
1764435596.4715908,-3.63188,-0.3051999999999999,1.54126,-0.655576935,0.735044505,-0.12658659
1764435596.4715908,-3.63188,-0.3051999999999999,1.54126,-0.655576935,0.735044505,-0.12658659
1764435596.518787,-4.25754,0.28994,1.77016,-0.65514969,0.73779108,-0.12524382
1764435596.5203197,-4.25754,0.28994,1.77016,-0.65514969,0.73779108,-0.12524382
1764435596.5203197,-4.25754,0.28994,1.77016,-0.65514969,0.73779108,-0.12524382
1764435596.5203197,-4.25754,0.28994,1.77016,-0.65514969,0.73779108,-0.12524382
1764435596.5203197,-4.25754,0.28994,1.77016,-0.65514969,0.73779108,-0.12524382
1764435596.5203197,-4.25754,0.28994,1.77016,-0.65514969,0.73779108,-0.12524382
1764435596.5203197,-4.25754,0.28994,1.77016,-0.65514969,0.73779108,-0.12524382
1764435596.5203197,-4.25754,0.28994,1.77016,-0.65514969,0.73779108,-0.12524382
1764435596.5203197,-4.25754,0.28994,1.77016,-0.65514969,0.73779108,-0.12524382
1764435596.5203197,-4.25754,0.28994,1.77016,-0.65514969,0.73779108,-0.12524382
1764435596.5203197,-5.67672,0.9156,1.3734,-0.653990025,0.739316955,-0.124206225
1764435596.5203197,-5.67672,0.9156,1.3734,-0.653990025,0.739316955,-0.124206225
1764435596.5203197,-5.67672,0.9156,1.3734,-0.653990025,0.739316955,-0.124206225
1764435596.5203197,-5.67672,0.9156,1.3734,-0.653990025,0.739316955,-0.124206225
1764435596.5203197,-5.67672,0.9156,1.3734,-0.653990025,0.739316955,-0.124206225
1764435596.5203197,-5.67672,0.9156,1.3734,-0.653990025,0.739316955,-0.124206225
1764435596.5208535,-5.67672,0.9156,1.3734,-0.653990025,0.739316955,-0.124206225
1764435596.5208535,-5.67672,0.9156,1.3734,-0.653990025,0.739316955,-0.124206225
1764435596.5208535,-5.67672,0.9156,1.3734,-0.653990025,0.739316955,-0.124206225
1764435596.5208535,-5.67672,0.9156,1.3734,-0.653990025,0.739316955,-0.124206225
1764435596.5208535,-6.6381,1.72438,1.2055399999999998,-0.653623815,0.740171445,-0.123840015
1764435596.5208535,-6.6381,1.72438,1.2055399999999998,-0.653623815,0.740171445,-0.123840015
1764435596.5208535,-6.6381,1.72438,1.2055399999999998,-0.653623815,0.740171445,-0.123840015
1764435596.5208535,-6.6381,1.72438,1.2055399999999998,-0.653623815,0.740171445,-0.123840015
1764435596.5640588,-6.6381,1.72438,1.2055399999999998,-0.653623815,0.740171445,-0.123840015
1764435596.5640588,-6.6381,1.72438,1.2055399999999998,-0.653623815,0.740171445,-0.123840015
1764435596.5640588,-6.6381,1.72438,1.2055399999999998,-0.653623815,0.740171445,-0.123840015
1764435596.5640588,-6.6381,1.72438,1.2055399999999998,-0.653623815,0.740171445,-0.123840015
1764435596.5640588,-6.6381,1.72438,1.2055399999999998,-0.653623815,0.740171445,-0.123840015
1764435596.5640588,-6.6381,1.72438,1.2055399999999998,-0.653623815,0.740171445,-0.123840015
1764435596.5640588,-6.91278,2.10588,0.6409199999999999,-0.65283036,0.73986627,-0.124938645
1764435596.5640588,-6.91278,2.10588,0.6409199999999999,-0.65283036,0.73986627,-0.124938645
1764435596.5650735,-6.91278,2.10588,0.6409199999999999,-0.65283036,0.73986627,-0.124938645
1764435596.5650735,-6.91278,2.10588,0.6409199999999999,-0.65283036,0.73986627,-0.124938645
1764435596.5650735,-6.91278,2.10588,0.6409199999999999,-0.65283036,0.73986627,-0.124938645
1764435596.5650735,-6.91278,2.10588,0.6409199999999999,-0.65283036,0.73986627,-0.124938645
1764435596.5650735,-6.91278,2.10588,0.6409199999999999,-0.65283036,0.73986627,-0.124938645
1764435596.5650735,-6.91278,2.10588,0.6409199999999999,-0.65283036,0.73986627,-0.124938645
1764435596.5650735,-6.91278,2.10588,0.6409199999999999,-0.65283036,0.73986627,-0.124938645
1764435596.5650735,-6.91278,2.10588,0.6409199999999999,-0.65283036,0.73986627,-0.124938645
1764435596.5650735,-7.233239999999999,1.95328,0.21364,-0.652769325,0.739316955,-0.125426925
1764435596.5650735,-7.233239999999999,1.95328,0.21364,-0.652769325,0.739316955,-0.125426925
1764435596.5650735,-7.233239999999999,1.95328,0.21364,-0.652769325,0.739316955,-0.125426925
1764435596.5650735,-7.233239999999999,1.95328,0.21364,-0.652769325,0.739316955,-0.125426925
1764435596.5650735,-7.233239999999999,1.95328,0.21364,-0.652769325,0.739316955,-0.125426925
1764435596.5650735,-7.233239999999999,1.95328,0.21364,-0.652769325,0.739316955,-0.125426925
1764435596.5670722,-7.233239999999999,1.95328,0.21364,-0.652769325,0.739316955,-0.125426925
1764435596.5670722,-7.233239999999999,1.95328,0.21364,-0.652769325,0.739316955,-0.125426925
1764435596.6122434,-7.233239999999999,1.95328,0.21364,-0.652769325,0.739316955,-0.125426925
1764435596.6122434,-7.233239999999999,1.95328,0.21364,-0.652769325,0.739316955,-0.125426925
1764435596.6122434,-7.477399999999999,2.31952,0.21364,-0.653501745,0.739072815,-0.12646452
1764435596.6122434,-7.477399999999999,2.31952,0.21364,-0.653501745,0.739072815,-0.12646452
1764435596.6122434,-7.477399999999999,2.31952,0.21364,-0.653501745,0.739072815,-0.12646452
1764435596.6122434,-7.477399999999999,2.31952,0.21364,-0.653501745,0.739072815,-0.12646452
1764435596.6127195,-7.477399999999999,2.31952,0.21364,-0.653501745,0.739072815,-0.12646452
1764435596.6127195,-7.477399999999999,2.31952,0.21364,-0.653501745,0.739072815,-0.12646452
1764435596.6127195,-7.477399999999999,2.31952,0.21364,-0.653501745,0.739072815,-0.12646452
1764435596.6127195,-7.477399999999999,2.31952,0.21364,-0.653501745,0.739072815,-0.12646452
1764435596.6127195,-7.477399999999999,2.31952,0.21364,-0.653501745,0.739072815,-0.12646452
1764435596.6127195,-7.477399999999999,2.31952,0.21364,-0.653501745,0.739072815,-0.12646452
1764435596.6127195,-7.614739999999999,2.50264,0.2289,-0.654844515,0.73644831,-0.125793135
1764435596.6127195,-7.614739999999999,2.50264,0.2289,-0.654844515,0.73644831,-0.125793135
1764435596.6127195,-7.614739999999999,2.50264,0.2289,-0.654844515,0.73644831,-0.125793135
1764435596.6127195,-7.614739999999999,2.50264,0.2289,-0.654844515,0.73644831,-0.125793135
1764435596.6127195,-7.614739999999999,2.50264,0.2289,-0.654844515,0.73644831,-0.125793135
1764435596.6127195,-7.614739999999999,2.50264,0.2289,-0.654844515,0.73644831,-0.125793135
1764435596.6127195,-7.614739999999999,2.50264,0.2289,-0.654844515,0.73644831,-0.125793135
1764435596.6127195,-7.614739999999999,2.50264,0.2289,-0.654844515,0.73644831,-0.125793135
1764435596.6570735,-7.614739999999999,2.50264,0.2289,-0.654844515,0.73644831,-0.125793135
1764435596.6570735,-7.614739999999999,2.50264,0.2289,-0.654844515,0.73644831,-0.125793135
1764435596.6570735,-7.79786,2.5179,-0.04578,-0.65661453,0.73425105,-0.12548796
1764435596.6570735,-7.79786,2.5179,-0.04578,-0.65661453,0.73425105,-0.12548796
1764435596.6570735,-7.79786,2.5179,-0.04578,-0.65661453,0.73425105,-0.12548796
1764435596.6570735,-7.79786,2.5179,-0.04578,-0.65661453,0.73425105,-0.12548796
1764435596.6570735,-7.79786,2.5179,-0.04578,-0.65661453,0.73425105,-0.12548796
1764435596.6580873,-7.79786,2.5179,-0.04578,-0.65661453,0.73425105,-0.12548796
1764435596.6580873,-7.79786,2.5179,-0.04578,-0.65661453,0.73425105,-0.12548796
1764435596.6580873,-7.79786,2.5179,-0.04578,-0.65661453,0.73425105,-0.12548796
1764435596.6580873,-7.79786,2.5179,-0.04578,-0.65661453,0.73425105,-0.12548796
1764435596.6580873,-7.79786,2.5179,-0.04578,-0.65661453,0.73425105,-0.12548796
1764435596.6580873,-7.41636,2.35004,0.2289,-0.65759109,0.731626545,-0.125304855
1764435596.6580873,-7.41636,2.35004,0.2289,-0.65759109,0.731626545,-0.125304855
1764435596.6580873,-7.41636,2.35004,0.2289,-0.65759109,0.731626545,-0.125304855
1764435596.6580873,-7.41636,2.35004,0.2289,-0.65759109,0.731626545,-0.125304855
1764435596.6580873,-7.41636,2.35004,0.2289,-0.65759109,0.731626545,-0.125304855
1764435596.6580873,-7.41636,2.35004,0.2289,-0.65759109,0.731626545,-0.125304855
1764435596.6580873,-7.41636,2.35004,0.2289,-0.65759109,0.731626545,-0.125304855
1764435596.6580873,-7.41636,2.35004,0.2289,-0.65759109,0.731626545,-0.125304855
1764435596.6580873,-7.41636,2.35004,0.2289,-0.65759109,0.731626545,-0.125304855
1764435596.6580873,-7.41636,2.35004,0.2289,-0.65759109,0.731626545,-0.125304855
1764435596.6601331,-5.78354,2.18218,0.48832,-0.65893386,0.730161705,-0.125793135
1764435596.6611474,-5.78354,2.18218,0.48832,-0.65893386,0.730161705,-0.125793135
1764435596.6611474,-5.78354,2.18218,0.48832,-0.65893386,0.730161705,-0.125793135
1764435596.6611474,-5.78354,2.18218,0.48832,-0.65893386,0.730161705,-0.125793135
1764435596.7044642,-5.78354,2.18218,0.48832,-0.65893386,0.730161705,-0.125793135
1764435596.7044642,-5.78354,2.18218,0.48832,-0.65893386,0.730161705,-0.125793135
1764435596.7044642,-5.78354,2.18218,0.48832,-0.65893386,0.730161705,-0.125793135
1764435596.7044642,-5.78354,2.18218,0.48832,-0.65893386,0.730161705,-0.125793135
1764435596.7044642,-5.78354,2.18218,0.48832,-0.65893386,0.730161705,-0.125793135
1764435596.7044642,-5.78354,2.18218,0.48832,-0.65893386,0.730161705,-0.125793135
1764435596.7044642,-5.2647,0.4578,0.88508,-0.65966628,0.72936825,-0.12585417
1764435596.7044642,-5.2647,0.4578,0.88508,-0.65966628,0.72936825,-0.12585417
1764435596.7044642,-5.2647,0.4578,0.88508,-0.65966628,0.72936825,-0.12585417
1764435596.7044642,-5.2647,0.4578,0.88508,-0.65966628,0.72936825,-0.12585417
1764435596.7044642,-5.2647,0.4578,0.88508,-0.65966628,0.72936825,-0.12585417
1764435596.7044642,-5.2647,0.4578,0.88508,-0.65966628,0.72936825,-0.12585417
1764435596.7044642,-5.2647,0.4578,0.88508,-0.65966628,0.72936825,-0.12585417
1764435596.7044642,-5.2647,0.4578,0.88508,-0.65966628,0.72936825,-0.12585417
1764435596.7044642,-5.2647,0.4578,0.88508,-0.65966628,0.72936825,-0.12585417
1764435596.7044642,-5.2647,0.4578,0.88508,-0.65966628,0.72936825,-0.12585417
1764435596.7044642,-3.61662,-0.12208,1.23606,-0.65734695,0.730405845,-0.125060715
1764435596.7044642,-3.61662,-0.12208,1.23606,-0.65734695,0.730405845,-0.125060715
1764435596.7044642,-3.61662,-0.12208,1.23606,-0.65734695,0.730405845,-0.125060715
1764435596.7044642,-3.61662,-0.12208,1.23606,-0.65734695,0.730405845,-0.125060715
1764435596.707243,-3.61662,-0.12208,1.23606,-0.65734695,0.730405845,-0.125060715
1764435596.707243,-3.61662,-0.12208,1.23606,-0.65734695,0.730405845,-0.125060715
1764435596.75361,-3.61662,-0.12208,1.23606,-0.65734695,0.730405845,-0.125060715
1764435596.75361,-3.61662,-0.12208,1.23606,-0.65734695,0.730405845,-0.125060715
1764435596.75361,-3.61662,-0.12208,1.23606,-0.65734695,0.730405845,-0.125060715
1764435596.75361,-3.61662,-0.12208,1.23606,-0.65734695,0.730405845,-0.125060715
1764435596.75361,-3.5861,0.06104,1.28184,-0.654600375,0.731748615,-0.124084155
1764435596.75361,-3.5861,0.06104,1.28184,-0.654600375,0.731748615,-0.124084155
1764435596.75361,-3.5861,0.06104,1.28184,-0.654600375,0.731748615,-0.124084155
1764435596.75361,-3.5861,0.06104,1.28184,-0.654600375,0.731748615,-0.124084155
1764435596.75361,-3.5861,0.06104,1.28184,-0.654600375,0.731748615,-0.124084155
1764435596.75361,-3.5861,0.06104,1.28184,-0.654600375,0.731748615,-0.124084155
1764435596.75361,-3.5861,0.06104,1.28184,-0.654600375,0.731748615,-0.124084155
1764435596.75361,-3.5861,0.06104,1.28184,-0.654600375,0.731748615,-0.124084155
1764435596.75361,-3.5861,0.06104,1.28184,-0.654600375,0.731748615,-0.124084155
1764435596.75361,-3.5861,0.06104,1.28184,-0.654600375,0.731748615,-0.124084155
1764435596.75361,-3.25038,1.15976,1.51074,-0.651792765,0.73412898,-0.124694505
1764435596.7546265,-3.25038,1.15976,1.51074,-0.651792765,0.73412898,-0.124694505
1764435596.7546265,-3.25038,1.15976,1.51074,-0.651792765,0.73412898,-0.124694505
1764435596.7546265,-3.25038,1.15976,1.51074,-0.651792765,0.73412898,-0.124694505
1764435596.7546265,-3.25038,1.15976,1.51074,-0.651792765,0.73412898,-0.124694505
1764435596.7546265,-3.25038,1.15976,1.51074,-0.651792765,0.73412898,-0.124694505
1764435596.7546265,-3.25038,1.15976,1.51074,-0.651792765,0.73412898,-0.124694505
1764435596.7546265,-3.25038,1.15976,1.51074,-0.651792765,0.73412898,-0.124694505
1764435596.7546265,-3.25038,1.15976,1.51074,-0.651792765,0.73412898,-0.124694505
1764435596.7546265,-3.25038,1.15976,1.51074,-0.651792765,0.73412898,-0.124694505
1764435596.797844,-4.4254,0.54936,1.28184,-0.65270829,0.738950745,-0.124938645
1764435596.797844,-4.4254,0.54936,1.28184,-0.65270829,0.738950745,-0.124938645
1764435596.797844,-4.4254,0.54936,1.28184,-0.65270829,0.738950745,-0.124938645
1764435596.797844,-4.4254,0.54936,1.28184,-0.65270829,0.738950745,-0.124938645
1764435596.797844,-4.4254,0.54936,1.28184,-0.65270829,0.738950745,-0.124938645
1764435596.797844,-4.4254,0.54936,1.28184,-0.65270829,0.738950745,-0.124938645
1764435596.797844,-4.4254,0.54936,1.28184,-0.65270829,0.738950745,-0.124938645
1764435596.797844,-4.4254,0.54936,1.28184,-0.65270829,0.738950745,-0.124938645
1764435596.797844,-4.4254,0.54936,1.28184,-0.65270829,0.738950745,-0.124938645
1764435596.797844,-4.4254,0.54936,1.28184,-0.65270829,0.738950745,-0.124938645
1764435596.797844,-6.05822,-0.12208,0.9919,-0.654600375,0.742490775,-0.12353484
1764435596.797844,-6.05822,-0.12208,0.9919,-0.654600375,0.742490775,-0.12353484
1764435596.797844,-6.05822,-0.12208,0.9919,-0.654600375,0.742490775,-0.12353484
1764435596.797844,-6.05822,-0.12208,0.9919,-0.654600375,0.742490775,-0.12353484
1764435596.797844,-6.05822,-0.12208,0.9919,-0.654600375,0.742490775,-0.12353484
1764435596.797844,-6.05822,-0.12208,0.9919,-0.654600375,0.742490775,-0.12353484
1764435596.797844,-6.05822,-0.12208,0.9919,-0.654600375,0.742490775,-0.12353484
1764435596.797844,-6.05822,-0.12208,0.9919,-0.654600375,0.742490775,-0.12353484
1764435596.8004036,-6.05822,-0.12208,0.9919,-0.654600375,0.742490775,-0.12353484
1764435596.8004036,-6.05822,-0.12208,0.9919,-0.654600375,0.742490775,-0.12353484
1764435596.8004036,-7.782599999999999,0.79352,0.7019599999999999,-0.65539383,0.742979055,-0.12170379
1764435596.8004036,-7.782599999999999,0.79352,0.7019599999999999,-0.65539383,0.742979055,-0.12170379
1764435596.801399,-7.782599999999999,0.79352,0.7019599999999999,-0.65539383,0.742979055,-0.12170379
1764435596.801399,-7.782599999999999,0.79352,0.7019599999999999,-0.65539383,0.742979055,-0.12170379
1764435596.849388,-7.782599999999999,0.79352,0.7019599999999999,-0.65539383,0.742979055,-0.12170379
1764435596.849388,-7.782599999999999,0.79352,0.7019599999999999,-0.65539383,0.742979055,-0.12170379
1764435596.849388,-7.782599999999999,0.79352,0.7019599999999999,-0.65539383,0.742979055,-0.12170379
1764435596.8503892,-7.782599999999999,0.79352,0.7019599999999999,-0.65539383,0.742979055,-0.12170379
1764435596.8503892,-7.782599999999999,0.79352,0.7019599999999999,-0.65539383,0.742979055,-0.12170379
1764435596.8507574,-7.782599999999999,0.79352,0.7019599999999999,-0.65539383,0.742979055,-0.12170379
1764435596.8507574,-7.52318,1.26658,0.27468,-0.6542952,0.740415585,-0.12121551
1764435596.8507574,-7.52318,1.26658,0.27468,-0.6542952,0.740415585,-0.12121551
1764435596.8507574,-7.52318,1.26658,0.27468,-0.6542952,0.740415585,-0.12121551
1764435596.8507574,-7.52318,1.26658,0.27468,-0.6542952,0.740415585,-0.12121551
1764435596.8507574,-7.52318,1.26658,0.27468,-0.6542952,0.740415585,-0.12121551
1764435596.8507574,-7.52318,1.26658,0.27468,-0.6542952,0.740415585,-0.12121551
1764435596.8507574,-7.52318,1.26658,0.27468,-0.6542952,0.740415585,-0.12121551
1764435596.8507574,-7.52318,1.26658,0.27468,-0.6542952,0.740415585,-0.12121551
1764435596.8507574,-7.52318,1.26658,0.27468,-0.6542952,0.740415585,-0.12121551
1764435596.8507574,-7.52318,1.26658,0.27468,-0.6542952,0.740415585,-0.12121551
1764435596.8507574,-6.77544,2.7468,0.06104,-0.6530745,0.737363835,-0.120544125
1764435596.8507574,-6.77544,2.7468,0.06104,-0.6530745,0.737363835,-0.120544125
1764435596.8507574,-6.77544,2.7468,0.06104,-0.6530745,0.737363835,-0.120544125
1764435596.8507574,-6.77544,2.7468,0.06104,-0.6530745,0.737363835,-0.120544125
1764435596.851384,-6.77544,2.7468,0.06104,-0.6530745,0.737363835,-0.120544125
1764435596.851384,-6.77544,2.7468,0.06104,-0.6530745,0.737363835,-0.120544125
1764435596.851384,-6.77544,2.7468,0.06104,-0.6530745,0.737363835,-0.120544125
1764435596.851384,-6.77544,2.7468,0.06104,-0.6530745,0.737363835,-0.120544125
1764435596.8913436,-6.77544,2.7468,0.06104,-0.6530745,0.737363835,-0.120544125
1764435596.8913436,-6.77544,2.7468,0.06104,-0.6530745,0.737363835,-0.120544125
1764435596.8913436,-6.653359999999999,2.68576,0.06104,-0.653135535,0.735776925,-0.12097137
1764435596.8913436,-6.653359999999999,2.68576,0.06104,-0.653135535,0.735776925,-0.12097137
1764435596.8913436,-6.653359999999999,2.68576,0.06104,-0.653135535,0.735776925,-0.12097137
1764435596.8913436,-6.653359999999999,2.68576,0.06104,-0.653135535,0.735776925,-0.12097137
1764435596.8913436,-6.653359999999999,2.68576,0.06104,-0.653135535,0.735776925,-0.12097137
1764435596.8913436,-6.653359999999999,2.68576,0.06104,-0.653135535,0.735776925,-0.12097137
1764435596.8913436,-6.653359999999999,2.68576,0.06104,-0.653135535,0.735776925,-0.12097137
1764435596.8930914,-6.653359999999999,2.68576,0.06104,-0.653135535,0.735776925,-0.12097137
1764435596.8930914,-6.653359999999999,2.68576,0.06104,-0.653135535,0.735776925,-0.12097137
1764435596.8930914,-6.653359999999999,2.68576,0.06104,-0.653135535,0.735776925,-0.12097137
1764435596.8930914,-6.4855,2.12114,-0.10682,-0.65344071,0.7351055400000001,-0.121276545
1764435596.8930914,-6.4855,2.12114,-0.10682,-0.65344071,0.7351055400000001,-0.121276545
1764435596.8951054,-6.4855,2.12114,-0.10682,-0.65344071,0.7351055400000001,-0.121276545
1764435596.8951054,-6.4855,2.12114,-0.10682,-0.65344071,0.7351055400000001,-0.121276545
1764435596.8951054,-6.4855,2.12114,-0.10682,-0.65344071,0.7351055400000001,-0.121276545
1764435596.8951054,-6.4855,2.12114,-0.10682,-0.65344071,0.7351055400000001,-0.121276545
1764435596.8951054,-6.4855,2.12114,-0.10682,-0.65344071,0.7351055400000001,-0.121276545
1764435596.8951054,-6.4855,2.12114,-0.10682,-0.65344071,0.7351055400000001,-0.121276545
1764435596.8951054,-6.4855,2.12114,-0.10682,-0.65344071,0.7351055400000001,-0.121276545
1764435596.8951054,-6.4855,2.12114,-0.10682,-0.65344071,0.7351055400000001,-0.121276545
1764435596.9377098,-7.065379999999999,1.8006799999999998,-0.04578,-0.654234165,0.7351055400000001,-0.121520685
1764435596.938241,-7.065379999999999,1.8006799999999998,-0.04578,-0.654234165,0.7351055400000001,-0.121520685
1764435596.938241,-7.065379999999999,1.8006799999999998,-0.04578,-0.654234165,0.7351055400000001,-0.121520685
1764435596.938241,-7.065379999999999,1.8006799999999998,-0.04578,-0.654234165,0.7351055400000001,-0.121520685
1764435596.938241,-7.065379999999999,1.8006799999999998,-0.04578,-0.654234165,0.7351055400000001,-0.121520685
1764435596.938241,-7.065379999999999,1.8006799999999998,-0.04578,-0.654234165,0.7351055400000001,-0.121520685
1764435596.938241,-7.065379999999999,1.8006799999999998,-0.04578,-0.654234165,0.7351055400000001,-0.121520685
1764435596.938241,-7.065379999999999,1.8006799999999998,-0.04578,-0.654234165,0.7351055400000001,-0.121520685
1764435596.938241,-7.065379999999999,1.8006799999999998,-0.04578,-0.654234165,0.7351055400000001,-0.121520685
1764435596.938241,-7.065379999999999,1.8006799999999998,-0.04578,-0.654234165,0.7351055400000001,-0.121520685
1764435596.938241,-6.43972,1.81594,0.1678599999999999,-0.6549055500000001,0.735166575,-0.12207
1764435596.938241,-6.43972,1.81594,0.1678599999999999,-0.6549055500000001,0.735166575,-0.12207
1764435596.938241,-6.43972,1.81594,0.1678599999999999,-0.6549055500000001,0.735166575,-0.12207
1764435596.938241,-6.43972,1.81594,0.1678599999999999,-0.6549055500000001,0.735166575,-0.12207
1764435596.938241,-6.43972,1.81594,0.1678599999999999,-0.6549055500000001,0.735166575,-0.12207
1764435596.938241,-6.43972,1.81594,0.1678599999999999,-0.6549055500000001,0.735166575,-0.12207
1764435596.938241,-6.43972,1.81594,0.1678599999999999,-0.6549055500000001,0.735166575,-0.12207
1764435596.938241,-6.43972,1.81594,0.1678599999999999,-0.6549055500000001,0.735166575,-0.12207
1764435596.938241,-6.43972,1.81594,0.1678599999999999,-0.6549055500000001,0.735166575,-0.12207
1764435596.938241,-6.43972,1.81594,0.1678599999999999,-0.6549055500000001,0.735166575,-0.12207
1764435596.9403274,-6.271859999999999,2.12114,0.3204599999999999,-0.655210725,0.73388484,-0.12182586
1764435596.9403274,-6.271859999999999,2.12114,0.3204599999999999,-0.655210725,0.73388484,-0.12182586
1764435596.9403274,-6.271859999999999,2.12114,0.3204599999999999,-0.655210725,0.73388484,-0.12182586
1764435596.9403274,-6.271859999999999,2.12114,0.3204599999999999,-0.655210725,0.73388484,-0.12182586
1764435596.985977,-6.271859999999999,2.12114,0.3204599999999999,-0.655210725,0.73388484,-0.12182586
1764435596.985977,-6.271859999999999,2.12114,0.3204599999999999,-0.655210725,0.73388484,-0.12182586
1764435596.985977,-6.271859999999999,2.12114,0.3204599999999999,-0.655210725,0.73388484,-0.12182586
1764435596.985977,-6.271859999999999,2.12114,0.3204599999999999,-0.655210725,0.73388484,-0.12182586
1764435596.985977,-6.271859999999999,2.12114,0.3204599999999999,-0.655210725,0.73388484,-0.12182586
1764435596.985977,-6.271859999999999,2.12114,0.3204599999999999,-0.655210725,0.73388484,-0.12182586
1764435596.985977,-5.371519999999999,1.55652,-0.0762999999999999,-0.656553495,0.732725175,-0.122253105
1764435596.985977,-5.371519999999999,1.55652,-0.0762999999999999,-0.656553495,0.732725175,-0.122253105
1764435596.9874873,-5.371519999999999,1.55652,-0.0762999999999999,-0.656553495,0.732725175,-0.122253105
1764435596.9874873,-5.371519999999999,1.55652,-0.0762999999999999,-0.656553495,0.732725175,-0.122253105
1764435596.9874873,-5.371519999999999,1.55652,-0.0762999999999999,-0.656553495,0.732725175,-0.122253105
1764435596.9874873,-5.371519999999999,1.55652,-0.0762999999999999,-0.656553495,0.732725175,-0.122253105
1764435596.9874873,-5.371519999999999,1.55652,-0.0762999999999999,-0.656553495,0.732725175,-0.122253105
1764435596.9874873,-5.371519999999999,1.55652,-0.0762999999999999,-0.656553495,0.732725175,-0.122253105
1764435596.9885015,-5.371519999999999,1.55652,-0.0762999999999999,-0.656553495,0.732725175,-0.122253105
1764435596.9885015,-5.371519999999999,1.55652,-0.0762999999999999,-0.656553495,0.732725175,-0.122253105
1764435596.9885015,-4.21176,1.93802,0.1525999999999999,-0.65649246,0.731992755,-0.121764825
1764435596.9885015,-4.21176,1.93802,0.1525999999999999,-0.65649246,0.731992755,-0.121764825
1764435596.9885015,-4.21176,1.93802,0.1525999999999999,-0.65649246,0.731992755,-0.121764825
1764435596.9885015,-4.21176,1.93802,0.1525999999999999,-0.65649246,0.731992755,-0.121764825
1764435596.9895062,-4.21176,1.93802,0.1525999999999999,-0.65649246,0.731992755,-0.121764825
1764435596.9895062,-4.21176,1.93802,0.1525999999999999,-0.65649246,0.731992755,-0.121764825
1764435597.0302022,-4.21176,1.93802,0.1525999999999999,-0.65649246,0.731992755,-0.121764825
1764435597.0302022,-4.21176,1.93802,0.1525999999999999,-0.65649246,0.731992755,-0.121764825
1764435597.0302022,-4.21176,1.93802,0.1525999999999999,-0.65649246,0.731992755,-0.121764825
1764435597.0302022,-4.21176,1.93802,0.1525999999999999,-0.65649246,0.731992755,-0.121764825
1764435597.0312166,-3.41824,1.35814,0.09156,-0.656675565,0.732114825,-0.121764825
1764435597.0312166,-3.41824,1.35814,0.09156,-0.656675565,0.732114825,-0.121764825
1764435597.0312166,-3.41824,1.35814,0.09156,-0.656675565,0.732114825,-0.121764825
1764435597.0312166,-3.41824,1.35814,0.09156,-0.656675565,0.732114825,-0.121764825
1764435597.0312166,-3.41824,1.35814,0.09156,-0.656675565,0.732114825,-0.121764825
1764435597.0322344,-3.41824,1.35814,0.09156,-0.656675565,0.732114825,-0.121764825
1764435597.0322344,-3.41824,1.35814,0.09156,-0.656675565,0.732114825,-0.121764825
1764435597.0322344,-3.41824,1.35814,0.09156,-0.656675565,0.732114825,-0.121764825
1764435597.0322344,-3.41824,1.35814,0.09156,-0.656675565,0.732114825,-0.121764825
1764435597.0322344,-3.41824,1.35814,0.09156,-0.656675565,0.732114825,-0.121764825
1764435597.0322344,-3.03674,0.6103999999999999,0.71722,-0.6567366,0.73278621,-0.122008965
1764435597.0322344,-3.03674,0.6103999999999999,0.71722,-0.6567366,0.73278621,-0.122008965
1764435597.0322344,-3.03674,0.6103999999999999,0.71722,-0.6567366,0.73278621,-0.122008965
1764435597.0322344,-3.03674,0.6103999999999999,0.71722,-0.6567366,0.73278621,-0.122008965
1764435597.0322344,-3.03674,0.6103999999999999,0.71722,-0.6567366,0.73278621,-0.122008965
1764435597.0322344,-3.03674,0.6103999999999999,0.71722,-0.6567366,0.73278621,-0.122008965
1764435597.0322344,-3.03674,0.6103999999999999,0.71722,-0.6567366,0.73278621,-0.122008965
1764435597.0322344,-3.03674,0.6103999999999999,0.71722,-0.6567366,0.73278621,-0.122008965
1764435597.0322344,-3.03674,0.6103999999999999,0.71722,-0.6567366,0.73278621,-0.122008965
1764435597.0322344,-3.03674,0.6103999999999999,0.71722,-0.6567366,0.73278621,-0.122008965
1764435597.0794442,-3.64714,-0.06104,0.7019599999999999,-0.65685867,0.734067945,-0.12158172
1764435597.0794442,-3.64714,-0.06104,0.7019599999999999,-0.65685867,0.734067945,-0.12158172
1764435597.0804603,-3.64714,-0.06104,0.7019599999999999,-0.65685867,0.734067945,-0.12158172
1764435597.0804603,-3.64714,-0.06104,0.7019599999999999,-0.65685867,0.734067945,-0.12158172
1764435597.0804603,-3.64714,-0.06104,0.7019599999999999,-0.65685867,0.734067945,-0.12158172
1764435597.0804603,-3.64714,-0.06104,0.7019599999999999,-0.65685867,0.734067945,-0.12158172
1764435597.0804603,-3.64714,-0.06104,0.7019599999999999,-0.65685867,0.734067945,-0.12158172
1764435597.0804603,-3.64714,-0.06104,0.7019599999999999,-0.65685867,0.734067945,-0.12158172
1764435597.0804603,-3.64714,-0.06104,0.7019599999999999,-0.65685867,0.734067945,-0.12158172
1764435597.0804603,-3.64714,-0.06104,0.7019599999999999,-0.65685867,0.734067945,-0.12158172
1764435597.0804603,-3.54032,0.24416,0.77826,-0.65539383,0.735776925,-0.12121551
1764435597.0804603,-3.54032,0.24416,0.77826,-0.65539383,0.735776925,-0.12121551
1764435597.0804603,-3.54032,0.24416,0.77826,-0.65539383,0.735776925,-0.12121551
1764435597.0804603,-3.54032,0.24416,0.77826,-0.65539383,0.735776925,-0.12121551
1764435597.0804603,-3.54032,0.24416,0.77826,-0.65539383,0.735776925,-0.12121551
1764435597.0804603,-3.54032,0.24416,0.77826,-0.65539383,0.735776925,-0.12121551
1764435597.0804603,-3.54032,0.24416,0.77826,-0.65539383,0.735776925,-0.12121551
1764435597.0804603,-3.54032,0.24416,0.77826,-0.65539383,0.735776925,-0.12121551
1764435597.0804603,-3.54032,0.24416,0.77826,-0.65539383,0.735776925,-0.12121551
1764435597.0804603,-3.54032,0.24416,0.77826,-0.65539383,0.735776925,-0.12121551
1764435597.0804603,-4.15072,0.79352,0.73248,-0.65344071,0.736509345,-0.11987274
1764435597.0804603,-4.15072,0.79352,0.73248,-0.65344071,0.736509345,-0.11987274
1764435597.0804603,-4.15072,0.79352,0.73248,-0.65344071,0.736509345,-0.11987274
1764435597.0804603,-4.15072,0.79352,0.73248,-0.65344071,0.736509345,-0.11987274
1764435597.1261508,-4.15072,0.79352,0.73248,-0.65344071,0.736509345,-0.11987274
1764435597.1261508,-4.15072,0.79352,0.73248,-0.65344071,0.736509345,-0.11987274
1764435597.1261508,-4.15072,0.79352,0.73248,-0.65344071,0.736509345,-0.11987274
1764435597.1261508,-4.15072,0.79352,0.73248,-0.65344071,0.736509345,-0.11987274
1764435597.1261508,-4.15072,0.79352,0.73248,-0.65344071,0.736509345,-0.11987274
1764435597.1261508,-4.15072,0.79352,0.73248,-0.65344071,0.736509345,-0.11987274
1764435597.1271455,-4.66956,1.2208,0.3357199999999999,-0.65283036,0.73693659,-0.11926239
1764435597.1271455,-4.66956,1.2208,0.3357199999999999,-0.65283036,0.73693659,-0.11926239
1764435597.1276655,-4.66956,1.2208,0.3357199999999999,-0.65283036,0.73693659,-0.11926239
1764435597.1276655,-4.66956,1.2208,0.3357199999999999,-0.65283036,0.73693659,-0.11926239
1764435597.1276655,-4.66956,1.2208,0.3357199999999999,-0.65283036,0.73693659,-0.11926239
1764435597.1276655,-4.66956,1.2208,0.3357199999999999,-0.65283036,0.73693659,-0.11926239
1764435597.1276655,-4.66956,1.2208,0.3357199999999999,-0.65283036,0.73693659,-0.11926239
1764435597.1307092,-4.66956,1.2208,0.3357199999999999,-0.65283036,0.73693659,-0.11926239
1764435597.1307092,-4.66956,1.2208,0.3357199999999999,-0.65283036,0.73693659,-0.11926239
1764435597.1307092,-4.66956,1.2208,0.3357199999999999,-0.65283036,0.73693659,-0.11926239
1764435597.1307092,-4.79164,1.69386,0.3051999999999999,-0.65295243,0.737852115,-0.11938446
1764435597.1307092,-4.79164,1.69386,0.3051999999999999,-0.65295243,0.737852115,-0.11938446
1764435597.1307092,-4.79164,1.69386,0.3051999999999999,-0.65295243,0.737852115,-0.11938446
1764435597.1307092,-4.79164,1.69386,0.3051999999999999,-0.65295243,0.737852115,-0.11938446
1764435597.1307092,-4.79164,1.69386,0.3051999999999999,-0.65295243,0.737852115,-0.11938446
1764435597.1307092,-4.79164,1.69386,0.3051999999999999,-0.65295243,0.737852115,-0.11938446
1764435597.1312182,-4.79164,1.69386,0.3051999999999999,-0.65295243,0.737852115,-0.11938446
1764435597.1312182,-4.79164,1.69386,0.3051999999999999,-0.65295243,0.737852115,-0.11938446
1764435597.1731114,-4.79164,1.69386,0.3051999999999999,-0.65295243,0.737852115,-0.11938446
1764435597.1731114,-4.79164,1.69386,0.3051999999999999,-0.65295243,0.737852115,-0.11938446
1764435597.1731114,-4.66956,2.38056,0.42728,-0.6522810450000001,0.73803522,-0.12036102
1764435597.1731114,-4.66956,2.38056,0.42728,-0.6522810450000001,0.73803522,-0.12036102
1764435597.1731114,-4.66956,2.38056,0.42728,-0.6522810450000001,0.73803522,-0.12036102
1764435597.1731114,-4.66956,2.38056,0.42728,-0.6522810450000001,0.73803522,-0.12036102
1764435597.1731114,-4.66956,2.38056,0.42728,-0.6522810450000001,0.73803522,-0.12036102
1764435597.1731114,-4.66956,2.38056,0.42728,-0.6522810450000001,0.73803522,-0.12036102
1764435597.1731114,-4.66956,2.38056,0.42728,-0.6522810450000001,0.73803522,-0.12036102
1764435597.1731114,-4.66956,2.38056,0.42728,-0.6522810450000001,0.73803522,-0.12036102
1764435597.1731114,-4.66956,2.38056,0.42728,-0.6522810450000001,0.73803522,-0.12036102
1764435597.1731114,-4.66956,2.38056,0.42728,-0.6522810450000001,0.73803522,-0.12036102
1764435597.1731114,-4.97476,2.31952,0.09156,-0.65270829,0.738584535,-0.120666195
1764435597.1731114,-4.97476,2.31952,0.09156,-0.65270829,0.738584535,-0.120666195
1764435597.1731114,-4.97476,2.31952,0.09156,-0.65270829,0.738584535,-0.120666195
1764435597.1731114,-4.97476,2.31952,0.09156,-0.65270829,0.738584535,-0.120666195
1764435597.1731114,-4.97476,2.31952,0.09156,-0.65270829,0.738584535,-0.120666195
1764435597.1731114,-4.97476,2.31952,0.09156,-0.65270829,0.738584535,-0.120666195
1764435597.1731114,-4.97476,2.31952,0.09156,-0.65270829,0.738584535,-0.120666195
1764435597.1741097,-4.97476,2.31952,0.09156,-0.65270829,0.738584535,-0.120666195
1764435597.1741097,-4.97476,2.31952,0.09156,-0.65270829,0.738584535,-0.120666195
1764435597.1751082,-4.97476,2.31952,0.09156,-0.65270829,0.738584535,-0.120666195
1764435597.2196329,-5.73776,2.27374,0.27468,-0.653379675,0.73815729,-0.11999481
1764435597.2196329,-5.73776,2.27374,0.27468,-0.653379675,0.73815729,-0.11999481
1764435597.2196329,-5.73776,2.27374,0.27468,-0.653379675,0.73815729,-0.11999481
1764435597.2196329,-5.73776,2.27374,0.27468,-0.653379675,0.73815729,-0.11999481
1764435597.2196329,-5.73776,2.27374,0.27468,-0.653379675,0.73815729,-0.11999481
1764435597.2196329,-5.73776,2.27374,0.27468,-0.653379675,0.73815729,-0.11999481
1764435597.2196329,-5.73776,2.27374,0.27468,-0.653379675,0.73815729,-0.11999481
1764435597.2196329,-5.73776,2.27374,0.27468,-0.653379675,0.73815729,-0.11999481
1764435597.2196329,-5.73776,2.27374,0.27468,-0.653379675,0.73815729,-0.11999481
1764435597.2196329,-5.73776,2.27374,0.27468,-0.653379675,0.73815729,-0.11999481
1764435597.2196329,-5.66146,2.6705,-0.0762999999999999,-0.653745885,0.737119695,-0.11999481
1764435597.220649,-5.66146,2.6705,-0.0762999999999999,-0.653745885,0.737119695,-0.11999481
1764435597.220649,-5.66146,2.6705,-0.0762999999999999,-0.653745885,0.737119695,-0.11999481
1764435597.220649,-5.66146,2.6705,-0.0762999999999999,-0.653745885,0.737119695,-0.11999481
1764435597.220649,-5.66146,2.6705,-0.0762999999999999,-0.653745885,0.737119695,-0.11999481
1764435597.220649,-5.66146,2.6705,-0.0762999999999999,-0.653745885,0.737119695,-0.11999481
1764435597.2216456,-5.66146,2.6705,-0.0762999999999999,-0.653745885,0.737119695,-0.11999481
1764435597.2216456,-5.66146,2.6705,-0.0762999999999999,-0.653745885,0.737119695,-0.11999481
1764435597.2216456,-5.66146,2.6705,-0.0762999999999999,-0.653745885,0.737119695,-0.11999481
1764435597.2216456,-5.66146,2.6705,-0.0762999999999999,-0.653745885,0.737119695,-0.11999481
1764435597.2216456,-5.4936,2.3653,-0.10682,-0.65392899,0.7348614,-0.12194793
1764435597.2216456,-5.4936,2.3653,-0.10682,-0.65392899,0.7348614,-0.12194793
1764435597.2638357,-5.4936,2.3653,-0.10682,-0.65392899,0.7348614,-0.12194793
1764435597.2638357,-5.4936,2.3653,-0.10682,-0.65392899,0.7348614,-0.12194793
1764435597.2638357,-5.4936,2.3653,-0.10682,-0.65392899,0.7348614,-0.12194793
1764435597.2638357,-5.4936,2.3653,-0.10682,-0.65392899,0.7348614,-0.12194793
1764435597.2638357,-5.4936,2.3653,-0.10682,-0.65392899,0.7348614,-0.12194793
1764435597.2638357,-5.4936,2.3653,-0.10682,-0.65392899,0.7348614,-0.12194793
1764435597.2638357,-5.4936,2.3653,-0.10682,-0.65392899,0.7348614,-0.12194793
1764435597.2638357,-5.4936,2.3653,-0.10682,-0.65392899,0.7348614,-0.12194793
1764435597.2638357,-4.74586,1.89224,0.1525999999999999,-0.6543562350000001,0.73327449,-0.122497245
1764435597.2638357,-4.74586,1.89224,0.1525999999999999,-0.6543562350000001,0.73327449,-0.122497245
1764435597.2656038,-4.74586,1.89224,0.1525999999999999,-0.6543562350000001,0.73327449,-0.122497245
1764435597.2656038,-4.74586,1.89224,0.1525999999999999,-0.6543562350000001,0.73327449,-0.122497245
1764435597.2656038,-4.74586,1.89224,0.1525999999999999,-0.6543562350000001,0.73327449,-0.122497245
1764435597.2656038,-4.74586,1.89224,0.1525999999999999,-0.6543562350000001,0.73327449,-0.122497245
1764435597.2656038,-4.74586,1.89224,0.1525999999999999,-0.6543562350000001,0.73327449,-0.122497245
1764435597.2656038,-4.74586,1.89224,0.1525999999999999,-0.6543562350000001,0.73327449,-0.122497245
1764435597.2656038,-4.74586,1.89224,0.1525999999999999,-0.6543562350000001,0.73327449,-0.122497245
1764435597.267141,-4.74586,1.89224,0.1525999999999999,-0.6543562350000001,0.73327449,-0.122497245
1764435597.267141,-4.4254,1.0682,0.62566,-0.65514969,0.73266414,-0.12377898
1764435597.267141,-4.4254,1.0682,0.62566,-0.65514969,0.73266414,-0.12377898
1764435597.267141,-4.4254,1.0682,0.62566,-0.65514969,0.73266414,-0.12377898
1764435597.267141,-4.4254,1.0682,0.62566,-0.65514969,0.73266414,-0.12377898
1764435597.268154,-4.4254,1.0682,0.62566,-0.65514969,0.73266414,-0.12377898
1764435597.268154,-4.4254,1.0682,0.62566,-0.65514969,0.73266414,-0.12377898
1764435597.31215,-4.4254,1.0682,0.62566,-0.65514969,0.73266414,-0.12377898
1764435597.31215,-4.4254,1.0682,0.62566,-0.65514969,0.73266414,-0.12377898
1764435597.313166,-4.4254,1.0682,0.62566,-0.65514969,0.73266414,-0.12377898
1764435597.313166,-4.4254,1.0682,0.62566,-0.65514969,0.73266414,-0.12377898
1764435597.313166,-3.40298,0.3815,0.65618,-0.656187285,0.733945875,-0.12377898
1764435597.313166,-3.40298,0.3815,0.65618,-0.656187285,0.733945875,-0.12377898
1764435597.313166,-3.40298,0.3815,0.65618,-0.656187285,0.733945875,-0.12377898
1764435597.313166,-3.40298,0.3815,0.65618,-0.656187285,0.733945875,-0.12377898
1764435597.313166,-3.40298,0.3815,0.65618,-0.656187285,0.733945875,-0.12377898
1764435597.313166,-3.40298,0.3815,0.65618,-0.656187285,0.733945875,-0.12377898
1764435597.313166,-3.40298,0.3815,0.65618,-0.656187285,0.733945875,-0.12377898
1764435597.313166,-3.40298,0.3815,0.65618,-0.656187285,0.733945875,-0.12377898
1764435597.313166,-3.40298,0.3815,0.65618,-0.656187285,0.733945875,-0.12377898
1764435597.313166,-3.40298,0.3815,0.65618,-0.656187285,0.733945875,-0.12377898
1764435597.313166,-3.5861,0.9003399999999999,1.05294,-0.65624832,0.73498347,-0.122131035
1764435597.313166,-3.5861,0.9003399999999999,1.05294,-0.65624832,0.73498347,-0.122131035
1764435597.313166,-3.5861,0.9003399999999999,1.05294,-0.65624832,0.73498347,-0.122131035
1764435597.313166,-3.5861,0.9003399999999999,1.05294,-0.65624832,0.73498347,-0.122131035
1764435597.313166,-3.5861,0.9003399999999999,1.05294,-0.65624832,0.73498347,-0.122131035
1764435597.313166,-3.5861,0.9003399999999999,1.05294,-0.65624832,0.73498347,-0.122131035
1764435597.313166,-3.5861,0.9003399999999999,1.05294,-0.65624832,0.73498347,-0.122131035
1764435597.313166,-3.5861,0.9003399999999999,1.05294,-0.65624832,0.73498347,-0.122131035
1764435597.313166,-3.5861,0.9003399999999999,1.05294,-0.65624832,0.73498347,-0.122131035
1764435597.313166,-3.5861,0.9003399999999999,1.05294,-0.65624832,0.73498347,-0.122131035
1764435597.356374,-3.79974,1.02242,0.1678599999999999,-0.656187285,0.73657038,-0.12060516
1764435597.356374,-3.79974,1.02242,0.1678599999999999,-0.656187285,0.73657038,-0.12060516
1764435597.356374,-3.79974,1.02242,0.1678599999999999,-0.656187285,0.73657038,-0.12060516
1764435597.356374,-3.79974,1.02242,0.1678599999999999,-0.656187285,0.73657038,-0.12060516
1764435597.356374,-3.79974,1.02242,0.1678599999999999,-0.656187285,0.73657038,-0.12060516
1764435597.356374,-3.79974,1.02242,0.1678599999999999,-0.656187285,0.73657038,-0.12060516
1764435597.356374,-3.79974,1.02242,0.1678599999999999,-0.656187285,0.73657038,-0.12060516
1764435597.356374,-3.79974,1.02242,0.1678599999999999,-0.656187285,0.73657038,-0.12060516
1764435597.356374,-3.79974,1.02242,0.1678599999999999,-0.656187285,0.73657038,-0.12060516
1764435597.356374,-3.79974,1.02242,0.1678599999999999,-0.656187285,0.73657038,-0.12060516
1764435597.356374,-4.4254,1.9075,0.1525999999999999,-0.6555159,0.7373028,-0.119933775
1764435597.3573918,-4.4254,1.9075,0.1525999999999999,-0.6555159,0.7373028,-0.119933775
1764435597.3573918,-4.4254,1.9075,0.1525999999999999,-0.6555159,0.7373028,-0.119933775
1764435597.3573918,-4.4254,1.9075,0.1525999999999999,-0.6555159,0.7373028,-0.119933775
1764435597.3573918,-4.4254,1.9075,0.1525999999999999,-0.6555159,0.7373028,-0.119933775
1764435597.3573918,-4.4254,1.9075,0.1525999999999999,-0.6555159,0.7373028,-0.119933775
1764435597.3573918,-4.4254,1.9075,0.1525999999999999,-0.6555159,0.7373028,-0.119933775
1764435597.3573918,-4.4254,1.9075,0.1525999999999999,-0.6555159,0.7373028,-0.119933775
1764435597.3573918,-4.4254,1.9075,0.1525999999999999,-0.6555159,0.7373028,-0.119933775
1764435597.3573918,-4.4254,1.9075,0.1525999999999999,-0.6555159,0.7373028,-0.119933775
1764435597.3573918,-5.02054,2.30426,-0.24416,-0.6543562350000001,0.737241765,-0.120544125
1764435597.3573918,-5.02054,2.30426,-0.24416,-0.6543562350000001,0.737241765,-0.120544125
1764435597.3573918,-5.02054,2.30426,-0.24416,-0.6543562350000001,0.737241765,-0.120544125
1764435597.3579016,-5.02054,2.30426,-0.24416,-0.6543562350000001,0.737241765,-0.120544125
1764435597.404623,-5.02054,2.30426,-0.24416,-0.6543562350000001,0.737241765,-0.120544125
1764435597.404623,-5.02054,2.30426,-0.24416,-0.6543562350000001,0.737241765,-0.120544125
1764435597.404623,-5.02054,2.30426,-0.24416,-0.6543562350000001,0.737241765,-0.120544125
1764435597.404623,-5.02054,2.30426,-0.24416,-0.6543562350000001,0.737241765,-0.120544125
1764435597.404623,-5.02054,2.30426,-0.24416,-0.6543562350000001,0.737241765,-0.120544125
1764435597.404623,-5.02054,2.30426,-0.24416,-0.6543562350000001,0.737241765,-0.120544125
1764435597.404623,-5.05106,2.18218,0.01526,-0.6538679550000001,0.73681452,-0.120299985
1764435597.404623,-5.05106,2.18218,0.01526,-0.6538679550000001,0.73681452,-0.120299985
1764435597.404623,-5.05106,2.18218,0.01526,-0.6538679550000001,0.73681452,-0.120299985
1764435597.404623,-5.05106,2.18218,0.01526,-0.6538679550000001,0.73681452,-0.120299985
1764435597.4061625,-5.05106,2.18218,0.01526,-0.6538679550000001,0.73681452,-0.120299985
1764435597.4061625,-5.05106,2.18218,0.01526,-0.6538679550000001,0.73681452,-0.120299985
1764435597.4061625,-5.05106,2.18218,0.01526,-0.6538679550000001,0.73681452,-0.120299985
1764435597.4061625,-5.05106,2.18218,0.01526,-0.6538679550000001,0.73681452,-0.120299985
1764435597.4061625,-5.05106,2.18218,0.01526,-0.6538679550000001,0.73681452,-0.120299985
1764435597.4061625,-5.05106,2.18218,0.01526,-0.6538679550000001,0.73681452,-0.120299985
1764435597.4061625,-4.79164,1.6022999999999998,0.4578,-0.654234165,0.735410715,-0.12060516
1764435597.4061625,-4.79164,1.6022999999999998,0.4578,-0.654234165,0.735410715,-0.12060516
1764435597.4061625,-4.79164,1.6022999999999998,0.4578,-0.654234165,0.735410715,-0.12060516
1764435597.4061625,-4.79164,1.6022999999999998,0.4578,-0.654234165,0.735410715,-0.12060516
1764435597.4061625,-4.79164,1.6022999999999998,0.4578,-0.654234165,0.735410715,-0.12060516
1764435597.4061625,-4.79164,1.6022999999999998,0.4578,-0.654234165,0.735410715,-0.12060516
1764435597.4528725,-4.79164,1.6022999999999998,0.4578,-0.654234165,0.735410715,-0.12060516
1764435597.4528725,-4.79164,1.6022999999999998,0.4578,-0.654234165,0.735410715,-0.12060516
1764435597.4528725,-4.79164,1.6022999999999998,0.4578,-0.654234165,0.735410715,-0.12060516
1764435597.4528725,-4.79164,1.6022999999999998,0.4578,-0.654234165,0.735410715,-0.12060516
1764435597.4528725,-4.22702,1.38866,0.3051999999999999,-0.653135535,0.732603105,-0.12097137
1764435597.4528725,-4.22702,1.38866,0.3051999999999999,-0.653135535,0.732603105,-0.12097137
1764435597.4528725,-4.22702,1.38866,0.3051999999999999,-0.653135535,0.732603105,-0.12097137
1764435597.4538865,-4.22702,1.38866,0.3051999999999999,-0.653135535,0.732603105,-0.12097137
1764435597.4538865,-4.22702,1.38866,0.3051999999999999,-0.653135535,0.732603105,-0.12097137
1764435597.4538865,-4.22702,1.38866,0.3051999999999999,-0.653135535,0.732603105,-0.12097137
1764435597.4538865,-4.22702,1.38866,0.3051999999999999,-0.653135535,0.732603105,-0.12097137
1764435597.4538865,-4.22702,1.38866,0.3051999999999999,-0.653135535,0.732603105,-0.12097137
1764435597.4538865,-4.22702,1.38866,0.3051999999999999,-0.653135535,0.732603105,-0.12097137
1764435597.4538865,-4.22702,1.38866,0.3051999999999999,-0.653135535,0.732603105,-0.12097137
1764435597.4538865,-3.49454,1.55652,0.74774,-0.6543562350000001,0.732114825,-0.12194793
1764435597.4538865,-3.49454,1.55652,0.74774,-0.6543562350000001,0.732114825,-0.12194793
1764435597.4538865,-3.49454,1.55652,0.74774,-0.6543562350000001,0.732114825,-0.12194793
1764435597.4538865,-3.49454,1.55652,0.74774,-0.6543562350000001,0.732114825,-0.12194793
1764435597.4538865,-3.49454,1.55652,0.74774,-0.6543562350000001,0.732114825,-0.12194793
1764435597.4538865,-3.49454,1.55652,0.74774,-0.6543562350000001,0.732114825,-0.12194793
1764435597.4538865,-3.49454,1.55652,0.74774,-0.6543562350000001,0.732114825,-0.12194793
1764435597.4538865,-3.49454,1.55652,0.74774,-0.6543562350000001,0.732114825,-0.12194793
1764435597.497831,-3.49454,1.55652,0.74774,-0.6543562350000001,0.732114825,-0.12194793
1764435597.497831,-3.49454,1.55652,0.74774,-0.6543562350000001,0.732114825,-0.12194793
1764435597.497831,-3.5861,-0.36624,0.79352,-0.657652125,0.735288645,-0.12219207
1764435597.497831,-3.5861,-0.36624,0.79352,-0.657652125,0.735288645,-0.12219207
1764435597.497831,-3.5861,-0.36624,0.79352,-0.657652125,0.735288645,-0.12219207
1764435597.497831,-3.5861,-0.36624,0.79352,-0.657652125,0.735288645,-0.12219207
1764435597.497831,-3.5861,-0.36624,0.79352,-0.657652125,0.735288645,-0.12219207
1764435597.497831,-3.5861,-0.36624,0.79352,-0.657652125,0.735288645,-0.12219207
1764435597.497831,-3.5861,-0.36624,0.79352,-0.657652125,0.735288645,-0.12219207
1764435597.497831,-3.5861,-0.36624,0.79352,-0.657652125,0.735288645,-0.12219207
1764435597.497831,-3.5861,-0.36624,0.79352,-0.657652125,0.735288645,-0.12219207
1764435597.497831,-3.5861,-0.36624,0.79352,-0.657652125,0.735288645,-0.12219207
1764435597.497831,-4.059159999999999,-0.6867,0.8392999999999999,-0.658140405,0.738340395,-0.12121551
1764435597.497831,-4.059159999999999,-0.6867,0.8392999999999999,-0.658140405,0.738340395,-0.12121551
1764435597.497831,-4.059159999999999,-0.6867,0.8392999999999999,-0.658140405,0.738340395,-0.12121551
1764435597.497831,-4.059159999999999,-0.6867,0.8392999999999999,-0.658140405,0.738340395,-0.12121551
1764435597.497831,-4.059159999999999,-0.6867,0.8392999999999999,-0.658140405,0.738340395,-0.12121551
1764435597.497831,-4.059159999999999,-0.6867,0.8392999999999999,-0.658140405,0.738340395,-0.12121551
1764435597.498846,-4.059159999999999,-0.6867,0.8392999999999999,-0.658140405,0.738340395,-0.12121551
1764435597.498846,-4.059159999999999,-0.6867,0.8392999999999999,-0.658140405,0.738340395,-0.12121551
1764435597.498846,-4.059159999999999,-0.6867,0.8392999999999999,-0.658140405,0.738340395,-0.12121551
1764435597.498846,-4.059159999999999,-0.6867,0.8392999999999999,-0.658140405,0.738340395,-0.12121551
1764435597.498846,-4.91372,0.62566,0.25942,-0.655821075,0.737974185,-0.120910335
1764435597.498846,-4.91372,0.62566,0.25942,-0.655821075,0.737974185,-0.120910335
1764435597.5449908,-4.91372,0.62566,0.25942,-0.655821075,0.737974185,-0.120910335
1764435597.5449908,-4.91372,0.62566,0.25942,-0.655821075,0.737974185,-0.120910335
1764435597.5449908,-4.91372,0.62566,0.25942,-0.655821075,0.737974185,-0.120910335
1764435597.5449908,-4.91372,0.62566,0.25942,-0.655821075,0.737974185,-0.120910335
1764435597.5449908,-4.91372,0.62566,0.25942,-0.655821075,0.737974185,-0.120910335
1764435597.5449908,-4.91372,0.62566,0.25942,-0.655821075,0.737974185,-0.120910335
1764435597.5449908,-4.91372,0.62566,0.25942,-0.655821075,0.737974185,-0.120910335
1764435597.5449908,-4.91372,0.62566,0.25942,-0.655821075,0.737974185,-0.120910335
1764435597.5449908,-4.39488,1.63282,0.0762999999999999,-0.6530745,0.737119695,-0.120055845
1764435597.5449908,-4.39488,1.63282,0.0762999999999999,-0.6530745,0.737119695,-0.120055845
1764435597.5449908,-4.39488,1.63282,0.0762999999999999,-0.6530745,0.737119695,-0.120055845
1764435597.5449908,-4.39488,1.63282,0.0762999999999999,-0.6530745,0.737119695,-0.120055845
1764435597.5449908,-4.39488,1.63282,0.0762999999999999,-0.6530745,0.737119695,-0.120055845
1764435597.5449908,-4.39488,1.63282,0.0762999999999999,-0.6530745,0.737119695,-0.120055845
1764435597.5449908,-4.39488,1.63282,0.0762999999999999,-0.6530745,0.737119695,-0.120055845
1764435597.5462215,-4.39488,1.63282,0.0762999999999999,-0.6530745,0.737119695,-0.120055845
1764435597.5462215,-4.39488,1.63282,0.0762999999999999,-0.6530745,0.737119695,-0.120055845
1764435597.5462215,-4.39488,1.63282,0.0762999999999999,-0.6530745,0.737119695,-0.120055845
1764435597.5462215,-4.5017,2.02958,0.2289,-0.652403115,0.737852115,-0.11877411
1764435597.5462215,-4.5017,2.02958,0.2289,-0.652403115,0.737852115,-0.11877411
1764435597.5462215,-4.5017,2.02958,0.2289,-0.652403115,0.737852115,-0.11877411
1764435597.5462215,-4.5017,2.02958,0.2289,-0.652403115,0.737852115,-0.11877411
1764435597.5462215,-4.5017,2.02958,0.2289,-0.652403115,0.737852115,-0.11877411
1764435597.5462215,-4.5017,2.02958,0.2289,-0.652403115,0.737852115,-0.11877411
1764435597.5931346,-4.5017,2.02958,0.2289,-0.652403115,0.737852115,-0.11877411
1764435597.5931346,-4.5017,2.02958,0.2289,-0.652403115,0.737852115,-0.11877411
1764435597.5931346,-4.5017,2.02958,0.2289,-0.652403115,0.737852115,-0.11877411
1764435597.5931346,-4.5017,2.02958,0.2289,-0.652403115,0.737852115,-0.11877411
1764435597.5931346,-6.05822,2.50264,0.09156,-0.6522810450000001,0.738462465,-0.117980655
1764435597.5931346,-6.05822,2.50264,0.09156,-0.6522810450000001,0.738462465,-0.117980655
1764435597.5931346,-6.05822,2.50264,0.09156,-0.6522810450000001,0.738462465,-0.117980655
1764435597.5931346,-6.05822,2.50264,0.09156,-0.6522810450000001,0.738462465,-0.117980655
1764435597.5931346,-6.05822,2.50264,0.09156,-0.6522810450000001,0.738462465,-0.117980655
1764435597.5931346,-6.05822,2.50264,0.09156,-0.6522810450000001,0.738462465,-0.117980655
1764435597.5931346,-6.05822,2.50264,0.09156,-0.6522810450000001,0.738462465,-0.117980655
1764435597.5931346,-6.05822,2.50264,0.09156,-0.6522810450000001,0.738462465,-0.117980655
1764435597.5931346,-6.05822,2.50264,0.09156,-0.6522810450000001,0.738462465,-0.117980655
1764435597.5931346,-6.05822,2.50264,0.09156,-0.6522810450000001,0.738462465,-0.117980655
1764435597.5931346,-6.91278,2.88414,0.1678599999999999,-0.6517317300000001,0.73827936,-0.11889618
1764435597.5931346,-6.91278,2.88414,0.1678599999999999,-0.6517317300000001,0.73827936,-0.11889618
1764435597.5931346,-6.91278,2.88414,0.1678599999999999,-0.6517317300000001,0.73827936,-0.11889618
1764435597.5931346,-6.91278,2.88414,0.1678599999999999,-0.6517317300000001,0.73827936,-0.11889618
1764435597.5931346,-6.91278,2.88414,0.1678599999999999,-0.6517317300000001,0.73827936,-0.11889618
1764435597.5931346,-6.91278,2.88414,0.1678599999999999,-0.6517317300000001,0.73827936,-0.11889618
1764435597.5931346,-6.91278,2.88414,0.1678599999999999,-0.6517317300000001,0.73827936,-0.11889618
1764435597.5931346,-6.91278,2.88414,0.1678599999999999,-0.6517317300000001,0.73827936,-0.11889618
1764435597.5941317,-6.91278,2.88414,0.1678599999999999,-0.6517317300000001,0.73827936,-0.11889618
1764435597.5941317,-6.91278,2.88414,0.1678599999999999,-0.6517317300000001,0.73827936,-0.11889618
1764435597.63754,-7.27902,3.08252,0.39676,-0.6506331,0.736021065,-0.120177915
1764435597.63754,-7.27902,3.08252,0.39676,-0.6506331,0.736021065,-0.120177915
1764435597.6385524,-7.27902,3.08252,0.39676,-0.6506331,0.736021065,-0.120177915
1764435597.6385524,-7.27902,3.08252,0.39676,-0.6506331,0.736021065,-0.120177915
1764435597.6385524,-7.27902,3.08252,0.39676,-0.6506331,0.736021065,-0.120177915
1764435597.6385524,-7.27902,3.08252,0.39676,-0.6506331,0.736021065,-0.120177915
1764435597.6385524,-7.27902,3.08252,0.39676,-0.6506331,0.736021065,-0.120177915
1764435597.6385524,-7.27902,3.08252,0.39676,-0.6506331,0.736021065,-0.120177915
1764435597.6385524,-7.27902,3.08252,0.39676,-0.6506331,0.736021065,-0.120177915
1764435597.6395564,-7.27902,3.08252,0.39676,-0.6506331,0.736021065,-0.120177915
1764435597.6395564,-6.409199999999999,2.6705,0.28994,-0.6522810450000001,0.73473933,-0.12158172
1764435597.6395564,-6.409199999999999,2.6705,0.28994,-0.6522810450000001,0.73473933,-0.12158172
1764435597.6395564,-6.409199999999999,2.6705,0.28994,-0.6522810450000001,0.73473933,-0.12158172
1764435597.6395564,-6.409199999999999,2.6705,0.28994,-0.6522810450000001,0.73473933,-0.12158172
1764435597.6395564,-6.409199999999999,2.6705,0.28994,-0.6522810450000001,0.73473933,-0.12158172
1764435597.6395564,-6.409199999999999,2.6705,0.28994,-0.6522810450000001,0.73473933,-0.12158172
1764435597.6395564,-6.409199999999999,2.6705,0.28994,-0.6522810450000001,0.73473933,-0.12158172
1764435597.6395564,-6.409199999999999,2.6705,0.28994,-0.6522810450000001,0.73473933,-0.12158172
1764435597.6395564,-6.409199999999999,2.6705,0.28994,-0.6522810450000001,0.73473933,-0.12158172
1764435597.6395564,-6.409199999999999,2.6705,0.28994,-0.6522810450000001,0.73473933,-0.12158172
1764435597.6395564,-5.15788,1.61756,0.19838,-0.65539383,0.73437312,-0.122497245
1764435597.6395564,-5.15788,1.61756,0.19838,-0.65539383,0.73437312,-0.122497245
1764435597.6844387,-5.15788,1.61756,0.19838,-0.65539383,0.73437312,-0.122497245
1764435597.6844387,-5.15788,1.61756,0.19838,-0.65539383,0.73437312,-0.122497245
1764435597.6844387,-5.15788,1.61756,0.19838,-0.65539383,0.73437312,-0.122497245
1764435597.6844387,-5.15788,1.61756,0.19838,-0.65539383,0.73437312,-0.122497245
1764435597.6854377,-5.15788,1.61756,0.19838,-0.65539383,0.73437312,-0.122497245
1764435597.6854377,-5.15788,1.61756,0.19838,-0.65539383,0.73437312,-0.122497245
1764435597.6854377,-5.15788,1.61756,0.19838,-0.65539383,0.73437312,-0.122497245
1764435597.6854377,-5.15788,1.61756,0.19838,-0.65539383,0.73437312,-0.122497245
1764435597.6854377,-4.18124,1.7549,-0.06104,-0.6569807400000001,0.73327449,-0.122497245
1764435597.686437,-4.18124,1.7549,-0.06104,-0.6569807400000001,0.73327449,-0.122497245
1764435597.686437,-4.18124,1.7549,-0.06104,-0.6569807400000001,0.73327449,-0.122497245
1764435597.687437,-4.18124,1.7549,-0.06104,-0.6569807400000001,0.73327449,-0.122497245
1764435597.687437,-4.18124,1.7549,-0.06104,-0.6569807400000001,0.73327449,-0.122497245
1764435597.6879475,-4.18124,1.7549,-0.06104,-0.6569807400000001,0.73327449,-0.122497245
1764435597.6879475,-4.18124,1.7549,-0.06104,-0.6569807400000001,0.73327449,-0.122497245
1764435597.6879475,-4.18124,1.7549,-0.06104,-0.6569807400000001,0.73327449,-0.122497245
1764435597.688971,-4.18124,1.7549,-0.06104,-0.6569807400000001,0.73327449,-0.122497245
1764435597.688971,-4.18124,1.7549,-0.06104,-0.6569807400000001,0.73327449,-0.122497245
1764435597.6894262,-3.87604,2.18218,-0.3204599999999999,-0.65759109,0.7329693150000001,-0.12194793
1764435597.6894262,-3.87604,2.18218,-0.3204599999999999,-0.65759109,0.7329693150000001,-0.12194793
1764435597.6894262,-3.87604,2.18218,-0.3204599999999999,-0.65759109,0.7329693150000001,-0.12194793
1764435597.6899605,-3.87604,2.18218,-0.3204599999999999,-0.65759109,0.7329693150000001,-0.12194793
1764435597.6899605,-3.87604,2.18218,-0.3204599999999999,-0.65759109,0.7329693150000001,-0.12194793
1764435597.6899605,-3.87604,2.18218,-0.3204599999999999,-0.65759109,0.7329693150000001,-0.12194793
1764435597.7338834,-3.87604,2.18218,-0.3204599999999999,-0.65759109,0.7329693150000001,-0.12194793
1764435597.7338834,-3.87604,2.18218,-0.3204599999999999,-0.65759109,0.7329693150000001,-0.12194793
1764435597.7338834,-3.87604,2.18218,-0.3204599999999999,-0.65759109,0.7329693150000001,-0.12194793
1764435597.7338834,-3.87604,2.18218,-0.3204599999999999,-0.65759109,0.7329693150000001,-0.12194793
1764435597.73488,-3.09778,1.4039199999999998,0.18312,-0.66027663,0.734067945,-0.121764825
1764435597.73488,-3.09778,1.4039199999999998,0.18312,-0.66027663,0.734067945,-0.121764825
1764435597.73488,-3.09778,1.4039199999999998,0.18312,-0.66027663,0.734067945,-0.121764825
1764435597.73488,-3.09778,1.4039199999999998,0.18312,-0.66027663,0.734067945,-0.121764825
1764435597.73488,-3.09778,1.4039199999999998,0.18312,-0.66027663,0.734067945,-0.121764825
1764435597.7358806,-3.09778,1.4039199999999998,0.18312,-0.66027663,0.734067945,-0.121764825
1764435597.7358806,-3.09778,1.4039199999999998,0.18312,-0.66027663,0.734067945,-0.121764825
1764435597.7358806,-3.09778,1.4039199999999998,0.18312,-0.66027663,0.734067945,-0.121764825
1764435597.7358806,-3.09778,1.4039199999999998,0.18312,-0.66027663,0.734067945,-0.121764825
1764435597.7358806,-3.09778,1.4039199999999998,0.18312,-0.66027663,0.734067945,-0.121764825
1764435597.7358806,-4.45592,-0.27468,0.19838,-0.6627790650000001,0.73596003,-0.122131035
1764435597.7358806,-4.45592,-0.27468,0.19838,-0.6627790650000001,0.73596003,-0.122131035
1764435597.7358806,-4.45592,-0.27468,0.19838,-0.6627790650000001,0.73596003,-0.122131035
1764435597.7358806,-4.45592,-0.27468,0.19838,-0.6627790650000001,0.73596003,-0.122131035
1764435597.7358806,-4.45592,-0.27468,0.19838,-0.6627790650000001,0.73596003,-0.122131035
1764435597.7358806,-4.45592,-0.27468,0.19838,-0.6627790650000001,0.73596003,-0.122131035
1764435597.7358806,-4.45592,-0.27468,0.19838,-0.6627790650000001,0.73596003,-0.122131035
1764435597.7358806,-4.45592,-0.27468,0.19838,-0.6627790650000001,0.73596003,-0.122131035
1764435597.7358806,-4.45592,-0.27468,0.19838,-0.6627790650000001,0.73596003,-0.122131035
1764435597.7358806,-4.45592,-0.27468,0.19838,-0.6627790650000001,0.73596003,-0.122131035
1764435597.775843,-4.97476,-0.65618,0.1525999999999999,-0.661070085,0.737241765,-0.12170379
1764435597.775843,-4.97476,-0.65618,0.1525999999999999,-0.661070085,0.737241765,-0.12170379
1764435597.775843,-4.97476,-0.65618,0.1525999999999999,-0.661070085,0.737241765,-0.12170379
1764435597.776353,-4.97476,-0.65618,0.1525999999999999,-0.661070085,0.737241765,-0.12170379
1764435597.776353,-4.97476,-0.65618,0.1525999999999999,-0.661070085,0.737241765,-0.12170379
1764435597.776353,-4.97476,-0.65618,0.1525999999999999,-0.661070085,0.737241765,-0.12170379
1764435597.776353,-4.97476,-0.65618,0.1525999999999999,-0.661070085,0.737241765,-0.12170379
1764435597.776353,-4.97476,-0.65618,0.1525999999999999,-0.661070085,0.737241765,-0.12170379
1764435597.776353,-4.97476,-0.65618,0.1525999999999999,-0.661070085,0.737241765,-0.12170379
1764435597.776353,-4.97476,-0.65618,0.1525999999999999,-0.661070085,0.737241765,-0.12170379
1764435597.776353,-5.2647,0.1678599999999999,-0.3204599999999999,-0.65832351,0.73632624,-0.12145965
1764435597.776353,-5.2647,0.1678599999999999,-0.3204599999999999,-0.65832351,0.73632624,-0.12145965
1764435597.776353,-5.2647,0.1678599999999999,-0.3204599999999999,-0.65832351,0.73632624,-0.12145965
1764435597.776353,-5.2647,0.1678599999999999,-0.3204599999999999,-0.65832351,0.73632624,-0.12145965
1764435597.776353,-5.2647,0.1678599999999999,-0.3204599999999999,-0.65832351,0.73632624,-0.12145965
1764435597.776353,-5.2647,0.1678599999999999,-0.3204599999999999,-0.65832351,0.73632624,-0.12145965
1764435597.776353,-5.2647,0.1678599999999999,-0.3204599999999999,-0.65832351,0.73632624,-0.12145965
1764435597.776353,-5.2647,0.1678599999999999,-0.3204599999999999,-0.65832351,0.73632624,-0.12145965
1764435597.776353,-5.2647,0.1678599999999999,-0.3204599999999999,-0.65832351,0.73632624,-0.12145965
1764435597.776353,-5.2647,0.1678599999999999,-0.3204599999999999,-0.65832351,0.73632624,-0.12145965
1764435597.776353,-4.8069,-0.74774,-0.9003399999999999,-0.655699005,0.73632624,-0.120055845
1764435597.776353,-4.8069,-0.74774,-0.9003399999999999,-0.655699005,0.73632624,-0.120055845
1764435597.8249035,-4.8069,-0.74774,-0.9003399999999999,-0.655699005,0.73632624,-0.120055845
1764435597.8249035,-4.8069,-0.74774,-0.9003399999999999,-0.655699005,0.73632624,-0.120055845
1764435597.8249035,-4.8069,-0.74774,-0.9003399999999999,-0.655699005,0.73632624,-0.120055845
1764435597.8249035,-4.8069,-0.74774,-0.9003399999999999,-0.655699005,0.73632624,-0.120055845
1764435597.8249035,-4.8069,-0.74774,-0.9003399999999999,-0.655699005,0.73632624,-0.120055845
1764435597.8249035,-4.8069,-0.74774,-0.9003399999999999,-0.655699005,0.73632624,-0.120055845
1764435597.8249035,-4.8069,-0.74774,-0.9003399999999999,-0.655699005,0.73632624,-0.120055845
1764435597.8249035,-4.8069,-0.74774,-0.9003399999999999,-0.655699005,0.73632624,-0.120055845
1764435597.8249035,-4.92898,-0.88508,-1.26658,-0.6533186400000001,0.737485905,-0.11950653
1764435597.8249035,-4.92898,-0.88508,-1.26658,-0.6533186400000001,0.737485905,-0.11950653
1764435597.8249035,-4.92898,-0.88508,-1.26658,-0.6533186400000001,0.737485905,-0.11950653
1764435597.8259163,-4.92898,-0.88508,-1.26658,-0.6533186400000001,0.737485905,-0.11950653
1764435597.8259163,-4.92898,-0.88508,-1.26658,-0.6533186400000001,0.737485905,-0.11950653
1764435597.8259163,-4.92898,-0.88508,-1.26658,-0.6533186400000001,0.737485905,-0.11950653
1764435597.8259163,-4.92898,-0.88508,-1.26658,-0.6533186400000001,0.737485905,-0.11950653
1764435597.8259163,-4.92898,-0.88508,-1.26658,-0.6533186400000001,0.737485905,-0.11950653
1764435597.8259163,-4.92898,-0.88508,-1.26658,-0.6533186400000001,0.737485905,-0.11950653
