Timestamp,GyroX,GyroY,GyroZ,AccX,AccY,AccZ
1764434346.8402617,-5.08158,1.09872,0.25942,-0.677305395,0.72167784,-0.01245114
1764434346.8402617,-5.08158,1.09872,0.25942,-0.677305395,0.72167784,-0.01245114
1764434346.8402617,-5.08158,1.09872,0.25942,-0.677305395,0.72167784,-0.01245114
1764434346.8402617,-5.08158,1.09872,0.25942,-0.677305395,0.72167784,-0.01245114
1764434346.8402617,-5.08158,1.09872,0.25942,-0.677305395,0.72167784,-0.01245114
1764434346.8402617,-5.35626,1.38866,0.18312,-0.677549535,0.7219830150000001,-0.01196286
1764434346.8402617,-5.35626,1.38866,0.18312,-0.677549535,0.7219830150000001,-0.01196286
1764434346.8402617,-5.35626,1.38866,0.18312,-0.677549535,0.7219830150000001,-0.01196286
1764434346.8402617,-5.35626,1.38866,0.18312,-0.677549535,0.7219830150000001,-0.01196286
1764434346.8402617,-5.35626,1.38866,0.18312,-0.677549535,0.7219830150000001,-0.01196286
1764434346.8402617,-5.35626,1.38866,0.18312,-0.677549535,0.7219830150000001,-0.01196286
1764434346.8402617,-5.35626,1.38866,0.18312,-0.677549535,0.7219830150000001,-0.01196286
1764434346.8402617,-5.35626,1.38866,0.18312,-0.677549535,0.7219830150000001,-0.01196286
1764434346.8408134,-5.35626,1.38866,0.18312,-0.677549535,0.7219830150000001,-0.01196286
1764434346.8408134,-5.35626,1.38866,0.18312,-0.677549535,0.7219830150000001,-0.01196286
1764434346.8408134,-5.02054,1.61756,0.3815,-0.67675608,0.72204405,-0.011657685
1764434346.8408134,-5.02054,1.61756,0.3815,-0.67675608,0.72204405,-0.011657685
1764434346.8408134,-5.02054,1.61756,0.3815,-0.67675608,0.72204405,-0.011657685
1764434346.8408134,-5.02054,1.61756,0.3815,-0.67675608,0.72204405,-0.011657685
1764434346.8408134,-5.02054,1.61756,0.3815,-0.67675608,0.72204405,-0.011657685
1764434346.8408134,-5.02054,1.61756,0.3815,-0.67675608,0.72204405,-0.011657685
1764434346.8408134,-5.02054,1.61756,0.3815,-0.67675608,0.72204405,-0.011657685
1764434346.8408134,-5.02054,1.61756,0.3815,-0.67675608,0.72204405,-0.011657685
1764434346.888656,-5.02054,1.61756,0.3815,-0.67675608,0.72204405,-0.011657685
1764434346.888656,-5.02054,1.61756,0.3815,-0.67675608,0.72204405,-0.011657685
1764434346.888656,-4.8832,1.17502,0.21364,-0.676817115,0.721616805,-0.011657685
1764434346.888656,-4.8832,1.17502,0.21364,-0.676817115,0.721616805,-0.011657685
1764434346.888656,-4.8832,1.17502,0.21364,-0.676817115,0.721616805,-0.011657685
1764434346.888656,-4.8832,1.17502,0.21364,-0.676817115,0.721616805,-0.011657685
1764434346.888656,-4.8832,1.17502,0.21364,-0.676817115,0.721616805,-0.011657685
1764434346.888656,-4.8832,1.17502,0.21364,-0.676817115,0.721616805,-0.011657685
1764434346.888656,-4.8832,1.17502,0.21364,-0.676817115,0.721616805,-0.011657685
1764434346.888656,-4.8832,1.17502,0.21364,-0.676817115,0.721616805,-0.011657685
1764434346.888656,-4.8832,1.17502,0.21364,-0.676817115,0.721616805,-0.011657685
1764434346.888656,-4.8832,1.17502,0.21364,-0.676817115,0.721616805,-0.011657685
1764434346.888656,-5.90562,0.8087799999999999,-0.18312,-0.676939185,0.721250595,-0.01196286
1764434346.888656,-5.90562,0.8087799999999999,-0.18312,-0.676939185,0.721250595,-0.01196286
1764434346.888656,-5.90562,0.8087799999999999,-0.18312,-0.676939185,0.721250595,-0.01196286
1764434346.888656,-5.90562,0.8087799999999999,-0.18312,-0.676939185,0.721250595,-0.01196286
1764434346.8896518,-5.90562,0.8087799999999999,-0.18312,-0.676939185,0.721250595,-0.01196286
1764434346.8896518,-5.90562,0.8087799999999999,-0.18312,-0.676939185,0.721250595,-0.01196286
1764434346.8896518,-5.90562,0.8087799999999999,-0.18312,-0.676939185,0.721250595,-0.01196286
1764434346.8896518,-5.90562,0.8087799999999999,-0.18312,-0.676939185,0.721250595,-0.01196286
1764434346.8906584,-5.90562,0.8087799999999999,-0.18312,-0.676939185,0.721250595,-0.01196286
1764434346.8906584,-5.90562,0.8087799999999999,-0.18312,-0.676939185,0.721250595,-0.01196286
1764434346.8906584,-5.58516,0.763,0.06104,-0.676939185,0.72155577,-0.01171872
1764434346.8906584,-5.58516,0.763,0.06104,-0.676939185,0.72155577,-0.01171872
1764434346.9353442,-5.58516,0.763,0.06104,-0.676939185,0.72155577,-0.01171872
1764434346.9363463,-5.58516,0.763,0.06104,-0.676939185,0.72155577,-0.01171872
1764434346.9363463,-5.58516,0.763,0.06104,-0.676939185,0.72155577,-0.01171872
1764434346.9363463,-5.58516,0.763,0.06104,-0.676939185,0.72155577,-0.01171872
1764434346.9363463,-5.58516,0.763,0.06104,-0.676939185,0.72155577,-0.01171872
1764434346.9363463,-5.58516,0.763,0.06104,-0.676939185,0.72155577,-0.01171872
1764434346.9363463,-5.58516,0.763,0.06104,-0.676939185,0.72155577,-0.01171872
1764434346.9374895,-5.58516,0.763,0.06104,-0.676939185,0.72155577,-0.01171872
1764434346.9374895,-5.15788,1.1445,0.19838,-0.676817115,0.720884385,-0.01049802
1764434346.9374895,-5.15788,1.1445,0.19838,-0.676817115,0.720884385,-0.01049802
1764434346.9374895,-5.15788,1.1445,0.19838,-0.676817115,0.720884385,-0.01049802
1764434346.9374895,-5.15788,1.1445,0.19838,-0.676817115,0.720884385,-0.01049802
1764434346.9374895,-5.15788,1.1445,0.19838,-0.676817115,0.720884385,-0.01049802
1764434346.9374895,-5.15788,1.1445,0.19838,-0.676817115,0.720884385,-0.01049802
1764434346.9374895,-5.15788,1.1445,0.19838,-0.676817115,0.720884385,-0.01049802
1764434346.9374895,-5.15788,1.1445,0.19838,-0.676817115,0.720884385,-0.01049802
1764434346.9374895,-5.15788,1.1445,0.19838,-0.676817115,0.720884385,-0.01049802
1764434346.9374895,-5.15788,1.1445,0.19838,-0.676817115,0.720884385,-0.01049802
1764434346.9374895,-4.6543,1.69386,0.42728,-0.67736643,0.7209454200000001,-0.009582495
1764434346.9374895,-4.6543,1.69386,0.42728,-0.67736643,0.7209454200000001,-0.009582495
1764434346.9374895,-4.6543,1.69386,0.42728,-0.67736643,0.7209454200000001,-0.009582495
1764434346.9374895,-4.6543,1.69386,0.42728,-0.67736643,0.7209454200000001,-0.009582495
1764434346.9803896,-4.6543,1.69386,0.42728,-0.67736643,0.7209454200000001,-0.009582495
1764434346.9803896,-4.6543,1.69386,0.42728,-0.67736643,0.7209454200000001,-0.009582495
1764434346.9803896,-4.6543,1.69386,0.42728,-0.67736643,0.7209454200000001,-0.009582495
1764434346.9803896,-4.6543,1.69386,0.42728,-0.67736643,0.7209454200000001,-0.009582495
1764434346.9803896,-4.6543,1.69386,0.42728,-0.67736643,0.7209454200000001,-0.009582495
1764434346.9803896,-4.6543,1.69386,0.42728,-0.67736643,0.7209454200000001,-0.009582495
1764434346.9803896,-3.76922,2.2127,0.50358,-0.677793675,0.721250595,-0.00927732
1764434346.9803896,-3.76922,2.2127,0.50358,-0.677793675,0.721250595,-0.00927732
1764434346.9803896,-3.76922,2.2127,0.50358,-0.677793675,0.721250595,-0.00927732
1764434346.9803896,-3.76922,2.2127,0.50358,-0.677793675,0.721250595,-0.00927732
1764434346.9803896,-3.76922,2.2127,0.50358,-0.677793675,0.721250595,-0.00927732
1764434346.9803896,-3.76922,2.2127,0.50358,-0.677793675,0.721250595,-0.00927732
1764434346.9803896,-3.76922,2.2127,0.50358,-0.677793675,0.721250595,-0.00927732
1764434346.9803896,-3.76922,2.2127,0.50358,-0.677793675,0.721250595,-0.00927732
1764434346.98141,-3.76922,2.2127,0.50358,-0.677793675,0.721250595,-0.00927732
1764434346.98141,-3.76922,2.2127,0.50358,-0.677793675,0.721250595,-0.00927732
1764434346.98141,-3.49454,1.69386,0.763,-0.677793675,0.721250595,-0.00952146
1764434346.98141,-3.49454,1.69386,0.763,-0.677793675,0.721250595,-0.00952146
1764434346.98141,-3.49454,1.69386,0.763,-0.677793675,0.721250595,-0.00952146
1764434346.98141,-3.49454,1.69386,0.763,-0.677793675,0.721250595,-0.00952146
1764434346.98141,-3.49454,1.69386,0.763,-0.677793675,0.721250595,-0.00952146
1764434346.98141,-3.49454,1.69386,0.763,-0.677793675,0.721250595,-0.00952146
1764434347.0249028,-3.49454,1.69386,0.763,-0.677793675,0.721250595,-0.00952146
1764434347.0249028,-3.49454,1.69386,0.763,-0.677793675,0.721250595,-0.00952146
1764434347.0249028,-3.49454,1.69386,0.763,-0.677793675,0.721250595,-0.00952146
1764434347.0249028,-3.49454,1.69386,0.763,-0.677793675,0.721250595,-0.00952146
1764434347.0249028,-3.03674,1.89224,0.3051999999999999,-0.677549535,0.72033507,-0.009582495
1764434347.0249028,-3.03674,1.89224,0.3051999999999999,-0.677549535,0.72033507,-0.009582495
1764434347.0249028,-3.03674,1.89224,0.3051999999999999,-0.677549535,0.72033507,-0.009582495
1764434347.0249028,-3.03674,1.89224,0.3051999999999999,-0.677549535,0.72033507,-0.009582495
1764434347.0249028,-3.03674,1.89224,0.3051999999999999,-0.677549535,0.72033507,-0.009582495
1764434347.0249028,-3.03674,1.89224,0.3051999999999999,-0.677549535,0.72033507,-0.009582495
1764434347.0249028,-3.03674,1.89224,0.3051999999999999,-0.677549535,0.72033507,-0.009582495
1764434347.0249028,-3.03674,1.89224,0.3051999999999999,-0.677549535,0.72033507,-0.009582495
1764434347.0259206,-3.03674,1.89224,0.3051999999999999,-0.677549535,0.72033507,-0.009582495
1764434347.0259206,-3.03674,1.89224,0.3051999999999999,-0.677549535,0.72033507,-0.009582495
1764434347.0259206,-3.70818,1.6786,0.3509799999999999,-0.67724436,0.720762315,-0.01049802
1764434347.0259206,-3.70818,1.6786,0.3509799999999999,-0.67724436,0.720762315,-0.01049802
1764434347.0259206,-3.70818,1.6786,0.3509799999999999,-0.67724436,0.720762315,-0.01049802
1764434347.0259206,-3.70818,1.6786,0.3509799999999999,-0.67724436,0.720762315,-0.01049802
1764434347.0259206,-3.70818,1.6786,0.3509799999999999,-0.67724436,0.720762315,-0.01049802
1764434347.0259206,-3.70818,1.6786,0.3509799999999999,-0.67724436,0.720762315,-0.01049802
1764434347.0264304,-3.70818,1.6786,0.3509799999999999,-0.67724436,0.720762315,-0.01049802
1764434347.0264304,-3.70818,1.6786,0.3509799999999999,-0.67724436,0.720762315,-0.01049802
1764434347.0269606,-3.70818,1.6786,0.3509799999999999,-0.67724436,0.720762315,-0.01049802
1764434347.0269606,-3.70818,1.6786,0.3509799999999999,-0.67724436,0.720762315,-0.01049802
1764434347.07026,-4.1202,1.6022999999999998,0.3357199999999999,-0.677671605,0.72131163,-0.010925265
1764434347.07026,-4.1202,1.6022999999999998,0.3357199999999999,-0.677671605,0.72131163,-0.010925265
1764434347.07026,-4.1202,1.6022999999999998,0.3357199999999999,-0.677671605,0.72131163,-0.010925265
1764434347.07026,-4.1202,1.6022999999999998,0.3357199999999999,-0.677671605,0.72131163,-0.010925265
1764434347.07026,-4.1202,1.6022999999999998,0.3357199999999999,-0.677671605,0.72131163,-0.010925265
1764434347.07026,-4.1202,1.6022999999999998,0.3357199999999999,-0.677671605,0.72131163,-0.010925265
1764434347.07026,-4.1202,1.6022999999999998,0.3357199999999999,-0.677671605,0.72131163,-0.010925265
1764434347.07026,-4.1202,1.6022999999999998,0.3357199999999999,-0.677671605,0.72131163,-0.010925265
1764434347.07026,-4.1202,1.6022999999999998,0.3357199999999999,-0.677671605,0.72131163,-0.010925265
1764434347.07026,-4.1202,1.6022999999999998,0.3357199999999999,-0.677671605,0.72131163,-0.010925265
1764434347.07026,-4.45592,1.7549,0.82404,-0.678159885,0.7209454200000001,-0.011535615
1764434347.07026,-4.45592,1.7549,0.82404,-0.678159885,0.7209454200000001,-0.011535615
1764434347.07026,-4.45592,1.7549,0.82404,-0.678159885,0.7209454200000001,-0.011535615
1764434347.07026,-4.45592,1.7549,0.82404,-0.678159885,0.7209454200000001,-0.011535615
1764434347.071952,-4.45592,1.7549,0.82404,-0.678159885,0.7209454200000001,-0.011535615
1764434347.071952,-4.45592,1.7549,0.82404,-0.678159885,0.7209454200000001,-0.011535615
1764434347.071952,-4.45592,1.7549,0.82404,-0.678159885,0.7209454200000001,-0.011535615
1764434347.071952,-4.45592,1.7549,0.82404,-0.678159885,0.7209454200000001,-0.011535615
1764434347.0729654,-4.45592,1.7549,0.82404,-0.678159885,0.7209454200000001,-0.011535615
1764434347.0729654,-4.45592,1.7549,0.82404,-0.678159885,0.7209454200000001,-0.011535615
1764434347.0729654,-4.2728,1.73964,0.42728,-0.67736643,0.721372665,-0.01184079
1764434347.0729654,-4.2728,1.73964,0.42728,-0.67736643,0.721372665,-0.01184079
1764434347.0729654,-4.2728,1.73964,0.42728,-0.67736643,0.721372665,-0.01184079
1764434347.0739665,-4.2728,1.73964,0.42728,-0.67736643,0.721372665,-0.01184079
1764434347.1169307,-4.2728,1.73964,0.42728,-0.67736643,0.721372665,-0.01184079
1764434347.1174662,-4.2728,1.73964,0.42728,-0.67736643,0.721372665,-0.01184079
1764434347.1174662,-4.2728,1.73964,0.42728,-0.67736643,0.721372665,-0.01184079
1764434347.1174662,-4.2728,1.73964,0.42728,-0.67736643,0.721372665,-0.01184079
1764434347.1174662,-4.2728,1.73964,0.42728,-0.67736643,0.721372665,-0.01184079
1764434347.1174662,-4.2728,1.73964,0.42728,-0.67736643,0.721372665,-0.01184079
1764434347.1174662,-4.5017,1.41918,-0.12208,-0.676328835,0.7219830150000001,-0.01208493
1764434347.1174662,-4.5017,1.41918,-0.12208,-0.676328835,0.7219830150000001,-0.01208493
1764434347.1174662,-4.5017,1.41918,-0.12208,-0.676328835,0.7219830150000001,-0.01208493
1764434347.1174662,-4.5017,1.41918,-0.12208,-0.676328835,0.7219830150000001,-0.01208493
1764434347.1174662,-4.5017,1.41918,-0.12208,-0.676328835,0.7219830150000001,-0.01208493
1764434347.1174662,-4.5017,1.41918,-0.12208,-0.676328835,0.7219830150000001,-0.01208493
1764434347.1174662,-4.5017,1.41918,-0.12208,-0.676328835,0.7219830150000001,-0.01208493
1764434347.1174662,-4.5017,1.41918,-0.12208,-0.676328835,0.7219830150000001,-0.01208493
1764434347.1174662,-4.5017,1.41918,-0.12208,-0.676328835,0.7219830150000001,-0.01208493
1764434347.1174662,-4.5017,1.41918,-0.12208,-0.676328835,0.7219830150000001,-0.01208493
1764434347.1174662,-4.1202,0.94612,-0.42728,-0.67602366,0.72228819,-0.012207
1764434347.1174662,-4.1202,0.94612,-0.42728,-0.67602366,0.72228819,-0.012207
1764434347.1174662,-4.1202,0.94612,-0.42728,-0.67602366,0.72228819,-0.012207
1764434347.1174662,-4.1202,0.94612,-0.42728,-0.67602366,0.72228819,-0.012207
1764434347.1174662,-4.1202,0.94612,-0.42728,-0.67602366,0.72228819,-0.012207
1764434347.1174662,-4.1202,0.94612,-0.42728,-0.67602366,0.72228819,-0.012207
1764434347.1668472,-4.1202,0.94612,-0.42728,-0.67602366,0.72228819,-0.012207
1764434347.1668472,-4.1202,0.94612,-0.42728,-0.67602366,0.72228819,-0.012207
1764434347.1668472,-4.1202,0.94612,-0.42728,-0.67602366,0.72228819,-0.012207
1764434347.1668472,-4.1202,0.94612,-0.42728,-0.67602366,0.72228819,-0.012207
1764434347.1668472,-4.62378,1.02242,-0.88508,-0.675230205,0.721372665,-0.012268035
1764434347.1668472,-4.62378,1.02242,-0.88508,-0.675230205,0.721372665,-0.012268035
1764434347.1668472,-4.62378,1.02242,-0.88508,-0.675230205,0.721372665,-0.012268035
1764434347.1668472,-4.62378,1.02242,-0.88508,-0.675230205,0.721372665,-0.012268035
1764434347.1668472,-4.62378,1.02242,-0.88508,-0.675230205,0.721372665,-0.012268035
1764434347.1668472,-4.62378,1.02242,-0.88508,-0.675230205,0.721372665,-0.012268035
1764434347.1668472,-4.62378,1.02242,-0.88508,-0.675230205,0.721372665,-0.012268035
1764434347.1668472,-4.62378,1.02242,-0.88508,-0.675230205,0.721372665,-0.012268035
1764434347.1668472,-4.62378,1.02242,-0.88508,-0.675230205,0.721372665,-0.012268035
1764434347.1668472,-4.62378,1.02242,-0.88508,-0.675230205,0.721372665,-0.012268035
1764434347.1668472,-6.21082,1.00716,-0.42728,-0.67651194,0.720640245,-0.01257321
1764434347.1668472,-6.21082,1.00716,-0.42728,-0.67651194,0.720640245,-0.01257321
1764434347.1668472,-6.21082,1.00716,-0.42728,-0.67651194,0.720640245,-0.01257321
1764434347.1668472,-6.21082,1.00716,-0.42728,-0.67651194,0.720640245,-0.01257321
1764434347.1668472,-6.21082,1.00716,-0.42728,-0.67651194,0.720640245,-0.01257321
1764434347.1668472,-6.21082,1.00716,-0.42728,-0.67651194,0.720640245,-0.01257321
1764434347.1668472,-6.21082,1.00716,-0.42728,-0.67651194,0.720640245,-0.01257321
1764434347.1668472,-6.21082,1.00716,-0.42728,-0.67651194,0.720640245,-0.01257321
1764434347.2125468,-6.21082,1.00716,-0.42728,-0.67651194,0.720640245,-0.01257321
1764434347.2125468,-6.21082,1.00716,-0.42728,-0.67651194,0.720640245,-0.01257321
1764434347.2125468,-5.31048,1.2971,-0.0762999999999999,-0.678648165,0.721128525,-0.01171872
1764434347.2135406,-5.31048,1.2971,-0.0762999999999999,-0.678648165,0.721128525,-0.01171872
1764434347.2135406,-5.31048,1.2971,-0.0762999999999999,-0.678648165,0.721128525,-0.01171872
1764434347.2135406,-5.31048,1.2971,-0.0762999999999999,-0.678648165,0.721128525,-0.01171872
1764434347.2135406,-5.31048,1.2971,-0.0762999999999999,-0.678648165,0.721128525,-0.01171872
1764434347.2135406,-5.31048,1.2971,-0.0762999999999999,-0.678648165,0.721128525,-0.01171872
1764434347.2135406,-5.31048,1.2971,-0.0762999999999999,-0.678648165,0.721128525,-0.01171872
1764434347.2135406,-5.31048,1.2971,-0.0762999999999999,-0.678648165,0.721128525,-0.01171872
1764434347.2135406,-5.31048,1.2971,-0.0762999999999999,-0.678648165,0.721128525,-0.01171872
1764434347.2135406,-5.31048,1.2971,-0.0762999999999999,-0.678648165,0.721128525,-0.01171872
1764434347.2145443,-5.15788,1.69386,0.79352,-0.679258515,0.720518175,-0.011535615
1764434347.2145443,-5.15788,1.69386,0.79352,-0.679258515,0.720518175,-0.011535615
1764434347.2145443,-5.15788,1.69386,0.79352,-0.679258515,0.720518175,-0.011535615
1764434347.2145443,-5.15788,1.69386,0.79352,-0.679258515,0.720518175,-0.011535615
1764434347.2145443,-5.15788,1.69386,0.79352,-0.679258515,0.720518175,-0.011535615
1764434347.2145443,-5.15788,1.69386,0.79352,-0.679258515,0.720518175,-0.011535615
1764434347.2150636,-5.15788,1.69386,0.79352,-0.679258515,0.720518175,-0.011535615
1764434347.2150636,-5.15788,1.69386,0.79352,-0.679258515,0.720518175,-0.011535615
1764434347.2150636,-5.15788,1.69386,0.79352,-0.679258515,0.720518175,-0.011535615
1764434347.2150636,-5.15788,1.69386,0.79352,-0.679258515,0.720518175,-0.011535615
1764434347.2150636,-4.76112,2.24322,1.19028,-0.679624725,0.720029895,-0.01086423
1764434347.2150636,-4.76112,2.24322,1.19028,-0.679624725,0.720029895,-0.01086423
1764434347.2547002,-4.76112,2.24322,1.19028,-0.679624725,0.720029895,-0.01086423
1764434347.2547002,-4.76112,2.24322,1.19028,-0.679624725,0.720029895,-0.01086423
1764434347.2547002,-4.76112,2.24322,1.19028,-0.679624725,0.720029895,-0.01086423
1764434347.2547002,-4.76112,2.24322,1.19028,-0.679624725,0.720029895,-0.01086423
1764434347.2547002,-4.76112,2.24322,1.19028,-0.679624725,0.720029895,-0.01086423
1764434347.2547002,-4.76112,2.24322,1.19028,-0.679624725,0.720029895,-0.01086423
1764434347.2547002,-4.76112,2.24322,1.19028,-0.679624725,0.720029895,-0.01086423
1764434347.2547002,-4.76112,2.24322,1.19028,-0.679624725,0.720029895,-0.01086423
1764434347.2547002,-4.59326,2.09062,0.97664,-0.678892305,0.719785755,-0.0097656
1764434347.256256,-4.59326,2.09062,0.97664,-0.678892305,0.719785755,-0.0097656
1764434347.256256,-4.59326,2.09062,0.97664,-0.678892305,0.719785755,-0.0097656
1764434347.256256,-4.59326,2.09062,0.97664,-0.678892305,0.719785755,-0.0097656
1764434347.256256,-4.59326,2.09062,0.97664,-0.678892305,0.719785755,-0.0097656
1764434347.2572677,-4.59326,2.09062,0.97664,-0.678892305,0.719785755,-0.0097656
1764434347.2572677,-4.59326,2.09062,0.97664,-0.678892305,0.719785755,-0.0097656
1764434347.2572677,-4.59326,2.09062,0.97664,-0.678892305,0.719785755,-0.0097656
1764434347.2572677,-4.59326,2.09062,0.97664,-0.678892305,0.719785755,-0.0097656
1764434347.2572677,-4.59326,2.09062,0.97664,-0.678892305,0.719785755,-0.0097656
1764434347.2572677,-4.48644,2.19744,0.94612,-0.67785471,0.720029895,-0.00939939
1764434347.258268,-4.48644,2.19744,0.94612,-0.67785471,0.720029895,-0.00939939
1764434347.258268,-4.48644,2.19744,0.94612,-0.67785471,0.720029895,-0.00939939
1764434347.258268,-4.48644,2.19744,0.94612,-0.67785471,0.720029895,-0.00939939
1764434347.258268,-4.48644,2.19744,0.94612,-0.67785471,0.720029895,-0.00939939
1764434347.258268,-4.48644,2.19744,0.94612,-0.67785471,0.720029895,-0.00939939
1764434347.3029854,-4.48644,2.19744,0.94612,-0.67785471,0.720029895,-0.00939939
1764434347.3029854,-4.48644,2.19744,0.94612,-0.67785471,0.720029895,-0.00939939
1764434347.3029854,-4.48644,2.19744,0.94612,-0.67785471,0.720029895,-0.00939939
1764434347.3029854,-4.48644,2.19744,0.94612,-0.67785471,0.720029895,-0.00939939
1764434347.3029854,-4.33384,1.86172,0.71722,-0.677549535,0.72033507,-0.01037595
1764434347.3029854,-4.33384,1.86172,0.71722,-0.677549535,0.72033507,-0.01037595
1764434347.3029854,-4.33384,1.86172,0.71722,-0.677549535,0.72033507,-0.01037595
1764434347.3029854,-4.33384,1.86172,0.71722,-0.677549535,0.72033507,-0.01037595
1764434347.3029854,-4.33384,1.86172,0.71722,-0.677549535,0.72033507,-0.01037595
1764434347.3029854,-4.33384,1.86172,0.71722,-0.677549535,0.72033507,-0.01037595
1764434347.3029854,-4.33384,1.86172,0.71722,-0.677549535,0.72033507,-0.01037595
1764434347.3029854,-4.33384,1.86172,0.71722,-0.677549535,0.72033507,-0.01037595
1764434347.3029854,-4.33384,1.86172,0.71722,-0.677549535,0.72033507,-0.01037595
1764434347.3029854,-4.33384,1.86172,0.71722,-0.677549535,0.72033507,-0.01037595
1764434347.3029854,-4.62378,1.28184,0.19838,-0.676572975,0.720762315,-0.011291475
1764434347.3029854,-4.62378,1.28184,0.19838,-0.676572975,0.720762315,-0.011291475
1764434347.3029854,-4.62378,1.28184,0.19838,-0.676572975,0.720762315,-0.011291475
1764434347.3029854,-4.62378,1.28184,0.19838,-0.676572975,0.720762315,-0.011291475
1764434347.3029854,-4.62378,1.28184,0.19838,-0.676572975,0.720762315,-0.011291475
1764434347.3029854,-4.62378,1.28184,0.19838,-0.676572975,0.720762315,-0.011291475
1764434347.35131,-4.62378,1.28184,0.19838,-0.676572975,0.720762315,-0.011291475
1764434347.3523166,-4.62378,1.28184,0.19838,-0.676572975,0.720762315,-0.011291475
1764434347.3523166,-4.62378,1.28184,0.19838,-0.676572975,0.720762315,-0.011291475
1764434347.3523166,-4.62378,1.28184,0.19838,-0.676572975,0.720762315,-0.011291475
1764434347.3523166,-4.92898,1.3734,0.3204599999999999,-0.676572975,0.721250595,-0.011413545
1764434347.3523166,-4.92898,1.3734,0.3204599999999999,-0.676572975,0.721250595,-0.011413545
1764434347.3523166,-4.92898,1.3734,0.3204599999999999,-0.676572975,0.721250595,-0.011413545
1764434347.3523166,-4.92898,1.3734,0.3204599999999999,-0.676572975,0.721250595,-0.011413545
1764434347.3533306,-4.92898,1.3734,0.3204599999999999,-0.676572975,0.721250595,-0.011413545
1764434347.3533306,-4.92898,1.3734,0.3204599999999999,-0.676572975,0.721250595,-0.011413545
1764434347.3533306,-4.92898,1.3734,0.3204599999999999,-0.676572975,0.721250595,-0.011413545
1764434347.3533306,-4.92898,1.3734,0.3204599999999999,-0.676572975,0.721250595,-0.011413545
1764434347.3533306,-4.92898,1.3734,0.3204599999999999,-0.676572975,0.721250595,-0.011413545
1764434347.3533306,-4.92898,1.3734,0.3204599999999999,-0.676572975,0.721250595,-0.011413545
1764434347.3533306,-4.31858,1.99906,0.04578,-0.676328835,0.721860945,-0.010192845
1764434347.3533306,-4.31858,1.99906,0.04578,-0.676328835,0.721860945,-0.010192845
1764434347.3533306,-4.31858,1.99906,0.04578,-0.676328835,0.721860945,-0.010192845
1764434347.3533306,-4.31858,1.99906,0.04578,-0.676328835,0.721860945,-0.010192845
1764434347.3533306,-4.31858,1.99906,0.04578,-0.676328835,0.721860945,-0.010192845
1764434347.3533306,-4.31858,1.99906,0.04578,-0.676328835,0.721860945,-0.010192845
1764434347.3533306,-4.31858,1.99906,0.04578,-0.676328835,0.721860945,-0.010192845
1764434347.3533306,-4.31858,1.99906,0.04578,-0.676328835,0.721860945,-0.010192845
1764434347.3533306,-4.31858,1.99906,0.04578,-0.676328835,0.721860945,-0.010192845
1764434347.3533306,-4.31858,1.99906,0.04578,-0.676328835,0.721860945,-0.010192845
1764434347.3533306,-3.70818,1.43444,-0.09156,-0.676695045,0.721860945,-0.01074216
1764434347.3543117,-3.70818,1.43444,-0.09156,-0.676695045,0.721860945,-0.01074216
1764434347.3987684,-3.70818,1.43444,-0.09156,-0.676695045,0.721860945,-0.01074216
1764434347.3987684,-3.70818,1.43444,-0.09156,-0.676695045,0.721860945,-0.01074216
1764434347.3987684,-3.70818,1.43444,-0.09156,-0.676695045,0.721860945,-0.01074216
1764434347.3987684,-3.70818,1.43444,-0.09156,-0.676695045,0.721860945,-0.01074216
1764434347.3987684,-3.70818,1.43444,-0.09156,-0.676695045,0.721860945,-0.01074216
1764434347.399766,-3.70818,1.43444,-0.09156,-0.676695045,0.721860945,-0.01074216
1764434347.399766,-3.70818,1.43444,-0.09156,-0.676695045,0.721860945,-0.01074216
1764434347.399766,-3.70818,1.43444,-0.09156,-0.676695045,0.721860945,-0.01074216
1764434347.399766,-3.55558,1.58704,0.1678599999999999,-0.677061255,0.721738875,-0.011047335
1764434347.399766,-3.55558,1.58704,0.1678599999999999,-0.677061255,0.721738875,-0.011047335
1764434347.400765,-3.55558,1.58704,0.1678599999999999,-0.677061255,0.721738875,-0.011047335
1764434347.400765,-3.55558,1.58704,0.1678599999999999,-0.677061255,0.721738875,-0.011047335
1764434347.400765,-3.55558,1.58704,0.1678599999999999,-0.677061255,0.721738875,-0.011047335
1764434347.400765,-3.55558,1.58704,0.1678599999999999,-0.677061255,0.721738875,-0.011047335
1764434347.401766,-3.55558,1.58704,0.1678599999999999,-0.677061255,0.721738875,-0.011047335
1764434347.401766,-3.55558,1.58704,0.1678599999999999,-0.677061255,0.721738875,-0.011047335
1764434347.401766,-3.55558,1.58704,0.1678599999999999,-0.677061255,0.721738875,-0.011047335
1764434347.401766,-3.55558,1.58704,0.1678599999999999,-0.677061255,0.721738875,-0.011047335
1764434347.402768,-4.08968,0.96138,-0.19838,-0.677183325,0.72082335,-0.010803195
1764434347.402768,-4.08968,0.96138,-0.19838,-0.677183325,0.72082335,-0.010803195
1764434347.402768,-4.08968,0.96138,-0.19838,-0.677183325,0.72082335,-0.010803195
1764434347.402768,-4.08968,0.96138,-0.19838,-0.677183325,0.72082335,-0.010803195
1764434347.402768,-4.08968,0.96138,-0.19838,-0.677183325,0.72082335,-0.010803195
1764434347.402768,-4.08968,0.96138,-0.19838,-0.677183325,0.72082335,-0.010803195
1764434347.4441226,-4.08968,0.96138,-0.19838,-0.677183325,0.72082335,-0.010803195
1764434347.4441226,-4.08968,0.96138,-0.19838,-0.677183325,0.72082335,-0.010803195
1764434347.4441226,-4.08968,0.96138,-0.19838,-0.677183325,0.72082335,-0.010803195
1764434347.4441226,-4.08968,0.96138,-0.19838,-0.677183325,0.72082335,-0.010803195
1764434347.4441226,-3.93708,1.1445,-0.3815,-0.6774274650000001,0.72057921,-0.010559055
1764434347.4441226,-3.93708,1.1445,-0.3815,-0.6774274650000001,0.72057921,-0.010559055
1764434347.4441226,-3.93708,1.1445,-0.3815,-0.6774274650000001,0.72057921,-0.010559055
1764434347.4441226,-3.93708,1.1445,-0.3815,-0.6774274650000001,0.72057921,-0.010559055
1764434347.4441226,-3.93708,1.1445,-0.3815,-0.6774274650000001,0.72057921,-0.010559055
1764434347.4441226,-3.93708,1.1445,-0.3815,-0.6774274650000001,0.72057921,-0.010559055
1764434347.4441226,-3.93708,1.1445,-0.3815,-0.6774274650000001,0.72057921,-0.010559055
1764434347.4441226,-3.93708,1.1445,-0.3815,-0.6774274650000001,0.72057921,-0.010559055
1764434347.4441226,-3.93708,1.1445,-0.3815,-0.6774274650000001,0.72057921,-0.010559055
1764434347.4441226,-3.93708,1.1445,-0.3815,-0.6774274650000001,0.72057921,-0.010559055
1764434347.445125,-4.13546,1.34288,3.8913,-0.6784650600000001,0.721250595,-0.01074216
1764434347.445125,-4.13546,1.34288,3.8913,-0.6784650600000001,0.721250595,-0.01074216
1764434347.445125,-4.13546,1.34288,3.8913,-0.6784650600000001,0.721250595,-0.01074216
1764434347.445125,-4.13546,1.34288,3.8913,-0.6784650600000001,0.721250595,-0.01074216
1764434347.445125,-4.13546,1.34288,3.8913,-0.6784650600000001,0.721250595,-0.01074216
1764434347.445125,-4.13546,1.34288,3.8913,-0.6784650600000001,0.721250595,-0.01074216
1764434347.445125,-4.13546,1.34288,3.8913,-0.6784650600000001,0.721250595,-0.01074216
1764434347.445125,-4.13546,1.34288,3.8913,-0.6784650600000001,0.721250595,-0.01074216
1764434347.4901292,-4.13546,1.34288,3.8913,-0.6784650600000001,0.721250595,-0.01074216
1764434347.4901292,-4.13546,1.34288,3.8913,-0.6784650600000001,0.721250595,-0.01074216
1764434347.4901292,-3.99812,1.49548,0.19838,-0.678526095,0.720640245,-0.010559055
1764434347.4901292,-3.99812,1.49548,0.19838,-0.678526095,0.720640245,-0.010559055
1764434347.4901292,-3.99812,1.49548,0.19838,-0.678526095,0.720640245,-0.010559055
1764434347.4901292,-3.99812,1.49548,0.19838,-0.678526095,0.720640245,-0.010559055
1764434347.4901292,-3.99812,1.49548,0.19838,-0.678526095,0.720640245,-0.010559055
1764434347.4901292,-3.99812,1.49548,0.19838,-0.678526095,0.720640245,-0.010559055
1764434347.4901292,-3.99812,1.49548,0.19838,-0.678526095,0.720640245,-0.010559055
1764434347.4901292,-3.99812,1.49548,0.19838,-0.678526095,0.720640245,-0.010559055
1764434347.4906137,-3.99812,1.49548,0.19838,-0.678526095,0.720640245,-0.010559055
1764434347.4906137,-3.99812,1.49548,0.19838,-0.678526095,0.720640245,-0.010559055
1764434347.4906137,-4.28806,1.64808,0.42728,-0.678770235,0.720884385,-0.01062009
1764434347.491126,-4.28806,1.64808,0.42728,-0.678770235,0.720884385,-0.01062009
1764434347.491126,-4.28806,1.64808,0.42728,-0.678770235,0.720884385,-0.01062009
1764434347.491126,-4.28806,1.64808,0.42728,-0.678770235,0.720884385,-0.01062009
1764434347.491126,-4.28806,1.64808,0.42728,-0.678770235,0.720884385,-0.01062009
1764434347.491126,-4.28806,1.64808,0.42728,-0.678770235,0.720884385,-0.01062009
1764434347.491126,-4.28806,1.64808,0.42728,-0.678770235,0.720884385,-0.01062009
1764434347.491126,-4.28806,1.64808,0.42728,-0.678770235,0.720884385,-0.01062009
1764434347.492127,-4.28806,1.64808,0.42728,-0.678770235,0.720884385,-0.01062009
1764434347.492127,-4.28806,1.64808,0.42728,-0.678770235,0.720884385,-0.01062009
1764434347.492127,-4.8069,1.84646,0.3815,-0.67773264,0.721738875,-0.011657685
1764434347.492127,-4.8069,1.84646,0.3815,-0.67773264,0.721738875,-0.011657685
1764434347.5363097,-4.8069,1.84646,0.3815,-0.67773264,0.721738875,-0.011657685
1764434347.5363097,-4.8069,1.84646,0.3815,-0.67773264,0.721738875,-0.011657685
1764434347.5363097,-4.8069,1.84646,0.3815,-0.67773264,0.721738875,-0.011657685
1764434347.5363097,-4.8069,1.84646,0.3815,-0.67773264,0.721738875,-0.011657685
1764434347.5363097,-4.8069,1.84646,0.3815,-0.67773264,0.721738875,-0.011657685
1764434347.5363097,-4.8069,1.84646,0.3815,-0.67773264,0.721738875,-0.011657685
1764434347.5363097,-4.8069,1.84646,0.3815,-0.67773264,0.721738875,-0.011657685
1764434347.5363097,-4.8069,1.84646,0.3815,-0.67773264,0.721738875,-0.011657685
1764434347.5363097,-4.99002,1.1445,0.59514,-0.677793675,0.721250595,-0.01196286
1764434347.5363097,-4.99002,1.1445,0.59514,-0.677793675,0.721250595,-0.01196286
1764434347.5363097,-4.99002,1.1445,0.59514,-0.677793675,0.721250595,-0.01196286
1764434347.5363097,-4.99002,1.1445,0.59514,-0.677793675,0.721250595,-0.01196286
1764434347.5363097,-4.99002,1.1445,0.59514,-0.677793675,0.721250595,-0.01196286
1764434347.537321,-4.99002,1.1445,0.59514,-0.677793675,0.721250595,-0.01196286
1764434347.537321,-4.99002,1.1445,0.59514,-0.677793675,0.721250595,-0.01196286
1764434347.537321,-4.99002,1.1445,0.59514,-0.677793675,0.721250595,-0.01196286
1764434347.537321,-4.99002,1.1445,0.59514,-0.677793675,0.721250595,-0.01196286
1764434347.537321,-4.99002,1.1445,0.59514,-0.677793675,0.721250595,-0.01196286
1764434347.537321,-4.60852,1.6786,0.27468,-0.677671605,0.721860945,-0.011413545
1764434347.537321,-4.60852,1.6786,0.27468,-0.677671605,0.721860945,-0.011413545
1764434347.537321,-4.60852,1.6786,0.27468,-0.677671605,0.721860945,-0.011413545
1764434347.537321,-4.60852,1.6786,0.27468,-0.677671605,0.721860945,-0.011413545
1764434347.537321,-4.60852,1.6786,0.27468,-0.677671605,0.721860945,-0.011413545
1764434347.537321,-4.60852,1.6786,0.27468,-0.677671605,0.721860945,-0.011413545
1764434347.5822184,-4.60852,1.6786,0.27468,-0.677671605,0.721860945,-0.011413545
1764434347.5827577,-4.60852,1.6786,0.27468,-0.677671605,0.721860945,-0.011413545
1764434347.5827577,-4.60852,1.6786,0.27468,-0.677671605,0.721860945,-0.011413545
1764434347.5827577,-4.60852,1.6786,0.27468,-0.677671605,0.721860945,-0.011413545
1764434347.5827577,-4.97476,1.6022999999999998,0.54936,-0.67785471,0.72204405,-0.01110837
1764434347.5827577,-4.97476,1.6022999999999998,0.54936,-0.67785471,0.72204405,-0.01110837
1764434347.5827577,-4.97476,1.6022999999999998,0.54936,-0.67785471,0.72204405,-0.01110837
1764434347.5827577,-4.97476,1.6022999999999998,0.54936,-0.67785471,0.72204405,-0.01110837
1764434347.5827577,-4.97476,1.6022999999999998,0.54936,-0.67785471,0.72204405,-0.01110837
1764434347.5827577,-4.97476,1.6022999999999998,0.54936,-0.67785471,0.72204405,-0.01110837
1764434347.5827577,-4.97476,1.6022999999999998,0.54936,-0.67785471,0.72204405,-0.01110837
1764434347.5827577,-4.97476,1.6022999999999998,0.54936,-0.67785471,0.72204405,-0.01110837
1764434347.5827577,-4.97476,1.6022999999999998,0.54936,-0.67785471,0.72204405,-0.01110837
1764434347.583312,-4.97476,1.6022999999999998,0.54936,-0.67785471,0.72204405,-0.01110837
1764434347.583312,-4.13546,1.78542,0.3815,-0.676939185,0.722105085,-0.01049802
1764434347.583312,-4.13546,1.78542,0.3815,-0.676939185,0.722105085,-0.01049802
1764434347.583312,-4.13546,1.78542,0.3815,-0.676939185,0.722105085,-0.01049802
1764434347.583312,-4.13546,1.78542,0.3815,-0.676939185,0.722105085,-0.01049802
1764434347.583312,-4.13546,1.78542,0.3815,-0.676939185,0.722105085,-0.01049802
1764434347.583312,-4.13546,1.78542,0.3815,-0.676939185,0.722105085,-0.01049802
1764434347.627949,-4.13546,1.78542,0.3815,-0.676939185,0.722105085,-0.01049802
1764434347.627949,-4.13546,1.78542,0.3815,-0.676939185,0.722105085,-0.01049802
1764434347.627949,-4.13546,1.78542,0.3815,-0.676939185,0.722105085,-0.01049802
1764434347.627949,-4.13546,1.78542,0.3815,-0.676939185,0.722105085,-0.01049802
1764434347.627949,-4.07442,1.43444,0.3051999999999999,-0.67736643,0.72167784,-0.01037595
1764434347.627949,-4.07442,1.43444,0.3051999999999999,-0.67736643,0.72167784,-0.01037595
1764434347.627949,-4.07442,1.43444,0.3051999999999999,-0.67736643,0.72167784,-0.01037595
1764434347.627949,-4.07442,1.43444,0.3051999999999999,-0.67736643,0.72167784,-0.01037595
1764434347.627949,-4.07442,1.43444,0.3051999999999999,-0.67736643,0.72167784,-0.01037595
1764434347.627949,-4.07442,1.43444,0.3051999999999999,-0.67736643,0.72167784,-0.01037595
1764434347.627949,-4.07442,1.43444,0.3051999999999999,-0.67736643,0.72167784,-0.01037595
1764434347.627949,-4.07442,1.43444,0.3051999999999999,-0.67736643,0.72167784,-0.01037595
1764434347.627949,-4.07442,1.43444,0.3051999999999999,-0.67736643,0.72167784,-0.01037595
1764434347.627949,-4.07442,1.43444,0.3051999999999999,-0.67736643,0.72167784,-0.01037595
1764434347.627949,-3.69292,1.64808,0.47306,-0.676695045,0.720518175,-0.01000974
1764434347.627949,-3.69292,1.64808,0.47306,-0.676695045,0.720518175,-0.01000974
1764434347.627949,-3.69292,1.64808,0.47306,-0.676695045,0.720518175,-0.01000974
1764434347.627949,-3.69292,1.64808,0.47306,-0.676695045,0.720518175,-0.01000974
1764434347.6294875,-3.69292,1.64808,0.47306,-0.676695045,0.720518175,-0.01000974
1764434347.6294875,-3.69292,1.64808,0.47306,-0.676695045,0.720518175,-0.01000974
1764434347.6294875,-3.69292,1.64808,0.47306,-0.676695045,0.720518175,-0.01000974
1764434347.6294875,-3.69292,1.64808,0.47306,-0.676695045,0.720518175,-0.01000974
1764434347.6294875,-3.69292,1.64808,0.47306,-0.676695045,0.720518175,-0.01000974
1764434347.6294875,-3.69292,1.64808,0.47306,-0.676695045,0.720518175,-0.01000974
1764434347.6735568,-3.87604,1.70912,0.0,-0.67712229,0.7199078250000001,-0.010803195
1764434347.6735568,-3.87604,1.70912,0.0,-0.67712229,0.7199078250000001,-0.010803195
1764434347.6735568,-3.87604,1.70912,0.0,-0.67712229,0.7199078250000001,-0.010803195
1764434347.6735568,-3.87604,1.70912,0.0,-0.67712229,0.7199078250000001,-0.010803195
1764434347.6745763,-3.87604,1.70912,0.0,-0.67712229,0.7199078250000001,-0.010803195
1764434347.6745763,-3.87604,1.70912,0.0,-0.67712229,0.7199078250000001,-0.010803195
1764434347.6745763,-3.87604,1.70912,0.0,-0.67712229,0.7199078250000001,-0.010803195
1764434347.6745763,-3.87604,1.70912,0.0,-0.67712229,0.7199078250000001,-0.010803195
1764434347.6745763,-3.87604,1.70912,0.0,-0.67712229,0.7199078250000001,-0.010803195
1764434347.6745763,-3.87604,1.70912,0.0,-0.67712229,0.7199078250000001,-0.010803195
1764434347.6745763,-4.02864,1.64808,0.13734,-0.6774274650000001,0.71984679,-0.01074216
1764434347.6755698,-4.02864,1.64808,0.13734,-0.6774274650000001,0.71984679,-0.01074216
1764434347.6755698,-4.02864,1.64808,0.13734,-0.6774274650000001,0.71984679,-0.01074216
1764434347.676079,-4.02864,1.64808,0.13734,-0.6774274650000001,0.71984679,-0.01074216
1764434347.676079,-4.02864,1.64808,0.13734,-0.6774274650000001,0.71984679,-0.01074216
1764434347.676079,-4.02864,1.64808,0.13734,-0.6774274650000001,0.71984679,-0.01074216
1764434347.6770878,-4.02864,1.64808,0.13734,-0.6774274650000001,0.71984679,-0.01074216
1764434347.6770878,-4.02864,1.64808,0.13734,-0.6774274650000001,0.71984679,-0.01074216
1764434347.6770878,-4.02864,1.64808,0.13734,-0.6774274650000001,0.71984679,-0.01074216
1764434347.6770878,-4.02864,1.64808,0.13734,-0.6774274650000001,0.71984679,-0.01074216
1764434347.678091,-4.62378,1.48022,0.3509799999999999,-0.677793675,0.7199078250000001,-0.010681125
1764434347.678091,-4.62378,1.48022,0.3509799999999999,-0.677793675,0.7199078250000001,-0.010681125
1764434347.679089,-4.62378,1.48022,0.3509799999999999,-0.677793675,0.7199078250000001,-0.010681125
1764434347.679089,-4.62378,1.48022,0.3509799999999999,-0.677793675,0.7199078250000001,-0.010681125
1764434347.7231393,-4.62378,1.48022,0.3509799999999999,-0.677793675,0.7199078250000001,-0.010681125
1764434347.7231393,-4.62378,1.48022,0.3509799999999999,-0.677793675,0.7199078250000001,-0.010681125
1764434347.7231393,-4.62378,1.48022,0.3509799999999999,-0.677793675,0.7199078250000001,-0.010681125
1764434347.7246563,-4.62378,1.48022,0.3509799999999999,-0.677793675,0.7199078250000001,-0.010681125
1764434347.7246563,-4.62378,1.48022,0.3509799999999999,-0.677793675,0.7199078250000001,-0.010681125
1764434347.7246563,-4.62378,1.48022,0.3509799999999999,-0.677793675,0.7199078250000001,-0.010681125
1764434347.7246563,-4.01338,1.35814,0.39676,-0.6779767800000001,0.720640245,-0.01037595
1764434347.7246563,-4.01338,1.35814,0.39676,-0.6779767800000001,0.720640245,-0.01037595
1764434347.7246563,-4.01338,1.35814,0.39676,-0.6779767800000001,0.720640245,-0.01037595
1764434347.7246563,-4.01338,1.35814,0.39676,-0.6779767800000001,0.720640245,-0.01037595
1764434347.7246563,-4.01338,1.35814,0.39676,-0.6779767800000001,0.720640245,-0.01037595
1764434347.7246563,-4.01338,1.35814,0.39676,-0.6779767800000001,0.720640245,-0.01037595
1764434347.7246563,-4.01338,1.35814,0.39676,-0.6779767800000001,0.720640245,-0.01037595
1764434347.7246563,-4.01338,1.35814,0.39676,-0.6779767800000001,0.720640245,-0.01037595
1764434347.7246563,-4.01338,1.35814,0.39676,-0.6779767800000001,0.720640245,-0.01037595
1764434347.7246563,-4.01338,1.35814,0.39676,-0.6779767800000001,0.720640245,-0.01037595
1764434347.7246563,-3.8913,1.526,0.62566,-0.677061255,0.72155577,-0.010559055
1764434347.7246563,-3.8913,1.526,0.62566,-0.677061255,0.72155577,-0.010559055
1764434347.7246563,-3.8913,1.526,0.62566,-0.677061255,0.72155577,-0.010559055
1764434347.7246563,-3.8913,1.526,0.62566,-0.677061255,0.72155577,-0.010559055
1764434347.7246563,-3.8913,1.526,0.62566,-0.677061255,0.72155577,-0.010559055
1764434347.7246563,-3.8913,1.526,0.62566,-0.677061255,0.72155577,-0.010559055
1764434347.7246563,-3.8913,1.526,0.62566,-0.677061255,0.72155577,-0.010559055
1764434347.7246563,-3.8913,1.526,0.62566,-0.677061255,0.72155577,-0.010559055
1764434347.768576,-3.8913,1.526,0.62566,-0.677061255,0.72155577,-0.010559055
1764434347.768576,-3.8913,1.526,0.62566,-0.677061255,0.72155577,-0.010559055
1764434347.7695775,-4.21176,1.4039199999999998,0.3051999999999999,-0.67700022,0.721250595,-0.01159665
1764434347.7695775,-4.21176,1.4039199999999998,0.3051999999999999,-0.67700022,0.721250595,-0.01159665
1764434347.7695775,-4.21176,1.4039199999999998,0.3051999999999999,-0.67700022,0.721250595,-0.01159665
1764434347.7695775,-4.21176,1.4039199999999998,0.3051999999999999,-0.67700022,0.721250595,-0.01159665
1764434347.7695775,-4.21176,1.4039199999999998,0.3051999999999999,-0.67700022,0.721250595,-0.01159665
1764434347.7695775,-4.21176,1.4039199999999998,0.3051999999999999,-0.67700022,0.721250595,-0.01159665
1764434347.7695775,-4.21176,1.4039199999999998,0.3051999999999999,-0.67700022,0.721250595,-0.01159665
1764434347.7695775,-4.21176,1.4039199999999998,0.3051999999999999,-0.67700022,0.721250595,-0.01159665
1764434347.7695775,-4.21176,1.4039199999999998,0.3051999999999999,-0.67700022,0.721250595,-0.01159665
1764434347.7705722,-4.21176,1.4039199999999998,0.3051999999999999,-0.67700022,0.721250595,-0.01159665
1764434347.7705722,-4.83742,1.51074,0.01526,-0.677061255,0.720884385,-0.011291475
1764434347.7705722,-4.83742,1.51074,0.01526,-0.677061255,0.720884385,-0.011291475
1764434347.7705722,-4.83742,1.51074,0.01526,-0.677061255,0.720884385,-0.011291475
1764434347.7705722,-4.83742,1.51074,0.01526,-0.677061255,0.720884385,-0.011291475
1764434347.7705722,-4.83742,1.51074,0.01526,-0.677061255,0.720884385,-0.011291475
1764434347.7705722,-4.83742,1.51074,0.01526,-0.677061255,0.720884385,-0.011291475
1764434347.7705722,-4.83742,1.51074,0.01526,-0.677061255,0.720884385,-0.011291475
1764434347.7705722,-4.83742,1.51074,0.01526,-0.677061255,0.720884385,-0.011291475
1764434347.8165388,-4.83742,1.51074,0.01526,-0.677061255,0.720884385,-0.011291475
1764434347.8165388,-4.83742,1.51074,0.01526,-0.677061255,0.720884385,-0.011291475
1764434347.817048,-5.52412,1.34288,0.13734,-0.67687815,0.72057921,-0.01208493
1764434347.817048,-5.52412,1.34288,0.13734,-0.67687815,0.72057921,-0.01208493
1764434347.817048,-5.52412,1.34288,0.13734,-0.67687815,0.72057921,-0.01208493
1764434347.817048,-5.52412,1.34288,0.13734,-0.67687815,0.72057921,-0.01208493
1764434347.817048,-5.52412,1.34288,0.13734,-0.67687815,0.72057921,-0.01208493
1764434347.817048,-5.52412,1.34288,0.13734,-0.67687815,0.72057921,-0.01208493
1764434347.817048,-5.52412,1.34288,0.13734,-0.67687815,0.72057921,-0.01208493
1764434347.817048,-5.52412,1.34288,0.13734,-0.67687815,0.72057921,-0.01208493
1764434347.817048,-5.52412,1.34288,0.13734,-0.67687815,0.72057921,-0.01208493
1764434347.817048,-5.52412,1.34288,0.13734,-0.67687815,0.72057921,-0.01208493
1764434347.817048,-5.40204,1.2208,-0.03052,-0.67663401,0.720884385,-0.012023895
1764434347.817048,-5.40204,1.2208,-0.03052,-0.67663401,0.720884385,-0.012023895
1764434347.817048,-5.40204,1.2208,-0.03052,-0.67663401,0.720884385,-0.012023895
1764434347.817048,-5.40204,1.2208,-0.03052,-0.67663401,0.720884385,-0.012023895
1764434347.817048,-5.40204,1.2208,-0.03052,-0.67663401,0.720884385,-0.012023895
1764434347.817048,-5.40204,1.2208,-0.03052,-0.67663401,0.720884385,-0.012023895
1764434347.817048,-5.40204,1.2208,-0.03052,-0.67663401,0.720884385,-0.012023895
1764434347.817048,-5.40204,1.2208,-0.03052,-0.67663401,0.720884385,-0.012023895
1764434347.817048,-5.40204,1.2208,-0.03052,-0.67663401,0.720884385,-0.012023895
1764434347.817048,-5.40204,1.2208,-0.03052,-0.67663401,0.720884385,-0.012023895
1764434347.817048,-5.44782,1.4039199999999998,0.19838,-0.67712229,0.72106749,-0.01208493
1764434347.817048,-5.44782,1.4039199999999998,0.19838,-0.67712229,0.72106749,-0.01208493
1764434347.8608823,-5.44782,1.4039199999999998,0.19838,-0.67712229,0.72106749,-0.01208493
1764434347.8608823,-5.44782,1.4039199999999998,0.19838,-0.67712229,0.72106749,-0.01208493
1764434347.8608823,-5.44782,1.4039199999999998,0.19838,-0.67712229,0.72106749,-0.01208493
1764434347.8608823,-5.44782,1.4039199999999998,0.19838,-0.67712229,0.72106749,-0.01208493
1764434347.8608823,-5.44782,1.4039199999999998,0.19838,-0.67712229,0.72106749,-0.01208493
1764434347.8608823,-5.44782,1.4039199999999998,0.19838,-0.67712229,0.72106749,-0.01208493
1764434347.8608823,-5.44782,1.4039199999999998,0.19838,-0.67712229,0.72106749,-0.01208493
1764434347.8608823,-5.44782,1.4039199999999998,0.19838,-0.67712229,0.72106749,-0.01208493
1764434347.8608823,-5.371519999999999,1.78542,0.3051999999999999,-0.6774885,0.720151965,-0.01074216
1764434347.8608823,-5.371519999999999,1.78542,0.3051999999999999,-0.6774885,0.720151965,-0.01074216
1764434347.8608823,-5.371519999999999,1.78542,0.3051999999999999,-0.6774885,0.720151965,-0.01074216
1764434347.8608823,-5.371519999999999,1.78542,0.3051999999999999,-0.6774885,0.720151965,-0.01074216
1764434347.8608823,-5.371519999999999,1.78542,0.3051999999999999,-0.6774885,0.720151965,-0.01074216
1764434347.8608823,-5.371519999999999,1.78542,0.3051999999999999,-0.6774885,0.720151965,-0.01074216
1764434347.8608823,-5.371519999999999,1.78542,0.3051999999999999,-0.6774885,0.720151965,-0.01074216
1764434347.8608823,-5.371519999999999,1.78542,0.3051999999999999,-0.6774885,0.720151965,-0.01074216
1764434347.8608823,-5.371519999999999,1.78542,0.3051999999999999,-0.6774885,0.720151965,-0.01074216
1764434347.8608823,-5.371519999999999,1.78542,0.3051999999999999,-0.6774885,0.720151965,-0.01074216
1764434347.8608823,-5.08158,1.58704,0.44254,-0.677793675,0.72009093,-0.00939939
1764434347.8608823,-5.08158,1.58704,0.44254,-0.677793675,0.72009093,-0.00939939
1764434347.8608823,-5.08158,1.58704,0.44254,-0.677793675,0.72009093,-0.00939939
1764434347.8608823,-5.08158,1.58704,0.44254,-0.677793675,0.72009093,-0.00939939
1764434347.8608823,-5.08158,1.58704,0.44254,-0.677793675,0.72009093,-0.00939939
1764434347.8608823,-5.08158,1.58704,0.44254,-0.677793675,0.72009093,-0.00939939
1764434347.9048936,-5.08158,1.58704,0.44254,-0.677793675,0.72009093,-0.00939939
1764434347.9048936,-5.08158,1.58704,0.44254,-0.677793675,0.72009093,-0.00939939
1764434347.9048936,-5.08158,1.58704,0.44254,-0.677793675,0.72009093,-0.00939939
1764434347.9048936,-5.08158,1.58704,0.44254,-0.677793675,0.72009093,-0.00939939
1764434347.9054265,-4.48644,1.48022,0.51884,-0.67736643,0.72009093,-0.010070775
1764434347.9054265,-4.48644,1.48022,0.51884,-0.67736643,0.72009093,-0.010070775
1764434347.9054265,-4.48644,1.48022,0.51884,-0.67736643,0.72009093,-0.010070775
1764434347.9054265,-4.48644,1.48022,0.51884,-0.67736643,0.72009093,-0.010070775
1764434347.9054265,-4.48644,1.48022,0.51884,-0.67736643,0.72009093,-0.010070775
1764434347.9054265,-4.48644,1.48022,0.51884,-0.67736643,0.72009093,-0.010070775
1764434347.9054265,-4.48644,1.48022,0.51884,-0.67736643,0.72009093,-0.010070775
1764434347.9054265,-4.48644,1.48022,0.51884,-0.67736643,0.72009093,-0.010070775
1764434347.9054265,-4.48644,1.48022,0.51884,-0.67736643,0.72009093,-0.010070775
1764434347.9054265,-4.48644,1.48022,0.51884,-0.67736643,0.72009093,-0.010070775
1764434347.9054265,-4.31858,1.6022999999999998,0.6714399999999999,-0.67675608,0.72082335,-0.01037595
1764434347.9054265,-4.31858,1.6022999999999998,0.6714399999999999,-0.67675608,0.72082335,-0.01037595
1764434347.9054265,-4.31858,1.6022999999999998,0.6714399999999999,-0.67675608,0.72082335,-0.01037595
1764434347.9054265,-4.31858,1.6022999999999998,0.6714399999999999,-0.67675608,0.72082335,-0.01037595
1764434347.9064388,-4.31858,1.6022999999999998,0.6714399999999999,-0.67675608,0.72082335,-0.01037595
1764434347.9064388,-4.31858,1.6022999999999998,0.6714399999999999,-0.67675608,0.72082335,-0.01037595
1764434347.9064388,-4.31858,1.6022999999999998,0.6714399999999999,-0.67675608,0.72082335,-0.01037595
1764434347.9064388,-4.31858,1.6022999999999998,0.6714399999999999,-0.67675608,0.72082335,-0.01037595
1764434347.9064388,-4.31858,1.6022999999999998,0.6714399999999999,-0.67675608,0.72082335,-0.01037595
1764434347.9064388,-4.31858,1.6022999999999998,0.6714399999999999,-0.67675608,0.72082335,-0.01037595
1764434347.9522789,-4.94424,1.72438,0.9156,-0.677061255,0.72118956,-0.010681125
1764434347.9522789,-4.94424,1.72438,0.9156,-0.677061255,0.72118956,-0.010681125
1764434347.9522789,-4.94424,1.72438,0.9156,-0.677061255,0.72118956,-0.010681125
1764434347.9522789,-4.94424,1.72438,0.9156,-0.677061255,0.72118956,-0.010681125
1764434347.9522789,-4.94424,1.72438,0.9156,-0.677061255,0.72118956,-0.010681125
1764434347.9522789,-4.94424,1.72438,0.9156,-0.677061255,0.72118956,-0.010681125
1764434347.9532957,-4.94424,1.72438,0.9156,-0.677061255,0.72118956,-0.010681125
1764434347.9543004,-4.94424,1.72438,0.9156,-0.677061255,0.72118956,-0.010681125
1764434347.9543004,-4.94424,1.72438,0.9156,-0.677061255,0.72118956,-0.010681125
1764434347.9543004,-4.94424,1.72438,0.9156,-0.677061255,0.72118956,-0.010681125
1764434347.9543004,-4.83742,1.64808,0.24416,-0.67675608,0.721006455,-0.010681125
1764434347.9543004,-4.83742,1.64808,0.24416,-0.67675608,0.721006455,-0.010681125
1764434347.9543004,-4.83742,1.64808,0.24416,-0.67675608,0.721006455,-0.010681125
1764434347.9543004,-4.83742,1.64808,0.24416,-0.67675608,0.721006455,-0.010681125
1764434347.9543004,-4.83742,1.64808,0.24416,-0.67675608,0.721006455,-0.010681125
1764434347.9543004,-4.83742,1.64808,0.24416,-0.67675608,0.721006455,-0.010681125
1764434347.9543004,-4.83742,1.64808,0.24416,-0.67675608,0.721006455,-0.010681125
1764434347.9543004,-4.83742,1.64808,0.24416,-0.67675608,0.721006455,-0.010681125
1764434347.9543004,-4.83742,1.64808,0.24416,-0.67675608,0.721006455,-0.010681125
1764434347.9543004,-4.83742,1.64808,0.24416,-0.67675608,0.721006455,-0.010681125
1764434347.9543004,-4.62378,1.81594,0.5341,-0.67687815,0.721006455,-0.009826635
1764434347.9543004,-4.62378,1.81594,0.5341,-0.67687815,0.721006455,-0.009826635
1764434348.0001316,-4.62378,1.81594,0.5341,-0.67687815,0.721006455,-0.009826635
1764434348.0001316,-4.62378,1.81594,0.5341,-0.67687815,0.721006455,-0.009826635
1764434348.0001316,-4.62378,1.81594,0.5341,-0.67687815,0.721006455,-0.009826635
1764434348.0001316,-4.62378,1.81594,0.5341,-0.67687815,0.721006455,-0.009826635
1764434348.0001316,-4.62378,1.81594,0.5341,-0.67687815,0.721006455,-0.009826635
1764434348.0001316,-4.62378,1.81594,0.5341,-0.67687815,0.721006455,-0.009826635
1764434348.0001316,-4.62378,1.81594,0.5341,-0.67687815,0.721006455,-0.009826635
1764434348.0001316,-4.62378,1.81594,0.5341,-0.67687815,0.721006455,-0.009826635
1764434348.0001316,-4.47118,1.526,0.27468,-0.676695045,0.72131163,-0.009460425
1764434348.0001316,-4.47118,1.526,0.27468,-0.676695045,0.72131163,-0.009460425
1764434348.0001316,-4.47118,1.526,0.27468,-0.676695045,0.72131163,-0.009460425
1764434348.0001316,-4.47118,1.526,0.27468,-0.676695045,0.72131163,-0.009460425
1764434348.0001316,-4.47118,1.526,0.27468,-0.676695045,0.72131163,-0.009460425
1764434348.0001316,-4.47118,1.526,0.27468,-0.676695045,0.72131163,-0.009460425
1764434348.0001316,-4.47118,1.526,0.27468,-0.676695045,0.72131163,-0.009460425
1764434348.0001316,-4.47118,1.526,0.27468,-0.676695045,0.72131163,-0.009460425
1764434348.0001316,-4.47118,1.526,0.27468,-0.676695045,0.72131163,-0.009460425
1764434348.0001316,-4.47118,1.526,0.27468,-0.676695045,0.72131163,-0.009460425
1764434348.0001316,-4.1965,1.00716,0.1525999999999999,-0.6763898700000001,0.721372665,-0.00891111
1764434348.0001316,-4.1965,1.00716,0.1525999999999999,-0.6763898700000001,0.721372665,-0.00891111
1764434348.0001316,-4.1965,1.00716,0.1525999999999999,-0.6763898700000001,0.721372665,-0.00891111
1764434348.0001316,-4.1965,1.00716,0.1525999999999999,-0.6763898700000001,0.721372665,-0.00891111
1764434348.0450945,-4.1965,1.00716,0.1525999999999999,-0.6763898700000001,0.721372665,-0.00891111
1764434348.0450945,-4.1965,1.00716,0.1525999999999999,-0.6763898700000001,0.721372665,-0.00891111
1764434348.0450945,-4.1965,1.00716,0.1525999999999999,-0.6763898700000001,0.721372665,-0.00891111
1764434348.0450945,-4.1965,1.00716,0.1525999999999999,-0.6763898700000001,0.721372665,-0.00891111
1764434348.0450945,-4.1965,1.00716,0.1525999999999999,-0.6763898700000001,0.721372665,-0.00891111
1764434348.0450945,-4.1965,1.00716,0.1525999999999999,-0.6763898700000001,0.721372665,-0.00891111
1764434348.0450945,-4.24228,1.31236,-0.03052,-0.676695045,0.721250595,-0.008972145
1764434348.0450945,-4.24228,1.31236,-0.03052,-0.676695045,0.721250595,-0.008972145
1764434348.0450945,-4.24228,1.31236,-0.03052,-0.676695045,0.721250595,-0.008972145
1764434348.0450945,-4.24228,1.31236,-0.03052,-0.676695045,0.721250595,-0.008972145
1764434348.0450945,-4.24228,1.31236,-0.03052,-0.676695045,0.721250595,-0.008972145
1764434348.0466027,-4.24228,1.31236,-0.03052,-0.676695045,0.721250595,-0.008972145
1764434348.0466027,-4.24228,1.31236,-0.03052,-0.676695045,0.721250595,-0.008972145
1764434348.0466027,-4.24228,1.31236,-0.03052,-0.676695045,0.721250595,-0.008972145
1764434348.0466027,-4.24228,1.31236,-0.03052,-0.676695045,0.721250595,-0.008972145
1764434348.0466027,-4.24228,1.31236,-0.03052,-0.676695045,0.721250595,-0.008972145
1764434348.0466027,-4.21176,1.2971,0.06104,-0.676939185,0.72106749,-0.00964353
1764434348.0466027,-4.21176,1.2971,0.06104,-0.676939185,0.72106749,-0.00964353
1764434348.0466027,-4.21176,1.2971,0.06104,-0.676939185,0.72106749,-0.00964353
1764434348.0466027,-4.21176,1.2971,0.06104,-0.676939185,0.72106749,-0.00964353
1764434348.048136,-4.21176,1.2971,0.06104,-0.676939185,0.72106749,-0.00964353
1764434348.048136,-4.21176,1.2971,0.06104,-0.676939185,0.72106749,-0.00964353
1764434348.0486145,-4.21176,1.2971,0.06104,-0.676939185,0.72106749,-0.00964353
1764434348.0486145,-4.21176,1.2971,0.06104,-0.676939185,0.72106749,-0.00964353
1764434348.0928817,-4.21176,1.2971,0.06104,-0.676939185,0.72106749,-0.00964353
1764434348.0928817,-4.21176,1.2971,0.06104,-0.676939185,0.72106749,-0.00964353
1764434348.0928817,-4.18124,1.4039199999999998,-0.04578,-0.67785471,0.72106749,-0.01037595
1764434348.0928817,-4.18124,1.4039199999999998,-0.04578,-0.67785471,0.72106749,-0.01037595
1764434348.0928817,-4.18124,1.4039199999999998,-0.04578,-0.67785471,0.72106749,-0.01037595
1764434348.0928817,-4.18124,1.4039199999999998,-0.04578,-0.67785471,0.72106749,-0.01037595
1764434348.0928817,-4.18124,1.4039199999999998,-0.04578,-0.67785471,0.72106749,-0.01037595
1764434348.0928817,-4.18124,1.4039199999999998,-0.04578,-0.67785471,0.72106749,-0.01037595
1764434348.0928817,-4.18124,1.4039199999999998,-0.04578,-0.67785471,0.72106749,-0.01037595
1764434348.0928817,-4.18124,1.4039199999999998,-0.04578,-0.67785471,0.72106749,-0.01037595
1764434348.0928817,-4.18124,1.4039199999999998,-0.04578,-0.67785471,0.72106749,-0.01037595
1764434348.0928817,-4.18124,1.4039199999999998,-0.04578,-0.67785471,0.72106749,-0.01037595
1764434348.0928817,-4.440659999999999,1.49548,-0.03052,-0.677793675,0.721250595,-0.010314915
1764434348.0928817,-4.440659999999999,1.49548,-0.03052,-0.677793675,0.721250595,-0.010314915
1764434348.0928817,-4.440659999999999,1.49548,-0.03052,-0.677793675,0.721250595,-0.010314915
1764434348.0928817,-4.440659999999999,1.49548,-0.03052,-0.677793675,0.721250595,-0.010314915
1764434348.0928817,-4.440659999999999,1.49548,-0.03052,-0.677793675,0.721250595,-0.010314915
1764434348.0928817,-4.440659999999999,1.49548,-0.03052,-0.677793675,0.721250595,-0.010314915
1764434348.0944405,-4.440659999999999,1.49548,-0.03052,-0.677793675,0.721250595,-0.010314915
1764434348.0944405,-4.440659999999999,1.49548,-0.03052,-0.677793675,0.721250595,-0.010314915
1764434348.0944405,-4.440659999999999,1.49548,-0.03052,-0.677793675,0.721250595,-0.010314915
1764434348.0944405,-4.440659999999999,1.49548,-0.03052,-0.677793675,0.721250595,-0.010314915
1764434348.139935,-4.18124,1.4497,0.18312,-0.6779767800000001,0.721006455,-0.01074216
1764434348.139935,-4.18124,1.4497,0.18312,-0.6779767800000001,0.721006455,-0.01074216
1764434348.139935,-4.18124,1.4497,0.18312,-0.6779767800000001,0.721006455,-0.01074216
1764434348.139935,-4.18124,1.4497,0.18312,-0.6779767800000001,0.721006455,-0.01074216
1764434348.139935,-4.18124,1.4497,0.18312,-0.6779767800000001,0.721006455,-0.01074216
1764434348.139935,-4.18124,1.4497,0.18312,-0.6779767800000001,0.721006455,-0.01074216
1764434348.139935,-4.18124,1.4497,0.18312,-0.6779767800000001,0.721006455,-0.01074216
1764434348.139935,-4.18124,1.4497,0.18312,-0.6779767800000001,0.721006455,-0.01074216
1764434348.139935,-4.18124,1.4497,0.18312,-0.6779767800000001,0.721006455,-0.01074216
1764434348.139935,-4.18124,1.4497,0.18312,-0.6779767800000001,0.721006455,-0.01074216
1764434348.139935,-4.577999999999999,1.58704,0.25942,-0.678526095,0.72057921,-0.010192845
1764434348.139935,-4.577999999999999,1.58704,0.25942,-0.678526095,0.72057921,-0.010192845
1764434348.139935,-4.577999999999999,1.58704,0.25942,-0.678526095,0.72057921,-0.010192845
1764434348.139935,-4.577999999999999,1.58704,0.25942,-0.678526095,0.72057921,-0.010192845
1764434348.139935,-4.577999999999999,1.58704,0.25942,-0.678526095,0.72057921,-0.010192845
1764434348.139935,-4.577999999999999,1.58704,0.25942,-0.678526095,0.72057921,-0.010192845
1764434348.139935,-4.577999999999999,1.58704,0.25942,-0.678526095,0.72057921,-0.010192845
1764434348.139935,-4.577999999999999,1.58704,0.25942,-0.678526095,0.72057921,-0.010192845
1764434348.139935,-4.577999999999999,1.58704,0.25942,-0.678526095,0.72057921,-0.010192845
1764434348.139935,-4.577999999999999,1.58704,0.25942,-0.678526095,0.72057921,-0.010192845
1764434348.139935,-4.94424,1.8312,0.6867,-0.6779767800000001,0.72057921,-0.010192845
1764434348.139935,-4.94424,1.8312,0.6867,-0.6779767800000001,0.72057921,-0.010192845
1764434348.139935,-4.94424,1.8312,0.6867,-0.6779767800000001,0.72057921,-0.010192845
1764434348.139935,-4.94424,1.8312,0.6867,-0.6779767800000001,0.72057921,-0.010192845
1764434348.1854196,-4.94424,1.8312,0.6867,-0.6779767800000001,0.72057921,-0.010192845
1764434348.1854196,-4.94424,1.8312,0.6867,-0.6779767800000001,0.72057921,-0.010192845
1764434348.1854196,-4.94424,1.8312,0.6867,-0.6779767800000001,0.72057921,-0.010192845
1764434348.1854196,-4.94424,1.8312,0.6867,-0.6779767800000001,0.72057921,-0.010192845
1764434348.186421,-4.94424,1.8312,0.6867,-0.6779767800000001,0.72057921,-0.010192845
1764434348.186421,-4.94424,1.8312,0.6867,-0.6779767800000001,0.72057921,-0.010192845
1764434348.186421,-4.83742,1.72438,0.8392999999999999,-0.677549535,0.721250595,-0.010559055
1764434348.186421,-4.83742,1.72438,0.8392999999999999,-0.677549535,0.721250595,-0.010559055
1764434348.186421,-4.83742,1.72438,0.8392999999999999,-0.677549535,0.721250595,-0.010559055
1764434348.186421,-4.83742,1.72438,0.8392999999999999,-0.677549535,0.721250595,-0.010559055
1764434348.186421,-4.83742,1.72438,0.8392999999999999,-0.677549535,0.721250595,-0.010559055
1764434348.186421,-4.83742,1.72438,0.8392999999999999,-0.677549535,0.721250595,-0.010559055
1764434348.186421,-4.83742,1.72438,0.8392999999999999,-0.677549535,0.721250595,-0.010559055
1764434348.1875062,-4.83742,1.72438,0.8392999999999999,-0.677549535,0.721250595,-0.010559055
1764434348.1875062,-4.83742,1.72438,0.8392999999999999,-0.677549535,0.721250595,-0.010559055
1764434348.1875062,-4.83742,1.72438,0.8392999999999999,-0.677549535,0.721250595,-0.010559055
1764434348.1875062,-4.77638,1.31236,0.27468,-0.677183325,0.721006455,-0.01025388
1764434348.1875062,-4.77638,1.31236,0.27468,-0.677183325,0.721006455,-0.01025388
1764434348.1875062,-4.77638,1.31236,0.27468,-0.677183325,0.721006455,-0.01025388
1764434348.1875062,-4.77638,1.31236,0.27468,-0.677183325,0.721006455,-0.01025388
1764434348.1875062,-4.77638,1.31236,0.27468,-0.677183325,0.721006455,-0.01025388
1764434348.1875062,-4.77638,1.31236,0.27468,-0.677183325,0.721006455,-0.01025388
1764434348.1885068,-4.77638,1.31236,0.27468,-0.677183325,0.721006455,-0.01025388
1764434348.1885068,-4.77638,1.31236,0.27468,-0.677183325,0.721006455,-0.01025388
1764434348.2291384,-4.77638,1.31236,0.27468,-0.677183325,0.721006455,-0.01025388
1764434348.2291384,-4.77638,1.31236,0.27468,-0.677183325,0.721006455,-0.01025388
1764434348.2291384,-5.02054,1.96854,0.3204599999999999,-0.67724436,0.721128525,-0.00988767
1764434348.2291384,-5.02054,1.96854,0.3204599999999999,-0.67724436,0.721128525,-0.00988767
1764434348.2291384,-5.02054,1.96854,0.3204599999999999,-0.67724436,0.721128525,-0.00988767
1764434348.2291384,-5.02054,1.96854,0.3204599999999999,-0.67724436,0.721128525,-0.00988767
1764434348.2291384,-5.02054,1.96854,0.3204599999999999,-0.67724436,0.721128525,-0.00988767
1764434348.2291384,-5.02054,1.96854,0.3204599999999999,-0.67724436,0.721128525,-0.00988767
1764434348.2291384,-5.02054,1.96854,0.3204599999999999,-0.67724436,0.721128525,-0.00988767
1764434348.2291384,-5.02054,1.96854,0.3204599999999999,-0.67724436,0.721128525,-0.00988767
1764434348.2301524,-5.02054,1.96854,0.3204599999999999,-0.67724436,0.721128525,-0.00988767
1764434348.2301524,-5.02054,1.96854,0.3204599999999999,-0.67724436,0.721128525,-0.00988767
1764434348.2301524,-4.5017,1.38866,-0.03052,-0.676939185,0.721738875,-0.010192845
1764434348.2301524,-4.5017,1.38866,-0.03052,-0.676939185,0.721738875,-0.010192845
1764434348.2301524,-4.5017,1.38866,-0.03052,-0.676939185,0.721738875,-0.010192845
1764434348.2301524,-4.5017,1.38866,-0.03052,-0.676939185,0.721738875,-0.010192845
1764434348.2301524,-4.5017,1.38866,-0.03052,-0.676939185,0.721738875,-0.010192845
1764434348.2301524,-4.5017,1.38866,-0.03052,-0.676939185,0.721738875,-0.010192845
1764434348.2301524,-4.5017,1.38866,-0.03052,-0.676939185,0.721738875,-0.010192845
1764434348.2301524,-4.5017,1.38866,-0.03052,-0.676939185,0.721738875,-0.010192845
1764434348.2301524,-4.5017,1.38866,-0.03052,-0.676939185,0.721738875,-0.010192845
1764434348.2301524,-4.5017,1.38866,-0.03052,-0.676939185,0.721738875,-0.010192845
1764434348.2800052,-4.59326,1.55652,-0.1678599999999999,-0.677305395,0.72118956,-0.009338355
1764434348.2800052,-4.59326,1.55652,-0.1678599999999999,-0.677305395,0.72118956,-0.009338355
1764434348.2800052,-4.59326,1.55652,-0.1678599999999999,-0.677305395,0.72118956,-0.009338355
1764434348.2800052,-4.59326,1.55652,-0.1678599999999999,-0.677305395,0.72118956,-0.009338355
1764434348.280516,-4.59326,1.55652,-0.1678599999999999,-0.677305395,0.72118956,-0.009338355
1764434348.280516,-4.59326,1.55652,-0.1678599999999999,-0.677305395,0.72118956,-0.009338355
1764434348.280516,-4.59326,1.55652,-0.1678599999999999,-0.677305395,0.72118956,-0.009338355
1764434348.280516,-4.59326,1.55652,-0.1678599999999999,-0.677305395,0.72118956,-0.009338355
1764434348.280516,-4.59326,1.55652,-0.1678599999999999,-0.677305395,0.72118956,-0.009338355
1764434348.280516,-4.59326,1.55652,-0.1678599999999999,-0.677305395,0.72118956,-0.009338355
1764434348.280516,-4.63904,1.25132,0.09156,-0.67736643,0.7209454200000001,-0.00915525
1764434348.280516,-4.63904,1.25132,0.09156,-0.67736643,0.7209454200000001,-0.00915525
1764434348.280516,-4.63904,1.25132,0.09156,-0.67736643,0.7209454200000001,-0.00915525
1764434348.280516,-4.63904,1.25132,0.09156,-0.67736643,0.7209454200000001,-0.00915525
1764434348.280516,-4.63904,1.25132,0.09156,-0.67736643,0.7209454200000001,-0.00915525
1764434348.280516,-4.63904,1.25132,0.09156,-0.67736643,0.7209454200000001,-0.00915525
1764434348.280516,-4.63904,1.25132,0.09156,-0.67736643,0.7209454200000001,-0.00915525
1764434348.280516,-4.63904,1.25132,0.09156,-0.67736643,0.7209454200000001,-0.00915525
1764434348.280516,-4.63904,1.25132,0.09156,-0.67736643,0.7209454200000001,-0.00915525
1764434348.280516,-4.63904,1.25132,0.09156,-0.67736643,0.7209454200000001,-0.00915525
1764434348.280516,-4.18124,1.63282,0.24416,-0.677549535,0.72106749,-0.009216285
1764434348.280516,-4.18124,1.63282,0.24416,-0.677549535,0.72106749,-0.009216285
1764434348.280516,-4.18124,1.63282,0.24416,-0.677549535,0.72106749,-0.009216285
1764434348.280516,-4.18124,1.63282,0.24416,-0.677549535,0.72106749,-0.009216285
1764434348.3240852,-4.18124,1.63282,0.24416,-0.677549535,0.72106749,-0.009216285
1764434348.3240852,-4.18124,1.63282,0.24416,-0.677549535,0.72106749,-0.009216285
1764434348.3240852,-4.18124,1.63282,0.24416,-0.677549535,0.72106749,-0.009216285
1764434348.3240852,-4.18124,1.63282,0.24416,-0.677549535,0.72106749,-0.009216285
1764434348.3240852,-4.18124,1.63282,0.24416,-0.677549535,0.72106749,-0.009216285
1764434348.3245945,-4.18124,1.63282,0.24416,-0.677549535,0.72106749,-0.009216285
1764434348.3245945,-4.31858,1.35814,0.27468,-0.67724436,0.721006455,-0.009704565
1764434348.3245945,-4.31858,1.35814,0.27468,-0.67724436,0.721006455,-0.009704565
1764434348.3245945,-4.31858,1.35814,0.27468,-0.67724436,0.721006455,-0.009704565
1764434348.3245945,-4.31858,1.35814,0.27468,-0.67724436,0.721006455,-0.009704565
1764434348.3245945,-4.31858,1.35814,0.27468,-0.67724436,0.721006455,-0.009704565
1764434348.3245945,-4.31858,1.35814,0.27468,-0.67724436,0.721006455,-0.009704565
1764434348.3245945,-4.31858,1.35814,0.27468,-0.67724436,0.721006455,-0.009704565
1764434348.3245945,-4.31858,1.35814,0.27468,-0.67724436,0.721006455,-0.009704565
1764434348.3245945,-4.31858,1.35814,0.27468,-0.67724436,0.721006455,-0.009704565
1764434348.3245945,-4.31858,1.35814,0.27468,-0.67724436,0.721006455,-0.009704565
1764434348.3245945,-4.16598,1.35814,0.0,-0.677671605,0.72070128,-0.009704565
1764434348.3245945,-4.16598,1.35814,0.0,-0.677671605,0.72070128,-0.009704565
1764434348.3245945,-4.16598,1.35814,0.0,-0.677671605,0.72070128,-0.009704565
1764434348.3245945,-4.16598,1.35814,0.0,-0.677671605,0.72070128,-0.009704565
1764434348.3245945,-4.16598,1.35814,0.0,-0.677671605,0.72070128,-0.009704565
1764434348.3245945,-4.16598,1.35814,0.0,-0.677671605,0.72070128,-0.009704565
1764434348.3245945,-4.16598,1.35814,0.0,-0.677671605,0.72070128,-0.009704565
1764434348.3245945,-4.16598,1.35814,0.0,-0.677671605,0.72070128,-0.009704565
1764434348.3717744,-4.16598,1.35814,0.0,-0.677671605,0.72070128,-0.009704565
1764434348.3717744,-4.16598,1.35814,0.0,-0.677671605,0.72070128,-0.009704565
1764434348.3717744,-4.77638,1.15976,0.18312,-0.677915745,0.72070128,-0.010559055
1764434348.3717744,-4.77638,1.15976,0.18312,-0.677915745,0.72070128,-0.010559055
1764434348.3717744,-4.77638,1.15976,0.18312,-0.677915745,0.72070128,-0.010559055
1764434348.3717744,-4.77638,1.15976,0.18312,-0.677915745,0.72070128,-0.010559055
1764434348.3717744,-4.77638,1.15976,0.18312,-0.677915745,0.72070128,-0.010559055
1764434348.3717744,-4.77638,1.15976,0.18312,-0.677915745,0.72070128,-0.010559055
1764434348.3717744,-4.77638,1.15976,0.18312,-0.677915745,0.72070128,-0.010559055
1764434348.3717744,-4.77638,1.15976,0.18312,-0.677915745,0.72070128,-0.010559055
1764434348.3717744,-4.77638,1.15976,0.18312,-0.677915745,0.72070128,-0.010559055
1764434348.3717744,-4.77638,1.15976,0.18312,-0.677915745,0.72070128,-0.010559055
1764434348.3732982,-4.440659999999999,1.92276,0.25942,-0.6784650600000001,0.72045714,-0.00988767
1764434348.3732982,-4.440659999999999,1.92276,0.25942,-0.6784650600000001,0.72045714,-0.00988767
1764434348.3732982,-4.440659999999999,1.92276,0.25942,-0.6784650600000001,0.72045714,-0.00988767
1764434348.3732982,-4.440659999999999,1.92276,0.25942,-0.6784650600000001,0.72045714,-0.00988767
1764434348.3732982,-4.440659999999999,1.92276,0.25942,-0.6784650600000001,0.72045714,-0.00988767
1764434348.3732982,-4.440659999999999,1.92276,0.25942,-0.6784650600000001,0.72045714,-0.00988767
1764434348.3732982,-4.440659999999999,1.92276,0.25942,-0.6784650600000001,0.72045714,-0.00988767
1764434348.3732982,-4.440659999999999,1.92276,0.25942,-0.6784650600000001,0.72045714,-0.00988767
1764434348.3732982,-4.440659999999999,1.92276,0.25942,-0.6784650600000001,0.72045714,-0.00988767
1764434348.3732982,-4.440659999999999,1.92276,0.25942,-0.6784650600000001,0.72045714,-0.00988767
1764434348.4167671,-4.22702,1.58704,0.48832,-0.678648165,0.720762315,-0.010559055
1764434348.4167671,-4.22702,1.58704,0.48832,-0.678648165,0.720762315,-0.010559055
1764434348.4167671,-4.22702,1.58704,0.48832,-0.678648165,0.720762315,-0.010559055
1764434348.4167671,-4.22702,1.58704,0.48832,-0.678648165,0.720762315,-0.010559055
1764434348.4177809,-4.22702,1.58704,0.48832,-0.678648165,0.720762315,-0.010559055
1764434348.4177809,-4.22702,1.58704,0.48832,-0.678648165,0.720762315,-0.010559055
1764434348.4177809,-4.22702,1.58704,0.48832,-0.678648165,0.720762315,-0.010559055
1764434348.4177809,-4.22702,1.58704,0.48832,-0.678648165,0.720762315,-0.010559055
1764434348.4177809,-4.22702,1.58704,0.48832,-0.678648165,0.720762315,-0.010559055
1764434348.4177809,-4.22702,1.58704,0.48832,-0.678648165,0.720762315,-0.010559055
1764434348.4182951,-5.340999999999999,1.96854,0.7019599999999999,-0.6774885,0.72082335,-0.010314915
1764434348.4188068,-5.340999999999999,1.96854,0.7019599999999999,-0.6774885,0.72082335,-0.010314915
1764434348.4188068,-5.340999999999999,1.96854,0.7019599999999999,-0.6774885,0.72082335,-0.010314915
1764434348.4188068,-5.340999999999999,1.96854,0.7019599999999999,-0.6774885,0.72082335,-0.010314915
1764434348.4188068,-5.340999999999999,1.96854,0.7019599999999999,-0.6774885,0.72082335,-0.010314915
1764434348.4188068,-5.340999999999999,1.96854,0.7019599999999999,-0.6774885,0.72082335,-0.010314915
1764434348.4188068,-5.340999999999999,1.96854,0.7019599999999999,-0.6774885,0.72082335,-0.010314915
1764434348.4188068,-5.340999999999999,1.96854,0.7019599999999999,-0.6774885,0.72082335,-0.010314915
1764434348.419822,-5.340999999999999,1.96854,0.7019599999999999,-0.6774885,0.72082335,-0.010314915
1764434348.419822,-5.340999999999999,1.96854,0.7019599999999999,-0.6774885,0.72082335,-0.010314915
1764434348.419822,-5.2647,1.77016,0.6867,-0.67724436,0.720884385,-0.009094215
1764434348.419822,-5.2647,1.77016,0.6867,-0.67724436,0.720884385,-0.009094215
1764434348.419822,-5.2647,1.77016,0.6867,-0.67724436,0.720884385,-0.009094215
1764434348.419822,-5.2647,1.77016,0.6867,-0.67724436,0.720884385,-0.009094215
1764434348.4643447,-5.2647,1.77016,0.6867,-0.67724436,0.720884385,-0.009094215
1764434348.4643447,-5.2647,1.77016,0.6867,-0.67724436,0.720884385,-0.009094215
1764434348.4643447,-5.2647,1.77016,0.6867,-0.67724436,0.720884385,-0.009094215
1764434348.4643447,-5.2647,1.77016,0.6867,-0.67724436,0.720884385,-0.009094215
1764434348.4643447,-5.2647,1.77016,0.6867,-0.67724436,0.720884385,-0.009094215
1764434348.4643447,-5.2647,1.77016,0.6867,-0.67724436,0.720884385,-0.009094215
1764434348.4643447,-4.63904,1.69386,0.12208,-0.677183325,0.72118956,-0.00952146
1764434348.4643447,-4.63904,1.69386,0.12208,-0.677183325,0.72118956,-0.00952146
1764434348.4643447,-4.63904,1.69386,0.12208,-0.677183325,0.72118956,-0.00952146
1764434348.4643447,-4.63904,1.69386,0.12208,-0.677183325,0.72118956,-0.00952146
1764434348.4643447,-4.63904,1.69386,0.12208,-0.677183325,0.72118956,-0.00952146
1764434348.4643447,-4.63904,1.69386,0.12208,-0.677183325,0.72118956,-0.00952146
1764434348.4643447,-4.63904,1.69386,0.12208,-0.677183325,0.72118956,-0.00952146
1764434348.4643447,-4.63904,1.69386,0.12208,-0.677183325,0.72118956,-0.00952146
1764434348.4643447,-4.63904,1.69386,0.12208,-0.677183325,0.72118956,-0.00952146
1764434348.4643447,-4.63904,1.69386,0.12208,-0.677183325,0.72118956,-0.00952146
1764434348.4643447,-4.31858,1.32762,0.39676,-0.6774885,0.720518175,-0.00964353
1764434348.4643447,-4.31858,1.32762,0.39676,-0.6774885,0.720518175,-0.00964353
1764434348.4643447,-4.31858,1.32762,0.39676,-0.6774885,0.720518175,-0.00964353
1764434348.4643447,-4.31858,1.32762,0.39676,-0.6774885,0.720518175,-0.00964353
1764434348.4643447,-4.31858,1.32762,0.39676,-0.6774885,0.720518175,-0.00964353
1764434348.4643447,-4.31858,1.32762,0.39676,-0.6774885,0.720518175,-0.00964353
1764434348.4643447,-4.31858,1.32762,0.39676,-0.6774885,0.720518175,-0.00964353
1764434348.4643447,-4.31858,1.32762,0.39676,-0.6774885,0.720518175,-0.00964353
1764434348.5084393,-4.31858,1.32762,0.39676,-0.6774885,0.720518175,-0.00964353
1764434348.5084393,-4.31858,1.32762,0.39676,-0.6774885,0.720518175,-0.00964353
1764434348.5084393,-4.53222,1.41918,0.3357199999999999,-0.6774274650000001,0.720640245,-0.01000974
1764434348.5084393,-4.53222,1.41918,0.3357199999999999,-0.6774274650000001,0.720640245,-0.01000974
1764434348.5084393,-4.53222,1.41918,0.3357199999999999,-0.6774274650000001,0.720640245,-0.01000974
1764434348.5084393,-4.53222,1.41918,0.3357199999999999,-0.6774274650000001,0.720640245,-0.01000974
1764434348.5102198,-4.53222,1.41918,0.3357199999999999,-0.6774274650000001,0.720640245,-0.01000974
1764434348.5102198,-4.53222,1.41918,0.3357199999999999,-0.6774274650000001,0.720640245,-0.01000974
1764434348.5102198,-4.53222,1.41918,0.3357199999999999,-0.6774274650000001,0.720640245,-0.01000974
1764434348.5102198,-4.53222,1.41918,0.3357199999999999,-0.6774274650000001,0.720640245,-0.01000974
1764434348.5102198,-4.53222,1.41918,0.3357199999999999,-0.6774274650000001,0.720640245,-0.01000974
1764434348.5102198,-4.53222,1.41918,0.3357199999999999,-0.6774274650000001,0.720640245,-0.01000974
1764434348.5102198,-4.48644,1.64808,0.3357199999999999,-0.676817115,0.720151965,-0.01037595
1764434348.5102198,-4.48644,1.64808,0.3357199999999999,-0.676817115,0.720151965,-0.01037595
1764434348.5102198,-4.48644,1.64808,0.3357199999999999,-0.676817115,0.720151965,-0.01037595
1764434348.5102198,-4.48644,1.64808,0.3357199999999999,-0.676817115,0.720151965,-0.01037595
1764434348.5102198,-4.48644,1.64808,0.3357199999999999,-0.676817115,0.720151965,-0.01037595
1764434348.5102198,-4.48644,1.64808,0.3357199999999999,-0.676817115,0.720151965,-0.01037595
1764434348.5102198,-4.48644,1.64808,0.3357199999999999,-0.676817115,0.720151965,-0.01037595
1764434348.5102198,-4.48644,1.64808,0.3357199999999999,-0.676817115,0.720151965,-0.01037595
1764434348.5102198,-4.48644,1.64808,0.3357199999999999,-0.676817115,0.720151965,-0.01037595
1764434348.5102198,-4.48644,1.64808,0.3357199999999999,-0.676817115,0.720151965,-0.01037595
1764434348.5579803,-4.37962,1.49548,0.42728,-0.67736643,0.72070128,-0.00952146
1764434348.5579803,-4.37962,1.49548,0.42728,-0.67736643,0.72070128,-0.00952146
1764434348.5579803,-4.37962,1.49548,0.42728,-0.67736643,0.72070128,-0.00952146
1764434348.5579803,-4.37962,1.49548,0.42728,-0.67736643,0.72070128,-0.00952146
1764434348.5579803,-4.37962,1.49548,0.42728,-0.67736643,0.72070128,-0.00952146
1764434348.5579803,-4.37962,1.49548,0.42728,-0.67736643,0.72070128,-0.00952146
1764434348.5579803,-4.37962,1.49548,0.42728,-0.67736643,0.72070128,-0.00952146
1764434348.5579803,-4.37962,1.49548,0.42728,-0.67736643,0.72070128,-0.00952146
1764434348.5579803,-4.37962,1.49548,0.42728,-0.67736643,0.72070128,-0.00952146
1764434348.5579803,-4.37962,1.49548,0.42728,-0.67736643,0.72070128,-0.00952146
1764434348.5579803,-4.5017,1.55652,0.6867,-0.677793675,0.720640245,-0.009582495
1764434348.5595255,-4.5017,1.55652,0.6867,-0.677793675,0.720640245,-0.009582495
1764434348.5595255,-4.5017,1.55652,0.6867,-0.677793675,0.720640245,-0.009582495
1764434348.5595255,-4.5017,1.55652,0.6867,-0.677793675,0.720640245,-0.009582495
1764434348.5595255,-4.5017,1.55652,0.6867,-0.677793675,0.720640245,-0.009582495
1764434348.5595255,-4.5017,1.55652,0.6867,-0.677793675,0.720640245,-0.009582495
1764434348.5595255,-4.5017,1.55652,0.6867,-0.677793675,0.720640245,-0.009582495
1764434348.5595255,-4.5017,1.55652,0.6867,-0.677793675,0.720640245,-0.009582495
1764434348.5595255,-4.5017,1.55652,0.6867,-0.677793675,0.720640245,-0.009582495
1764434348.5595255,-4.5017,1.55652,0.6867,-0.677793675,0.720640245,-0.009582495
1764434348.5595255,-4.36436,1.70912,0.44254,-0.67663401,0.720884385,-0.009826635
1764434348.5595255,-4.36436,1.70912,0.44254,-0.67663401,0.720884385,-0.009826635
1764434348.6026585,-4.36436,1.70912,0.44254,-0.67663401,0.720884385,-0.009826635
1764434348.6026585,-4.36436,1.70912,0.44254,-0.67663401,0.720884385,-0.009826635
1764434348.6026585,-4.36436,1.70912,0.44254,-0.67663401,0.720884385,-0.009826635
1764434348.6026585,-4.36436,1.70912,0.44254,-0.67663401,0.720884385,-0.009826635
1764434348.6026585,-4.36436,1.70912,0.44254,-0.67663401,0.720884385,-0.009826635
1764434348.6026585,-4.36436,1.70912,0.44254,-0.67663401,0.720884385,-0.009826635
1764434348.6026585,-4.36436,1.70912,0.44254,-0.67663401,0.720884385,-0.009826635
1764434348.6026585,-4.36436,1.70912,0.44254,-0.67663401,0.720884385,-0.009826635
1764434348.6026585,-3.815,1.54126,0.0762999999999999,-0.67663401,0.71996886,-0.009826635
1764434348.6036806,-3.815,1.54126,0.0762999999999999,-0.67663401,0.71996886,-0.009826635
1764434348.6046748,-3.815,1.54126,0.0762999999999999,-0.67663401,0.71996886,-0.009826635
1764434348.6046748,-3.815,1.54126,0.0762999999999999,-0.67663401,0.71996886,-0.009826635
1764434348.6046748,-3.815,1.54126,0.0762999999999999,-0.67663401,0.71996886,-0.009826635
1764434348.6046748,-3.815,1.54126,0.0762999999999999,-0.67663401,0.71996886,-0.009826635
1764434348.6046748,-3.815,1.54126,0.0762999999999999,-0.67663401,0.71996886,-0.009826635
1764434348.6058714,-3.815,1.54126,0.0762999999999999,-0.67663401,0.71996886,-0.009826635
1764434348.6058714,-3.815,1.54126,0.0762999999999999,-0.67663401,0.71996886,-0.009826635
1764434348.606378,-3.815,1.54126,0.0762999999999999,-0.67663401,0.71996886,-0.009826635
1764434348.6068623,-4.3491,1.51074,0.42728,-0.67663401,0.719785755,-0.01000974
1764434348.6068623,-4.3491,1.51074,0.42728,-0.67663401,0.719785755,-0.01000974
1764434348.6068623,-4.3491,1.51074,0.42728,-0.67663401,0.719785755,-0.01000974
1764434348.6068623,-4.3491,1.51074,0.42728,-0.67663401,0.719785755,-0.01000974
1764434348.607386,-4.3491,1.51074,0.42728,-0.67663401,0.719785755,-0.01000974
1764434348.607386,-4.3491,1.51074,0.42728,-0.67663401,0.719785755,-0.01000974
1764434348.607386,-4.3491,1.51074,0.42728,-0.67663401,0.719785755,-0.01000974
1764434348.607386,-4.3491,1.51074,0.42728,-0.67663401,0.719785755,-0.01000974
1764434348.6519332,-4.3491,1.51074,0.42728,-0.67663401,0.719785755,-0.01000974
1764434348.6519332,-4.3491,1.51074,0.42728,-0.67663401,0.719785755,-0.01000974
1764434348.6519332,-4.1202,1.2971,0.4578,-0.67724436,0.719785755,-0.01037595
1764434348.6519332,-4.1202,1.2971,0.4578,-0.67724436,0.719785755,-0.01037595
1764434348.6519332,-4.1202,1.2971,0.4578,-0.67724436,0.719785755,-0.01037595
1764434348.6519332,-4.1202,1.2971,0.4578,-0.67724436,0.719785755,-0.01037595
1764434348.6519332,-4.1202,1.2971,0.4578,-0.67724436,0.719785755,-0.01037595
1764434348.6519332,-4.1202,1.2971,0.4578,-0.67724436,0.719785755,-0.01037595
1764434348.6519332,-4.1202,1.2971,0.4578,-0.67724436,0.719785755,-0.01037595
1764434348.6519332,-4.1202,1.2971,0.4578,-0.67724436,0.719785755,-0.01037595
1764434348.6519332,-4.1202,1.2971,0.4578,-0.67724436,0.719785755,-0.01037595
1764434348.6519332,-4.1202,1.2971,0.4578,-0.67724436,0.719785755,-0.01037595
1764434348.6519332,-3.90656,1.9075,0.3051999999999999,-0.6774274650000001,0.71996886,-0.01037595
1764434348.6519332,-3.90656,1.9075,0.3051999999999999,-0.6774274650000001,0.71996886,-0.01037595
1764434348.6519332,-3.90656,1.9075,0.3051999999999999,-0.6774274650000001,0.71996886,-0.01037595
1764434348.6519332,-3.90656,1.9075,0.3051999999999999,-0.6774274650000001,0.71996886,-0.01037595
1764434348.6519332,-3.90656,1.9075,0.3051999999999999,-0.6774274650000001,0.71996886,-0.01037595
1764434348.6529486,-3.90656,1.9075,0.3051999999999999,-0.6774274650000001,0.71996886,-0.01037595
1764434348.6529486,-3.90656,1.9075,0.3051999999999999,-0.6774274650000001,0.71996886,-0.01037595
1764434348.6529486,-3.90656,1.9075,0.3051999999999999,-0.6774274650000001,0.71996886,-0.01037595
1764434348.6529486,-3.90656,1.9075,0.3051999999999999,-0.6774274650000001,0.71996886,-0.01037595
1764434348.6529486,-3.90656,1.9075,0.3051999999999999,-0.6774274650000001,0.71996886,-0.01037595
1764434348.6989827,-4.53222,1.41918,0.06104,-0.676939185,0.720274035,-0.01000974
1764434348.6989827,-4.53222,1.41918,0.06104,-0.676939185,0.720274035,-0.01000974
1764434348.6989827,-4.53222,1.41918,0.06104,-0.676939185,0.720274035,-0.01000974
1764434348.6989827,-4.53222,1.41918,0.06104,-0.676939185,0.720274035,-0.01000974
1764434348.6989827,-4.53222,1.41918,0.06104,-0.676939185,0.720274035,-0.01000974
1764434348.6989827,-4.53222,1.41918,0.06104,-0.676939185,0.720274035,-0.01000974
1764434348.6989827,-4.53222,1.41918,0.06104,-0.676939185,0.720274035,-0.01000974
1764434348.6989827,-4.53222,1.41918,0.06104,-0.676939185,0.720274035,-0.01000974
1764434348.6989827,-4.53222,1.41918,0.06104,-0.676939185,0.720274035,-0.01000974
1764434348.6989827,-4.53222,1.41918,0.06104,-0.676939185,0.720274035,-0.01000974
1764434348.6989827,-4.54748,1.26658,0.19838,-0.676450905,0.720640245,-0.009948705
1764434348.6989827,-4.54748,1.26658,0.19838,-0.676450905,0.720640245,-0.009948705
1764434348.6989827,-4.54748,1.26658,0.19838,-0.676450905,0.720640245,-0.009948705
1764434348.6989827,-4.54748,1.26658,0.19838,-0.676450905,0.720640245,-0.009948705
1764434348.6989827,-4.54748,1.26658,0.19838,-0.676450905,0.720640245,-0.009948705
1764434348.6989827,-4.54748,1.26658,0.19838,-0.676450905,0.720640245,-0.009948705
1764434348.6989827,-4.54748,1.26658,0.19838,-0.676450905,0.720640245,-0.009948705
1764434348.6989827,-4.54748,1.26658,0.19838,-0.676450905,0.720640245,-0.009948705
1764434348.6989827,-4.54748,1.26658,0.19838,-0.676450905,0.720640245,-0.009948705
1764434348.6989827,-4.54748,1.26658,0.19838,-0.676450905,0.720640245,-0.009948705
1764434348.6989827,-4.77638,1.23606,-0.04578,-0.677549535,0.72082335,-0.010436985
1764434348.7002056,-4.77638,1.23606,-0.04578,-0.677549535,0.72082335,-0.010436985
1764434348.7002056,-4.77638,1.23606,-0.04578,-0.677549535,0.72082335,-0.010436985
1764434348.7002056,-4.77638,1.23606,-0.04578,-0.677549535,0.72082335,-0.010436985
1764434348.7431445,-4.77638,1.23606,-0.04578,-0.677549535,0.72082335,-0.010436985
1764434348.7431445,-4.77638,1.23606,-0.04578,-0.677549535,0.72082335,-0.010436985
1764434348.7431445,-4.77638,1.23606,-0.04578,-0.677549535,0.72082335,-0.010436985
1764434348.7431445,-4.77638,1.23606,-0.04578,-0.677549535,0.72082335,-0.010436985
1764434348.7431445,-4.77638,1.23606,-0.04578,-0.677549535,0.72082335,-0.010436985
1764434348.7431445,-4.77638,1.23606,-0.04578,-0.677549535,0.72082335,-0.010436985
1764434348.7431445,-4.60852,1.25132,0.10682,-0.6779767800000001,0.7209454200000001,-0.01049802
1764434348.7431445,-4.60852,1.25132,0.10682,-0.6779767800000001,0.7209454200000001,-0.01049802
1764434348.7431445,-4.60852,1.25132,0.10682,-0.6779767800000001,0.7209454200000001,-0.01049802
1764434348.7431445,-4.60852,1.25132,0.10682,-0.6779767800000001,0.7209454200000001,-0.01049802
1764434348.7431445,-4.60852,1.25132,0.10682,-0.6779767800000001,0.7209454200000001,-0.01049802
1764434348.7431445,-4.60852,1.25132,0.10682,-0.6779767800000001,0.7209454200000001,-0.01049802
1764434348.7431445,-4.60852,1.25132,0.10682,-0.6779767800000001,0.7209454200000001,-0.01049802
1764434348.7443254,-4.60852,1.25132,0.10682,-0.6779767800000001,0.7209454200000001,-0.01049802
1764434348.7443254,-4.60852,1.25132,0.10682,-0.6779767800000001,0.7209454200000001,-0.01049802
1764434348.7443254,-4.60852,1.25132,0.10682,-0.6779767800000001,0.7209454200000001,-0.01049802
1764434348.7443254,-4.303319999999999,1.17502,0.50358,-0.678159885,0.720640245,-0.009948705
1764434348.7443254,-4.303319999999999,1.17502,0.50358,-0.678159885,0.720640245,-0.009948705
1764434348.7443254,-4.303319999999999,1.17502,0.50358,-0.678159885,0.720640245,-0.009948705
1764434348.7443254,-4.303319999999999,1.17502,0.50358,-0.678159885,0.720640245,-0.009948705
1764434348.7443254,-4.303319999999999,1.17502,0.50358,-0.678159885,0.720640245,-0.009948705
1764434348.7443254,-4.303319999999999,1.17502,0.50358,-0.678159885,0.720640245,-0.009948705
1764434348.745859,-4.303319999999999,1.17502,0.50358,-0.678159885,0.720640245,-0.009948705
1764434348.745859,-4.303319999999999,1.17502,0.50358,-0.678159885,0.720640245,-0.009948705
1764434348.7901497,-4.303319999999999,1.17502,0.50358,-0.678159885,0.720640245,-0.009948705
1764434348.7901497,-4.303319999999999,1.17502,0.50358,-0.678159885,0.720640245,-0.009948705
1764434348.7901497,-4.24228,1.7549,0.6714399999999999,-0.678892305,0.72057921,-0.00952146
1764434348.7901497,-4.24228,1.7549,0.6714399999999999,-0.678892305,0.72057921,-0.00952146
1764434348.7901497,-4.24228,1.7549,0.6714399999999999,-0.678892305,0.72057921,-0.00952146
1764434348.7901497,-4.24228,1.7549,0.6714399999999999,-0.678892305,0.72057921,-0.00952146
1764434348.7901497,-4.24228,1.7549,0.6714399999999999,-0.678892305,0.72057921,-0.00952146
1764434348.7901497,-4.24228,1.7549,0.6714399999999999,-0.678892305,0.72057921,-0.00952146
1764434348.7901497,-4.24228,1.7549,0.6714399999999999,-0.678892305,0.72057921,-0.00952146
1764434348.7901497,-4.24228,1.7549,0.6714399999999999,-0.678892305,0.72057921,-0.00952146
1764434348.7901497,-4.24228,1.7549,0.6714399999999999,-0.678892305,0.72057921,-0.00952146
1764434348.7901497,-4.24228,1.7549,0.6714399999999999,-0.678892305,0.72057921,-0.00952146
1764434348.791908,-4.0439,2.24322,0.39676,-0.67773264,0.721128525,-0.009338355
1764434348.791908,-4.0439,2.24322,0.39676,-0.67773264,0.721128525,-0.009338355
1764434348.791908,-4.0439,2.24322,0.39676,-0.67773264,0.721128525,-0.009338355
1764434348.791908,-4.0439,2.24322,0.39676,-0.67773264,0.721128525,-0.009338355
1764434348.791908,-4.0439,2.24322,0.39676,-0.67773264,0.721128525,-0.009338355
1764434348.791908,-4.0439,2.24322,0.39676,-0.67773264,0.721128525,-0.009338355
1764434348.791908,-4.0439,2.24322,0.39676,-0.67773264,0.721128525,-0.009338355
1764434348.791908,-4.0439,2.24322,0.39676,-0.67773264,0.721128525,-0.009338355
1764434348.791908,-4.0439,2.24322,0.39676,-0.67773264,0.721128525,-0.009338355
1764434348.791908,-4.0439,2.24322,0.39676,-0.67773264,0.721128525,-0.009338355
1764434348.835863,-4.48644,1.8312,0.1678599999999999,-0.67724436,0.720762315,-0.009094215
1764434348.8363817,-4.48644,1.8312,0.1678599999999999,-0.67724436,0.720762315,-0.009094215
1764434348.8363817,-4.48644,1.8312,0.1678599999999999,-0.67724436,0.720762315,-0.009094215
1764434348.8363817,-4.48644,1.8312,0.1678599999999999,-0.67724436,0.720762315,-0.009094215
1764434348.8363817,-4.48644,1.8312,0.1678599999999999,-0.67724436,0.720762315,-0.009094215
1764434348.8363817,-4.48644,1.8312,0.1678599999999999,-0.67724436,0.720762315,-0.009094215
1764434348.8363817,-4.48644,1.8312,0.1678599999999999,-0.67724436,0.720762315,-0.009094215
1764434348.8363817,-4.48644,1.8312,0.1678599999999999,-0.67724436,0.720762315,-0.009094215
1764434348.8363817,-4.48644,1.8312,0.1678599999999999,-0.67724436,0.720762315,-0.009094215
1764434348.837392,-4.48644,1.8312,0.1678599999999999,-0.67724436,0.720762315,-0.009094215
1764434348.837392,-4.53222,1.70912,0.36624,-0.67773264,0.720884385,-0.009216285
1764434348.837392,-4.53222,1.70912,0.36624,-0.67773264,0.720884385,-0.009216285
1764434348.837392,-4.53222,1.70912,0.36624,-0.67773264,0.720884385,-0.009216285
1764434348.837392,-4.53222,1.70912,0.36624,-0.67773264,0.720884385,-0.009216285
1764434348.837392,-4.53222,1.70912,0.36624,-0.67773264,0.720884385,-0.009216285
1764434348.837392,-4.53222,1.70912,0.36624,-0.67773264,0.720884385,-0.009216285
1764434348.837392,-4.53222,1.70912,0.36624,-0.67773264,0.720884385,-0.009216285
1764434348.837392,-4.53222,1.70912,0.36624,-0.67773264,0.720884385,-0.009216285
1764434348.837392,-4.53222,1.70912,0.36624,-0.67773264,0.720884385,-0.009216285
1764434348.837392,-4.53222,1.70912,0.36624,-0.67773264,0.720884385,-0.009216285
1764434348.837392,-4.37962,1.93802,0.2289,-0.67761057,0.721006455,-0.00915525
1764434348.837392,-4.37962,1.93802,0.2289,-0.67761057,0.721006455,-0.00915525
1764434348.837392,-4.37962,1.93802,0.2289,-0.67761057,0.721006455,-0.00915525
1764434348.837392,-4.37962,1.93802,0.2289,-0.67761057,0.721006455,-0.00915525
1764434348.8843946,-4.37962,1.93802,0.2289,-0.67761057,0.721006455,-0.00915525
1764434348.8849044,-4.37962,1.93802,0.2289,-0.67761057,0.721006455,-0.00915525
1764434348.8849044,-4.37962,1.93802,0.2289,-0.67761057,0.721006455,-0.00915525
1764434348.8849044,-4.37962,1.93802,0.2289,-0.67761057,0.721006455,-0.00915525
1764434348.8849044,-4.37962,1.93802,0.2289,-0.67761057,0.721006455,-0.00915525
1764434348.8849044,-4.37962,1.93802,0.2289,-0.67761057,0.721006455,-0.00915525
1764434348.8849044,-4.25754,1.6786,0.13734,-0.677915745,0.721128525,-0.009338355
1764434348.8849044,-4.25754,1.6786,0.13734,-0.677915745,0.721128525,-0.009338355
1764434348.8849044,-4.25754,1.6786,0.13734,-0.677915745,0.721128525,-0.009338355
1764434348.8849044,-4.25754,1.6786,0.13734,-0.677915745,0.721128525,-0.009338355
1764434348.8849044,-4.25754,1.6786,0.13734,-0.677915745,0.721128525,-0.009338355
1764434348.8849044,-4.25754,1.6786,0.13734,-0.677915745,0.721128525,-0.009338355
1764434348.8849044,-4.25754,1.6786,0.13734,-0.677915745,0.721128525,-0.009338355
1764434348.8849044,-4.25754,1.6786,0.13734,-0.677915745,0.721128525,-0.009338355
1764434348.8849044,-4.25754,1.6786,0.13734,-0.677915745,0.721128525,-0.009338355
1764434348.8849044,-4.25754,1.6786,0.13734,-0.677915745,0.721128525,-0.009338355
1764434348.8849044,-4.68482,1.2208,0.09156,-0.67736643,0.72167784,-0.009948705
1764434348.8849044,-4.68482,1.2208,0.09156,-0.67736643,0.72167784,-0.009948705
1764434348.8849044,-4.68482,1.2208,0.09156,-0.67736643,0.72167784,-0.009948705
1764434348.8849044,-4.68482,1.2208,0.09156,-0.67736643,0.72167784,-0.009948705
1764434348.8849044,-4.68482,1.2208,0.09156,-0.67736643,0.72167784,-0.009948705
1764434348.8849044,-4.68482,1.2208,0.09156,-0.67736643,0.72167784,-0.009948705
1764434348.8849044,-4.68482,1.2208,0.09156,-0.67736643,0.72167784,-0.009948705
1764434348.8849044,-4.68482,1.2208,0.09156,-0.67736643,0.72167784,-0.009948705
1764434348.932469,-4.68482,1.2208,0.09156,-0.67736643,0.72167784,-0.009948705
1764434348.932469,-4.68482,1.2208,0.09156,-0.67736643,0.72167784,-0.009948705
1764434348.932469,-5.0358,1.12924,0.3051999999999999,-0.6774274650000001,0.721494735,-0.01049802
1764434348.932469,-5.0358,1.12924,0.3051999999999999,-0.6774274650000001,0.721494735,-0.01049802
1764434348.932469,-5.0358,1.12924,0.3051999999999999,-0.6774274650000001,0.721494735,-0.01049802
1764434348.932469,-5.0358,1.12924,0.3051999999999999,-0.6774274650000001,0.721494735,-0.01049802
1764434348.932469,-5.0358,1.12924,0.3051999999999999,-0.6774274650000001,0.721494735,-0.01049802
1764434348.932469,-5.0358,1.12924,0.3051999999999999,-0.6774274650000001,0.721494735,-0.01049802
1764434348.932469,-5.0358,1.12924,0.3051999999999999,-0.6774274650000001,0.721494735,-0.01049802
1764434348.932469,-5.0358,1.12924,0.3051999999999999,-0.6774274650000001,0.721494735,-0.01049802
1764434348.932469,-5.0358,1.12924,0.3051999999999999,-0.6774274650000001,0.721494735,-0.01049802
1764434348.932469,-5.0358,1.12924,0.3051999999999999,-0.6774274650000001,0.721494735,-0.01049802
1764434348.932469,-4.7306,1.2971,0.50358,-0.6779767800000001,0.7214337,-0.01074216
1764434348.932469,-4.7306,1.2971,0.50358,-0.6779767800000001,0.7214337,-0.01074216
1764434348.932469,-4.7306,1.2971,0.50358,-0.6779767800000001,0.7214337,-0.01074216
1764434348.932469,-4.7306,1.2971,0.50358,-0.6779767800000001,0.7214337,-0.01074216
1764434348.932469,-4.7306,1.2971,0.50358,-0.6779767800000001,0.7214337,-0.01074216
1764434348.932469,-4.7306,1.2971,0.50358,-0.6779767800000001,0.7214337,-0.01074216
1764434348.932469,-4.7306,1.2971,0.50358,-0.6779767800000001,0.7214337,-0.01074216
1764434348.932469,-4.7306,1.2971,0.50358,-0.6779767800000001,0.7214337,-0.01074216
1764434348.932469,-4.7306,1.2971,0.50358,-0.6779767800000001,0.7214337,-0.01074216
1764434348.932469,-4.7306,1.2971,0.50358,-0.6779767800000001,0.7214337,-0.01074216
1764434348.932469,-4.440659999999999,1.61756,0.3051999999999999,-0.67822092,0.720884385,-0.01074216
1764434348.932469,-4.440659999999999,1.61756,0.3051999999999999,-0.67822092,0.720884385,-0.01074216
1764434348.979176,-4.440659999999999,1.61756,0.3051999999999999,-0.67822092,0.720884385,-0.01074216
1764434348.979176,-4.440659999999999,1.61756,0.3051999999999999,-0.67822092,0.720884385,-0.01074216
1764434348.979176,-4.440659999999999,1.61756,0.3051999999999999,-0.67822092,0.720884385,-0.01074216
1764434348.979176,-4.440659999999999,1.61756,0.3051999999999999,-0.67822092,0.720884385,-0.01074216
1764434348.979176,-4.440659999999999,1.61756,0.3051999999999999,-0.67822092,0.720884385,-0.01074216
1764434348.979176,-4.440659999999999,1.61756,0.3051999999999999,-0.67822092,0.720884385,-0.01074216
1764434348.979176,-4.440659999999999,1.61756,0.3051999999999999,-0.67822092,0.720884385,-0.01074216
1764434348.9801774,-4.440659999999999,1.61756,0.3051999999999999,-0.67822092,0.720884385,-0.01074216
1764434348.9801774,-4.89846,1.6786,0.3051999999999999,-0.67809885,0.72045714,-0.01000974
1764434348.9801774,-4.89846,1.6786,0.3051999999999999,-0.67809885,0.72045714,-0.01000974
1764434348.9801774,-4.89846,1.6786,0.3051999999999999,-0.67809885,0.72045714,-0.01000974
1764434348.9801774,-4.89846,1.6786,0.3051999999999999,-0.67809885,0.72045714,-0.01000974
1764434348.980699,-4.89846,1.6786,0.3051999999999999,-0.67809885,0.72045714,-0.01000974
1764434348.980699,-4.89846,1.6786,0.3051999999999999,-0.67809885,0.72045714,-0.01000974
1764434348.980699,-4.89846,1.6786,0.3051999999999999,-0.67809885,0.72045714,-0.01000974
1764434348.9811878,-4.89846,1.6786,0.3051999999999999,-0.67809885,0.72045714,-0.01000974
1764434348.9811878,-4.89846,1.6786,0.3051999999999999,-0.67809885,0.72045714,-0.01000974
1764434348.9811878,-4.89846,1.6786,0.3051999999999999,-0.67809885,0.72045714,-0.01000974
1764434348.9817128,-4.440659999999999,1.4497,0.3204599999999999,-0.67773264,0.71996886,-0.008605935
1764434348.9817128,-4.440659999999999,1.4497,0.3204599999999999,-0.67773264,0.71996886,-0.008605935
1764434348.9817128,-4.440659999999999,1.4497,0.3204599999999999,-0.67773264,0.71996886,-0.008605935
1764434348.9817128,-4.440659999999999,1.4497,0.3204599999999999,-0.67773264,0.71996886,-0.008605935
1764434349.022571,-4.440659999999999,1.4497,0.3204599999999999,-0.67773264,0.71996886,-0.008605935
1764434349.022571,-4.440659999999999,1.4497,0.3204599999999999,-0.67773264,0.71996886,-0.008605935
1764434349.022571,-4.440659999999999,1.4497,0.3204599999999999,-0.67773264,0.71996886,-0.008605935
1764434349.0235636,-4.440659999999999,1.4497,0.3204599999999999,-0.67773264,0.71996886,-0.008605935
1764434349.0235636,-4.440659999999999,1.4497,0.3204599999999999,-0.67773264,0.71996886,-0.008605935
1764434349.0235636,-4.440659999999999,1.4497,0.3204599999999999,-0.67773264,0.71996886,-0.008605935
1764434349.0235636,-4.0439,1.26658,0.36624,-0.6779767800000001,0.71972472,-0.00866697
1764434349.0235636,-4.0439,1.26658,0.36624,-0.6779767800000001,0.71972472,-0.00866697
1764434349.0235636,-4.0439,1.26658,0.36624,-0.6779767800000001,0.71972472,-0.00866697
1764434349.0235636,-4.0439,1.26658,0.36624,-0.6779767800000001,0.71972472,-0.00866697
1764434349.0235636,-4.0439,1.26658,0.36624,-0.6779767800000001,0.71972472,-0.00866697
1764434349.0235636,-4.0439,1.26658,0.36624,-0.6779767800000001,0.71972472,-0.00866697
1764434349.0235636,-4.0439,1.26658,0.36624,-0.6779767800000001,0.71972472,-0.00866697
1764434349.0240762,-4.0439,1.26658,0.36624,-0.6779767800000001,0.71972472,-0.00866697
1764434349.0240762,-4.0439,1.26658,0.36624,-0.6779767800000001,0.71972472,-0.00866697
1764434349.0240762,-4.0439,1.26658,0.36624,-0.6779767800000001,0.71972472,-0.00866697
1764434349.0240762,-3.87604,1.6633399999999998,0.6103999999999999,-0.67785471,0.71972472,-0.009094215
1764434349.0240762,-3.87604,1.6633399999999998,0.6103999999999999,-0.67785471,0.71972472,-0.009094215
1764434349.0240762,-3.87604,1.6633399999999998,0.6103999999999999,-0.67785471,0.71972472,-0.009094215
1764434349.0240762,-3.87604,1.6633399999999998,0.6103999999999999,-0.67785471,0.71972472,-0.009094215
1764434349.0240762,-3.87604,1.6633399999999998,0.6103999999999999,-0.67785471,0.71972472,-0.009094215
1764434349.0240762,-3.87604,1.6633399999999998,0.6103999999999999,-0.67785471,0.71972472,-0.009094215
1764434349.0719569,-3.87604,1.6633399999999998,0.6103999999999999,-0.67785471,0.71972472,-0.009094215
1764434349.0719569,-3.87604,1.6633399999999998,0.6103999999999999,-0.67785471,0.71972472,-0.009094215
1764434349.0724766,-3.87604,1.6633399999999998,0.6103999999999999,-0.67785471,0.71972472,-0.009094215
1764434349.0724766,-3.87604,1.6633399999999998,0.6103999999999999,-0.67785471,0.71972472,-0.009094215
1764434349.0724766,-4.39488,1.61756,0.3204599999999999,-0.677549535,0.720151965,-0.009460425
1764434349.0724766,-4.39488,1.61756,0.3204599999999999,-0.677549535,0.720151965,-0.009460425
1764434349.0724766,-4.39488,1.61756,0.3204599999999999,-0.677549535,0.720151965,-0.009460425
1764434349.0724766,-4.39488,1.61756,0.3204599999999999,-0.677549535,0.720151965,-0.009460425
1764434349.0724766,-4.39488,1.61756,0.3204599999999999,-0.677549535,0.720151965,-0.009460425
1764434349.0724766,-4.39488,1.61756,0.3204599999999999,-0.677549535,0.720151965,-0.009460425
1764434349.0724766,-4.39488,1.61756,0.3204599999999999,-0.677549535,0.720151965,-0.009460425
1764434349.0724766,-4.39488,1.61756,0.3204599999999999,-0.677549535,0.720151965,-0.009460425
1764434349.0724766,-4.39488,1.61756,0.3204599999999999,-0.677549535,0.720151965,-0.009460425
1764434349.0724766,-4.39488,1.61756,0.3204599999999999,-0.677549535,0.720151965,-0.009460425
1764434349.0724766,-4.56274,1.41918,0.4578,-0.67712229,0.720213,-0.009094215
1764434349.0724766,-4.56274,1.41918,0.4578,-0.67712229,0.720213,-0.009094215
1764434349.0724766,-4.56274,1.41918,0.4578,-0.67712229,0.720213,-0.009094215
1764434349.0724766,-4.56274,1.41918,0.4578,-0.67712229,0.720213,-0.009094215
1764434349.0724766,-4.56274,1.41918,0.4578,-0.67712229,0.720213,-0.009094215
1764434349.0724766,-4.56274,1.41918,0.4578,-0.67712229,0.720213,-0.009094215
1764434349.0724766,-4.56274,1.41918,0.4578,-0.67712229,0.720213,-0.009094215
1764434349.0724766,-4.56274,1.41918,0.4578,-0.67712229,0.720213,-0.009094215
1764434349.0724766,-4.56274,1.41918,0.4578,-0.67712229,0.720213,-0.009094215
1764434349.0724766,-4.56274,1.41918,0.4578,-0.67712229,0.720213,-0.009094215
1764434349.1187797,-4.13546,1.34288,0.41202,-0.677183325,0.720762315,-0.009826635
1764434349.1187797,-4.13546,1.34288,0.41202,-0.677183325,0.720762315,-0.009826635
1764434349.1187797,-4.13546,1.34288,0.41202,-0.677183325,0.720762315,-0.009826635
1764434349.1187797,-4.13546,1.34288,0.41202,-0.677183325,0.720762315,-0.009826635
1764434349.1187797,-4.13546,1.34288,0.41202,-0.677183325,0.720762315,-0.009826635
1764434349.1187797,-4.13546,1.34288,0.41202,-0.677183325,0.720762315,-0.009826635
1764434349.1187797,-4.13546,1.34288,0.41202,-0.677183325,0.720762315,-0.009826635
1764434349.1187797,-4.13546,1.34288,0.41202,-0.677183325,0.720762315,-0.009826635
1764434349.1187797,-4.13546,1.34288,0.41202,-0.677183325,0.720762315,-0.009826635
1764434349.1187797,-4.13546,1.34288,0.41202,-0.677183325,0.720762315,-0.009826635
1764434349.1187797,-4.059159999999999,1.26658,0.3815,-0.67724436,0.7209454200000001,-0.009094215
1764434349.1187797,-4.059159999999999,1.26658,0.3815,-0.67724436,0.7209454200000001,-0.009094215
1764434349.1187797,-4.059159999999999,1.26658,0.3815,-0.67724436,0.7209454200000001,-0.009094215
1764434349.1187797,-4.059159999999999,1.26658,0.3815,-0.67724436,0.7209454200000001,-0.009094215
1764434349.1187797,-4.059159999999999,1.26658,0.3815,-0.67724436,0.7209454200000001,-0.009094215
1764434349.1187797,-4.059159999999999,1.26658,0.3815,-0.67724436,0.7209454200000001,-0.009094215
1764434349.1187797,-4.059159999999999,1.26658,0.3815,-0.67724436,0.7209454200000001,-0.009094215
1764434349.1187797,-4.059159999999999,1.26658,0.3815,-0.67724436,0.7209454200000001,-0.009094215
1764434349.1187797,-4.059159999999999,1.26658,0.3815,-0.67724436,0.7209454200000001,-0.009094215
1764434349.1187797,-4.059159999999999,1.26658,0.3815,-0.67724436,0.7209454200000001,-0.009094215
1764434349.1187797,-3.98286,1.38866,0.1525999999999999,-0.677549535,0.721494735,-0.008728005
1764434349.1187797,-3.98286,1.38866,0.1525999999999999,-0.677549535,0.721494735,-0.008728005
1764434349.1644433,-3.98286,1.38866,0.1525999999999999,-0.677549535,0.721494735,-0.008728005
1764434349.1644433,-3.98286,1.38866,0.1525999999999999,-0.677549535,0.721494735,-0.008728005
1764434349.1644433,-3.98286,1.38866,0.1525999999999999,-0.677549535,0.721494735,-0.008728005
1764434349.1644433,-3.98286,1.38866,0.1525999999999999,-0.677549535,0.721494735,-0.008728005
1764434349.1644433,-3.98286,1.38866,0.1525999999999999,-0.677549535,0.721494735,-0.008728005
1764434349.1644433,-3.98286,1.38866,0.1525999999999999,-0.677549535,0.721494735,-0.008728005
1764434349.1644433,-3.98286,1.38866,0.1525999999999999,-0.677549535,0.721494735,-0.008728005
1764434349.1644433,-3.98286,1.38866,0.1525999999999999,-0.677549535,0.721494735,-0.008728005
1764434349.1644433,-3.84552,1.4497,0.09156,-0.676939185,0.721006455,-0.008972145
1764434349.1644433,-3.84552,1.4497,0.09156,-0.676939185,0.721006455,-0.008972145
1764434349.1644433,-3.84552,1.4497,0.09156,-0.676939185,0.721006455,-0.008972145
1764434349.1644433,-3.84552,1.4497,0.09156,-0.676939185,0.721006455,-0.008972145
1764434349.1644433,-3.84552,1.4497,0.09156,-0.676939185,0.721006455,-0.008972145
1764434349.1644433,-3.84552,1.4497,0.09156,-0.676939185,0.721006455,-0.008972145
1764434349.1644433,-3.84552,1.4497,0.09156,-0.676939185,0.721006455,-0.008972145
1764434349.1654458,-3.84552,1.4497,0.09156,-0.676939185,0.721006455,-0.008972145
1764434349.1654458,-3.84552,1.4497,0.09156,-0.676939185,0.721006455,-0.008972145
1764434349.1654458,-3.84552,1.4497,0.09156,-0.676939185,0.721006455,-0.008972145
1764434349.1654458,-3.92182,1.63282,0.39676,-0.677671605,0.720762315,-0.00915525
1764434349.1654458,-3.92182,1.63282,0.39676,-0.677671605,0.720762315,-0.00915525
1764434349.1654458,-3.92182,1.63282,0.39676,-0.677671605,0.720762315,-0.00915525
1764434349.1654458,-3.92182,1.63282,0.39676,-0.677671605,0.720762315,-0.00915525
1764434349.1654458,-3.92182,1.63282,0.39676,-0.677671605,0.720762315,-0.00915525
1764434349.1654458,-3.92182,1.63282,0.39676,-0.677671605,0.720762315,-0.00915525
1764434349.209186,-3.92182,1.63282,0.39676,-0.677671605,0.720762315,-0.00915525
1764434349.209186,-3.92182,1.63282,0.39676,-0.677671605,0.720762315,-0.00915525
1764434349.209186,-3.92182,1.63282,0.39676,-0.677671605,0.720762315,-0.00915525
1764434349.209186,-3.92182,1.63282,0.39676,-0.677671605,0.720762315,-0.00915525
1764434349.209186,-3.72344,1.48022,0.39676,-0.677671605,0.72057921,-0.009338355
1764434349.209186,-3.72344,1.48022,0.39676,-0.677671605,0.72057921,-0.009338355
1764434349.209186,-3.72344,1.48022,0.39676,-0.677671605,0.72057921,-0.009338355
1764434349.209186,-3.72344,1.48022,0.39676,-0.677671605,0.72057921,-0.009338355
1764434349.209186,-3.72344,1.48022,0.39676,-0.677671605,0.72057921,-0.009338355
1764434349.209186,-3.72344,1.48022,0.39676,-0.677671605,0.72057921,-0.009338355
1764434349.209186,-3.72344,1.48022,0.39676,-0.677671605,0.72057921,-0.009338355
1764434349.209186,-3.72344,1.48022,0.39676,-0.677671605,0.72057921,-0.009338355
1764434349.209186,-3.72344,1.48022,0.39676,-0.677671605,0.72057921,-0.009338355
1764434349.209186,-3.72344,1.48022,0.39676,-0.677671605,0.72057921,-0.009338355
1764434349.209186,-3.26564,1.73964,0.4578,-0.677671605,0.720274035,-0.009460425
1764434349.209186,-3.26564,1.73964,0.4578,-0.677671605,0.720274035,-0.009460425
1764434349.209186,-3.26564,1.73964,0.4578,-0.677671605,0.720274035,-0.009460425
1764434349.209186,-3.26564,1.73964,0.4578,-0.677671605,0.720274035,-0.009460425
1764434349.209186,-3.26564,1.73964,0.4578,-0.677671605,0.720274035,-0.009460425
1764434349.209186,-3.26564,1.73964,0.4578,-0.677671605,0.720274035,-0.009460425
1764434349.209186,-3.26564,1.73964,0.4578,-0.677671605,0.720274035,-0.009460425
1764434349.209186,-3.26564,1.73964,0.4578,-0.677671605,0.720274035,-0.009460425
1764434349.209186,-3.26564,1.73964,0.4578,-0.677671605,0.720274035,-0.009460425
1764434349.209186,-3.26564,1.73964,0.4578,-0.677671605,0.720274035,-0.009460425
1764434349.2566848,-3.60136,1.63282,0.5341,-0.677671605,0.7193585100000001,-0.010192845
1764434349.2566848,-3.60136,1.63282,0.5341,-0.677671605,0.7193585100000001,-0.010192845
1764434349.2566848,-3.60136,1.63282,0.5341,-0.677671605,0.7193585100000001,-0.010192845
1764434349.2566848,-3.60136,1.63282,0.5341,-0.677671605,0.7193585100000001,-0.010192845
1764434349.2566848,-3.60136,1.63282,0.5341,-0.677671605,0.7193585100000001,-0.010192845
1764434349.2566848,-3.60136,1.63282,0.5341,-0.677671605,0.7193585100000001,-0.010192845
1764434349.2566848,-3.60136,1.63282,0.5341,-0.677671605,0.7193585100000001,-0.010192845
1764434349.2572012,-3.60136,1.63282,0.5341,-0.677671605,0.7193585100000001,-0.010192845
1764434349.2572012,-3.60136,1.63282,0.5341,-0.677671605,0.7193585100000001,-0.010192845
1764434349.2572012,-3.60136,1.63282,0.5341,-0.677671605,0.7193585100000001,-0.010192845
1764434349.2572012,-3.5861,1.6633399999999998,0.4578,-0.677549535,0.72009093,-0.010314915
1764434349.2582202,-3.5861,1.6633399999999998,0.4578,-0.677549535,0.72009093,-0.010314915
1764434349.2582202,-3.5861,1.6633399999999998,0.4578,-0.677549535,0.72009093,-0.010314915
1764434349.2582202,-3.5861,1.6633399999999998,0.4578,-0.677549535,0.72009093,-0.010314915
1764434349.2582202,-3.5861,1.6633399999999998,0.4578,-0.677549535,0.72009093,-0.010314915
1764434349.2582202,-3.5861,1.6633399999999998,0.4578,-0.677549535,0.72009093,-0.010314915
1764434349.2582202,-3.5861,1.6633399999999998,0.4578,-0.677549535,0.72009093,-0.010314915
1764434349.2582202,-3.5861,1.6633399999999998,0.4578,-0.677549535,0.72009093,-0.010314915
1764434349.2582202,-3.5861,1.6633399999999998,0.4578,-0.677549535,0.72009093,-0.010314915
1764434349.2582202,-3.5861,1.6633399999999998,0.4578,-0.677549535,0.72009093,-0.010314915
1764434349.2582202,-3.44876,1.55652,0.50358,-0.67687815,0.7209454200000001,-0.010314915
1764434349.2582202,-3.44876,1.55652,0.50358,-0.67687815,0.7209454200000001,-0.010314915
1764434349.3050537,-3.44876,1.55652,0.50358,-0.67687815,0.7209454200000001,-0.010314915
1764434349.3050537,-3.44876,1.55652,0.50358,-0.67687815,0.7209454200000001,-0.010314915
1764434349.3050537,-3.44876,1.55652,0.50358,-0.67687815,0.7209454200000001,-0.010314915
1764434349.3050537,-3.44876,1.55652,0.50358,-0.67687815,0.7209454200000001,-0.010314915
1764434349.3050537,-3.44876,1.55652,0.50358,-0.67687815,0.7209454200000001,-0.010314915
1764434349.3050537,-3.44876,1.55652,0.50358,-0.67687815,0.7209454200000001,-0.010314915
1764434349.3050537,-3.44876,1.55652,0.50358,-0.67687815,0.7209454200000001,-0.010314915
1764434349.3050537,-3.44876,1.55652,0.50358,-0.67687815,0.7209454200000001,-0.010314915
1764434349.3050537,-3.14356,2.02958,0.7019599999999999,-0.67773264,0.720640245,-0.01000974
1764434349.3050537,-3.14356,2.02958,0.7019599999999999,-0.67773264,0.720640245,-0.01000974
1764434349.3050537,-3.14356,2.02958,0.7019599999999999,-0.67773264,0.720640245,-0.01000974
1764434349.3065672,-3.14356,2.02958,0.7019599999999999,-0.67773264,0.720640245,-0.01000974
1764434349.3065672,-3.14356,2.02958,0.7019599999999999,-0.67773264,0.720640245,-0.01000974
1764434349.3065672,-3.14356,2.02958,0.7019599999999999,-0.67773264,0.720640245,-0.01000974
1764434349.3065672,-3.14356,2.02958,0.7019599999999999,-0.67773264,0.720640245,-0.01000974
1764434349.3065672,-3.14356,2.02958,0.7019599999999999,-0.67773264,0.720640245,-0.01000974
1764434349.3065672,-3.14356,2.02958,0.7019599999999999,-0.67773264,0.720640245,-0.01000974
1764434349.3065672,-3.14356,2.02958,0.7019599999999999,-0.67773264,0.720640245,-0.01000974
1764434349.3065672,-2.62472,1.78542,0.44254,-0.677549535,0.720640245,-0.00952146
1764434349.3065672,-2.62472,1.78542,0.44254,-0.677549535,0.720640245,-0.00952146
1764434349.3065672,-2.62472,1.78542,0.44254,-0.677549535,0.720640245,-0.00952146
1764434349.3065672,-2.62472,1.78542,0.44254,-0.677549535,0.720640245,-0.00952146
1764434349.3065672,-2.62472,1.78542,0.44254,-0.677549535,0.720640245,-0.00952146
1764434349.3065672,-2.62472,1.78542,0.44254,-0.677549535,0.720640245,-0.00952146
1764434349.351306,-2.62472,1.78542,0.44254,-0.677549535,0.720640245,-0.00952146
1764434349.351306,-2.62472,1.78542,0.44254,-0.677549535,0.720640245,-0.00952146
1764434349.351306,-2.62472,1.78542,0.44254,-0.677549535,0.720640245,-0.00952146
1764434349.351306,-2.62472,1.78542,0.44254,-0.677549535,0.720640245,-0.00952146
1764434349.351306,-2.5179,2.09062,0.51884,-0.67724436,0.720762315,-0.009948705
1764434349.351306,-2.5179,2.09062,0.51884,-0.67724436,0.720762315,-0.009948705
1764434349.351306,-2.5179,2.09062,0.51884,-0.67724436,0.720762315,-0.009948705
1764434349.352306,-2.5179,2.09062,0.51884,-0.67724436,0.720762315,-0.009948705
1764434349.352306,-2.5179,2.09062,0.51884,-0.67724436,0.720762315,-0.009948705
1764434349.352306,-2.5179,2.09062,0.51884,-0.67724436,0.720762315,-0.009948705
1764434349.352306,-2.5179,2.09062,0.51884,-0.67724436,0.720762315,-0.009948705
1764434349.352306,-2.5179,2.09062,0.51884,-0.67724436,0.720762315,-0.009948705
1764434349.352306,-2.5179,2.09062,0.51884,-0.67724436,0.720762315,-0.009948705
1764434349.352306,-2.5179,2.09062,0.51884,-0.67724436,0.720762315,-0.009948705
1764434349.352306,-2.38056,1.81594,0.3815,-0.67700022,0.721250595,-0.01000974
1764434349.352306,-2.38056,1.81594,0.3815,-0.67700022,0.721250595,-0.01000974
1764434349.352306,-2.38056,1.81594,0.3815,-0.67700022,0.721250595,-0.01000974
1764434349.352306,-2.38056,1.81594,0.3815,-0.67700022,0.721250595,-0.01000974
1764434349.352306,-2.38056,1.81594,0.3815,-0.67700022,0.721250595,-0.01000974
1764434349.352306,-2.38056,1.81594,0.3815,-0.67700022,0.721250595,-0.01000974
1764434349.352306,-2.38056,1.81594,0.3815,-0.67700022,0.721250595,-0.01000974
1764434349.352306,-2.38056,1.81594,0.3815,-0.67700022,0.721250595,-0.01000974
1764434349.3965554,-2.38056,1.81594,0.3815,-0.67700022,0.721250595,-0.01000974
1764434349.3965554,-2.38056,1.81594,0.3815,-0.67700022,0.721250595,-0.01000974
1764434349.3965554,-2.25848,1.64808,0.39676,-0.67700022,0.720884385,-0.010192845
1764434349.3965554,-2.25848,1.64808,0.39676,-0.67700022,0.720884385,-0.010192845
1764434349.3965554,-2.25848,1.64808,0.39676,-0.67700022,0.720884385,-0.010192845
1764434349.3965554,-2.25848,1.64808,0.39676,-0.67700022,0.720884385,-0.010192845
1764434349.3965554,-2.25848,1.64808,0.39676,-0.67700022,0.720884385,-0.010192845
1764434349.3965554,-2.25848,1.64808,0.39676,-0.67700022,0.720884385,-0.010192845
1764434349.3975682,-2.25848,1.64808,0.39676,-0.67700022,0.720884385,-0.010192845
1764434349.3975682,-2.25848,1.64808,0.39676,-0.67700022,0.720884385,-0.010192845
1764434349.3975682,-2.25848,1.64808,0.39676,-0.67700022,0.720884385,-0.010192845
1764434349.3975682,-2.25848,1.64808,0.39676,-0.67700022,0.720884385,-0.010192845
1764434349.3975682,-2.07536,1.6022999999999998,0.41202,-0.67663401,0.721006455,-0.01086423
1764434349.3975682,-2.07536,1.6022999999999998,0.41202,-0.67663401,0.721006455,-0.01086423
1764434349.3975682,-2.07536,1.6022999999999998,0.41202,-0.67663401,0.721006455,-0.01086423
1764434349.3985715,-2.07536,1.6022999999999998,0.41202,-0.67663401,0.721006455,-0.01086423
1764434349.3985715,-2.07536,1.6022999999999998,0.41202,-0.67663401,0.721006455,-0.01086423
1764434349.3985715,-2.07536,1.6022999999999998,0.41202,-0.67663401,0.721006455,-0.01086423
1764434349.3985715,-2.07536,1.6022999999999998,0.41202,-0.67663401,0.721006455,-0.01086423
1764434349.3985715,-2.07536,1.6022999999999998,0.41202,-0.67663401,0.721006455,-0.01086423
1764434349.3985715,-2.07536,1.6022999999999998,0.41202,-0.67663401,0.721006455,-0.01086423
1764434349.3985715,-2.07536,1.6022999999999998,0.41202,-0.67663401,0.721006455,-0.01086423
1764434349.3985715,-2.56368,1.58704,0.42728,-0.677061255,0.72118956,-0.010314915
1764434349.3985715,-2.56368,1.58704,0.42728,-0.677061255,0.72118956,-0.010314915
1764434349.4440346,-2.56368,1.58704,0.42728,-0.677061255,0.72118956,-0.010314915
1764434349.4440346,-2.56368,1.58704,0.42728,-0.677061255,0.72118956,-0.010314915
1764434349.4440346,-2.56368,1.58704,0.42728,-0.677061255,0.72118956,-0.010314915
1764434349.4440346,-2.56368,1.58704,0.42728,-0.677061255,0.72118956,-0.010314915
1764434349.4440346,-2.56368,1.58704,0.42728,-0.677061255,0.72118956,-0.010314915
1764434349.4440346,-2.56368,1.58704,0.42728,-0.677061255,0.72118956,-0.010314915
1764434349.4440346,-2.56368,1.58704,0.42728,-0.677061255,0.72118956,-0.010314915
1764434349.4440346,-2.56368,1.58704,0.42728,-0.677061255,0.72118956,-0.010314915
1764434349.4440346,-1.8312,1.55652,0.41202,-0.677061255,0.72118956,-0.01147458
1764434349.4440346,-1.8312,1.55652,0.41202,-0.677061255,0.72118956,-0.01147458
1764434349.4450428,-1.8312,1.55652,0.41202,-0.677061255,0.72118956,-0.01147458
1764434349.4450428,-1.8312,1.55652,0.41202,-0.677061255,0.72118956,-0.01147458
1764434349.4450428,-1.8312,1.55652,0.41202,-0.677061255,0.72118956,-0.01147458
1764434349.4450428,-1.8312,1.55652,0.41202,-0.677061255,0.72118956,-0.01147458
1764434349.4450428,-1.8312,1.55652,0.41202,-0.677061255,0.72118956,-0.01147458
1764434349.4450428,-1.8312,1.55652,0.41202,-0.677061255,0.72118956,-0.01147458
1764434349.4450428,-1.8312,1.55652,0.41202,-0.677061255,0.72118956,-0.01147458
1764434349.4450428,-1.8312,1.55652,0.41202,-0.677061255,0.72118956,-0.01147458
1764434349.4450428,-2.07536,1.31236,0.44254,-0.67687815,0.720762315,-0.01171872
1764434349.4450428,-2.07536,1.31236,0.44254,-0.67687815,0.720762315,-0.01171872
1764434349.4450428,-2.07536,1.31236,0.44254,-0.67687815,0.720762315,-0.01171872
1764434349.4450428,-2.07536,1.31236,0.44254,-0.67687815,0.720762315,-0.01171872
1764434349.446559,-2.07536,1.31236,0.44254,-0.67687815,0.720762315,-0.01171872
1764434349.446559,-2.07536,1.31236,0.44254,-0.67687815,0.720762315,-0.01171872
1764434349.4886992,-2.07536,1.31236,0.44254,-0.67687815,0.720762315,-0.01171872
1764434349.4886992,-2.07536,1.31236,0.44254,-0.67687815,0.720762315,-0.01171872
1764434349.4886992,-2.07536,1.31236,0.44254,-0.67687815,0.720762315,-0.01171872
1764434349.4886992,-2.07536,1.31236,0.44254,-0.67687815,0.720762315,-0.01171872
1764434349.4886992,-3.052,1.32762,0.06104,-0.677671605,0.7209454200000001,-0.012634245
1764434349.4886992,-3.052,1.32762,0.06104,-0.677671605,0.7209454200000001,-0.012634245
1764434349.4886992,-3.052,1.32762,0.06104,-0.677671605,0.7209454200000001,-0.012634245
1764434349.4886992,-3.052,1.32762,0.06104,-0.677671605,0.7209454200000001,-0.012634245
1764434349.4886992,-3.052,1.32762,0.06104,-0.677671605,0.7209454200000001,-0.012634245
1764434349.4886992,-3.052,1.32762,0.06104,-0.677671605,0.7209454200000001,-0.012634245
1764434349.4886992,-3.052,1.32762,0.06104,-0.677671605,0.7209454200000001,-0.012634245
1764434349.4886992,-3.052,1.32762,0.06104,-0.677671605,0.7209454200000001,-0.012634245
1764434349.4886992,-3.052,1.32762,0.06104,-0.677671605,0.7209454200000001,-0.012634245
1764434349.4886992,-3.052,1.32762,0.06104,-0.677671605,0.7209454200000001,-0.012634245
1764434349.4886992,-2.22796,2.12114,0.77826,-0.678526095,0.72155577,-0.01318356
1764434349.4886992,-2.22796,2.12114,0.77826,-0.678526095,0.72155577,-0.01318356
1764434349.4886992,-2.22796,2.12114,0.77826,-0.678526095,0.72155577,-0.01318356
1764434349.4886992,-2.22796,2.12114,0.77826,-0.678526095,0.72155577,-0.01318356
1764434349.4886992,-2.22796,2.12114,0.77826,-0.678526095,0.72155577,-0.01318356
1764434349.4886992,-2.22796,2.12114,0.77826,-0.678526095,0.72155577,-0.01318356
1764434349.4886992,-2.22796,2.12114,0.77826,-0.678526095,0.72155577,-0.01318356
1764434349.4886992,-2.22796,2.12114,0.77826,-0.678526095,0.72155577,-0.01318356
1764434349.5352318,-2.22796,2.12114,0.77826,-0.678526095,0.72155577,-0.01318356
1764434349.5352318,-2.22796,2.12114,0.77826,-0.678526095,0.72155577,-0.01318356
1764434349.5352318,-1.8006799999999998,2.33478,0.93086,-0.678281955,0.721738875,-0.013732875
1764434349.5368853,-1.8006799999999998,2.33478,0.93086,-0.678281955,0.721738875,-0.013732875
1764434349.5368853,-1.8006799999999998,2.33478,0.93086,-0.678281955,0.721738875,-0.013732875
1764434349.5368853,-1.8006799999999998,2.33478,0.93086,-0.678281955,0.721738875,-0.013732875
1764434349.5368853,-1.8006799999999998,2.33478,0.93086,-0.678281955,0.721738875,-0.013732875
1764434349.5368853,-1.8006799999999998,2.33478,0.93086,-0.678281955,0.721738875,-0.013732875
1764434349.5368853,-1.8006799999999998,2.33478,0.93086,-0.678281955,0.721738875,-0.013732875
1764434349.5368853,-1.8006799999999998,2.33478,0.93086,-0.678281955,0.721738875,-0.013732875
1764434349.5368853,-1.8006799999999998,2.33478,0.93086,-0.678281955,0.721738875,-0.013732875
1764434349.5368853,-1.8006799999999998,2.33478,0.93086,-0.678281955,0.721738875,-0.013732875
1764434349.5379038,-2.16692,2.0601,0.8392999999999999,-0.67822092,0.72131163,-0.013488735
1764434349.5379038,-2.16692,2.0601,0.8392999999999999,-0.67822092,0.72131163,-0.013488735
1764434349.5379038,-2.16692,2.0601,0.8392999999999999,-0.67822092,0.72131163,-0.013488735
1764434349.5379038,-2.16692,2.0601,0.8392999999999999,-0.67822092,0.72131163,-0.013488735
1764434349.5379038,-2.16692,2.0601,0.8392999999999999,-0.67822092,0.72131163,-0.013488735
1764434349.5389838,-2.16692,2.0601,0.8392999999999999,-0.67822092,0.72131163,-0.013488735
1764434349.5389838,-2.16692,2.0601,0.8392999999999999,-0.67822092,0.72131163,-0.013488735
1764434349.5389838,-2.16692,2.0601,0.8392999999999999,-0.67822092,0.72131163,-0.013488735
1764434349.5389838,-2.16692,2.0601,0.8392999999999999,-0.67822092,0.72131163,-0.013488735
1764434349.5389838,-2.16692,2.0601,0.8392999999999999,-0.67822092,0.72131163,-0.013488735
1764434349.5389838,-1.84646,2.07536,0.93086,-0.67724436,0.7209454200000001,-0.012878385
1764434349.5389838,-1.84646,2.07536,0.93086,-0.67724436,0.7209454200000001,-0.012878385
1764434349.5799332,-1.84646,2.07536,0.93086,-0.67724436,0.7209454200000001,-0.012878385
1764434349.5799332,-1.84646,2.07536,0.93086,-0.67724436,0.7209454200000001,-0.012878385
1764434349.5799332,-1.84646,2.07536,0.93086,-0.67724436,0.7209454200000001,-0.012878385
1764434349.5799332,-1.84646,2.07536,0.93086,-0.67724436,0.7209454200000001,-0.012878385
1764434349.5799332,-1.84646,2.07536,0.93086,-0.67724436,0.7209454200000001,-0.012878385
1764434349.5799332,-1.84646,2.07536,0.93086,-0.67724436,0.7209454200000001,-0.012878385
1764434349.5799332,-1.84646,2.07536,0.93086,-0.67724436,0.7209454200000001,-0.012878385
1764434349.5799332,-1.84646,2.07536,0.93086,-0.67724436,0.7209454200000001,-0.012878385
1764434349.5799332,-1.84646,1.96854,0.73248,-0.67675608,0.72118956,-0.01367184
1764434349.5799332,-1.84646,1.96854,0.73248,-0.67675608,0.72118956,-0.01367184
1764434349.5799332,-1.84646,1.96854,0.73248,-0.67675608,0.72118956,-0.01367184
1764434349.5799332,-1.84646,1.96854,0.73248,-0.67675608,0.72118956,-0.01367184
1764434349.581473,-1.84646,1.96854,0.73248,-0.67675608,0.72118956,-0.01367184
1764434349.581473,-1.84646,1.96854,0.73248,-0.67675608,0.72118956,-0.01367184
1764434349.581473,-1.84646,1.96854,0.73248,-0.67675608,0.72118956,-0.01367184
1764434349.581473,-1.84646,1.96854,0.73248,-0.67675608,0.72118956,-0.01367184
1764434349.581473,-1.84646,1.96854,0.73248,-0.67675608,0.72118956,-0.01367184
1764434349.581473,-1.84646,1.96854,0.73248,-0.67675608,0.72118956,-0.01367184
1764434349.581473,-1.77016,2.07536,0.9919,-0.676572975,0.721372665,-0.01416012
1764434349.581473,-1.77016,2.07536,0.9919,-0.676572975,0.721372665,-0.01416012
1764434349.581473,-1.77016,2.07536,0.9919,-0.676572975,0.721372665,-0.01416012
1764434349.581473,-1.77016,2.07536,0.9919,-0.676572975,0.721372665,-0.01416012
1764434349.581473,-1.77016,2.07536,0.9919,-0.676572975,0.721372665,-0.01416012
1764434349.581473,-1.77016,2.07536,0.9919,-0.676572975,0.721372665,-0.01416012
1764434349.6304688,-1.77016,2.07536,0.9919,-0.676572975,0.721372665,-0.01416012
1764434349.6304688,-1.77016,2.07536,0.9919,-0.676572975,0.721372665,-0.01416012
1764434349.6304688,-1.77016,2.07536,0.9919,-0.676572975,0.721372665,-0.01416012
1764434349.6304688,-1.77016,2.07536,0.9919,-0.676572975,0.721372665,-0.01416012
1764434349.6304688,-1.9075,1.89224,0.51884,-0.6763898700000001,0.72241026,-0.014587365
1764434349.6304688,-1.9075,1.89224,0.51884,-0.6763898700000001,0.72241026,-0.014587365
1764434349.6304688,-1.9075,1.89224,0.51884,-0.6763898700000001,0.72241026,-0.014587365
1764434349.6304688,-1.9075,1.89224,0.51884,-0.6763898700000001,0.72241026,-0.014587365
1764434349.6304688,-1.9075,1.89224,0.51884,-0.6763898700000001,0.72241026,-0.014587365
1764434349.6304688,-1.9075,1.89224,0.51884,-0.6763898700000001,0.72241026,-0.014587365
1764434349.6304688,-1.9075,1.89224,0.51884,-0.6763898700000001,0.72241026,-0.014587365
1764434349.6304688,-1.9075,1.89224,0.51884,-0.6763898700000001,0.72241026,-0.014587365
1764434349.6304688,-1.9075,1.89224,0.51884,-0.6763898700000001,0.72241026,-0.014587365
1764434349.6304688,-1.9075,1.89224,0.51884,-0.6763898700000001,0.72241026,-0.014587365
1764434349.6304688,-1.86172,1.92276,0.7019599999999999,-0.676939185,0.72289854,-0.01501461
