Timestamp,GyroX,GyroY,GyroZ,AccX,AccY,AccZ
1764434424.874262,-2.60946,0.24416,1.1445,0.98193108,0.028015065,0.08898903
1764434424.874262,-2.60946,0.24416,1.1445,0.98193108,0.028015065,0.08898903
1764434424.874262,-2.60946,0.24416,1.1445,0.98193108,0.028015065,0.08898903
1764434424.874262,-2.60946,0.24416,1.1445,0.98193108,0.028015065,0.08898903
1764434424.874262,-2.60946,0.24416,1.1445,0.98193108,0.028015065,0.08898903
1764434424.874262,-2.60946,0.24416,1.1445,0.98193108,0.028015065,0.08898903
1764434424.874262,-2.60946,0.24416,1.1445,0.98193108,0.028015065,0.08898903
1764434424.874262,-2.60946,0.24416,1.1445,0.98193108,0.028015065,0.08898903
1764434424.874262,-2.60946,0.24416,1.1445,0.98193108,0.028015065,0.08898903
1764434424.874262,-2.02958,0.3815,1.57178,0.98254143,0.0280761,0.08813454
1764434424.874262,-2.02958,0.3815,1.57178,0.98254143,0.0280761,0.08813454
1764434424.874262,-2.02958,0.3815,1.57178,0.98254143,0.0280761,0.08813454
1764434424.874262,-2.02958,0.3815,1.57178,0.98254143,0.0280761,0.08813454
1764434424.874262,-2.02958,0.3815,1.57178,0.98254143,0.0280761,0.08813454
1764434424.874262,-2.02958,0.3815,1.57178,0.98254143,0.0280761,0.08813454
1764434424.874262,-2.02958,0.3815,1.57178,0.98254143,0.0280761,0.08813454
1764434424.874262,-2.02958,0.3815,1.57178,0.98254143,0.0280761,0.08813454
1764434424.874262,-2.02958,0.3815,1.57178,0.98254143,0.0280761,0.08813454
1764434424.874262,-2.02958,0.3815,1.57178,0.98254143,0.0280761,0.08813454
1764434424.874262,-2.22796,0.6867,1.8006799999999998,0.982724535,0.027892995,0.08837868
1764434424.874262,-2.22796,0.6867,1.8006799999999998,0.982724535,0.027892995,0.08837868
1764434424.874262,-2.22796,0.6867,1.8006799999999998,0.982724535,0.027892995,0.08837868
1764434424.874262,-2.22796,0.6867,1.8006799999999998,0.982724535,0.027892995,0.08837868
1764434424.91922,-2.22796,0.6867,1.8006799999999998,0.982724535,0.027892995,0.08837868
1764434424.91922,-2.22796,0.6867,1.8006799999999998,0.982724535,0.027892995,0.08837868
1764434424.91922,-2.22796,0.6867,1.8006799999999998,0.982724535,0.027892995,0.08837868
1764434424.91922,-2.22796,0.6867,1.8006799999999998,0.982724535,0.027892995,0.08837868
1764434424.91922,-2.22796,0.6867,1.8006799999999998,0.982724535,0.027892995,0.08837868
1764434424.91922,-2.22796,0.6867,1.8006799999999998,0.982724535,0.027892995,0.08837868
1764434424.91922,-2.57894,0.3815,1.73964,0.98205315,0.029601975,0.087585225
1764434424.91922,-2.57894,0.3815,1.73964,0.98205315,0.029601975,0.087585225
1764434424.91922,-2.57894,0.3815,1.73964,0.98205315,0.029601975,0.087585225
1764434424.91922,-2.57894,0.3815,1.73964,0.98205315,0.029601975,0.087585225
1764434424.91922,-2.57894,0.3815,1.73964,0.98205315,0.029601975,0.087585225
1764434424.91922,-2.57894,0.3815,1.73964,0.98205315,0.029601975,0.087585225
1764434424.91922,-2.57894,0.3815,1.73964,0.98205315,0.029601975,0.087585225
1764434424.91922,-2.57894,0.3815,1.73964,0.98205315,0.029601975,0.087585225
1764434424.91922,-2.57894,0.3815,1.73964,0.98205315,0.029601975,0.087585225
1764434424.920756,-2.57894,0.3815,1.73964,0.98205315,0.029601975,0.087585225
1764434424.920756,-3.00622,0.3204599999999999,1.61756,0.982968675,0.030578535,0.08813454
1764434424.921774,-3.00622,0.3204599999999999,1.61756,0.982968675,0.030578535,0.08813454
1764434424.921774,-3.00622,0.3204599999999999,1.61756,0.982968675,0.030578535,0.08813454
1764434424.921774,-3.00622,0.3204599999999999,1.61756,0.982968675,0.030578535,0.08813454
1764434424.921774,-3.00622,0.3204599999999999,1.61756,0.982968675,0.030578535,0.08813454
1764434424.922786,-3.00622,0.3204599999999999,1.61756,0.982968675,0.030578535,0.08813454
1764434424.922786,-3.00622,0.3204599999999999,1.61756,0.982968675,0.030578535,0.08813454
1764434424.922786,-3.00622,0.3204599999999999,1.61756,0.982968675,0.030578535,0.08813454
1764434424.9677105,-3.00622,0.3204599999999999,1.61756,0.982968675,0.030578535,0.08813454
1764434424.9677105,-3.00622,0.3204599999999999,1.61756,0.982968675,0.030578535,0.08813454
1764434424.9677105,-2.9757,1.0682,0.97664,0.9851049,0.030334395,0.088317645
1764434424.9677105,-2.9757,1.0682,0.97664,0.9851049,0.030334395,0.088317645
1764434424.9677105,-2.9757,1.0682,0.97664,0.9851049,0.030334395,0.088317645
1764434424.9677105,-2.9757,1.0682,0.97664,0.9851049,0.030334395,0.088317645
1764434424.9677105,-2.9757,1.0682,0.97664,0.9851049,0.030334395,0.088317645
1764434424.9677105,-2.9757,1.0682,0.97664,0.9851049,0.030334395,0.088317645
1764434424.9677105,-2.9757,1.0682,0.97664,0.9851049,0.030334395,0.088317645
1764434424.9677105,-2.9757,1.0682,0.97664,0.9851049,0.030334395,0.088317645
1764434424.9677105,-2.9757,1.0682,0.97664,0.9851049,0.030334395,0.088317645
1764434424.9677105,-2.9757,1.0682,0.97664,0.9851049,0.030334395,0.088317645
1764434424.9677105,-2.57894,1.0682,1.11398,0.983823165,0.030212325,0.08837868
1764434424.9677105,-2.57894,1.0682,1.11398,0.983823165,0.030212325,0.08837868
1764434424.9677105,-2.57894,1.0682,1.11398,0.983823165,0.030212325,0.08837868
1764434424.9677105,-2.57894,1.0682,1.11398,0.983823165,0.030212325,0.08837868
1764434424.9677105,-2.57894,1.0682,1.11398,0.983823165,0.030212325,0.08837868
1764434424.9677105,-2.57894,1.0682,1.11398,0.983823165,0.030212325,0.08837868
1764434424.9677105,-2.57894,1.0682,1.11398,0.983823165,0.030212325,0.08837868
1764434424.969223,-2.57894,1.0682,1.11398,0.983823165,0.030212325,0.08837868
1764434425.014986,-2.57894,1.0682,1.11398,0.983823165,0.030212325,0.08837868
1764434425.014986,-2.57894,1.0682,1.11398,0.983823165,0.030212325,0.08837868
1764434425.0159914,-3.03674,0.8392999999999999,1.05294,0.98083245,0.0305175,0.088683855
1764434425.0159914,-3.03674,0.8392999999999999,1.05294,0.98083245,0.0305175,0.088683855
1764434425.0159914,-3.03674,0.8392999999999999,1.05294,0.98083245,0.0305175,0.088683855
1764434425.016994,-3.03674,0.8392999999999999,1.05294,0.98083245,0.0305175,0.088683855
1764434425.016994,-3.03674,0.8392999999999999,1.05294,0.98083245,0.0305175,0.088683855
1764434425.016994,-3.03674,0.8392999999999999,1.05294,0.98083245,0.0305175,0.088683855
1764434425.0179887,-3.03674,0.8392999999999999,1.05294,0.98083245,0.0305175,0.088683855
1764434425.0179887,-3.03674,0.8392999999999999,1.05294,0.98083245,0.0305175,0.088683855
1764434425.0179887,-3.03674,0.8392999999999999,1.05294,0.98083245,0.0305175,0.088683855
1764434425.0179887,-3.03674,0.8392999999999999,1.05294,0.98083245,0.0305175,0.088683855
1764434425.0179887,-2.56368,1.26658,1.48022,0.97961175,0.030334395,0.08984352
1764434425.019501,-2.56368,1.26658,1.48022,0.97961175,0.030334395,0.08984352
1764434425.0199888,-2.56368,1.26658,1.48022,0.97961175,0.030334395,0.08984352
1764434425.0199888,-2.56368,1.26658,1.48022,0.97961175,0.030334395,0.08984352
1764434425.0199888,-2.56368,1.26658,1.48022,0.97961175,0.030334395,0.08984352
1764434425.0199888,-2.56368,1.26658,1.48022,0.97961175,0.030334395,0.08984352
1764434425.020747,-2.56368,1.26658,1.48022,0.97961175,0.030334395,0.08984352
1764434425.020747,-2.56368,1.26658,1.48022,0.97961175,0.030334395,0.08984352
1764434425.020747,-2.56368,1.26658,1.48022,0.97961175,0.030334395,0.08984352
1764434425.021764,-2.56368,1.26658,1.48022,0.97961175,0.030334395,0.08984352
1764434425.021764,-1.9075,1.43444,1.6786,0.98046624,0.029235765,0.09008766
1764434425.021764,-1.9075,1.43444,1.6786,0.98046624,0.029235765,0.09008766
1764434425.0632343,-1.9075,1.43444,1.6786,0.98046624,0.029235765,0.09008766
1764434425.0632343,-1.9075,1.43444,1.6786,0.98046624,0.029235765,0.09008766
1764434425.0632343,-1.9075,1.43444,1.6786,0.98046624,0.029235765,0.09008766
1764434425.0632343,-1.9075,1.43444,1.6786,0.98046624,0.029235765,0.09008766
1764434425.0632343,-1.9075,1.43444,1.6786,0.98046624,0.029235765,0.09008766
1764434425.0632343,-1.9075,1.43444,1.6786,0.98046624,0.029235765,0.09008766
1764434425.0632343,-1.9075,1.43444,1.6786,0.98046624,0.029235765,0.09008766
1764434425.0642354,-1.9075,1.43444,1.6786,0.98046624,0.029235765,0.09008766
1764434425.0642354,-0.47306,0.96138,2.3653,0.980771415,0.027282645,0.09082008
1764434425.0642354,-0.47306,0.96138,2.3653,0.980771415,0.027282645,0.09082008
1764434425.0642354,-0.47306,0.96138,2.3653,0.980771415,0.027282645,0.09082008
1764434425.0642354,-0.47306,0.96138,2.3653,0.980771415,0.027282645,0.09082008
1764434425.0642354,-0.47306,0.96138,2.3653,0.980771415,0.027282645,0.09082008
1764434425.0642354,-0.47306,0.96138,2.3653,0.980771415,0.027282645,0.09082008
1764434425.0642354,-0.47306,0.96138,2.3653,0.980771415,0.027282645,0.09082008
1764434425.0642354,-0.47306,0.96138,2.3653,0.980771415,0.027282645,0.09082008
1764434425.0642354,-0.47306,0.96138,2.3653,0.980771415,0.027282645,0.09082008
1764434425.0642354,-0.47306,0.96138,2.3653,0.980771415,0.027282645,0.09082008
1764434425.1071882,1.38866,0.3357199999999999,3.78448,0.981015555,0.025451595,0.09118629
1764434425.1071882,1.38866,0.3357199999999999,3.78448,0.981015555,0.025451595,0.09118629
1764434425.1071882,1.38866,0.3357199999999999,3.78448,0.981015555,0.025451595,0.09118629
1764434425.1071882,1.38866,0.3357199999999999,3.78448,0.981015555,0.025451595,0.09118629
1764434425.1071882,1.38866,0.3357199999999999,3.78448,0.981015555,0.025451595,0.09118629
1764434425.1071882,1.38866,0.3357199999999999,3.78448,0.981015555,0.025451595,0.09118629
1764434425.1071882,1.38866,0.3357199999999999,3.78448,0.981015555,0.025451595,0.09118629
1764434425.1071882,1.38866,0.3357199999999999,3.78448,0.981015555,0.025451595,0.09118629
1764434425.1071882,1.38866,0.3357199999999999,3.78448,0.981015555,0.025451595,0.09118629
1764434425.1071882,1.38866,0.3357199999999999,3.78448,0.981015555,0.025451595,0.09118629
1764434425.1071882,2.71628,-0.50358,4.74586,0.980771415,0.023742615,0.09179664
1764434425.1071882,2.71628,-0.50358,4.74586,0.980771415,0.023742615,0.09179664
1764434425.1071882,2.71628,-0.50358,4.74586,0.980771415,0.023742615,0.09179664
1764434425.1071882,2.71628,-0.50358,4.74586,0.980771415,0.023742615,0.09179664
1764434425.1071882,2.71628,-0.50358,4.74586,0.980771415,0.023742615,0.09179664
1764434425.1071882,2.71628,-0.50358,4.74586,0.980771415,0.023742615,0.09179664
1764434425.1071882,2.71628,-0.50358,4.74586,0.980771415,0.023742615,0.09179664
1764434425.1071882,2.71628,-0.50358,4.74586,0.980771415,0.023742615,0.09179664
1764434425.1071882,2.71628,-0.50358,4.74586,0.980771415,0.023742615,0.09179664
1764434425.1071882,2.71628,-0.50358,4.74586,0.980771415,0.023742615,0.09179664
1764434425.1071882,4.59326,-1.63282,5.20366,0.980527275,0.02368158,0.09167457
1764434425.1071882,4.59326,-1.63282,5.20366,0.980527275,0.02368158,0.09167457
1764434425.108193,4.59326,-1.63282,5.20366,0.980527275,0.02368158,0.09167457
1764434425.108193,4.59326,-1.63282,5.20366,0.980527275,0.02368158,0.09167457
1764434425.108193,4.59326,-1.63282,5.20366,0.980527275,0.02368158,0.09167457
1764434425.108193,4.59326,-1.63282,5.20366,0.980527275,0.02368158,0.09167457
1764434425.108193,4.59326,-1.63282,5.20366,0.980527275,0.02368158,0.09167457
1764434425.108193,4.59326,-1.63282,5.20366,0.980527275,0.02368158,0.09167457
1764434425.108193,4.59326,-1.63282,5.20366,0.980527275,0.02368158,0.09167457
1764434425.108193,4.59326,-1.63282,5.20366,0.980527275,0.02368158,0.09167457
1764434425.154947,6.08874,-2.38056,5.78354,0.981381765,0.023132265,0.0915525
1764434425.154947,6.08874,-2.38056,5.78354,0.981381765,0.023132265,0.0915525
1764434425.154947,6.08874,-2.38056,5.78354,0.981381765,0.023132265,0.0915525
1764434425.154947,6.08874,-2.38056,5.78354,0.981381765,0.023132265,0.0915525
1764434425.154947,6.08874,-2.38056,5.78354,0.981381765,0.023132265,0.0915525
1764434425.154947,6.08874,-2.38056,5.78354,0.981381765,0.023132265,0.0915525
1764434425.154947,6.08874,-2.38056,5.78354,0.981381765,0.023132265,0.0915525
1764434425.154947,6.08874,-2.38056,5.78354,0.981381765,0.023132265,0.0915525
1764434425.154947,6.08874,-2.38056,5.78354,0.981381765,0.023132265,0.0915525
1764434425.154947,6.08874,-2.38056,5.78354,0.981381765,0.023132265,0.0915525
1764434425.2019794,7.00434,-1.92276,6.74492,0.982114185,0.02294916,0.09069801
1764434425.2030015,7.00434,-1.92276,6.74492,0.982114185,0.02294916,0.09069801
1764434425.2030015,7.00434,-1.92276,6.74492,0.982114185,0.02294916,0.09069801
1764434425.2030015,7.00434,-1.92276,6.74492,0.982114185,0.02294916,0.09069801
1764434425.2030015,7.00434,-1.92276,6.74492,0.982114185,0.02294916,0.09069801
1764434425.2030015,7.00434,-1.92276,6.74492,0.982114185,0.02294916,0.09069801
1764434425.2030015,7.00434,-1.92276,6.74492,0.982114185,0.02294916,0.09069801
1764434425.2030015,7.00434,-1.92276,6.74492,0.982114185,0.02294916,0.09069801
1764434425.2039964,7.00434,-1.92276,6.74492,0.982114185,0.02294916,0.09069801
1764434425.2039964,7.00434,-1.92276,6.74492,0.982114185,0.02294916,0.09069801
1764434425.2039964,7.53844,-2.9757,7.05012,0.98095452,0.024963315,0.08898903
1764434425.2039964,7.53844,-2.9757,7.05012,0.98095452,0.024963315,0.08898903
1764434425.2039964,7.53844,-2.9757,7.05012,0.98095452,0.024963315,0.08898903
1764434425.2039964,7.53844,-2.9757,7.05012,0.98095452,0.024963315,0.08898903
1764434425.2049973,7.53844,-2.9757,7.05012,0.98095452,0.024963315,0.08898903
1764434425.2049973,7.53844,-2.9757,7.05012,0.98095452,0.024963315,0.08898903
1764434425.2049973,7.53844,-2.9757,7.05012,0.98095452,0.024963315,0.08898903
1764434425.2049973,7.53844,-2.9757,7.05012,0.98095452,0.024963315,0.08898903
1764434425.2049973,7.53844,-2.9757,7.05012,0.98095452,0.024963315,0.08898903
1764434425.2049973,7.53844,-2.9757,7.05012,0.98095452,0.024963315,0.08898903
1764434425.2049973,7.553699999999999,-3.06726,8.179359999999999,0.981137625,0.02587884,0.087219015
1764434425.2049973,7.553699999999999,-3.06726,8.179359999999999,0.981137625,0.02587884,0.087219015
1764434425.2049973,7.553699999999999,-3.06726,8.179359999999999,0.981137625,0.02587884,0.087219015
1764434425.2049973,7.553699999999999,-3.06726,8.179359999999999,0.981137625,0.02587884,0.087219015
1764434425.2049973,7.553699999999999,-3.06726,8.179359999999999,0.981137625,0.02587884,0.087219015
1764434425.2049973,7.553699999999999,-3.06726,8.179359999999999,0.981137625,0.02587884,0.087219015
1764434425.2055097,7.553699999999999,-3.06726,8.179359999999999,0.981137625,0.02587884,0.087219015
1764434425.2055097,7.553699999999999,-3.06726,8.179359999999999,0.981137625,0.02587884,0.087219015
1764434425.2055097,7.553699999999999,-3.06726,8.179359999999999,0.981137625,0.02587884,0.087219015
1764434425.2055097,7.553699999999999,-3.06726,8.179359999999999,0.981137625,0.02587884,0.087219015
1764434425.2516255,7.14168,-2.92992,8.83554,0.981625905,0.026428155,0.086608665
1764434425.2516255,7.14168,-2.92992,8.83554,0.981625905,0.026428155,0.086608665
1764434425.2516255,7.14168,-2.92992,8.83554,0.981625905,0.026428155,0.086608665
1764434425.2516255,7.14168,-2.92992,8.83554,0.981625905,0.026428155,0.086608665
1764434425.2516255,7.14168,-2.92992,8.83554,0.981625905,0.026428155,0.086608665
1764434425.253155,7.14168,-2.92992,8.83554,0.981625905,0.026428155,0.086608665
1764434425.253155,7.14168,-2.92992,8.83554,0.981625905,0.026428155,0.086608665
1764434425.253155,7.14168,-2.92992,8.83554,0.981625905,0.026428155,0.086608665
1764434425.253155,7.14168,-2.92992,8.83554,0.981625905,0.026428155,0.086608665
1764434425.253155,7.14168,-2.92992,8.83554,0.981625905,0.026428155,0.086608665
1764434425.253155,7.67578,-3.052,9.87322,0.98205315,0.025329525,0.086120385
1764434425.253155,7.67578,-3.052,9.87322,0.98205315,0.025329525,0.086120385
1764434425.253155,7.67578,-3.052,9.87322,0.98205315,0.025329525,0.086120385
1764434425.253155,7.67578,-3.052,9.87322,0.98205315,0.025329525,0.086120385
1764434425.253155,7.67578,-3.052,9.87322,0.98205315,0.025329525,0.086120385
1764434425.253155,7.67578,-3.052,9.87322,0.98205315,0.025329525,0.086120385
1764434425.253155,7.67578,-3.052,9.87322,0.98205315,0.025329525,0.086120385
1764434425.253155,7.67578,-3.052,9.87322,0.98205315,0.025329525,0.086120385
1764434425.253155,7.67578,-3.052,9.87322,0.98205315,0.025329525,0.086120385
1764434425.253155,7.67578,-3.052,9.87322,0.98205315,0.025329525,0.086120385
1764434425.253155,8.02676,-2.96044,10.78882,0.981625905,0.02343744,0.085632105
1764434425.253155,8.02676,-2.96044,10.78882,0.981625905,0.02343744,0.085632105
1764434425.2948124,8.02676,-2.96044,10.78882,0.981625905,0.02343744,0.085632105
1764434425.2948124,8.02676,-2.96044,10.78882,0.981625905,0.02343744,0.085632105
1764434425.3440783,8.02676,-2.96044,10.78882,0.981625905,0.02343744,0.085632105
1764434425.3440783,8.02676,-2.96044,10.78882,0.981625905,0.02343744,0.085632105
1764434425.3440783,8.02676,-2.96044,10.78882,0.981625905,0.02343744,0.085632105
1764434425.3440783,8.02676,-2.96044,10.78882,0.981625905,0.02343744,0.085632105
1764434425.3440783,8.02676,-2.96044,10.78882,0.981625905,0.02343744,0.085632105
1764434425.3440783,8.02676,-2.96044,10.78882,0.981625905,0.02343744,0.085632105
1764434425.3440783,8.71346,-3.18934,12.5132,0.98058831,0.023132265,0.08483865
1764434425.3440783,8.71346,-3.18934,12.5132,0.98058831,0.023132265,0.08483865
1764434425.3440783,8.71346,-3.18934,12.5132,0.98058831,0.023132265,0.08483865
1764434425.3440783,8.71346,-3.18934,12.5132,0.98058831,0.023132265,0.08483865
1764434425.3440783,8.71346,-3.18934,12.5132,0.98058831,0.023132265,0.08483865
1764434425.3440783,8.71346,-3.18934,12.5132,0.98058831,0.023132265,0.08483865
1764434425.3440783,8.71346,-3.18934,12.5132,0.98058831,0.023132265,0.08483865
1764434425.3440783,8.71346,-3.18934,12.5132,0.98058831,0.023132265,0.08483865
1764434425.3440783,8.71346,-3.18934,12.5132,0.98058831,0.023132265,0.08483865
1764434425.3440783,8.71346,-3.18934,12.5132,0.98058831,0.023132265,0.08483865
1764434425.3440783,8.98814,-3.69292,13.41354,0.981137625,0.021911565,0.08374002
1764434425.3440783,8.98814,-3.69292,13.41354,0.981137625,0.021911565,0.08374002
1764434425.3440783,8.98814,-3.69292,13.41354,0.981137625,0.021911565,0.08374002
1764434425.3440783,8.98814,-3.69292,13.41354,0.981137625,0.021911565,0.08374002
1764434425.3450851,8.98814,-3.69292,13.41354,0.981137625,0.021911565,0.08374002
1764434425.3450851,8.98814,-3.69292,13.41354,0.981137625,0.021911565,0.08374002
1764434425.3450851,8.98814,-3.69292,13.41354,0.981137625,0.021911565,0.08374002
1764434425.3450851,8.98814,-3.69292,13.41354,0.981137625,0.021911565,0.08374002
1764434425.3450851,8.98814,-3.69292,13.41354,0.981137625,0.021911565,0.08374002
1764434425.3450851,8.98814,-3.69292,13.41354,0.981137625,0.021911565,0.08374002
1764434425.3450851,9.26282,-3.23512,13.48984,0.98290764,0.019958445,0.08312967
1764434425.3450851,9.26282,-3.23512,13.48984,0.98290764,0.019958445,0.08312967
1764434425.3450851,9.26282,-3.23512,13.48984,0.98290764,0.019958445,0.08312967
1764434425.3450851,9.26282,-3.23512,13.48984,0.98290764,0.019958445,0.08312967
1764434425.3450851,9.26282,-3.23512,13.48984,0.98290764,0.019958445,0.08312967
1764434425.3450851,9.26282,-3.23512,13.48984,0.98290764,0.019958445,0.08312967
1764434425.3450851,9.26282,-3.23512,13.48984,0.98290764,0.019958445,0.08312967
1764434425.3450851,9.26282,-3.23512,13.48984,0.98290764,0.019958445,0.08312967
1764434425.3450851,9.26282,-3.23512,13.48984,0.98290764,0.019958445,0.08312967
1764434425.3450851,9.26282,-3.23512,13.48984,0.98290764,0.019958445,0.08312967
1764434425.3450851,9.41542,-3.11304,13.38302,0.98449455,0.018981885,0.08190897
1764434425.3450851,9.41542,-3.11304,13.38302,0.98449455,0.018981885,0.08190897
1764434425.3450851,9.41542,-3.11304,13.38302,0.98449455,0.018981885,0.08190897
1764434425.3450851,9.41542,-3.11304,13.38302,0.98449455,0.018981885,0.08190897
1764434425.3450851,9.41542,-3.11304,13.38302,0.98449455,0.018981885,0.08190897
1764434425.3450851,9.41542,-3.11304,13.38302,0.98449455,0.018981885,0.08190897
1764434425.346076,9.41542,-3.11304,13.38302,0.98449455,0.018981885,0.08190897
1764434425.346076,9.41542,-3.11304,13.38302,0.98449455,0.018981885,0.08190897
1764434425.3857012,9.41542,-3.11304,13.38302,0.98449455,0.018981885,0.08190897
1764434425.3862164,9.41542,-3.11304,13.38302,0.98449455,0.018981885,0.08190897
1764434425.3862164,9.29334,-3.08252,13.4288,0.98486076,0.018127395,0.0805662
1764434425.3862164,9.29334,-3.08252,13.4288,0.98486076,0.018127395,0.0805662
1764434425.3872375,9.29334,-3.08252,13.4288,0.98486076,0.018127395,0.0805662
1764434425.3872375,9.29334,-3.08252,13.4288,0.98486076,0.018127395,0.0805662
1764434425.3872375,9.29334,-3.08252,13.4288,0.98486076,0.018127395,0.0805662
1764434425.3872375,9.29334,-3.08252,13.4288,0.98486076,0.018127395,0.0805662
1764434425.3872375,9.29334,-3.08252,13.4288,0.98486076,0.018127395,0.0805662
1764434425.388352,9.29334,-3.08252,13.4288,0.98486076,0.018127395,0.0805662
1764434425.388352,9.29334,-3.08252,13.4288,0.98486076,0.018127395,0.0805662
1764434425.388352,9.29334,-3.08252,13.4288,0.98486076,0.018127395,0.0805662
1764434425.388352,8.8508,-2.8231,13.10834,0.985410075,0.016418415,0.07946757
1764434425.388352,8.8508,-2.8231,13.10834,0.985410075,0.016418415,0.07946757
1764434425.435846,8.8508,-2.8231,13.10834,0.985410075,0.016418415,0.07946757
1764434425.435846,8.8508,-2.8231,13.10834,0.985410075,0.016418415,0.07946757
1764434425.436839,8.8508,-2.8231,13.10834,0.985410075,0.016418415,0.07946757
1764434425.436839,8.8508,-2.8231,13.10834,0.985410075,0.016418415,0.07946757
1764434425.436839,8.8508,-2.8231,13.10834,0.985410075,0.016418415,0.07946757
1764434425.436839,8.8508,-2.8231,13.10834,0.985410075,0.016418415,0.07946757
1764434425.436839,8.8508,-2.8231,13.10834,0.985410075,0.016418415,0.07946757
1764434425.436839,8.8508,-2.8231,13.10834,0.985410075,0.016418415,0.07946757
1764434425.436839,8.530339999999999,-2.6705,13.21516,0.98608146,0.0134277,0.07800273
1764434425.436839,8.530339999999999,-2.6705,13.21516,0.98608146,0.0134277,0.07800273
1764434425.436839,8.530339999999999,-2.6705,13.21516,0.98608146,0.0134277,0.07800273
1764434425.436839,8.530339999999999,-2.6705,13.21516,0.98608146,0.0134277,0.07800273
1764434425.436839,8.530339999999999,-2.6705,13.21516,0.98608146,0.0134277,0.07800273
1764434425.436839,8.530339999999999,-2.6705,13.21516,0.98608146,0.0134277,0.07800273
1764434425.436839,8.530339999999999,-2.6705,13.21516,0.98608146,0.0134277,0.07800273
1764434425.436839,8.530339999999999,-2.6705,13.21516,0.98608146,0.0134277,0.07800273
1764434425.436839,8.530339999999999,-2.6705,13.21516,0.98608146,0.0134277,0.07800273
1764434425.436839,8.530339999999999,-2.6705,13.21516,0.98608146,0.0134277,0.07800273
1764434425.436839,9.04918,-3.2046,13.13886,0.98473869,0.009582495,0.077819625
1764434425.436839,9.04918,-3.2046,13.13886,0.98473869,0.009582495,0.077819625
1764434425.436839,9.04918,-3.2046,13.13886,0.98473869,0.009582495,0.077819625
1764434425.436839,9.04918,-3.2046,13.13886,0.98473869,0.009582495,0.077819625
1764434425.436839,9.04918,-3.2046,13.13886,0.98473869,0.009582495,0.077819625
1764434425.436839,9.04918,-3.2046,13.13886,0.98473869,0.009582495,0.077819625
1764434425.436839,9.04918,-3.2046,13.13886,0.98473869,0.009582495,0.077819625
1764434425.436839,9.04918,-3.2046,13.13886,0.98473869,0.009582495,0.077819625
1764434425.436839,9.04918,-3.2046,13.13886,0.98473869,0.009582495,0.077819625
1764434425.437843,9.04918,-3.2046,13.13886,0.98473869,0.009582495,0.077819625
1764434425.437843,10.63622,-3.21986,13.30672,0.984067305,0.004577625,0.07739238
1764434425.437843,10.63622,-3.21986,13.30672,0.984067305,0.004577625,0.07739238
1764434425.437843,10.63622,-3.21986,13.30672,0.984067305,0.004577625,0.07739238
1764434425.437843,10.63622,-3.21986,13.30672,0.984067305,0.004577625,0.07739238
1764434425.437843,10.63622,-3.21986,13.30672,0.984067305,0.004577625,0.07739238
1764434425.437843,10.63622,-3.21986,13.30672,0.984067305,0.004577625,0.07739238
1764434425.437843,10.63622,-3.21986,13.30672,0.984067305,0.004577625,0.07739238
1764434425.437843,10.63622,-3.21986,13.30672,0.984067305,0.004577625,0.07739238
1764434425.437843,10.63622,-3.21986,13.30672,0.984067305,0.004577625,0.07739238
1764434425.437843,10.63622,-3.21986,13.30672,0.984067305,0.004577625,0.07739238
1764434425.437843,11.93332,-3.83026,13.45932,0.98339592,-0.00024414,0.077331345
1764434425.437843,11.93332,-3.83026,13.45932,0.98339592,-0.00024414,0.077331345
1764434425.478126,11.93332,-3.83026,13.45932,0.98339592,-0.00024414,0.077331345
1764434425.478126,11.93332,-3.83026,13.45932,0.98339592,-0.00024414,0.077331345
1764434425.478126,11.93332,-3.83026,13.45932,0.98339592,-0.00024414,0.077331345
1764434425.478126,11.93332,-3.83026,13.45932,0.98339592,-0.00024414,0.077331345
1764434425.478126,11.93332,-3.83026,13.45932,0.98339592,-0.00024414,0.077331345
1764434425.478126,11.93332,-3.83026,13.45932,0.98339592,-0.00024414,0.077331345
1764434425.478126,11.93332,-3.83026,13.45932,0.98339592,-0.00024414,0.077331345
1764434425.478126,11.93332,-3.83026,13.45932,0.98339592,-0.00024414,0.077331345
1764434425.478126,13.36776,-4.0439,14.37492,0.98364006,-0.00305175,0.076720995
1764434425.478126,13.36776,-4.0439,14.37492,0.98364006,-0.00305175,0.076720995
1764434425.4809086,13.36776,-4.0439,14.37492,0.98364006,-0.00305175,0.076720995
1764434425.4809086,13.36776,-4.0439,14.37492,0.98364006,-0.00305175,0.076720995
1764434425.4809086,13.36776,-4.0439,14.37492,0.98364006,-0.00305175,0.076720995
1764434425.4809086,13.36776,-4.0439,14.37492,0.98364006,-0.00305175,0.076720995
1764434425.4809086,13.36776,-4.0439,14.37492,0.98364006,-0.00305175,0.076720995
1764434425.4809086,13.36776,-4.0439,14.37492,0.98364006,-0.00305175,0.076720995
1764434425.4809086,13.36776,-4.0439,14.37492,0.98364006,-0.00305175,0.076720995
1764434425.4809086,13.36776,-4.0439,14.37492,0.98364006,-0.00305175,0.076720995
1764434425.4809086,13.70348,-3.815,14.00868,0.98412834,-0.003356925,0.075134085
1764434425.4809086,13.70348,-3.815,14.00868,0.98412834,-0.003356925,0.075134085
1764434425.4809086,13.70348,-3.815,14.00868,0.98412834,-0.003356925,0.075134085
1764434425.4809086,13.70348,-3.815,14.00868,0.98412834,-0.003356925,0.075134085
1764434425.4809086,13.70348,-3.815,14.00868,0.98412834,-0.003356925,0.075134085
1764434425.4809086,13.70348,-3.815,14.00868,0.98412834,-0.003356925,0.075134085
1764434425.524815,13.70348,-3.815,14.00868,0.98412834,-0.003356925,0.075134085
1764434425.524815,13.70348,-3.815,14.00868,0.98412834,-0.003356925,0.075134085
1764434425.524815,13.70348,-3.815,14.00868,0.98412834,-0.003356925,0.075134085
1764434425.524815,13.70348,-3.815,14.00868,0.98412834,-0.003356925,0.075134085
1764434425.524815,13.29146,-3.55558,13.77978,0.98595939,-0.002990715,0.07360821
1764434425.524815,13.29146,-3.55558,13.77978,0.98595939,-0.002990715,0.07360821
1764434425.524815,13.29146,-3.55558,13.77978,0.98595939,-0.002990715,0.07360821
1764434425.524815,13.29146,-3.55558,13.77978,0.98595939,-0.002990715,0.07360821
1764434425.524815,13.29146,-3.55558,13.77978,0.98595939,-0.002990715,0.07360821
1764434425.524815,13.29146,-3.55558,13.77978,0.98595939,-0.002990715,0.07360821
1764434425.524815,13.29146,-3.55558,13.77978,0.98595939,-0.002990715,0.07360821
1764434425.524815,13.29146,-3.55558,13.77978,0.98595939,-0.002990715,0.07360821
1764434425.524815,13.29146,-3.55558,13.77978,0.98595939,-0.002990715,0.07360821
1764434425.524815,13.29146,-3.55558,13.77978,0.98595939,-0.002990715,0.07360821
1764434425.524815,12.42164,-2.7468,12.92522,0.98718009,-0.00329589,0.07189923
1764434425.524815,12.42164,-2.7468,12.92522,0.98718009,-0.00329589,0.07189923
1764434425.5263436,12.42164,-2.7468,12.92522,0.98718009,-0.00329589,0.07189923
1764434425.5263436,12.42164,-2.7468,12.92522,0.98718009,-0.00329589,0.07189923
1764434425.526862,12.42164,-2.7468,12.92522,0.98718009,-0.00329589,0.07189923
1764434425.526862,12.42164,-2.7468,12.92522,0.98718009,-0.00329589,0.07189923
1764434425.526862,12.42164,-2.7468,12.92522,0.98718009,-0.00329589,0.07189923
1764434425.526862,12.42164,-2.7468,12.92522,0.98718009,-0.00329589,0.07189923
1764434425.575015,12.42164,-2.7468,12.92522,0.98718009,-0.00329589,0.07189923
1764434425.575015,12.42164,-2.7468,12.92522,0.98718009,-0.00329589,0.07189923
1764434425.575015,11.24662,-2.48738,13.29146,0.98718009,-0.005065905,0.0708006
1764434425.575015,11.24662,-2.48738,13.29146,0.98718009,-0.005065905,0.0708006
1764434425.575015,11.24662,-2.48738,13.29146,0.98718009,-0.005065905,0.0708006
1764434425.575015,11.24662,-2.48738,13.29146,0.98718009,-0.005065905,0.0708006
1764434425.575015,11.24662,-2.48738,13.29146,0.98718009,-0.005065905,0.0708006
1764434425.575015,11.24662,-2.48738,13.29146,0.98718009,-0.005065905,0.0708006
1764434425.575015,11.24662,-2.48738,13.29146,0.98718009,-0.005065905,0.0708006
1764434425.575015,11.24662,-2.48738,13.29146,0.98718009,-0.005065905,0.0708006
1764434425.575015,11.24662,-2.48738,13.29146,0.98718009,-0.005065905,0.0708006
1764434425.575015,11.24662,-2.48738,13.29146,0.98718009,-0.005065905,0.0708006
1764434425.575015,11.35344,-2.56368,12.68106,0.98718009,-0.007873515,0.07092267
1764434425.575015,11.35344,-2.56368,12.68106,0.98718009,-0.007873515,0.07092267
1764434425.575015,11.35344,-2.56368,12.68106,0.98718009,-0.007873515,0.07092267
1764434425.575015,11.35344,-2.56368,12.68106,0.98718009,-0.007873515,0.07092267
1764434425.575015,11.35344,-2.56368,12.68106,0.98718009,-0.007873515,0.07092267
1764434425.5760224,11.35344,-2.56368,12.68106,0.98718009,-0.007873515,0.07092267
1764434425.5760224,11.35344,-2.56368,12.68106,0.98718009,-0.007873515,0.07092267
1764434425.5760224,11.35344,-2.56368,12.68106,0.98718009,-0.007873515,0.07092267
1764434425.5760224,11.35344,-2.56368,12.68106,0.98718009,-0.007873515,0.07092267
1764434425.5760224,11.35344,-2.56368,12.68106,0.98718009,-0.007873515,0.07092267
1764434425.6232452,12.17748,-2.96044,13.1236,0.98571525,-0.012268035,0.07043439
1764434425.6232452,12.17748,-2.96044,13.1236,0.98571525,-0.012268035,0.07043439
1764434425.6232452,12.17748,-2.96044,13.1236,0.98571525,-0.012268035,0.07043439
1764434425.6232452,12.17748,-2.96044,13.1236,0.98571525,-0.012268035,0.07043439
1764434425.6232452,12.17748,-2.96044,13.1236,0.98571525,-0.012268035,0.07043439
1764434425.6232452,12.17748,-2.96044,13.1236,0.98571525,-0.012268035,0.07043439
1764434425.6232452,12.17748,-2.96044,13.1236,0.98571525,-0.012268035,0.07043439
1764434425.6232452,12.17748,-2.96044,13.1236,0.98571525,-0.012268035,0.07043439
1764434425.6232452,12.17748,-2.96044,13.1236,0.98571525,-0.012268035,0.07043439
1764434425.6232452,12.17748,-2.96044,13.1236,0.98571525,-0.012268035,0.07043439
1764434425.6232452,14.89376,-3.78448,13.70348,0.983945235,-0.01794429,0.070617495
1764434425.6232452,14.89376,-3.78448,13.70348,0.983945235,-0.01794429,0.070617495
1764434425.6232452,14.89376,-3.78448,13.70348,0.983945235,-0.01794429,0.070617495
1764434425.6232452,14.89376,-3.78448,13.70348,0.983945235,-0.01794429,0.070617495
1764434425.6232452,14.89376,-3.78448,13.70348,0.983945235,-0.01794429,0.070617495
1764434425.6232452,14.89376,-3.78448,13.70348,0.983945235,-0.01794429,0.070617495
1764434425.6232452,14.89376,-3.78448,13.70348,0.983945235,-0.01794429,0.070617495
1764434425.6232452,14.89376,-3.78448,13.70348,0.983945235,-0.01794429,0.070617495
1764434425.6232452,14.89376,-3.78448,13.70348,0.983945235,-0.01794429,0.070617495
1764434425.6232452,14.89376,-3.78448,13.70348,0.983945235,-0.01794429,0.070617495
1764434425.6232452,18.11362,-5.06632,14.069719999999998,0.98327385,-0.02307123,0.07128888
1764434425.6232452,18.11362,-5.06632,14.069719999999998,0.98327385,-0.02307123,0.07128888
1764434425.6232452,18.11362,-5.06632,14.069719999999998,0.98327385,-0.02307123,0.07128888
1764434425.6242435,18.11362,-5.06632,14.069719999999998,0.98327385,-0.02307123,0.07128888
1764434425.6242435,18.11362,-5.06632,14.069719999999998,0.98327385,-0.02307123,0.07128888
1764434425.6242435,18.11362,-5.06632,14.069719999999998,0.98327385,-0.02307123,0.07128888
1764434425.6660633,18.11362,-5.06632,14.069719999999998,0.98327385,-0.02307123,0.07128888
1764434425.6660633,18.11362,-5.06632,14.069719999999998,0.98327385,-0.02307123,0.07128888
1764434425.7157717,18.11362,-5.06632,14.069719999999998,0.98327385,-0.02307123,0.07128888
1764434425.7157717,18.11362,-5.06632,14.069719999999998,0.98327385,-0.02307123,0.07128888
1764434425.7157717,22.92052,-6.74492,14.2681,0.98241936,-0.02709954,0.071471985
1764434425.7157717,22.92052,-6.74492,14.2681,0.98241936,-0.02709954,0.071471985
1764434425.7157717,22.92052,-6.74492,14.2681,0.98241936,-0.02709954,0.071471985
1764434425.7157717,22.92052,-6.74492,14.2681,0.98241936,-0.02709954,0.071471985
1764434425.7157717,22.92052,-6.74492,14.2681,0.98241936,-0.02709954,0.071471985
1764434425.716775,22.92052,-6.74492,14.2681,0.98241936,-0.02709954,0.071471985
1764434425.716775,22.92052,-6.74492,14.2681,0.98241936,-0.02709954,0.071471985
1764434425.716775,22.92052,-6.74492,14.2681,0.98241936,-0.02709954,0.071471985
1764434425.716775,22.92052,-6.74492,14.2681,0.98241936,-0.02709954,0.071471985
1764434425.716775,22.92052,-6.74492,14.2681,0.98241936,-0.02709954,0.071471985
1764434425.716775,27.52904,-7.66052,14.31388,0.98315178,-0.03015129,0.07104474
1764434425.716775,27.52904,-7.66052,14.31388,0.98315178,-0.03015129,0.07104474
1764434425.716775,27.52904,-7.66052,14.31388,0.98315178,-0.03015129,0.07104474
1764434425.716775,27.52904,-7.66052,14.31388,0.98315178,-0.03015129,0.07104474
1764434425.716775,27.52904,-7.66052,14.31388,0.98315178,-0.03015129,0.07104474
1764434425.716775,27.52904,-7.66052,14.31388,0.98315178,-0.03015129,0.07104474
1764434425.716775,27.52904,-7.66052,14.31388,0.98315178,-0.03015129,0.07104474
1764434425.716775,27.52904,-7.66052,14.31388,0.98315178,-0.03015129,0.07104474
1764434425.716775,27.52904,-7.66052,14.31388,0.98315178,-0.03015129,0.07104474
1764434425.716775,27.52904,-7.66052,14.31388,0.98315178,-0.03015129,0.07104474
1764434425.716775,32.29016,-8.118319999999999,15.36682,0.98364006,-0.032531655,0.07043439
1764434425.716775,32.29016,-8.118319999999999,15.36682,0.98364006,-0.032531655,0.07043439
1764434425.716775,32.29016,-8.118319999999999,15.36682,0.98364006,-0.032531655,0.07043439
1764434425.716775,32.29016,-8.118319999999999,15.36682,0.98364006,-0.032531655,0.07043439
1764434425.716775,32.29016,-8.118319999999999,15.36682,0.98364006,-0.032531655,0.07043439
1764434425.716775,32.29016,-8.118319999999999,15.36682,0.98364006,-0.032531655,0.07043439
1764434425.716775,32.29016,-8.118319999999999,15.36682,0.98364006,-0.032531655,0.07043439
1764434425.716775,32.29016,-8.118319999999999,15.36682,0.98364006,-0.032531655,0.07043439
1764434425.716775,32.29016,-8.118319999999999,15.36682,0.98364006,-0.032531655,0.07043439
1764434425.716775,32.29016,-8.118319999999999,15.36682,0.98364006,-0.032531655,0.07043439
1764434425.716775,35.76944,-7.73682,16.038259999999998,0.98498283,-0.03186027,0.068420235
1764434425.7177796,35.76944,-7.73682,16.038259999999998,0.98498283,-0.03186027,0.068420235
1764434425.7177796,35.76944,-7.73682,16.038259999999998,0.98498283,-0.03186027,0.068420235
1764434425.7177796,35.76944,-7.73682,16.038259999999998,0.98498283,-0.03186027,0.068420235
1764434425.7177796,35.76944,-7.73682,16.038259999999998,0.98498283,-0.03186027,0.068420235
1764434425.7177796,35.76944,-7.73682,16.038259999999998,0.98498283,-0.03186027,0.068420235
1764434425.7177796,35.76944,-7.73682,16.038259999999998,0.98498283,-0.03186027,0.068420235
1764434425.7177796,35.76944,-7.73682,16.038259999999998,0.98498283,-0.03186027,0.068420235
1764434425.7177796,35.76944,-7.73682,16.038259999999998,0.98498283,-0.03186027,0.068420235
1764434425.7177796,35.76944,-7.73682,16.038259999999998,0.98498283,-0.03186027,0.068420235
1764434425.7177796,37.73798,-7.095899999999999,16.37398,0.986020425,-0.029113695,0.06506331
1764434425.7177796,37.73798,-7.095899999999999,16.37398,0.986020425,-0.029113695,0.06506331
1764434425.7632878,37.73798,-7.095899999999999,16.37398,0.986020425,-0.029113695,0.06506331
1764434425.7632878,37.73798,-7.095899999999999,16.37398,0.986020425,-0.029113695,0.06506331
1764434425.7632878,37.73798,-7.095899999999999,16.37398,0.986020425,-0.029113695,0.06506331
1764434425.7632878,37.73798,-7.095899999999999,16.37398,0.986020425,-0.029113695,0.06506331
1764434425.7632878,37.73798,-7.095899999999999,16.37398,0.986020425,-0.029113695,0.06506331
1764434425.7632878,37.73798,-7.095899999999999,16.37398,0.986020425,-0.029113695,0.06506331
1764434425.7632878,37.73798,-7.095899999999999,16.37398,0.986020425,-0.029113695,0.06506331
1764434425.7632878,37.73798,-7.095899999999999,16.37398,0.986020425,-0.029113695,0.06506331
1764434425.7632878,37.87532,-6.653359999999999,16.45028,0.98815665,-0.025329525,0.06152328
1764434425.7632878,37.87532,-6.653359999999999,16.45028,0.98815665,-0.025329525,0.06152328
1764434425.7632878,37.87532,-6.653359999999999,16.45028,0.98815665,-0.025329525,0.06152328
1764434425.7632878,37.87532,-6.653359999999999,16.45028,0.98815665,-0.025329525,0.06152328
1764434425.7632878,37.87532,-6.653359999999999,16.45028,0.98815665,-0.025329525,0.06152328
1764434425.7632878,37.87532,-6.653359999999999,16.45028,0.98815665,-0.025329525,0.06152328
1764434425.7632878,37.87532,-6.653359999999999,16.45028,0.98815665,-0.025329525,0.06152328
1764434425.7632878,37.87532,-6.653359999999999,16.45028,0.98815665,-0.025329525,0.06152328
1764434425.7632878,37.87532,-6.653359999999999,16.45028,0.98815665,-0.025329525,0.06152328
1764434425.7632878,37.87532,-6.653359999999999,16.45028,0.98815665,-0.025329525,0.06152328
1764434425.8080542,36.7003,-5.508859999999999,15.8704,0.9899877,-0.02246088,0.057922215
1764434425.8080542,36.7003,-5.508859999999999,15.8704,0.9899877,-0.02246088,0.057922215
1764434425.8080542,36.7003,-5.508859999999999,15.8704,0.9899877,-0.02246088,0.057922215
1764434425.8080542,36.7003,-5.508859999999999,15.8704,0.9899877,-0.02246088,0.057922215
1764434425.8080542,36.7003,-5.508859999999999,15.8704,0.9899877,-0.02246088,0.057922215
1764434425.8080542,36.7003,-5.508859999999999,15.8704,0.9899877,-0.02246088,0.057922215
1764434425.8080542,36.7003,-5.508859999999999,15.8704,0.9899877,-0.02246088,0.057922215
1764434425.8080542,36.7003,-5.508859999999999,15.8704,0.9899877,-0.02246088,0.057922215
1764434425.8080542,36.7003,-5.508859999999999,15.8704,0.9899877,-0.02246088,0.057922215
1764434425.8080542,36.7003,-5.508859999999999,15.8704,0.9899877,-0.02246088,0.057922215
1764434425.8080542,34.76228,-4.59326,15.36682,0.991025295,-0.02087397,0.054626325
1764434425.8080542,34.76228,-4.59326,15.36682,0.991025295,-0.02087397,0.054626325
1764434425.8080542,34.76228,-4.59326,15.36682,0.991025295,-0.02087397,0.054626325
1764434425.8080542,34.76228,-4.59326,15.36682,0.991025295,-0.02087397,0.054626325
1764434425.8080542,34.76228,-4.59326,15.36682,0.991025295,-0.02087397,0.054626325
1764434425.8080542,34.76228,-4.59326,15.36682,0.991025295,-0.02087397,0.054626325
1764434425.8539884,34.76228,-4.59326,15.36682,0.991025295,-0.02087397,0.054626325
1764434425.8539884,34.76228,-4.59326,15.36682,0.991025295,-0.02087397,0.054626325
1764434425.8539884,34.76228,-4.59326,15.36682,0.991025295,-0.02087397,0.054626325
1764434425.8539884,34.76228,-4.59326,15.36682,0.991025295,-0.02087397,0.054626325
1764434425.8539884,31.46612,-4.07442,14.75642,0.991757715,-0.02038569,0.05273424
1764434425.8539884,31.46612,-4.07442,14.75642,0.991757715,-0.02038569,0.05273424
1764434425.8539884,31.46612,-4.07442,14.75642,0.991757715,-0.02038569,0.05273424
1764434425.8539884,31.46612,-4.07442,14.75642,0.991757715,-0.02038569,0.05273424
1764434425.8539884,31.46612,-4.07442,14.75642,0.991757715,-0.02038569,0.05273424
1764434425.8539884,31.46612,-4.07442,14.75642,0.991757715,-0.02038569,0.05273424
1764434425.8539884,31.46612,-4.07442,14.75642,0.991757715,-0.02038569,0.05273424
1764434425.8539884,31.46612,-4.07442,14.75642,0.991757715,-0.02038569,0.05273424
1764434425.8539884,31.46612,-4.07442,14.75642,0.991757715,-0.02038569,0.05273424
1764434425.8539884,31.46612,-4.07442,14.75642,0.991757715,-0.02038569,0.05273424
1764434425.8539884,28.33782,-3.23512,13.9629,0.991757715,-0.0207519,0.05151354
1764434425.8539884,28.33782,-3.23512,13.9629,0.991757715,-0.0207519,0.05151354
1764434425.8539884,28.33782,-3.23512,13.9629,0.991757715,-0.0207519,0.05151354
1764434425.8539884,28.33782,-3.23512,13.9629,0.991757715,-0.0207519,0.05151354
1764434425.8549962,28.33782,-3.23512,13.9629,0.991757715,-0.0207519,0.05151354
1764434425.8549962,28.33782,-3.23512,13.9629,0.991757715,-0.0207519,0.05151354
1764434425.8549962,28.33782,-3.23512,13.9629,0.991757715,-0.0207519,0.05151354
1764434425.8549962,28.33782,-3.23512,13.9629,0.991757715,-0.0207519,0.05151354
1764434425.8559964,28.33782,-3.23512,13.9629,0.991757715,-0.0207519,0.05151354
1764434425.8559964,28.33782,-3.23512,13.9629,0.991757715,-0.0207519,0.05151354
1764434425.8559964,25.0264,-2.73154,14.22232,0.990781155,-0.021911565,0.05078112
1764434425.8559964,25.0264,-2.73154,14.22232,0.990781155,-0.021911565,0.05078112
1764434425.8559964,25.0264,-2.73154,14.22232,0.990781155,-0.021911565,0.05078112
1764434425.8569956,25.0264,-2.73154,14.22232,0.990781155,-0.021911565,0.05078112
1764434425.8579955,25.0264,-2.73154,14.22232,0.990781155,-0.021911565,0.05078112
1764434425.8579955,25.0264,-2.73154,14.22232,0.990781155,-0.021911565,0.05078112
1764434425.8579955,25.0264,-2.73154,14.22232,0.990781155,-0.021911565,0.05078112
1764434425.8579955,25.0264,-2.73154,14.22232,0.990781155,-0.021911565,0.05078112
1764434425.8579955,25.0264,-2.73154,14.22232,0.990781155,-0.021911565,0.05078112
1764434425.8579955,25.0264,-2.73154,14.22232,0.990781155,-0.021911565,0.05078112
1764434425.9024708,22.29486,-2.09062,13.82556,0.990292875,-0.02539056,0.0500487
1764434425.9024708,22.29486,-2.09062,13.82556,0.990292875,-0.02539056,0.0500487
1764434425.9024708,22.29486,-2.09062,13.82556,0.990292875,-0.02539056,0.0500487
1764434425.9024708,22.29486,-2.09062,13.82556,0.990292875,-0.02539056,0.0500487
1764434425.9024708,22.29486,-2.09062,13.82556,0.990292875,-0.02539056,0.0500487
1764434425.9024708,22.29486,-2.09062,13.82556,0.990292875,-0.02539056,0.0500487
1764434425.9024708,22.29486,-2.09062,13.82556,0.990292875,-0.02539056,0.0500487
1764434425.9024708,22.29486,-2.09062,13.82556,0.990292875,-0.02539056,0.0500487
1764434425.9024708,22.29486,-2.09062,13.82556,0.990292875,-0.02539056,0.0500487
1764434425.9024708,22.29486,-2.09062,13.82556,0.990292875,-0.02539056,0.0500487
1764434425.9024708,20.18898,-1.4497,13.10834,0.99023184,-0.028381275,0.050109735
1764434425.9024708,20.18898,-1.4497,13.10834,0.99023184,-0.028381275,0.050109735
1764434425.9024708,20.18898,-1.4497,13.10834,0.99023184,-0.028381275,0.050109735
1764434425.9024708,20.18898,-1.4497,13.10834,0.99023184,-0.028381275,0.050109735
1764434425.9024708,20.18898,-1.4497,13.10834,0.99023184,-0.028381275,0.050109735
1764434425.9024708,20.18898,-1.4497,13.10834,0.99023184,-0.028381275,0.050109735
1764434425.9024708,20.18898,-1.4497,13.10834,0.99023184,-0.028381275,0.050109735
1764434425.9024708,20.18898,-1.4497,13.10834,0.99023184,-0.028381275,0.050109735
1764434425.9024708,20.18898,-1.4497,13.10834,0.99023184,-0.028381275,0.050109735
1764434425.9024708,20.18898,-1.4497,13.10834,0.99023184,-0.028381275,0.050109735
1764434425.9024708,18.64772,-1.2208,12.02488,0.98986563,-0.032165445,0.050475945
1764434425.9024708,18.64772,-1.2208,12.02488,0.98986563,-0.032165445,0.050475945
1764434425.945876,18.64772,-1.2208,12.02488,0.98986563,-0.032165445,0.050475945
1764434425.946386,18.64772,-1.2208,12.02488,0.98986563,-0.032165445,0.050475945
1764434425.946386,18.64772,-1.2208,12.02488,0.98986563,-0.032165445,0.050475945
1764434425.946386,18.64772,-1.2208,12.02488,0.98986563,-0.032165445,0.050475945
1764434425.946386,18.64772,-1.2208,12.02488,0.98986563,-0.032165445,0.050475945
1764434425.946386,18.64772,-1.2208,12.02488,0.98986563,-0.032165445,0.050475945
1764434425.946386,18.64772,-1.2208,12.02488,0.98986563,-0.032165445,0.050475945
1764434425.946386,18.64772,-1.2208,12.02488,0.98986563,-0.032165445,0.050475945
1764434425.946386,17.4727,-0.79352,11.46026,0.989560455,-0.03588858,0.050353875
1764434425.946386,17.4727,-0.79352,11.46026,0.989560455,-0.03588858,0.050353875
1764434425.946386,17.4727,-0.79352,11.46026,0.989560455,-0.03588858,0.050353875
1764434425.946386,17.4727,-0.79352,11.46026,0.989560455,-0.03588858,0.050353875
1764434425.946386,17.4727,-0.79352,11.46026,0.989560455,-0.03588858,0.050353875
1764434425.946386,17.4727,-0.79352,11.46026,0.989560455,-0.03588858,0.050353875
1764434425.946386,17.4727,-0.79352,11.46026,0.989560455,-0.03588858,0.050353875
1764434425.946386,17.4727,-0.79352,11.46026,0.989560455,-0.03588858,0.050353875
1764434425.946386,17.4727,-0.79352,11.46026,0.989560455,-0.03588858,0.050353875
1764434425.946386,17.4727,-0.79352,11.46026,0.989560455,-0.03588858,0.050353875
1764434425.947388,16.67918,0.1525999999999999,10.63622,0.98962149,-0.038757225,0.05065905
1764434425.947388,16.67918,0.1525999999999999,10.63622,0.98962149,-0.038757225,0.05065905
1764434425.947388,16.67918,0.1525999999999999,10.63622,0.98962149,-0.038757225,0.05065905
1764434425.947388,16.67918,0.1525999999999999,10.63622,0.98962149,-0.038757225,0.05065905
1764434425.947388,16.67918,0.1525999999999999,10.63622,0.98962149,-0.038757225,0.05065905
1764434425.947388,16.67918,0.1525999999999999,10.63622,0.98962149,-0.038757225,0.05065905
1764434425.947388,16.67918,0.1525999999999999,10.63622,0.98962149,-0.038757225,0.05065905
1764434425.947388,16.67918,0.1525999999999999,10.63622,0.98962149,-0.038757225,0.05065905
1764434425.947388,16.67918,0.1525999999999999,10.63622,0.98962149,-0.038757225,0.05065905
1764434425.947388,16.67918,0.1525999999999999,10.63622,0.98962149,-0.038757225,0.05065905
1764434425.996451,15.73306,1.11398,10.34628,0.99010977,-0.04125966,0.05175768
1764434425.996451,15.73306,1.11398,10.34628,0.99010977,-0.04125966,0.05175768
1764434425.996451,15.73306,1.11398,10.34628,0.99010977,-0.04125966,0.05175768
1764434425.996451,15.73306,1.11398,10.34628,0.99010977,-0.04125966,0.05175768
1764434425.996451,15.73306,1.11398,10.34628,0.99010977,-0.04125966,0.05175768
1764434425.996451,15.73306,1.11398,10.34628,0.99010977,-0.04125966,0.05175768
1764434425.996451,15.73306,1.11398,10.34628,0.99010977,-0.04125966,0.05175768
1764434425.996451,15.73306,1.11398,10.34628,0.99010977,-0.04125966,0.05175768
1764434425.996451,15.73306,1.11398,10.34628,0.99010977,-0.04125966,0.05175768
1764434425.996451,15.73306,1.11398,10.34628,0.99010977,-0.04125966,0.05175768
1764434425.996451,14.344399999999998,2.31952,9.20178,0.989926665,-0.041931045,0.052062855
1764434425.996451,14.344399999999998,2.31952,9.20178,0.989926665,-0.041931045,0.052062855
1764434425.996451,14.344399999999998,2.31952,9.20178,0.989926665,-0.041931045,0.052062855
1764434425.996451,14.344399999999998,2.31952,9.20178,0.989926665,-0.041931045,0.052062855
1764434425.996451,14.344399999999998,2.31952,9.20178,0.989926665,-0.041931045,0.052062855
1764434425.996451,14.344399999999998,2.31952,9.20178,0.989926665,-0.041931045,0.052062855
1764434425.9974492,14.344399999999998,2.31952,9.20178,0.989926665,-0.041931045,0.052062855
1764434425.9974492,14.344399999999998,2.31952,9.20178,0.989926665,-0.041931045,0.052062855
1764434425.9974492,14.344399999999998,2.31952,9.20178,0.989926665,-0.041931045,0.052062855
1764434425.9974492,14.344399999999998,2.31952,9.20178,0.989926665,-0.041931045,0.052062855
1764434425.9974492,12.65054,3.26564,8.2404,0.98937735,-0.04187001,0.052184925
1764434425.9974492,12.65054,3.26564,8.2404,0.98937735,-0.04187001,0.052184925
1764434426.042271,12.65054,3.26564,8.2404,0.98937735,-0.04187001,0.052184925
1764434426.042271,12.65054,3.26564,8.2404,0.98937735,-0.04187001,0.052184925
1764434426.042271,12.65054,3.26564,8.2404,0.98937735,-0.04187001,0.052184925
1764434426.042271,12.65054,3.26564,8.2404,0.98937735,-0.04187001,0.052184925
1764434426.0432706,12.65054,3.26564,8.2404,0.98937735,-0.04187001,0.052184925
1764434426.0432706,12.65054,3.26564,8.2404,0.98937735,-0.04187001,0.052184925
1764434426.0432706,12.65054,3.26564,8.2404,0.98937735,-0.04187001,0.052184925
1764434426.0432706,12.65054,3.26564,8.2404,0.98937735,-0.04187001,0.052184925
1764434426.0432706,11.445,3.41824,7.56896,0.989926665,-0.04333485,0.05310045
1764434426.0432706,11.445,3.41824,7.56896,0.989926665,-0.04333485,0.05310045
1764434426.0432706,11.445,3.41824,7.56896,0.989926665,-0.04333485,0.05310045
1764434426.0432706,11.445,3.41824,7.56896,0.989926665,-0.04333485,0.05310045
1764434426.0432706,11.445,3.41824,7.56896,0.989926665,-0.04333485,0.05310045
1764434426.0432706,11.445,3.41824,7.56896,0.989926665,-0.04333485,0.05310045
1764434426.0432706,11.445,3.41824,7.56896,0.989926665,-0.04333485,0.05310045
1764434426.0432706,11.445,3.41824,7.56896,0.989926665,-0.04333485,0.05310045
1764434426.0432706,11.445,3.41824,7.56896,0.989926665,-0.04333485,0.05310045
1764434426.0432706,11.445,3.41824,7.56896,0.989926665,-0.04333485,0.05310045
1764434426.0432706,9.47646,4.28806,6.85174,0.98986563,-0.04455555,0.053893905
1764434426.0432706,9.47646,4.28806,6.85174,0.98986563,-0.04455555,0.053893905
1764434426.0432706,9.47646,4.28806,6.85174,0.98986563,-0.04455555,0.053893905
1764434426.0432706,9.47646,4.28806,6.85174,0.98986563,-0.04455555,0.053893905
1764434426.0432706,9.47646,4.28806,6.85174,0.98986563,-0.04455555,0.053893905
1764434426.0432706,9.47646,4.28806,6.85174,0.98986563,-0.04455555,0.053893905
1764434426.0872366,9.47646,4.28806,6.85174,0.98986563,-0.04455555,0.053893905
1764434426.0872366,9.47646,4.28806,6.85174,0.98986563,-0.04455555,0.053893905
1764434426.0872366,9.47646,4.28806,6.85174,0.98986563,-0.04455555,0.053893905
1764434426.0872366,9.47646,4.28806,6.85174,0.98986563,-0.04455555,0.053893905
1764434426.0872366,8.9271,4.45592,6.31764,0.98949942,-0.04589832,0.05517564
1764434426.0872366,8.9271,4.45592,6.31764,0.98949942,-0.04589832,0.05517564
1764434426.0872366,8.9271,4.45592,6.31764,0.98949942,-0.04589832,0.05517564
1764434426.0872366,8.9271,4.45592,6.31764,0.98949942,-0.04589832,0.05517564
1764434426.0872366,8.9271,4.45592,6.31764,0.98949942,-0.04589832,0.05517564
1764434426.0872366,8.9271,4.45592,6.31764,0.98949942,-0.04589832,0.05517564
1764434426.0872366,8.9271,4.45592,6.31764,0.98949942,-0.04589832,0.05517564
1764434426.0872366,8.9271,4.45592,6.31764,0.98949942,-0.04589832,0.05517564
1764434426.0872366,8.9271,4.45592,6.31764,0.98949942,-0.04589832,0.05517564
1764434426.0872366,8.9271,4.45592,6.31764,0.98949942,-0.04589832,0.05517564
1764434426.0872366,8.30144,4.16598,6.546539999999999,0.988461825,-0.0476073,0.055847025
1764434426.0872366,8.30144,4.16598,6.546539999999999,0.988461825,-0.0476073,0.055847025
1764434426.0872366,8.30144,4.16598,6.546539999999999,0.988461825,-0.0476073,0.055847025
1764434426.0872366,8.30144,4.16598,6.546539999999999,0.988461825,-0.0476073,0.055847025
1764434426.088248,8.30144,4.16598,6.546539999999999,0.988461825,-0.0476073,0.055847025
1764434426.088248,8.30144,4.16598,6.546539999999999,0.988461825,-0.0476073,0.055847025
1764434426.088248,8.30144,4.16598,6.546539999999999,0.988461825,-0.0476073,0.055847025
1764434426.088248,8.30144,4.16598,6.546539999999999,0.988461825,-0.0476073,0.055847025
1764434426.1339858,8.30144,4.16598,6.546539999999999,0.988461825,-0.0476073,0.055847025
1764434426.1339858,8.30144,4.16598,6.546539999999999,0.988461825,-0.0476073,0.055847025
1764434426.1339858,7.782599999999999,3.76922,5.997179999999999,0.987607335,-0.049255245,0.05651841
1764434426.1349986,7.782599999999999,3.76922,5.997179999999999,0.987607335,-0.049255245,0.05651841
1764434426.1349986,7.782599999999999,3.76922,5.997179999999999,0.987607335,-0.049255245,0.05651841
1764434426.1349986,7.782599999999999,3.76922,5.997179999999999,0.987607335,-0.049255245,0.05651841
1764434426.1349986,7.782599999999999,3.76922,5.997179999999999,0.987607335,-0.049255245,0.05651841
1764434426.1349986,7.782599999999999,3.76922,5.997179999999999,0.987607335,-0.049255245,0.05651841
1764434426.1349986,7.782599999999999,3.76922,5.997179999999999,0.987607335,-0.049255245,0.05651841
1764434426.135996,7.782599999999999,3.76922,5.997179999999999,0.987607335,-0.049255245,0.05651841
1764434426.135996,7.782599999999999,3.76922,5.997179999999999,0.987607335,-0.049255245,0.05651841
1764434426.135996,7.782599999999999,3.76922,5.997179999999999,0.987607335,-0.049255245,0.05651841
1764434426.135996,7.9352,3.815,6.027699999999999,0.98620353,-0.05139147,0.057556005
1764434426.135996,7.9352,3.815,6.027699999999999,0.98620353,-0.05139147,0.057556005
1764434426.135996,7.9352,3.815,6.027699999999999,0.98620353,-0.05139147,0.057556005
1764434426.135996,7.9352,3.815,6.027699999999999,0.98620353,-0.05139147,0.057556005
1764434426.1369936,7.9352,3.815,6.027699999999999,0.98620353,-0.05139147,0.057556005
1764434426.1369936,7.9352,3.815,6.027699999999999,0.98620353,-0.05139147,0.057556005
1764434426.1369936,7.9352,3.815,6.027699999999999,0.98620353,-0.05139147,0.057556005
1764434426.1369936,7.9352,3.815,6.027699999999999,0.98620353,-0.05139147,0.057556005
1764434426.1369936,7.9352,3.815,6.027699999999999,0.98620353,-0.05139147,0.057556005
1764434426.1369936,7.9352,3.815,6.027699999999999,0.98620353,-0.05139147,0.057556005
1764434426.1369936,8.179359999999999,3.1283,5.753019999999999,0.984799725,-0.05273424,0.059142915
1764434426.1369936,8.179359999999999,3.1283,5.753019999999999,0.984799725,-0.05273424,0.059142915
1764434426.180773,8.179359999999999,3.1283,5.753019999999999,0.984799725,-0.05273424,0.059142915
1764434426.180773,8.179359999999999,3.1283,5.753019999999999,0.984799725,-0.05273424,0.059142915
1764434426.180773,8.179359999999999,3.1283,5.753019999999999,0.984799725,-0.05273424,0.059142915
1764434426.180773,8.179359999999999,3.1283,5.753019999999999,0.984799725,-0.05273424,0.059142915
1764434426.180773,8.179359999999999,3.1283,5.753019999999999,0.984799725,-0.05273424,0.059142915
1764434426.181773,8.179359999999999,3.1283,5.753019999999999,0.984799725,-0.05273424,0.059142915
1764434426.181773,8.179359999999999,3.1283,5.753019999999999,0.984799725,-0.05273424,0.059142915
1764434426.181773,8.179359999999999,3.1283,5.753019999999999,0.984799725,-0.05273424,0.059142915
1764434426.181773,8.28618,2.54842,5.44782,0.984189375,-0.05432115,0.05944809
1764434426.181773,8.28618,2.54842,5.44782,0.984189375,-0.05432115,0.05944809
1764434426.181773,8.28618,2.54842,5.44782,0.984189375,-0.05432115,0.05944809
1764434426.181773,8.28618,2.54842,5.44782,0.984189375,-0.05432115,0.05944809
1764434426.181773,8.28618,2.54842,5.44782,0.984189375,-0.05432115,0.05944809
1764434426.181773,8.28618,2.54842,5.44782,0.984189375,-0.05432115,0.05944809
1764434426.181773,8.28618,2.54842,5.44782,0.984189375,-0.05432115,0.05944809
1764434426.181773,8.28618,2.54842,5.44782,0.984189375,-0.05432115,0.05944809
1764434426.181773,8.28618,2.54842,5.44782,0.984189375,-0.05432115,0.05944809
1764434426.181773,8.28618,2.54842,5.44782,0.984189375,-0.05432115,0.05944809
1764434426.181773,8.98814,1.78542,5.371519999999999,0.983579025,-0.054015975,0.05993637
1764434426.181773,8.98814,1.78542,5.371519999999999,0.983579025,-0.054015975,0.05993637
1764434426.181773,8.98814,1.78542,5.371519999999999,0.983579025,-0.054015975,0.05993637
1764434426.181773,8.98814,1.78542,5.371519999999999,0.983579025,-0.054015975,0.05993637
1764434426.181773,8.98814,1.78542,5.371519999999999,0.983579025,-0.054015975,0.05993637
1764434426.181773,8.98814,1.78542,5.371519999999999,0.983579025,-0.054015975,0.05993637
1764434426.22298,8.98814,1.78542,5.371519999999999,0.983579025,-0.054015975,0.05993637
1764434426.2239828,8.98814,1.78542,5.371519999999999,0.983579025,-0.054015975,0.05993637
1764434426.2239828,8.98814,1.78542,5.371519999999999,0.983579025,-0.054015975,0.05993637
1764434426.2239828,8.98814,1.78542,5.371519999999999,0.983579025,-0.054015975,0.05993637
1764434426.2239828,9.04918,1.57178,5.08158,0.983945235,-0.054015975,0.05969223
1764434426.2239828,9.04918,1.57178,5.08158,0.983945235,-0.054015975,0.05969223
1764434426.2239828,9.04918,1.57178,5.08158,0.983945235,-0.054015975,0.05969223
1764434426.2239828,9.04918,1.57178,5.08158,0.983945235,-0.054015975,0.05969223
1764434426.2239828,9.04918,1.57178,5.08158,0.983945235,-0.054015975,0.05969223
1764434426.2239828,9.04918,1.57178,5.08158,0.983945235,-0.054015975,0.05969223
1764434426.2239828,9.04918,1.57178,5.08158,0.983945235,-0.054015975,0.05969223
1764434426.2239828,9.04918,1.57178,5.08158,0.983945235,-0.054015975,0.05969223
1764434426.224978,9.04918,1.57178,5.08158,0.983945235,-0.054015975,0.05969223
1764434426.224978,9.04918,1.57178,5.08158,0.983945235,-0.054015975,0.05969223
1764434426.224978,8.59138,1.25132,4.8069,0.985776285,-0.05395494,0.06018051
1764434426.224978,8.59138,1.25132,4.8069,0.985776285,-0.05395494,0.06018051
1764434426.224978,8.59138,1.25132,4.8069,0.985776285,-0.05395494,0.06018051
1764434426.224978,8.59138,1.25132,4.8069,0.985776285,-0.05395494,0.06018051
1764434426.224978,8.59138,1.25132,4.8069,0.985776285,-0.05395494,0.06018051
1764434426.224978,8.59138,1.25132,4.8069,0.985776285,-0.05395494,0.06018051
1764434426.226065,8.59138,1.25132,4.8069,0.985776285,-0.05395494,0.06018051
1764434426.226065,8.59138,1.25132,4.8069,0.985776285,-0.05395494,0.06018051
1764434426.2745206,8.59138,1.25132,4.8069,0.985776285,-0.05395494,0.06018051
1764434426.2745206,8.59138,1.25132,4.8069,0.985776285,-0.05395494,0.06018051
1764434426.2745206,9.01866,1.28184,4.33384,0.986752845,-0.05407701,0.059631195
1764434426.2745206,9.01866,1.28184,4.33384,0.986752845,-0.05407701,0.059631195
1764434426.2745206,9.01866,1.28184,4.33384,0.986752845,-0.05407701,0.059631195
1764434426.2745206,9.01866,1.28184,4.33384,0.986752845,-0.05407701,0.059631195
1764434426.2745206,9.01866,1.28184,4.33384,0.986752845,-0.05407701,0.059631195
1764434426.275524,9.01866,1.28184,4.33384,0.986752845,-0.05407701,0.059631195
1764434426.275524,9.01866,1.28184,4.33384,0.986752845,-0.05407701,0.059631195
1764434426.275524,9.01866,1.28184,4.33384,0.986752845,-0.05407701,0.059631195
1764434426.275524,9.01866,1.28184,4.33384,0.986752845,-0.05407701,0.059631195
1764434426.275524,9.01866,1.28184,4.33384,0.986752845,-0.05407701,0.059631195
1764434426.275524,8.30144,1.55652,4.22702,0.98815665,-0.053527695,0.05969223
1764434426.275524,8.30144,1.55652,4.22702,0.98815665,-0.053527695,0.05969223
1764434426.275524,8.30144,1.55652,4.22702,0.98815665,-0.053527695,0.05969223
1764434426.275524,8.30144,1.55652,4.22702,0.98815665,-0.053527695,0.05969223
1764434426.275524,8.30144,1.55652,4.22702,0.98815665,-0.053527695,0.05969223
1764434426.275524,8.30144,1.55652,4.22702,0.98815665,-0.053527695,0.05969223
1764434426.275524,8.30144,1.55652,4.22702,0.98815665,-0.053527695,0.05969223
1764434426.275524,8.30144,1.55652,4.22702,0.98815665,-0.053527695,0.05969223
1764434426.275524,8.30144,1.55652,4.22702,0.98815665,-0.053527695,0.05969223
1764434426.275524,8.30144,1.55652,4.22702,0.98815665,-0.053527695,0.05969223
1764434426.275524,8.02676,1.526,4.18124,0.988095615,-0.053527695,0.05920395
1764434426.275524,8.02676,1.526,4.18124,0.988095615,-0.053527695,0.05920395
1764434426.3207626,8.02676,1.526,4.18124,0.988095615,-0.053527695,0.05920395
1764434426.3212955,8.02676,1.526,4.18124,0.988095615,-0.053527695,0.05920395
1764434426.3212955,8.02676,1.526,4.18124,0.988095615,-0.053527695,0.05920395
1764434426.3212955,8.02676,1.526,4.18124,0.988095615,-0.053527695,0.05920395
1764434426.3212955,8.02676,1.526,4.18124,0.988095615,-0.053527695,0.05920395
1764434426.3212955,8.02676,1.526,4.18124,0.988095615,-0.053527695,0.05920395
1764434426.3212955,8.02676,1.526,4.18124,0.988095615,-0.053527695,0.05920395
1764434426.321765,8.02676,1.526,4.18124,0.988095615,-0.053527695,0.05920395
1764434426.321765,7.52318,1.81594,4.959499999999999,0.98791251,-0.054138045,0.059020845
1764434426.321765,7.52318,1.81594,4.959499999999999,0.98791251,-0.054138045,0.059020845
1764434426.321765,7.52318,1.81594,4.959499999999999,0.98791251,-0.054138045,0.059020845
1764434426.321765,7.52318,1.81594,4.959499999999999,0.98791251,-0.054138045,0.059020845
1764434426.321765,7.52318,1.81594,4.959499999999999,0.98791251,-0.054138045,0.059020845
1764434426.321765,7.52318,1.81594,4.959499999999999,0.98791251,-0.054138045,0.059020845
1764434426.321765,7.52318,1.81594,4.959499999999999,0.98791251,-0.054138045,0.059020845
1764434426.321765,7.52318,1.81594,4.959499999999999,0.98791251,-0.054138045,0.059020845
1764434426.321765,7.52318,1.81594,4.959499999999999,0.98791251,-0.054138045,0.059020845
1764434426.321765,7.52318,1.81594,4.959499999999999,0.98791251,-0.054138045,0.059020845
1764434426.321765,7.0196,2.47212,4.99002,0.98901114,-0.054992535,0.05944809
1764434426.321765,7.0196,2.47212,4.99002,0.98901114,-0.054992535,0.05944809
1764434426.321765,7.0196,2.47212,4.99002,0.98901114,-0.054992535,0.05944809
1764434426.321765,7.0196,2.47212,4.99002,0.98901114,-0.054992535,0.05944809
1764434426.366258,7.0196,2.47212,4.99002,0.98901114,-0.054992535,0.05944809
1764434426.366258,7.0196,2.47212,4.99002,0.98901114,-0.054992535,0.05944809
1764434426.366258,7.0196,2.47212,4.99002,0.98901114,-0.054992535,0.05944809
1764434426.366258,7.0196,2.47212,4.99002,0.98901114,-0.054992535,0.05944809
1764434426.366258,7.0196,2.47212,4.99002,0.98901114,-0.054992535,0.05944809
1764434426.366258,7.0196,2.47212,4.99002,0.98901114,-0.054992535,0.05944809
1764434426.366258,6.31764,1.89224,5.0358,0.98718009,-0.053649765,0.05883774
1764434426.3672588,6.31764,1.89224,5.0358,0.98718009,-0.053649765,0.05883774
1764434426.3672588,6.31764,1.89224,5.0358,0.98718009,-0.053649765,0.05883774
1764434426.3672588,6.31764,1.89224,5.0358,0.98718009,-0.053649765,0.05883774
1764434426.3672588,6.31764,1.89224,5.0358,0.98718009,-0.053649765,0.05883774
1764434426.3672588,6.31764,1.89224,5.0358,0.98718009,-0.053649765,0.05883774
1764434426.3672588,6.31764,1.89224,5.0358,0.98718009,-0.053649765,0.05883774
1764434426.3672588,6.31764,1.89224,5.0358,0.98718009,-0.053649765,0.05883774
1764434426.3672588,6.31764,1.89224,5.0358,0.98718009,-0.053649765,0.05883774
1764434426.3672588,6.31764,1.89224,5.0358,0.98718009,-0.053649765,0.05883774
1764434426.3672588,5.24944,1.43444,4.51696,0.98705802,-0.05407701,0.058654635
1764434426.3672588,5.24944,1.43444,4.51696,0.98705802,-0.05407701,0.058654635
1764434426.3672588,5.24944,1.43444,4.51696,0.98705802,-0.05407701,0.058654635
1764434426.3672588,5.24944,1.43444,4.51696,0.98705802,-0.05407701,0.058654635
1764434426.3672588,5.24944,1.43444,4.51696,0.98705802,-0.05407701,0.058654635
1764434426.3672588,5.24944,1.43444,4.51696,0.98705802,-0.05407701,0.058654635
1764434426.3672588,5.24944,1.43444,4.51696,0.98705802,-0.05407701,0.058654635
1764434426.3672588,5.24944,1.43444,4.51696,0.98705802,-0.05407701,0.058654635
1764434426.4107327,5.24944,1.43444,4.51696,0.98705802,-0.05407701,0.058654635
1764434426.4107327,5.24944,1.43444,4.51696,0.98705802,-0.05407701,0.058654635
1764434426.4107327,4.68482,1.86172,4.02864,0.98791251,-0.05432115,0.059142915
1764434426.4107327,4.68482,1.86172,4.02864,0.98791251,-0.05432115,0.059142915
1764434426.4107327,4.68482,1.86172,4.02864,0.98791251,-0.05432115,0.059142915
1764434426.4107327,4.68482,1.86172,4.02864,0.98791251,-0.05432115,0.059142915
1764434426.4107327,4.68482,1.86172,4.02864,0.98791251,-0.05432115,0.059142915
1764434426.4107327,4.68482,1.86172,4.02864,0.98791251,-0.05432115,0.059142915
1764434426.4107327,4.68482,1.86172,4.02864,0.98791251,-0.05432115,0.059142915
1764434426.4107327,4.68482,1.86172,4.02864,0.98791251,-0.05432115,0.059142915
1764434426.4107327,4.68482,1.86172,4.02864,0.98791251,-0.05432115,0.059142915
1764434426.4107327,4.68482,1.86172,4.02864,0.98791251,-0.05432115,0.059142915
1764434426.4107327,4.60852,1.78542,3.76922,0.986874915,-0.055114605,0.0598143
1764434426.4107327,4.60852,1.78542,3.76922,0.986874915,-0.055114605,0.0598143
1764434426.4107327,4.60852,1.78542,3.76922,0.986874915,-0.055114605,0.0598143
1764434426.4107327,4.60852,1.78542,3.76922,0.986874915,-0.055114605,0.0598143
1764434426.4107327,4.60852,1.78542,3.76922,0.986874915,-0.055114605,0.0598143
1764434426.4107327,4.60852,1.78542,3.76922,0.986874915,-0.055114605,0.0598143
1764434426.4107327,4.60852,1.78542,3.76922,0.986874915,-0.055114605,0.0598143
1764434426.4107327,4.60852,1.78542,3.76922,0.986874915,-0.055114605,0.0598143
1764434426.4107327,4.60852,1.78542,3.76922,0.986874915,-0.055114605,0.0598143
1764434426.4122715,4.60852,1.78542,3.76922,0.986874915,-0.055114605,0.0598143
1764434426.4122715,4.08968,1.87698,3.052,0.98595939,-0.05578599,0.06018051
1764434426.4122715,4.08968,1.87698,3.052,0.98595939,-0.05578599,0.06018051
1764434426.4580898,4.08968,1.87698,3.052,0.98595939,-0.05578599,0.06018051
1764434426.458599,4.08968,1.87698,3.052,0.98595939,-0.05578599,0.06018051
1764434426.458599,4.08968,1.87698,3.052,0.98595939,-0.05578599,0.06018051
1764434426.458599,4.08968,1.87698,3.052,0.98595939,-0.05578599,0.06018051
1764434426.458599,4.08968,1.87698,3.052,0.98595939,-0.05578599,0.06018051
1764434426.458599,4.08968,1.87698,3.052,0.98595939,-0.05578599,0.06018051
1764434426.458599,4.08968,1.87698,3.052,0.98595939,-0.05578599,0.06018051
1764434426.458599,4.08968,1.87698,3.052,0.98595939,-0.05578599,0.06018051
1764434426.458599,3.29616,1.86172,2.63998,0.98498283,-0.056579445,0.06005844
1764434426.458599,3.29616,1.86172,2.63998,0.98498283,-0.056579445,0.06005844
1764434426.458599,3.29616,1.86172,2.63998,0.98498283,-0.056579445,0.06005844
1764434426.458599,3.29616,1.86172,2.63998,0.98498283,-0.056579445,0.06005844
1764434426.458599,3.29616,1.86172,2.63998,0.98498283,-0.056579445,0.06005844
1764434426.458599,3.29616,1.86172,2.63998,0.98498283,-0.056579445,0.06005844
1764434426.4596057,3.29616,1.86172,2.63998,0.98498283,-0.056579445,0.06005844
1764434426.4596057,3.29616,1.86172,2.63998,0.98498283,-0.056579445,0.06005844
1764434426.4596057,3.29616,1.86172,2.63998,0.98498283,-0.056579445,0.06005844
1764434426.4596057,3.29616,1.86172,2.63998,0.98498283,-0.056579445,0.06005844
1764434426.4596057,2.96044,2.1364,2.54842,0.985288005,-0.056457375,0.060607755
1764434426.4596057,2.96044,2.1364,2.54842,0.985288005,-0.056457375,0.060607755
1764434426.4596057,2.96044,2.1364,2.54842,0.985288005,-0.056457375,0.060607755
1764434426.4596057,2.96044,2.1364,2.54842,0.985288005,-0.056457375,0.060607755
1764434426.4596057,2.96044,2.1364,2.54842,0.985288005,-0.056457375,0.060607755
1764434426.4596057,2.96044,2.1364,2.54842,0.985288005,-0.056457375,0.060607755
1764434426.5084212,2.96044,2.1364,2.54842,0.985288005,-0.056457375,0.060607755
1764434426.5084212,2.96044,2.1364,2.54842,0.985288005,-0.056457375,0.060607755
1764434426.5084212,2.96044,2.1364,2.54842,0.985288005,-0.056457375,0.060607755
1764434426.5084212,2.96044,2.1364,2.54842,0.985288005,-0.056457375,0.060607755
1764434426.5084212,2.63998,2.56368,2.22796,0.985898355,-0.05725083,0.061340175
1764434426.5084212,2.63998,2.56368,2.22796,0.985898355,-0.05725083,0.061340175
1764434426.5084212,2.63998,2.56368,2.22796,0.985898355,-0.05725083,0.061340175
1764434426.5084212,2.63998,2.56368,2.22796,0.985898355,-0.05725083,0.061340175
1764434426.5084212,2.63998,2.56368,2.22796,0.985898355,-0.05725083,0.061340175
1764434426.5084212,2.63998,2.56368,2.22796,0.985898355,-0.05725083,0.061340175
1764434426.5084212,2.63998,2.56368,2.22796,0.985898355,-0.05725083,0.061340175
1764434426.5084212,2.63998,2.56368,2.22796,0.985898355,-0.05725083,0.061340175
1764434426.5084212,2.63998,2.56368,2.22796,0.985898355,-0.05725083,0.061340175
1764434426.5084212,2.63998,2.56368,2.22796,0.985898355,-0.05725083,0.061340175
1764434426.5084212,2.33478,2.62472,2.38056,0.98718009,-0.05822739,0.06127914
1764434426.5084212,2.33478,2.62472,2.38056,0.98718009,-0.05822739,0.06127914
1764434426.5084212,2.33478,2.62472,2.38056,0.98718009,-0.05822739,0.06127914
1764434426.5084212,2.33478,2.62472,2.38056,0.98718009,-0.05822739,0.06127914
1764434426.5084212,2.33478,2.62472,2.38056,0.98718009,-0.05822739,0.06127914
1764434426.5084212,2.33478,2.62472,2.38056,0.98718009,-0.05822739,0.06127914
1764434426.5084212,2.33478,2.62472,2.38056,0.98718009,-0.05822739,0.06127914
1764434426.509421,2.33478,2.62472,2.38056,0.98718009,-0.05822739,0.06127914
1764434426.5535448,2.33478,2.62472,2.38056,0.98718009,-0.05822739,0.06127914
1764434426.5535448,2.33478,2.62472,2.38056,0.98718009,-0.05822739,0.06127914
1764434426.5535448,1.41918,2.38056,2.9757,0.986630775,-0.05883774,0.06115707
1764434426.5535448,1.41918,2.38056,2.9757,0.986630775,-0.05883774,0.06115707
1764434426.5535448,1.41918,2.38056,2.9757,0.986630775,-0.05883774,0.06115707
1764434426.5535448,1.41918,2.38056,2.9757,0.986630775,-0.05883774,0.06115707
1764434426.5535448,1.41918,2.38056,2.9757,0.986630775,-0.05883774,0.06115707
1764434426.5545511,1.41918,2.38056,2.9757,0.986630775,-0.05883774,0.06115707
1764434426.5545511,1.41918,2.38056,2.9757,0.986630775,-0.05883774,0.06115707
1764434426.5545511,1.41918,2.38056,2.9757,0.986630775,-0.05883774,0.06115707
1764434426.5545511,1.41918,2.38056,2.9757,0.986630775,-0.05883774,0.06115707
1764434426.5545511,1.41918,2.38056,2.9757,0.986630775,-0.05883774,0.06115707
1764434426.5545511,0.8087799999999999,2.0601,2.30426,0.986752845,-0.058166355,0.06079086
1764434426.5545511,0.8087799999999999,2.0601,2.30426,0.986752845,-0.058166355,0.06079086
1764434426.5545511,0.8087799999999999,2.0601,2.30426,0.986752845,-0.058166355,0.06079086
1764434426.5545511,0.8087799999999999,2.0601,2.30426,0.986752845,-0.058166355,0.06079086
1764434426.5555582,0.8087799999999999,2.0601,2.30426,0.986752845,-0.058166355,0.06079086
1764434426.5555582,0.8087799999999999,2.0601,2.30426,0.986752845,-0.058166355,0.06079086
1764434426.5555582,0.8087799999999999,2.0601,2.30426,0.986752845,-0.058166355,0.06079086
1764434426.5555582,0.8087799999999999,2.0601,2.30426,0.986752845,-0.058166355,0.06079086
1764434426.5555582,0.8087799999999999,2.0601,2.30426,0.986752845,-0.058166355,0.06079086
1764434426.5555582,0.8087799999999999,2.0601,2.30426,0.986752845,-0.058166355,0.06079086
1764434426.5996506,0.03052,2.07536,2.80784,0.986874915,-0.05871567,0.061462245
1764434426.5996506,0.03052,2.07536,2.80784,0.986874915,-0.05871567,0.061462245
1764434426.6006691,0.03052,2.07536,2.80784,0.986874915,-0.05871567,0.061462245
1764434426.6006691,0.03052,2.07536,2.80784,0.986874915,-0.05871567,0.061462245
1764434426.6006691,0.03052,2.07536,2.80784,0.986874915,-0.05871567,0.061462245
1764434426.6006691,0.03052,2.07536,2.80784,0.986874915,-0.05871567,0.061462245
1764434426.6006691,0.03052,2.07536,2.80784,0.986874915,-0.05871567,0.061462245
1764434426.6006691,0.03052,2.07536,2.80784,0.986874915,-0.05871567,0.061462245
1764434426.6006691,0.03052,2.07536,2.80784,0.986874915,-0.05871567,0.061462245
1764434426.6006691,0.03052,2.07536,2.80784,0.986874915,-0.05871567,0.061462245
1764434426.6006691,-0.79352,1.86172,2.99096,0.986264565,-0.05969223,0.06164535
1764434426.6006691,-0.79352,1.86172,2.99096,0.986264565,-0.05969223,0.06164535
1764434426.6033676,-0.79352,1.86172,2.99096,0.986264565,-0.05969223,0.06164535
1764434426.6033676,-0.79352,1.86172,2.99096,0.986264565,-0.05969223,0.06164535
1764434426.6033676,-0.79352,1.86172,2.99096,0.986264565,-0.05969223,0.06164535
1764434426.6033676,-0.79352,1.86172,2.99096,0.986264565,-0.05969223,0.06164535
1764434426.6033676,-0.79352,1.86172,2.99096,0.986264565,-0.05969223,0.06164535
1764434426.6033676,-0.79352,1.86172,2.99096,0.986264565,-0.05969223,0.06164535
1764434426.6033676,-0.79352,1.86172,2.99096,0.986264565,-0.05969223,0.06164535
1764434426.6033676,-0.79352,1.86172,2.99096,0.986264565,-0.05969223,0.06164535
1764434426.6033676,-1.17502,1.08346,2.62472,0.98461662,-0.05944809,0.06140121
1764434426.6033676,-1.17502,1.08346,2.62472,0.98461662,-0.05944809,0.06140121
1764434426.6033676,-1.17502,1.08346,2.62472,0.98461662,-0.05944809,0.06140121
1764434426.6033676,-1.17502,1.08346,2.62472,0.98461662,-0.05944809,0.06140121
1764434426.6033676,-1.17502,1.08346,2.62472,0.98461662,-0.05944809,0.06140121
1764434426.6033676,-1.17502,1.08346,2.62472,0.98461662,-0.05944809,0.06140121
1764434426.6498682,-1.17502,1.08346,2.62472,0.98461662,-0.05944809,0.06140121
1764434426.6498682,-1.17502,1.08346,2.62472,0.98461662,-0.05944809,0.06140121
1764434426.6498682,-1.17502,1.08346,2.62472,0.98461662,-0.05944809,0.06140121
1764434426.6498682,-1.17502,1.08346,2.62472,0.98461662,-0.05944809,0.06140121
1764434426.6498682,-1.8312,1.28184,2.09062,0.983823165,-0.05932602,0.061462245
1764434426.6498682,-1.8312,1.28184,2.09062,0.983823165,-0.05932602,0.061462245
1764434426.6498682,-1.8312,1.28184,2.09062,0.983823165,-0.05932602,0.061462245
1764434426.6498682,-1.8312,1.28184,2.09062,0.983823165,-0.05932602,0.061462245
1764434426.6498682,-1.8312,1.28184,2.09062,0.983823165,-0.05932602,0.061462245
1764434426.6498682,-1.8312,1.28184,2.09062,0.983823165,-0.05932602,0.061462245
1764434426.6498682,-1.8312,1.28184,2.09062,0.983823165,-0.05932602,0.061462245
1764434426.6498682,-1.8312,1.28184,2.09062,0.983823165,-0.05932602,0.061462245
1764434426.6498682,-1.8312,1.28184,2.09062,0.983823165,-0.05932602,0.061462245
1764434426.6498682,-1.8312,1.28184,2.09062,0.983823165,-0.05932602,0.061462245
1764434426.6498682,-2.4416,1.23606,1.28184,0.985532145,-0.059997405,0.062682945
1764434426.6498682,-2.4416,1.23606,1.28184,0.985532145,-0.059997405,0.062682945
1764434426.6498682,-2.4416,1.23606,1.28184,0.985532145,-0.059997405,0.062682945
1764434426.6498682,-2.4416,1.23606,1.28184,0.985532145,-0.059997405,0.062682945
1764434426.6498682,-2.4416,1.23606,1.28184,0.985532145,-0.059997405,0.062682945
1764434426.6498682,-2.4416,1.23606,1.28184,0.985532145,-0.059997405,0.062682945
1764434426.6498682,-2.4416,1.23606,1.28184,0.985532145,-0.059997405,0.062682945
1764434426.6498682,-2.4416,1.23606,1.28184,0.985532145,-0.059997405,0.062682945
1764434426.6927793,-2.4416,1.23606,1.28184,0.985532145,-0.059997405,0.062682945
1764434426.6927793,-2.4416,1.23606,1.28184,0.985532145,-0.059997405,0.062682945
1764434426.6927793,-2.41108,1.69386,0.77826,0.9863256,-0.06091293,0.062927085
1764434426.6927793,-2.41108,1.69386,0.77826,0.9863256,-0.06091293,0.062927085
1764434426.6927793,-2.41108,1.69386,0.77826,0.9863256,-0.06091293,0.062927085
1764434426.6927793,-2.41108,1.69386,0.77826,0.9863256,-0.06091293,0.062927085
1764434426.6927793,-2.41108,1.69386,0.77826,0.9863256,-0.06091293,0.062927085
1764434426.6937878,-2.41108,1.69386,0.77826,0.9863256,-0.06091293,0.062927085
1764434426.6937878,-2.41108,1.69386,0.77826,0.9863256,-0.06091293,0.062927085
1764434426.6937878,-2.41108,1.69386,0.77826,0.9863256,-0.06091293,0.062927085
1764434426.6937878,-2.41108,1.69386,0.77826,0.9863256,-0.06091293,0.062927085
1764434426.6937878,-2.41108,1.69386,0.77826,0.9863256,-0.06091293,0.062927085
1764434426.6937878,-2.35004,1.81594,0.59514,0.985898355,-0.061584315,0.06286605
1764434426.6937878,-2.35004,1.81594,0.59514,0.985898355,-0.061584315,0.06286605
1764434426.6937878,-2.35004,1.81594,0.59514,0.985898355,-0.061584315,0.06286605
1764434426.6937878,-2.35004,1.81594,0.59514,0.985898355,-0.061584315,0.06286605
1764434426.6937878,-2.35004,1.81594,0.59514,0.985898355,-0.061584315,0.06286605
1764434426.6937878,-2.35004,1.81594,0.59514,0.985898355,-0.061584315,0.06286605
1764434426.6937878,-2.35004,1.81594,0.59514,0.985898355,-0.061584315,0.06286605
1764434426.6937878,-2.35004,1.81594,0.59514,0.985898355,-0.061584315,0.06286605
1764434426.694795,-2.35004,1.81594,0.59514,0.985898355,-0.061584315,0.06286605
1764434426.694795,-2.35004,1.81594,0.59514,0.985898355,-0.061584315,0.06286605
1764434426.694795,-2.71628,1.54126,0.54936,0.984677655,-0.06188949,0.063171225
1764434426.694795,-2.71628,1.54126,0.54936,0.984677655,-0.06188949,0.063171225
1764434426.694795,-2.71628,1.54126,0.54936,0.984677655,-0.06188949,0.063171225
1764434426.694795,-2.71628,1.54126,0.54936,0.984677655,-0.06188949,0.063171225
1764434426.7426777,-2.71628,1.54126,0.54936,0.984677655,-0.06188949,0.063171225
1764434426.7426777,-2.71628,1.54126,0.54936,0.984677655,-0.06188949,0.063171225
1764434426.7426777,-2.71628,1.54126,0.54936,0.984677655,-0.06188949,0.063171225
1764434426.7436776,-2.71628,1.54126,0.54936,0.984677655,-0.06188949,0.063171225
1764434426.7436776,-2.71628,1.54126,0.54936,0.984677655,-0.06188949,0.063171225
1764434426.7436776,-2.71628,1.54126,0.54936,0.984677655,-0.06188949,0.063171225
1764434426.7436776,-2.83836,1.34288,0.25942,0.985165935,-0.061340175,0.06372054
1764434426.744675,-2.83836,1.34288,0.25942,0.985165935,-0.061340175,0.06372054
1764434426.744675,-2.83836,1.34288,0.25942,0.985165935,-0.061340175,0.06372054
1764434426.744675,-2.83836,1.34288,0.25942,0.985165935,-0.061340175,0.06372054
1764434426.745684,-2.83836,1.34288,0.25942,0.985165935,-0.061340175,0.06372054
1764434426.745684,-2.83836,1.34288,0.25942,0.985165935,-0.061340175,0.06372054
1764434426.745684,-2.83836,1.34288,0.25942,0.985165935,-0.061340175,0.06372054
1764434426.745684,-2.83836,1.34288,0.25942,0.985165935,-0.061340175,0.06372054
1764434426.745684,-2.83836,1.34288,0.25942,0.985165935,-0.061340175,0.06372054
1764434426.74668,-2.83836,1.34288,0.25942,0.985165935,-0.061340175,0.06372054
1764434426.74668,-3.15882,1.0682,-0.21364,0.986020425,-0.06140121,0.064025715
1764434426.74668,-3.15882,1.0682,-0.21364,0.986020425,-0.06140121,0.064025715
1764434426.747677,-3.15882,1.0682,-0.21364,0.986020425,-0.06140121,0.064025715
1764434426.747677,-3.15882,1.0682,-0.21364,0.986020425,-0.06140121,0.064025715
1764434426.747677,-3.15882,1.0682,-0.21364,0.986020425,-0.06140121,0.064025715
1764434426.747677,-3.15882,1.0682,-0.21364,0.986020425,-0.06140121,0.064025715
1764434426.789631,-3.15882,1.0682,-0.21364,0.986020425,-0.06140121,0.064025715
1764434426.789631,-3.15882,1.0682,-0.21364,0.986020425,-0.06140121,0.064025715
1764434426.789631,-3.15882,1.0682,-0.21364,0.986020425,-0.06140121,0.064025715
1764434426.789631,-3.15882,1.0682,-0.21364,0.986020425,-0.06140121,0.064025715
1764434426.789631,-3.1283,0.74774,-0.18312,0.98620353,-0.06066879,0.06433089
1764434426.789631,-3.1283,0.74774,-0.18312,0.98620353,-0.06066879,0.06433089
1764434426.789631,-3.1283,0.74774,-0.18312,0.98620353,-0.06066879,0.06433089
1764434426.789631,-3.1283,0.74774,-0.18312,0.98620353,-0.06066879,0.06433089
1764434426.789631,-3.1283,0.74774,-0.18312,0.98620353,-0.06066879,0.06433089
1764434426.7900913,-3.1283,0.74774,-0.18312,0.98620353,-0.06066879,0.06433089
1764434426.7900913,-3.1283,0.74774,-0.18312,0.98620353,-0.06066879,0.06433089
1764434426.7900913,-3.1283,0.74774,-0.18312,0.98620353,-0.06066879,0.06433089
1764434426.7900913,-3.1283,0.74774,-0.18312,0.98620353,-0.06066879,0.06433089
1764434426.7900913,-3.1283,0.74774,-0.18312,0.98620353,-0.06066879,0.06433089
1764434426.7900913,-3.29616,0.7019599999999999,0.18312,0.986752845,-0.06054672,0.064391925
1764434426.7900913,-3.29616,0.7019599999999999,0.18312,0.986752845,-0.06054672,0.064391925
1764434426.7900913,-3.29616,0.7019599999999999,0.18312,0.986752845,-0.06054672,0.064391925
1764434426.7900913,-3.29616,0.7019599999999999,0.18312,0.986752845,-0.06054672,0.064391925
1764434426.7900913,-3.29616,0.7019599999999999,0.18312,0.986752845,-0.06054672,0.064391925
1764434426.7900913,-3.29616,0.7019599999999999,0.18312,0.986752845,-0.06054672,0.064391925
1764434426.790644,-3.29616,0.7019599999999999,0.18312,0.986752845,-0.06054672,0.064391925
1764434426.790644,-3.29616,0.7019599999999999,0.18312,0.986752845,-0.06054672,0.064391925
1764434426.790644,-3.29616,0.7019599999999999,0.18312,0.986752845,-0.06054672,0.064391925
1764434426.790644,-3.29616,0.7019599999999999,0.18312,0.986752845,-0.06054672,0.064391925
1764434426.8388348,-3.815,0.71722,0.06104,0.986264565,-0.059509125,0.063659505
1764434426.8388348,-3.815,0.71722,0.06104,0.986264565,-0.059509125,0.063659505
1764434426.8398354,-3.815,0.71722,0.06104,0.986264565,-0.059509125,0.063659505
1764434426.8398354,-3.815,0.71722,0.06104,0.986264565,-0.059509125,0.063659505
1764434426.8398354,-3.815,0.71722,0.06104,0.986264565,-0.059509125,0.063659505
1764434426.8398354,-3.815,0.71722,0.06104,0.986264565,-0.059509125,0.063659505
1764434426.8398354,-3.815,0.71722,0.06104,0.986264565,-0.059509125,0.063659505
1764434426.8398354,-3.815,0.71722,0.06104,0.986264565,-0.059509125,0.063659505
1764434426.8398354,-3.815,0.71722,0.06104,0.986264565,-0.059509125,0.063659505
1764434426.8398354,-3.815,0.71722,0.06104,0.986264565,-0.059509125,0.063659505
1764434426.8398354,-3.95234,0.77826,0.56462,0.986752845,-0.05920395,0.0634764
1764434426.8398354,-3.95234,0.77826,0.56462,0.986752845,-0.05920395,0.0634764
1764434426.8398354,-3.95234,0.77826,0.56462,0.986752845,-0.05920395,0.0634764
1764434426.8398354,-3.95234,0.77826,0.56462,0.986752845,-0.05920395,0.0634764
1764434426.8398354,-3.95234,0.77826,0.56462,0.986752845,-0.05920395,0.0634764
1764434426.8398354,-3.95234,0.77826,0.56462,0.986752845,-0.05920395,0.0634764
1764434426.8398354,-3.95234,0.77826,0.56462,0.986752845,-0.05920395,0.0634764
1764434426.8398354,-3.95234,0.77826,0.56462,0.986752845,-0.05920395,0.0634764
1764434426.8398354,-3.95234,0.77826,0.56462,0.986752845,-0.05920395,0.0634764
1764434426.8398354,-3.95234,0.77826,0.56462,0.986752845,-0.05920395,0.0634764
1764434426.8398354,-3.72344,0.73248,0.6103999999999999,0.98644767,-0.060607755,0.063171225
1764434426.8398354,-3.72344,0.73248,0.6103999999999999,0.98644767,-0.060607755,0.063171225
1764434426.8398354,-3.72344,0.73248,0.6103999999999999,0.98644767,-0.060607755,0.063171225
1764434426.8398354,-3.72344,0.73248,0.6103999999999999,0.98644767,-0.060607755,0.063171225
1764434426.885942,-3.72344,0.73248,0.6103999999999999,0.98644767,-0.060607755,0.063171225
1764434426.885942,-3.72344,0.73248,0.6103999999999999,0.98644767,-0.060607755,0.063171225
1764434426.885942,-3.72344,0.73248,0.6103999999999999,0.98644767,-0.060607755,0.063171225
1764434426.885942,-3.72344,0.73248,0.6103999999999999,0.98644767,-0.060607755,0.063171225
1764434426.885942,-3.72344,0.73248,0.6103999999999999,0.98644767,-0.060607755,0.063171225
1764434426.885942,-3.72344,0.73248,0.6103999999999999,0.98644767,-0.060607755,0.063171225
1764434426.8869352,-3.63188,0.57988,1.23606,0.985898355,-0.060729825,0.062560875
1764434426.8869352,-3.63188,0.57988,1.23606,0.985898355,-0.060729825,0.062560875
1764434426.8869352,-3.63188,0.57988,1.23606,0.985898355,-0.060729825,0.062560875
1764434426.8869352,-3.63188,0.57988,1.23606,0.985898355,-0.060729825,0.062560875
1764434426.8869352,-3.63188,0.57988,1.23606,0.985898355,-0.060729825,0.062560875
1764434426.8869352,-3.63188,0.57988,1.23606,0.985898355,-0.060729825,0.062560875
1764434426.8869352,-3.63188,0.57988,1.23606,0.985898355,-0.060729825,0.062560875
1764434426.8869352,-3.63188,0.57988,1.23606,0.985898355,-0.060729825,0.062560875
1764434426.8869352,-3.63188,0.57988,1.23606,0.985898355,-0.060729825,0.062560875
1764434426.8869352,-3.63188,0.57988,1.23606,0.985898355,-0.060729825,0.062560875
1764434426.8869352,-3.84552,0.79352,0.85456,0.986386635,-0.06066879,0.06311019
1764434426.8869352,-3.84552,0.79352,0.85456,0.986386635,-0.06066879,0.06311019
1764434426.8869352,-3.84552,0.79352,0.85456,0.986386635,-0.06066879,0.06311019
1764434426.8869352,-3.84552,0.79352,0.85456,0.986386635,-0.06066879,0.06311019
1764434426.8869352,-3.84552,0.79352,0.85456,0.986386635,-0.06066879,0.06311019
1764434426.8869352,-3.84552,0.79352,0.85456,0.986386635,-0.06066879,0.06311019
1764434426.9272883,-3.84552,0.79352,0.85456,0.986386635,-0.06066879,0.06311019
1764434426.9272883,-3.84552,0.79352,0.85456,0.986386635,-0.06066879,0.06311019
1764434426.9272883,-3.84552,0.79352,0.85456,0.986386635,-0.06066879,0.06311019
1764434426.9272883,-3.84552,0.79352,0.85456,0.986386635,-0.06066879,0.06311019
1764434426.9272883,-3.2046,0.77826,0.51884,0.986386635,-0.059997405,0.062438805
1764434426.9272883,-3.2046,0.77826,0.51884,0.986386635,-0.059997405,0.062438805
1764434426.9272883,-3.2046,0.77826,0.51884,0.986386635,-0.059997405,0.062438805
1764434426.9272883,-3.2046,0.77826,0.51884,0.986386635,-0.059997405,0.062438805
1764434426.9272883,-3.2046,0.77826,0.51884,0.986386635,-0.059997405,0.062438805
1764434426.9272883,-3.2046,0.77826,0.51884,0.986386635,-0.059997405,0.062438805
1764434426.9272883,-3.2046,0.77826,0.51884,0.986386635,-0.059997405,0.062438805
1764434426.9272883,-3.2046,0.77826,0.51884,0.986386635,-0.059997405,0.062438805
1764434426.9272883,-3.2046,0.77826,0.51884,0.986386635,-0.059997405,0.062438805
1764434426.9272883,-3.2046,0.77826,0.51884,0.986386635,-0.059997405,0.062438805
1764434426.9272883,-3.57084,1.05294,0.54936,0.98730216,-0.059875335,0.06237777
1764434426.9272883,-3.57084,1.05294,0.54936,0.98730216,-0.059875335,0.06237777
1764434426.9272883,-3.57084,1.05294,0.54936,0.98730216,-0.059875335,0.06237777
1764434426.9272883,-3.57084,1.05294,0.54936,0.98730216,-0.059875335,0.06237777
1764434426.9272883,-3.57084,1.05294,0.54936,0.98730216,-0.059875335,0.06237777
1764434426.9272883,-3.57084,1.05294,0.54936,0.98730216,-0.059875335,0.06237777
1764434426.9272883,-3.57084,1.05294,0.54936,0.98730216,-0.059875335,0.06237777
1764434426.9272883,-3.57084,1.05294,0.54936,0.98730216,-0.059875335,0.06237777
1764434426.9272883,-3.57084,1.05294,0.54936,0.98730216,-0.059875335,0.06237777
1764434426.9272883,-3.57084,1.05294,0.54936,0.98730216,-0.059875335,0.06237777
1764434426.974368,-3.75396,0.8087799999999999,0.24416,0.98681388,-0.05944809,0.0622557
1764434426.974368,-3.75396,0.8087799999999999,0.24416,0.98681388,-0.05944809,0.0622557
1764434426.974368,-3.75396,0.8087799999999999,0.24416,0.98681388,-0.05944809,0.0622557
1764434426.974368,-3.75396,0.8087799999999999,0.24416,0.98681388,-0.05944809,0.0622557
1764434426.974368,-3.75396,0.8087799999999999,0.24416,0.98681388,-0.05944809,0.0622557
1764434426.974368,-3.75396,0.8087799999999999,0.24416,0.98681388,-0.05944809,0.0622557
1764434426.974368,-3.75396,0.8087799999999999,0.24416,0.98681388,-0.05944809,0.0622557
1764434426.974368,-3.75396,0.8087799999999999,0.24416,0.98681388,-0.05944809,0.0622557
1764434426.974368,-3.75396,0.8087799999999999,0.24416,0.98681388,-0.05944809,0.0622557
1764434426.974368,-3.75396,0.8087799999999999,0.24416,0.98681388,-0.05944809,0.0622557
1764434426.974368,-4.07442,0.3204599999999999,0.3815,0.98730216,-0.059142915,0.06152328
1764434426.974368,-4.07442,0.3204599999999999,0.3815,0.98730216,-0.059142915,0.06152328
1764434426.974368,-4.07442,0.3204599999999999,0.3815,0.98730216,-0.059142915,0.06152328
1764434426.974368,-4.07442,0.3204599999999999,0.3815,0.98730216,-0.059142915,0.06152328
1764434426.974368,-4.07442,0.3204599999999999,0.3815,0.98730216,-0.059142915,0.06152328
1764434426.974368,-4.07442,0.3204599999999999,0.3815,0.98730216,-0.059142915,0.06152328
1764434426.974368,-4.07442,0.3204599999999999,0.3815,0.98730216,-0.059142915,0.06152328
1764434426.974368,-4.07442,0.3204599999999999,0.3815,0.98730216,-0.059142915,0.06152328
1764434426.974368,-4.07442,0.3204599999999999,0.3815,0.98730216,-0.059142915,0.06152328
1764434426.974368,-4.07442,0.3204599999999999,0.3815,0.98730216,-0.059142915,0.06152328
1764434426.974368,-3.84552,0.5341,1.02242,0.9875463,-0.05944809,0.06140121
1764434426.974368,-3.84552,0.5341,1.02242,0.9875463,-0.05944809,0.06140121
1764434426.974368,-3.84552,0.5341,1.02242,0.9875463,-0.05944809,0.06140121
1764434426.974368,-3.84552,0.5341,1.02242,0.9875463,-0.05944809,0.06140121
1764434427.0230663,-3.84552,0.5341,1.02242,0.9875463,-0.05944809,0.06140121
1764434427.0230663,-3.84552,0.5341,1.02242,0.9875463,-0.05944809,0.06140121
1764434427.0230663,-3.84552,0.5341,1.02242,0.9875463,-0.05944809,0.06140121
1764434427.0230663,-3.84552,0.5341,1.02242,0.9875463,-0.05944809,0.06140121
1764434427.0230663,-3.84552,0.5341,1.02242,0.9875463,-0.05944809,0.06140121
1764434427.0230663,-3.84552,0.5341,1.02242,0.9875463,-0.05944809,0.06140121
1764434427.0230663,-3.76922,1.43444,1.87698,0.987241125,-0.060119475,0.062316735
1764434427.0230663,-3.76922,1.43444,1.87698,0.987241125,-0.060119475,0.062316735
1764434427.0230663,-3.76922,1.43444,1.87698,0.987241125,-0.060119475,0.062316735
1764434427.0230663,-3.76922,1.43444,1.87698,0.987241125,-0.060119475,0.062316735
1764434427.0230663,-3.76922,1.43444,1.87698,0.987241125,-0.060119475,0.062316735
1764434427.0230663,-3.76922,1.43444,1.87698,0.987241125,-0.060119475,0.062316735
1764434427.0230663,-3.76922,1.43444,1.87698,0.987241125,-0.060119475,0.062316735
1764434427.0230663,-3.76922,1.43444,1.87698,0.987241125,-0.060119475,0.062316735
1764434427.0712955,-3.76922,1.43444,1.87698,0.987241125,-0.060119475,0.062316735
1764434427.0712955,-3.76922,1.43444,1.87698,0.987241125,-0.060119475,0.062316735
1764434427.0712955,-3.72344,1.02242,2.16692,0.9863256,-0.060729825,0.061462245
1764434427.0712955,-3.72344,1.02242,2.16692,0.9863256,-0.060729825,0.061462245
1764434427.0712955,-3.72344,1.02242,2.16692,0.9863256,-0.060729825,0.061462245
1764434427.0712955,-3.72344,1.02242,2.16692,0.9863256,-0.060729825,0.061462245
1764434427.0712955,-3.72344,1.02242,2.16692,0.9863256,-0.060729825,0.061462245
1764434427.0712955,-3.72344,1.02242,2.16692,0.9863256,-0.060729825,0.061462245
1764434427.0712955,-3.72344,1.02242,2.16692,0.9863256,-0.060729825,0.061462245
1764434427.0712955,-3.72344,1.02242,2.16692,0.9863256,-0.060729825,0.061462245
1764434427.0712955,-3.72344,1.02242,2.16692,0.9863256,-0.060729825,0.061462245
1764434427.0712955,-3.72344,1.02242,2.16692,0.9863256,-0.060729825,0.061462245
1764434427.0712955,-3.3572,-0.04578,1.86172,0.985288005,-0.0598143,0.06115707
1764434427.0712955,-3.3572,-0.04578,1.86172,0.985288005,-0.0598143,0.06115707
1764434427.0712955,-3.3572,-0.04578,1.86172,0.985288005,-0.0598143,0.06115707
1764434427.0712955,-3.3572,-0.04578,1.86172,0.985288005,-0.0598143,0.06115707
1764434427.072291,-3.3572,-0.04578,1.86172,0.985288005,-0.0598143,0.06115707
1764434427.072291,-3.3572,-0.04578,1.86172,0.985288005,-0.0598143,0.06115707
1764434427.072291,-3.3572,-0.04578,1.86172,0.985288005,-0.0598143,0.06115707
1764434427.072291,-3.3572,-0.04578,1.86172,0.985288005,-0.0598143,0.06115707
1764434427.072291,-3.3572,-0.04578,1.86172,0.985288005,-0.0598143,0.06115707
1764434427.072291,-3.3572,-0.04578,1.86172,0.985288005,-0.0598143,0.06115707
1764434427.072291,-3.75396,-0.13734,1.11398,0.98705802,-0.059631195,0.061340175
1764434427.072291,-3.75396,-0.13734,1.11398,0.98705802,-0.059631195,0.061340175
1764434427.072291,-3.75396,-0.13734,1.11398,0.98705802,-0.059631195,0.061340175
1764434427.072291,-3.75396,-0.13734,1.11398,0.98705802,-0.059631195,0.061340175
1764434427.072291,-3.75396,-0.13734,1.11398,0.98705802,-0.059631195,0.061340175
1764434427.072291,-3.75396,-0.13734,1.11398,0.98705802,-0.059631195,0.061340175
1764434427.072291,-3.75396,-0.13734,1.11398,0.98705802,-0.059631195,0.061340175
1764434427.0728002,-3.75396,-0.13734,1.11398,0.98705802,-0.059631195,0.061340175
1764434427.0728002,-3.75396,-0.13734,1.11398,0.98705802,-0.059631195,0.061340175
1764434427.0728002,-3.75396,-0.13734,1.11398,0.98705802,-0.059631195,0.061340175
1764434427.1154575,-3.29616,0.57988,1.48022,0.987241125,-0.05993637,0.062805015
1764434427.1154575,-3.29616,0.57988,1.48022,0.987241125,-0.05993637,0.062805015
1764434427.1154575,-3.29616,0.57988,1.48022,0.987241125,-0.05993637,0.062805015
1764434427.1154575,-3.29616,0.57988,1.48022,0.987241125,-0.05993637,0.062805015
1764434427.1154575,-3.29616,0.57988,1.48022,0.987241125,-0.05993637,0.062805015
1764434427.1154575,-3.29616,0.57988,1.48022,0.987241125,-0.05993637,0.062805015
1764434427.1154575,-3.29616,0.57988,1.48022,0.987241125,-0.05993637,0.062805015
1764434427.1154575,-3.29616,0.57988,1.48022,0.987241125,-0.05993637,0.062805015
1764434427.1154575,-3.29616,0.57988,1.48022,0.987241125,-0.05993637,0.062805015
1764434427.1154575,-3.29616,0.57988,1.48022,0.987241125,-0.05993637,0.062805015
1764434427.1154575,-3.38772,0.56462,1.28184,0.98583732,-0.05993637,0.062072595
1764434427.1154575,-3.38772,0.56462,1.28184,0.98583732,-0.05993637,0.062072595
1764434427.1154575,-3.38772,0.56462,1.28184,0.98583732,-0.05993637,0.062072595
1764434427.1154575,-3.38772,0.56462,1.28184,0.98583732,-0.05993637,0.062072595
1764434427.1154575,-3.38772,0.56462,1.28184,0.98583732,-0.05993637,0.062072595
1764434427.1154575,-3.38772,0.56462,1.28184,0.98583732,-0.05993637,0.062072595
1764434427.1154575,-3.38772,0.56462,1.28184,0.98583732,-0.05993637,0.062072595
1764434427.1154575,-3.38772,0.56462,1.28184,0.98583732,-0.05993637,0.062072595
1764434427.1154575,-3.38772,0.56462,1.28184,0.98583732,-0.05993637,0.062072595
1764434427.1154575,-3.38772,0.56462,1.28184,0.98583732,-0.05993637,0.062072595
1764434427.1154575,-3.2046,0.74774,1.41918,0.984799725,-0.05908188,0.06213363
1764434427.1154575,-3.2046,0.74774,1.41918,0.984799725,-0.05908188,0.06213363
1764434427.1154575,-3.2046,0.74774,1.41918,0.984799725,-0.05908188,0.06213363
1764434427.1154575,-3.2046,0.74774,1.41918,0.984799725,-0.05908188,0.06213363
1764434427.164404,-3.2046,0.74774,1.41918,0.984799725,-0.05908188,0.06213363
1764434427.174184,-3.2046,0.74774,1.41918,0.984799725,-0.05908188,0.06213363
1764434427.174184,-3.2046,0.74774,1.41918,0.984799725,-0.05908188,0.06213363
1764434427.174184,-3.2046,0.74774,1.41918,0.984799725,-0.05908188,0.06213363
1764434427.1751924,-3.2046,0.74774,1.41918,0.984799725,-0.05908188,0.06213363
1764434427.1751924,-3.2046,0.74774,1.41918,0.984799725,-0.05908188,0.06213363
1764434427.1751924,-3.46402,1.26658,1.48022,0.984189375,-0.05932602,0.0622557
1764434427.1751924,-3.46402,1.26658,1.48022,0.984189375,-0.05932602,0.0622557
1764434427.1761916,-3.46402,1.26658,1.48022,0.984189375,-0.05932602,0.0622557
1764434427.1761916,-3.46402,1.26658,1.48022,0.984189375,-0.05932602,0.0622557
1764434427.1761916,-3.46402,1.26658,1.48022,0.984189375,-0.05932602,0.0622557
1764434427.1761916,-3.46402,1.26658,1.48022,0.984189375,-0.05932602,0.0622557
1764434427.1771965,-3.46402,1.26658,1.48022,0.984189375,-0.05932602,0.0622557
1764434427.1771965,-3.46402,1.26658,1.48022,0.984189375,-0.05932602,0.0622557
1764434427.1771965,-3.46402,1.26658,1.48022,0.984189375,-0.05932602,0.0622557
1764434427.17819,-3.46402,1.26658,1.48022,0.984189375,-0.05932602,0.0622557
1764434427.17819,-2.80784,1.0682,1.69386,0.98473869,-0.059997405,0.06262191
1764434427.17819,-2.80784,1.0682,1.69386,0.98473869,-0.059997405,0.06262191
1764434427.17819,-2.80784,1.0682,1.69386,0.98473869,-0.059997405,0.06262191
1764434427.17819,-2.80784,1.0682,1.69386,0.98473869,-0.059997405,0.06262191
1764434427.17819,-2.80784,1.0682,1.69386,0.98473869,-0.059997405,0.06262191
1764434427.17819,-2.80784,1.0682,1.69386,0.98473869,-0.059997405,0.06262191
1764434427.2071834,-2.80784,1.0682,1.69386,0.98473869,-0.059997405,0.06262191
1764434427.2071834,-2.80784,1.0682,1.69386,0.98473869,-0.059997405,0.06262191
1764434427.2071834,-2.80784,1.0682,1.69386,0.98473869,-0.059997405,0.06262191
1764434427.2071834,-2.80784,1.0682,1.69386,0.98473869,-0.059997405,0.06262191
1764434427.2071834,-2.79258,0.93086,1.63282,0.986020425,-0.061035,0.062438805
1764434427.2071834,-2.79258,0.93086,1.63282,0.986020425,-0.061035,0.062438805
1764434427.2071834,-2.79258,0.93086,1.63282,0.986020425,-0.061035,0.062438805
1764434427.2071834,-2.79258,0.93086,1.63282,0.986020425,-0.061035,0.062438805
1764434427.2071834,-2.79258,0.93086,1.63282,0.986020425,-0.061035,0.062438805
1764434427.2082026,-2.79258,0.93086,1.63282,0.986020425,-0.061035,0.062438805
1764434427.2082026,-2.79258,0.93086,1.63282,0.986020425,-0.061035,0.062438805
1764434427.2082026,-2.79258,0.93086,1.63282,0.986020425,-0.061035,0.062438805
1764434427.2082026,-2.79258,0.93086,1.63282,0.986020425,-0.061035,0.062438805
1764434427.209712,-2.79258,0.93086,1.63282,0.986020425,-0.061035,0.062438805
1764434427.209712,-2.73154,0.27468,2.50264,0.986386635,-0.06274398,0.062560875
1764434427.209712,-2.73154,0.27468,2.50264,0.986386635,-0.06274398,0.062560875
1764434427.209712,-2.73154,0.27468,2.50264,0.986386635,-0.06274398,0.062560875
1764434427.2107258,-2.73154,0.27468,2.50264,0.986386635,-0.06274398,0.062560875
1764434427.2107258,-2.73154,0.27468,2.50264,0.986386635,-0.06274398,0.062560875
1764434427.2107258,-2.73154,0.27468,2.50264,0.986386635,-0.06274398,0.062560875
1764434427.2107258,-2.73154,0.27468,2.50264,0.986386635,-0.06274398,0.062560875
1764434427.2107258,-2.73154,0.27468,2.50264,0.986386635,-0.06274398,0.062560875
1764434427.2107258,-2.73154,0.27468,2.50264,0.986386635,-0.06274398,0.062560875
1764434427.2107258,-2.73154,0.27468,2.50264,0.986386635,-0.06274398,0.062560875
1764434427.2578092,-2.63998,0.3509799999999999,2.54842,0.9863256,-0.06262191,0.061950525
1764434427.2578092,-2.63998,0.3509799999999999,2.54842,0.9863256,-0.06262191,0.061950525
1764434427.2588303,-2.63998,0.3509799999999999,2.54842,0.9863256,-0.06262191,0.061950525
1764434427.2588303,-2.63998,0.3509799999999999,2.54842,0.9863256,-0.06262191,0.061950525
1764434427.2588303,-2.63998,0.3509799999999999,2.54842,0.9863256,-0.06262191,0.061950525
1764434427.2588303,-2.63998,0.3509799999999999,2.54842,0.9863256,-0.06262191,0.061950525
1764434427.2588303,-2.63998,0.3509799999999999,2.54842,0.9863256,-0.06262191,0.061950525
1764434427.2588303,-2.63998,0.3509799999999999,2.54842,0.9863256,-0.06262191,0.061950525
1764434427.2588303,-2.63998,0.3509799999999999,2.54842,0.9863256,-0.06262191,0.061950525
1764434427.2588303,-2.63998,0.3509799999999999,2.54842,0.9863256,-0.06262191,0.061950525
1764434427.2588303,-2.8231,0.763,2.83836,0.986874915,-0.062927085,0.061035
1764434427.2588303,-2.8231,0.763,2.83836,0.986874915,-0.062927085,0.061035
1764434427.2588303,-2.8231,0.763,2.83836,0.986874915,-0.062927085,0.061035
1764434427.2588303,-2.8231,0.763,2.83836,0.986874915,-0.062927085,0.061035
1764434427.2588303,-2.8231,0.763,2.83836,0.986874915,-0.062927085,0.061035
1764434427.2588303,-2.8231,0.763,2.83836,0.986874915,-0.062927085,0.061035
1764434427.2588303,-2.8231,0.763,2.83836,0.986874915,-0.062927085,0.061035
1764434427.2588303,-2.8231,0.763,2.83836,0.986874915,-0.062927085,0.061035
1764434427.2588303,-2.8231,0.763,2.83836,0.986874915,-0.062927085,0.061035
1764434427.2588303,-2.8231,0.763,2.83836,0.986874915,-0.062927085,0.061035
1764434427.2588303,-3.00622,0.36624,3.47928,0.98718009,-0.06396468,0.061096035
1764434427.2588303,-3.00622,0.36624,3.47928,0.98718009,-0.06396468,0.061096035
1764434427.2588303,-3.00622,0.36624,3.47928,0.98718009,-0.06396468,0.061096035
1764434427.2588303,-3.00622,0.36624,3.47928,0.98718009,-0.06396468,0.061096035
1764434427.3027987,-3.00622,0.36624,3.47928,0.98718009,-0.06396468,0.061096035
1764434427.3027987,-3.00622,0.36624,3.47928,0.98718009,-0.06396468,0.061096035
1764434427.3027987,-3.00622,0.36624,3.47928,0.98718009,-0.06396468,0.061096035
1764434427.3027987,-3.00622,0.36624,3.47928,0.98718009,-0.06396468,0.061096035
1764434427.3027987,-3.00622,0.36624,3.47928,0.98718009,-0.06396468,0.061096035
1764434427.3027987,-3.00622,0.36624,3.47928,0.98718009,-0.06396468,0.061096035
1764434427.3027987,-2.76206,0.56462,2.88414,0.98656974,-0.06408675,0.06066879
1764434427.3027987,-2.76206,0.56462,2.88414,0.98656974,-0.06408675,0.06066879
1764434427.3027987,-2.76206,0.56462,2.88414,0.98656974,-0.06408675,0.06066879
1764434427.3027987,-2.76206,0.56462,2.88414,0.98656974,-0.06408675,0.06066879
1764434427.3027987,-2.76206,0.56462,2.88414,0.98656974,-0.06408675,0.06066879
1764434427.3027987,-2.76206,0.56462,2.88414,0.98656974,-0.06408675,0.06066879
1764434427.3038075,-2.76206,0.56462,2.88414,0.98656974,-0.06408675,0.06066879
1764434427.3038075,-2.76206,0.56462,2.88414,0.98656974,-0.06408675,0.06066879
1764434427.3038075,-2.76206,0.56462,2.88414,0.98656974,-0.06408675,0.06066879
1764434427.3038075,-2.76206,0.56462,2.88414,0.98656974,-0.06408675,0.06066879
1764434427.3038075,-3.37246,0.03052,2.63998,0.985654215,-0.06445296,0.060241545
1764434427.3038075,-3.37246,0.03052,2.63998,0.985654215,-0.06445296,0.060241545
1764434427.3038075,-3.37246,0.03052,2.63998,0.985654215,-0.06445296,0.060241545
1764434427.3038075,-3.37246,0.03052,2.63998,0.985654215,-0.06445296,0.060241545
1764434427.3038075,-3.37246,0.03052,2.63998,0.985654215,-0.06445296,0.060241545
1764434427.3038075,-3.37246,0.03052,2.63998,0.985654215,-0.06445296,0.060241545
1764434427.3038075,-3.37246,0.03052,2.63998,0.985654215,-0.06445296,0.060241545
1764434427.3038075,-3.37246,0.03052,2.63998,0.985654215,-0.06445296,0.060241545
1764434427.3471043,-3.37246,0.03052,2.63998,0.985654215,-0.06445296,0.060241545
1764434427.3471043,-3.37246,0.03052,2.63998,0.985654215,-0.06445296,0.060241545
1764434427.3471043,-3.23512,0.09156,2.2127,0.98608146,-0.06518538,0.060241545
1764434427.3471043,-3.23512,0.09156,2.2127,0.98608146,-0.06518538,0.060241545
1764434427.3471043,-3.23512,0.09156,2.2127,0.98608146,-0.06518538,0.060241545
1764434427.3471043,-3.23512,0.09156,2.2127,0.98608146,-0.06518538,0.060241545
1764434427.3471043,-3.23512,0.09156,2.2127,0.98608146,-0.06518538,0.060241545
1764434427.3471043,-3.23512,0.09156,2.2127,0.98608146,-0.06518538,0.060241545
1764434427.3471043,-3.23512,0.09156,2.2127,0.98608146,-0.06518538,0.060241545
1764434427.3471043,-3.23512,0.09156,2.2127,0.98608146,-0.06518538,0.060241545
1764434427.348656,-3.23512,0.09156,2.2127,0.98608146,-0.06518538,0.060241545
1764434427.348656,-3.23512,0.09156,2.2127,0.98608146,-0.06518538,0.060241545
1764434427.348656,-2.99096,0.03052,2.3653,0.98547111,-0.06689436,0.059997405
1764434427.348656,-2.99096,0.03052,2.3653,0.98547111,-0.06689436,0.059997405
1764434427.348656,-2.99096,0.03052,2.3653,0.98547111,-0.06689436,0.059997405
1764434427.348656,-2.99096,0.03052,2.3653,0.98547111,-0.06689436,0.059997405
1764434427.348656,-2.99096,0.03052,2.3653,0.98547111,-0.06689436,0.059997405
1764434427.348656,-2.99096,0.03052,2.3653,0.98547111,-0.06689436,0.059997405
1764434427.348656,-2.99096,0.03052,2.3653,0.98547111,-0.06689436,0.059997405
1764434427.349672,-2.99096,0.03052,2.3653,0.98547111,-0.06689436,0.059997405
1764434427.349672,-2.99096,0.03052,2.3653,0.98547111,-0.06689436,0.059997405
1764434427.349672,-2.99096,0.03052,2.3653,0.98547111,-0.06689436,0.059997405
1764434427.3970792,-1.25132,0.12208,2.70102,0.984433515,-0.06982404,0.061096035
1764434427.3970792,-1.25132,0.12208,2.70102,0.984433515,-0.06982404,0.061096035
1764434427.3970792,-1.25132,0.12208,2.70102,0.984433515,-0.06982404,0.061096035
1764434427.3970792,-1.25132,0.12208,2.70102,0.984433515,-0.06982404,0.061096035
1764434427.3970792,-1.25132,0.12208,2.70102,0.984433515,-0.06982404,0.061096035
1764434427.398079,-1.25132,0.12208,2.70102,0.984433515,-0.06982404,0.061096035
1764434427.398079,-1.25132,0.12208,2.70102,0.984433515,-0.06982404,0.061096035
1764434427.398079,-1.25132,0.12208,2.70102,0.984433515,-0.06982404,0.061096035
1764434427.398079,-1.25132,0.12208,2.70102,0.984433515,-0.06982404,0.061096035
1764434427.398079,-1.25132,0.12208,2.70102,0.984433515,-0.06982404,0.061096035
1764434427.398079,2.30426,-0.97664,3.815,0.98119866,-0.07470684,0.06298812
1764434427.398079,2.30426,-0.97664,3.815,0.98119866,-0.07470684,0.06298812
1764434427.398079,2.30426,-0.97664,3.815,0.98119866,-0.07470684,0.06298812
1764434427.398079,2.30426,-0.97664,3.815,0.98119866,-0.07470684,0.06298812
1764434427.398079,2.30426,-0.97664,3.815,0.98119866,-0.07470684,0.06298812
1764434427.398079,2.30426,-0.97664,3.815,0.98119866,-0.07470684,0.06298812
1764434427.398079,2.30426,-0.97664,3.815,0.98119866,-0.07470684,0.06298812
1764434427.398079,2.30426,-0.97664,3.815,0.98119866,-0.07470684,0.06298812
1764434427.398079,2.30426,-0.97664,3.815,0.98119866,-0.07470684,0.06298812
1764434427.398079,2.30426,-0.97664,3.815,0.98119866,-0.07470684,0.06298812
1764434427.398079,11.12454,-4.70008,4.54748,0.976254825,-0.085998315,0.065734695
1764434427.398079,11.12454,-4.70008,4.54748,0.976254825,-0.085998315,0.065734695
1764434427.4419746,11.12454,-4.70008,4.54748,0.976254825,-0.085998315,0.065734695
1764434427.4419746,11.12454,-4.70008,4.54748,0.976254825,-0.085998315,0.065734695
1764434427.4419746,11.12454,-4.70008,4.54748,0.976254825,-0.085998315,0.065734695
1764434427.4419746,11.12454,-4.70008,4.54748,0.976254825,-0.085998315,0.065734695
1764434427.4419746,11.12454,-4.70008,4.54748,0.976254825,-0.085998315,0.065734695
1764434427.4429922,11.12454,-4.70008,4.54748,0.976254825,-0.085998315,0.065734695
1764434427.4429922,11.12454,-4.70008,4.54748,0.976254825,-0.085998315,0.065734695
1764434427.4429922,11.12454,-4.70008,4.54748,0.976254825,-0.085998315,0.065734695
1764434427.4429922,20.89094,-7.691039999999999,4.74586,0.975400335,-0.09460425,0.06811506
1764434427.4429922,20.89094,-7.691039999999999,4.74586,0.975400335,-0.09460425,0.06811506
1764434427.4429922,20.89094,-7.691039999999999,4.74586,0.975400335,-0.09460425,0.06811506
1764434427.4429922,20.89094,-7.691039999999999,4.74586,0.975400335,-0.09460425,0.06811506
1764434427.4429922,20.89094,-7.691039999999999,4.74586,0.975400335,-0.09460425,0.06811506
1764434427.4429922,20.89094,-7.691039999999999,4.74586,0.975400335,-0.09460425,0.06811506
1764434427.4429922,20.89094,-7.691039999999999,4.74586,0.975400335,-0.09460425,0.06811506
1764434427.4429922,20.89094,-7.691039999999999,4.74586,0.975400335,-0.09460425,0.06811506
1764434427.4429922,20.89094,-7.691039999999999,4.74586,0.975400335,-0.09460425,0.06811506
1764434427.4429922,20.89094,-7.691039999999999,4.74586,0.975400335,-0.09460425,0.06811506
1764434427.4429922,31.8934,-12.10118,5.44782,0.972958935,-0.10107396,0.069030585
1764434427.4429922,31.8934,-12.10118,5.44782,0.972958935,-0.10107396,0.069030585
1764434427.4429922,31.8934,-12.10118,5.44782,0.972958935,-0.10107396,0.069030585
1764434427.4429922,31.8934,-12.10118,5.44782,0.972958935,-0.10107396,0.069030585
1764434427.4429922,31.8934,-12.10118,5.44782,0.972958935,-0.10107396,0.069030585
1764434427.4429922,31.8934,-12.10118,5.44782,0.972958935,-0.10107396,0.069030585
1764434427.487131,31.8934,-12.10118,5.44782,0.972958935,-0.10107396,0.069030585
1764434427.487131,31.8934,-12.10118,5.44782,0.972958935,-0.10107396,0.069030585
1764434427.487131,31.8934,-12.10118,5.44782,0.972958935,-0.10107396,0.069030585
1764434427.487131,31.8934,-12.10118,5.44782,0.972958935,-0.10107396,0.069030585
1764434427.487131,44.04036,-16.709699999999998,6.45498,0.971249955,-0.10693332,0.069030585
1764434427.487131,44.04036,-16.709699999999998,6.45498,0.971249955,-0.10693332,0.069030585
1764434427.487131,44.04036,-16.709699999999998,6.45498,0.971249955,-0.10693332,0.069030585
1764434427.487131,44.04036,-16.709699999999998,6.45498,0.971249955,-0.10693332,0.069030585
1764434427.487131,44.04036,-16.709699999999998,6.45498,0.971249955,-0.10693332,0.069030585
1764434427.487131,44.04036,-16.709699999999998,6.45498,0.971249955,-0.10693332,0.069030585
1764434427.487131,44.04036,-16.709699999999998,6.45498,0.971249955,-0.10693332,0.069030585
1764434427.487131,44.04036,-16.709699999999998,6.45498,0.971249955,-0.10693332,0.069030585
1764434427.487131,44.04036,-16.709699999999998,6.45498,0.971249955,-0.10693332,0.069030585
1764434427.487131,44.04036,-16.709699999999998,6.45498,0.971249955,-0.10693332,0.069030585
1764434427.487131,57.225,-21.364,7.614739999999999,0.969785115,-0.111022665,0.06884748
1764434427.487131,57.225,-21.364,7.614739999999999,0.969785115,-0.111022665,0.06884748
1764434427.487131,57.225,-21.364,7.614739999999999,0.969785115,-0.111022665,0.06884748
1764434427.487131,57.225,-21.364,7.614739999999999,0.969785115,-0.111022665,0.06884748
1764434427.487131,57.225,-21.364,7.614739999999999,0.969785115,-0.111022665,0.06884748
1764434427.487131,57.225,-21.364,7.614739999999999,0.969785115,-0.111022665,0.06884748
1764434427.487131,57.225,-21.364,7.614739999999999,0.969785115,-0.111022665,0.06884748
1764434427.487131,57.225,-21.364,7.614739999999999,0.969785115,-0.111022665,0.06884748
1764434427.487131,57.225,-21.364,7.614739999999999,0.969785115,-0.111022665,0.06884748
1764434427.487131,57.225,-21.364,7.614739999999999,0.969785115,-0.111022665,0.06884748
1764434427.5362687,70.25704,-25.5605,8.91184,0.96947994,-0.11218233,0.066100905
1764434427.5362687,70.25704,-25.5605,8.91184,0.96947994,-0.11218233,0.066100905
1764434427.5362687,70.25704,-25.5605,8.91184,0.96947994,-0.11218233,0.066100905
1764434427.5362687,70.25704,-25.5605,8.91184,0.96947994,-0.11218233,0.066100905
1764434427.5362687,70.25704,-25.5605,8.91184,0.96947994,-0.11218233,0.066100905
1764434427.5362687,70.25704,-25.5605,8.91184,0.96947994,-0.11218233,0.066100905
1764434427.5362687,70.25704,-25.5605,8.91184,0.96947994,-0.11218233,0.066100905
1764434427.537285,70.25704,-25.5605,8.91184,0.96947994,-0.11218233,0.066100905
1764434427.537285,70.25704,-25.5605,8.91184,0.96947994,-0.11218233,0.066100905
1764434427.537285,70.25704,-25.5605,8.91184,0.96947994,-0.11218233,0.066100905
1764434427.537285,80.28286,-28.50568,9.01866,0.973081005,-0.106994355,0.060119475
1764434427.537285,80.28286,-28.50568,9.01866,0.973081005,-0.106994355,0.060119475
1764434427.537285,80.28286,-28.50568,9.01866,0.973081005,-0.106994355,0.060119475
1764434427.537285,80.28286,-28.50568,9.01866,0.973081005,-0.106994355,0.060119475
1764434427.537285,80.28286,-28.50568,9.01866,0.973081005,-0.106994355,0.060119475
1764434427.537285,80.28286,-28.50568,9.01866,0.973081005,-0.106994355,0.060119475
1764434427.537285,80.28286,-28.50568,9.01866,0.973081005,-0.106994355,0.060119475
1764434427.537285,80.28286,-28.50568,9.01866,0.973081005,-0.106994355,0.060119475
1764434427.537285,80.28286,-28.50568,9.01866,0.973081005,-0.106994355,0.060119475
1764434427.537285,80.28286,-28.50568,9.01866,0.973081005,-0.106994355,0.060119475
1764434427.537285,85.92905999999999,-32.5801,8.530339999999999,0.97363032,-0.09582495,0.04943835
1764434427.537285,85.92905999999999,-32.5801,8.530339999999999,0.97363032,-0.09582495,0.04943835
1764434427.537285,85.92905999999999,-32.5801,8.530339999999999,0.97363032,-0.09582495,0.04943835
1764434427.537285,85.92905999999999,-32.5801,8.530339999999999,0.97363032,-0.09582495,0.04943835
1764434427.5814252,85.92905999999999,-32.5801,8.530339999999999,0.97363032,-0.09582495,0.04943835
1764434427.5814252,85.92905999999999,-32.5801,8.530339999999999,0.97363032,-0.09582495,0.04943835
1764434427.5814252,85.92905999999999,-32.5801,8.530339999999999,0.97363032,-0.09582495,0.04943835
1764434427.582435,85.92905999999999,-32.5801,8.530339999999999,0.97363032,-0.09582495,0.04943835
1764434427.582435,85.92905999999999,-32.5801,8.530339999999999,0.97363032,-0.09582495,0.04943835
1764434427.582435,85.92905999999999,-32.5801,8.530339999999999,0.97363032,-0.09582495,0.04943835
1764434427.582435,88.17228,-33.81616,8.37774,0.977719665,-0.084289335,0.04125966
1764434427.582435,88.17228,-33.81616,8.37774,0.977719665,-0.084289335,0.04125966
1764434427.583972,88.17228,-33.81616,8.37774,0.977719665,-0.084289335,0.04125966
1764434427.583972,88.17228,-33.81616,8.37774,0.977719665,-0.084289335,0.04125966
1764434427.583972,88.17228,-33.81616,8.37774,0.977719665,-0.084289335,0.04125966
1764434427.583972,88.17228,-33.81616,8.37774,0.977719665,-0.084289335,0.04125966
1764434427.583972,88.17228,-33.81616,8.37774,0.977719665,-0.084289335,0.04125966
1764434427.583972,88.17228,-33.81616,8.37774,0.977719665,-0.084289335,0.04125966
1764434427.583972,88.17228,-33.81616,8.37774,0.977719665,-0.084289335,0.04125966
1764434427.583972,88.17228,-33.81616,8.37774,0.977719665,-0.084289335,0.04125966
1764434427.583972,87.50084,-33.90772,8.179359999999999,0.98254143,-0.074157525,0.03369132
1764434427.583972,87.50084,-33.90772,8.179359999999999,0.98254143,-0.074157525,0.03369132
1764434427.583972,87.50084,-33.90772,8.179359999999999,0.98254143,-0.074157525,0.03369132
1764434427.583972,87.50084,-33.90772,8.179359999999999,0.98254143,-0.074157525,0.03369132
1764434427.583972,87.50084,-33.90772,8.179359999999999,0.98254143,-0.074157525,0.03369132
1764434427.583972,87.50084,-33.90772,8.179359999999999,0.98254143,-0.074157525,0.03369132
1764434427.6287272,87.50084,-33.90772,8.179359999999999,0.98254143,-0.074157525,0.03369132
1764434427.6287272,87.50084,-33.90772,8.179359999999999,0.98254143,-0.074157525,0.03369132
1764434427.6287272,87.50084,-33.90772,8.179359999999999,0.98254143,-0.074157525,0.03369132
1764434427.6287272,87.50084,-33.90772,8.179359999999999,0.98254143,-0.074157525,0.03369132
1764434427.6287272,84.79982,-32.29016,8.37774,0.98815665,-0.063903645,0.025939875
1764434427.6287272,84.79982,-32.29016,8.37774,0.98815665,-0.063903645,0.025939875
1764434427.6287272,84.79982,-32.29016,8.37774,0.98815665,-0.063903645,0.025939875
1764434427.6287272,84.79982,-32.29016,8.37774,0.98815665,-0.063903645,0.025939875
1764434427.6297226,84.79982,-32.29016,8.37774,0.98815665,-0.063903645,0.025939875
1764434427.6297226,84.79982,-32.29016,8.37774,0.98815665,-0.063903645,0.025939875
1764434427.6297226,84.79982,-32.29016,8.37774,0.98815665,-0.063903645,0.025939875
1764434427.6297226,84.79982,-32.29016,8.37774,0.98815665,-0.063903645,0.025939875
1764434427.6297226,84.79982,-32.29016,8.37774,0.98815665,-0.063903645,0.025939875
1764434427.6297226,84.79982,-32.29016,8.37774,0.98815665,-0.063903645,0.025939875
1764434427.6297226,79.13835999999999,-30.55052,7.782599999999999,0.992245995,-0.055236675,0.01892085
1764434427.6297226,79.13835999999999,-30.55052,7.782599999999999,0.992245995,-0.055236675,0.01892085
1764434427.6297226,79.13835999999999,-30.55052,7.782599999999999,0.992245995,-0.055236675,0.01892085
1764434427.6302314,79.13835999999999,-30.55052,7.782599999999999,0.992245995,-0.055236675,0.01892085
1764434427.6302314,79.13835999999999,-30.55052,7.782599999999999,0.992245995,-0.055236675,0.01892085
1764434427.6302314,79.13835999999999,-30.55052,7.782599999999999,0.992245995,-0.055236675,0.01892085
1764434427.6302314,79.13835999999999,-30.55052,7.782599999999999,0.992245995,-0.055236675,0.01892085
1764434427.6302314,79.13835999999999,-30.55052,7.782599999999999,0.992245995,-0.055236675,0.01892085
1764434427.6747956,79.13835999999999,-30.55052,7.782599999999999,0.992245995,-0.055236675,0.01892085
1764434427.675792,79.13835999999999,-30.55052,7.782599999999999,0.992245995,-0.055236675,0.01892085
1764434427.675792,71.85934,-28.65828,8.316699999999999,0.994809465,-0.046935915,0.01049802
1764434427.675792,71.85934,-28.65828,8.316699999999999,0.994809465,-0.046935915,0.01049802
1764434427.676798,71.85934,-28.65828,8.316699999999999,0.994809465,-0.046935915,0.01049802
1764434427.676798,71.85934,-28.65828,8.316699999999999,0.994809465,-0.046935915,0.01049802
1764434427.676798,71.85934,-28.65828,8.316699999999999,0.994809465,-0.046935915,0.01049802
1764434427.676798,71.85934,-28.65828,8.316699999999999,0.994809465,-0.046935915,0.01049802
1764434427.6777923,71.85934,-28.65828,8.316699999999999,0.994809465,-0.046935915,0.01049802
1764434427.6777923,71.85934,-28.65828,8.316699999999999,0.994809465,-0.046935915,0.01049802
1764434427.6777923,71.85934,-28.65828,8.316699999999999,0.994809465,-0.046935915,0.01049802
1764434427.6777923,71.85934,-28.65828,8.316699999999999,0.994809465,-0.046935915,0.01049802
1764434427.6777923,63.75628,-26.75078,8.59138,0.997372935,-0.0402831,0.004211415
1764434427.6777923,63.75628,-26.75078,8.59138,0.997372935,-0.0402831,0.004211415
1764434427.6777923,63.75628,-26.75078,8.59138,0.997372935,-0.0402831,0.004211415
1764434427.6777923,63.75628,-26.75078,8.59138,0.997372935,-0.0402831,0.004211415
1764434427.6777923,63.75628,-26.75078,8.59138,0.997372935,-0.0402831,0.004211415
1764434427.6788032,63.75628,-26.75078,8.59138,0.997372935,-0.0402831,0.004211415
1764434427.6788032,63.75628,-26.75078,8.59138,0.997372935,-0.0402831,0.004211415
1764434427.6788032,63.75628,-26.75078,8.59138,0.997372935,-0.0402831,0.004211415
1764434427.6788032,63.75628,-26.75078,8.59138,0.997372935,-0.0402831,0.004211415
1764434427.6788032,63.75628,-26.75078,8.59138,0.997372935,-0.0402831,0.004211415
1764434427.6788032,54.6308,-24.20236,8.75924,0.99926502,-0.03723135,-0.000671385
1764434427.6788032,54.6308,-24.20236,8.75924,0.99926502,-0.03723135,-0.000671385
1764434427.7198932,54.6308,-24.20236,8.75924,0.99926502,-0.03723135,-0.000671385
1764434427.7198932,54.6308,-24.20236,8.75924,0.99926502,-0.03723135,-0.000671385
1764434427.7198932,54.6308,-24.20236,8.75924,0.99926502,-0.03723135,-0.000671385
1764434427.7198932,54.6308,-24.20236,8.75924,0.99926502,-0.03723135,-0.000671385
1764434427.7198932,54.6308,-24.20236,8.75924,0.99926502,-0.03723135,-0.000671385
1764434427.7198932,54.6308,-24.20236,8.75924,0.99926502,-0.03723135,-0.000671385
1764434427.7198932,54.6308,-24.20236,8.75924,0.99926502,-0.03723135,-0.000671385
1764434427.7198932,54.6308,-24.20236,8.75924,0.99926502,-0.03723135,-0.000671385
1764434427.7198932,46.40566,-22.02018,9.78166,0.9997533,-0.036682035,-0.004211415
1764434427.7198932,46.40566,-22.02018,9.78166,0.9997533,-0.036682035,-0.004211415
1764434427.7198932,46.40566,-22.02018,9.78166,0.9997533,-0.036682035,-0.004211415
1764434427.7198932,46.40566,-22.02018,9.78166,0.9997533,-0.036682035,-0.004211415
1764434427.722792,46.40566,-22.02018,9.78166,0.9997533,-0.036682035,-0.004211415
1764434427.722792,46.40566,-22.02018,9.78166,0.9997533,-0.036682035,-0.004211415
1764434427.722792,46.40566,-22.02018,9.78166,0.9997533,-0.036682035,-0.004211415
1764434427.722792,46.40566,-22.02018,9.78166,0.9997533,-0.036682035,-0.004211415
1764434427.722792,46.40566,-22.02018,9.78166,0.9997533,-0.036682035,-0.004211415
1764434427.722792,46.40566,-22.02018,9.78166,0.9997533,-0.036682035,-0.004211415
1764434427.722792,38.69936,-19.3802,11.12454,1.000424685,-0.039245505,-0.00573729
1764434427.722792,38.69936,-19.3802,11.12454,1.000424685,-0.039245505,-0.00573729
1764434427.722792,38.69936,-19.3802,11.12454,1.000424685,-0.039245505,-0.00573729
1764434427.722792,38.69936,-19.3802,11.12454,1.000424685,-0.039245505,-0.00573729
1764434427.722792,38.69936,-19.3802,11.12454,1.000424685,-0.039245505,-0.00573729
1764434427.722792,38.69936,-19.3802,11.12454,1.000424685,-0.039245505,-0.00573729
1764434427.7676609,38.69936,-19.3802,11.12454,1.000424685,-0.039245505,-0.00573729
1764434427.7676609,38.69936,-19.3802,11.12454,1.000424685,-0.039245505,-0.00573729
1764434427.7676609,38.69936,-19.3802,11.12454,1.000424685,-0.039245505,-0.00573729
1764434427.7676609,38.69936,-19.3802,11.12454,1.000424685,-0.039245505,-0.00573729
1764434427.7676609,30.96254,-17.3201,11.24662,1.00024158,-0.04040517,-0.008483865
1764434427.7676609,30.96254,-17.3201,11.24662,1.00024158,-0.04040517,-0.008483865
1764434427.7676609,30.96254,-17.3201,11.24662,1.00024158,-0.04040517,-0.008483865
1764434427.7676609,30.96254,-17.3201,11.24662,1.00024158,-0.04040517,-0.008483865
1764434427.7676609,30.96254,-17.3201,11.24662,1.00024158,-0.04040517,-0.008483865
1764434427.7676609,30.96254,-17.3201,11.24662,1.00024158,-0.04040517,-0.008483865
1764434427.7676609,30.96254,-17.3201,11.24662,1.00024158,-0.04040517,-0.008483865
1764434427.7676609,30.96254,-17.3201,11.24662,1.00024158,-0.04040517,-0.008483865
1764434427.7676609,30.96254,-17.3201,11.24662,1.00024158,-0.04040517,-0.008483865
1764434427.7676609,30.96254,-17.3201,11.24662,1.00024158,-0.04040517,-0.008483865
1764434427.7676609,23.25624,-15.62624,10.92616,1.00072986,-0.04187001,-0.0109863
1764434427.7676609,23.25624,-15.62624,10.92616,1.00072986,-0.04187001,-0.0109863
1764434427.7676609,23.25624,-15.62624,10.92616,1.00072986,-0.04187001,-0.0109863
1764434427.7676609,23.25624,-15.62624,10.92616,1.00072986,-0.04187001,-0.0109863
1764434427.7676609,23.25624,-15.62624,10.92616,1.00072986,-0.04187001,-0.0109863
1764434427.7676609,23.25624,-15.62624,10.92616,1.00072986,-0.04187001,-0.0109863
1764434427.7676609,23.25624,-15.62624,10.92616,1.00072986,-0.04187001,-0.0109863
1764434427.7676609,23.25624,-15.62624,10.92616,1.00072986,-0.04187001,-0.0109863
1764434427.8119838,23.25624,-15.62624,10.92616,1.00072986,-0.04187001,-0.0109863
1764434427.8119838,23.25624,-15.62624,10.92616,1.00072986,-0.04187001,-0.0109863
1764434427.8119838,16.46554,-13.74926,10.36154,1.00072986,-0.04406727,-0.012756315
1764434427.8119838,16.46554,-13.74926,10.36154,1.00072986,-0.04406727,-0.012756315
1764434427.8136044,16.46554,-13.74926,10.36154,1.00072986,-0.04406727,-0.012756315
1764434427.8136044,16.46554,-13.74926,10.36154,1.00072986,-0.04406727,-0.012756315
1764434427.8136044,16.46554,-13.74926,10.36154,1.00072986,-0.04406727,-0.012756315
