Timestamp,GyroX,GyroY,GyroZ,AccX,AccY,AccZ
1764434892.983953,-5.27996,2.22796,-0.59514,-0.6952496850000001,0.703550445,0.0439452
1764434892.983953,-5.27996,2.22796,-0.59514,-0.6952496850000001,0.703550445,0.0439452
1764434892.983953,-5.27996,2.22796,-0.59514,-0.6952496850000001,0.703550445,0.0439452
1764434892.9849489,-5.27996,2.22796,-0.59514,-0.6952496850000001,0.703550445,0.0439452
1764434892.9849489,-5.27996,2.22796,-0.59514,-0.6952496850000001,0.703550445,0.0439452
1764434892.9849489,-5.27996,2.22796,-0.59514,-0.6952496850000001,0.703550445,0.0439452
1764434892.9849489,-5.27996,2.22796,-0.59514,-0.6952496850000001,0.703550445,0.0439452
1764434892.9849489,-5.27996,2.22796,-0.59514,-0.6952496850000001,0.703550445,0.0439452
1764434892.9849489,-4.83742,2.07536,-0.3204599999999999,-0.6931744950000001,0.703306305,0.04235829
1764434892.9849489,-4.83742,2.07536,-0.3204599999999999,-0.6931744950000001,0.703306305,0.04235829
1764434892.9849489,-4.83742,2.07536,-0.3204599999999999,-0.6931744950000001,0.703306305,0.04235829
1764434892.9849489,-4.83742,2.07536,-0.3204599999999999,-0.6931744950000001,0.703306305,0.04235829
1764434892.9849489,-4.83742,2.07536,-0.3204599999999999,-0.6931744950000001,0.703306305,0.04235829
1764434892.9849489,-4.83742,2.07536,-0.3204599999999999,-0.6931744950000001,0.703306305,0.04235829
1764434892.9849489,-4.83742,2.07536,-0.3204599999999999,-0.6931744950000001,0.703306305,0.04235829
1764434892.9849489,-4.83742,2.07536,-0.3204599999999999,-0.6931744950000001,0.703306305,0.04235829
1764434892.9849489,-4.83742,2.07536,-0.3204599999999999,-0.6931744950000001,0.703306305,0.04235829
1764434892.9849489,-4.83742,2.07536,-0.3204599999999999,-0.6931744950000001,0.703306305,0.04235829
1764434892.9849489,-4.47118,1.93802,0.9003399999999999,-0.69274725,0.70043766,0.041442765
1764434892.9849489,-4.47118,1.93802,0.9003399999999999,-0.69274725,0.70043766,0.041442765
1764434892.9849489,-4.47118,1.93802,0.9003399999999999,-0.69274725,0.70043766,0.041442765
1764434892.9849489,-4.47118,1.93802,0.9003399999999999,-0.69274725,0.70043766,0.041442765
1764434892.9849489,-4.47118,1.93802,0.9003399999999999,-0.69274725,0.70043766,0.041442765
1764434892.9849489,-4.47118,1.93802,0.9003399999999999,-0.69274725,0.70043766,0.041442765
1764434893.029384,-4.47118,1.93802,0.9003399999999999,-0.69274725,0.70043766,0.041442765
1764434893.029384,-4.47118,1.93802,0.9003399999999999,-0.69274725,0.70043766,0.041442765
1764434893.029384,-4.47118,1.93802,0.9003399999999999,-0.69274725,0.70043766,0.041442765
1764434893.029384,-4.47118,1.93802,0.9003399999999999,-0.69274725,0.70043766,0.041442765
1764434893.029384,-4.33384,1.8312,0.74774,-0.694151055,0.69836247,0.04052724
1764434893.029384,-4.33384,1.8312,0.74774,-0.694151055,0.69836247,0.04052724
1764434893.029384,-4.33384,1.8312,0.74774,-0.694151055,0.69836247,0.04052724
1764434893.029384,-4.33384,1.8312,0.74774,-0.694151055,0.69836247,0.04052724
1764434893.029384,-4.33384,1.8312,0.74774,-0.694151055,0.69836247,0.04052724
1764434893.029384,-4.33384,1.8312,0.74774,-0.694151055,0.69836247,0.04052724
1764434893.029384,-4.33384,1.8312,0.74774,-0.694151055,0.69836247,0.04052724
1764434893.029384,-4.33384,1.8312,0.74774,-0.694151055,0.69836247,0.04052724
1764434893.029384,-4.33384,1.8312,0.74774,-0.694151055,0.69836247,0.04052724
1764434893.029384,-4.33384,1.8312,0.74774,-0.694151055,0.69836247,0.04052724
1764434893.029384,-4.07442,1.31236,0.96138,-0.695982105,0.696592455,0.040832415
1764434893.029384,-4.07442,1.31236,0.96138,-0.695982105,0.696592455,0.040832415
1764434893.029384,-4.07442,1.31236,0.96138,-0.695982105,0.696592455,0.040832415
1764434893.029384,-4.07442,1.31236,0.96138,-0.695982105,0.696592455,0.040832415
1764434893.029384,-4.07442,1.31236,0.96138,-0.695982105,0.696592455,0.040832415
1764434893.029384,-4.07442,1.31236,0.96138,-0.695982105,0.696592455,0.040832415
1764434893.029384,-4.07442,1.31236,0.96138,-0.695982105,0.696592455,0.040832415
1764434893.029384,-4.07442,1.31236,0.96138,-0.695982105,0.696592455,0.040832415
1764434893.0329485,-4.07442,1.31236,0.96138,-0.695982105,0.696592455,0.040832415
1764434893.0329485,-4.07442,1.31236,0.96138,-0.695982105,0.696592455,0.040832415
1764434893.075765,-2.02958,0.7019599999999999,0.82404,-0.697569015,0.696470385,0.04199208
1764434893.075765,-2.02958,0.7019599999999999,0.82404,-0.697569015,0.696470385,0.04199208
1764434893.075765,-2.02958,0.7019599999999999,0.82404,-0.697569015,0.696470385,0.04199208
1764434893.0767848,-2.02958,0.7019599999999999,0.82404,-0.697569015,0.696470385,0.04199208
1764434893.0767848,-2.02958,0.7019599999999999,0.82404,-0.697569015,0.696470385,0.04199208
1764434893.0767848,-2.02958,0.7019599999999999,0.82404,-0.697569015,0.696470385,0.04199208
1764434893.0767848,-2.02958,0.7019599999999999,0.82404,-0.697569015,0.696470385,0.04199208
1764434893.0767848,-2.02958,0.7019599999999999,0.82404,-0.697569015,0.696470385,0.04199208
1764434893.0767848,-2.02958,0.7019599999999999,0.82404,-0.697569015,0.696470385,0.04199208
1764434893.0767848,-2.02958,0.7019599999999999,0.82404,-0.697569015,0.696470385,0.04199208
1764434893.0767848,-1.84646,0.1678599999999999,1.2971,-0.69689763,0.699766275,0.041931045
1764434893.0767848,-1.84646,0.1678599999999999,1.2971,-0.69689763,0.699766275,0.041931045
1764434893.0767848,-1.84646,0.1678599999999999,1.2971,-0.69689763,0.699766275,0.041931045
1764434893.0767848,-1.84646,0.1678599999999999,1.2971,-0.69689763,0.699766275,0.041931045
1764434893.0767848,-1.84646,0.1678599999999999,1.2971,-0.69689763,0.699766275,0.041931045
1764434893.0767848,-1.84646,0.1678599999999999,1.2971,-0.69689763,0.699766275,0.041931045
1764434893.0767848,-1.84646,0.1678599999999999,1.2971,-0.69689763,0.699766275,0.041931045
1764434893.0767848,-1.84646,0.1678599999999999,1.2971,-0.69689763,0.699766275,0.041931045
1764434893.0788236,-1.84646,0.1678599999999999,1.2971,-0.69689763,0.699766275,0.041931045
1764434893.0788236,-1.84646,0.1678599999999999,1.2971,-0.69689763,0.699766275,0.041931045
1764434893.0788236,-2.99096,1.12924,1.19028,-0.69518865,0.701719395,0.041442765
1764434893.0788236,-2.99096,1.12924,1.19028,-0.69518865,0.701719395,0.041442765
1764434893.0788236,-2.99096,1.12924,1.19028,-0.69518865,0.701719395,0.041442765
1764434893.0788236,-2.99096,1.12924,1.19028,-0.69518865,0.701719395,0.041442765
1764434893.1216362,-2.99096,1.12924,1.19028,-0.69518865,0.701719395,0.041442765
1764434893.1216362,-2.99096,1.12924,1.19028,-0.69518865,0.701719395,0.041442765
1764434893.1216362,-2.99096,1.12924,1.19028,-0.69518865,0.701719395,0.041442765
1764434893.1216362,-2.99096,1.12924,1.19028,-0.69518865,0.701719395,0.041442765
1764434893.1216362,-2.99096,1.12924,1.19028,-0.69518865,0.701719395,0.041442765
1764434893.1216362,-2.99096,1.12924,1.19028,-0.69518865,0.701719395,0.041442765
1764434893.1216362,-3.052,1.61756,0.5341,-0.6945783,0.701597325,0.041931045
1764434893.1216362,-3.052,1.61756,0.5341,-0.6945783,0.701597325,0.041931045
1764434893.1216362,-3.052,1.61756,0.5341,-0.6945783,0.701597325,0.041931045
1764434893.1216362,-3.052,1.61756,0.5341,-0.6945783,0.701597325,0.041931045
1764434893.1216362,-3.052,1.61756,0.5341,-0.6945783,0.701597325,0.041931045
1764434893.1216362,-3.052,1.61756,0.5341,-0.6945783,0.701597325,0.041931045
1764434893.1216362,-3.052,1.61756,0.5341,-0.6945783,0.701597325,0.041931045
1764434893.1216362,-3.052,1.61756,0.5341,-0.6945783,0.701597325,0.041931045
1764434893.1216362,-3.052,1.61756,0.5341,-0.6945783,0.701597325,0.041931045
1764434893.1216362,-3.052,1.61756,0.5341,-0.6945783,0.701597325,0.041931045
1764434893.1216362,-3.25038,1.25132,0.50358,-0.69433416,0.70385562,0.042907605
1764434893.1216362,-3.25038,1.25132,0.50358,-0.69433416,0.70385562,0.042907605
1764434893.1216362,-3.25038,1.25132,0.50358,-0.69433416,0.70385562,0.042907605
1764434893.1216362,-3.25038,1.25132,0.50358,-0.69433416,0.70385562,0.042907605
1764434893.1216362,-3.25038,1.25132,0.50358,-0.69433416,0.70385562,0.042907605
1764434893.1216362,-3.25038,1.25132,0.50358,-0.69433416,0.70385562,0.042907605
1764434893.1692562,-3.25038,1.25132,0.50358,-0.69433416,0.70385562,0.042907605
1764434893.1692562,-3.25038,1.25132,0.50358,-0.69433416,0.70385562,0.042907605
1764434893.1692562,-3.25038,1.25132,0.50358,-0.69433416,0.70385562,0.042907605
1764434893.1692562,-3.25038,1.25132,0.50358,-0.69433416,0.70385562,0.042907605
1764434893.1692562,-4.4254,2.18218,0.71722,-0.69225897,0.7047101100000001,0.04113759
1764434893.1692562,-4.4254,2.18218,0.71722,-0.69225897,0.7047101100000001,0.04113759
1764434893.1692562,-4.4254,2.18218,0.71722,-0.69225897,0.7047101100000001,0.04113759
1764434893.1692562,-4.4254,2.18218,0.71722,-0.69225897,0.7047101100000001,0.04113759
1764434893.1692562,-4.4254,2.18218,0.71722,-0.69225897,0.7047101100000001,0.04113759
1764434893.1692562,-4.4254,2.18218,0.71722,-0.69225897,0.7047101100000001,0.04113759
1764434893.1692562,-4.4254,2.18218,0.71722,-0.69225897,0.7047101100000001,0.04113759
1764434893.1692562,-4.4254,2.18218,0.71722,-0.69225897,0.7047101100000001,0.04113759
1764434893.1708808,-4.4254,2.18218,0.71722,-0.69225897,0.7047101100000001,0.04113759
1764434893.1708808,-4.4254,2.18218,0.71722,-0.69225897,0.7047101100000001,0.04113759
1764434893.1708808,-4.86794,1.81594,0.74774,-0.693418635,0.703916655,0.04174794
1764434893.1708808,-4.86794,1.81594,0.74774,-0.693418635,0.703916655,0.04174794
1764434893.1708808,-4.86794,1.81594,0.74774,-0.693418635,0.703916655,0.04174794
1764434893.1708808,-4.86794,1.81594,0.74774,-0.693418635,0.703916655,0.04174794
1764434893.1708808,-4.86794,1.81594,0.74774,-0.693418635,0.703916655,0.04174794
1764434893.1708808,-4.86794,1.81594,0.74774,-0.693418635,0.703916655,0.04174794
1764434893.1708808,-4.86794,1.81594,0.74774,-0.693418635,0.703916655,0.04174794
1764434893.1708808,-4.86794,1.81594,0.74774,-0.693418635,0.703916655,0.04174794
1764434893.1708808,-4.86794,1.81594,0.74774,-0.693418635,0.703916655,0.04174794
1764434893.1708808,-4.86794,1.81594,0.74774,-0.693418635,0.703916655,0.04174794
1764434893.1708808,-5.78354,1.70912,0.3204599999999999,-0.693418635,0.702329745,0.04199208
1764434893.1708808,-5.78354,1.70912,0.3204599999999999,-0.693418635,0.702329745,0.04199208
1764434893.2190444,-5.78354,1.70912,0.3204599999999999,-0.693418635,0.702329745,0.04199208
1764434893.2190444,-5.78354,1.70912,0.3204599999999999,-0.693418635,0.702329745,0.04199208
1764434893.2190444,-5.78354,1.70912,0.3204599999999999,-0.693418635,0.702329745,0.04199208
1764434893.2190444,-5.78354,1.70912,0.3204599999999999,-0.693418635,0.702329745,0.04199208
1764434893.2190444,-5.78354,1.70912,0.3204599999999999,-0.693418635,0.702329745,0.04199208
1764434893.2190444,-5.78354,1.70912,0.3204599999999999,-0.693418635,0.702329745,0.04199208
1764434893.2190444,-5.78354,1.70912,0.3204599999999999,-0.693418635,0.702329745,0.04199208
1764434893.2190444,-5.78354,1.70912,0.3204599999999999,-0.693418635,0.702329745,0.04199208
1764434893.2190444,-4.76112,1.8312,-0.09156,-0.6942120900000001,0.70007145,0.041686905
1764434893.2190444,-4.76112,1.8312,-0.09156,-0.6942120900000001,0.70007145,0.041686905
1764434893.2190444,-4.76112,1.8312,-0.09156,-0.6942120900000001,0.70007145,0.041686905
1764434893.2190444,-4.76112,1.8312,-0.09156,-0.6942120900000001,0.70007145,0.041686905
1764434893.2190444,-4.76112,1.8312,-0.09156,-0.6942120900000001,0.70007145,0.041686905
1764434893.2190444,-4.76112,1.8312,-0.09156,-0.6942120900000001,0.70007145,0.041686905
1764434893.2190444,-4.76112,1.8312,-0.09156,-0.6942120900000001,0.70007145,0.041686905
1764434893.2190444,-4.76112,1.8312,-0.09156,-0.6942120900000001,0.70007145,0.041686905
1764434893.2190444,-4.76112,1.8312,-0.09156,-0.6942120900000001,0.70007145,0.041686905
1764434893.2190444,-4.76112,1.8312,-0.09156,-0.6942120900000001,0.70007145,0.041686905
1764434893.2190444,-3.052,1.11398,0.5341,-0.695737965,0.69982731,0.04187001
1764434893.2205656,-3.052,1.11398,0.5341,-0.695737965,0.69982731,0.04187001
1764434893.2205656,-3.052,1.11398,0.5341,-0.695737965,0.69982731,0.04187001
1764434893.2205656,-3.052,1.11398,0.5341,-0.695737965,0.69982731,0.04187001
1764434893.2209797,-3.052,1.11398,0.5341,-0.695737965,0.69982731,0.04187001
1764434893.2209797,-3.052,1.11398,0.5341,-0.695737965,0.69982731,0.04187001
1764434893.2674804,-3.052,1.11398,0.5341,-0.695737965,0.69982731,0.04187001
1764434893.2674804,-3.052,1.11398,0.5341,-0.695737965,0.69982731,0.04187001
1764434893.2674804,-3.052,1.11398,0.5341,-0.695737965,0.69982731,0.04187001
1764434893.2674804,-3.052,1.11398,0.5341,-0.695737965,0.69982731,0.04187001
1764434893.2674804,-2.22796,0.96138,1.05294,-0.69518865,0.700620765,0.041442765
1764434893.2674804,-2.22796,0.96138,1.05294,-0.69518865,0.700620765,0.041442765
1764434893.2674804,-2.22796,0.96138,1.05294,-0.69518865,0.700620765,0.041442765
1764434893.2674804,-2.22796,0.96138,1.05294,-0.69518865,0.700620765,0.041442765
1764434893.2674804,-2.22796,0.96138,1.05294,-0.69518865,0.700620765,0.041442765
1764434893.2674804,-2.22796,0.96138,1.05294,-0.69518865,0.700620765,0.041442765
1764434893.2674804,-2.22796,0.96138,1.05294,-0.69518865,0.700620765,0.041442765
1764434893.2674804,-2.22796,0.96138,1.05294,-0.69518865,0.700620765,0.041442765
1764434893.2674804,-2.22796,0.96138,1.05294,-0.69518865,0.700620765,0.041442765
1764434893.2674804,-2.22796,0.96138,1.05294,-0.69518865,0.700620765,0.041442765
1764434893.2674804,-3.63188,1.8312,1.41918,-0.69409002,0.70300113,0.040099995
1764434893.2674804,-3.63188,1.8312,1.41918,-0.69409002,0.70300113,0.040099995
1764434893.2674804,-3.63188,1.8312,1.41918,-0.69409002,0.70300113,0.040099995
1764434893.2674804,-3.63188,1.8312,1.41918,-0.69409002,0.70300113,0.040099995
1764434893.2674804,-3.63188,1.8312,1.41918,-0.69409002,0.70300113,0.040099995
1764434893.2674804,-3.63188,1.8312,1.41918,-0.69409002,0.70300113,0.040099995
1764434893.2674804,-3.63188,1.8312,1.41918,-0.69409002,0.70300113,0.040099995
1764434893.2674804,-3.63188,1.8312,1.41918,-0.69409002,0.70300113,0.040099995
1764434893.3138192,-3.63188,1.8312,1.41918,-0.69409002,0.70300113,0.040099995
1764434893.3138192,-3.63188,1.8312,1.41918,-0.69409002,0.70300113,0.040099995
1764434893.3138192,-4.1202,1.26658,0.3815,-0.69433416,0.70263492,0.041076555
1764434893.3138192,-4.1202,1.26658,0.3815,-0.69433416,0.70263492,0.041076555
1764434893.3138192,-4.1202,1.26658,0.3815,-0.69433416,0.70263492,0.041076555
1764434893.3138192,-4.1202,1.26658,0.3815,-0.69433416,0.70263492,0.041076555
1764434893.3138192,-4.1202,1.26658,0.3815,-0.69433416,0.70263492,0.041076555
1764434893.3138192,-4.1202,1.26658,0.3815,-0.69433416,0.70263492,0.041076555
1764434893.3138192,-4.1202,1.26658,0.3815,-0.69433416,0.70263492,0.041076555
1764434893.3138192,-4.1202,1.26658,0.3815,-0.69433416,0.70263492,0.041076555
1764434893.3138192,-4.1202,1.26658,0.3815,-0.69433416,0.70263492,0.041076555
1764434893.3138192,-4.1202,1.26658,0.3815,-0.69433416,0.70263492,0.041076555
1764434893.3138192,-3.31142,1.57178,0.09156,-0.69409002,0.70129215,0.04162587
1764434893.3138192,-3.31142,1.57178,0.09156,-0.69409002,0.70129215,0.04162587
1764434893.3138192,-3.31142,1.57178,0.09156,-0.69409002,0.70129215,0.04162587
1764434893.3138192,-3.31142,1.57178,0.09156,-0.69409002,0.70129215,0.04162587
1764434893.3138192,-3.31142,1.57178,0.09156,-0.69409002,0.70129215,0.04162587
1764434893.3138192,-3.31142,1.57178,0.09156,-0.69409002,0.70129215,0.04162587
1764434893.3138192,-3.31142,1.57178,0.09156,-0.69409002,0.70129215,0.04162587
1764434893.3138192,-3.31142,1.57178,0.09156,-0.69409002,0.70129215,0.04162587
1764434893.3138192,-3.31142,1.57178,0.09156,-0.69409002,0.70129215,0.04162587
1764434893.3138192,-3.31142,1.57178,0.09156,-0.69409002,0.70129215,0.04162587
1764434893.3138192,-2.5179,2.41108,0.71722,-0.69274725,0.70165836,0.040832415
1764434893.3138192,-2.5179,2.41108,0.71722,-0.69274725,0.70165836,0.040832415
1764434893.357568,-2.5179,2.41108,0.71722,-0.69274725,0.70165836,0.040832415
1764434893.357568,-2.5179,2.41108,0.71722,-0.69274725,0.70165836,0.040832415
1764434893.357568,-2.5179,2.41108,0.71722,-0.69274725,0.70165836,0.040832415
1764434893.357568,-2.5179,2.41108,0.71722,-0.69274725,0.70165836,0.040832415
1764434893.357568,-2.5179,2.41108,0.71722,-0.69274725,0.70165836,0.040832415
1764434893.357568,-2.5179,2.41108,0.71722,-0.69274725,0.70165836,0.040832415
1764434893.357568,-2.5179,2.41108,0.71722,-0.69274725,0.70165836,0.040832415
1764434893.357568,-2.5179,2.41108,0.71722,-0.69274725,0.70165836,0.040832415
1764434893.357568,-2.99096,2.19744,0.19838,-0.694395195,0.703062165,0.04052724
1764434893.357568,-2.99096,2.19744,0.19838,-0.694395195,0.703062165,0.04052724
1764434893.357568,-2.99096,2.19744,0.19838,-0.694395195,0.703062165,0.04052724
1764434893.357568,-2.99096,2.19744,0.19838,-0.694395195,0.703062165,0.04052724
1764434893.357568,-2.99096,2.19744,0.19838,-0.694395195,0.703062165,0.04052724
1764434893.357568,-2.99096,2.19744,0.19838,-0.694395195,0.703062165,0.04052724
1764434893.357568,-2.99096,2.19744,0.19838,-0.694395195,0.703062165,0.04052724
1764434893.358571,-2.99096,2.19744,0.19838,-0.694395195,0.703062165,0.04052724
1764434893.358571,-2.99096,2.19744,0.19838,-0.694395195,0.703062165,0.04052724
1764434893.358571,-2.99096,2.19744,0.19838,-0.694395195,0.703062165,0.04052724
1764434893.358571,-5.73776,1.25132,-0.96138,-0.69653142,0.706602195,0.04077138
1764434893.358571,-5.73776,1.25132,-0.96138,-0.69653142,0.706602195,0.04077138
1764434893.3590832,-5.73776,1.25132,-0.96138,-0.69653142,0.706602195,0.04077138
1764434893.3590832,-5.73776,1.25132,-0.96138,-0.69653142,0.706602195,0.04077138
1764434893.4054835,-5.73776,1.25132,-0.96138,-0.69653142,0.706602195,0.04077138
1764434893.4054835,-5.73776,1.25132,-0.96138,-0.69653142,0.706602195,0.04077138
1764434893.4054835,-5.73776,1.25132,-0.96138,-0.69653142,0.706602195,0.04077138
1764434893.4054835,-5.73776,1.25132,-0.96138,-0.69653142,0.706602195,0.04077138
1764434893.4054835,-5.73776,1.25132,-0.96138,-0.69653142,0.706602195,0.04077138
1764434893.4054835,-5.73776,1.25132,-0.96138,-0.69653142,0.706602195,0.04077138
1764434893.4054835,-6.45498,0.21364,-0.73248,-0.695982105,0.70641909,0.04064931
1764434893.4054835,-6.45498,0.21364,-0.73248,-0.695982105,0.70641909,0.04064931
1764434893.4054835,-6.45498,0.21364,-0.73248,-0.695982105,0.70641909,0.04064931
1764434893.4054835,-6.45498,0.21364,-0.73248,-0.695982105,0.70641909,0.04064931
1764434893.4054835,-6.45498,0.21364,-0.73248,-0.695982105,0.70641909,0.04064931
1764434893.4054835,-6.45498,0.21364,-0.73248,-0.695982105,0.70641909,0.04064931
1764434893.4054835,-6.45498,0.21364,-0.73248,-0.695982105,0.70641909,0.04064931
1764434893.4054835,-6.45498,0.21364,-0.73248,-0.695982105,0.70641909,0.04064931
1764434893.4054835,-6.45498,0.21364,-0.73248,-0.695982105,0.70641909,0.04064931
1764434893.4054835,-6.45498,0.21364,-0.73248,-0.695982105,0.70641909,0.04064931
1764434893.4054835,-4.66956,1.70912,0.6409199999999999,-0.6921369,0.70214664,0.04016103
1764434893.4054835,-4.66956,1.70912,0.6409199999999999,-0.6921369,0.70214664,0.04016103
1764434893.4054835,-4.66956,1.70912,0.6409199999999999,-0.6921369,0.70214664,0.04016103
1764434893.4054835,-4.66956,1.70912,0.6409199999999999,-0.6921369,0.70214664,0.04016103
1764434893.4054835,-4.66956,1.70912,0.6409199999999999,-0.6921369,0.70214664,0.04016103
1764434893.4054835,-4.66956,1.70912,0.6409199999999999,-0.6921369,0.70214664,0.04016103
1764434893.4054835,-4.66956,1.70912,0.6409199999999999,-0.6921369,0.70214664,0.04016103
1764434893.4054835,-4.66956,1.70912,0.6409199999999999,-0.6921369,0.70214664,0.04016103
1764434893.4538963,-4.66956,1.70912,0.6409199999999999,-0.6921369,0.70214664,0.04016103
1764434893.4538963,-4.66956,1.70912,0.6409199999999999,-0.6921369,0.70214664,0.04016103
1764434893.4538963,-1.87698,1.78542,1.61756,-0.6926251800000001,0.697935225,0.04113759
1764434893.4544811,-1.87698,1.78542,1.61756,-0.6926251800000001,0.697935225,0.04113759
1764434893.4544811,-1.87698,1.78542,1.61756,-0.6926251800000001,0.697935225,0.04113759
1764434893.4544811,-1.87698,1.78542,1.61756,-0.6926251800000001,0.697935225,0.04113759
1764434893.4544811,-1.87698,1.78542,1.61756,-0.6926251800000001,0.697935225,0.04113759
1764434893.4544811,-1.87698,1.78542,1.61756,-0.6926251800000001,0.697935225,0.04113759
1764434893.4544811,-1.87698,1.78542,1.61756,-0.6926251800000001,0.697935225,0.04113759
1764434893.4544811,-1.87698,1.78542,1.61756,-0.6926251800000001,0.697935225,0.04113759
1764434893.4544811,-1.87698,1.78542,1.61756,-0.6926251800000001,0.697935225,0.04113759
1764434893.4544811,-1.87698,1.78542,1.61756,-0.6926251800000001,0.697935225,0.04113759
1764434893.4544811,-1.2971,1.9075,-0.54936,-0.69494451,0.69726384,0.04162587
1764434893.4544811,-1.2971,1.9075,-0.54936,-0.69494451,0.69726384,0.04162587
1764434893.4544811,-1.2971,1.9075,-0.54936,-0.69494451,0.69726384,0.04162587
1764434893.4544811,-1.2971,1.9075,-0.54936,-0.69494451,0.69726384,0.04162587
1764434893.4544811,-1.2971,1.9075,-0.54936,-0.69494451,0.69726384,0.04162587
1764434893.4544811,-1.2971,1.9075,-0.54936,-0.69494451,0.69726384,0.04162587
1764434893.4544811,-1.2971,1.9075,-0.54936,-0.69494451,0.69726384,0.04162587
1764434893.4544811,-1.2971,1.9075,-0.54936,-0.69494451,0.69726384,0.04162587
1764434893.4544811,-1.2971,1.9075,-0.54936,-0.69494451,0.69726384,0.04162587
1764434893.4544811,-1.2971,1.9075,-0.54936,-0.69494451,0.69726384,0.04162587
1764434893.4544811,-3.3572,2.2127,-1.0682,-0.69494451,0.70251285,0.041198625
1764434893.4544811,-3.3572,2.2127,-1.0682,-0.69494451,0.70251285,0.041198625
1764434893.4980097,-3.3572,2.2127,-1.0682,-0.69494451,0.70251285,0.041198625
1764434893.4980097,-3.3572,2.2127,-1.0682,-0.69494451,0.70251285,0.041198625
1764434893.4980097,-3.3572,2.2127,-1.0682,-0.69494451,0.70251285,0.041198625
1764434893.4980097,-3.3572,2.2127,-1.0682,-0.69494451,0.70251285,0.041198625
1764434893.4980097,-3.3572,2.2127,-1.0682,-0.69494451,0.70251285,0.041198625
1764434893.498521,-3.3572,2.2127,-1.0682,-0.69494451,0.70251285,0.041198625
1764434893.498521,-3.3572,2.2127,-1.0682,-0.69494451,0.70251285,0.041198625
1764434893.498521,-3.3572,2.2127,-1.0682,-0.69494451,0.70251285,0.041198625
1764434893.498521,-4.54748,1.46496,0.09156,-0.693784845,0.703794585,0.04016103
1764434893.498521,-4.54748,1.46496,0.09156,-0.693784845,0.703794585,0.04016103
1764434893.498521,-4.54748,1.46496,0.09156,-0.693784845,0.703794585,0.04016103
1764434893.498521,-4.54748,1.46496,0.09156,-0.693784845,0.703794585,0.04016103
1764434893.498521,-4.54748,1.46496,0.09156,-0.693784845,0.703794585,0.04016103
1764434893.498521,-4.54748,1.46496,0.09156,-0.693784845,0.703794585,0.04016103
1764434893.498521,-4.54748,1.46496,0.09156,-0.693784845,0.703794585,0.04016103
1764434893.498521,-4.54748,1.46496,0.09156,-0.693784845,0.703794585,0.04016103
1764434893.498521,-4.54748,1.46496,0.09156,-0.693784845,0.703794585,0.04016103
1764434893.498521,-4.54748,1.46496,0.09156,-0.693784845,0.703794585,0.04016103
1764434893.498521,-3.84552,1.34288,-0.04578,-0.694273125,0.70348941,0.04052724
1764434893.498521,-3.84552,1.34288,-0.04578,-0.694273125,0.70348941,0.04052724
1764434893.498521,-3.84552,1.34288,-0.04578,-0.694273125,0.70348941,0.04052724
1764434893.4995358,-3.84552,1.34288,-0.04578,-0.694273125,0.70348941,0.04052724
1764434893.5440445,-3.84552,1.34288,-0.04578,-0.694273125,0.70348941,0.04052724
1764434893.5440445,-3.84552,1.34288,-0.04578,-0.694273125,0.70348941,0.04052724
1764434893.5440445,-3.84552,1.34288,-0.04578,-0.694273125,0.70348941,0.04052724
1764434893.5440445,-3.84552,1.34288,-0.04578,-0.694273125,0.70348941,0.04052724
1764434893.5440445,-3.84552,1.34288,-0.04578,-0.694273125,0.70348941,0.04052724
1764434893.5440445,-3.84552,1.34288,-0.04578,-0.694273125,0.70348941,0.04052724
1764434893.5440445,-2.76206,1.03768,0.85456,-0.695371755,0.70336734,0.040344135
1764434893.5440445,-2.76206,1.03768,0.85456,-0.695371755,0.70336734,0.040344135
1764434893.5440445,-2.76206,1.03768,0.85456,-0.695371755,0.70336734,0.040344135
1764434893.5440445,-2.76206,1.03768,0.85456,-0.695371755,0.70336734,0.040344135
1764434893.5440445,-2.76206,1.03768,0.85456,-0.695371755,0.70336734,0.040344135
1764434893.5440445,-2.76206,1.03768,0.85456,-0.695371755,0.70336734,0.040344135
1764434893.5440445,-2.76206,1.03768,0.85456,-0.695371755,0.70336734,0.040344135
1764434893.5440445,-2.76206,1.03768,0.85456,-0.695371755,0.70336734,0.040344135
1764434893.5440445,-2.76206,1.03768,0.85456,-0.695371755,0.70336734,0.040344135
1764434893.5440445,-2.76206,1.03768,0.85456,-0.695371755,0.70336734,0.040344135
1764434893.5440445,-2.99096,2.15166,-0.3357199999999999,-0.69433416,0.70202457,0.03979482
1764434893.5440445,-2.99096,2.15166,-0.3357199999999999,-0.69433416,0.70202457,0.03979482
1764434893.5450463,-2.99096,2.15166,-0.3357199999999999,-0.69433416,0.70202457,0.03979482
1764434893.5450463,-2.99096,2.15166,-0.3357199999999999,-0.69433416,0.70202457,0.03979482
1764434893.5450463,-2.99096,2.15166,-0.3357199999999999,-0.69433416,0.70202457,0.03979482
1764434893.5450463,-2.99096,2.15166,-0.3357199999999999,-0.69433416,0.70202457,0.03979482
1764434893.5902276,-2.99096,2.15166,-0.3357199999999999,-0.69433416,0.70202457,0.03979482
1764434893.5902276,-2.99096,2.15166,-0.3357199999999999,-0.69433416,0.70202457,0.03979482
1764434893.5902276,-2.99096,2.15166,-0.3357199999999999,-0.69433416,0.70202457,0.03979482
1764434893.5902276,-2.99096,2.15166,-0.3357199999999999,-0.69433416,0.70202457,0.03979482
1764434893.5902276,-2.1364,2.15166,-0.6714399999999999,-0.69506658,0.700742835,0.041320695
1764434893.5902276,-2.1364,2.15166,-0.6714399999999999,-0.69506658,0.700742835,0.041320695
1764434893.5902276,-2.1364,2.15166,-0.6714399999999999,-0.69506658,0.700742835,0.041320695
1764434893.5902276,-2.1364,2.15166,-0.6714399999999999,-0.69506658,0.700742835,0.041320695
1764434893.5902276,-2.1364,2.15166,-0.6714399999999999,-0.69506658,0.700742835,0.041320695
1764434893.5902276,-2.1364,2.15166,-0.6714399999999999,-0.69506658,0.700742835,0.041320695
1764434893.5902276,-2.1364,2.15166,-0.6714399999999999,-0.69506658,0.700742835,0.041320695
1764434893.5902276,-2.1364,2.15166,-0.6714399999999999,-0.69506658,0.700742835,0.041320695
1764434893.5902276,-2.1364,2.15166,-0.6714399999999999,-0.69506658,0.700742835,0.041320695
1764434893.5902276,-2.1364,2.15166,-0.6714399999999999,-0.69506658,0.700742835,0.041320695
1764434893.5902276,-1.25132,2.04484,-0.74774,-0.695860035,0.703062165,0.040588275
1764434893.5902276,-1.25132,2.04484,-0.74774,-0.695860035,0.703062165,0.040588275
1764434893.5902276,-1.25132,2.04484,-0.74774,-0.695860035,0.703062165,0.040588275
1764434893.5902276,-1.25132,2.04484,-0.74774,-0.695860035,0.703062165,0.040588275
1764434893.5902276,-1.25132,2.04484,-0.74774,-0.695860035,0.703062165,0.040588275
1764434893.5912435,-1.25132,2.04484,-0.74774,-0.695860035,0.703062165,0.040588275
1764434893.5912435,-1.25132,2.04484,-0.74774,-0.695860035,0.703062165,0.040588275
1764434893.5912435,-1.25132,2.04484,-0.74774,-0.695860035,0.703062165,0.040588275
1764434893.5912435,-1.25132,2.04484,-0.74774,-0.695860035,0.703062165,0.040588275
1764434893.5912435,-1.25132,2.04484,-0.74774,-0.695860035,0.703062165,0.040588275
1764434893.6341836,-3.08252,1.70912,-0.74774,-0.69567693,0.705015285,0.039123435
1764434893.6341836,-3.08252,1.70912,-0.74774,-0.69567693,0.705015285,0.039123435
1764434893.6341836,-3.08252,1.70912,-0.74774,-0.69567693,0.705015285,0.039123435
1764434893.6341836,-3.08252,1.70912,-0.74774,-0.69567693,0.705015285,0.039123435
1764434893.6341836,-3.08252,1.70912,-0.74774,-0.69567693,0.705015285,0.039123435
1764434893.6341836,-3.08252,1.70912,-0.74774,-0.69567693,0.705015285,0.039123435
1764434893.6341836,-3.08252,1.70912,-0.74774,-0.69567693,0.705015285,0.039123435
1764434893.6341836,-3.08252,1.70912,-0.74774,-0.69567693,0.705015285,0.039123435
1764434893.6341836,-3.08252,1.70912,-0.74774,-0.69567693,0.705015285,0.039123435
1764434893.635203,-3.08252,1.70912,-0.74774,-0.69567693,0.705015285,0.039123435
1764434893.635203,-4.22702,2.09062,-0.79352,-0.695615895,0.705259425,0.0390624
1764434893.635203,-4.22702,2.09062,-0.79352,-0.695615895,0.705259425,0.0390624
1764434893.635203,-4.22702,2.09062,-0.79352,-0.695615895,0.705259425,0.0390624
1764434893.635203,-4.22702,2.09062,-0.79352,-0.695615895,0.705259425,0.0390624
1764434893.635203,-4.22702,2.09062,-0.79352,-0.695615895,0.705259425,0.0390624
1764434893.635203,-4.22702,2.09062,-0.79352,-0.695615895,0.705259425,0.0390624
1764434893.635203,-4.22702,2.09062,-0.79352,-0.695615895,0.705259425,0.0390624
1764434893.635203,-4.22702,2.09062,-0.79352,-0.695615895,0.705259425,0.0390624
1764434893.636197,-4.22702,2.09062,-0.79352,-0.695615895,0.705259425,0.0390624
1764434893.636197,-4.22702,2.09062,-0.79352,-0.695615895,0.705259425,0.0390624
1764434893.636197,-4.74586,2.04484,-1.31236,-0.694395195,0.70336734,0.038757225
1764434893.636197,-4.74586,2.04484,-1.31236,-0.694395195,0.70336734,0.038757225
1764434893.636197,-4.74586,2.04484,-1.31236,-0.694395195,0.70336734,0.038757225
1764434893.636197,-4.74586,2.04484,-1.31236,-0.694395195,0.70336734,0.038757225
1764434893.679741,-4.74586,2.04484,-1.31236,-0.694395195,0.70336734,0.038757225
1764434893.680249,-4.74586,2.04484,-1.31236,-0.694395195,0.70336734,0.038757225
1764434893.680249,-4.74586,2.04484,-1.31236,-0.694395195,0.70336734,0.038757225
1764434893.680249,-4.74586,2.04484,-1.31236,-0.694395195,0.70336734,0.038757225
1764434893.680249,-4.74586,2.04484,-1.31236,-0.694395195,0.70336734,0.038757225
1764434893.680249,-4.74586,2.04484,-1.31236,-0.694395195,0.70336734,0.038757225
1764434893.680249,-4.2728,3.38772,-1.31236,-0.692075865,0.70104801,0.038146875
1764434893.680249,-4.2728,3.38772,-1.31236,-0.692075865,0.70104801,0.038146875
1764434893.680249,-4.2728,3.38772,-1.31236,-0.692075865,0.70104801,0.038146875
1764434893.680249,-4.2728,3.38772,-1.31236,-0.692075865,0.70104801,0.038146875
1764434893.680249,-4.2728,3.38772,-1.31236,-0.692075865,0.70104801,0.038146875
1764434893.680249,-4.2728,3.38772,-1.31236,-0.692075865,0.70104801,0.038146875
1764434893.680249,-4.2728,3.38772,-1.31236,-0.692075865,0.70104801,0.038146875
1764434893.680249,-4.2728,3.38772,-1.31236,-0.692075865,0.70104801,0.038146875
1764434893.680249,-4.2728,3.38772,-1.31236,-0.692075865,0.70104801,0.038146875
1764434893.680249,-4.2728,3.38772,-1.31236,-0.692075865,0.70104801,0.038146875
1764434893.680249,-3.23512,3.17408,-0.47306,-0.69299139,0.697813155,0.03771963
1764434893.680249,-3.23512,3.17408,-0.47306,-0.69299139,0.697813155,0.03771963
1764434893.680249,-3.23512,3.17408,-0.47306,-0.69299139,0.697813155,0.03771963
1764434893.680249,-3.23512,3.17408,-0.47306,-0.69299139,0.697813155,0.03771963
1764434893.680249,-3.23512,3.17408,-0.47306,-0.69299139,0.697813155,0.03771963
1764434893.680249,-3.23512,3.17408,-0.47306,-0.69299139,0.697813155,0.03771963
1764434893.7302594,-3.23512,3.17408,-0.47306,-0.69299139,0.697813155,0.03771963
1764434893.7302594,-3.23512,3.17408,-0.47306,-0.69299139,0.697813155,0.03771963
1764434893.7302594,-3.23512,3.17408,-0.47306,-0.69299139,0.697813155,0.03771963
1764434893.7302594,-3.23512,3.17408,-0.47306,-0.69299139,0.697813155,0.03771963
1764434893.7302594,-2.27374,2.35004,-0.56462,-0.69604314,0.6957990000000001,0.037048245
1764434893.7302594,-2.27374,2.35004,-0.56462,-0.69604314,0.6957990000000001,0.037048245
1764434893.7302594,-2.27374,2.35004,-0.56462,-0.69604314,0.6957990000000001,0.037048245
1764434893.7302594,-2.27374,2.35004,-0.56462,-0.69604314,0.6957990000000001,0.037048245
1764434893.7302594,-2.27374,2.35004,-0.56462,-0.69604314,0.6957990000000001,0.037048245
1764434893.7302594,-2.27374,2.35004,-0.56462,-0.69604314,0.6957990000000001,0.037048245
1764434893.7302594,-2.27374,2.35004,-0.56462,-0.69604314,0.6957990000000001,0.037048245
1764434893.7302594,-2.27374,2.35004,-0.56462,-0.69604314,0.6957990000000001,0.037048245
1764434893.7302594,-2.27374,2.35004,-0.56462,-0.69604314,0.6957990000000001,0.037048245
1764434893.7302594,-2.27374,2.35004,-0.56462,-0.69604314,0.6957990000000001,0.037048245
1764434893.7302594,0.09156,0.9919,-0.44254,-0.69872868,0.69470037,0.037170315
1764434893.7302594,0.09156,0.9919,-0.44254,-0.69872868,0.69470037,0.037170315
1764434893.7302594,0.09156,0.9919,-0.44254,-0.69872868,0.69470037,0.037170315
1764434893.7302594,0.09156,0.9919,-0.44254,-0.69872868,0.69470037,0.037170315
1764434893.7302594,0.09156,0.9919,-0.44254,-0.69872868,0.69470037,0.037170315
1764434893.7302594,0.09156,0.9919,-0.44254,-0.69872868,0.69470037,0.037170315
1764434893.7302594,0.09156,0.9919,-0.44254,-0.69872868,0.69470037,0.037170315
1764434893.7302594,0.09156,0.9919,-0.44254,-0.69872868,0.69470037,0.037170315
1764434893.7752006,0.09156,0.9919,-0.44254,-0.69872868,0.69470037,0.037170315
1764434893.7752006,0.09156,0.9919,-0.44254,-0.69872868,0.69470037,0.037170315
1764434893.7752006,0.39676,-0.96138,0.6867,-0.69860661,0.698057295,0.03747549
1764434893.7752006,0.39676,-0.96138,0.6867,-0.69860661,0.698057295,0.03747549
1764434893.7752006,0.39676,-0.96138,0.6867,-0.69860661,0.698057295,0.03747549
1764434893.7752006,0.39676,-0.96138,0.6867,-0.69860661,0.698057295,0.03747549
1764434893.7752006,0.39676,-0.96138,0.6867,-0.69860661,0.698057295,0.03747549
1764434893.7752006,0.39676,-0.96138,0.6867,-0.69860661,0.698057295,0.03747549
1764434893.7752006,0.39676,-0.96138,0.6867,-0.69860661,0.698057295,0.03747549
1764434893.7752006,0.39676,-0.96138,0.6867,-0.69860661,0.698057295,0.03747549
1764434893.7752006,0.39676,-0.96138,0.6867,-0.69860661,0.698057295,0.03747549
1764434893.7752006,0.39676,-0.96138,0.6867,-0.69860661,0.698057295,0.03747549
1764434893.7752006,-0.5341,0.88508,0.88508,-0.696226245,0.701597325,0.03625479
1764434893.7752006,-0.5341,0.88508,0.88508,-0.696226245,0.701597325,0.03625479
1764434893.7752006,-0.5341,0.88508,0.88508,-0.696226245,0.701597325,0.03625479
1764434893.7752006,-0.5341,0.88508,0.88508,-0.696226245,0.701597325,0.03625479
1764434893.7752006,-0.5341,0.88508,0.88508,-0.696226245,0.701597325,0.03625479
1764434893.7752006,-0.5341,0.88508,0.88508,-0.696226245,0.701597325,0.03625479
1764434893.7752006,-0.5341,0.88508,0.88508,-0.696226245,0.701597325,0.03625479
1764434893.7752006,-0.5341,0.88508,0.88508,-0.696226245,0.701597325,0.03625479
1764434893.7752006,-0.5341,0.88508,0.88508,-0.696226245,0.701597325,0.03625479
1764434893.7762218,-0.5341,0.88508,0.88508,-0.696226245,0.701597325,0.03625479
1764434893.7762218,-1.6786,1.69386,0.0,-0.69518865,0.70300113,0.03588858
1764434893.7762218,-1.6786,1.69386,0.0,-0.69518865,0.70300113,0.03588858
1764434893.820707,-1.6786,1.69386,0.0,-0.69518865,0.70300113,0.03588858
1764434893.822216,-1.6786,1.69386,0.0,-0.69518865,0.70300113,0.03588858
1764434893.822216,-1.6786,1.69386,0.0,-0.69518865,0.70300113,0.03588858
1764434893.822216,-1.6786,1.69386,0.0,-0.69518865,0.70300113,0.03588858
1764434893.822216,-1.6786,1.69386,0.0,-0.69518865,0.70300113,0.03588858
1764434893.822216,-1.6786,1.69386,0.0,-0.69518865,0.70300113,0.03588858
1764434893.822216,-1.6786,1.69386,0.0,-0.69518865,0.70300113,0.03588858
1764434893.822216,-1.6786,1.69386,0.0,-0.69518865,0.70300113,0.03588858
1764434893.822216,-1.35814,2.10588,-1.09872,-0.696348315,0.7031232000000001,0.036926175
1764434893.822216,-1.35814,2.10588,-1.09872,-0.696348315,0.7031232000000001,0.036926175
1764434893.822216,-1.35814,2.10588,-1.09872,-0.696348315,0.7031232000000001,0.036926175
1764434893.822216,-1.35814,2.10588,-1.09872,-0.696348315,0.7031232000000001,0.036926175
1764434893.822216,-1.35814,2.10588,-1.09872,-0.696348315,0.7031232000000001,0.036926175
1764434893.822216,-1.35814,2.10588,-1.09872,-0.696348315,0.7031232000000001,0.036926175
1764434893.822216,-1.35814,2.10588,-1.09872,-0.696348315,0.7031232000000001,0.036926175
1764434893.822216,-1.35814,2.10588,-1.09872,-0.696348315,0.7031232000000001,0.036926175
1764434893.822216,-1.35814,2.10588,-1.09872,-0.696348315,0.7031232000000001,0.036926175
1764434893.822216,-1.35814,2.10588,-1.09872,-0.696348315,0.7031232000000001,0.036926175
1764434893.822216,-2.60946,1.63282,-0.6714399999999999,-0.69482244,0.705015285,0.036437895
1764434893.822216,-2.60946,1.63282,-0.6714399999999999,-0.69482244,0.705015285,0.036437895
1764434893.822216,-2.60946,1.63282,-0.6714399999999999,-0.69482244,0.705015285,0.036437895
1764434893.822216,-2.60946,1.63282,-0.6714399999999999,-0.69482244,0.705015285,0.036437895
1764434893.822216,-2.60946,1.63282,-0.6714399999999999,-0.69482244,0.705015285,0.036437895
1764434893.822216,-2.60946,1.63282,-0.6714399999999999,-0.69482244,0.705015285,0.036437895
1764434893.8672872,-2.60946,1.63282,-0.6714399999999999,-0.69482244,0.705015285,0.036437895
1764434893.8672872,-2.60946,1.63282,-0.6714399999999999,-0.69482244,0.705015285,0.036437895
1764434893.8672872,-2.60946,1.63282,-0.6714399999999999,-0.69482244,0.705015285,0.036437895
1764434893.8672872,-2.60946,1.63282,-0.6714399999999999,-0.69482244,0.705015285,0.036437895
1764434893.8672872,-3.76922,2.76206,-0.48832,-0.69347967,0.70361148,0.036559965
1764434893.8672872,-3.76922,2.76206,-0.48832,-0.69347967,0.70361148,0.036559965
1764434893.8672872,-3.76922,2.76206,-0.48832,-0.69347967,0.70361148,0.036559965
1764434893.8672872,-3.76922,2.76206,-0.48832,-0.69347967,0.70361148,0.036559965
1764434893.8672872,-3.76922,2.76206,-0.48832,-0.69347967,0.70361148,0.036559965
1764434893.8672872,-3.76922,2.76206,-0.48832,-0.69347967,0.70361148,0.036559965
1764434893.8672872,-3.76922,2.76206,-0.48832,-0.69347967,0.70361148,0.036559965
1764434893.8672872,-3.76922,2.76206,-0.48832,-0.69347967,0.70361148,0.036559965
1764434893.8672872,-3.76922,2.76206,-0.48832,-0.69347967,0.70361148,0.036559965
1764434893.8672872,-3.76922,2.76206,-0.48832,-0.69347967,0.70361148,0.036559965
1764434893.8672872,-4.08968,2.6705,-0.73248,-0.69518865,0.701841465,0.03710928
1764434893.8672872,-4.08968,2.6705,-0.73248,-0.69518865,0.701841465,0.03710928
1764434893.8672872,-4.08968,2.6705,-0.73248,-0.69518865,0.701841465,0.03710928
1764434893.8672872,-4.08968,2.6705,-0.73248,-0.69518865,0.701841465,0.03710928
1764434893.8672872,-4.08968,2.6705,-0.73248,-0.69518865,0.701841465,0.03710928
1764434893.8672872,-4.08968,2.6705,-0.73248,-0.69518865,0.701841465,0.03710928
1764434893.8672872,-4.08968,2.6705,-0.73248,-0.69518865,0.701841465,0.03710928
1764434893.8672872,-4.08968,2.6705,-0.73248,-0.69518865,0.701841465,0.03710928
1764434893.9138682,-4.08968,2.6705,-0.73248,-0.69518865,0.701841465,0.03710928
1764434893.9138682,-4.08968,2.6705,-0.73248,-0.69518865,0.701841465,0.03710928
1764434893.9138682,-4.10494,2.92992,-0.6867,-0.69653142,0.70031559,0.035705475
1764434893.9138682,-4.10494,2.92992,-0.6867,-0.69653142,0.70031559,0.035705475
1764434893.9138682,-4.10494,2.92992,-0.6867,-0.69653142,0.70031559,0.035705475
1764434893.9138682,-4.10494,2.92992,-0.6867,-0.69653142,0.70031559,0.035705475
1764434893.9138682,-4.10494,2.92992,-0.6867,-0.69653142,0.70031559,0.035705475
1764434893.9138682,-4.10494,2.92992,-0.6867,-0.69653142,0.70031559,0.035705475
1764434893.9145713,-4.10494,2.92992,-0.6867,-0.69653142,0.70031559,0.035705475
1764434893.9145713,-4.10494,2.92992,-0.6867,-0.69653142,0.70031559,0.035705475
1764434893.9145713,-4.10494,2.92992,-0.6867,-0.69653142,0.70031559,0.035705475
1764434893.9145713,-4.10494,2.92992,-0.6867,-0.69653142,0.70031559,0.035705475
1764434893.9145713,-2.41108,2.41108,-0.65618,-0.697813155,0.698545575,0.035705475
1764434893.9145713,-2.41108,2.41108,-0.65618,-0.697813155,0.698545575,0.035705475
1764434893.9145713,-2.41108,2.41108,-0.65618,-0.697813155,0.698545575,0.035705475
1764434893.9145713,-2.41108,2.41108,-0.65618,-0.697813155,0.698545575,0.035705475
1764434893.9145713,-2.41108,2.41108,-0.65618,-0.697813155,0.698545575,0.035705475
1764434893.9145713,-2.41108,2.41108,-0.65618,-0.697813155,0.698545575,0.035705475
1764434893.9155762,-2.41108,2.41108,-0.65618,-0.697813155,0.698545575,0.035705475
1764434893.9155762,-2.41108,2.41108,-0.65618,-0.697813155,0.698545575,0.035705475
1764434893.9155762,-2.41108,2.41108,-0.65618,-0.697813155,0.698545575,0.035705475
1764434893.9155762,-2.41108,2.41108,-0.65618,-0.697813155,0.698545575,0.035705475
1764434893.9155762,-1.2055399999999998,0.7019599999999999,-0.1678599999999999,-0.6982404,0.697324875,0.035461335
1764434893.9155762,-1.2055399999999998,0.7019599999999999,-0.1678599999999999,-0.6982404,0.697324875,0.035461335
1764434893.965342,-1.2055399999999998,0.7019599999999999,-0.1678599999999999,-0.6982404,0.697324875,0.035461335
1764434893.965342,-1.2055399999999998,0.7019599999999999,-0.1678599999999999,-0.6982404,0.697324875,0.035461335
1764434893.965342,-1.2055399999999998,0.7019599999999999,-0.1678599999999999,-0.6982404,0.697324875,0.035461335
1764434893.965342,-1.2055399999999998,0.7019599999999999,-0.1678599999999999,-0.6982404,0.697324875,0.035461335
1764434893.965342,-1.2055399999999998,0.7019599999999999,-0.1678599999999999,-0.6982404,0.697324875,0.035461335
1764434893.965342,-1.2055399999999998,0.7019599999999999,-0.1678599999999999,-0.6982404,0.697324875,0.035461335
1764434893.965342,-1.2055399999999998,0.7019599999999999,-0.1678599999999999,-0.6982404,0.697324875,0.035461335
1764434893.965342,-1.2055399999999998,0.7019599999999999,-0.1678599999999999,-0.6982404,0.697324875,0.035461335
1764434893.965342,-2.7468,1.93802,0.0,-0.696592455,0.69640935,0.035095125
1764434893.965342,-2.7468,1.93802,0.0,-0.696592455,0.69640935,0.035095125
1764434893.965342,-2.7468,1.93802,0.0,-0.696592455,0.69640935,0.035095125
1764434893.965342,-2.7468,1.93802,0.0,-0.696592455,0.69640935,0.035095125
1764434893.965342,-2.7468,1.93802,0.0,-0.696592455,0.69640935,0.035095125
1764434893.965342,-2.7468,1.93802,0.0,-0.696592455,0.69640935,0.035095125
1764434893.965342,-2.7468,1.93802,0.0,-0.696592455,0.69640935,0.035095125
1764434893.965342,-2.7468,1.93802,0.0,-0.696592455,0.69640935,0.035095125
1764434893.965342,-2.7468,1.93802,0.0,-0.696592455,0.69640935,0.035095125
1764434893.965342,-2.7468,1.93802,0.0,-0.696592455,0.69640935,0.035095125
1764434893.965342,-2.70102,2.19744,0.36624,-0.696104175,0.69726384,0.035461335
1764434893.965342,-2.70102,2.19744,0.36624,-0.696104175,0.69726384,0.035461335
1764434893.965342,-2.70102,2.19744,0.36624,-0.696104175,0.69726384,0.035461335
1764434893.965342,-2.70102,2.19744,0.36624,-0.696104175,0.69726384,0.035461335
1764434893.965342,-2.70102,2.19744,0.36624,-0.696104175,0.69726384,0.035461335
1764434893.965342,-2.70102,2.19744,0.36624,-0.696104175,0.69726384,0.035461335
1764434894.0066392,-2.70102,2.19744,0.36624,-0.696104175,0.69726384,0.035461335
1764434894.0066392,-2.70102,2.19744,0.36624,-0.696104175,0.69726384,0.035461335
1764434894.0066392,-2.70102,2.19744,0.36624,-0.696104175,0.69726384,0.035461335
1764434894.0066392,-2.70102,2.19744,0.36624,-0.696104175,0.69726384,0.035461335
1764434894.0066392,-2.4416,2.38056,0.0762999999999999,-0.695005545,0.698301435,0.034240635
1764434894.0066392,-2.4416,2.38056,0.0762999999999999,-0.695005545,0.698301435,0.034240635
1764434894.0066392,-2.4416,2.38056,0.0762999999999999,-0.695005545,0.698301435,0.034240635
1764434894.0066392,-2.4416,2.38056,0.0762999999999999,-0.695005545,0.698301435,0.034240635
1764434894.0066392,-2.4416,2.38056,0.0762999999999999,-0.695005545,0.698301435,0.034240635
1764434894.0066392,-2.4416,2.38056,0.0762999999999999,-0.695005545,0.698301435,0.034240635
1764434894.0066392,-2.4416,2.38056,0.0762999999999999,-0.695005545,0.698301435,0.034240635
1764434894.0066392,-2.4416,2.38056,0.0762999999999999,-0.695005545,0.698301435,0.034240635
1764434894.0066392,-2.4416,2.38056,0.0762999999999999,-0.695005545,0.698301435,0.034240635
1764434894.0066392,-2.4416,2.38056,0.0762999999999999,-0.695005545,0.698301435,0.034240635
1764434894.0066392,-2.83836,2.47212,0.2289,-0.69506658,0.69982731,0.03210441
1764434894.0066392,-2.83836,2.47212,0.2289,-0.69506658,0.69982731,0.03210441
1764434894.009292,-2.83836,2.47212,0.2289,-0.69506658,0.69982731,0.03210441
1764434894.009292,-2.83836,2.47212,0.2289,-0.69506658,0.69982731,0.03210441
1764434894.009292,-2.83836,2.47212,0.2289,-0.69506658,0.69982731,0.03210441
1764434894.009292,-2.83836,2.47212,0.2289,-0.69506658,0.69982731,0.03210441
1764434894.009292,-2.83836,2.47212,0.2289,-0.69506658,0.69982731,0.03210441
1764434894.009292,-2.83836,2.47212,0.2289,-0.69506658,0.69982731,0.03210441
1764434894.0892289,-2.83836,2.47212,0.2289,-0.69506658,0.69982731,0.03210441
1764434894.0892289,-2.83836,2.47212,0.2289,-0.69506658,0.69982731,0.03210441
1764434894.0892289,-3.02148,1.48022,-0.2289,-0.697813155,0.702451815,0.032165445
1764434894.0892289,-3.02148,1.48022,-0.2289,-0.697813155,0.702451815,0.032165445
1764434894.0892289,-3.02148,1.48022,-0.2289,-0.697813155,0.702451815,0.032165445
1764434894.0892289,-3.02148,1.48022,-0.2289,-0.697813155,0.702451815,0.032165445
1764434894.0932543,-3.02148,1.48022,-0.2289,-0.697813155,0.702451815,0.032165445
1764434894.0932543,-3.02148,1.48022,-0.2289,-0.697813155,0.702451815,0.032165445
1764434894.0932543,-3.02148,1.48022,-0.2289,-0.697813155,0.702451815,0.032165445
1764434894.094243,-3.02148,1.48022,-0.2289,-0.697813155,0.702451815,0.032165445
1764434894.094243,-3.02148,1.48022,-0.2289,-0.697813155,0.702451815,0.032165445
1764434894.094243,-3.02148,1.48022,-0.2289,-0.697813155,0.702451815,0.032165445
1764434894.094243,-4.47118,1.31236,-0.36624,-0.69872868,0.7020856050000001,0.032775795
1764434894.09525,-4.47118,1.31236,-0.36624,-0.69872868,0.7020856050000001,0.032775795
1764434894.09525,-4.47118,1.31236,-0.36624,-0.69872868,0.7020856050000001,0.032775795
1764434894.09525,-4.47118,1.31236,-0.36624,-0.69872868,0.7020856050000001,0.032775795
1764434894.096578,-4.47118,1.31236,-0.36624,-0.69872868,0.7020856050000001,0.032775795
1764434894.096578,-4.47118,1.31236,-0.36624,-0.69872868,0.7020856050000001,0.032775795
1764434894.096578,-4.47118,1.31236,-0.36624,-0.69872868,0.7020856050000001,0.032775795
1764434894.096578,-4.47118,1.31236,-0.36624,-0.69872868,0.7020856050000001,0.032775795
1764434894.096578,-4.47118,1.31236,-0.36624,-0.69872868,0.7020856050000001,0.032775795
1764434894.096578,-4.47118,1.31236,-0.36624,-0.69872868,0.7020856050000001,0.032775795
1764434894.096578,-3.99812,1.6786,0.0762999999999999,-0.6982404,0.698179365,0.033142005
1764434894.096578,-3.99812,1.6786,0.0762999999999999,-0.6982404,0.698179365,0.033142005
1764434894.096578,-3.99812,1.6786,0.0762999999999999,-0.6982404,0.698179365,0.033142005
1764434894.096578,-3.99812,1.6786,0.0762999999999999,-0.6982404,0.698179365,0.033142005
1764434894.096578,-3.99812,1.6786,0.0762999999999999,-0.6982404,0.698179365,0.033142005
1764434894.096578,-3.99812,1.6786,0.0762999999999999,-0.6982404,0.698179365,0.033142005
1764434894.0972564,-3.99812,1.6786,0.0762999999999999,-0.6982404,0.698179365,0.033142005
1764434894.0972564,-3.99812,1.6786,0.0762999999999999,-0.6982404,0.698179365,0.033142005
1764434894.0972564,-3.99812,1.6786,0.0762999999999999,-0.6982404,0.698179365,0.033142005
1764434894.0972564,-3.99812,1.6786,0.0762999999999999,-0.6982404,0.698179365,0.033142005
1764434894.0972564,-1.95328,1.17502,1.41918,-0.69604314,0.698545575,0.032165445
1764434894.0972564,-1.95328,1.17502,1.41918,-0.69604314,0.698545575,0.032165445
1764434894.0972564,-1.95328,1.17502,1.41918,-0.69604314,0.698545575,0.032165445
1764434894.0972564,-1.95328,1.17502,1.41918,-0.69604314,0.698545575,0.032165445
1764434894.0972564,-1.95328,1.17502,1.41918,-0.69604314,0.698545575,0.032165445
1764434894.0972564,-1.95328,1.17502,1.41918,-0.69604314,0.698545575,0.032165445
1764434894.0972564,-1.95328,1.17502,1.41918,-0.69604314,0.698545575,0.032165445
1764434894.0977802,-1.95328,1.17502,1.41918,-0.69604314,0.698545575,0.032165445
1764434894.0977802,-1.95328,1.17502,1.41918,-0.69604314,0.698545575,0.032165445
1764434894.0977802,-1.95328,1.17502,1.41918,-0.69604314,0.698545575,0.032165445
1764434894.1315825,-2.30426,2.30426,1.6022999999999998,-0.69286932,0.6982404,0.03149406
1764434894.1315825,-2.30426,2.30426,1.6022999999999998,-0.69286932,0.6982404,0.03149406
1764434894.1331594,-2.30426,2.30426,1.6022999999999998,-0.69286932,0.6982404,0.03149406
1764434894.1331594,-2.30426,2.30426,1.6022999999999998,-0.69286932,0.6982404,0.03149406
1764434894.1331594,-2.30426,2.30426,1.6022999999999998,-0.69286932,0.6982404,0.03149406
1764434894.1331594,-2.30426,2.30426,1.6022999999999998,-0.69286932,0.6982404,0.03149406
1764434894.1341803,-2.30426,2.30426,1.6022999999999998,-0.69286932,0.6982404,0.03149406
1764434894.1341803,-2.30426,2.30426,1.6022999999999998,-0.69286932,0.6982404,0.03149406
1764434894.1341803,-2.30426,2.30426,1.6022999999999998,-0.69286932,0.6982404,0.03149406
1764434894.1341803,-2.30426,2.30426,1.6022999999999998,-0.69286932,0.6982404,0.03149406
1764434894.1341803,-3.70818,1.63282,0.5341,-0.69616521,0.6970197,0.03210441
1764434894.1341803,-3.70818,1.63282,0.5341,-0.69616521,0.6970197,0.03210441
1764434894.1341803,-3.70818,1.63282,0.5341,-0.69616521,0.6970197,0.03210441
1764434894.1341803,-3.70818,1.63282,0.5341,-0.69616521,0.6970197,0.03210441
1764434894.1341803,-3.70818,1.63282,0.5341,-0.69616521,0.6970197,0.03210441
1764434894.1341803,-3.70818,1.63282,0.5341,-0.69616521,0.6970197,0.03210441
1764434894.1346943,-3.70818,1.63282,0.5341,-0.69616521,0.6970197,0.03210441
1764434894.1346943,-3.70818,1.63282,0.5341,-0.69616521,0.6970197,0.03210441
1764434894.1346943,-3.70818,1.63282,0.5341,-0.69616521,0.6970197,0.03210441
1764434894.1346943,-3.70818,1.63282,0.5341,-0.69616521,0.6970197,0.03210441
1764434894.1346943,-4.959499999999999,0.54936,-0.0762999999999999,-0.69799626,0.69763005,0.032043375
1764434894.1346943,-4.959499999999999,0.54936,-0.0762999999999999,-0.69799626,0.69763005,0.032043375
1764434894.1813695,-4.959499999999999,0.54936,-0.0762999999999999,-0.69799626,0.69763005,0.032043375
1764434894.1813695,-4.959499999999999,0.54936,-0.0762999999999999,-0.69799626,0.69763005,0.032043375
1764434894.1813695,-4.959499999999999,0.54936,-0.0762999999999999,-0.69799626,0.69763005,0.032043375
1764434894.1813695,-4.959499999999999,0.54936,-0.0762999999999999,-0.69799626,0.69763005,0.032043375
1764434894.1813695,-4.959499999999999,0.54936,-0.0762999999999999,-0.69799626,0.69763005,0.032043375
1764434894.1813695,-4.959499999999999,0.54936,-0.0762999999999999,-0.69799626,0.69763005,0.032043375
1764434894.1813695,-4.959499999999999,0.54936,-0.0762999999999999,-0.69799626,0.69763005,0.032043375
1764434894.1813695,-4.959499999999999,0.54936,-0.0762999999999999,-0.69799626,0.69763005,0.032043375
1764434894.1813695,-5.20366,1.51074,0.6867,-0.697080735,0.698789715,0.03161613
1764434894.1813695,-5.20366,1.51074,0.6867,-0.697080735,0.698789715,0.03161613
1764434894.1813695,-5.20366,1.51074,0.6867,-0.697080735,0.698789715,0.03161613
1764434894.1813695,-5.20366,1.51074,0.6867,-0.697080735,0.698789715,0.03161613
1764434894.1813695,-5.20366,1.51074,0.6867,-0.697080735,0.698789715,0.03161613
1764434894.1813695,-5.20366,1.51074,0.6867,-0.697080735,0.698789715,0.03161613
1764434894.1813695,-5.20366,1.51074,0.6867,-0.697080735,0.698789715,0.03161613
1764434894.1813695,-5.20366,1.51074,0.6867,-0.697080735,0.698789715,0.03161613
1764434894.1813695,-5.20366,1.51074,0.6867,-0.697080735,0.698789715,0.03161613
1764434894.1813695,-5.20366,1.51074,0.6867,-0.697080735,0.698789715,0.03161613
1764434894.2280786,-4.10494,2.04484,1.57178,-0.6968365950000001,0.700254555,0.0317382
1764434894.2280786,-4.10494,2.04484,1.57178,-0.6968365950000001,0.700254555,0.0317382
1764434894.2280786,-4.10494,2.04484,1.57178,-0.6968365950000001,0.700254555,0.0317382
1764434894.2280786,-4.10494,2.04484,1.57178,-0.6968365950000001,0.700254555,0.0317382
1764434894.2280786,-4.10494,2.04484,1.57178,-0.6968365950000001,0.700254555,0.0317382
1764434894.2280786,-4.10494,2.04484,1.57178,-0.6968365950000001,0.700254555,0.0317382
1764434894.2280786,-4.10494,2.04484,1.57178,-0.6968365950000001,0.700254555,0.0317382
1764434894.2280786,-4.10494,2.04484,1.57178,-0.6968365950000001,0.700254555,0.0317382
1764434894.2280786,-4.10494,2.04484,1.57178,-0.6968365950000001,0.700254555,0.0317382
1764434894.2280786,-4.10494,2.04484,1.57178,-0.6968365950000001,0.700254555,0.0317382
1764434894.2280786,-3.70818,1.6633399999999998,0.62566,-0.69750798,0.7004986950000001,0.032409585
1764434894.2280786,-3.70818,1.6633399999999998,0.62566,-0.69750798,0.7004986950000001,0.032409585
1764434894.2280786,-3.70818,1.6633399999999998,0.62566,-0.69750798,0.7004986950000001,0.032409585
1764434894.2280786,-3.70818,1.6633399999999998,0.62566,-0.69750798,0.7004986950000001,0.032409585
1764434894.2280786,-3.70818,1.6633399999999998,0.62566,-0.69750798,0.7004986950000001,0.032409585
1764434894.2280786,-3.70818,1.6633399999999998,0.62566,-0.69750798,0.7004986950000001,0.032409585
1764434894.2280786,-3.70818,1.6633399999999998,0.62566,-0.69750798,0.7004986950000001,0.032409585
1764434894.2280786,-3.70818,1.6633399999999998,0.62566,-0.69750798,0.7004986950000001,0.032409585
1764434894.2280786,-3.70818,1.6633399999999998,0.62566,-0.69750798,0.7004986950000001,0.032409585
1764434894.2280786,-3.70818,1.6633399999999998,0.62566,-0.69750798,0.7004986950000001,0.032409585
1764434894.2280786,-4.577999999999999,1.9075,0.28994,-0.696592455,0.700010415,0.03222648
1764434894.2280786,-4.577999999999999,1.9075,0.28994,-0.696592455,0.700010415,0.03222648
1764434894.2280786,-4.577999999999999,1.9075,0.28994,-0.696592455,0.700010415,0.03222648
1764434894.2280786,-4.577999999999999,1.9075,0.28994,-0.696592455,0.700010415,0.03222648
1764434894.2280786,-4.577999999999999,1.9075,0.28994,-0.696592455,0.700010415,0.03222648
1764434894.2280786,-4.577999999999999,1.9075,0.28994,-0.696592455,0.700010415,0.03222648
1764434894.2280786,-4.577999999999999,1.9075,0.28994,-0.696592455,0.700010415,0.03222648
1764434894.2290883,-4.577999999999999,1.9075,0.28994,-0.696592455,0.700010415,0.03222648
1764434894.2679644,-4.577999999999999,1.9075,0.28994,-0.696592455,0.700010415,0.03222648
1764434894.2679644,-4.577999999999999,1.9075,0.28994,-0.696592455,0.700010415,0.03222648
1764434894.2679644,-4.56274,1.8006799999999998,0.94612,-0.69555486,0.699522135,0.031310955
1764434894.2679644,-4.56274,1.8006799999999998,0.94612,-0.69555486,0.699522135,0.031310955
1764434894.2679644,-4.56274,1.8006799999999998,0.94612,-0.69555486,0.699522135,0.031310955
1764434894.2679644,-4.56274,1.8006799999999998,0.94612,-0.69555486,0.699522135,0.031310955
1764434894.2679644,-4.56274,1.8006799999999998,0.94612,-0.69555486,0.699522135,0.031310955
1764434894.2679644,-4.56274,1.8006799999999998,0.94612,-0.69555486,0.699522135,0.031310955
1764434894.2679644,-4.56274,1.8006799999999998,0.94612,-0.69555486,0.699522135,0.031310955
1764434894.2679644,-4.56274,1.8006799999999998,0.94612,-0.69555486,0.699522135,0.031310955
1764434894.2679644,-4.56274,1.8006799999999998,0.94612,-0.69555486,0.699522135,0.031310955
1764434894.2689655,-4.56274,1.8006799999999998,0.94612,-0.69555486,0.699522135,0.031310955
1764434894.2689655,-5.14262,1.12924,0.3509799999999999,-0.698301435,0.7006818,0.03186027
1764434894.2689655,-5.14262,1.12924,0.3509799999999999,-0.698301435,0.7006818,0.03186027
1764434894.2689655,-5.14262,1.12924,0.3509799999999999,-0.698301435,0.7006818,0.03186027
1764434894.2689655,-5.14262,1.12924,0.3509799999999999,-0.698301435,0.7006818,0.03186027
1764434894.2689655,-5.14262,1.12924,0.3509799999999999,-0.698301435,0.7006818,0.03186027
1764434894.2689655,-5.14262,1.12924,0.3509799999999999,-0.698301435,0.7006818,0.03186027
1764434894.2689655,-5.14262,1.12924,0.3509799999999999,-0.698301435,0.7006818,0.03186027
1764434894.2689655,-5.14262,1.12924,0.3509799999999999,-0.698301435,0.7006818,0.03186027
1764434894.269963,-5.14262,1.12924,0.3509799999999999,-0.698301435,0.7006818,0.03186027
1764434894.269963,-5.14262,1.12924,0.3509799999999999,-0.698301435,0.7006818,0.03186027
1764434894.318046,-6.4855,1.0682,-0.0762999999999999,-0.697935225,0.703794585,0.03161613
1764434894.318046,-6.4855,1.0682,-0.0762999999999999,-0.697935225,0.703794585,0.03161613
1764434894.318046,-6.4855,1.0682,-0.0762999999999999,-0.697935225,0.703794585,0.03161613
1764434894.318046,-6.4855,1.0682,-0.0762999999999999,-0.697935225,0.703794585,0.03161613
1764434894.318046,-6.4855,1.0682,-0.0762999999999999,-0.697935225,0.703794585,0.03161613
1764434894.318046,-6.4855,1.0682,-0.0762999999999999,-0.697935225,0.703794585,0.03161613
1764434894.318677,-6.4855,1.0682,-0.0762999999999999,-0.697935225,0.703794585,0.03161613
1764434894.318677,-6.4855,1.0682,-0.0762999999999999,-0.697935225,0.703794585,0.03161613
1764434894.318677,-6.4855,1.0682,-0.0762999999999999,-0.697935225,0.703794585,0.03161613
1764434894.318677,-6.4855,1.0682,-0.0762999999999999,-0.697935225,0.703794585,0.03161613
1764434894.318677,-7.53844,2.04484,0.09156,-0.695005545,0.703794585,0.032165445
1764434894.318677,-7.53844,2.04484,0.09156,-0.695005545,0.703794585,0.032165445
1764434894.318677,-7.53844,2.04484,0.09156,-0.695005545,0.703794585,0.032165445
1764434894.318677,-7.53844,2.04484,0.09156,-0.695005545,0.703794585,0.032165445
1764434894.318677,-7.53844,2.04484,0.09156,-0.695005545,0.703794585,0.032165445
1764434894.318677,-7.53844,2.04484,0.09156,-0.695005545,0.703794585,0.032165445
1764434894.318677,-7.53844,2.04484,0.09156,-0.695005545,0.703794585,0.032165445
1764434894.318677,-7.53844,2.04484,0.09156,-0.695005545,0.703794585,0.032165445
1764434894.318677,-7.53844,2.04484,0.09156,-0.695005545,0.703794585,0.032165445
1764434894.318677,-7.53844,2.04484,0.09156,-0.695005545,0.703794585,0.032165445
1764434894.318677,-7.35532,2.31952,0.4578,-0.69433416,0.7020856050000001,0.033264075
1764434894.318677,-7.35532,2.31952,0.4578,-0.69433416,0.7020856050000001,0.033264075
1764434894.3636672,-7.35532,2.31952,0.4578,-0.69433416,0.7020856050000001,0.033264075
1764434894.3636672,-7.35532,2.31952,0.4578,-0.69433416,0.7020856050000001,0.033264075
1764434894.3636672,-7.35532,2.31952,0.4578,-0.69433416,0.7020856050000001,0.033264075
1764434894.3636672,-7.35532,2.31952,0.4578,-0.69433416,0.7020856050000001,0.033264075
1764434894.3636672,-7.35532,2.31952,0.4578,-0.69433416,0.7020856050000001,0.033264075
1764434894.3636672,-7.35532,2.31952,0.4578,-0.69433416,0.7020856050000001,0.033264075
1764434894.3636672,-7.35532,2.31952,0.4578,-0.69433416,0.7020856050000001,0.033264075
1764434894.3636672,-7.35532,2.31952,0.4578,-0.69433416,0.7020856050000001,0.033264075
1764434894.3636672,-7.53844,2.5179,0.39676,-0.694761405,0.69909489,0.032043375
1764434894.3636672,-7.53844,2.5179,0.39676,-0.694761405,0.69909489,0.032043375
1764434894.3636672,-7.53844,2.5179,0.39676,-0.694761405,0.69909489,0.032043375
1764434894.3636672,-7.53844,2.5179,0.39676,-0.694761405,0.69909489,0.032043375
1764434894.3636672,-7.53844,2.5179,0.39676,-0.694761405,0.69909489,0.032043375
1764434894.3636672,-7.53844,2.5179,0.39676,-0.694761405,0.69909489,0.032043375
1764434894.3646643,-7.53844,2.5179,0.39676,-0.694761405,0.69909489,0.032043375
1764434894.3646643,-7.53844,2.5179,0.39676,-0.694761405,0.69909489,0.032043375
1764434894.3646643,-7.53844,2.5179,0.39676,-0.694761405,0.69909489,0.032043375
1764434894.3646643,-7.53844,2.5179,0.39676,-0.694761405,0.69909489,0.032043375
1764434894.3646643,-5.478339999999999,2.16692,-0.06104,-0.69616521,0.69531072,0.031799235
1764434894.3646643,-5.478339999999999,2.16692,-0.06104,-0.69616521,0.69531072,0.031799235
1764434894.3646643,-5.478339999999999,2.16692,-0.06104,-0.69616521,0.69531072,0.031799235
1764434894.3646643,-5.478339999999999,2.16692,-0.06104,-0.69616521,0.69531072,0.031799235
1764434894.3646643,-5.478339999999999,2.16692,-0.06104,-0.69616521,0.69531072,0.031799235
1764434894.3646643,-5.478339999999999,2.16692,-0.06104,-0.69616521,0.69531072,0.031799235
1764434894.4059813,-5.478339999999999,2.16692,-0.06104,-0.69616521,0.69531072,0.031799235
1764434894.4059813,-5.478339999999999,2.16692,-0.06104,-0.69616521,0.69531072,0.031799235
1764434894.4059813,-5.478339999999999,2.16692,-0.06104,-0.69616521,0.69531072,0.031799235
1764434894.4059813,-5.478339999999999,2.16692,-0.06104,-0.69616521,0.69531072,0.031799235
1764434894.4059813,-4.303319999999999,0.3815,0.93086,-0.698545575,0.694761405,0.031799235
1764434894.4059813,-4.303319999999999,0.3815,0.93086,-0.698545575,0.694761405,0.031799235
1764434894.406525,-4.303319999999999,0.3815,0.93086,-0.698545575,0.694761405,0.031799235
1764434894.406525,-4.303319999999999,0.3815,0.93086,-0.698545575,0.694761405,0.031799235
1764434894.406525,-4.303319999999999,0.3815,0.93086,-0.698545575,0.694761405,0.031799235
1764434894.406525,-4.303319999999999,0.3815,0.93086,-0.698545575,0.694761405,0.031799235
1764434894.407532,-4.303319999999999,0.3815,0.93086,-0.698545575,0.694761405,0.031799235
1764434894.407532,-4.303319999999999,0.3815,0.93086,-0.698545575,0.694761405,0.031799235
1764434894.407532,-4.303319999999999,0.3815,0.93086,-0.698545575,0.694761405,0.031799235
1764434894.407532,-4.303319999999999,0.3815,0.93086,-0.698545575,0.694761405,0.031799235
1764434894.407532,-3.57084,-0.03052,1.81594,-0.699522135,0.695127615,0.032897865
1764434894.407532,-3.57084,-0.03052,1.81594,-0.699522135,0.695127615,0.032897865
1764434894.407532,-3.57084,-0.03052,1.81594,-0.699522135,0.695127615,0.032897865
1764434894.407532,-3.57084,-0.03052,1.81594,-0.699522135,0.695127615,0.032897865
1764434894.407532,-3.57084,-0.03052,1.81594,-0.699522135,0.695127615,0.032897865
1764434894.407532,-3.57084,-0.03052,1.81594,-0.699522135,0.695127615,0.032897865
1764434894.407532,-3.57084,-0.03052,1.81594,-0.699522135,0.695127615,0.032897865
1764434894.407532,-3.57084,-0.03052,1.81594,-0.699522135,0.695127615,0.032897865
1764434894.4515653,-3.57084,-0.03052,1.81594,-0.699522135,0.695127615,0.032897865
1764434894.4515653,-3.57084,-0.03052,1.81594,-0.699522135,0.695127615,0.032897865
1764434894.4515653,-3.2809,0.42728,2.38056,-0.697569015,0.698179365,0.03430167
1764434894.4515653,-3.2809,0.42728,2.38056,-0.697569015,0.698179365,0.03430167
1764434894.4515653,-3.2809,0.42728,2.38056,-0.697569015,0.698179365,0.03430167
1764434894.4515653,-3.2809,0.42728,2.38056,-0.697569015,0.698179365,0.03430167
1764434894.4515653,-3.2809,0.42728,2.38056,-0.697569015,0.698179365,0.03430167
1764434894.4515653,-3.2809,0.42728,2.38056,-0.697569015,0.698179365,0.03430167
1764434894.4515653,-3.2809,0.42728,2.38056,-0.697569015,0.698179365,0.03430167
1764434894.4515653,-3.2809,0.42728,2.38056,-0.697569015,0.698179365,0.03430167
1764434894.4515653,-3.2809,0.42728,2.38056,-0.697569015,0.698179365,0.03430167
1764434894.4515653,-3.2809,0.42728,2.38056,-0.697569015,0.698179365,0.03430167
1764434894.4515653,-4.13546,0.88508,1.69386,-0.697202805,0.70019352,0.03478995
1764434894.4515653,-4.13546,0.88508,1.69386,-0.697202805,0.70019352,0.03478995
1764434894.4525805,-4.13546,0.88508,1.69386,-0.697202805,0.70019352,0.03478995
1764434894.4525805,-4.13546,0.88508,1.69386,-0.697202805,0.70019352,0.03478995
1764434894.4525805,-4.13546,0.88508,1.69386,-0.697202805,0.70019352,0.03478995
1764434894.4525805,-4.13546,0.88508,1.69386,-0.697202805,0.70019352,0.03478995
1764434894.4525805,-4.13546,0.88508,1.69386,-0.697202805,0.70019352,0.03478995
1764434894.4525805,-4.13546,0.88508,1.69386,-0.697202805,0.70019352,0.03478995
1764434894.4525805,-4.13546,0.88508,1.69386,-0.697202805,0.70019352,0.03478995
1764434894.4525805,-4.13546,0.88508,1.69386,-0.697202805,0.70019352,0.03478995
1764434894.4982736,-5.5699,1.15976,0.27468,-0.69689763,0.705015285,0.035217195
1764434894.4982736,-5.5699,1.15976,0.27468,-0.69689763,0.705015285,0.035217195
1764434894.499282,-5.5699,1.15976,0.27468,-0.69689763,0.705015285,0.035217195
1764434894.499282,-5.5699,1.15976,0.27468,-0.69689763,0.705015285,0.035217195
1764434894.499282,-5.5699,1.15976,0.27468,-0.69689763,0.705015285,0.035217195
1764434894.499282,-5.5699,1.15976,0.27468,-0.69689763,0.705015285,0.035217195
1764434894.499282,-5.5699,1.15976,0.27468,-0.69689763,0.705015285,0.035217195
1764434894.499282,-5.5699,1.15976,0.27468,-0.69689763,0.705015285,0.035217195
1764434894.4997942,-5.5699,1.15976,0.27468,-0.69689763,0.705015285,0.035217195
1764434894.4997942,-5.5699,1.15976,0.27468,-0.69689763,0.705015285,0.035217195
1764434894.4997942,-7.782599999999999,2.19744,-0.04578,-0.69445623,0.7051983900000001,0.03454581
1764434894.4997942,-7.782599999999999,2.19744,-0.04578,-0.69445623,0.7051983900000001,0.03454581
1764434894.4997942,-7.782599999999999,2.19744,-0.04578,-0.69445623,0.7051983900000001,0.03454581
1764434894.4997942,-7.782599999999999,2.19744,-0.04578,-0.69445623,0.7051983900000001,0.03454581
1764434894.4997942,-7.782599999999999,2.19744,-0.04578,-0.69445623,0.7051983900000001,0.03454581
1764434894.4997942,-7.782599999999999,2.19744,-0.04578,-0.69445623,0.7051983900000001,0.03454581
1764434894.4997942,-7.782599999999999,2.19744,-0.04578,-0.69445623,0.7051983900000001,0.03454581
1764434894.50081,-7.782599999999999,2.19744,-0.04578,-0.69445623,0.7051983900000001,0.03454581
1764434894.50081,-7.782599999999999,2.19744,-0.04578,-0.69445623,0.7051983900000001,0.03454581
1764434894.50081,-7.782599999999999,2.19744,-0.04578,-0.69445623,0.7051983900000001,0.03454581
1764434894.50081,-8.56086,2.7468,-0.21364,-0.69506658,0.7031232000000001,0.035217195
1764434894.501804,-8.56086,2.7468,-0.21364,-0.69506658,0.7031232000000001,0.035217195
1764434894.502535,-8.56086,2.7468,-0.21364,-0.69506658,0.7031232000000001,0.035217195
1764434894.502535,-8.56086,2.7468,-0.21364,-0.69506658,0.7031232000000001,0.035217195
1764434894.543888,-8.56086,2.7468,-0.21364,-0.69506658,0.7031232000000001,0.035217195
1764434894.543888,-8.56086,2.7468,-0.21364,-0.69506658,0.7031232000000001,0.035217195
1764434894.543888,-8.56086,2.7468,-0.21364,-0.69506658,0.7031232000000001,0.035217195
1764434894.543888,-8.56086,2.7468,-0.21364,-0.69506658,0.7031232000000001,0.035217195
1764434894.543888,-8.56086,2.7468,-0.21364,-0.69506658,0.7031232000000001,0.035217195
1764434894.543888,-8.56086,2.7468,-0.21364,-0.69506658,0.7031232000000001,0.035217195
1764434894.5448935,-8.34722,1.87698,0.8087799999999999,-0.69567693,0.7015362900000001,0.035339265
1764434894.5448935,-8.34722,1.87698,0.8087799999999999,-0.69567693,0.7015362900000001,0.035339265
1764434894.5448935,-8.34722,1.87698,0.8087799999999999,-0.69567693,0.7015362900000001,0.035339265
1764434894.5448935,-8.34722,1.87698,0.8087799999999999,-0.69567693,0.7015362900000001,0.035339265
1764434894.5448935,-8.34722,1.87698,0.8087799999999999,-0.69567693,0.7015362900000001,0.035339265
1764434894.5448935,-8.34722,1.87698,0.8087799999999999,-0.69567693,0.7015362900000001,0.035339265
1764434894.5448935,-8.34722,1.87698,0.8087799999999999,-0.69567693,0.7015362900000001,0.035339265
1764434894.5448935,-8.34722,1.87698,0.8087799999999999,-0.69567693,0.7015362900000001,0.035339265
1764434894.5448935,-8.34722,1.87698,0.8087799999999999,-0.69567693,0.7015362900000001,0.035339265
1764434894.5448935,-8.34722,1.87698,0.8087799999999999,-0.69567693,0.7015362900000001,0.035339265
1764434894.5456307,-7.15694,2.4416,-3.90656,-0.6962872800000001,0.69921696,0.03601065
1764434894.5456307,-7.15694,2.4416,-3.90656,-0.6962872800000001,0.69921696,0.03601065
1764434894.5466435,-7.15694,2.4416,-3.90656,-0.6962872800000001,0.69921696,0.03601065
1764434894.5466435,-7.15694,2.4416,-3.90656,-0.6962872800000001,0.69921696,0.03601065
1764434894.5466435,-7.15694,2.4416,-3.90656,-0.6962872800000001,0.69921696,0.03601065
1764434894.5476527,-7.15694,2.4416,-3.90656,-0.6962872800000001,0.69921696,0.03601065
1764434894.5904891,-7.15694,2.4416,-3.90656,-0.6962872800000001,0.69921696,0.03601065
1764434894.5904891,-7.15694,2.4416,-3.90656,-0.6962872800000001,0.69921696,0.03601065
1764434894.5904891,-7.15694,2.4416,-3.90656,-0.6962872800000001,0.69921696,0.03601065
1764434894.5915003,-7.15694,2.4416,-3.90656,-0.6962872800000001,0.69921696,0.03601065
1764434894.5915003,-6.88226,2.04484,0.51884,-0.696226245,0.69714177,0.03588858
1764434894.5915003,-6.88226,2.04484,0.51884,-0.696226245,0.69714177,0.03588858
1764434894.5915003,-6.88226,2.04484,0.51884,-0.696226245,0.69714177,0.03588858
1764434894.5915003,-6.88226,2.04484,0.51884,-0.696226245,0.69714177,0.03588858
1764434894.5924969,-6.88226,2.04484,0.51884,-0.696226245,0.69714177,0.03588858
1764434894.592902,-6.88226,2.04484,0.51884,-0.696226245,0.69714177,0.03588858
1764434894.592902,-6.88226,2.04484,0.51884,-0.696226245,0.69714177,0.03588858
1764434894.592902,-6.88226,2.04484,0.51884,-0.696226245,0.69714177,0.03588858
1764434894.592902,-6.88226,2.04484,0.51884,-0.696226245,0.69714177,0.03588858
1764434894.5934975,-6.88226,2.04484,0.51884,-0.696226245,0.69714177,0.03588858
1764434894.5934975,-6.22608,0.74774,1.03768,-0.69775212,0.697202805,0.036621
1764434894.5934975,-6.22608,0.74774,1.03768,-0.69775212,0.697202805,0.036621
1764434894.5934975,-6.22608,0.74774,1.03768,-0.69775212,0.697202805,0.036621
1764434894.5934975,-6.22608,0.74774,1.03768,-0.69775212,0.697202805,0.036621
1764434894.5934975,-6.22608,0.74774,1.03768,-0.69775212,0.697202805,0.036621
1764434894.5934975,-6.22608,0.74774,1.03768,-0.69775212,0.697202805,0.036621
1764434894.5944955,-6.22608,0.74774,1.03768,-0.69775212,0.697202805,0.036621
1764434894.5944955,-6.22608,0.74774,1.03768,-0.69775212,0.697202805,0.036621
1764434894.5944955,-6.22608,0.74774,1.03768,-0.69775212,0.697202805,0.036621
1764434894.5944955,-6.22608,0.74774,1.03768,-0.69775212,0.697202805,0.036621
1764434894.637372,-6.42446,1.08346,1.69386,-0.695615895,0.699644205,0.036926175
1764434894.637372,-6.42446,1.08346,1.69386,-0.695615895,0.699644205,0.036926175
1764434894.637372,-6.42446,1.08346,1.69386,-0.695615895,0.699644205,0.036926175
1764434894.637372,-6.42446,1.08346,1.69386,-0.695615895,0.699644205,0.036926175
1764434894.637372,-6.42446,1.08346,1.69386,-0.695615895,0.699644205,0.036926175
1764434894.637372,-6.42446,1.08346,1.69386,-0.695615895,0.699644205,0.036926175
1764434894.637372,-6.42446,1.08346,1.69386,-0.695615895,0.699644205,0.036926175
1764434894.637372,-6.42446,1.08346,1.69386,-0.695615895,0.699644205,0.036926175
1764434894.6383843,-6.42446,1.08346,1.69386,-0.695615895,0.699644205,0.036926175
1764434894.6383843,-6.42446,1.08346,1.69386,-0.695615895,0.699644205,0.036926175
1764434894.6383843,-5.40204,2.1364,0.8698199999999999,-0.6936627750000001,0.697691085,0.036193755
1764434894.6383843,-5.40204,2.1364,0.8698199999999999,-0.6936627750000001,0.697691085,0.036193755
1764434894.6383843,-5.40204,2.1364,0.8698199999999999,-0.6936627750000001,0.697691085,0.036193755
1764434894.6383843,-5.40204,2.1364,0.8698199999999999,-0.6936627750000001,0.697691085,0.036193755
1764434894.6383843,-5.40204,2.1364,0.8698199999999999,-0.6936627750000001,0.697691085,0.036193755
1764434894.6383843,-5.40204,2.1364,0.8698199999999999,-0.6936627750000001,0.697691085,0.036193755
1764434894.6383843,-5.40204,2.1364,0.8698199999999999,-0.6936627750000001,0.697691085,0.036193755
1764434894.6383843,-5.40204,2.1364,0.8698199999999999,-0.6936627750000001,0.697691085,0.036193755
1764434894.6383843,-5.40204,2.1364,0.8698199999999999,-0.6936627750000001,0.697691085,0.036193755
1764434894.6383843,-5.40204,2.1364,0.8698199999999999,-0.6936627750000001,0.697691085,0.036193755
1764434894.6383843,-4.56274,2.27374,0.79352,-0.696348315,0.69848454,0.035705475
1764434894.6393828,-4.56274,2.27374,0.79352,-0.696348315,0.69848454,0.035705475
1764434894.6393828,-4.56274,2.27374,0.79352,-0.696348315,0.69848454,0.035705475
1764434894.6393828,-4.56274,2.27374,0.79352,-0.696348315,0.69848454,0.035705475
1764434894.6840425,-4.56274,2.27374,0.79352,-0.696348315,0.69848454,0.035705475
1764434894.6840425,-4.56274,2.27374,0.79352,-0.696348315,0.69848454,0.035705475
1764434894.6840425,-4.56274,2.27374,0.79352,-0.696348315,0.69848454,0.035705475
1764434894.6840425,-4.56274,2.27374,0.79352,-0.696348315,0.69848454,0.035705475
1764434894.6840425,-4.56274,2.27374,0.79352,-0.696348315,0.69848454,0.035705475
1764434894.6840425,-4.56274,2.27374,0.79352,-0.696348315,0.69848454,0.035705475
1764434894.6840425,-5.66146,-0.0762999999999999,1.69386,-0.69860661,0.70287906,0.03515616
1764434894.6840425,-5.66146,-0.0762999999999999,1.69386,-0.69860661,0.70287906,0.03515616
1764434894.6840425,-5.66146,-0.0762999999999999,1.69386,-0.69860661,0.70287906,0.03515616
1764434894.6840425,-5.66146,-0.0762999999999999,1.69386,-0.69860661,0.70287906,0.03515616
1764434894.6840425,-5.66146,-0.0762999999999999,1.69386,-0.69860661,0.70287906,0.03515616
1764434894.6840425,-5.66146,-0.0762999999999999,1.69386,-0.69860661,0.70287906,0.03515616
1764434894.6840425,-5.66146,-0.0762999999999999,1.69386,-0.69860661,0.70287906,0.03515616
1764434894.6840425,-5.66146,-0.0762999999999999,1.69386,-0.69860661,0.70287906,0.03515616
1764434894.6840425,-5.66146,-0.0762999999999999,1.69386,-0.69860661,0.70287906,0.03515616
1764434894.6840425,-5.66146,-0.0762999999999999,1.69386,-0.69860661,0.70287906,0.03515616
1764434894.6840425,-8.34722,0.54936,1.31236,-0.69848454,0.70605288,0.034973055
1764434894.6840425,-8.34722,0.54936,1.31236,-0.69848454,0.70605288,0.034973055
1764434894.6840425,-8.34722,0.54936,1.31236,-0.69848454,0.70605288,0.034973055
1764434894.6840425,-8.34722,0.54936,1.31236,-0.69848454,0.70605288,0.034973055
1764434894.6840425,-8.34722,0.54936,1.31236,-0.69848454,0.70605288,0.034973055
1764434894.6840425,-8.34722,0.54936,1.31236,-0.69848454,0.70605288,0.034973055
1764434894.7323632,-8.34722,0.54936,1.31236,-0.69848454,0.70605288,0.034973055
1764434894.7323632,-8.34722,0.54936,1.31236,-0.69848454,0.70605288,0.034973055
1764434894.7323632,-8.34722,0.54936,1.31236,-0.69848454,0.70605288,0.034973055
1764434894.7323632,-8.34722,0.54936,1.31236,-0.69848454,0.70605288,0.034973055
1764434894.7323632,-8.5456,1.70912,1.02242,-0.69689763,0.703672515,0.036559965
1764434894.7323632,-8.5456,1.70912,1.02242,-0.69689763,0.703672515,0.036559965
1764434894.7323632,-8.5456,1.70912,1.02242,-0.69689763,0.703672515,0.036559965
1764434894.7323632,-8.5456,1.70912,1.02242,-0.69689763,0.703672515,0.036559965
1764434894.7323632,-8.5456,1.70912,1.02242,-0.69689763,0.703672515,0.036559965
1764434894.7323632,-8.5456,1.70912,1.02242,-0.69689763,0.703672515,0.036559965
1764434894.7323632,-8.5456,1.70912,1.02242,-0.69689763,0.703672515,0.036559965
1764434894.7323632,-8.5456,1.70912,1.02242,-0.69689763,0.703672515,0.036559965
1764434894.7323632,-8.5456,1.70912,1.02242,-0.69689763,0.703672515,0.036559965
1764434894.7323632,-8.5456,1.70912,1.02242,-0.69689763,0.703672515,0.036559965
1764434894.7323632,-6.302379999999999,1.73964,0.94612,-0.696104175,0.70055973,0.037658595
1764434894.7323632,-6.302379999999999,1.73964,0.94612,-0.696104175,0.70055973,0.037658595
1764434894.7323632,-6.302379999999999,1.73964,0.94612,-0.696104175,0.70055973,0.037658595
1764434894.7323632,-6.302379999999999,1.73964,0.94612,-0.696104175,0.70055973,0.037658595
1764434894.7323632,-6.302379999999999,1.73964,0.94612,-0.696104175,0.70055973,0.037658595
1764434894.7323632,-6.302379999999999,1.73964,0.94612,-0.696104175,0.70055973,0.037658595
1764434894.7323632,-6.302379999999999,1.73964,0.94612,-0.696104175,0.70055973,0.037658595
1764434894.7333708,-6.302379999999999,1.73964,0.94612,-0.696104175,0.70055973,0.037658595
1764434894.7742145,-6.302379999999999,1.73964,0.94612,-0.696104175,0.70055973,0.037658595
1764434894.7742145,-6.302379999999999,1.73964,0.94612,-0.696104175,0.70055973,0.037658595
1764434894.7742145,-5.63094,1.87698,1.2055399999999998,-0.69543279,0.700620765,0.037292385
1764434894.7752242,-5.63094,1.87698,1.2055399999999998,-0.69543279,0.700620765,0.037292385
1764434894.7752242,-5.63094,1.87698,1.2055399999999998,-0.69543279,0.700620765,0.037292385
1764434894.7752242,-5.63094,1.87698,1.2055399999999998,-0.69543279,0.700620765,0.037292385
1764434894.7762487,-5.63094,1.87698,1.2055399999999998,-0.69543279,0.700620765,0.037292385
1764434894.7762487,-5.63094,1.87698,1.2055399999999998,-0.69543279,0.700620765,0.037292385
1764434894.7762487,-5.63094,1.87698,1.2055399999999998,-0.69543279,0.700620765,0.037292385
1764434894.7762487,-5.63094,1.87698,1.2055399999999998,-0.69543279,0.700620765,0.037292385
1764434894.7762487,-5.63094,1.87698,1.2055399999999998,-0.69543279,0.700620765,0.037292385
1764434894.7762487,-5.63094,1.87698,1.2055399999999998,-0.69543279,0.700620765,0.037292385
1764434894.7762487,-6.05822,1.63282,1.2971,-0.69531072,0.70007145,0.03674307
1764434894.7762487,-6.05822,1.63282,1.2971,-0.69531072,0.70007145,0.03674307
1764434894.7762487,-6.05822,1.63282,1.2971,-0.69531072,0.70007145,0.03674307
1764434894.7762487,-6.05822,1.63282,1.2971,-0.69531072,0.70007145,0.03674307
1764434894.7762487,-6.05822,1.63282,1.2971,-0.69531072,0.70007145,0.03674307
1764434894.7762487,-6.05822,1.63282,1.2971,-0.69531072,0.70007145,0.03674307
1764434894.7762487,-6.05822,1.63282,1.2971,-0.69531072,0.70007145,0.03674307
1764434894.7762487,-6.05822,1.63282,1.2971,-0.69531072,0.70007145,0.03674307
1764434894.7762487,-6.05822,1.63282,1.2971,-0.69531072,0.70007145,0.03674307
1764434894.7762487,-6.05822,1.63282,1.2971,-0.69531072,0.70007145,0.03674307
1764434894.7777686,-6.21082,1.96854,0.48832,-0.69518865,0.69909489,0.037658595
1764434894.7777686,-6.21082,1.96854,0.48832,-0.69518865,0.69909489,0.037658595
1764434894.824929,-6.21082,1.96854,0.48832,-0.69518865,0.69909489,0.037658595
1764434894.824929,-6.21082,1.96854,0.48832,-0.69518865,0.69909489,0.037658595
1764434894.824929,-6.21082,1.96854,0.48832,-0.69518865,0.69909489,0.037658595
1764434894.8264666,-6.21082,1.96854,0.48832,-0.69518865,0.69909489,0.037658595
1764434894.8264666,-6.21082,1.96854,0.48832,-0.69518865,0.69909489,0.037658595
1764434894.8264666,-6.21082,1.96854,0.48832,-0.69518865,0.69909489,0.037658595
1764434894.8264666,-6.21082,1.96854,0.48832,-0.69518865,0.69909489,0.037658595
1764434894.8274784,-6.21082,1.96854,0.48832,-0.69518865,0.69909489,0.037658595
1764434894.8274784,-5.371519999999999,0.56462,0.18312,-0.69604314,0.699888345,0.039001365
1764434894.8274784,-5.371519999999999,0.56462,0.18312,-0.69604314,0.699888345,0.039001365
1764434894.8274784,-5.371519999999999,0.56462,0.18312,-0.69604314,0.699888345,0.039001365
1764434894.8274784,-5.371519999999999,0.56462,0.18312,-0.69604314,0.699888345,0.039001365
1764434894.8284836,-5.371519999999999,0.56462,0.18312,-0.69604314,0.699888345,0.039001365
1764434894.8284836,-5.371519999999999,0.56462,0.18312,-0.69604314,0.699888345,0.039001365
1764434894.8284836,-5.371519999999999,0.56462,0.18312,-0.69604314,0.699888345,0.039001365
1764434894.8284836,-5.371519999999999,0.56462,0.18312,-0.69604314,0.699888345,0.039001365
1764434894.829482,-5.371519999999999,0.56462,0.18312,-0.69604314,0.699888345,0.039001365
1764434894.829482,-5.371519999999999,0.56462,0.18312,-0.69604314,0.699888345,0.039001365
1764434894.829482,-6.165039999999999,1.03768,1.72438,-0.695860035,0.703550445,0.03857412
1764434894.829482,-6.165039999999999,1.03768,1.72438,-0.695860035,0.703550445,0.03857412
1764434894.829482,-6.165039999999999,1.03768,1.72438,-0.695860035,0.703550445,0.03857412
1764434894.830486,-6.165039999999999,1.03768,1.72438,-0.695860035,0.703550445,0.03857412
1764434894.830486,-6.165039999999999,1.03768,1.72438,-0.695860035,0.703550445,0.03857412
1764434894.830486,-6.165039999999999,1.03768,1.72438,-0.695860035,0.703550445,0.03857412
1764434894.8704748,-6.165039999999999,1.03768,1.72438,-0.695860035,0.703550445,0.03857412
1764434894.8704748,-6.165039999999999,1.03768,1.72438,-0.695860035,0.703550445,0.03857412
1764434894.8714724,-6.165039999999999,1.03768,1.72438,-0.695860035,0.703550445,0.03857412
1764434894.8714724,-6.165039999999999,1.03768,1.72438,-0.695860035,0.703550445,0.03857412
1764434894.8714724,-6.47024,2.41108,0.41202,-0.69494451,0.70251285,0.03796377
1764434894.8714724,-6.47024,2.41108,0.41202,-0.69494451,0.70251285,0.03796377
1764434894.872471,-6.47024,2.41108,0.41202,-0.69494451,0.70251285,0.03796377
1764434894.872471,-6.47024,2.41108,0.41202,-0.69494451,0.70251285,0.03796377
1764434894.8728428,-6.47024,2.41108,0.41202,-0.69494451,0.70251285,0.03796377
1764434894.8728428,-6.47024,2.41108,0.41202,-0.69494451,0.70251285,0.03796377
1764434894.8728428,-6.47024,2.41108,0.41202,-0.69494451,0.70251285,0.03796377
1764434894.8728428,-6.47024,2.41108,0.41202,-0.69494451,0.70251285,0.03796377
1764434894.873551,-6.47024,2.41108,0.41202,-0.69494451,0.70251285,0.03796377
1764434894.873551,-6.47024,2.41108,0.41202,-0.69494451,0.70251285,0.03796377
1764434894.873551,-4.86794,1.6022999999999998,-0.3509799999999999,-0.696104175,0.70117008,0.04016103
1764434894.873551,-4.86794,1.6022999999999998,-0.3509799999999999,-0.696104175,0.70117008,0.04016103
1764434894.873551,-4.86794,1.6022999999999998,-0.3509799999999999,-0.696104175,0.70117008,0.04016103
1764434894.873551,-4.86794,1.6022999999999998,-0.3509799999999999,-0.696104175,0.70117008,0.04016103
1764434894.873551,-4.86794,1.6022999999999998,-0.3509799999999999,-0.696104175,0.70117008,0.04016103
1764434894.8745582,-4.86794,1.6022999999999998,-0.3509799999999999,-0.696104175,0.70117008,0.04016103
1764434894.8745582,-4.86794,1.6022999999999998,-0.3509799999999999,-0.696104175,0.70117008,0.04016103
1764434894.8745582,-4.86794,1.6022999999999998,-0.3509799999999999,-0.696104175,0.70117008,0.04016103
1764434894.9151323,-4.86794,1.6022999999999998,-0.3509799999999999,-0.696104175,0.70117008,0.04016103
1764434894.9161465,-4.86794,1.6022999999999998,-0.3509799999999999,-0.696104175,0.70117008,0.04016103
1764434894.9161465,-4.25754,0.94612,0.47306,-0.695982105,0.700986975,0.03967275
1764434894.9161465,-4.25754,0.94612,0.47306,-0.695982105,0.700986975,0.03967275
1764434894.9161465,-4.25754,0.94612,0.47306,-0.695982105,0.700986975,0.03967275
1764434894.9161465,-4.25754,0.94612,0.47306,-0.695982105,0.700986975,0.03967275
1764434894.9171474,-4.25754,0.94612,0.47306,-0.695982105,0.700986975,0.03967275
1764434894.9181511,-4.25754,0.94612,0.47306,-0.695982105,0.700986975,0.03967275
1764434894.9181511,-4.25754,0.94612,0.47306,-0.695982105,0.700986975,0.03967275
1764434894.9181511,-4.25754,0.94612,0.47306,-0.695982105,0.700986975,0.03967275
1764434894.9181511,-4.25754,0.94612,0.47306,-0.695982105,0.700986975,0.03967275
1764434894.919147,-4.25754,0.94612,0.47306,-0.695982105,0.700986975,0.03967275
1764434894.919147,-4.303319999999999,0.54936,1.19028,-0.69518865,0.701353185,0.040222065
1764434894.919147,-4.303319999999999,0.54936,1.19028,-0.69518865,0.701353185,0.040222065
1764434894.919147,-4.303319999999999,0.54936,1.19028,-0.69518865,0.701353185,0.040222065
1764434894.919147,-4.303319999999999,0.54936,1.19028,-0.69518865,0.701353185,0.040222065
1764434894.919147,-4.303319999999999,0.54936,1.19028,-0.69518865,0.701353185,0.040222065
1764434894.9201472,-4.303319999999999,0.54936,1.19028,-0.69518865,0.701353185,0.040222065
1764434894.9201472,-4.303319999999999,0.54936,1.19028,-0.69518865,0.701353185,0.040222065
1764434894.9201472,-4.303319999999999,0.54936,1.19028,-0.69518865,0.701353185,0.040222065
1764434894.9201472,-4.303319999999999,0.54936,1.19028,-0.69518865,0.701353185,0.040222065
1764434894.9201472,-4.303319999999999,0.54936,1.19028,-0.69518865,0.701353185,0.040222065
1764434894.9201472,-5.1884,0.77826,0.59514,-0.695493825,0.70385562,0.040099995
1764434894.9201472,-5.1884,0.77826,0.59514,-0.695493825,0.70385562,0.040099995
1764434894.9663098,-5.1884,0.77826,0.59514,-0.695493825,0.70385562,0.040099995
1764434894.9663098,-5.1884,0.77826,0.59514,-0.695493825,0.70385562,0.040099995
1764434894.9663098,-5.1884,0.77826,0.59514,-0.695493825,0.70385562,0.040099995
1764434894.9663098,-5.1884,0.77826,0.59514,-0.695493825,0.70385562,0.040099995
1764434894.9663098,-5.1884,0.77826,0.59514,-0.695493825,0.70385562,0.040099995
1764434894.9663098,-5.1884,0.77826,0.59514,-0.695493825,0.70385562,0.040099995
1764434894.9663098,-5.1884,0.77826,0.59514,-0.695493825,0.70385562,0.040099995
1764434894.9663098,-5.1884,0.77826,0.59514,-0.695493825,0.70385562,0.040099995
1764434894.9663098,-5.96666,1.64808,-0.1525999999999999,-0.69470037,0.70397769,0.040954485
1764434894.967307,-5.96666,1.64808,-0.1525999999999999,-0.69470037,0.70397769,0.040954485
1764434894.967307,-5.96666,1.64808,-0.1525999999999999,-0.69470037,0.70397769,0.040954485
1764434894.967307,-5.96666,1.64808,-0.1525999999999999,-0.69470037,0.70397769,0.040954485
1764434894.967307,-5.96666,1.64808,-0.1525999999999999,-0.69470037,0.70397769,0.040954485
1764434894.967307,-5.96666,1.64808,-0.1525999999999999,-0.69470037,0.70397769,0.040954485
1764434894.967307,-5.96666,1.64808,-0.1525999999999999,-0.69470037,0.70397769,0.040954485
1764434894.967307,-5.96666,1.64808,-0.1525999999999999,-0.69470037,0.70397769,0.040954485
1764434894.967307,-5.96666,1.64808,-0.1525999999999999,-0.69470037,0.70397769,0.040954485
1764434894.967307,-5.96666,1.64808,-0.1525999999999999,-0.69470037,0.70397769,0.040954485
1764434894.967307,-5.67672,2.6705,-0.56462,-0.69396795,0.70275699,0.04089345
1764434894.967307,-5.67672,2.6705,-0.56462,-0.69396795,0.70275699,0.04089345
1764434894.967307,-5.67672,2.6705,-0.56462,-0.69396795,0.70275699,0.04089345
1764434894.967307,-5.67672,2.6705,-0.56462,-0.69396795,0.70275699,0.04089345
1764434894.967307,-5.67672,2.6705,-0.56462,-0.69396795,0.70275699,0.04089345
1764434894.967307,-5.67672,2.6705,-0.56462,-0.69396795,0.70275699,0.04089345
1764434895.011125,-5.67672,2.6705,-0.56462,-0.69396795,0.70275699,0.04089345
1764434895.011125,-5.67672,2.6705,-0.56462,-0.69396795,0.70275699,0.04089345
1764434895.011125,-5.67672,2.6705,-0.56462,-0.69396795,0.70275699,0.04089345
1764434895.011125,-5.67672,2.6705,-0.56462,-0.69396795,0.70275699,0.04089345
1764434895.011125,-6.104,1.84646,0.13734,-0.69409002,0.701475255,0.039733785
1764434895.011125,-6.104,1.84646,0.13734,-0.69409002,0.701475255,0.039733785
1764434895.011125,-6.104,1.84646,0.13734,-0.69409002,0.701475255,0.039733785
1764434895.011125,-6.104,1.84646,0.13734,-0.69409002,0.701475255,0.039733785
1764434895.011125,-6.104,1.84646,0.13734,-0.69409002,0.701475255,0.039733785
1764434895.011125,-6.104,1.84646,0.13734,-0.69409002,0.701475255,0.039733785
1764434895.011125,-6.104,1.84646,0.13734,-0.69409002,0.701475255,0.039733785
1764434895.011125,-6.104,1.84646,0.13734,-0.69409002,0.701475255,0.039733785
1764434895.011125,-6.104,1.84646,0.13734,-0.69409002,0.701475255,0.039733785
1764434895.011125,-6.104,1.84646,0.13734,-0.69409002,0.701475255,0.039733785
1764434895.011125,-5.17314,2.09062,1.09872,-0.69445623,0.69921696,0.03857412
1764434895.011125,-5.17314,2.09062,1.09872,-0.69445623,0.69921696,0.03857412
1764434895.011125,-5.17314,2.09062,1.09872,-0.69445623,0.69921696,0.03857412
1764434895.011125,-5.17314,2.09062,1.09872,-0.69445623,0.69921696,0.03857412
1764434895.011125,-5.17314,2.09062,1.09872,-0.69445623,0.69921696,0.03857412
1764434895.011125,-5.17314,2.09062,1.09872,-0.69445623,0.69921696,0.03857412
1764434895.011125,-5.17314,2.09062,1.09872,-0.69445623,0.69921696,0.03857412
1764434895.011125,-5.17314,2.09062,1.09872,-0.69445623,0.69921696,0.03857412
1764434895.056113,-5.17314,2.09062,1.09872,-0.69445623,0.69921696,0.03857412
1764434895.056113,-5.17314,2.09062,1.09872,-0.69445623,0.69921696,0.03857412
1764434895.056113,-4.13546,1.17502,0.3815,-0.694761405,0.69933903,0.039611715
1764434895.056113,-4.13546,1.17502,0.3815,-0.694761405,0.69933903,0.039611715
1764434895.056113,-4.13546,1.17502,0.3815,-0.694761405,0.69933903,0.039611715
1764434895.056113,-4.13546,1.17502,0.3815,-0.694761405,0.69933903,0.039611715
1764434895.056113,-4.13546,1.17502,0.3815,-0.694761405,0.69933903,0.039611715
1764434895.056113,-4.13546,1.17502,0.3815,-0.694761405,0.69933903,0.039611715
1764434895.056113,-4.13546,1.17502,0.3815,-0.694761405,0.69933903,0.039611715
1764434895.056113,-4.13546,1.17502,0.3815,-0.694761405,0.69933903,0.039611715
1764434895.0581355,-4.13546,1.17502,0.3815,-0.694761405,0.69933903,0.039611715
1764434895.0581355,-4.13546,1.17502,0.3815,-0.694761405,0.69933903,0.039611715
1764434895.0581355,-4.02864,1.03768,0.3815,-0.6952496850000001,0.699522135,0.0402831
1764434895.0581355,-4.02864,1.03768,0.3815,-0.6952496850000001,0.699522135,0.0402831
1764434895.0581355,-4.02864,1.03768,0.3815,-0.6952496850000001,0.699522135,0.0402831
1764434895.059126,-4.02864,1.03768,0.3815,-0.6952496850000001,0.699522135,0.0402831
1764434895.059126,-4.02864,1.03768,0.3815,-0.6952496850000001,0.699522135,0.0402831
1764434895.059863,-4.02864,1.03768,0.3815,-0.6952496850000001,0.699522135,0.0402831
1764434895.059863,-4.02864,1.03768,0.3815,-0.6952496850000001,0.699522135,0.0402831
1764434895.059863,-4.02864,1.03768,0.3815,-0.6952496850000001,0.699522135,0.0402831
1764434895.059863,-4.02864,1.03768,0.3815,-0.6952496850000001,0.699522135,0.0402831
1764434895.059863,-4.02864,1.03768,0.3815,-0.6952496850000001,0.699522135,0.0402831
1764434895.1036253,-4.48644,1.34288,0.9156,-0.6952496850000001,0.69970524,0.04101552
1764434895.1036253,-4.48644,1.34288,0.9156,-0.6952496850000001,0.69970524,0.04101552
1764434895.1036253,-4.48644,1.34288,0.9156,-0.6952496850000001,0.69970524,0.04101552
1764434895.1046324,-4.48644,1.34288,0.9156,-0.6952496850000001,0.69970524,0.04101552
1764434895.1046324,-4.48644,1.34288,0.9156,-0.6952496850000001,0.69970524,0.04101552
1764434895.1046324,-4.48644,1.34288,0.9156,-0.6952496850000001,0.69970524,0.04101552
1764434895.1046324,-4.48644,1.34288,0.9156,-0.6952496850000001,0.69970524,0.04101552
1764434895.1046324,-4.48644,1.34288,0.9156,-0.6952496850000001,0.69970524,0.04101552
1764434895.1046324,-4.48644,1.34288,0.9156,-0.6952496850000001,0.69970524,0.04101552
1764434895.1046324,-4.48644,1.34288,0.9156,-0.6952496850000001,0.69970524,0.04101552
1764434895.1046324,-3.76922,1.51074,1.3734,-0.695615895,0.699766275,0.04125966
1764434895.1046324,-3.76922,1.51074,1.3734,-0.695615895,0.699766275,0.04125966
1764434895.1046324,-3.76922,1.51074,1.3734,-0.695615895,0.699766275,0.04125966
1764434895.1046324,-3.76922,1.51074,1.3734,-0.695615895,0.699766275,0.04125966
1764434895.1046324,-3.76922,1.51074,1.3734,-0.695615895,0.699766275,0.04125966
1764434895.1046324,-3.76922,1.51074,1.3734,-0.695615895,0.699766275,0.04125966
1764434895.1046324,-3.76922,1.51074,1.3734,-0.695615895,0.699766275,0.04125966
1764434895.1046324,-3.76922,1.51074,1.3734,-0.695615895,0.699766275,0.04125966
1764434895.1046324,-3.76922,1.51074,1.3734,-0.695615895,0.699766275,0.04125966
1764434895.1046324,-3.76922,1.51074,1.3734,-0.695615895,0.699766275,0.04125966
1764434895.1046324,-2.60946,0.6714399999999999,0.85456,-0.6962872800000001,0.70141422,0.04064931
1764434895.1046324,-2.60946,0.6714399999999999,0.85456,-0.6962872800000001,0.70141422,0.04064931
1764434895.1046324,-2.60946,0.6714399999999999,0.85456,-0.6962872800000001,0.70141422,0.04064931
1764434895.1046324,-2.60946,0.6714399999999999,0.85456,-0.6962872800000001,0.70141422,0.04064931
1764434895.1554108,-2.60946,0.6714399999999999,0.85456,-0.6962872800000001,0.70141422,0.04064931
1764434895.1564004,-2.60946,0.6714399999999999,0.85456,-0.6962872800000001,0.70141422,0.04064931
1764434895.1564004,-2.60946,0.6714399999999999,0.85456,-0.6962872800000001,0.70141422,0.04064931
1764434895.1564004,-2.60946,0.6714399999999999,0.85456,-0.6962872800000001,0.70141422,0.04064931
1764434895.1564004,-2.60946,0.6714399999999999,0.85456,-0.6962872800000001,0.70141422,0.04064931
1764434895.1564004,-2.60946,0.6714399999999999,0.85456,-0.6962872800000001,0.70141422,0.04064931
1764434895.1564004,-3.7387,1.15976,0.41202,-0.694639335,0.703184235,0.04077138
1764434895.1564004,-3.7387,1.15976,0.41202,-0.694639335,0.703184235,0.04077138
1764434895.1564004,-3.7387,1.15976,0.41202,-0.694639335,0.703184235,0.04077138
1764434895.1564004,-3.7387,1.15976,0.41202,-0.694639335,0.703184235,0.04077138
1764434895.1564004,-3.7387,1.15976,0.41202,-0.694639335,0.703184235,0.04077138
1764434895.1564004,-3.7387,1.15976,0.41202,-0.694639335,0.703184235,0.04077138
1764434895.1564004,-3.7387,1.15976,0.41202,-0.694639335,0.703184235,0.04077138
1764434895.1564004,-3.7387,1.15976,0.41202,-0.694639335,0.703184235,0.04077138
1764434895.1564004,-3.7387,1.15976,0.41202,-0.694639335,0.703184235,0.04077138
1764434895.1564004,-3.7387,1.15976,0.41202,-0.694639335,0.703184235,0.04077138
1764434895.1564004,-5.1121,1.6022999999999998,0.3051999999999999,-0.693296565,0.703916655,0.041198625
1764434895.1564004,-5.1121,1.6022999999999998,0.3051999999999999,-0.693296565,0.703916655,0.041198625
1764434895.1564004,-5.1121,1.6022999999999998,0.3051999999999999,-0.693296565,0.703916655,0.041198625
1764434895.1564004,-5.1121,1.6022999999999998,0.3051999999999999,-0.693296565,0.703916655,0.041198625
1764434895.1564004,-5.1121,1.6022999999999998,0.3051999999999999,-0.693296565,0.703916655,0.041198625
1764434895.1564004,-5.1121,1.6022999999999998,0.3051999999999999,-0.693296565,0.703916655,0.041198625
1764434895.1564004,-5.1121,1.6022999999999998,0.3051999999999999,-0.693296565,0.703916655,0.041198625
1764434895.1564004,-5.1121,1.6022999999999998,0.3051999999999999,-0.693296565,0.703916655,0.041198625
1764434895.1564004,-5.1121,1.6022999999999998,0.3051999999999999,-0.693296565,0.703916655,0.041198625
1764434895.1564004,-5.1121,1.6022999999999998,0.3051999999999999,-0.693296565,0.703916655,0.041198625
1764434895.1977124,-6.302379999999999,2.50264,-0.0762999999999999,-0.692930355,0.70275699,0.041320695
1764434895.1977124,-6.302379999999999,2.50264,-0.0762999999999999,-0.692930355,0.70275699,0.041320695
1764434895.1977124,-6.302379999999999,2.50264,-0.0762999999999999,-0.692930355,0.70275699,0.041320695
1764434895.1977124,-6.302379999999999,2.50264,-0.0762999999999999,-0.692930355,0.70275699,0.041320695
1764434895.1977124,-6.302379999999999,2.50264,-0.0762999999999999,-0.692930355,0.70275699,0.041320695
1764434895.1977124,-6.302379999999999,2.50264,-0.0762999999999999,-0.692930355,0.70275699,0.041320695
1764434895.1977124,-6.302379999999999,2.50264,-0.0762999999999999,-0.692930355,0.70275699,0.041320695
1764434895.1977124,-6.302379999999999,2.50264,-0.0762999999999999,-0.692930355,0.70275699,0.041320695
1764434895.1977124,-6.302379999999999,2.50264,-0.0762999999999999,-0.692930355,0.70275699,0.041320695
1764434895.1977124,-6.302379999999999,2.50264,-0.0762999999999999,-0.692930355,0.70275699,0.041320695
1764434895.1977124,-5.20366,3.052,-0.28994,-0.694028985,0.70080387,0.040710345
1764434895.1977124,-5.20366,3.052,-0.28994,-0.694028985,0.70080387,0.040710345
1764434895.1977124,-5.20366,3.052,-0.28994,-0.694028985,0.70080387,0.040710345
1764434895.1977124,-5.20366,3.052,-0.28994,-0.694028985,0.70080387,0.040710345
1764434895.1977124,-5.20366,3.052,-0.28994,-0.694028985,0.70080387,0.040710345
1764434895.1977124,-5.20366,3.052,-0.28994,-0.694028985,0.70080387,0.040710345
1764434895.1977124,-5.20366,3.052,-0.28994,-0.694028985,0.70080387,0.040710345
1764434895.1977124,-5.20366,3.052,-0.28994,-0.694028985,0.70080387,0.040710345
1764434895.1977124,-5.20366,3.052,-0.28994,-0.694028985,0.70080387,0.040710345
1764434895.1977124,-5.20366,3.052,-0.28994,-0.694028985,0.70080387,0.040710345
1764434895.1987066,-4.22702,1.49548,0.44254,-0.696226245,0.700864905,0.039733785
1764434895.1987066,-4.22702,1.49548,0.44254,-0.696226245,0.700864905,0.039733785
1764434895.244535,-4.22702,1.49548,0.44254,-0.696226245,0.700864905,0.039733785
1764434895.244535,-4.22702,1.49548,0.44254,-0.696226245,0.700864905,0.039733785
1764434895.244535,-4.22702,1.49548,0.44254,-0.696226245,0.700864905,0.039733785
1764434895.244535,-4.22702,1.49548,0.44254,-0.696226245,0.700864905,0.039733785
1764434895.244535,-4.22702,1.49548,0.44254,-0.696226245,0.700864905,0.039733785
1764434895.244535,-4.22702,1.49548,0.44254,-0.696226245,0.700864905,0.039733785
1764434895.244535,-4.22702,1.49548,0.44254,-0.696226245,0.700864905,0.039733785
1764434895.244535,-4.22702,1.49548,0.44254,-0.696226245,0.700864905,0.039733785
1764434895.244535,-5.14262,0.8698199999999999,1.03768,-0.695615895,0.701841465,0.03967275
1764434895.244535,-5.14262,0.8698199999999999,1.03768,-0.695615895,0.701841465,0.03967275
1764434895.244535,-5.14262,0.8698199999999999,1.03768,-0.695615895,0.701841465,0.03967275
1764434895.244535,-5.14262,0.8698199999999999,1.03768,-0.695615895,0.701841465,0.03967275
1764434895.2455342,-5.14262,0.8698199999999999,1.03768,-0.695615895,0.701841465,0.03967275
1764434895.2455342,-5.14262,0.8698199999999999,1.03768,-0.695615895,0.701841465,0.03967275
1764434895.2455342,-5.14262,0.8698199999999999,1.03768,-0.695615895,0.701841465,0.03967275
1764434895.2455342,-5.14262,0.8698199999999999,1.03768,-0.695615895,0.701841465,0.03967275
1764434895.2455342,-5.14262,0.8698199999999999,1.03768,-0.695615895,0.701841465,0.03967275
1764434895.2455342,-5.14262,0.8698199999999999,1.03768,-0.695615895,0.701841465,0.03967275
1764434895.2455342,-4.8832,1.9075,0.50358,-0.694151055,0.70007145,0.040832415
1764434895.2455342,-4.8832,1.9075,0.50358,-0.694151055,0.70007145,0.040832415
1764434895.2455342,-4.8832,1.9075,0.50358,-0.694151055,0.70007145,0.040832415
1764434895.2455342,-4.8832,1.9075,0.50358,-0.694151055,0.70007145,0.040832415
1764434895.2890155,-4.8832,1.9075,0.50358,-0.694151055,0.70007145,0.040832415
1764434895.2890155,-4.8832,1.9075,0.50358,-0.694151055,0.70007145,0.040832415
1764434895.2890155,-4.8832,1.9075,0.50358,-0.694151055,0.70007145,0.040832415
1764434895.2890155,-4.8832,1.9075,0.50358,-0.694151055,0.70007145,0.040832415
1764434895.2890155,-4.8832,1.9075,0.50358,-0.694151055,0.70007145,0.040832415
1764434895.2890155,-4.8832,1.9075,0.50358,-0.694151055,0.70007145,0.040832415
1764434895.2895615,-3.52506,2.15166,0.12208,-0.693784845,0.69775212,0.04064931
1764434895.2895615,-3.52506,2.15166,0.12208,-0.693784845,0.69775212,0.04064931
1764434895.2895615,-3.52506,2.15166,0.12208,-0.693784845,0.69775212,0.04064931
1764434895.2895615,-3.52506,2.15166,0.12208,-0.693784845,0.69775212,0.04064931
1764434895.2895615,-3.52506,2.15166,0.12208,-0.693784845,0.69775212,0.04064931
1764434895.2895615,-3.52506,2.15166,0.12208,-0.693784845,0.69775212,0.04064931
1764434895.2895615,-3.52506,2.15166,0.12208,-0.693784845,0.69775212,0.04064931
1764434895.2895615,-3.52506,2.15166,0.12208,-0.693784845,0.69775212,0.04064931
1764434895.2895615,-3.52506,2.15166,0.12208,-0.693784845,0.69775212,0.04064931
1764434895.2895615,-3.52506,2.15166,0.12208,-0.693784845,0.69775212,0.04064931
1764434895.2895615,-2.5942,1.32762,0.65618,-0.69592107,0.69860661,0.04016103
1764434895.2895615,-2.5942,1.32762,0.65618,-0.69592107,0.69860661,0.04016103
1764434895.2895615,-2.5942,1.32762,0.65618,-0.69592107,0.69860661,0.04016103
1764434895.2895615,-2.5942,1.32762,0.65618,-0.69592107,0.69860661,0.04016103
1764434895.2895615,-2.5942,1.32762,0.65618,-0.69592107,0.69860661,0.04016103
1764434895.290587,-2.5942,1.32762,0.65618,-0.69592107,0.69860661,0.04016103
1764434895.290587,-2.5942,1.32762,0.65618,-0.69592107,0.69860661,0.04016103
1764434895.290587,-2.5942,1.32762,0.65618,-0.69592107,0.69860661,0.04016103
1764434895.3345032,-2.5942,1.32762,0.65618,-0.69592107,0.69860661,0.04016103
1764434895.3345032,-2.5942,1.32762,0.65618,-0.69592107,0.69860661,0.04016103
1764434895.3345032,-4.31858,-0.24416,1.12924,-0.698057295,0.70385562,0.040710345
1764434895.3345032,-4.31858,-0.24416,1.12924,-0.698057295,0.70385562,0.040710345
1764434895.3345032,-4.31858,-0.24416,1.12924,-0.698057295,0.70385562,0.040710345
1764434895.3345032,-4.31858,-0.24416,1.12924,-0.698057295,0.70385562,0.040710345
1764434895.3354962,-4.31858,-0.24416,1.12924,-0.698057295,0.70385562,0.040710345
1764434895.3354962,-4.31858,-0.24416,1.12924,-0.698057295,0.70385562,0.040710345
1764434895.3354962,-4.31858,-0.24416,1.12924,-0.698057295,0.70385562,0.040710345
1764434895.3354962,-4.31858,-0.24416,1.12924,-0.698057295,0.70385562,0.040710345
1764434895.3354962,-4.31858,-0.24416,1.12924,-0.698057295,0.70385562,0.040710345
1764434895.3354962,-4.31858,-0.24416,1.12924,-0.698057295,0.70385562,0.040710345
1764434895.3354962,-6.05822,1.05294,0.06104,-0.695371755,0.706480125,0.040466205
1764434895.3354962,-6.05822,1.05294,0.06104,-0.695371755,0.706480125,0.040466205
1764434895.3354962,-6.05822,1.05294,0.06104,-0.695371755,0.706480125,0.040466205
1764434895.3354962,-6.05822,1.05294,0.06104,-0.695371755,0.706480125,0.040466205
1764434895.3354962,-6.05822,1.05294,0.06104,-0.695371755,0.706480125,0.040466205
1764434895.3354962,-6.05822,1.05294,0.06104,-0.695371755,0.706480125,0.040466205
1764434895.3354962,-6.05822,1.05294,0.06104,-0.695371755,0.706480125,0.040466205
1764434895.3354962,-6.05822,1.05294,0.06104,-0.695371755,0.706480125,0.040466205
1764434895.3365033,-6.05822,1.05294,0.06104,-0.695371755,0.706480125,0.040466205
1764434895.3365033,-6.05822,1.05294,0.06104,-0.695371755,0.706480125,0.040466205
1764434895.384962,-5.98192,2.30426,-0.51884,-0.69311346,0.704527005,0.04089345
1764434895.384962,-5.98192,2.30426,-0.51884,-0.69311346,0.704527005,0.04089345
1764434895.384962,-5.98192,2.30426,-0.51884,-0.69311346,0.704527005,0.04089345
1764434895.384962,-5.98192,2.30426,-0.51884,-0.69311346,0.704527005,0.04089345
1764434895.384962,-5.98192,2.30426,-0.51884,-0.69311346,0.704527005,0.04089345
1764434895.384962,-5.98192,2.30426,-0.51884,-0.69311346,0.704527005,0.04089345
1764434895.384962,-5.98192,2.30426,-0.51884,-0.69311346,0.704527005,0.04089345
1764434895.384962,-5.98192,2.30426,-0.51884,-0.69311346,0.704527005,0.04089345
1764434895.384962,-5.98192,2.30426,-0.51884,-0.69311346,0.704527005,0.04089345
1764434895.384962,-5.98192,2.30426,-0.51884,-0.69311346,0.704527005,0.04089345
1764434895.384962,-5.58516,2.01432,0.19838,-0.692686215,0.700864905,0.04113759
1764434895.384962,-5.58516,2.01432,0.19838,-0.692686215,0.700864905,0.04113759
1764434895.384962,-5.58516,2.01432,0.19838,-0.692686215,0.700864905,0.04113759
1764434895.384962,-5.58516,2.01432,0.19838,-0.692686215,0.700864905,0.04113759
1764434895.384962,-5.58516,2.01432,0.19838,-0.692686215,0.700864905,0.04113759
1764434895.384962,-5.58516,2.01432,0.19838,-0.692686215,0.700864905,0.04113759
1764434895.385964,-5.58516,2.01432,0.19838,-0.692686215,0.700864905,0.04113759
1764434895.385964,-5.58516,2.01432,0.19838,-0.692686215,0.700864905,0.04113759
1764434895.385964,-5.58516,2.01432,0.19838,-0.692686215,0.700864905,0.04113759
1764434895.385964,-5.58516,2.01432,0.19838,-0.692686215,0.700864905,0.04113759
1764434895.385964,-4.89846,2.15166,0.73248,-0.69286932,0.699888345,0.040832415
1764434895.385964,-4.89846,2.15166,0.73248,-0.69286932,0.699888345,0.040832415
1764434895.385964,-4.89846,2.15166,0.73248,-0.69286932,0.699888345,0.040832415
1764434895.385964,-4.89846,2.15166,0.73248,-0.69286932,0.699888345,0.040832415
1764434895.4290743,-4.89846,2.15166,0.73248,-0.69286932,0.699888345,0.040832415
1764434895.4300923,-4.89846,2.15166,0.73248,-0.69286932,0.699888345,0.040832415
1764434895.4300923,-4.89846,2.15166,0.73248,-0.69286932,0.699888345,0.040832415
1764434895.4300923,-4.89846,2.15166,0.73248,-0.69286932,0.699888345,0.040832415
1764434895.4300923,-4.89846,2.15166,0.73248,-0.69286932,0.699888345,0.040832415
1764434895.4300923,-4.89846,2.15166,0.73248,-0.69286932,0.699888345,0.040832415
1764434895.4300923,-4.77638,1.57178,1.1445,-0.694028985,0.699522135,0.040832415
1764434895.4300923,-4.77638,1.57178,1.1445,-0.694028985,0.699522135,0.040832415
1764434895.4300923,-4.77638,1.57178,1.1445,-0.694028985,0.699522135,0.040832415
1764434895.4300923,-4.77638,1.57178,1.1445,-0.694028985,0.699522135,0.040832415
1764434895.4300923,-4.77638,1.57178,1.1445,-0.694028985,0.699522135,0.040832415
1764434895.4300923,-4.77638,1.57178,1.1445,-0.694028985,0.699522135,0.040832415
1764434895.4300923,-4.77638,1.57178,1.1445,-0.694028985,0.699522135,0.040832415
1764434895.4300923,-4.77638,1.57178,1.1445,-0.694028985,0.699522135,0.040832415
1764434895.4300923,-4.77638,1.57178,1.1445,-0.694028985,0.699522135,0.040832415
1764434895.4300923,-4.77638,1.57178,1.1445,-0.694028985,0.699522135,0.040832415
1764434895.4300923,-5.20366,1.73964,0.03052,-0.695127615,0.6999493800000001,0.041198625
1764434895.4300923,-5.20366,1.73964,0.03052,-0.695127615,0.6999493800000001,0.041198625
1764434895.4300923,-5.20366,1.73964,0.03052,-0.695127615,0.6999493800000001,0.041198625
1764434895.4300923,-5.20366,1.73964,0.03052,-0.695127615,0.6999493800000001,0.041198625
1764434895.4300923,-5.20366,1.73964,0.03052,-0.695127615,0.6999493800000001,0.041198625
1764434895.4300923,-5.20366,1.73964,0.03052,-0.695127615,0.6999493800000001,0.041198625
1764434895.4300923,-5.20366,1.73964,0.03052,-0.695127615,0.6999493800000001,0.041198625
1764434895.4300923,-5.20366,1.73964,0.03052,-0.695127615,0.6999493800000001,0.041198625
1764434895.474964,-5.20366,1.73964,0.03052,-0.695127615,0.6999493800000001,0.041198625
1764434895.474964,-5.20366,1.73964,0.03052,-0.695127615,0.6999493800000001,0.041198625
1764434895.474964,-5.38678,1.4039199999999998,-0.0762999999999999,-0.695371755,0.70055973,0.040832415
1764434895.474964,-5.38678,1.4039199999999998,-0.0762999999999999,-0.695371755,0.70055973,0.040832415
1764434895.474964,-5.38678,1.4039199999999998,-0.0762999999999999,-0.695371755,0.70055973,0.040832415
1764434895.474964,-5.38678,1.4039199999999998,-0.0762999999999999,-0.695371755,0.70055973,0.040832415
1764434895.474964,-5.38678,1.4039199999999998,-0.0762999999999999,-0.695371755,0.70055973,0.040832415
1764434895.474964,-5.38678,1.4039199999999998,-0.0762999999999999,-0.695371755,0.70055973,0.040832415
1764434895.474964,-5.38678,1.4039199999999998,-0.0762999999999999,-0.695371755,0.70055973,0.040832415
1764434895.4759855,-5.38678,1.4039199999999998,-0.0762999999999999,-0.695371755,0.70055973,0.040832415
1764434895.4759855,-5.38678,1.4039199999999998,-0.0762999999999999,-0.695371755,0.70055973,0.040832415
1764434895.4759855,-5.38678,1.4039199999999998,-0.0762999999999999,-0.695371755,0.70055973,0.040832415
1764434895.4759855,-5.29522,1.73964,0.50358,-0.695737965,0.700010415,0.04064931
1764434895.4759855,-5.29522,1.73964,0.50358,-0.695737965,0.700010415,0.04064931
1764434895.4759855,-5.29522,1.73964,0.50358,-0.695737965,0.700010415,0.04064931
1764434895.4759855,-5.29522,1.73964,0.50358,-0.695737965,0.700010415,0.04064931
1764434895.4759855,-5.29522,1.73964,0.50358,-0.695737965,0.700010415,0.04064931
1764434895.4759855,-5.29522,1.73964,0.50358,-0.695737965,0.700010415,0.04064931
1764434895.4759855,-5.29522,1.73964,0.50358,-0.695737965,0.700010415,0.04064931
1764434895.4759855,-5.29522,1.73964,0.50358,-0.695737965,0.700010415,0.04064931
1764434895.4759855,-5.29522,1.73964,0.50358,-0.695737965,0.700010415,0.04064931
1764434895.4759855,-5.29522,1.73964,0.50358,-0.695737965,0.700010415,0.04064931
1764434895.5217843,-3.63188,2.15166,0.5341,-0.695982105,0.697813155,0.04125966
1764434895.5217843,-3.63188,2.15166,0.5341,-0.695982105,0.697813155,0.04125966
1764434895.5217843,-3.63188,2.15166,0.5341,-0.695982105,0.697813155,0.04125966
1764434895.5217843,-3.63188,2.15166,0.5341,-0.695982105,0.697813155,0.04125966
1764434895.5217843,-3.63188,2.15166,0.5341,-0.695982105,0.697813155,0.04125966
1764434895.5217843,-3.63188,2.15166,0.5341,-0.695982105,0.697813155,0.04125966
1764434895.5217843,-3.63188,2.15166,0.5341,-0.695982105,0.697813155,0.04125966
1764434895.5217843,-3.63188,2.15166,0.5341,-0.695982105,0.697813155,0.04125966
1764434895.5217843,-3.63188,2.15166,0.5341,-0.695982105,0.697813155,0.04125966
1764434895.5217843,-3.63188,2.15166,0.5341,-0.695982105,0.697813155,0.04125966
1764434895.5217843,-2.15166,0.79352,0.2289,-0.6968365950000001,0.699644205,0.041686905
1764434895.5217843,-2.15166,0.79352,0.2289,-0.6968365950000001,0.699644205,0.041686905
1764434895.5217843,-2.15166,0.79352,0.2289,-0.6968365950000001,0.699644205,0.041686905
1764434895.5217843,-2.15166,0.79352,0.2289,-0.6968365950000001,0.699644205,0.041686905
1764434895.5217843,-2.15166,0.79352,0.2289,-0.6968365950000001,0.699644205,0.041686905
1764434895.5217843,-2.15166,0.79352,0.2289,-0.6968365950000001,0.699644205,0.041686905
1764434895.5217843,-2.15166,0.79352,0.2289,-0.6968365950000001,0.699644205,0.041686905
1764434895.5217843,-2.15166,0.79352,0.2289,-0.6968365950000001,0.699644205,0.041686905
1764434895.5217843,-2.15166,0.79352,0.2289,-0.6968365950000001,0.699644205,0.041686905
1764434895.5217843,-2.15166,0.79352,0.2289,-0.6968365950000001,0.699644205,0.041686905
1764434895.5217843,-3.70818,0.85456,0.9156,-0.69555486,0.702207675,0.040344135
1764434895.5217843,-3.70818,0.85456,0.9156,-0.69555486,0.702207675,0.040344135
1764434895.5673623,-3.70818,0.85456,0.9156,-0.69555486,0.702207675,0.040344135
1764434895.5673623,-3.70818,0.85456,0.9156,-0.69555486,0.702207675,0.040344135
1764434895.5673623,-3.70818,0.85456,0.9156,-0.69555486,0.702207675,0.040344135
1764434895.5673623,-3.70818,0.85456,0.9156,-0.69555486,0.702207675,0.040344135
1764434895.5673623,-3.70818,0.85456,0.9156,-0.69555486,0.702207675,0.040344135
1764434895.5673623,-3.70818,0.85456,0.9156,-0.69555486,0.702207675,0.040344135
1764434895.5673623,-3.70818,0.85456,0.9156,-0.69555486,0.702207675,0.040344135
1764434895.5673623,-3.70818,0.85456,0.9156,-0.69555486,0.702207675,0.040344135
1764434895.5673623,-4.76112,2.30426,0.1678599999999999,-0.694273125,0.70300113,0.040466205
1764434895.5673623,-4.76112,2.30426,0.1678599999999999,-0.694273125,0.70300113,0.040466205
1764434895.5673623,-4.76112,2.30426,0.1678599999999999,-0.694273125,0.70300113,0.040466205
1764434895.5673623,-4.76112,2.30426,0.1678599999999999,-0.694273125,0.70300113,0.040466205
1764434895.5673623,-4.76112,2.30426,0.1678599999999999,-0.694273125,0.70300113,0.040466205
1764434895.5673623,-4.76112,2.30426,0.1678599999999999,-0.694273125,0.70300113,0.040466205
1764434895.5673623,-4.76112,2.30426,0.1678599999999999,-0.694273125,0.70300113,0.040466205
1764434895.5673623,-4.76112,2.30426,0.1678599999999999,-0.694273125,0.70300113,0.040466205
1764434895.5673623,-4.76112,2.30426,0.1678599999999999,-0.694273125,0.70300113,0.040466205
1764434895.5673623,-4.76112,2.30426,0.1678599999999999,-0.694273125,0.70300113,0.040466205
1764434895.5673623,-4.92898,2.04484,-0.9919,-0.69555486,0.70348941,0.040710345
1764434895.5688818,-4.92898,2.04484,-0.9919,-0.69555486,0.70348941,0.040710345
1764434895.5688818,-4.92898,2.04484,-0.9919,-0.69555486,0.70348941,0.040710345
1764434895.5688818,-4.92898,2.04484,-0.9919,-0.69555486,0.70348941,0.040710345
1764434895.5688818,-4.92898,2.04484,-0.9919,-0.69555486,0.70348941,0.040710345
1764434895.5688818,-4.92898,2.04484,-0.9919,-0.69555486,0.70348941,0.040710345
1764434895.6145842,-4.92898,2.04484,-0.9919,-0.69555486,0.70348941,0.040710345
1764434895.6145842,-4.92898,2.04484,-0.9919,-0.69555486,0.70348941,0.040710345
1764434895.6145842,-4.92898,2.04484,-0.9919,-0.69555486,0.70348941,0.040710345
1764434895.6145842,-4.92898,2.04484,-0.9919,-0.69555486,0.70348941,0.040710345
1764434895.6145842,-4.89846,1.61756,-1.08346,-0.695737965,0.703550445,0.04162587
1764434895.6145842,-4.89846,1.61756,-1.08346,-0.695737965,0.703550445,0.04162587
1764434895.6145842,-4.89846,1.61756,-1.08346,-0.695737965,0.703550445,0.04162587
1764434895.6145842,-4.89846,1.61756,-1.08346,-0.695737965,0.703550445,0.04162587
1764434895.6145842,-4.89846,1.61756,-1.08346,-0.695737965,0.703550445,0.04162587
1764434895.6145842,-4.89846,1.61756,-1.08346,-0.695737965,0.703550445,0.04162587
1764434895.6145842,-4.89846,1.61756,-1.08346,-0.695737965,0.703550445,0.04162587
1764434895.6145842,-4.89846,1.61756,-1.08346,-0.695737965,0.703550445,0.04162587
1764434895.6145842,-4.89846,1.61756,-1.08346,-0.695737965,0.703550445,0.04162587
1764434895.6145842,-4.89846,1.61756,-1.08346,-0.695737965,0.703550445,0.04162587
1764434895.6145842,-6.37868,1.99906,0.2289,-0.693052425,0.704404935,0.04089345
1764434895.6145842,-6.37868,1.99906,0.2289,-0.693052425,0.704404935,0.04089345
1764434895.61559,-6.37868,1.99906,0.2289,-0.693052425,0.704404935,0.04089345
1764434895.61559,-6.37868,1.99906,0.2289,-0.693052425,0.704404935,0.04089345
1764434895.61559,-6.37868,1.99906,0.2289,-0.693052425,0.704404935,0.04089345
1764434895.61559,-6.37868,1.99906,0.2289,-0.693052425,0.704404935,0.04089345
1764434895.61559,-6.37868,1.99906,0.2289,-0.693052425,0.704404935,0.04089345
1764434895.61559,-6.37868,1.99906,0.2289,-0.693052425,0.704404935,0.04089345
1764434895.6608002,-6.37868,1.99906,0.2289,-0.693052425,0.704404935,0.04089345
1764434895.6612902,-6.37868,1.99906,0.2289,-0.693052425,0.704404935,0.04089345
1764434895.6612902,-6.08874,2.80784,0.6867,-0.69274725,0.70129215,0.039977925
1764434895.6612902,-6.08874,2.80784,0.6867,-0.69274725,0.70129215,0.039977925
1764434895.6612902,-6.08874,2.80784,0.6867,-0.69274725,0.70129215,0.039977925
1764434895.6612902,-6.08874,2.80784,0.6867,-0.69274725,0.70129215,0.039977925
1764434895.6612902,-6.08874,2.80784,0.6867,-0.69274725,0.70129215,0.039977925
1764434895.6612902,-6.08874,2.80784,0.6867,-0.69274725,0.70129215,0.039977925
1764434895.6612902,-6.08874,2.80784,0.6867,-0.69274725,0.70129215,0.039977925
1764434895.6612902,-6.08874,2.80784,0.6867,-0.69274725,0.70129215,0.039977925
1764434895.6612902,-6.08874,2.80784,0.6867,-0.69274725,0.70129215,0.039977925
1764434895.6612902,-6.08874,2.80784,0.6867,-0.69274725,0.70129215,0.039977925
1764434895.6612902,-4.16598,2.19744,0.04578,-0.69482244,0.697080735,0.03991689
1764434895.6612902,-4.16598,2.19744,0.04578,-0.69482244,0.697080735,0.03991689
1764434895.6612902,-4.16598,2.19744,0.04578,-0.69482244,0.697080735,0.03991689
1764434895.6612902,-4.16598,2.19744,0.04578,-0.69482244,0.697080735,0.03991689
1764434895.6612902,-4.16598,2.19744,0.04578,-0.69482244,0.697080735,0.03991689
1764434895.662292,-4.16598,2.19744,0.04578,-0.69482244,0.697080735,0.03991689
1764434895.662292,-4.16598,2.19744,0.04578,-0.69482244,0.697080735,0.03991689
1764434895.662292,-4.16598,2.19744,0.04578,-0.69482244,0.697080735,0.03991689
1764434895.662292,-4.16598,2.19744,0.04578,-0.69482244,0.697080735,0.03991689
1764434895.662292,-4.16598,2.19744,0.04578,-0.69482244,0.697080735,0.03991689
1764434895.662292,-1.89224,0.8392999999999999,-0.12208,-0.6968365950000001,0.6962872800000001,0.04040517
1764434895.662292,-1.89224,0.8392999999999999,-0.12208,-0.6968365950000001,0.6962872800000001,0.04040517
1764434895.7059894,-1.89224,0.8392999999999999,-0.12208,-0.6968365950000001,0.6962872800000001,0.04040517
1764434895.7070053,-1.89224,0.8392999999999999,-0.12208,-0.6968365950000001,0.6962872800000001,0.04040517
1764434895.7070053,-1.89224,0.8392999999999999,-0.12208,-0.6968365950000001,0.6962872800000001,0.04040517
1764434895.7070053,-1.89224,0.8392999999999999,-0.12208,-0.6968365950000001,0.6962872800000001,0.04040517
1764434895.7070053,-1.89224,0.8392999999999999,-0.12208,-0.6968365950000001,0.6962872800000001,0.04040517
1764434895.7070053,-1.89224,0.8392999999999999,-0.12208,-0.6968365950000001,0.6962872800000001,0.04040517
1764434895.708002,-1.89224,0.8392999999999999,-0.12208,-0.6968365950000001,0.6962872800000001,0.04040517
1764434895.708002,-1.89224,0.8392999999999999,-0.12208,-0.6968365950000001,0.6962872800000001,0.04040517
1764434895.708002,-3.052,0.3204599999999999,1.25132,-0.696958665,0.698057295,0.04064931
1764434895.708002,-3.052,0.3204599999999999,1.25132,-0.696958665,0.698057295,0.04064931
1764434895.7090037,-3.052,0.3204599999999999,1.25132,-0.696958665,0.698057295,0.04064931
1764434895.7090037,-3.052,0.3204599999999999,1.25132,-0.696958665,0.698057295,0.04064931
1764434895.7090037,-3.052,0.3204599999999999,1.25132,-0.696958665,0.698057295,0.04064931
1764434895.7090037,-3.052,0.3204599999999999,1.25132,-0.696958665,0.698057295,0.04064931
1764434895.7090037,-3.052,0.3204599999999999,1.25132,-0.696958665,0.698057295,0.04064931
1764434895.7090037,-3.052,0.3204599999999999,1.25132,-0.696958665,0.698057295,0.04064931
1764434895.7101607,-3.052,0.3204599999999999,1.25132,-0.696958665,0.698057295,0.04064931
1764434895.7101607,-3.052,0.3204599999999999,1.25132,-0.696958665,0.698057295,0.04064931
1764434895.7101607,-3.67766,0.6714399999999999,1.4497,-0.69604314,0.699277995,0.041564835
1764434895.7101607,-3.67766,0.6714399999999999,1.4497,-0.69604314,0.699277995,0.041564835
1764434895.7101607,-3.67766,0.6714399999999999,1.4497,-0.69604314,0.699277995,0.041564835
1764434895.7101607,-3.67766,0.6714399999999999,1.4497,-0.69604314,0.699277995,0.041564835
1764434895.7101607,-3.67766,0.6714399999999999,1.4497,-0.69604314,0.699277995,0.041564835
1764434895.7101607,-3.67766,0.6714399999999999,1.4497,-0.69604314,0.699277995,0.041564835
1764434895.7506895,-3.67766,0.6714399999999999,1.4497,-0.69604314,0.699277995,0.041564835
1764434895.7506895,-3.67766,0.6714399999999999,1.4497,-0.69604314,0.699277995,0.041564835
1764434895.7506895,-3.67766,0.6714399999999999,1.4497,-0.69604314,0.699277995,0.041564835
1764434895.7506895,-3.67766,0.6714399999999999,1.4497,-0.69604314,0.699277995,0.041564835
1764434895.7517068,-2.96044,0.19838,0.77826,-0.695982105,0.701231115,0.04187001
1764434895.7517068,-2.96044,0.19838,0.77826,-0.695982105,0.701231115,0.04187001
1764434895.7517068,-2.96044,0.19838,0.77826,-0.695982105,0.701231115,0.04187001
1764434895.7517068,-2.96044,0.19838,0.77826,-0.695982105,0.701231115,0.04187001
1764434895.7517068,-2.96044,0.19838,0.77826,-0.695982105,0.701231115,0.04187001
1764434895.7517068,-2.96044,0.19838,0.77826,-0.695982105,0.701231115,0.04187001
1764434895.7517068,-2.96044,0.19838,0.77826,-0.695982105,0.701231115,0.04187001
1764434895.7517068,-2.96044,0.19838,0.77826,-0.695982105,0.701231115,0.04187001
1764434895.7517068,-2.96044,0.19838,0.77826,-0.695982105,0.701231115,0.04187001
1764434895.7517068,-2.96044,0.19838,0.77826,-0.695982105,0.701231115,0.04187001
1764434895.7517068,-2.62472,1.38866,0.3204599999999999,-0.69433416,0.70300113,0.04125966
1764434895.7517068,-2.62472,1.38866,0.3204599999999999,-0.69433416,0.70300113,0.04125966
1764434895.7517068,-2.62472,1.38866,0.3204599999999999,-0.69433416,0.70300113,0.04125966
1764434895.7517068,-2.62472,1.38866,0.3204599999999999,-0.69433416,0.70300113,0.04125966
1764434895.7517068,-2.62472,1.38866,0.3204599999999999,-0.69433416,0.70300113,0.04125966
1764434895.7517068,-2.62472,1.38866,0.3204599999999999,-0.69433416,0.70300113,0.04125966
1764434895.7517068,-2.62472,1.38866,0.3204599999999999,-0.69433416,0.70300113,0.04125966
1764434895.753112,-2.62472,1.38866,0.3204599999999999,-0.69433416,0.70300113,0.04125966
1764434895.7973323,-2.62472,1.38866,0.3204599999999999,-0.69433416,0.70300113,0.04125966
1764434895.7973323,-2.62472,1.38866,0.3204599999999999,-0.69433416,0.70300113,0.04125966
1764434895.7973323,-4.51696,1.6633399999999998,0.18312,-0.69238104,0.70446597,0.040588275
1764434895.7973323,-4.51696,1.6633399999999998,0.18312,-0.69238104,0.70446597,0.040588275
1764434895.7973323,-4.51696,1.6633399999999998,0.18312,-0.69238104,0.70446597,0.040588275
1764434895.7973323,-4.51696,1.6633399999999998,0.18312,-0.69238104,0.70446597,0.040588275
1764434895.7973323,-4.51696,1.6633399999999998,0.18312,-0.69238104,0.70446597,0.040588275
1764434895.7973323,-4.51696,1.6633399999999998,0.18312,-0.69238104,0.70446597,0.040588275
1764434895.7973323,-4.51696,1.6633399999999998,0.18312,-0.69238104,0.70446597,0.040588275
1764434895.7973323,-4.51696,1.6633399999999998,0.18312,-0.69238104,0.70446597,0.040588275
1764434895.7973323,-4.51696,1.6633399999999998,0.18312,-0.69238104,0.70446597,0.040588275
1764434895.7973323,-4.51696,1.6633399999999998,0.18312,-0.69238104,0.70446597,0.040588275
1764434895.7973323,-6.08874,2.39582,-0.12208,-0.69323553,0.703916655,0.04113759
1764434895.7973323,-6.08874,2.39582,-0.12208,-0.69323553,0.703916655,0.04113759
1764434895.7973323,-6.08874,2.39582,-0.12208,-0.69323553,0.703916655,0.04113759
1764434895.7973323,-6.08874,2.39582,-0.12208,-0.69323553,0.703916655,0.04113759
1764434895.7973323,-6.08874,2.39582,-0.12208,-0.69323553,0.703916655,0.04113759
1764434895.7973323,-6.08874,2.39582,-0.12208,-0.69323553,0.703916655,0.04113759
1764434895.7973323,-6.08874,2.39582,-0.12208,-0.69323553,0.703916655,0.04113759
1764434895.7973323,-6.08874,2.39582,-0.12208,-0.69323553,0.703916655,0.04113759
1764434895.7973323,-6.08874,2.39582,-0.12208,-0.69323553,0.703916655,0.04113759
1764434895.7973323,-6.08874,2.39582,-0.12208,-0.69323553,0.703916655,0.04113759
1764434895.7973323,-6.01244,2.76206,-0.6714399999999999,-0.694639335,0.703428375,0.041808975
