Timestamp,GyroX,GyroY,GyroZ,AccX,AccY,AccZ
1764433956.887498,-4.25754,1.0682,0.25942,-0.718198845,0.673032945,-0.127746255
1764433956.887498,-4.25754,1.0682,0.25942,-0.718198845,0.673032945,-0.127746255
1764433956.887498,-4.25754,1.0682,0.25942,-0.718198845,0.673032945,-0.127746255
1764433956.8880038,-4.31858,1.03768,0.19838,-0.717832635,0.672788805,-0.12768522
1764433956.8880038,-4.31858,1.03768,0.19838,-0.717832635,0.672788805,-0.12768522
1764433956.8880038,-4.31858,1.03768,0.19838,-0.717832635,0.672788805,-0.12768522
1764433956.8880038,-4.31858,1.03768,0.19838,-0.717832635,0.672788805,-0.12768522
1764433956.8880038,-4.31858,1.03768,0.19838,-0.717832635,0.672788805,-0.12768522
1764433956.8880038,-4.31858,1.03768,0.19838,-0.717832635,0.672788805,-0.12768522
1764433956.8880038,-4.31858,1.03768,0.19838,-0.717832635,0.672788805,-0.12768522
1764433956.8880038,-4.31858,1.03768,0.19838,-0.717832635,0.672788805,-0.12768522
1764433956.8880038,-4.31858,1.03768,0.19838,-0.717832635,0.672788805,-0.12768522
1764433956.8880038,-4.31858,1.03768,0.19838,-0.717832635,0.672788805,-0.12768522
1764433956.8880038,-4.54748,1.38866,0.06104,-0.718442985,0.672666735,-0.127868325
1764433956.8880038,-4.54748,1.38866,0.06104,-0.718442985,0.672666735,-0.127868325
1764433956.8880038,-4.54748,1.38866,0.06104,-0.718442985,0.672666735,-0.127868325
1764433956.8880038,-4.54748,1.38866,0.06104,-0.718442985,0.672666735,-0.127868325
1764433956.8880038,-4.54748,1.38866,0.06104,-0.718442985,0.672666735,-0.127868325
1764433956.8880038,-4.54748,1.38866,0.06104,-0.718442985,0.672666735,-0.127868325
1764433956.8880038,-4.54748,1.38866,0.06104,-0.718442985,0.672666735,-0.127868325
1764433956.8880038,-4.54748,1.38866,0.06104,-0.718442985,0.672666735,-0.127868325
1764433956.8880038,-4.54748,1.38866,0.06104,-0.718442985,0.672666735,-0.127868325
1764433956.8880038,-4.54748,1.38866,0.06104,-0.718442985,0.672666735,-0.127868325
1764433956.9352798,-4.56274,1.34288,0.41202,-0.71813781,0.67309398,-0.127502115
1764433956.9352798,-4.56274,1.34288,0.41202,-0.71813781,0.67309398,-0.127502115
1764433956.9352798,-4.56274,1.34288,0.41202,-0.71813781,0.67309398,-0.127502115
1764433956.9362812,-4.56274,1.34288,0.41202,-0.71813781,0.67309398,-0.127502115
1764433956.9362812,-4.56274,1.34288,0.41202,-0.71813781,0.67309398,-0.127502115
1764433956.9362812,-4.56274,1.34288,0.41202,-0.71813781,0.67309398,-0.127502115
1764433956.9362812,-4.56274,1.34288,0.41202,-0.71813781,0.67309398,-0.127502115
1764433956.9362812,-4.56274,1.34288,0.41202,-0.71813781,0.67309398,-0.127502115
1764433956.937278,-4.56274,1.34288,0.41202,-0.71813781,0.67309398,-0.127502115
1764433956.937278,-4.56274,1.34288,0.41202,-0.71813781,0.67309398,-0.127502115
1764433956.937278,-4.6543,1.34288,0.27468,-0.71752746,0.67333812,-0.128112465
1764433956.937278,-4.6543,1.34288,0.27468,-0.71752746,0.67333812,-0.128112465
1764433956.937278,-4.6543,1.34288,0.27468,-0.71752746,0.67333812,-0.128112465
1764433956.937278,-4.6543,1.34288,0.27468,-0.71752746,0.67333812,-0.128112465
1764433956.9382775,-4.6543,1.34288,0.27468,-0.71752746,0.67333812,-0.128112465
1764433956.9382775,-4.6543,1.34288,0.27468,-0.71752746,0.67333812,-0.128112465
1764433956.9382775,-4.6543,1.34288,0.27468,-0.71752746,0.67333812,-0.128112465
1764433956.9382775,-4.6543,1.34288,0.27468,-0.71752746,0.67333812,-0.128112465
1764433956.9382775,-4.6543,1.34288,0.27468,-0.71752746,0.67333812,-0.128112465
1764433956.9382775,-4.6543,1.34288,0.27468,-0.71752746,0.67333812,-0.128112465
1764433956.939279,-4.59326,1.25132,0.3509799999999999,-0.717710565,0.673887435,-0.127868325
1764433956.939279,-4.59326,1.25132,0.3509799999999999,-0.717710565,0.673887435,-0.127868325
1764433956.939279,-4.59326,1.25132,0.3509799999999999,-0.717710565,0.673887435,-0.127868325
1764433956.939279,-4.59326,1.25132,0.3509799999999999,-0.717710565,0.673887435,-0.127868325
1764433956.9806082,-4.59326,1.25132,0.3509799999999999,-0.717710565,0.673887435,-0.127868325
1764433956.9806082,-4.59326,1.25132,0.3509799999999999,-0.717710565,0.673887435,-0.127868325
1764433956.9806082,-4.59326,1.25132,0.3509799999999999,-0.717710565,0.673887435,-0.127868325
1764433956.9806082,-4.59326,1.25132,0.3509799999999999,-0.717710565,0.673887435,-0.127868325
1764433956.9806082,-4.59326,1.25132,0.3509799999999999,-0.717710565,0.673887435,-0.127868325
1764433956.981622,-4.59326,1.25132,0.3509799999999999,-0.717710565,0.673887435,-0.127868325
1764433956.981622,-4.5017,1.11398,0.41202,-0.71764953,0.6737653650000001,-0.127380045
1764433956.981622,-4.5017,1.11398,0.41202,-0.71764953,0.6737653650000001,-0.127380045
1764433956.981622,-4.5017,1.11398,0.41202,-0.71764953,0.6737653650000001,-0.127380045
1764433956.981622,-4.5017,1.11398,0.41202,-0.71764953,0.6737653650000001,-0.127380045
1764433956.981622,-4.5017,1.11398,0.41202,-0.71764953,0.6737653650000001,-0.127380045
1764433956.981622,-4.5017,1.11398,0.41202,-0.71764953,0.6737653650000001,-0.127380045
1764433956.981622,-4.5017,1.11398,0.41202,-0.71764953,0.6737653650000001,-0.127380045
1764433956.981622,-4.5017,1.11398,0.41202,-0.71764953,0.6737653650000001,-0.127380045
1764433956.981622,-4.5017,1.11398,0.41202,-0.71764953,0.6737653650000001,-0.127380045
1764433956.981622,-4.5017,1.11398,0.41202,-0.71764953,0.6737653650000001,-0.127380045
1764433956.981622,-4.51696,1.28184,0.3357199999999999,-0.71740539,0.67407054,-0.127135905
1764433956.981622,-4.51696,1.28184,0.3357199999999999,-0.71740539,0.67407054,-0.127135905
1764433956.981622,-4.51696,1.28184,0.3357199999999999,-0.71740539,0.67407054,-0.127135905
1764433956.981622,-4.51696,1.28184,0.3357199999999999,-0.71740539,0.67407054,-0.127135905
1764433956.981622,-4.51696,1.28184,0.3357199999999999,-0.71740539,0.67407054,-0.127135905
1764433956.981622,-4.51696,1.28184,0.3357199999999999,-0.71740539,0.67407054,-0.127135905
1764433956.981622,-4.51696,1.28184,0.3357199999999999,-0.71740539,0.67407054,-0.127135905
1764433956.981622,-4.51696,1.28184,0.3357199999999999,-0.71740539,0.67407054,-0.127135905
1764433957.0217032,-4.51696,1.28184,0.3357199999999999,-0.71740539,0.67407054,-0.127135905
1764433957.0217032,-4.51696,1.28184,0.3357199999999999,-0.71740539,0.67407054,-0.127135905
1764433957.0217032,-4.22702,1.38866,0.3357199999999999,-0.71838195,0.673155015,-0.12707487
1764433957.0217032,-4.22702,1.38866,0.3357199999999999,-0.71838195,0.673155015,-0.12707487
1764433957.0217032,-4.22702,1.38866,0.3357199999999999,-0.71838195,0.673155015,-0.12707487
1764433957.0217032,-4.22702,1.38866,0.3357199999999999,-0.71838195,0.673155015,-0.12707487
1764433957.0217032,-4.22702,1.38866,0.3357199999999999,-0.71838195,0.673155015,-0.12707487
1764433957.0217032,-4.22702,1.38866,0.3357199999999999,-0.71838195,0.673155015,-0.12707487
1764433957.0217032,-4.22702,1.38866,0.3357199999999999,-0.71838195,0.673155015,-0.12707487
1764433957.0217032,-4.22702,1.38866,0.3357199999999999,-0.71838195,0.673155015,-0.12707487
1764433957.0217032,-4.22702,1.38866,0.3357199999999999,-0.71838195,0.673155015,-0.12707487
1764433957.0217032,-4.22702,1.38866,0.3357199999999999,-0.71838195,0.673155015,-0.12707487
1764433957.0217032,-4.77638,1.77016,0.4578,-0.718442985,0.673032945,-0.12707487
1764433957.0217032,-4.77638,1.77016,0.4578,-0.718442985,0.673032945,-0.12707487
1764433957.0217032,-4.77638,1.77016,0.4578,-0.718442985,0.673032945,-0.12707487
1764433957.0217032,-4.77638,1.77016,0.4578,-0.718442985,0.673032945,-0.12707487
1764433957.0217032,-4.77638,1.77016,0.4578,-0.718442985,0.673032945,-0.12707487
1764433957.0217032,-4.77638,1.77016,0.4578,-0.718442985,0.673032945,-0.12707487
1764433957.0217032,-4.77638,1.77016,0.4578,-0.718442985,0.673032945,-0.12707487
1764433957.0217032,-4.77638,1.77016,0.4578,-0.718442985,0.673032945,-0.12707487
1764433957.0690148,-4.77638,1.77016,0.4578,-0.718442985,0.673032945,-0.12707487
1764433957.0690148,-4.77638,1.77016,0.4578,-0.718442985,0.673032945,-0.12707487
1764433957.0690148,-4.28806,1.54126,0.24416,-0.71825988,0.6726057,-0.12622038
1764433957.0690148,-4.28806,1.54126,0.24416,-0.71825988,0.6726057,-0.12622038
1764433957.0690148,-4.28806,1.54126,0.24416,-0.71825988,0.6726057,-0.12622038
1764433957.0690148,-4.28806,1.54126,0.24416,-0.71825988,0.6726057,-0.12622038
1764433957.0690148,-4.28806,1.54126,0.24416,-0.71825988,0.6726057,-0.12622038
1764433957.0690148,-4.28806,1.54126,0.24416,-0.71825988,0.6726057,-0.12622038
1764433957.0690148,-4.28806,1.54126,0.24416,-0.71825988,0.6726057,-0.12622038
1764433957.0690148,-4.28806,1.54126,0.24416,-0.71825988,0.6726057,-0.12622038
1764433957.0690148,-4.28806,1.54126,0.24416,-0.71825988,0.6726057,-0.12622038
1764433957.0690148,-4.28806,1.54126,0.24416,-0.71825988,0.6726057,-0.12622038
1764433957.0690148,-4.440659999999999,1.55652,0.28994,-0.718198845,0.673032945,-0.12658659
1764433957.0690148,-4.440659999999999,1.55652,0.28994,-0.718198845,0.673032945,-0.12658659
1764433957.0690148,-4.440659999999999,1.55652,0.28994,-0.718198845,0.673032945,-0.12658659
1764433957.0690148,-4.440659999999999,1.55652,0.28994,-0.718198845,0.673032945,-0.12658659
1764433957.0690148,-4.440659999999999,1.55652,0.28994,-0.718198845,0.673032945,-0.12658659
1764433957.0690148,-4.440659999999999,1.55652,0.28994,-0.718198845,0.673032945,-0.12658659
1764433957.0690148,-4.440659999999999,1.55652,0.28994,-0.718198845,0.673032945,-0.12658659
1764433957.0690148,-4.440659999999999,1.55652,0.28994,-0.718198845,0.673032945,-0.12658659
1764433957.0690148,-4.440659999999999,1.55652,0.28994,-0.718198845,0.673032945,-0.12658659
1764433957.0690148,-4.440659999999999,1.55652,0.28994,-0.718198845,0.673032945,-0.12658659
1764433957.0690148,-4.2728,1.526,0.18312,-0.717710565,0.67284984,-0.12719694
1764433957.0690148,-4.2728,1.526,0.18312,-0.717710565,0.67284984,-0.12719694
1764433957.1164334,-4.2728,1.526,0.18312,-0.717710565,0.67284984,-0.12719694
1764433957.1164334,-4.2728,1.526,0.18312,-0.717710565,0.67284984,-0.12719694
1764433957.1164334,-4.2728,1.526,0.18312,-0.717710565,0.67284984,-0.12719694
1764433957.1164334,-4.2728,1.526,0.18312,-0.717710565,0.67284984,-0.12719694
1764433957.1164334,-4.2728,1.526,0.18312,-0.717710565,0.67284984,-0.12719694
1764433957.1164334,-4.2728,1.526,0.18312,-0.717710565,0.67284984,-0.12719694
1764433957.1164334,-4.2728,1.526,0.18312,-0.717710565,0.67284984,-0.12719694
1764433957.1164334,-4.2728,1.526,0.18312,-0.717710565,0.67284984,-0.12719694
1764433957.1164334,-4.47118,1.46496,0.25942,-0.718076775,0.67284984,-0.12744108
1764433957.1164334,-4.47118,1.46496,0.25942,-0.718076775,0.67284984,-0.12744108
1764433957.1164334,-4.47118,1.46496,0.25942,-0.718076775,0.67284984,-0.12744108
1764433957.1164334,-4.47118,1.46496,0.25942,-0.718076775,0.67284984,-0.12744108
1764433957.1164334,-4.47118,1.46496,0.25942,-0.718076775,0.67284984,-0.12744108
1764433957.1164334,-4.47118,1.46496,0.25942,-0.718076775,0.67284984,-0.12744108
1764433957.1164334,-4.47118,1.46496,0.25942,-0.718076775,0.67284984,-0.12744108
1764433957.1174412,-4.47118,1.46496,0.25942,-0.718076775,0.67284984,-0.12744108
1764433957.1174412,-4.47118,1.46496,0.25942,-0.718076775,0.67284984,-0.12744108
1764433957.1174412,-4.47118,1.46496,0.25942,-0.718076775,0.67284984,-0.12744108
1764433957.1174412,-4.24228,1.05294,0.42728,-0.717588495,0.6727277700000001,-0.127257975
1764433957.1174412,-4.24228,1.05294,0.42728,-0.717588495,0.6727277700000001,-0.127257975
1764433957.1174412,-4.24228,1.05294,0.42728,-0.717588495,0.6727277700000001,-0.127257975
1764433957.1174412,-4.24228,1.05294,0.42728,-0.717588495,0.6727277700000001,-0.127257975
1764433957.1174412,-4.24228,1.05294,0.42728,-0.717588495,0.6727277700000001,-0.127257975
1764433957.1174412,-4.24228,1.05294,0.42728,-0.717588495,0.6727277700000001,-0.127257975
1764433957.1646483,-4.24228,1.05294,0.42728,-0.717588495,0.6727277700000001,-0.127257975
1764433957.1646483,-4.24228,1.05294,0.42728,-0.717588495,0.6727277700000001,-0.127257975
1764433957.1646483,-4.24228,1.05294,0.42728,-0.717588495,0.6727277700000001,-0.127257975
1764433957.1651597,-4.24228,1.05294,0.42728,-0.717588495,0.6727277700000001,-0.127257975
1764433957.1651597,-4.70008,1.34288,0.51884,-0.71874816,0.6727277700000001,-0.127257975
1764433957.1651597,-4.70008,1.34288,0.51884,-0.71874816,0.6727277700000001,-0.127257975
1764433957.1651597,-4.70008,1.34288,0.51884,-0.71874816,0.6727277700000001,-0.127257975
1764433957.1651597,-4.70008,1.34288,0.51884,-0.71874816,0.6727277700000001,-0.127257975
1764433957.1651597,-4.70008,1.34288,0.51884,-0.71874816,0.6727277700000001,-0.127257975
1764433957.1651597,-4.70008,1.34288,0.51884,-0.71874816,0.6727277700000001,-0.127257975
1764433957.1651597,-4.70008,1.34288,0.51884,-0.71874816,0.6727277700000001,-0.127257975
1764433957.1651597,-4.70008,1.34288,0.51884,-0.71874816,0.6727277700000001,-0.127257975
1764433957.1651597,-4.70008,1.34288,0.51884,-0.71874816,0.6727277700000001,-0.127257975
1764433957.1651597,-4.70008,1.34288,0.51884,-0.71874816,0.6727277700000001,-0.127257975
1764433957.1651597,-4.56274,1.3734,0.1678599999999999,-0.719175405,0.67297191,-0.127013835
1764433957.1651597,-4.56274,1.3734,0.1678599999999999,-0.719175405,0.67297191,-0.127013835
1764433957.1651597,-4.56274,1.3734,0.1678599999999999,-0.719175405,0.67297191,-0.127013835
1764433957.1651597,-4.56274,1.3734,0.1678599999999999,-0.719175405,0.67297191,-0.127013835
1764433957.1651597,-4.56274,1.3734,0.1678599999999999,-0.719175405,0.67297191,-0.127013835
1764433957.1651597,-4.56274,1.3734,0.1678599999999999,-0.719175405,0.67297191,-0.127013835
1764433957.1651597,-4.56274,1.3734,0.1678599999999999,-0.719175405,0.67297191,-0.127013835
1764433957.1651597,-4.56274,1.3734,0.1678599999999999,-0.719175405,0.67297191,-0.127013835
1764433957.2090318,-4.56274,1.3734,0.1678599999999999,-0.719175405,0.67297191,-0.127013835
1764433957.2090318,-4.56274,1.3734,0.1678599999999999,-0.719175405,0.67297191,-0.127013835
1764433957.2090318,-4.440659999999999,1.43444,0.6867,-0.71825988,0.67358226,-0.12622038
1764433957.2090318,-4.440659999999999,1.43444,0.6867,-0.71825988,0.67358226,-0.12622038
1764433957.2090318,-4.440659999999999,1.43444,0.6867,-0.71825988,0.67358226,-0.12622038
1764433957.2090318,-4.440659999999999,1.43444,0.6867,-0.71825988,0.67358226,-0.12622038
1764433957.2090318,-4.440659999999999,1.43444,0.6867,-0.71825988,0.67358226,-0.12622038
1764433957.2090318,-4.440659999999999,1.43444,0.6867,-0.71825988,0.67358226,-0.12622038
1764433957.2090318,-4.440659999999999,1.43444,0.6867,-0.71825988,0.67358226,-0.12622038
1764433957.2090318,-4.440659999999999,1.43444,0.6867,-0.71825988,0.67358226,-0.12622038
1764433957.2090318,-4.440659999999999,1.43444,0.6867,-0.71825988,0.67358226,-0.12622038
1764433957.2090318,-4.440659999999999,1.43444,0.6867,-0.71825988,0.67358226,-0.12622038
1764433957.2090318,-4.70008,1.19028,0.36624,-0.71813781,0.673399155,-0.126281415
1764433957.2090318,-4.70008,1.19028,0.36624,-0.71813781,0.673399155,-0.126281415
1764433957.2090318,-4.70008,1.19028,0.36624,-0.71813781,0.673399155,-0.126281415
1764433957.2100382,-4.70008,1.19028,0.36624,-0.71813781,0.673399155,-0.126281415
1764433957.2100382,-4.70008,1.19028,0.36624,-0.71813781,0.673399155,-0.126281415
1764433957.2100382,-4.70008,1.19028,0.36624,-0.71813781,0.673399155,-0.126281415
1764433957.210577,-4.70008,1.19028,0.36624,-0.71813781,0.673399155,-0.126281415
1764433957.210577,-4.70008,1.19028,0.36624,-0.71813781,0.673399155,-0.126281415
1764433957.210577,-4.70008,1.19028,0.36624,-0.71813781,0.673399155,-0.126281415
1764433957.210577,-4.70008,1.19028,0.36624,-0.71813781,0.673399155,-0.126281415
1764433957.255104,-4.94424,0.88508,0.09156,-0.718809195,0.67333812,-0.12646452
1764433957.255104,-4.94424,0.88508,0.09156,-0.718809195,0.67333812,-0.12646452
1764433957.255104,-4.94424,0.88508,0.09156,-0.718809195,0.67333812,-0.12646452
1764433957.255104,-4.94424,0.88508,0.09156,-0.718809195,0.67333812,-0.12646452
1764433957.255104,-4.94424,0.88508,0.09156,-0.718809195,0.67333812,-0.12646452
1764433957.255104,-4.94424,0.88508,0.09156,-0.718809195,0.67333812,-0.12646452
1764433957.255104,-4.94424,0.88508,0.09156,-0.718809195,0.67333812,-0.12646452
1764433957.255104,-4.94424,0.88508,0.09156,-0.718809195,0.67333812,-0.12646452
1764433957.255104,-4.94424,0.88508,0.09156,-0.718809195,0.67333812,-0.12646452
1764433957.255104,-4.94424,0.88508,0.09156,-0.718809195,0.67333812,-0.12646452
1764433957.2571254,-4.16598,1.23606,0.18312,-0.71911437,0.673277085,-0.126159345
1764433957.2576869,-4.16598,1.23606,0.18312,-0.71911437,0.673277085,-0.126159345
1764433957.2576869,-4.16598,1.23606,0.18312,-0.71911437,0.673277085,-0.126159345
1764433957.2576869,-4.16598,1.23606,0.18312,-0.71911437,0.673277085,-0.126159345
1764433957.2576869,-4.16598,1.23606,0.18312,-0.71911437,0.673277085,-0.126159345
1764433957.2576869,-4.16598,1.23606,0.18312,-0.71911437,0.673277085,-0.126159345
1764433957.2587025,-4.16598,1.23606,0.18312,-0.71911437,0.673277085,-0.126159345
1764433957.2587025,-4.16598,1.23606,0.18312,-0.71911437,0.673277085,-0.126159345
1764433957.3041978,-4.16598,1.23606,0.18312,-0.71911437,0.673277085,-0.126159345
1764433957.3041978,-4.16598,1.23606,0.18312,-0.71911437,0.673277085,-0.126159345
1764433957.3041978,-3.72344,1.51074,0.54936,-0.719175405,0.67284984,-0.126647625
1764433957.3041978,-3.72344,1.51074,0.54936,-0.719175405,0.67284984,-0.126647625
1764433957.3041978,-3.72344,1.51074,0.54936,-0.719175405,0.67284984,-0.126647625
1764433957.3041978,-3.72344,1.51074,0.54936,-0.719175405,0.67284984,-0.126647625
1764433957.3041978,-3.72344,1.51074,0.54936,-0.719175405,0.67284984,-0.126647625
1764433957.3041978,-3.72344,1.51074,0.54936,-0.719175405,0.67284984,-0.126647625
1764433957.3041978,-3.72344,1.51074,0.54936,-0.719175405,0.67284984,-0.126647625
1764433957.3041978,-3.72344,1.51074,0.54936,-0.719175405,0.67284984,-0.126647625
1764433957.3041978,-3.72344,1.51074,0.54936,-0.719175405,0.67284984,-0.126647625
1764433957.3041978,-3.72344,1.51074,0.54936,-0.719175405,0.67284984,-0.126647625
1764433957.3041978,-4.70008,1.38866,0.06104,-0.71789367,0.672910875,-0.12707487
1764433957.3041978,-4.70008,1.38866,0.06104,-0.71789367,0.672910875,-0.12707487
1764433957.3041978,-4.70008,1.38866,0.06104,-0.71789367,0.672910875,-0.12707487
1764433957.3041978,-4.70008,1.38866,0.06104,-0.71789367,0.672910875,-0.12707487
1764433957.3041978,-4.70008,1.38866,0.06104,-0.71789367,0.672910875,-0.12707487
1764433957.3041978,-4.70008,1.38866,0.06104,-0.71789367,0.672910875,-0.12707487
1764433957.3041978,-4.70008,1.38866,0.06104,-0.71789367,0.672910875,-0.12707487
1764433957.3041978,-4.70008,1.38866,0.06104,-0.71789367,0.672910875,-0.12707487
1764433957.3041978,-4.70008,1.38866,0.06104,-0.71789367,0.672910875,-0.12707487
1764433957.3041978,-4.70008,1.38866,0.06104,-0.71789367,0.672910875,-0.12707487
1764433957.3041978,-4.8832,1.41918,0.51884,-0.71752746,0.67223949,-0.12609831
1764433957.3041978,-4.8832,1.41918,0.51884,-0.71752746,0.67223949,-0.12609831
1764433957.3041978,-4.8832,1.41918,0.51884,-0.71752746,0.67223949,-0.12609831
1764433957.3041978,-4.8832,1.41918,0.51884,-0.71752746,0.67223949,-0.12609831
1764433957.3041978,-4.8832,1.41918,0.51884,-0.71752746,0.67223949,-0.12609831
1764433957.3041978,-4.8832,1.41918,0.51884,-0.71752746,0.67223949,-0.12609831
1764433957.3041978,-4.8832,1.41918,0.51884,-0.71752746,0.67223949,-0.12609831
1764433957.3057098,-4.8832,1.41918,0.51884,-0.71752746,0.67223949,-0.12609831
1764433957.3480318,-4.8832,1.41918,0.51884,-0.71752746,0.67223949,-0.12609831
1764433957.3480318,-4.8832,1.41918,0.51884,-0.71752746,0.67223949,-0.12609831
1764433957.3480318,-4.68482,1.49548,0.54936,-0.717710565,0.67309398,-0.12597624
1764433957.3485663,-4.68482,1.49548,0.54936,-0.717710565,0.67309398,-0.12597624
1764433957.3485663,-4.68482,1.49548,0.54936,-0.717710565,0.67309398,-0.12597624
1764433957.3485663,-4.68482,1.49548,0.54936,-0.717710565,0.67309398,-0.12597624
1764433957.3485663,-4.68482,1.49548,0.54936,-0.717710565,0.67309398,-0.12597624
1764433957.3485663,-4.68482,1.49548,0.54936,-0.717710565,0.67309398,-0.12597624
1764433957.3485663,-4.68482,1.49548,0.54936,-0.717710565,0.67309398,-0.12597624
1764433957.3485663,-4.68482,1.49548,0.54936,-0.717710565,0.67309398,-0.12597624
1764433957.3485663,-4.68482,1.49548,0.54936,-0.717710565,0.67309398,-0.12597624
1764433957.3485663,-4.68482,1.49548,0.54936,-0.717710565,0.67309398,-0.12597624
1764433957.3485663,-4.39488,1.3734,0.42728,-0.71813781,0.672666735,-0.126891765
1764433957.3485663,-4.39488,1.3734,0.42728,-0.71813781,0.672666735,-0.126891765
1764433957.3485663,-4.39488,1.3734,0.42728,-0.71813781,0.672666735,-0.126891765
1764433957.3485663,-4.39488,1.3734,0.42728,-0.71813781,0.672666735,-0.126891765
1764433957.3485663,-4.39488,1.3734,0.42728,-0.71813781,0.672666735,-0.126891765
1764433957.3485663,-4.39488,1.3734,0.42728,-0.71813781,0.672666735,-0.126891765
1764433957.3485663,-4.39488,1.3734,0.42728,-0.71813781,0.672666735,-0.126891765
1764433957.3485663,-4.39488,1.3734,0.42728,-0.71813781,0.672666735,-0.126891765
1764433957.3485663,-4.39488,1.3734,0.42728,-0.71813781,0.672666735,-0.126891765
1764433957.3485663,-4.39488,1.3734,0.42728,-0.71813781,0.672666735,-0.126891765
1764433957.3962636,-4.70008,1.6022999999999998,0.2289,-0.718198845,0.67309398,-0.12707487
1764433957.3962636,-4.70008,1.6022999999999998,0.2289,-0.718198845,0.67309398,-0.12707487
1764433957.3962636,-4.70008,1.6022999999999998,0.2289,-0.718198845,0.67309398,-0.12707487
1764433957.3962636,-4.70008,1.6022999999999998,0.2289,-0.718198845,0.67309398,-0.12707487
1764433957.3962636,-4.70008,1.6022999999999998,0.2289,-0.718198845,0.67309398,-0.12707487
1764433957.3962636,-4.70008,1.6022999999999998,0.2289,-0.718198845,0.67309398,-0.12707487
1764433957.3962636,-4.70008,1.6022999999999998,0.2289,-0.718198845,0.67309398,-0.12707487
1764433957.3962636,-4.70008,1.6022999999999998,0.2289,-0.718198845,0.67309398,-0.12707487
1764433957.3962636,-4.70008,1.6022999999999998,0.2289,-0.718198845,0.67309398,-0.12707487
1764433957.3962636,-4.70008,1.6022999999999998,0.2289,-0.718198845,0.67309398,-0.12707487
1764433957.3962636,-4.60852,1.58704,0.763,-0.71887023,0.6721784550000001,-0.127135905
1764433957.3962636,-4.60852,1.58704,0.763,-0.71887023,0.6721784550000001,-0.127135905
1764433957.3962636,-4.60852,1.58704,0.763,-0.71887023,0.6721784550000001,-0.127135905
1764433957.3962636,-4.60852,1.58704,0.763,-0.71887023,0.6721784550000001,-0.127135905
1764433957.3962636,-4.60852,1.58704,0.763,-0.71887023,0.6721784550000001,-0.127135905
1764433957.3962636,-4.60852,1.58704,0.763,-0.71887023,0.6721784550000001,-0.127135905
1764433957.3962636,-4.60852,1.58704,0.763,-0.71887023,0.6721784550000001,-0.127135905
1764433957.3962636,-4.60852,1.58704,0.763,-0.71887023,0.6721784550000001,-0.127135905
1764433957.3962636,-4.60852,1.58704,0.763,-0.71887023,0.6721784550000001,-0.127135905
1764433957.3962636,-4.60852,1.58704,0.763,-0.71887023,0.6721784550000001,-0.127135905
1764433957.3962636,-4.37962,1.4039199999999998,0.28994,-0.7193585100000001,0.6727277700000001,-0.12670866
1764433957.397279,-4.37962,1.4039199999999998,0.28994,-0.7193585100000001,0.6727277700000001,-0.12670866
1764433957.439248,-4.37962,1.4039199999999998,0.28994,-0.7193585100000001,0.6727277700000001,-0.12670866
1764433957.439248,-4.37962,1.4039199999999998,0.28994,-0.7193585100000001,0.6727277700000001,-0.12670866
1764433957.439248,-4.37962,1.4039199999999998,0.28994,-0.7193585100000001,0.6727277700000001,-0.12670866
1764433957.439248,-4.37962,1.4039199999999998,0.28994,-0.7193585100000001,0.6727277700000001,-0.12670866
1764433957.439248,-4.37962,1.4039199999999998,0.28994,-0.7193585100000001,0.6727277700000001,-0.12670866
1764433957.439248,-4.37962,1.4039199999999998,0.28994,-0.7193585100000001,0.6727277700000001,-0.12670866
1764433957.439248,-4.37962,1.4039199999999998,0.28994,-0.7193585100000001,0.6727277700000001,-0.12670866
1764433957.439248,-4.37962,1.4039199999999998,0.28994,-0.7193585100000001,0.6727277700000001,-0.12670866
1764433957.439248,-4.1965,1.6022999999999998,0.3509799999999999,-0.71838195,0.67333812,-0.12683073
1764433957.439248,-4.1965,1.6022999999999998,0.3509799999999999,-0.71838195,0.67333812,-0.12683073
1764433957.439248,-4.1965,1.6022999999999998,0.3509799999999999,-0.71838195,0.67333812,-0.12683073
1764433957.439248,-4.1965,1.6022999999999998,0.3509799999999999,-0.71838195,0.67333812,-0.12683073
1764433957.439248,-4.1965,1.6022999999999998,0.3509799999999999,-0.71838195,0.67333812,-0.12683073
1764433957.4405203,-4.1965,1.6022999999999998,0.3509799999999999,-0.71838195,0.67333812,-0.12683073
1764433957.4405203,-4.1965,1.6022999999999998,0.3509799999999999,-0.71838195,0.67333812,-0.12683073
1764433957.4405203,-4.1965,1.6022999999999998,0.3509799999999999,-0.71838195,0.67333812,-0.12683073
1764433957.4405203,-4.1965,1.6022999999999998,0.3509799999999999,-0.71838195,0.67333812,-0.12683073
1764433957.4405203,-4.1965,1.6022999999999998,0.3509799999999999,-0.71838195,0.67333812,-0.12683073
1764433957.4415348,-4.3491,1.2055399999999998,0.3204599999999999,-0.71838195,0.67370433,-0.127746255
1764433957.4415348,-4.3491,1.2055399999999998,0.3204599999999999,-0.71838195,0.67370433,-0.127746255
1764433957.4415348,-4.3491,1.2055399999999998,0.3204599999999999,-0.71838195,0.67370433,-0.127746255
1764433957.4415348,-4.3491,1.2055399999999998,0.3204599999999999,-0.71838195,0.67370433,-0.127746255
1764433957.4415348,-4.3491,1.2055399999999998,0.3204599999999999,-0.71838195,0.67370433,-0.127746255
1764433957.4415348,-4.3491,1.2055399999999998,0.3204599999999999,-0.71838195,0.67370433,-0.127746255
1764433957.485291,-4.3491,1.2055399999999998,0.3204599999999999,-0.71838195,0.67370433,-0.127746255
1764433957.485291,-4.3491,1.2055399999999998,0.3204599999999999,-0.71838195,0.67370433,-0.127746255
1764433957.485291,-4.3491,1.2055399999999998,0.3204599999999999,-0.71838195,0.67370433,-0.127746255
1764433957.485291,-4.3491,1.2055399999999998,0.3204599999999999,-0.71838195,0.67370433,-0.127746255
1764433957.485291,-4.28806,1.31236,0.36624,-0.717710565,0.673521225,-0.12768522
1764433957.485291,-4.28806,1.31236,0.36624,-0.717710565,0.673521225,-0.12768522
1764433957.485291,-4.28806,1.31236,0.36624,-0.717710565,0.673521225,-0.12768522
1764433957.485291,-4.28806,1.31236,0.36624,-0.717710565,0.673521225,-0.12768522
1764433957.485291,-4.28806,1.31236,0.36624,-0.717710565,0.673521225,-0.12768522
1764433957.485291,-4.28806,1.31236,0.36624,-0.717710565,0.673521225,-0.12768522
1764433957.485291,-4.28806,1.31236,0.36624,-0.717710565,0.673521225,-0.12768522
1764433957.485291,-4.28806,1.31236,0.36624,-0.717710565,0.673521225,-0.12768522
1764433957.485291,-4.28806,1.31236,0.36624,-0.717710565,0.673521225,-0.12768522
1764433957.485291,-4.28806,1.31236,0.36624,-0.717710565,0.673521225,-0.12768522
1764433957.485291,-4.31858,0.73248,0.18312,-0.717710565,0.67358226,-0.126525555
1764433957.485291,-4.31858,0.73248,0.18312,-0.717710565,0.67358226,-0.126525555
1764433957.485291,-4.31858,0.73248,0.18312,-0.717710565,0.67358226,-0.126525555
1764433957.485291,-4.31858,0.73248,0.18312,-0.717710565,0.67358226,-0.126525555
1764433957.485291,-4.31858,0.73248,0.18312,-0.717710565,0.67358226,-0.126525555
1764433957.485291,-4.31858,0.73248,0.18312,-0.717710565,0.67358226,-0.126525555
1764433957.485291,-4.31858,0.73248,0.18312,-0.717710565,0.67358226,-0.126525555
1764433957.485291,-4.31858,0.73248,0.18312,-0.717710565,0.67358226,-0.126525555
1764433957.485291,-4.31858,0.73248,0.18312,-0.717710565,0.67358226,-0.126525555
1764433957.485291,-4.31858,0.73248,0.18312,-0.717710565,0.67358226,-0.126525555
1764433957.5339608,-4.36436,1.25132,0.36624,-0.717588495,0.67321605,-0.126403485
1764433957.5339608,-4.36436,1.25132,0.36624,-0.717588495,0.67321605,-0.126403485
1764433957.5349567,-4.36436,1.25132,0.36624,-0.717588495,0.67321605,-0.126403485
1764433957.5349567,-4.36436,1.25132,0.36624,-0.717588495,0.67321605,-0.126403485
1764433957.5349567,-4.36436,1.25132,0.36624,-0.717588495,0.67321605,-0.126403485
1764433957.5355563,-4.36436,1.25132,0.36624,-0.717588495,0.67321605,-0.126403485
1764433957.5355563,-4.36436,1.25132,0.36624,-0.717588495,0.67321605,-0.126403485
1764433957.5355563,-4.36436,1.25132,0.36624,-0.717588495,0.67321605,-0.126403485
1764433957.5355563,-4.36436,1.25132,0.36624,-0.717588495,0.67321605,-0.126403485
1764433957.536571,-4.36436,1.25132,0.36624,-0.717588495,0.67321605,-0.126403485
1764433957.536571,-4.21176,1.35814,0.42728,-0.717588495,0.67297191,-0.126769695
1764433957.536571,-4.21176,1.35814,0.42728,-0.717588495,0.67297191,-0.126769695
1764433957.536571,-4.21176,1.35814,0.42728,-0.717588495,0.67297191,-0.126769695
1764433957.536571,-4.21176,1.35814,0.42728,-0.717588495,0.67297191,-0.126769695
1764433957.536571,-4.21176,1.35814,0.42728,-0.717588495,0.67297191,-0.126769695
1764433957.536571,-4.21176,1.35814,0.42728,-0.717588495,0.67297191,-0.126769695
1764433957.536571,-4.21176,1.35814,0.42728,-0.717588495,0.67297191,-0.126769695
1764433957.536571,-4.21176,1.35814,0.42728,-0.717588495,0.67297191,-0.126769695
1764433957.536571,-4.21176,1.35814,0.42728,-0.717588495,0.67297191,-0.126769695
1764433957.536571,-4.21176,1.35814,0.42728,-0.717588495,0.67297191,-0.126769695
1764433957.536571,-4.08968,0.94612,0.24416,-0.717588495,0.672300525,-0.127013835
1764433957.5375648,-4.08968,0.94612,0.24416,-0.717588495,0.672300525,-0.127013835
1764433957.5375648,-4.08968,0.94612,0.24416,-0.717588495,0.672300525,-0.127013835
1764433957.5375648,-4.08968,0.94612,0.24416,-0.717588495,0.672300525,-0.127013835
1764433957.5804636,-4.08968,0.94612,0.24416,-0.717588495,0.672300525,-0.127013835
1764433957.581933,-4.08968,0.94612,0.24416,-0.717588495,0.672300525,-0.127013835
1764433957.581933,-4.08968,0.94612,0.24416,-0.717588495,0.672300525,-0.127013835
1764433957.581933,-4.08968,0.94612,0.24416,-0.717588495,0.672300525,-0.127013835
1764433957.581933,-4.08968,0.94612,0.24416,-0.717588495,0.672300525,-0.127013835
1764433957.581933,-4.08968,0.94612,0.24416,-0.717588495,0.672300525,-0.127013835
1764433957.581933,-4.62378,1.51074,0.3204599999999999,-0.71764953,0.67248363,-0.127502115
1764433957.581933,-4.62378,1.51074,0.3204599999999999,-0.71764953,0.67248363,-0.127502115
1764433957.581933,-4.62378,1.51074,0.3204599999999999,-0.71764953,0.67248363,-0.127502115
1764433957.581933,-4.62378,1.51074,0.3204599999999999,-0.71764953,0.67248363,-0.127502115
1764433957.581933,-4.62378,1.51074,0.3204599999999999,-0.71764953,0.67248363,-0.127502115
1764433957.581933,-4.62378,1.51074,0.3204599999999999,-0.71764953,0.67248363,-0.127502115
1764433957.581933,-4.62378,1.51074,0.3204599999999999,-0.71764953,0.67248363,-0.127502115
1764433957.581933,-4.62378,1.51074,0.3204599999999999,-0.71764953,0.67248363,-0.127502115
1764433957.581933,-4.62378,1.51074,0.3204599999999999,-0.71764953,0.67248363,-0.127502115
1764433957.581933,-4.62378,1.51074,0.3204599999999999,-0.71764953,0.67248363,-0.127502115
1764433957.581933,-4.577999999999999,1.11398,0.28994,-0.718198845,0.67284984,-0.12756315
1764433957.581933,-4.577999999999999,1.11398,0.28994,-0.718198845,0.67284984,-0.12756315
1764433957.581933,-4.577999999999999,1.11398,0.28994,-0.718198845,0.67284984,-0.12756315
1764433957.581933,-4.577999999999999,1.11398,0.28994,-0.718198845,0.67284984,-0.12756315
1764433957.581933,-4.577999999999999,1.11398,0.28994,-0.718198845,0.67284984,-0.12756315
1764433957.581933,-4.577999999999999,1.11398,0.28994,-0.718198845,0.67284984,-0.12756315
1764433957.6271737,-4.577999999999999,1.11398,0.28994,-0.718198845,0.67284984,-0.12756315
1764433957.6271737,-4.577999999999999,1.11398,0.28994,-0.718198845,0.67284984,-0.12756315
1764433957.6271737,-4.577999999999999,1.11398,0.28994,-0.718198845,0.67284984,-0.12756315
1764433957.6271737,-4.577999999999999,1.11398,0.28994,-0.718198845,0.67284984,-0.12756315
1764433957.6271737,-4.74586,1.2971,0.3357199999999999,-0.71813781,0.67333812,-0.12683073
1764433957.6271737,-4.74586,1.2971,0.3357199999999999,-0.71813781,0.67333812,-0.12683073
1764433957.6271737,-4.74586,1.2971,0.3357199999999999,-0.71813781,0.67333812,-0.12683073
1764433957.6271737,-4.74586,1.2971,0.3357199999999999,-0.71813781,0.67333812,-0.12683073
1764433957.6271737,-4.74586,1.2971,0.3357199999999999,-0.71813781,0.67333812,-0.12683073
1764433957.6271737,-4.74586,1.2971,0.3357199999999999,-0.71813781,0.67333812,-0.12683073
1764433957.6271737,-4.74586,1.2971,0.3357199999999999,-0.71813781,0.67333812,-0.12683073
1764433957.6271737,-4.74586,1.2971,0.3357199999999999,-0.71813781,0.67333812,-0.12683073
1764433957.6271737,-4.74586,1.2971,0.3357199999999999,-0.71813781,0.67333812,-0.12683073
1764433957.6271737,-4.74586,1.2971,0.3357199999999999,-0.71813781,0.67333812,-0.12683073
1764433957.6271737,-4.79164,1.49548,0.2289,-0.7189923,0.67358226,-0.12634245
1764433957.6271737,-4.79164,1.49548,0.2289,-0.7189923,0.67358226,-0.12634245
1764433957.6271737,-4.79164,1.49548,0.2289,-0.7189923,0.67358226,-0.12634245
1764433957.6271737,-4.79164,1.49548,0.2289,-0.7189923,0.67358226,-0.12634245
1764433957.6271737,-4.79164,1.49548,0.2289,-0.7189923,0.67358226,-0.12634245
1764433957.6271737,-4.79164,1.49548,0.2289,-0.7189923,0.67358226,-0.12634245
1764433957.6271737,-4.79164,1.49548,0.2289,-0.7189923,0.67358226,-0.12634245
1764433957.6281714,-4.79164,1.49548,0.2289,-0.7189923,0.67358226,-0.12634245
1764433957.6724975,-4.79164,1.49548,0.2289,-0.7189923,0.67358226,-0.12634245
1764433957.673519,-4.79164,1.49548,0.2289,-0.7189923,0.67358226,-0.12634245
1764433957.673519,-4.33384,1.2208,-0.03052,-0.71813781,0.67321605,-0.12646452
1764433957.673519,-4.33384,1.2208,-0.03052,-0.71813781,0.67321605,-0.12646452
1764433957.673519,-4.33384,1.2208,-0.03052,-0.71813781,0.67321605,-0.12646452
1764433957.673519,-4.33384,1.2208,-0.03052,-0.71813781,0.67321605,-0.12646452
1764433957.673519,-4.33384,1.2208,-0.03052,-0.71813781,0.67321605,-0.12646452
1764433957.673519,-4.33384,1.2208,-0.03052,-0.71813781,0.67321605,-0.12646452
1764433957.673519,-4.33384,1.2208,-0.03052,-0.71813781,0.67321605,-0.12646452
1764433957.673519,-4.33384,1.2208,-0.03052,-0.71813781,0.67321605,-0.12646452
1764433957.673519,-4.33384,1.2208,-0.03052,-0.71813781,0.67321605,-0.12646452
1764433957.673519,-4.33384,1.2208,-0.03052,-0.71813781,0.67321605,-0.12646452
1764433957.673519,-4.21176,1.19028,0.12208,-0.717710565,0.672910875,-0.12646452
1764433957.673519,-4.21176,1.19028,0.12208,-0.717710565,0.672910875,-0.12646452
1764433957.673519,-4.21176,1.19028,0.12208,-0.717710565,0.672910875,-0.12646452
1764433957.673519,-4.21176,1.19028,0.12208,-0.717710565,0.672910875,-0.12646452
1764433957.673519,-4.21176,1.19028,0.12208,-0.717710565,0.672910875,-0.12646452
1764433957.673519,-4.21176,1.19028,0.12208,-0.717710565,0.672910875,-0.12646452
1764433957.673519,-4.21176,1.19028,0.12208,-0.717710565,0.672910875,-0.12646452
1764433957.673519,-4.21176,1.19028,0.12208,-0.717710565,0.672910875,-0.12646452
1764433957.673519,-4.21176,1.19028,0.12208,-0.717710565,0.672910875,-0.12646452
1764433957.673519,-4.21176,1.19028,0.12208,-0.717710565,0.672910875,-0.12646452
1764433957.673519,-4.16598,1.51074,0.21364,-0.717954705,0.672788805,-0.127502115
1764433957.673519,-4.16598,1.51074,0.21364,-0.717954705,0.672788805,-0.127502115
1764433957.71735,-4.16598,1.51074,0.21364,-0.717954705,0.672788805,-0.127502115
1764433957.71735,-4.16598,1.51074,0.21364,-0.717954705,0.672788805,-0.127502115
1764433957.71735,-4.16598,1.51074,0.21364,-0.717954705,0.672788805,-0.127502115
1764433957.71735,-4.16598,1.51074,0.21364,-0.717954705,0.672788805,-0.127502115
1764433957.71735,-4.16598,1.51074,0.21364,-0.717954705,0.672788805,-0.127502115
1764433957.71735,-4.16598,1.51074,0.21364,-0.717954705,0.672788805,-0.127502115
1764433957.71735,-4.16598,1.51074,0.21364,-0.717954705,0.672788805,-0.127502115
1764433957.71735,-4.16598,1.51074,0.21364,-0.717954705,0.672788805,-0.127502115
1764433957.71735,-4.28806,1.31236,0.44254,-0.71789367,0.672788805,-0.12731901
1764433957.71735,-4.28806,1.31236,0.44254,-0.71789367,0.672788805,-0.12731901
1764433957.71735,-4.28806,1.31236,0.44254,-0.71789367,0.672788805,-0.12731901
1764433957.71735,-4.28806,1.31236,0.44254,-0.71789367,0.672788805,-0.12731901
1764433957.71735,-4.28806,1.31236,0.44254,-0.71789367,0.672788805,-0.12731901
1764433957.71735,-4.28806,1.31236,0.44254,-0.71789367,0.672788805,-0.12731901
1764433957.71735,-4.28806,1.31236,0.44254,-0.71789367,0.672788805,-0.12731901
1764433957.71735,-4.28806,1.31236,0.44254,-0.71789367,0.672788805,-0.12731901
1764433957.71735,-4.28806,1.31236,0.44254,-0.71789367,0.672788805,-0.12731901
1764433957.71735,-4.28806,1.31236,0.44254,-0.71789367,0.672788805,-0.12731901
1764433957.71735,-4.1965,1.3734,0.42728,-0.71801574,0.673032945,-0.12670866
1764433957.7188835,-4.1965,1.3734,0.42728,-0.71801574,0.673032945,-0.12670866
1764433957.7188835,-4.1965,1.3734,0.42728,-0.71801574,0.673032945,-0.12670866
1764433957.7188835,-4.1965,1.3734,0.42728,-0.71801574,0.673032945,-0.12670866
1764433957.7188835,-4.1965,1.3734,0.42728,-0.71801574,0.673032945,-0.12670866
1764433957.7188835,-4.1965,1.3734,0.42728,-0.71801574,0.673032945,-0.12670866
1764433957.7622397,-4.1965,1.3734,0.42728,-0.71801574,0.673032945,-0.12670866
1764433957.7622397,-4.1965,1.3734,0.42728,-0.71801574,0.673032945,-0.12670866
1764433957.762773,-4.1965,1.3734,0.42728,-0.71801574,0.673032945,-0.12670866
1764433957.762773,-4.1965,1.3734,0.42728,-0.71801574,0.673032945,-0.12670866
1764433957.762773,-4.39488,1.38866,0.3051999999999999,-0.717710565,0.672666735,-0.126891765
1764433957.762773,-4.39488,1.38866,0.3051999999999999,-0.717710565,0.672666735,-0.126891765
1764433957.762773,-4.39488,1.38866,0.3051999999999999,-0.717710565,0.672666735,-0.126891765
1764433957.762773,-4.39488,1.38866,0.3051999999999999,-0.717710565,0.672666735,-0.126891765
1764433957.762773,-4.39488,1.38866,0.3051999999999999,-0.717710565,0.672666735,-0.126891765
1764433957.762773,-4.39488,1.38866,0.3051999999999999,-0.717710565,0.672666735,-0.126891765
1764433957.762773,-4.39488,1.38866,0.3051999999999999,-0.717710565,0.672666735,-0.126891765
1764433957.762773,-4.39488,1.38866,0.3051999999999999,-0.717710565,0.672666735,-0.126891765
1764433957.762773,-4.39488,1.38866,0.3051999999999999,-0.717710565,0.672666735,-0.126891765
1764433957.762773,-4.39488,1.38866,0.3051999999999999,-0.717710565,0.672666735,-0.126891765
1764433957.762773,-4.22702,1.6022999999999998,0.1525999999999999,-0.71838195,0.6727277700000001,-0.12658659
1764433957.762773,-4.22702,1.6022999999999998,0.1525999999999999,-0.71838195,0.6727277700000001,-0.12658659
1764433957.762773,-4.22702,1.6022999999999998,0.1525999999999999,-0.71838195,0.6727277700000001,-0.12658659
1764433957.762773,-4.22702,1.6022999999999998,0.1525999999999999,-0.71838195,0.6727277700000001,-0.12658659
1764433957.762773,-4.22702,1.6022999999999998,0.1525999999999999,-0.71838195,0.6727277700000001,-0.12658659
1764433957.762773,-4.22702,1.6022999999999998,0.1525999999999999,-0.71838195,0.6727277700000001,-0.12658659
1764433957.8091805,-4.22702,1.6022999999999998,0.1525999999999999,-0.71838195,0.6727277700000001,-0.12658659
1764433957.8091805,-4.22702,1.6022999999999998,0.1525999999999999,-0.71838195,0.6727277700000001,-0.12658659
1764433957.8091805,-4.22702,1.6022999999999998,0.1525999999999999,-0.71838195,0.6727277700000001,-0.12658659
1764433957.8091805,-4.22702,1.6022999999999998,0.1525999999999999,-0.71838195,0.6727277700000001,-0.12658659
1764433957.8091805,-4.33384,1.02242,0.3509799999999999,-0.71813781,0.672910875,-0.12634245
1764433957.8091805,-4.33384,1.02242,0.3509799999999999,-0.71813781,0.672910875,-0.12634245
1764433957.8091805,-4.33384,1.02242,0.3509799999999999,-0.71813781,0.672910875,-0.12634245
1764433957.8091805,-4.33384,1.02242,0.3509799999999999,-0.71813781,0.672910875,-0.12634245
1764433957.8091805,-4.33384,1.02242,0.3509799999999999,-0.71813781,0.672910875,-0.12634245
1764433957.8106992,-4.33384,1.02242,0.3509799999999999,-0.71813781,0.672910875,-0.12634245
1764433957.8106992,-4.33384,1.02242,0.3509799999999999,-0.71813781,0.672910875,-0.12634245
1764433957.8106992,-4.33384,1.02242,0.3509799999999999,-0.71813781,0.672910875,-0.12634245
1764433957.8106992,-4.33384,1.02242,0.3509799999999999,-0.71813781,0.672910875,-0.12634245
1764433957.8106992,-4.33384,1.02242,0.3509799999999999,-0.71813781,0.672910875,-0.12634245
1764433957.8106992,-4.74586,1.4497,0.19838,-0.717588495,0.67297191,-0.125793135
1764433957.8106992,-4.74586,1.4497,0.19838,-0.717588495,0.67297191,-0.125793135
1764433957.8106992,-4.74586,1.4497,0.19838,-0.717588495,0.67297191,-0.125793135
1764433957.8106992,-4.74586,1.4497,0.19838,-0.717588495,0.67297191,-0.125793135
1764433957.8106992,-4.74586,1.4497,0.19838,-0.717588495,0.67297191,-0.125793135
1764433957.8106992,-4.74586,1.4497,0.19838,-0.717588495,0.67297191,-0.125793135
1764433957.8106992,-4.74586,1.4497,0.19838,-0.717588495,0.67297191,-0.125793135
1764433957.8106992,-4.74586,1.4497,0.19838,-0.717588495,0.67297191,-0.125793135
1764433957.8106992,-4.74586,1.4497,0.19838,-0.717588495,0.67297191,-0.125793135
1764433957.8106992,-4.74586,1.4497,0.19838,-0.717588495,0.67297191,-0.125793135
1764433957.8548837,-4.10494,1.49548,0.3815,-0.717466425,0.672666735,-0.126159345
1764433957.856171,-4.10494,1.49548,0.3815,-0.717466425,0.672666735,-0.126159345
1764433957.856171,-4.10494,1.49548,0.3815,-0.717466425,0.672666735,-0.126159345
1764433957.856171,-4.10494,1.49548,0.3815,-0.717466425,0.672666735,-0.126159345
1764433957.856171,-4.10494,1.49548,0.3815,-0.717466425,0.672666735,-0.126159345
1764433957.856171,-4.10494,1.49548,0.3815,-0.717466425,0.672666735,-0.126159345
1764433957.856171,-4.10494,1.49548,0.3815,-0.717466425,0.672666735,-0.126159345
1764433957.856171,-4.10494,1.49548,0.3815,-0.717466425,0.672666735,-0.126159345
1764433957.856171,-4.10494,1.49548,0.3815,-0.717466425,0.672666735,-0.126159345
1764433957.856171,-4.10494,1.49548,0.3815,-0.717466425,0.672666735,-0.126159345
1764433957.8571858,-4.56274,1.09872,0.57988,-0.71813781,0.672666735,-0.126281415
1764433957.8571858,-4.56274,1.09872,0.57988,-0.71813781,0.672666735,-0.126281415
1764433957.8571858,-4.56274,1.09872,0.57988,-0.71813781,0.672666735,-0.126281415
1764433957.8571858,-4.56274,1.09872,0.57988,-0.71813781,0.672666735,-0.126281415
1764433957.8571858,-4.56274,1.09872,0.57988,-0.71813781,0.672666735,-0.126281415
1764433957.8571858,-4.56274,1.09872,0.57988,-0.71813781,0.672666735,-0.126281415
1764433957.8571858,-4.56274,1.09872,0.57988,-0.71813781,0.672666735,-0.126281415
1764433957.8571858,-4.56274,1.09872,0.57988,-0.71813781,0.672666735,-0.126281415
1764433957.8571858,-4.56274,1.09872,0.57988,-0.71813781,0.672666735,-0.126281415
1764433957.8571858,-4.56274,1.09872,0.57988,-0.71813781,0.672666735,-0.126281415
1764433957.8571858,-4.45592,1.23606,0.3815,-0.718565055,0.67248363,-0.1257321
1764433957.8571858,-4.45592,1.23606,0.3815,-0.718565055,0.67248363,-0.1257321
1764433957.8571858,-4.45592,1.23606,0.3815,-0.718565055,0.67248363,-0.1257321
1764433957.8571858,-4.45592,1.23606,0.3815,-0.718565055,0.67248363,-0.1257321
1764433957.900804,-4.45592,1.23606,0.3815,-0.718565055,0.67248363,-0.1257321
1764433957.900804,-4.45592,1.23606,0.3815,-0.718565055,0.67248363,-0.1257321
1764433957.900804,-4.45592,1.23606,0.3815,-0.718565055,0.67248363,-0.1257321
1764433957.900804,-4.45592,1.23606,0.3815,-0.718565055,0.67248363,-0.1257321
1764433957.900804,-4.45592,1.23606,0.3815,-0.718565055,0.67248363,-0.1257321
1764433957.900804,-4.45592,1.23606,0.3815,-0.718565055,0.67248363,-0.1257321
1764433957.900804,-4.18124,1.7549,0.36624,-0.718565055,0.67248363,-0.12561003
1764433957.900804,-4.18124,1.7549,0.36624,-0.718565055,0.67248363,-0.12561003
1764433957.900804,-4.18124,1.7549,0.36624,-0.718565055,0.67248363,-0.12561003
1764433957.900804,-4.18124,1.7549,0.36624,-0.718565055,0.67248363,-0.12561003
1764433957.900804,-4.18124,1.7549,0.36624,-0.718565055,0.67248363,-0.12561003
1764433957.900804,-4.18124,1.7549,0.36624,-0.718565055,0.67248363,-0.12561003
1764433957.900804,-4.18124,1.7549,0.36624,-0.718565055,0.67248363,-0.12561003
1764433957.900804,-4.18124,1.7549,0.36624,-0.718565055,0.67248363,-0.12561003
1764433957.9018192,-4.18124,1.7549,0.36624,-0.718565055,0.67248363,-0.12561003
1764433957.9018192,-4.18124,1.7549,0.36624,-0.718565055,0.67248363,-0.12561003
1764433957.9018192,-4.47118,0.8698199999999999,-0.04578,-0.717832635,0.672666735,-0.12634245
1764433957.9018192,-4.47118,0.8698199999999999,-0.04578,-0.717832635,0.672666735,-0.12634245
1764433957.9018192,-4.47118,0.8698199999999999,-0.04578,-0.717832635,0.672666735,-0.12634245
1764433957.9018192,-4.47118,0.8698199999999999,-0.04578,-0.717832635,0.672666735,-0.12634245
1764433957.902819,-4.47118,0.8698199999999999,-0.04578,-0.717832635,0.672666735,-0.12634245
1764433957.902819,-4.47118,0.8698199999999999,-0.04578,-0.717832635,0.672666735,-0.12634245
1764433957.9469657,-4.47118,0.8698199999999999,-0.04578,-0.717832635,0.672666735,-0.12634245
1764433957.9469657,-4.47118,0.8698199999999999,-0.04578,-0.717832635,0.672666735,-0.12634245
1764433957.9469657,-4.47118,0.8698199999999999,-0.04578,-0.717832635,0.672666735,-0.12634245
1764433957.9469657,-4.47118,0.8698199999999999,-0.04578,-0.717832635,0.672666735,-0.12634245
1764433957.9469657,-3.98286,1.12924,-0.04578,-0.71813781,0.674009505,-0.12634245
1764433957.9469657,-3.98286,1.12924,-0.04578,-0.71813781,0.674009505,-0.12634245
1764433957.9469657,-3.98286,1.12924,-0.04578,-0.71813781,0.674009505,-0.12634245
1764433957.9469657,-3.98286,1.12924,-0.04578,-0.71813781,0.674009505,-0.12634245
1764433957.9469657,-3.98286,1.12924,-0.04578,-0.71813781,0.674009505,-0.12634245
1764433957.9469657,-3.98286,1.12924,-0.04578,-0.71813781,0.674009505,-0.12634245
1764433957.9469657,-3.98286,1.12924,-0.04578,-0.71813781,0.674009505,-0.12634245
1764433957.9469657,-3.98286,1.12924,-0.04578,-0.71813781,0.674009505,-0.12634245
1764433957.9469657,-3.98286,1.12924,-0.04578,-0.71813781,0.674009505,-0.12634245
1764433957.9469657,-3.98286,1.12924,-0.04578,-0.71813781,0.674009505,-0.12634245
1764433957.9469657,-3.69292,1.28184,0.2289,-0.718687125,0.67407054,-0.12683073
1764433957.9479744,-3.69292,1.28184,0.2289,-0.718687125,0.67407054,-0.12683073
1764433957.9479744,-3.69292,1.28184,0.2289,-0.718687125,0.67407054,-0.12683073
1764433957.9479744,-3.69292,1.28184,0.2289,-0.718687125,0.67407054,-0.12683073
1764433957.9479744,-3.69292,1.28184,0.2289,-0.718687125,0.67407054,-0.12683073
1764433957.9479744,-3.69292,1.28184,0.2289,-0.718687125,0.67407054,-0.12683073
1764433957.9479744,-3.69292,1.28184,0.2289,-0.718687125,0.67407054,-0.12683073
1764433957.9479744,-3.69292,1.28184,0.2289,-0.718687125,0.67407054,-0.12683073
1764433957.9479744,-3.69292,1.28184,0.2289,-0.718687125,0.67407054,-0.12683073
1764433957.9479744,-3.69292,1.28184,0.2289,-0.718687125,0.67407054,-0.12683073
1764433957.9952097,-3.9676,1.2971,0.28994,-0.71874816,0.67309398,-0.12683073
1764433957.9952097,-3.9676,1.2971,0.28994,-0.71874816,0.67309398,-0.12683073
1764433957.9952097,-3.9676,1.2971,0.28994,-0.71874816,0.67309398,-0.12683073
1764433957.9952097,-3.9676,1.2971,0.28994,-0.71874816,0.67309398,-0.12683073
1764433957.9952097,-3.9676,1.2971,0.28994,-0.71874816,0.67309398,-0.12683073
1764433957.9952097,-3.9676,1.2971,0.28994,-0.71874816,0.67309398,-0.12683073
1764433957.9952097,-3.9676,1.2971,0.28994,-0.71874816,0.67309398,-0.12683073
1764433957.9952097,-3.9676,1.2971,0.28994,-0.71874816,0.67309398,-0.12683073
1764433957.9952097,-3.9676,1.2971,0.28994,-0.71874816,0.67309398,-0.12683073
1764433957.9952097,-3.9676,1.2971,0.28994,-0.71874816,0.67309398,-0.12683073
1764433957.9952097,-4.39488,1.55652,0.3357199999999999,-0.71874816,0.673399155,-0.12670866
1764433957.9952097,-4.39488,1.55652,0.3357199999999999,-0.71874816,0.673399155,-0.12670866
1764433957.9952097,-4.39488,1.55652,0.3357199999999999,-0.71874816,0.673399155,-0.12670866
1764433957.9952097,-4.39488,1.55652,0.3357199999999999,-0.71874816,0.673399155,-0.12670866
1764433957.9952097,-4.39488,1.55652,0.3357199999999999,-0.71874816,0.673399155,-0.12670866
1764433957.9952097,-4.39488,1.55652,0.3357199999999999,-0.71874816,0.673399155,-0.12670866
1764433957.9952097,-4.39488,1.55652,0.3357199999999999,-0.71874816,0.673399155,-0.12670866
1764433957.9962,-4.39488,1.55652,0.3357199999999999,-0.71874816,0.673399155,-0.12670866
1764433957.9962,-4.39488,1.55652,0.3357199999999999,-0.71874816,0.673399155,-0.12670866
1764433957.9962,-4.39488,1.55652,0.3357199999999999,-0.71874816,0.673399155,-0.12670866
1764433957.9962,-3.98286,1.70912,0.47306,-0.71801574,0.6726057,-0.12646452
1764433957.9962,-3.98286,1.70912,0.47306,-0.71801574,0.6726057,-0.12646452
1764433958.0406337,-3.98286,1.70912,0.47306,-0.71801574,0.6726057,-0.12646452
1764433958.0406337,-3.98286,1.70912,0.47306,-0.71801574,0.6726057,-0.12646452
1764433958.0406337,-3.98286,1.70912,0.47306,-0.71801574,0.6726057,-0.12646452
1764433958.0406337,-3.98286,1.70912,0.47306,-0.71801574,0.6726057,-0.12646452
1764433958.0406337,-3.98286,1.70912,0.47306,-0.71801574,0.6726057,-0.12646452
1764433958.0406337,-3.98286,1.70912,0.47306,-0.71801574,0.6726057,-0.12646452
1764433958.0406337,-3.98286,1.70912,0.47306,-0.71801574,0.6726057,-0.12646452
1764433958.0406337,-3.98286,1.70912,0.47306,-0.71801574,0.6726057,-0.12646452
1764433958.0406337,-3.29616,1.43444,0.51884,-0.717832635,0.67284984,-0.12646452
1764433958.0406337,-3.29616,1.43444,0.51884,-0.717832635,0.67284984,-0.12646452
1764433958.0406337,-3.29616,1.43444,0.51884,-0.717832635,0.67284984,-0.12646452
1764433958.0406337,-3.29616,1.43444,0.51884,-0.717832635,0.67284984,-0.12646452
1764433958.0406337,-3.29616,1.43444,0.51884,-0.717832635,0.67284984,-0.12646452
1764433958.0416474,-3.29616,1.43444,0.51884,-0.717832635,0.67284984,-0.12646452
1764433958.0416474,-3.29616,1.43444,0.51884,-0.717832635,0.67284984,-0.12646452
1764433958.0416474,-3.29616,1.43444,0.51884,-0.717832635,0.67284984,-0.12646452
1764433958.0416474,-3.29616,1.43444,0.51884,-0.717832635,0.67284984,-0.12646452
1764433958.0416474,-3.29616,1.43444,0.51884,-0.717832635,0.67284984,-0.12646452
1764433958.0416474,-3.815,1.73964,0.8698199999999999,-0.71887023,0.67236156,-0.12683073
1764433958.0416474,-3.815,1.73964,0.8698199999999999,-0.71887023,0.67236156,-0.12683073
1764433958.0416474,-3.815,1.73964,0.8698199999999999,-0.71887023,0.67236156,-0.12683073
1764433958.0427997,-3.815,1.73964,0.8698199999999999,-0.71887023,0.67236156,-0.12683073
1764433958.0427997,-3.815,1.73964,0.8698199999999999,-0.71887023,0.67236156,-0.12683073
1764433958.0427997,-3.815,1.73964,0.8698199999999999,-0.71887023,0.67236156,-0.12683073
1764433958.0875812,-3.815,1.73964,0.8698199999999999,-0.71887023,0.67236156,-0.12683073
1764433958.0875812,-3.815,1.73964,0.8698199999999999,-0.71887023,0.67236156,-0.12683073
1764433958.0875812,-3.815,1.73964,0.8698199999999999,-0.71887023,0.67236156,-0.12683073
1764433958.0875812,-3.815,1.73964,0.8698199999999999,-0.71887023,0.67236156,-0.12683073
1764433958.0875812,-3.72344,1.64808,0.65618,-0.71838195,0.672910875,-0.127013835
1764433958.0875812,-3.72344,1.64808,0.65618,-0.71838195,0.672910875,-0.127013835
1764433958.0885828,-3.72344,1.64808,0.65618,-0.71838195,0.672910875,-0.127013835
1764433958.0885828,-3.72344,1.64808,0.65618,-0.71838195,0.672910875,-0.127013835
1764433958.0885828,-3.72344,1.64808,0.65618,-0.71838195,0.672910875,-0.127013835
1764433958.0885828,-3.72344,1.64808,0.65618,-0.71838195,0.672910875,-0.127013835
1764433958.0885828,-3.72344,1.64808,0.65618,-0.71838195,0.672910875,-0.127013835
1764433958.0895824,-3.72344,1.64808,0.65618,-0.71838195,0.672910875,-0.127013835
1764433958.0895824,-3.72344,1.64808,0.65618,-0.71838195,0.672910875,-0.127013835
1764433958.0895824,-3.72344,1.64808,0.65618,-0.71838195,0.672910875,-0.127013835
1764433958.0895824,-3.41824,1.63282,0.6103999999999999,-0.71789367,0.672788805,-0.127135905
1764433958.0905826,-3.41824,1.63282,0.6103999999999999,-0.71789367,0.672788805,-0.127135905
1764433958.0905826,-3.41824,1.63282,0.6103999999999999,-0.71789367,0.672788805,-0.127135905
1764433958.0905826,-3.41824,1.63282,0.6103999999999999,-0.71789367,0.672788805,-0.127135905
1764433958.0905826,-3.41824,1.63282,0.6103999999999999,-0.71789367,0.672788805,-0.127135905
1764433958.0905826,-3.41824,1.63282,0.6103999999999999,-0.71789367,0.672788805,-0.127135905
1764433958.0905826,-3.41824,1.63282,0.6103999999999999,-0.71789367,0.672788805,-0.127135905
1764433958.0905826,-3.41824,1.63282,0.6103999999999999,-0.71789367,0.672788805,-0.127135905
1764433958.0905826,-3.41824,1.63282,0.6103999999999999,-0.71789367,0.672788805,-0.127135905
1764433958.0905826,-3.41824,1.63282,0.6103999999999999,-0.71789367,0.672788805,-0.127135905
1764433958.131183,-3.29616,1.54126,0.39676,-0.71825988,0.67321605,-0.127257975
1764433958.131183,-3.29616,1.54126,0.39676,-0.71825988,0.67321605,-0.127257975
1764433958.131183,-3.29616,1.54126,0.39676,-0.71825988,0.67321605,-0.127257975
1764433958.1322012,-3.29616,1.54126,0.39676,-0.71825988,0.67321605,-0.127257975
1764433958.1322012,-3.29616,1.54126,0.39676,-0.71825988,0.67321605,-0.127257975
1764433958.1322012,-3.29616,1.54126,0.39676,-0.71825988,0.67321605,-0.127257975
1764433958.1322012,-3.29616,1.54126,0.39676,-0.71825988,0.67321605,-0.127257975
1764433958.1327157,-3.29616,1.54126,0.39676,-0.71825988,0.67321605,-0.127257975
1764433958.1327157,-3.29616,1.54126,0.39676,-0.71825988,0.67321605,-0.127257975
1764433958.1327157,-3.29616,1.54126,0.39676,-0.71825988,0.67321605,-0.127257975
1764433958.1332266,-3.2809,1.25132,0.24416,-0.717710565,0.67419261,-0.127135905
1764433958.1332266,-3.2809,1.25132,0.24416,-0.717710565,0.67419261,-0.127135905
1764433958.1332266,-3.2809,1.25132,0.24416,-0.717710565,0.67419261,-0.127135905
1764433958.1332266,-3.2809,1.25132,0.24416,-0.717710565,0.67419261,-0.127135905
1764433958.1332266,-3.2809,1.25132,0.24416,-0.717710565,0.67419261,-0.127135905
1764433958.1332266,-3.2809,1.25132,0.24416,-0.717710565,0.67419261,-0.127135905
1764433958.1332266,-3.2809,1.25132,0.24416,-0.717710565,0.67419261,-0.127135905
1764433958.1332266,-3.2809,1.25132,0.24416,-0.717710565,0.67419261,-0.127135905
1764433958.1332266,-3.2809,1.25132,0.24416,-0.717710565,0.67419261,-0.127135905
1764433958.1332266,-3.2809,1.25132,0.24416,-0.717710565,0.67419261,-0.127135905
1764433958.1347642,-3.52506,1.58704,0.47306,-0.71789367,0.67370433,-0.126525555
1764433958.1347642,-3.52506,1.58704,0.47306,-0.71789367,0.67370433,-0.126525555
1764433958.17832,-3.52506,1.58704,0.47306,-0.71789367,0.67370433,-0.126525555
1764433958.17832,-3.52506,1.58704,0.47306,-0.71789367,0.67370433,-0.126525555
1764433958.17832,-3.52506,1.58704,0.47306,-0.71789367,0.67370433,-0.126525555
1764433958.17832,-3.52506,1.58704,0.47306,-0.71789367,0.67370433,-0.126525555
1764433958.17832,-3.52506,1.58704,0.47306,-0.71789367,0.67370433,-0.126525555
1764433958.17832,-3.52506,1.58704,0.47306,-0.71789367,0.67370433,-0.126525555
1764433958.1793382,-3.52506,1.58704,0.47306,-0.71789367,0.67370433,-0.126525555
1764433958.1793382,-3.52506,1.58704,0.47306,-0.71789367,0.67370433,-0.126525555
1764433958.1793382,-3.3572,1.2055399999999998,0.3357199999999999,-0.718198845,0.67358226,-0.1269528
1764433958.1793382,-3.3572,1.2055399999999998,0.3357199999999999,-0.718198845,0.67358226,-0.1269528
1764433958.1793382,-3.3572,1.2055399999999998,0.3357199999999999,-0.718198845,0.67358226,-0.1269528
1764433958.1793382,-3.3572,1.2055399999999998,0.3357199999999999,-0.718198845,0.67358226,-0.1269528
1764433958.1793382,-3.3572,1.2055399999999998,0.3357199999999999,-0.718198845,0.67358226,-0.1269528
1764433958.1793382,-3.3572,1.2055399999999998,0.3357199999999999,-0.718198845,0.67358226,-0.1269528
1764433958.1793382,-3.3572,1.2055399999999998,0.3357199999999999,-0.718198845,0.67358226,-0.1269528
1764433958.1803267,-3.3572,1.2055399999999998,0.3357199999999999,-0.718198845,0.67358226,-0.1269528
1764433958.1803267,-3.3572,1.2055399999999998,0.3357199999999999,-0.718198845,0.67358226,-0.1269528
1764433958.1808376,-3.3572,1.2055399999999998,0.3357199999999999,-0.718198845,0.67358226,-0.1269528
1764433958.1818478,-3.2046,1.09872,0.06104,-0.718198845,0.67333812,-0.12622038
1764433958.1818478,-3.2046,1.09872,0.06104,-0.718198845,0.67333812,-0.12622038
1764433958.1818478,-3.2046,1.09872,0.06104,-0.718198845,0.67333812,-0.12622038
1764433958.1818478,-3.2046,1.09872,0.06104,-0.718198845,0.67333812,-0.12622038
1764433958.2249887,-3.2046,1.09872,0.06104,-0.718198845,0.67333812,-0.12622038
1764433958.2249887,-3.2046,1.09872,0.06104,-0.718198845,0.67333812,-0.12622038
1764433958.2249887,-3.2046,1.09872,0.06104,-0.718198845,0.67333812,-0.12622038
1764433958.2249887,-3.2046,1.09872,0.06104,-0.718198845,0.67333812,-0.12622038
1764433958.2249887,-3.2046,1.09872,0.06104,-0.718198845,0.67333812,-0.12622038
1764433958.2249887,-3.2046,1.09872,0.06104,-0.718198845,0.67333812,-0.12622038
1764433958.2249887,-3.32668,1.35814,0.44254,-0.7183209150000001,0.673155015,-0.126525555
1764433958.2249887,-3.32668,1.35814,0.44254,-0.7183209150000001,0.673155015,-0.126525555
1764433958.2249887,-3.32668,1.35814,0.44254,-0.7183209150000001,0.673155015,-0.126525555
1764433958.2249887,-3.32668,1.35814,0.44254,-0.7183209150000001,0.673155015,-0.126525555
1764433958.2249887,-3.32668,1.35814,0.44254,-0.7183209150000001,0.673155015,-0.126525555
1764433958.2249887,-3.32668,1.35814,0.44254,-0.7183209150000001,0.673155015,-0.126525555
1764433958.2249887,-3.32668,1.35814,0.44254,-0.7183209150000001,0.673155015,-0.126525555
1764433958.226006,-3.32668,1.35814,0.44254,-0.7183209150000001,0.673155015,-0.126525555
1764433958.226006,-3.32668,1.35814,0.44254,-0.7183209150000001,0.673155015,-0.126525555
1764433958.226006,-3.32668,1.35814,0.44254,-0.7183209150000001,0.673155015,-0.126525555
1764433958.226006,-3.03674,1.43444,0.19838,-0.7183209150000001,0.67309398,-0.127135905
1764433958.226006,-3.03674,1.43444,0.19838,-0.7183209150000001,0.67309398,-0.127135905
1764433958.226006,-3.03674,1.43444,0.19838,-0.7183209150000001,0.67309398,-0.127135905
1764433958.226006,-3.03674,1.43444,0.19838,-0.7183209150000001,0.67309398,-0.127135905
1764433958.226006,-3.03674,1.43444,0.19838,-0.7183209150000001,0.67309398,-0.127135905
1764433958.226006,-3.03674,1.43444,0.19838,-0.7183209150000001,0.67309398,-0.127135905
1764433958.226006,-3.03674,1.43444,0.19838,-0.7183209150000001,0.67309398,-0.127135905
1764433958.226006,-3.03674,1.43444,0.19838,-0.7183209150000001,0.67309398,-0.127135905
1764433958.2741077,-3.03674,1.43444,0.19838,-0.7183209150000001,0.67309398,-0.127135905
1764433958.2741077,-3.03674,1.43444,0.19838,-0.7183209150000001,0.67309398,-0.127135905
1764433958.2741077,-3.17408,1.49548,0.3357199999999999,-0.717588495,0.67284984,-0.127868325
1764433958.2741077,-3.17408,1.49548,0.3357199999999999,-0.717588495,0.67284984,-0.127868325
1764433958.2741077,-3.17408,1.49548,0.3357199999999999,-0.717588495,0.67284984,-0.127868325
1764433958.2741077,-3.17408,1.49548,0.3357199999999999,-0.717588495,0.67284984,-0.127868325
1764433958.2751243,-3.17408,1.49548,0.3357199999999999,-0.717588495,0.67284984,-0.127868325
1764433958.2751243,-3.17408,1.49548,0.3357199999999999,-0.717588495,0.67284984,-0.127868325
1764433958.2751243,-3.17408,1.49548,0.3357199999999999,-0.717588495,0.67284984,-0.127868325
1764433958.2751243,-3.17408,1.49548,0.3357199999999999,-0.717588495,0.67284984,-0.127868325
1764433958.2751243,-3.17408,1.49548,0.3357199999999999,-0.717588495,0.67284984,-0.127868325
1764433958.2751243,-3.17408,1.49548,0.3357199999999999,-0.717588495,0.67284984,-0.127868325
1764433958.2751243,-3.25038,1.00716,0.21364,-0.71789367,0.672788805,-0.12841764
1764433958.2751243,-3.25038,1.00716,0.21364,-0.71789367,0.672788805,-0.12841764
1764433958.2751243,-3.25038,1.00716,0.21364,-0.71789367,0.672788805,-0.12841764
1764433958.2751243,-3.25038,1.00716,0.21364,-0.71789367,0.672788805,-0.12841764
1764433958.2751243,-3.25038,1.00716,0.21364,-0.71789367,0.672788805,-0.12841764
1764433958.2751243,-3.25038,1.00716,0.21364,-0.71789367,0.672788805,-0.12841764
1764433958.2751243,-3.25038,1.00716,0.21364,-0.71789367,0.672788805,-0.12841764
1764433958.2751243,-3.25038,1.00716,0.21364,-0.71789367,0.672788805,-0.12841764
1764433958.2751243,-3.25038,1.00716,0.21364,-0.71789367,0.672788805,-0.12841764
1764433958.2751243,-3.25038,1.00716,0.21364,-0.71789367,0.672788805,-0.12841764
1764433958.2751243,-3.37246,1.48022,0.59514,-0.71838195,0.6727277700000001,-0.128478675
1764433958.2751243,-3.37246,1.48022,0.59514,-0.71838195,0.6727277700000001,-0.128478675
1764433958.3184867,-3.37246,1.48022,0.59514,-0.71838195,0.6727277700000001,-0.128478675
1764433958.3184867,-3.37246,1.48022,0.59514,-0.71838195,0.6727277700000001,-0.128478675
1764433958.3184867,-3.37246,1.48022,0.59514,-0.71838195,0.6727277700000001,-0.128478675
1764433958.3184867,-3.37246,1.48022,0.59514,-0.71838195,0.6727277700000001,-0.128478675
1764433958.3195615,-3.37246,1.48022,0.59514,-0.71838195,0.6727277700000001,-0.128478675
1764433958.3195615,-3.37246,1.48022,0.59514,-0.71838195,0.6727277700000001,-0.128478675
1764433958.3195615,-3.37246,1.48022,0.59514,-0.71838195,0.6727277700000001,-0.128478675
1764433958.3195615,-3.37246,1.48022,0.59514,-0.71838195,0.6727277700000001,-0.128478675
1764433958.3195615,-3.34194,1.73964,0.51884,-0.718565055,0.672788805,-0.128844885
1764433958.3195615,-3.34194,1.73964,0.51884,-0.718565055,0.672788805,-0.128844885
1764433958.3195615,-3.34194,1.73964,0.51884,-0.718565055,0.672788805,-0.128844885
1764433958.3195615,-3.34194,1.73964,0.51884,-0.718565055,0.672788805,-0.128844885
1764433958.3195615,-3.34194,1.73964,0.51884,-0.718565055,0.672788805,-0.128844885
1764433958.3195615,-3.34194,1.73964,0.51884,-0.718565055,0.672788805,-0.128844885
1764433958.3195615,-3.34194,1.73964,0.51884,-0.718565055,0.672788805,-0.128844885
1764433958.3195615,-3.34194,1.73964,0.51884,-0.718565055,0.672788805,-0.128844885
1764433958.3195615,-3.34194,1.73964,0.51884,-0.718565055,0.672788805,-0.128844885
1764433958.3195615,-3.34194,1.73964,0.51884,-0.718565055,0.672788805,-0.128844885
1764433958.3205564,-3.25038,1.70912,0.65618,-0.718565055,0.67309398,-0.12805143
1764433958.3205564,-3.25038,1.70912,0.65618,-0.718565055,0.67309398,-0.12805143
1764433958.3210683,-3.25038,1.70912,0.65618,-0.718565055,0.67309398,-0.12805143
1764433958.3210683,-3.25038,1.70912,0.65618,-0.718565055,0.67309398,-0.12805143
1764433958.3220787,-3.25038,1.70912,0.65618,-0.718565055,0.67309398,-0.12805143
1764433958.3220787,-3.25038,1.70912,0.65618,-0.718565055,0.67309398,-0.12805143
1764433958.3649185,-3.25038,1.70912,0.65618,-0.718565055,0.67309398,-0.12805143
1764433958.3649185,-3.25038,1.70912,0.65618,-0.718565055,0.67309398,-0.12805143
1764433958.3649185,-3.25038,1.70912,0.65618,-0.718565055,0.67309398,-0.12805143
1764433958.3649185,-3.25038,1.70912,0.65618,-0.718565055,0.67309398,-0.12805143
1764433958.3649185,-2.80784,1.64808,0.6103999999999999,-0.71838195,0.673155015,-0.12756315
1764433958.3649185,-2.80784,1.64808,0.6103999999999999,-0.71838195,0.673155015,-0.12756315
1764433958.3649185,-2.80784,1.64808,0.6103999999999999,-0.71838195,0.673155015,-0.12756315
1764433958.3649185,-2.80784,1.64808,0.6103999999999999,-0.71838195,0.673155015,-0.12756315
1764433958.3649185,-2.80784,1.64808,0.6103999999999999,-0.71838195,0.673155015,-0.12756315
1764433958.3649185,-2.80784,1.64808,0.6103999999999999,-0.71838195,0.673155015,-0.12756315
1764433958.3649185,-2.80784,1.64808,0.6103999999999999,-0.71838195,0.673155015,-0.12756315
1764433958.3649185,-2.80784,1.64808,0.6103999999999999,-0.71838195,0.673155015,-0.12756315
1764433958.3649185,-2.80784,1.64808,0.6103999999999999,-0.71838195,0.673155015,-0.12756315
1764433958.3649185,-2.80784,1.64808,0.6103999999999999,-0.71838195,0.673155015,-0.12756315
1764433958.3649185,-2.70102,1.69386,0.73248,-0.71850402,0.672788805,-0.12829557
1764433958.3649185,-2.70102,1.69386,0.73248,-0.71850402,0.672788805,-0.12829557
1764433958.3649185,-2.70102,1.69386,0.73248,-0.71850402,0.672788805,-0.12829557
1764433958.3649185,-2.70102,1.69386,0.73248,-0.71850402,0.672788805,-0.12829557
1764433958.3649185,-2.70102,1.69386,0.73248,-0.71850402,0.672788805,-0.12829557
1764433958.3649185,-2.70102,1.69386,0.73248,-0.71850402,0.672788805,-0.12829557
1764433958.365939,-2.70102,1.69386,0.73248,-0.71850402,0.672788805,-0.12829557
1764433958.365939,-2.70102,1.69386,0.73248,-0.71850402,0.672788805,-0.12829557
1764433958.415064,-2.70102,1.69386,0.73248,-0.71850402,0.672788805,-0.12829557
1764433958.415064,-2.70102,1.69386,0.73248,-0.71850402,0.672788805,-0.12829557
1764433958.415064,-2.68576,1.43444,0.42728,-0.718198845,0.672422595,-0.129211095
1764433958.415064,-2.68576,1.43444,0.42728,-0.718198845,0.672422595,-0.129211095
1764433958.415064,-2.68576,1.43444,0.42728,-0.718198845,0.672422595,-0.129211095
1764433958.415064,-2.68576,1.43444,0.42728,-0.718198845,0.672422595,-0.129211095
1764433958.415064,-2.68576,1.43444,0.42728,-0.718198845,0.672422595,-0.129211095
1764433958.415064,-2.68576,1.43444,0.42728,-0.718198845,0.672422595,-0.129211095
1764433958.415064,-2.68576,1.43444,0.42728,-0.718198845,0.672422595,-0.129211095
1764433958.415064,-2.68576,1.43444,0.42728,-0.718198845,0.672422595,-0.129211095
1764433958.415064,-2.68576,1.43444,0.42728,-0.718198845,0.672422595,-0.129211095
1764433958.415064,-2.68576,1.43444,0.42728,-0.718198845,0.672422595,-0.129211095
1764433958.4154885,-2.80784,1.46496,0.51884,-0.7183209150000001,0.673277085,-0.12890592
1764433958.4154885,-2.80784,1.46496,0.51884,-0.7183209150000001,0.673277085,-0.12890592
1764433958.4154885,-2.80784,1.46496,0.51884,-0.7183209150000001,0.673277085,-0.12890592
1764433958.4154885,-2.80784,1.46496,0.51884,-0.7183209150000001,0.673277085,-0.12890592
1764433958.4154885,-2.80784,1.46496,0.51884,-0.7183209150000001,0.673277085,-0.12890592
1764433958.4154885,-2.80784,1.46496,0.51884,-0.7183209150000001,0.673277085,-0.12890592
1764433958.4154885,-2.80784,1.46496,0.51884,-0.7183209150000001,0.673277085,-0.12890592
1764433958.4154885,-2.80784,1.46496,0.51884,-0.7183209150000001,0.673277085,-0.12890592
1764433958.4154885,-2.80784,1.46496,0.51884,-0.7183209150000001,0.673277085,-0.12890592
1764433958.4154885,-2.80784,1.46496,0.51884,-0.7183209150000001,0.673277085,-0.12890592
1764433958.4154885,-2.70102,1.6786,0.62566,-0.718076775,0.673521225,-0.12915006
1764433958.4154885,-2.70102,1.6786,0.62566,-0.718076775,0.673521225,-0.12915006
1764433958.4590044,-2.70102,1.6786,0.62566,-0.718076775,0.673521225,-0.12915006
1764433958.4590044,-2.70102,1.6786,0.62566,-0.718076775,0.673521225,-0.12915006
1764433958.4590044,-2.70102,1.6786,0.62566,-0.718076775,0.673521225,-0.12915006
1764433958.4590044,-2.70102,1.6786,0.62566,-0.718076775,0.673521225,-0.12915006
1764433958.4590044,-2.70102,1.6786,0.62566,-0.718076775,0.673521225,-0.12915006
1764433958.4590044,-2.70102,1.6786,0.62566,-0.718076775,0.673521225,-0.12915006
1764433958.4590044,-2.70102,1.6786,0.62566,-0.718076775,0.673521225,-0.12915006
1764433958.4590044,-2.70102,1.6786,0.62566,-0.718076775,0.673521225,-0.12915006
1764433958.4590044,-2.62472,1.78542,0.59514,-0.71801574,0.67321605,-0.1293942
1764433958.4590044,-2.62472,1.78542,0.59514,-0.71801574,0.67321605,-0.1293942
1764433958.4590044,-2.62472,1.78542,0.59514,-0.71801574,0.67321605,-0.1293942
1764433958.4590044,-2.62472,1.78542,0.59514,-0.71801574,0.67321605,-0.1293942
1764433958.4590044,-2.62472,1.78542,0.59514,-0.71801574,0.67321605,-0.1293942
1764433958.4590044,-2.62472,1.78542,0.59514,-0.71801574,0.67321605,-0.1293942
1764433958.4590044,-2.62472,1.78542,0.59514,-0.71801574,0.67321605,-0.1293942
1764433958.4590044,-2.62472,1.78542,0.59514,-0.71801574,0.67321605,-0.1293942
1764433958.4590044,-2.62472,1.78542,0.59514,-0.71801574,0.67321605,-0.1293942
1764433958.4590044,-2.62472,1.78542,0.59514,-0.71801574,0.67321605,-0.1293942
1764433958.4605153,-2.48738,1.35814,0.36624,-0.7183209150000001,0.67333812,-0.130065585
1764433958.4605153,-2.48738,1.35814,0.36624,-0.7183209150000001,0.67333812,-0.130065585
1764433958.4605153,-2.48738,1.35814,0.36624,-0.7183209150000001,0.67333812,-0.130065585
1764433958.4605153,-2.48738,1.35814,0.36624,-0.7183209150000001,0.67333812,-0.130065585
1764433958.5038488,-2.48738,1.35814,0.36624,-0.7183209150000001,0.67333812,-0.130065585
1764433958.5038488,-2.48738,1.35814,0.36624,-0.7183209150000001,0.67333812,-0.130065585
1764433958.5038488,-2.48738,1.35814,0.36624,-0.7183209150000001,0.67333812,-0.130065585
1764433958.5038488,-2.48738,1.35814,0.36624,-0.7183209150000001,0.67333812,-0.130065585
1764433958.5038488,-2.48738,1.35814,0.36624,-0.7183209150000001,0.67333812,-0.130065585
1764433958.5038488,-2.48738,1.35814,0.36624,-0.7183209150000001,0.67333812,-0.130065585
1764433958.5038488,-2.85362,1.70912,0.6714399999999999,-0.718442985,0.67346019,-0.130065585
1764433958.5038488,-2.85362,1.70912,0.6714399999999999,-0.718442985,0.67346019,-0.130065585
1764433958.5038488,-2.85362,1.70912,0.6714399999999999,-0.718442985,0.67346019,-0.130065585
1764433958.5038488,-2.85362,1.70912,0.6714399999999999,-0.718442985,0.67346019,-0.130065585
1764433958.5038488,-2.85362,1.70912,0.6714399999999999,-0.718442985,0.67346019,-0.130065585
1764433958.5038488,-2.85362,1.70912,0.6714399999999999,-0.718442985,0.67346019,-0.130065585
1764433958.5038488,-2.85362,1.70912,0.6714399999999999,-0.718442985,0.67346019,-0.130065585
1764433958.5048764,-2.85362,1.70912,0.6714399999999999,-0.718442985,0.67346019,-0.130065585
1764433958.5048764,-2.85362,1.70912,0.6714399999999999,-0.718442985,0.67346019,-0.130065585
1764433958.5048764,-2.85362,1.70912,0.6714399999999999,-0.718442985,0.67346019,-0.130065585
1764433958.5048764,-2.80784,1.6786,0.65618,-0.718442985,0.67284984,-0.13073697
1764433958.5048764,-2.80784,1.6786,0.65618,-0.718442985,0.67284984,-0.13073697
1764433958.5048764,-2.80784,1.6786,0.65618,-0.718442985,0.67284984,-0.13073697
1764433958.5048764,-2.80784,1.6786,0.65618,-0.718442985,0.67284984,-0.13073697
1764433958.5048764,-2.80784,1.6786,0.65618,-0.718442985,0.67284984,-0.13073697
1764433958.5048764,-2.80784,1.6786,0.65618,-0.718442985,0.67284984,-0.13073697
1764433958.5048764,-2.80784,1.6786,0.65618,-0.718442985,0.67284984,-0.13073697
1764433958.5048764,-2.80784,1.6786,0.65618,-0.718442985,0.67284984,-0.13073697
1764433958.553142,-2.80784,1.6786,0.65618,-0.718442985,0.67284984,-0.13073697
1764433958.553142,-2.80784,1.6786,0.65618,-0.718442985,0.67284984,-0.13073697
1764433958.553142,-3.00622,1.48022,0.39676,-0.718565055,0.673399155,-0.131164215
1764433958.553142,-3.00622,1.48022,0.39676,-0.718565055,0.673399155,-0.131164215
1764433958.553142,-3.00622,1.48022,0.39676,-0.718565055,0.673399155,-0.131164215
1764433958.553142,-3.00622,1.48022,0.39676,-0.718565055,0.673399155,-0.131164215
1764433958.553142,-3.00622,1.48022,0.39676,-0.718565055,0.673399155,-0.131164215
1764433958.553142,-3.00622,1.48022,0.39676,-0.718565055,0.673399155,-0.131164215
1764433958.553142,-3.00622,1.48022,0.39676,-0.718565055,0.673399155,-0.131164215
1764433958.553142,-3.00622,1.48022,0.39676,-0.718565055,0.673399155,-0.131164215
1764433958.553142,-3.00622,1.48022,0.39676,-0.718565055,0.673399155,-0.131164215
1764433958.553142,-3.00622,1.48022,0.39676,-0.718565055,0.673399155,-0.131164215
1764433958.553142,-2.86888,1.70912,0.24416,-0.71740539,0.6726057,-0.13098111
1764433958.553142,-2.86888,1.70912,0.24416,-0.71740539,0.6726057,-0.13098111
1764433958.553142,-2.86888,1.70912,0.24416,-0.71740539,0.6726057,-0.13098111
1764433958.553142,-2.86888,1.70912,0.24416,-0.71740539,0.6726057,-0.13098111
1764433958.553142,-2.86888,1.70912,0.24416,-0.71740539,0.6726057,-0.13098111
1764433958.553142,-2.86888,1.70912,0.24416,-0.71740539,0.6726057,-0.13098111
1764433958.553142,-2.86888,1.70912,0.24416,-0.71740539,0.6726057,-0.13098111
1764433958.553142,-2.86888,1.70912,0.24416,-0.71740539,0.6726057,-0.13098111
1764433958.553142,-2.86888,1.70912,0.24416,-0.71740539,0.6726057,-0.13098111
1764433958.553142,-2.86888,1.70912,0.24416,-0.71740539,0.6726057,-0.13098111
1764433958.553142,-2.83836,1.72438,0.54936,-0.717344355,0.672788805,-0.13146939
1764433958.553142,-2.83836,1.72438,0.54936,-0.717344355,0.672788805,-0.13146939
1764433958.601267,-2.83836,1.72438,0.54936,-0.717344355,0.672788805,-0.13146939
1764433958.601267,-2.83836,1.72438,0.54936,-0.717344355,0.672788805,-0.13146939
1764433958.601267,-2.83836,1.72438,0.54936,-0.717344355,0.672788805,-0.13146939
1764433958.602279,-2.83836,1.72438,0.54936,-0.717344355,0.672788805,-0.13146939
1764433958.602279,-2.83836,1.72438,0.54936,-0.717344355,0.672788805,-0.13146939
1764433958.602279,-2.83836,1.72438,0.54936,-0.717344355,0.672788805,-0.13146939
1764433958.602279,-2.83836,1.72438,0.54936,-0.717344355,0.672788805,-0.13146939
1764433958.602279,-2.83836,1.72438,0.54936,-0.717344355,0.672788805,-0.13146939
1764433958.602279,-3.31142,1.34288,-0.10682,-0.717466425,0.6726057,-0.13146939
1764433958.602279,-3.31142,1.34288,-0.10682,-0.717466425,0.6726057,-0.13146939
1764433958.602279,-3.31142,1.34288,-0.10682,-0.717466425,0.6726057,-0.13146939
1764433958.602279,-3.31142,1.34288,-0.10682,-0.717466425,0.6726057,-0.13146939
1764433958.602279,-3.31142,1.34288,-0.10682,-0.717466425,0.6726057,-0.13146939
1764433958.602279,-3.31142,1.34288,-0.10682,-0.717466425,0.6726057,-0.13146939
1764433958.602279,-3.31142,1.34288,-0.10682,-0.717466425,0.6726057,-0.13146939
1764433958.602279,-3.31142,1.34288,-0.10682,-0.717466425,0.6726057,-0.13146939
1764433958.602279,-3.31142,1.34288,-0.10682,-0.717466425,0.6726057,-0.13146939
1764433958.602279,-3.31142,1.34288,-0.10682,-0.717466425,0.6726057,-0.13146939
1764433958.602279,-3.5861,1.49548,0.42728,-0.718076775,0.673155015,-0.131774565
1764433958.602279,-3.5861,1.49548,0.42728,-0.718076775,0.673155015,-0.131774565
1764433958.602279,-3.5861,1.49548,0.42728,-0.718076775,0.673155015,-0.131774565
1764433958.602279,-3.5861,1.49548,0.42728,-0.718076775,0.673155015,-0.131774565
1764433958.6427393,-3.5861,1.49548,0.42728,-0.718076775,0.673155015,-0.131774565
1764433958.6432743,-3.5861,1.49548,0.42728,-0.718076775,0.673155015,-0.131774565
1764433958.6432743,-3.5861,1.49548,0.42728,-0.718076775,0.673155015,-0.131774565
1764433958.6432743,-3.5861,1.49548,0.42728,-0.718076775,0.673155015,-0.131774565
1764433958.6432743,-3.5861,1.49548,0.42728,-0.718076775,0.673155015,-0.131774565
1764433958.6432743,-3.5861,1.49548,0.42728,-0.718076775,0.673155015,-0.131774565
1764433958.6432743,-3.052,1.38866,0.6714399999999999,-0.718687125,0.67346019,-0.131896635
1764433958.6432743,-3.052,1.38866,0.6714399999999999,-0.718687125,0.67346019,-0.131896635
1764433958.6432743,-3.052,1.38866,0.6714399999999999,-0.718687125,0.67346019,-0.131896635
1764433958.6432743,-3.052,1.38866,0.6714399999999999,-0.718687125,0.67346019,-0.131896635
1764433958.6432743,-3.052,1.38866,0.6714399999999999,-0.718687125,0.67346019,-0.131896635
1764433958.6432743,-3.052,1.38866,0.6714399999999999,-0.718687125,0.67346019,-0.131896635
1764433958.6432743,-3.052,1.38866,0.6714399999999999,-0.718687125,0.67346019,-0.131896635
1764433958.6432743,-3.052,1.38866,0.6714399999999999,-0.718687125,0.67346019,-0.131896635
1764433958.6432743,-3.052,1.38866,0.6714399999999999,-0.718687125,0.67346019,-0.131896635
1764433958.6432743,-3.052,1.38866,0.6714399999999999,-0.718687125,0.67346019,-0.131896635
1764433958.6432743,-2.76206,1.87698,0.54936,-0.718931265,0.6727277700000001,-0.132873195
1764433958.6432743,-2.76206,1.87698,0.54936,-0.718931265,0.6727277700000001,-0.132873195
1764433958.6432743,-2.76206,1.87698,0.54936,-0.718931265,0.6727277700000001,-0.132873195
1764433958.6432743,-2.76206,1.87698,0.54936,-0.718931265,0.6727277700000001,-0.132873195
1764433958.6432743,-2.76206,1.87698,0.54936,-0.718931265,0.6727277700000001,-0.132873195
1764433958.6432743,-2.76206,1.87698,0.54936,-0.718931265,0.6727277700000001,-0.132873195
1764433958.6909437,-2.76206,1.87698,0.54936,-0.718931265,0.6727277700000001,-0.132873195
1764433958.6909437,-2.76206,1.87698,0.54936,-0.718931265,0.6727277700000001,-0.132873195
1764433958.6909437,-2.76206,1.87698,0.54936,-0.718931265,0.6727277700000001,-0.132873195
1764433958.6909437,-2.76206,1.87698,0.54936,-0.718931265,0.6727277700000001,-0.132873195
1764433958.6909437,-2.8994,1.46496,0.6409199999999999,-0.71801574,0.67309398,-0.13281216
1764433958.6909437,-2.8994,1.46496,0.6409199999999999,-0.71801574,0.67309398,-0.13281216
1764433958.6909437,-2.8994,1.46496,0.6409199999999999,-0.71801574,0.67309398,-0.13281216
1764433958.6925015,-2.8994,1.46496,0.6409199999999999,-0.71801574,0.67309398,-0.13281216
1764433958.6925015,-2.8994,1.46496,0.6409199999999999,-0.71801574,0.67309398,-0.13281216
1764433958.6925015,-2.8994,1.46496,0.6409199999999999,-0.71801574,0.67309398,-0.13281216
1764433958.6925015,-2.8994,1.46496,0.6409199999999999,-0.71801574,0.67309398,-0.13281216
1764433958.6925015,-2.8994,1.46496,0.6409199999999999,-0.71801574,0.67309398,-0.13281216
1764433958.6925015,-2.8994,1.46496,0.6409199999999999,-0.71801574,0.67309398,-0.13281216
1764433958.6925015,-2.8994,1.46496,0.6409199999999999,-0.71801574,0.67309398,-0.13281216
1764433958.6925015,-3.25038,1.69386,0.27468,-0.7172833200000001,0.67248363,-0.132140775
1764433958.6925015,-3.25038,1.69386,0.27468,-0.7172833200000001,0.67248363,-0.132140775
1764433958.6925015,-3.25038,1.69386,0.27468,-0.7172833200000001,0.67248363,-0.132140775
1764433958.6925015,-3.25038,1.69386,0.27468,-0.7172833200000001,0.67248363,-0.132140775
1764433958.6925015,-3.25038,1.69386,0.27468,-0.7172833200000001,0.67248363,-0.132140775
1764433958.6925015,-3.25038,1.69386,0.27468,-0.7172833200000001,0.67248363,-0.132140775
1764433958.6925015,-3.25038,1.69386,0.27468,-0.7172833200000001,0.67248363,-0.132140775
1764433958.6925015,-3.25038,1.69386,0.27468,-0.7172833200000001,0.67248363,-0.132140775
1764433958.6925015,-3.25038,1.69386,0.27468,-0.7172833200000001,0.67248363,-0.132140775
1764433958.6925015,-3.25038,1.69386,0.27468,-0.7172833200000001,0.67248363,-0.132140775
1764433958.7355638,-3.64714,1.32762,-0.1678599999999999,-0.717466425,0.672056385,-0.13207974
1764433958.7355638,-3.64714,1.32762,-0.1678599999999999,-0.717466425,0.672056385,-0.13207974
1764433958.7355638,-3.64714,1.32762,-0.1678599999999999,-0.717466425,0.672056385,-0.13207974
1764433958.7355638,-3.64714,1.32762,-0.1678599999999999,-0.717466425,0.672056385,-0.13207974
1764433958.7355638,-3.64714,1.32762,-0.1678599999999999,-0.717466425,0.672056385,-0.13207974
1764433958.7355638,-3.64714,1.32762,-0.1678599999999999,-0.717466425,0.672056385,-0.13207974
1764433958.7355638,-3.64714,1.32762,-0.1678599999999999,-0.717466425,0.672056385,-0.13207974
1764433958.7355638,-3.64714,1.32762,-0.1678599999999999,-0.717466425,0.672056385,-0.13207974
1764433958.7355638,-3.64714,1.32762,-0.1678599999999999,-0.717466425,0.672056385,-0.13207974
1764433958.7355638,-3.64714,1.32762,-0.1678599999999999,-0.717466425,0.672056385,-0.13207974
1764433958.7355638,-3.52506,1.19028,0.28994,-0.7183209150000001,0.6721784550000001,-0.13220181
1764433958.7355638,-3.52506,1.19028,0.28994,-0.7183209150000001,0.6721784550000001,-0.13220181
1764433958.7355638,-3.52506,1.19028,0.28994,-0.7183209150000001,0.6721784550000001,-0.13220181
1764433958.7355638,-3.52506,1.19028,0.28994,-0.7183209150000001,0.6721784550000001,-0.13220181
1764433958.7371118,-3.52506,1.19028,0.28994,-0.7183209150000001,0.6721784550000001,-0.13220181
1764433958.7371118,-3.52506,1.19028,0.28994,-0.7183209150000001,0.6721784550000001,-0.13220181
1764433958.7371118,-3.52506,1.19028,0.28994,-0.7183209150000001,0.6721784550000001,-0.13220181
1764433958.7371118,-3.52506,1.19028,0.28994,-0.7183209150000001,0.6721784550000001,-0.13220181
1764433958.7371118,-3.52506,1.19028,0.28994,-0.7183209150000001,0.6721784550000001,-0.13220181
1764433958.7371118,-3.52506,1.19028,0.28994,-0.7183209150000001,0.6721784550000001,-0.13220181
1764433958.7371118,-3.5098,1.2971,0.7019599999999999,-0.7183209150000001,0.67175121,-0.13195767
1764433958.7371118,-3.5098,1.2971,0.7019599999999999,-0.7183209150000001,0.67175121,-0.13195767
1764433958.7371118,-3.5098,1.2971,0.7019599999999999,-0.7183209150000001,0.67175121,-0.13195767
1764433958.7371118,-3.5098,1.2971,0.7019599999999999,-0.7183209150000001,0.67175121,-0.13195767
1764433958.7840502,-3.5098,1.2971,0.7019599999999999,-0.7183209150000001,0.67175121,-0.13195767
1764433958.7840502,-3.5098,1.2971,0.7019599999999999,-0.7183209150000001,0.67175121,-0.13195767
1764433958.7845757,-3.5098,1.2971,0.7019599999999999,-0.7183209150000001,0.67175121,-0.13195767
1764433958.7845757,-3.5098,1.2971,0.7019599999999999,-0.7183209150000001,0.67175121,-0.13195767
1764433958.7845757,-3.5098,1.2971,0.7019599999999999,-0.7183209150000001,0.67175121,-0.13195767
1764433958.7845757,-3.5098,1.2971,0.7019599999999999,-0.7183209150000001,0.67175121,-0.13195767
1764433958.7845757,-4.2728,1.23606,0.57988,-0.7177716000000001,0.6716901750000001,-0.132384915
1764433958.7845757,-4.2728,1.23606,0.57988,-0.7177716000000001,0.6716901750000001,-0.132384915
1764433958.7845757,-4.2728,1.23606,0.57988,-0.7177716000000001,0.6716901750000001,-0.132384915
1764433958.7845757,-4.2728,1.23606,0.57988,-0.7177716000000001,0.6716901750000001,-0.132384915
1764433958.7845757,-4.2728,1.23606,0.57988,-0.7177716000000001,0.6716901750000001,-0.132384915
1764433958.7845757,-4.2728,1.23606,0.57988,-0.7177716000000001,0.6716901750000001,-0.132384915
1764433958.7845757,-4.2728,1.23606,0.57988,-0.7177716000000001,0.6716901750000001,-0.132384915
1764433958.7845757,-4.2728,1.23606,0.57988,-0.7177716000000001,0.6716901750000001,-0.132384915
1764433958.7845757,-4.2728,1.23606,0.57988,-0.7177716000000001,0.6716901750000001,-0.132384915
1764433958.7845757,-4.2728,1.23606,0.57988,-0.7177716000000001,0.6716901750000001,-0.132384915
1764433958.7845757,-4.28806,1.73964,0.6103999999999999,-0.71801574,0.672544665,-0.13256802
1764433958.7845757,-4.28806,1.73964,0.6103999999999999,-0.71801574,0.672544665,-0.13256802
1764433958.7845757,-4.28806,1.73964,0.6103999999999999,-0.71801574,0.672544665,-0.13256802
1764433958.7845757,-4.28806,1.73964,0.6103999999999999,-0.71801574,0.672544665,-0.13256802
1764433958.7845757,-4.28806,1.73964,0.6103999999999999,-0.71801574,0.672544665,-0.13256802
1764433958.7845757,-4.28806,1.73964,0.6103999999999999,-0.71801574,0.672544665,-0.13256802
1764433958.8306394,-4.28806,1.73964,0.6103999999999999,-0.71801574,0.672544665,-0.13256802
1764433958.8306394,-4.28806,1.73964,0.6103999999999999,-0.71801574,0.672544665,-0.13256802
1764433958.8306394,-4.28806,1.73964,0.6103999999999999,-0.71801574,0.672544665,-0.13256802
1764433958.8306394,-4.28806,1.73964,0.6103999999999999,-0.71801574,0.672544665,-0.13256802
1764433958.8306394,-4.08968,1.64808,0.24416,-0.7177716000000001,0.67284984,-0.133361475
1764433958.8306394,-4.08968,1.64808,0.24416,-0.7177716000000001,0.67284984,-0.133361475
1764433958.8306394,-4.08968,1.64808,0.24416,-0.7177716000000001,0.67284984,-0.133361475
1764433958.8306394,-4.08968,1.64808,0.24416,-0.7177716000000001,0.67284984,-0.133361475
1764433958.8306394,-4.08968,1.64808,0.24416,-0.7177716000000001,0.67284984,-0.133361475
1764433958.8306394,-4.08968,1.64808,0.24416,-0.7177716000000001,0.67284984,-0.133361475
1764433958.8306394,-4.08968,1.64808,0.24416,-0.7177716000000001,0.67284984,-0.133361475
1764433958.8306394,-4.08968,1.64808,0.24416,-0.7177716000000001,0.67284984,-0.133361475
1764433958.8306394,-4.08968,1.64808,0.24416,-0.7177716000000001,0.67284984,-0.133361475
1764433958.8306394,-4.08968,1.64808,0.24416,-0.7177716000000001,0.67284984,-0.133361475
1764433958.8316586,-4.91372,1.58704,-0.09156,-0.71764953,0.673032945,-0.13415493
1764433958.8316586,-4.91372,1.58704,-0.09156,-0.71764953,0.673032945,-0.13415493
1764433958.8316586,-4.91372,1.58704,-0.09156,-0.71764953,0.673032945,-0.13415493
1764433958.8316586,-4.91372,1.58704,-0.09156,-0.71764953,0.673032945,-0.13415493
1764433958.8316586,-4.91372,1.58704,-0.09156,-0.71764953,0.673032945,-0.13415493
1764433958.8316586,-4.91372,1.58704,-0.09156,-0.71764953,0.673032945,-0.13415493
1764433958.8316586,-4.91372,1.58704,-0.09156,-0.71764953,0.673032945,-0.13415493
1764433958.8316586,-4.91372,1.58704,-0.09156,-0.71764953,0.673032945,-0.13415493
1764433958.8316586,-4.91372,1.58704,-0.09156,-0.71764953,0.673032945,-0.13415493
1764433958.8316586,-4.91372,1.58704,-0.09156,-0.71764953,0.673032945,-0.13415493
1764433958.8316586,-5.08158,0.96138,0.25942,-0.71764953,0.672666735,-0.13391079
1764433958.8316586,-5.08158,0.96138,0.25942,-0.71764953,0.672666735,-0.13391079
1764433958.8799102,-5.08158,0.96138,0.25942,-0.71764953,0.672666735,-0.13391079
1764433958.8799102,-5.08158,0.96138,0.25942,-0.71764953,0.672666735,-0.13391079
1764433958.8799102,-5.08158,0.96138,0.25942,-0.71764953,0.672666735,-0.13391079
1764433958.8804157,-5.08158,0.96138,0.25942,-0.71764953,0.672666735,-0.13391079
1764433958.8804157,-5.08158,0.96138,0.25942,-0.71764953,0.672666735,-0.13391079
1764433958.8804157,-5.08158,0.96138,0.25942,-0.71764953,0.672666735,-0.13391079
1764433958.8804157,-5.08158,0.96138,0.25942,-0.71764953,0.672666735,-0.13391079
1764433958.8804157,-5.08158,0.96138,0.25942,-0.71764953,0.672666735,-0.13391079
1764433958.8804157,-5.2647,1.05294,-0.13734,-0.71764953,0.67309398,-0.13403286
1764433958.8804157,-5.2647,1.05294,-0.13734,-0.71764953,0.67309398,-0.13403286
1764433958.8804157,-5.2647,1.05294,-0.13734,-0.71764953,0.67309398,-0.13403286
1764433958.8804157,-5.2647,1.05294,-0.13734,-0.71764953,0.67309398,-0.13403286
1764433958.8804157,-5.2647,1.05294,-0.13734,-0.71764953,0.67309398,-0.13403286
1764433958.8819454,-5.2647,1.05294,-0.13734,-0.71764953,0.67309398,-0.13403286
1764433958.8819454,-5.2647,1.05294,-0.13734,-0.71764953,0.67309398,-0.13403286
1764433958.8819454,-5.2647,1.05294,-0.13734,-0.71764953,0.67309398,-0.13403286
1764433958.8819454,-5.2647,1.05294,-0.13734,-0.71764953,0.67309398,-0.13403286
1764433958.8819454,-5.2647,1.05294,-0.13734,-0.71764953,0.67309398,-0.13403286
1764433958.8819454,-5.0358,1.11398,0.2289,-0.718076775,0.672666735,-0.133117335
1764433958.8819454,-5.0358,1.11398,0.2289,-0.718076775,0.672666735,-0.133117335
1764433958.8819454,-5.0358,1.11398,0.2289,-0.718076775,0.672666735,-0.133117335
1764433958.8819454,-5.0358,1.11398,0.2289,-0.718076775,0.672666735,-0.133117335
1764433958.8819454,-5.0358,1.11398,0.2289,-0.718076775,0.672666735,-0.133117335
1764433958.8819454,-5.0358,1.11398,0.2289,-0.718076775,0.672666735,-0.133117335
1764433958.9259298,-5.0358,1.11398,0.2289,-0.718076775,0.672666735,-0.133117335
1764433958.9259298,-5.0358,1.11398,0.2289,-0.718076775,0.672666735,-0.133117335
1764433958.9269412,-5.0358,1.11398,0.2289,-0.718076775,0.672666735,-0.133117335
1764433958.9269412,-5.0358,1.11398,0.2289,-0.718076775,0.672666735,-0.133117335
1764433958.9269412,-5.38678,1.58704,0.13734,-0.71764953,0.672422595,-0.13256802
1764433958.9269412,-5.38678,1.58704,0.13734,-0.71764953,0.672422595,-0.13256802
1764433958.9269412,-5.38678,1.58704,0.13734,-0.71764953,0.672422595,-0.13256802
1764433958.9269412,-5.38678,1.58704,0.13734,-0.71764953,0.672422595,-0.13256802
1764433958.927941,-5.38678,1.58704,0.13734,-0.71764953,0.672422595,-0.13256802
1764433958.927941,-5.38678,1.58704,0.13734,-0.71764953,0.672422595,-0.13256802
1764433958.927941,-5.38678,1.58704,0.13734,-0.71764953,0.672422595,-0.13256802
1764433958.928464,-5.38678,1.58704,0.13734,-0.71764953,0.672422595,-0.13256802
1764433958.928464,-5.38678,1.58704,0.13734,-0.71764953,0.672422595,-0.13256802
1764433958.928464,-5.38678,1.58704,0.13734,-0.71764953,0.672422595,-0.13256802
1764433958.928464,-5.5699,1.09872,0.27468,-0.7172833200000001,0.672422595,-0.132995265
1764433958.928464,-5.5699,1.09872,0.27468,-0.7172833200000001,0.672422595,-0.132995265
1764433958.928464,-5.5699,1.09872,0.27468,-0.7172833200000001,0.672422595,-0.132995265
1764433958.928464,-5.5699,1.09872,0.27468,-0.7172833200000001,0.672422595,-0.132995265
1764433958.928464,-5.5699,1.09872,0.27468,-0.7172833200000001,0.672422595,-0.132995265
1764433958.928464,-5.5699,1.09872,0.27468,-0.7172833200000001,0.672422595,-0.132995265
1764433958.928464,-5.5699,1.09872,0.27468,-0.7172833200000001,0.672422595,-0.132995265
1764433958.928464,-5.5699,1.09872,0.27468,-0.7172833200000001,0.672422595,-0.132995265
1764433958.9756737,-5.5699,1.09872,0.27468,-0.7172833200000001,0.672422595,-0.132995265
1764433958.9756737,-5.5699,1.09872,0.27468,-0.7172833200000001,0.672422595,-0.132995265
1764433958.9756737,-6.11926,1.12924,0.4578,-0.71752746,0.672544665,-0.133361475
1764433958.9756737,-6.11926,1.12924,0.4578,-0.71752746,0.672544665,-0.133361475
1764433958.9756737,-6.11926,1.12924,0.4578,-0.71752746,0.672544665,-0.133361475
1764433958.9756737,-6.11926,1.12924,0.4578,-0.71752746,0.672544665,-0.133361475
1764433958.9756737,-6.11926,1.12924,0.4578,-0.71752746,0.672544665,-0.133361475
1764433958.9756737,-6.11926,1.12924,0.4578,-0.71752746,0.672544665,-0.133361475
1764433958.9756737,-6.11926,1.12924,0.4578,-0.71752746,0.672544665,-0.133361475
1764433958.9756737,-6.11926,1.12924,0.4578,-0.71752746,0.672544665,-0.133361475
1764433958.9756737,-6.11926,1.12924,0.4578,-0.71752746,0.672544665,-0.133361475
1764433958.9766846,-6.11926,1.12924,0.4578,-0.71752746,0.672544665,-0.133361475
1764433958.9766846,-6.3329,1.03768,-0.3357199999999999,-0.71679504,0.672788805,-0.132751125
1764433958.9766846,-6.3329,1.03768,-0.3357199999999999,-0.71679504,0.672788805,-0.132751125
1764433958.9766846,-6.3329,1.03768,-0.3357199999999999,-0.71679504,0.672788805,-0.132751125
1764433958.9766846,-6.3329,1.03768,-0.3357199999999999,-0.71679504,0.672788805,-0.132751125
1764433958.9766846,-6.3329,1.03768,-0.3357199999999999,-0.71679504,0.672788805,-0.132751125
1764433958.9766846,-6.3329,1.03768,-0.3357199999999999,-0.71679504,0.672788805,-0.132751125
1764433958.9766846,-6.3329,1.03768,-0.3357199999999999,-0.71679504,0.672788805,-0.132751125
1764433958.9766846,-6.3329,1.03768,-0.3357199999999999,-0.71679504,0.672788805,-0.132751125
1764433958.9766846,-6.3329,1.03768,-0.3357199999999999,-0.71679504,0.672788805,-0.132751125
1764433958.9766846,-6.3329,1.03768,-0.3357199999999999,-0.71679504,0.672788805,-0.132751125
1764433958.9766846,-6.19556,1.38866,0.24416,-0.717466425,0.67309398,-0.132506985
1764433958.9766846,-6.19556,1.38866,0.24416,-0.717466425,0.67309398,-0.132506985
1764433959.019665,-6.19556,1.38866,0.24416,-0.717466425,0.67309398,-0.132506985
1764433959.019665,-6.19556,1.38866,0.24416,-0.717466425,0.67309398,-0.132506985
1764433959.019665,-6.19556,1.38866,0.24416,-0.717466425,0.67309398,-0.132506985
1764433959.019665,-6.19556,1.38866,0.24416,-0.717466425,0.67309398,-0.132506985
1764433959.019665,-6.19556,1.38866,0.24416,-0.717466425,0.67309398,-0.132506985
1764433959.019665,-6.19556,1.38866,0.24416,-0.717466425,0.67309398,-0.132506985
1764433959.020685,-6.19556,1.38866,0.24416,-0.717466425,0.67309398,-0.132506985
1764433959.020685,-6.19556,1.38866,0.24416,-0.717466425,0.67309398,-0.132506985
1764433959.020685,-6.104,0.93086,0.2289,-0.718198845,0.673521225,-0.13171353
1764433959.020685,-6.104,0.93086,0.2289,-0.718198845,0.673521225,-0.13171353
1764433959.020685,-6.104,0.93086,0.2289,-0.718198845,0.673521225,-0.13171353
1764433959.0211926,-6.104,0.93086,0.2289,-0.718198845,0.673521225,-0.13171353
1764433959.0211926,-6.104,0.93086,0.2289,-0.718198845,0.673521225,-0.13171353
1764433959.0211926,-6.104,0.93086,0.2289,-0.718198845,0.673521225,-0.13171353
1764433959.0211926,-6.104,0.93086,0.2289,-0.718198845,0.673521225,-0.13171353
1764433959.0211926,-6.104,0.93086,0.2289,-0.718198845,0.673521225,-0.13171353
1764433959.0211926,-6.104,0.93086,0.2289,-0.718198845,0.673521225,-0.13171353
1764433959.0211926,-6.104,0.93086,0.2289,-0.718198845,0.673521225,-0.13171353
1764433959.0211926,-5.67672,1.26658,0.13734,-0.71813781,0.67321605,-0.13085904
1764433959.0211926,-5.67672,1.26658,0.13734,-0.71813781,0.67321605,-0.13085904
1764433959.0211926,-5.67672,1.26658,0.13734,-0.71813781,0.67321605,-0.13085904
1764433959.0211926,-5.67672,1.26658,0.13734,-0.71813781,0.67321605,-0.13085904
1764433959.0211926,-5.67672,1.26658,0.13734,-0.71813781,0.67321605,-0.13085904
1764433959.0211926,-5.67672,1.26658,0.13734,-0.71813781,0.67321605,-0.13085904
1764433959.068915,-5.67672,1.26658,0.13734,-0.71813781,0.67321605,-0.13085904
1764433959.068915,-5.67672,1.26658,0.13734,-0.71813781,0.67321605,-0.13085904
1764433959.068915,-5.67672,1.26658,0.13734,-0.71813781,0.67321605,-0.13085904
1764433959.068915,-5.67672,1.26658,0.13734,-0.71813781,0.67321605,-0.13085904
1764433959.068915,-5.66146,1.2971,0.3204599999999999,-0.71801574,0.67284984,-0.13073697
1764433959.068915,-5.66146,1.2971,0.3204599999999999,-0.71801574,0.67284984,-0.13073697
1764433959.068915,-5.66146,1.2971,0.3204599999999999,-0.71801574,0.67284984,-0.13073697
1764433959.068915,-5.66146,1.2971,0.3204599999999999,-0.71801574,0.67284984,-0.13073697
1764433959.068915,-5.66146,1.2971,0.3204599999999999,-0.71801574,0.67284984,-0.13073697
1764433959.068915,-5.66146,1.2971,0.3204599999999999,-0.71801574,0.67284984,-0.13073697
1764433959.068915,-5.66146,1.2971,0.3204599999999999,-0.71801574,0.67284984,-0.13073697
1764433959.068915,-5.66146,1.2971,0.3204599999999999,-0.71801574,0.67284984,-0.13073697
1764433959.068915,-5.66146,1.2971,0.3204599999999999,-0.71801574,0.67284984,-0.13073697
1764433959.068915,-5.66146,1.2971,0.3204599999999999,-0.71801574,0.67284984,-0.13073697
1764433959.068915,-5.70724,1.08346,0.3509799999999999,-0.717954705,0.67236156,-0.13024869
1764433959.068915,-5.70724,1.08346,0.3509799999999999,-0.717954705,0.67236156,-0.13024869
1764433959.0699215,-5.70724,1.08346,0.3509799999999999,-0.717954705,0.67236156,-0.13024869
1764433959.0699215,-5.70724,1.08346,0.3509799999999999,-0.717954705,0.67236156,-0.13024869
1764433959.0699215,-5.70724,1.08346,0.3509799999999999,-0.717954705,0.67236156,-0.13024869
1764433959.0699215,-5.70724,1.08346,0.3509799999999999,-0.717954705,0.67236156,-0.13024869
1764433959.0699215,-5.70724,1.08346,0.3509799999999999,-0.717954705,0.67236156,-0.13024869
1764433959.0699215,-5.70724,1.08346,0.3509799999999999,-0.717954705,0.67236156,-0.13024869
1764433959.1181326,-5.70724,1.08346,0.3509799999999999,-0.717954705,0.67236156,-0.13024869
1764433959.1181326,-5.70724,1.08346,0.3509799999999999,-0.717954705,0.67236156,-0.13024869
1764433959.1181326,-5.478339999999999,1.2971,0.18312,-0.71740539,0.67236156,-0.130798005
1764433959.1181326,-5.478339999999999,1.2971,0.18312,-0.71740539,0.67236156,-0.130798005
1764433959.1181326,-5.478339999999999,1.2971,0.18312,-0.71740539,0.67236156,-0.130798005
1764433959.1181326,-5.478339999999999,1.2971,0.18312,-0.71740539,0.67236156,-0.130798005
1764433959.1181326,-5.478339999999999,1.2971,0.18312,-0.71740539,0.67236156,-0.130798005
1764433959.1181326,-5.478339999999999,1.2971,0.18312,-0.71740539,0.67236156,-0.130798005
1764433959.1181326,-5.478339999999999,1.2971,0.18312,-0.71740539,0.67236156,-0.130798005
1764433959.1181326,-5.478339999999999,1.2971,0.18312,-0.71740539,0.67236156,-0.130798005
1764433959.1181326,-5.478339999999999,1.2971,0.18312,-0.71740539,0.67236156,-0.130798005
1764433959.1181326,-5.478339999999999,1.2971,0.18312,-0.71740539,0.67236156,-0.130798005
1764433959.1181326,-5.92088,0.8698199999999999,0.0762999999999999,-0.71764953,0.6721784550000001,-0.13110318
1764433959.1181326,-5.92088,0.8698199999999999,0.0762999999999999,-0.71764953,0.6721784550000001,-0.13110318
1764433959.1181326,-5.92088,0.8698199999999999,0.0762999999999999,-0.71764953,0.6721784550000001,-0.13110318
1764433959.1181326,-5.92088,0.8698199999999999,0.0762999999999999,-0.71764953,0.6721784550000001,-0.13110318
1764433959.1181326,-5.92088,0.8698199999999999,0.0762999999999999,-0.71764953,0.6721784550000001,-0.13110318
1764433959.1181326,-5.92088,0.8698199999999999,0.0762999999999999,-0.71764953,0.6721784550000001,-0.13110318
1764433959.1181326,-5.92088,0.8698199999999999,0.0762999999999999,-0.71764953,0.6721784550000001,-0.13110318
1764433959.1181326,-5.92088,0.8698199999999999,0.0762999999999999,-0.71764953,0.6721784550000001,-0.13110318
1764433959.1181326,-5.92088,0.8698199999999999,0.0762999999999999,-0.71764953,0.6721784550000001,-0.13110318
1764433959.1191316,-5.92088,0.8698199999999999,0.0762999999999999,-0.71764953,0.6721784550000001,-0.13110318
1764433959.1191316,-5.4173,1.41918,0.25942,-0.71740539,0.672910875,-0.130431795
1764433959.1191316,-5.4173,1.41918,0.25942,-0.71740539,0.672910875,-0.130431795
1764433959.1631892,-5.4173,1.41918,0.25942,-0.71740539,0.672910875,-0.130431795
1764433959.1631892,-5.4173,1.41918,0.25942,-0.71740539,0.672910875,-0.130431795
1764433959.164206,-5.4173,1.41918,0.25942,-0.71740539,0.672910875,-0.130431795
1764433959.164206,-5.4173,1.41918,0.25942,-0.71740539,0.672910875,-0.130431795
1764433959.164206,-5.4173,1.41918,0.25942,-0.71740539,0.672910875,-0.130431795
1764433959.164206,-5.4173,1.41918,0.25942,-0.71740539,0.672910875,-0.130431795
1764433959.164206,-5.4173,1.41918,0.25942,-0.71740539,0.672910875,-0.130431795
1764433959.164206,-5.4173,1.41918,0.25942,-0.71740539,0.672910875,-0.130431795
1764433959.164206,-5.7225,1.05294,0.3204599999999999,-0.717832635,0.672666735,-0.1306149
1764433959.164206,-5.7225,1.05294,0.3204599999999999,-0.717832635,0.672666735,-0.1306149
1764433959.164206,-5.7225,1.05294,0.3204599999999999,-0.717832635,0.672666735,-0.1306149
1764433959.164206,-5.7225,1.05294,0.3204599999999999,-0.717832635,0.672666735,-0.1306149
1764433959.164206,-5.7225,1.05294,0.3204599999999999,-0.717832635,0.672666735,-0.1306149
1764433959.164206,-5.7225,1.05294,0.3204599999999999,-0.717832635,0.672666735,-0.1306149
1764433959.164206,-5.7225,1.05294,0.3204599999999999,-0.717832635,0.672666735,-0.1306149
1764433959.164206,-5.7225,1.05294,0.3204599999999999,-0.717832635,0.672666735,-0.1306149
1764433959.164206,-5.7225,1.05294,0.3204599999999999,-0.717832635,0.672666735,-0.1306149
1764433959.164206,-5.7225,1.05294,0.3204599999999999,-0.717832635,0.672666735,-0.1306149
1764433959.164206,-5.70724,1.05294,0.57988,-0.717222285,0.672788805,-0.13012662
1764433959.164206,-5.70724,1.05294,0.57988,-0.717222285,0.672788805,-0.13012662
1764433959.164206,-5.70724,1.05294,0.57988,-0.717222285,0.672788805,-0.13012662
1764433959.164206,-5.70724,1.05294,0.57988,-0.717222285,0.672788805,-0.13012662
1764433959.164206,-5.70724,1.05294,0.57988,-0.717222285,0.672788805,-0.13012662
1764433959.164206,-5.70724,1.05294,0.57988,-0.717222285,0.672788805,-0.13012662
1764433959.207416,-5.70724,1.05294,0.57988,-0.717222285,0.672788805,-0.13012662
1764433959.207416,-5.70724,1.05294,0.57988,-0.717222285,0.672788805,-0.13012662
1764433959.207416,-5.70724,1.05294,0.57988,-0.717222285,0.672788805,-0.13012662
1764433959.207416,-5.70724,1.05294,0.57988,-0.717222285,0.672788805,-0.13012662
1764433959.207416,-6.22608,1.3734,0.13734,-0.717832635,0.67284984,-0.13000455
1764433959.207416,-6.22608,1.3734,0.13734,-0.717832635,0.67284984,-0.13000455
1764433959.207416,-6.22608,1.3734,0.13734,-0.717832635,0.67284984,-0.13000455
1764433959.207416,-6.22608,1.3734,0.13734,-0.717832635,0.67284984,-0.13000455
1764433959.207416,-6.22608,1.3734,0.13734,-0.717832635,0.67284984,-0.13000455
1764433959.207416,-6.22608,1.3734,0.13734,-0.717832635,0.67284984,-0.13000455
1764433959.207416,-6.22608,1.3734,0.13734,-0.717832635,0.67284984,-0.13000455
1764433959.207416,-6.22608,1.3734,0.13734,-0.717832635,0.67284984,-0.13000455
1764433959.207416,-6.22608,1.3734,0.13734,-0.717832635,0.67284984,-0.13000455
1764433959.207416,-6.22608,1.3734,0.13734,-0.717832635,0.67284984,-0.13000455
1764433959.2092452,-6.11926,1.38866,0.19838,-0.71813781,0.6727277700000001,-0.130431795
1764433959.2092452,-6.11926,1.38866,0.19838,-0.71813781,0.6727277700000001,-0.130431795
1764433959.2092452,-6.11926,1.38866,0.19838,-0.71813781,0.6727277700000001,-0.130431795
1764433959.210775,-6.11926,1.38866,0.19838,-0.71813781,0.6727277700000001,-0.130431795
1764433959.210775,-6.11926,1.38866,0.19838,-0.71813781,0.6727277700000001,-0.130431795
1764433959.210775,-6.11926,1.38866,0.19838,-0.71813781,0.6727277700000001,-0.130431795
1764433959.210775,-6.11926,1.38866,0.19838,-0.71813781,0.6727277700000001,-0.130431795
1764433959.210775,-6.11926,1.38866,0.19838,-0.71813781,0.6727277700000001,-0.130431795
1764433959.2117891,-6.11926,1.38866,0.19838,-0.71813781,0.6727277700000001,-0.130431795
1764433959.2117891,-6.11926,1.38866,0.19838,-0.71813781,0.6727277700000001,-0.130431795
1764433959.2549937,-5.90562,0.9156,0.3509799999999999,-0.717832635,0.672544665,-0.128966955
1764433959.2549937,-5.90562,0.9156,0.3509799999999999,-0.717832635,0.672544665,-0.128966955
1764433959.2549937,-5.90562,0.9156,0.3509799999999999,-0.717832635,0.672544665,-0.128966955
1764433959.2549937,-5.90562,0.9156,0.3509799999999999,-0.717832635,0.672544665,-0.128966955
1764433959.2555282,-5.90562,0.9156,0.3509799999999999,-0.717832635,0.672544665,-0.128966955
1764433959.2555282,-5.90562,0.9156,0.3509799999999999,-0.717832635,0.672544665,-0.128966955
1764433959.2555282,-5.90562,0.9156,0.3509799999999999,-0.717832635,0.672544665,-0.128966955
1764433959.2555282,-5.90562,0.9156,0.3509799999999999,-0.717832635,0.672544665,-0.128966955
1764433959.2555282,-5.90562,0.9156,0.3509799999999999,-0.717832635,0.672544665,-0.128966955
1764433959.2555282,-5.90562,0.9156,0.3509799999999999,-0.717832635,0.672544665,-0.128966955
1764433959.2555282,-5.7225,1.08346,-0.13734,-0.71801574,0.67297191,-0.128478675
1764433959.2555282,-5.7225,1.08346,-0.13734,-0.71801574,0.67297191,-0.128478675
1764433959.2555282,-5.7225,1.08346,-0.13734,-0.71801574,0.67297191,-0.128478675
1764433959.2555282,-5.7225,1.08346,-0.13734,-0.71801574,0.67297191,-0.128478675
1764433959.2555282,-5.7225,1.08346,-0.13734,-0.71801574,0.67297191,-0.128478675
1764433959.2555282,-5.7225,1.08346,-0.13734,-0.71801574,0.67297191,-0.128478675
1764433959.2555282,-5.7225,1.08346,-0.13734,-0.71801574,0.67297191,-0.128478675
1764433959.2555282,-5.7225,1.08346,-0.13734,-0.71801574,0.67297191,-0.128478675
1764433959.2555282,-5.7225,1.08346,-0.13734,-0.71801574,0.67297191,-0.128478675
1764433959.2555282,-5.7225,1.08346,-0.13734,-0.71801574,0.67297191,-0.128478675
1764433959.2555282,-6.04296,1.05294,0.0762999999999999,-0.71764953,0.6726057,-0.129089025
1764433959.2555282,-6.04296,1.05294,0.0762999999999999,-0.71764953,0.6726057,-0.129089025
1764433959.2555282,-6.04296,1.05294,0.0762999999999999,-0.71764953,0.6726057,-0.129089025
1764433959.2555282,-6.04296,1.05294,0.0762999999999999,-0.71764953,0.6726057,-0.129089025
1764433959.304418,-6.04296,1.05294,0.0762999999999999,-0.71764953,0.6726057,-0.129089025
1764433959.304418,-6.04296,1.05294,0.0762999999999999,-0.71764953,0.6726057,-0.129089025
1764433959.304418,-6.04296,1.05294,0.0762999999999999,-0.71764953,0.6726057,-0.129089025
1764433959.304418,-6.04296,1.05294,0.0762999999999999,-0.71764953,0.6726057,-0.129089025
1764433959.304418,-6.04296,1.05294,0.0762999999999999,-0.71764953,0.6726057,-0.129089025
1764433959.304418,-6.04296,1.05294,0.0762999999999999,-0.71764953,0.6726057,-0.129089025
1764433959.304418,-6.22608,1.03768,-0.24416,-0.7183209150000001,0.67297191,-0.129089025
1764433959.304418,-6.22608,1.03768,-0.24416,-0.7183209150000001,0.67297191,-0.129089025
1764433959.304418,-6.22608,1.03768,-0.24416,-0.7183209150000001,0.67297191,-0.129089025
1764433959.304418,-6.22608,1.03768,-0.24416,-0.7183209150000001,0.67297191,-0.129089025
1764433959.304418,-6.22608,1.03768,-0.24416,-0.7183209150000001,0.67297191,-0.129089025
1764433959.304418,-6.22608,1.03768,-0.24416,-0.7183209150000001,0.67297191,-0.129089025
1764433959.304418,-6.22608,1.03768,-0.24416,-0.7183209150000001,0.67297191,-0.129089025
1764433959.304418,-6.22608,1.03768,-0.24416,-0.7183209150000001,0.67297191,-0.129089025
1764433959.304418,-6.22608,1.03768,-0.24416,-0.7183209150000001,0.67297191,-0.129089025
1764433959.3056843,-6.22608,1.03768,-0.24416,-0.7183209150000001,0.67297191,-0.129089025
1764433959.3056843,-5.753019999999999,1.00716,0.5341,-0.71911437,0.673521225,-0.12915006
1764433959.3056843,-5.753019999999999,1.00716,0.5341,-0.71911437,0.673521225,-0.12915006
1764433959.3056843,-5.753019999999999,1.00716,0.5341,-0.71911437,0.673521225,-0.12915006
1764433959.3056843,-5.753019999999999,1.00716,0.5341,-0.71911437,0.673521225,-0.12915006
1764433959.3056843,-5.753019999999999,1.00716,0.5341,-0.71911437,0.673521225,-0.12915006
1764433959.3056843,-5.753019999999999,1.00716,0.5341,-0.71911437,0.673521225,-0.12915006
1764433959.3493795,-5.753019999999999,1.00716,0.5341,-0.71911437,0.673521225,-0.12915006
1764433959.3493795,-5.753019999999999,1.00716,0.5341,-0.71911437,0.673521225,-0.12915006
1764433959.3493795,-5.753019999999999,1.00716,0.5341,-0.71911437,0.673521225,-0.12915006
1764433959.3493795,-5.753019999999999,1.00716,0.5341,-0.71911437,0.673521225,-0.12915006
1764433959.3493795,-5.05106,0.82404,0.44254,-0.71801574,0.67333812,-0.128966955
1764433959.3493795,-5.05106,0.82404,0.44254,-0.71801574,0.67333812,-0.128966955
1764433959.3508852,-5.05106,0.82404,0.44254,-0.71801574,0.67333812,-0.128966955
1764433959.3508852,-5.05106,0.82404,0.44254,-0.71801574,0.67333812,-0.128966955
1764433959.3508852,-5.05106,0.82404,0.44254,-0.71801574,0.67333812,-0.128966955
1764433959.3508852,-5.05106,0.82404,0.44254,-0.71801574,0.67333812,-0.128966955
1764433959.3508852,-5.05106,0.82404,0.44254,-0.71801574,0.67333812,-0.128966955
1764433959.3508852,-5.05106,0.82404,0.44254,-0.71801574,0.67333812,-0.128966955
1764433959.3508852,-5.05106,0.82404,0.44254,-0.71801574,0.67333812,-0.128966955
1764433959.3508852,-5.05106,0.82404,0.44254,-0.71801574,0.67333812,-0.128966955
1764433959.3508852,-5.646199999999999,1.57178,0.3815,-0.71838195,0.6726057,-0.12829557
1764433959.3508852,-5.646199999999999,1.57178,0.3815,-0.71838195,0.6726057,-0.12829557
1764433959.3508852,-5.646199999999999,1.57178,0.3815,-0.71838195,0.6726057,-0.12829557
1764433959.3508852,-5.646199999999999,1.57178,0.3815,-0.71838195,0.6726057,-0.12829557
1764433959.3508852,-5.646199999999999,1.57178,0.3815,-0.71838195,0.6726057,-0.12829557
1764433959.3508852,-5.646199999999999,1.57178,0.3815,-0.71838195,0.6726057,-0.12829557
1764433959.3949373,-5.646199999999999,1.57178,0.3815,-0.71838195,0.6726057,-0.12829557
1764433959.3949373,-5.646199999999999,1.57178,0.3815,-0.71838195,0.6726057,-0.12829557
1764433959.3949373,-5.646199999999999,1.57178,0.3815,-0.71838195,0.6726057,-0.12829557
1764433959.3949373,-5.646199999999999,1.57178,0.3815,-0.71838195,0.6726057,-0.12829557
1764433959.3949373,-5.44782,1.02242,0.50358,-0.71862609,0.6726057,-0.12805143
1764433959.3949373,-5.44782,1.02242,0.50358,-0.71862609,0.6726057,-0.12805143
1764433959.3949373,-5.44782,1.02242,0.50358,-0.71862609,0.6726057,-0.12805143
1764433959.3949373,-5.44782,1.02242,0.50358,-0.71862609,0.6726057,-0.12805143
1764433959.3949373,-5.44782,1.02242,0.50358,-0.71862609,0.6726057,-0.12805143
1764433959.3949373,-5.44782,1.02242,0.50358,-0.71862609,0.6726057,-0.12805143
1764433959.3949373,-5.44782,1.02242,0.50358,-0.71862609,0.6726057,-0.12805143
1764433959.3949373,-5.44782,1.02242,0.50358,-0.71862609,0.6726057,-0.12805143
1764433959.3949373,-5.44782,1.02242,0.50358,-0.71862609,0.6726057,-0.12805143
1764433959.3949373,-5.44782,1.02242,0.50358,-0.71862609,0.6726057,-0.12805143
1764433959.3949373,-5.508859999999999,1.2208,0.4578,-0.71850402,0.673032945,-0.127624185
1764433959.3949373,-5.508859999999999,1.2208,0.4578,-0.71850402,0.673032945,-0.127624185
1764433959.3949373,-5.508859999999999,1.2208,0.4578,-0.71850402,0.673032945,-0.127624185
1764433959.3959596,-5.508859999999999,1.2208,0.4578,-0.71850402,0.673032945,-0.127624185
1764433959.3959596,-5.508859999999999,1.2208,0.4578,-0.71850402,0.673032945,-0.127624185
1764433959.3959596,-5.508859999999999,1.2208,0.4578,-0.71850402,0.673032945,-0.127624185
1764433959.3959596,-5.508859999999999,1.2208,0.4578,-0.71850402,0.673032945,-0.127624185
1764433959.3959596,-5.508859999999999,1.2208,0.4578,-0.71850402,0.673032945,-0.127624185
1764433959.3959596,-5.508859999999999,1.2208,0.4578,-0.71850402,0.673032945,-0.127624185
1764433959.3959596,-5.508859999999999,1.2208,0.4578,-0.71850402,0.673032945,-0.127624185
1764433959.3959596,-5.02054,1.2055399999999998,0.3204599999999999,-0.71801574,0.673032945,-0.12756315
1764433959.3959596,-5.02054,1.2055399999999998,0.3204599999999999,-0.71801574,0.673032945,-0.12756315
1764433959.4436464,-5.02054,1.2055399999999998,0.3204599999999999,-0.71801574,0.673032945,-0.12756315
1764433959.4436464,-5.02054,1.2055399999999998,0.3204599999999999,-0.71801574,0.673032945,-0.12756315
1764433959.4436464,-5.02054,1.2055399999999998,0.3204599999999999,-0.71801574,0.673032945,-0.12756315
1764433959.4436464,-5.02054,1.2055399999999998,0.3204599999999999,-0.71801574,0.673032945,-0.12756315
1764433959.4436464,-5.02054,1.2055399999999998,0.3204599999999999,-0.71801574,0.673032945,-0.12756315
1764433959.4436464,-5.02054,1.2055399999999998,0.3204599999999999,-0.71801574,0.673032945,-0.12756315
1764433959.4436464,-5.02054,1.2055399999999998,0.3204599999999999,-0.71801574,0.673032945,-0.12756315
1764433959.4436464,-5.02054,1.2055399999999998,0.3204599999999999,-0.71801574,0.673032945,-0.12756315
1764433959.4436464,-4.79164,1.32762,0.3051999999999999,-0.71825988,0.672666735,-0.12731901
1764433959.4436464,-4.79164,1.32762,0.3051999999999999,-0.71825988,0.672666735,-0.12731901
1764433959.4436464,-4.79164,1.32762,0.3051999999999999,-0.71825988,0.672666735,-0.12731901
1764433959.4436464,-4.79164,1.32762,0.3051999999999999,-0.71825988,0.672666735,-0.12731901
1764433959.4436464,-4.79164,1.32762,0.3051999999999999,-0.71825988,0.672666735,-0.12731901
1764433959.4436464,-4.79164,1.32762,0.3051999999999999,-0.71825988,0.672666735,-0.12731901
1764433959.4446454,-4.79164,1.32762,0.3051999999999999,-0.71825988,0.672666735,-0.12731901
1764433959.4446454,-4.79164,1.32762,0.3051999999999999,-0.71825988,0.672666735,-0.12731901
1764433959.4446454,-4.79164,1.32762,0.3051999999999999,-0.71825988,0.672666735,-0.12731901
1764433959.4446454,-4.79164,1.32762,0.3051999999999999,-0.71825988,0.672666735,-0.12731901
1764433959.4446454,-5.21892,0.9156,0.44254,-0.718198845,0.67309398,-0.12780729
1764433959.4446454,-5.21892,0.9156,0.44254,-0.718198845,0.67309398,-0.12780729
1764433959.4446454,-5.21892,0.9156,0.44254,-0.718198845,0.67309398,-0.12780729
1764433959.4446454,-5.21892,0.9156,0.44254,-0.718198845,0.67309398,-0.12780729
1764433959.4446454,-5.21892,0.9156,0.44254,-0.718198845,0.67309398,-0.12780729
1764433959.4446454,-5.21892,0.9156,0.44254,-0.718198845,0.67309398,-0.12780729
1764433959.487194,-5.21892,0.9156,0.44254,-0.718198845,0.67309398,-0.12780729
1764433959.487194,-5.21892,0.9156,0.44254,-0.718198845,0.67309398,-0.12780729
1764433959.487194,-5.21892,0.9156,0.44254,-0.718198845,0.67309398,-0.12780729
1764433959.487194,-5.21892,0.9156,0.44254,-0.718198845,0.67309398,-0.12780729
1764433959.487194,-4.92898,1.55652,0.3815,-0.71813781,0.673399155,-0.12780729
1764433959.4882038,-4.92898,1.55652,0.3815,-0.71813781,0.673399155,-0.12780729
1764433959.4882038,-4.92898,1.55652,0.3815,-0.71813781,0.673399155,-0.12780729
1764433959.4882038,-4.92898,1.55652,0.3815,-0.71813781,0.673399155,-0.12780729
1764433959.4882038,-4.92898,1.55652,0.3815,-0.71813781,0.673399155,-0.12780729
1764433959.4882038,-4.92898,1.55652,0.3815,-0.71813781,0.673399155,-0.12780729
1764433959.4882038,-4.92898,1.55652,0.3815,-0.71813781,0.673399155,-0.12780729
1764433959.4882038,-4.92898,1.55652,0.3815,-0.71813781,0.673399155,-0.12780729
1764433959.4882038,-4.92898,1.55652,0.3815,-0.71813781,0.673399155,-0.12780729
1764433959.4882038,-4.92898,1.55652,0.3815,-0.71813781,0.673399155,-0.12780729
1764433959.4882038,-4.59326,1.25132,0.28994,-0.718442985,0.67346019,-0.128356605
1764433959.4882038,-4.59326,1.25132,0.28994,-0.718442985,0.67346019,-0.128356605
1764433959.4882038,-4.59326,1.25132,0.28994,-0.718442985,0.67346019,-0.128356605
1764433959.4882038,-4.59326,1.25132,0.28994,-0.718442985,0.67346019,-0.128356605
1764433959.4882038,-4.59326,1.25132,0.28994,-0.718442985,0.67346019,-0.128356605
1764433959.4887145,-4.59326,1.25132,0.28994,-0.718442985,0.67346019,-0.128356605
1764433959.4887145,-4.59326,1.25132,0.28994,-0.718442985,0.67346019,-0.128356605
1764433959.4887145,-4.59326,1.25132,0.28994,-0.718442985,0.67346019,-0.128356605
1764433959.532225,-4.59326,1.25132,0.28994,-0.718442985,0.67346019,-0.128356605
1764433959.532225,-4.59326,1.25132,0.28994,-0.718442985,0.67346019,-0.128356605
1764433959.532225,-5.35626,1.08346,0.0762999999999999,-0.717588495,0.67333812,-0.12792936
1764433959.532225,-5.35626,1.08346,0.0762999999999999,-0.717588495,0.67333812,-0.12792936
1764433959.532225,-5.35626,1.08346,0.0762999999999999,-0.717588495,0.67333812,-0.12792936
1764433959.532761,-5.35626,1.08346,0.0762999999999999,-0.717588495,0.67333812,-0.12792936
1764433959.532761,-5.35626,1.08346,0.0762999999999999,-0.717588495,0.67333812,-0.12792936
1764433959.532761,-5.35626,1.08346,0.0762999999999999,-0.717588495,0.67333812,-0.12792936
1764433959.532761,-5.35626,1.08346,0.0762999999999999,-0.717588495,0.67333812,-0.12792936
1764433959.532761,-5.35626,1.08346,0.0762999999999999,-0.717588495,0.67333812,-0.12792936
1764433959.532761,-5.35626,1.08346,0.0762999999999999,-0.717588495,0.67333812,-0.12792936
1764433959.532761,-5.35626,1.08346,0.0762999999999999,-0.717588495,0.67333812,-0.12792936
1764433959.532761,-5.1121,1.2055399999999998,0.36624,-0.71740539,0.672666735,-0.127135905
1764433959.532761,-5.1121,1.2055399999999998,0.36624,-0.71740539,0.672666735,-0.127135905
1764433959.532761,-5.1121,1.2055399999999998,0.36624,-0.71740539,0.672666735,-0.127135905
1764433959.532761,-5.1121,1.2055399999999998,0.36624,-0.71740539,0.672666735,-0.127135905
1764433959.532761,-5.1121,1.2055399999999998,0.36624,-0.71740539,0.672666735,-0.127135905
1764433959.532761,-5.1121,1.2055399999999998,0.36624,-0.71740539,0.672666735,-0.127135905
1764433959.5342803,-5.1121,1.2055399999999998,0.36624,-0.71740539,0.672666735,-0.127135905
1764433959.5342803,-5.1121,1.2055399999999998,0.36624,-0.71740539,0.672666735,-0.127135905
1764433959.5342803,-5.1121,1.2055399999999998,0.36624,-0.71740539,0.672666735,-0.127135905
1764433959.5342803,-5.1121,1.2055399999999998,0.36624,-0.71740539,0.672666735,-0.127135905
1764433959.5342803,-4.715339999999999,1.05294,0.10682,-0.71752746,0.67346019,-0.12731901
1764433959.5342803,-4.715339999999999,1.05294,0.10682,-0.71752746,0.67346019,-0.12731901
1764433959.5778892,-4.715339999999999,1.05294,0.10682,-0.71752746,0.67346019,-0.12731901
1764433959.5778892,-4.715339999999999,1.05294,0.10682,-0.71752746,0.67346019,-0.12731901
1764433959.5778892,-4.715339999999999,1.05294,0.10682,-0.71752746,0.67346019,-0.12731901
1764433959.5778892,-4.715339999999999,1.05294,0.10682,-0.71752746,0.67346019,-0.12731901
1764433959.5778892,-4.715339999999999,1.05294,0.10682,-0.71752746,0.67346019,-0.12731901
1764433959.5778892,-4.715339999999999,1.05294,0.10682,-0.71752746,0.67346019,-0.12731901
1764433959.5778892,-4.715339999999999,1.05294,0.10682,-0.71752746,0.67346019,-0.12731901
1764433959.5778892,-4.715339999999999,1.05294,0.10682,-0.71752746,0.67346019,-0.12731901
1764433959.578895,-4.28806,1.15976,0.3204599999999999,-0.718198845,0.67321605,-0.12756315
1764433959.578895,-4.28806,1.15976,0.3204599999999999,-0.718198845,0.67321605,-0.12756315
1764433959.578895,-4.28806,1.15976,0.3204599999999999,-0.718198845,0.67321605,-0.12756315
1764433959.578895,-4.28806,1.15976,0.3204599999999999,-0.718198845,0.67321605,-0.12756315
1764433959.578895,-4.28806,1.15976,0.3204599999999999,-0.718198845,0.67321605,-0.12756315
1764433959.578895,-4.28806,1.15976,0.3204599999999999,-0.718198845,0.67321605,-0.12756315
1764433959.5794032,-4.28806,1.15976,0.3204599999999999,-0.718198845,0.67321605,-0.12756315
1764433959.5794032,-4.28806,1.15976,0.3204599999999999,-0.718198845,0.67321605,-0.12756315
1764433959.5794032,-4.28806,1.15976,0.3204599999999999,-0.718198845,0.67321605,-0.12756315
1764433959.5794032,-4.28806,1.15976,0.3204599999999999,-0.718198845,0.67321605,-0.12756315
1764433959.5794032,-4.13546,1.31236,0.0762999999999999,-0.718076775,0.672788805,-0.127624185
1764433959.580907,-4.13546,1.31236,0.0762999999999999,-0.718076775,0.672788805,-0.127624185
1764433959.580907,-4.13546,1.31236,0.0762999999999999,-0.718076775,0.672788805,-0.127624185
1764433959.580907,-4.13546,1.31236,0.0762999999999999,-0.718076775,0.672788805,-0.127624185
1764433959.6242194,-4.13546,1.31236,0.0762999999999999,-0.718076775,0.672788805,-0.127624185
1764433959.6242194,-4.13546,1.31236,0.0762999999999999,-0.718076775,0.672788805,-0.127624185
1764433959.6247466,-4.13546,1.31236,0.0762999999999999,-0.718076775,0.672788805,-0.127624185
1764433959.6247466,-4.13546,1.31236,0.0762999999999999,-0.718076775,0.672788805,-0.127624185
1764433959.6247466,-4.13546,1.31236,0.0762999999999999,-0.718076775,0.672788805,-0.127624185
1764433959.6247466,-4.13546,1.31236,0.0762999999999999,-0.718076775,0.672788805,-0.127624185
1764433959.6247466,-4.77638,1.0682,0.1678599999999999,-0.71813781,0.673277085,-0.12719694
1764433959.6247466,-4.77638,1.0682,0.1678599999999999,-0.71813781,0.673277085,-0.12719694
1764433959.6247466,-4.77638,1.0682,0.1678599999999999,-0.71813781,0.673277085,-0.12719694
1764433959.6247466,-4.77638,1.0682,0.1678599999999999,-0.71813781,0.673277085,-0.12719694
1764433959.6247466,-4.77638,1.0682,0.1678599999999999,-0.71813781,0.673277085,-0.12719694
1764433959.6247466,-4.77638,1.0682,0.1678599999999999,-0.71813781,0.673277085,-0.12719694
1764433959.6247466,-4.77638,1.0682,0.1678599999999999,-0.71813781,0.673277085,-0.12719694
1764433959.6247466,-4.77638,1.0682,0.1678599999999999,-0.71813781,0.673277085,-0.12719694
1764433959.6247466,-4.77638,1.0682,0.1678599999999999,-0.71813781,0.673277085,-0.12719694
1764433959.6247466,-4.77638,1.0682,0.1678599999999999,-0.71813781,0.673277085,-0.12719694
1764433959.6247466,-4.7306,1.32762,0.0,-0.71838195,0.672300525,-0.12780729
1764433959.6247466,-4.7306,1.32762,0.0,-0.71838195,0.672300525,-0.12780729
1764433959.6247466,-4.7306,1.32762,0.0,-0.71838195,0.672300525,-0.12780729
1764433959.6247466,-4.7306,1.32762,0.0,-0.71838195,0.672300525,-0.12780729
1764433959.6247466,-4.7306,1.32762,0.0,-0.71838195,0.672300525,-0.12780729
1764433959.6247466,-4.7306,1.32762,0.0,-0.71838195,0.672300525,-0.12780729
1764433959.6712132,-4.7306,1.32762,0.0,-0.71838195,0.672300525,-0.12780729
1764433959.6712132,-4.7306,1.32762,0.0,-0.71838195,0.672300525,-0.12780729
1764433959.6722226,-4.7306,1.32762,0.0,-0.71838195,0.672300525,-0.12780729
1764433959.6722226,-4.7306,1.32762,0.0,-0.71838195,0.672300525,-0.12780729
1764433959.6722226,-4.8832,1.25132,0.3815,-0.71813781,0.67297191,-0.12805143
1764433959.6722226,-4.8832,1.25132,0.3815,-0.71813781,0.67297191,-0.12805143
1764433959.6722226,-4.8832,1.25132,0.3815,-0.71813781,0.67297191,-0.12805143
1764433959.673226,-4.8832,1.25132,0.3815,-0.71813781,0.67297191,-0.12805143
1764433959.673226,-4.8832,1.25132,0.3815,-0.71813781,0.67297191,-0.12805143
1764433959.673226,-4.8832,1.25132,0.3815,-0.71813781,0.67297191,-0.12805143
1764433959.673226,-4.8832,1.25132,0.3815,-0.71813781,0.67297191,-0.12805143
1764433959.673226,-4.8832,1.25132,0.3815,-0.71813781,0.67297191,-0.12805143
1764433959.674229,-4.8832,1.25132,0.3815,-0.71813781,0.67297191,-0.12805143
1764433959.674229,-4.8832,1.25132,0.3815,-0.71813781,0.67297191,-0.12805143
1764433959.674229,-4.66956,1.4039199999999998,0.28994,-0.71923644,0.67321605,-0.12731901
1764433959.674229,-4.66956,1.4039199999999998,0.28994,-0.71923644,0.67321605,-0.12731901
1764433959.674229,-4.66956,1.4039199999999998,0.28994,-0.71923644,0.67321605,-0.12731901
1764433959.674229,-4.66956,1.4039199999999998,0.28994,-0.71923644,0.67321605,-0.12731901
1764433959.674229,-4.66956,1.4039199999999998,0.28994,-0.71923644,0.67321605,-0.12731901
1764433959.6752195,-4.66956,1.4039199999999998,0.28994,-0.71923644,0.67321605,-0.12731901
1764433959.6752195,-4.66956,1.4039199999999998,0.28994,-0.71923644,0.67321605,-0.12731901
1764433959.6752195,-4.66956,1.4039199999999998,0.28994,-0.71923644,0.67321605,-0.12731901
