Timestamp,GyroX,GyroY,GyroZ,AccX,AccY,AccZ
1764435673.165355,-1.63282,3.44876,0.6714399999999999,0.543760815,-0.7250958,-0.43688853
1764435673.165355,-1.63282,3.44876,0.6714399999999999,0.543760815,-0.7250958,-0.43688853
1764435673.165355,-1.63282,3.44876,0.6714399999999999,0.543760815,-0.7250958,-0.43688853
1764435673.165355,-1.63282,3.44876,0.6714399999999999,0.543760815,-0.7250958,-0.43688853
1764435673.165355,-1.63282,3.44876,0.6714399999999999,0.543760815,-0.7250958,-0.43688853
1764435673.165355,-1.63282,3.44876,0.6714399999999999,0.543760815,-0.7250958,-0.43688853
1764435673.165355,-1.6633399999999998,3.34194,0.56462,0.54357771,-0.72485166,-0.437193705
1764435673.165355,-1.6633399999999998,3.34194,0.56462,0.54357771,-0.72485166,-0.437193705
1764435673.165355,-1.6633399999999998,3.34194,0.56462,0.54357771,-0.72485166,-0.437193705
1764435673.165355,-1.6633399999999998,3.34194,0.56462,0.54357771,-0.72485166,-0.437193705
1764435673.165355,-1.6633399999999998,3.34194,0.56462,0.54357771,-0.72485166,-0.437193705
1764435673.165355,-1.6633399999999998,3.34194,0.56462,0.54357771,-0.72485166,-0.437193705
1764435673.165355,-1.6633399999999998,3.34194,0.56462,0.54357771,-0.72485166,-0.437193705
1764435673.165355,-1.6633399999999998,3.34194,0.56462,0.54357771,-0.72485166,-0.437193705
1764435673.165355,-1.6633399999999998,3.34194,0.56462,0.54357771,-0.72485166,-0.437193705
1764435673.165355,-1.6633399999999998,3.34194,0.56462,0.54357771,-0.72485166,-0.437193705
1764435673.165355,-1.64808,4.15072,0.79352,0.54382185,-0.724546485,-0.436705425
1764435673.165355,-1.64808,4.15072,0.79352,0.54382185,-0.724546485,-0.436705425
1764435673.165355,-1.64808,4.15072,0.79352,0.54382185,-0.724546485,-0.436705425
1764435673.1663623,-1.64808,4.15072,0.79352,0.54382185,-0.724546485,-0.436705425
1764435673.1663623,-1.64808,4.15072,0.79352,0.54382185,-0.724546485,-0.436705425
1764435673.1663623,-1.64808,4.15072,0.79352,0.54382185,-0.724546485,-0.436705425
1764435673.2099876,-1.64808,4.15072,0.79352,0.54382185,-0.724546485,-0.436705425
1764435673.2099876,-1.64808,4.15072,0.79352,0.54382185,-0.724546485,-0.436705425
1764435673.2099876,-1.64808,4.15072,0.79352,0.54382185,-0.724546485,-0.436705425
1764435673.2099876,-1.64808,4.15072,0.79352,0.54382185,-0.724546485,-0.436705425
1764435673.2099876,-1.73964,3.37246,0.79352,0.543760815,-0.724668555,-0.436827495
1764435673.2099876,-1.73964,3.37246,0.79352,0.543760815,-0.724668555,-0.436827495
1764435673.2099876,-1.73964,3.37246,0.79352,0.543760815,-0.724668555,-0.436827495
1764435673.2099876,-1.73964,3.37246,0.79352,0.543760815,-0.724668555,-0.436827495
1764435673.2099876,-1.73964,3.37246,0.79352,0.543760815,-0.724668555,-0.436827495
1764435673.2099876,-1.73964,3.37246,0.79352,0.543760815,-0.724668555,-0.436827495
1764435673.2099876,-1.73964,3.37246,0.79352,0.543760815,-0.724668555,-0.436827495
1764435673.2099876,-1.73964,3.37246,0.79352,0.543760815,-0.724668555,-0.436827495
1764435673.2120006,-1.73964,3.37246,0.79352,0.543760815,-0.724668555,-0.436827495
1764435673.2120006,-1.73964,3.37246,0.79352,0.543760815,-0.724668555,-0.436827495
1764435673.2120006,-1.49548,3.69292,0.9003399999999999,0.54369978,-0.7246075200000001,-0.436949565
1764435673.2120006,-1.49548,3.69292,0.9003399999999999,0.54369978,-0.7246075200000001,-0.436949565
1764435673.2120006,-1.49548,3.69292,0.9003399999999999,0.54369978,-0.7246075200000001,-0.436949565
1764435673.2120006,-1.49548,3.69292,0.9003399999999999,0.54369978,-0.7246075200000001,-0.436949565
1764435673.2120006,-1.49548,3.69292,0.9003399999999999,0.54369978,-0.7246075200000001,-0.436949565
1764435673.2120006,-1.49548,3.69292,0.9003399999999999,0.54369978,-0.7246075200000001,-0.436949565
1764435673.2120006,-1.49548,3.69292,0.9003399999999999,0.54369978,-0.7246075200000001,-0.436949565
1764435673.2120006,-1.49548,3.69292,0.9003399999999999,0.54369978,-0.7246075200000001,-0.436949565
1764435673.2120006,-1.49548,3.69292,0.9003399999999999,0.54369978,-0.7246075200000001,-0.436949565
1764435673.2120006,-1.49548,3.69292,0.9003399999999999,0.54369978,-0.7246075200000001,-0.436949565
1764435673.2559557,-0.88508,3.8913,0.54936,0.543760815,-0.72375303,-0.43762095
1764435673.2559557,-0.88508,3.8913,0.54936,0.543760815,-0.72375303,-0.43762095
1764435673.2559557,-0.88508,3.8913,0.54936,0.543760815,-0.72375303,-0.43762095
1764435673.2559557,-0.88508,3.8913,0.54936,0.543760815,-0.72375303,-0.43762095
1764435673.2559557,-0.88508,3.8913,0.54936,0.543760815,-0.72375303,-0.43762095
1764435673.2559557,-0.88508,3.8913,0.54936,0.543760815,-0.72375303,-0.43762095
1764435673.2559557,-0.88508,3.8913,0.54936,0.543760815,-0.72375303,-0.43762095
1764435673.2559557,-0.88508,3.8913,0.54936,0.543760815,-0.72375303,-0.43762095
1764435673.2559557,-0.88508,3.8913,0.54936,0.543760815,-0.72375303,-0.43762095
1764435673.2564924,-0.88508,3.8913,0.54936,0.543760815,-0.72375303,-0.43762095
1764435673.2564924,-1.6022999999999998,3.815,0.96138,0.544004955,-0.72350889,-0.43835337
1764435673.2564924,-1.6022999999999998,3.815,0.96138,0.544004955,-0.72350889,-0.43835337
1764435673.2564924,-1.6022999999999998,3.815,0.96138,0.544004955,-0.72350889,-0.43835337
1764435673.2564924,-1.6022999999999998,3.815,0.96138,0.544004955,-0.72350889,-0.43835337
1764435673.2564924,-1.6022999999999998,3.815,0.96138,0.544004955,-0.72350889,-0.43835337
1764435673.2564924,-1.6022999999999998,3.815,0.96138,0.544004955,-0.72350889,-0.43835337
1764435673.2564924,-1.6022999999999998,3.815,0.96138,0.544004955,-0.72350889,-0.43835337
1764435673.2564924,-1.6022999999999998,3.815,0.96138,0.544004955,-0.72350889,-0.43835337
1764435673.2564924,-1.6022999999999998,3.815,0.96138,0.544004955,-0.72350889,-0.43835337
1764435673.2585084,-1.6022999999999998,3.815,0.96138,0.544004955,-0.72350889,-0.43835337
1764435673.2585084,-1.78542,3.55558,0.96138,0.544493235,-0.7238751,-0.43835337
1764435673.2585084,-1.78542,3.55558,0.96138,0.544493235,-0.7238751,-0.43835337
1764435673.303834,-1.78542,3.55558,0.96138,0.544493235,-0.7238751,-0.43835337
1764435673.303834,-1.78542,3.55558,0.96138,0.544493235,-0.7238751,-0.43835337
1764435673.303834,-1.78542,3.55558,0.96138,0.544493235,-0.7238751,-0.43835337
1764435673.303834,-1.78542,3.55558,0.96138,0.544493235,-0.7238751,-0.43835337
1764435673.303834,-1.78542,3.55558,0.96138,0.544493235,-0.7238751,-0.43835337
1764435673.303834,-1.78542,3.55558,0.96138,0.544493235,-0.7238751,-0.43835337
1764435673.303834,-1.78542,3.55558,0.96138,0.544493235,-0.7238751,-0.43835337
1764435673.303834,-1.78542,3.55558,0.96138,0.544493235,-0.7238751,-0.43835337
1764435673.303834,-2.57894,3.052,0.8087799999999999,0.54406599,-0.72411924,-0.43810923
1764435673.303834,-2.57894,3.052,0.8087799999999999,0.54406599,-0.72411924,-0.43810923
1764435673.3528757,-2.57894,3.052,0.8087799999999999,0.54406599,-0.72411924,-0.43810923
1764435673.3528757,-2.57894,3.052,0.8087799999999999,0.54406599,-0.72411924,-0.43810923
1764435673.3528757,-2.57894,3.052,0.8087799999999999,0.54406599,-0.72411924,-0.43810923
1764435673.3528757,-2.57894,3.052,0.8087799999999999,0.54406599,-0.72411924,-0.43810923
1764435673.3528757,-2.57894,3.052,0.8087799999999999,0.54406599,-0.72411924,-0.43810923
1764435673.3528757,-2.57894,3.052,0.8087799999999999,0.54406599,-0.72411924,-0.43810923
1764435673.3533964,-2.57894,3.052,0.8087799999999999,0.54406599,-0.72411924,-0.43810923
1764435673.3533964,-2.57894,3.052,0.8087799999999999,0.54406599,-0.72411924,-0.43810923
1764435673.3533964,-2.94518,3.46402,0.41202,0.544249095,-0.7240582050000001,-0.43847544
1764435673.3533964,-2.94518,3.46402,0.41202,0.544249095,-0.7240582050000001,-0.43847544
1764435673.3533964,-2.94518,3.46402,0.41202,0.544249095,-0.7240582050000001,-0.43847544
1764435673.3533964,-2.94518,3.46402,0.41202,0.544249095,-0.7240582050000001,-0.43847544
1764435673.3533964,-2.94518,3.46402,0.41202,0.544249095,-0.7240582050000001,-0.43847544
1764435673.3533964,-2.94518,3.46402,0.41202,0.544249095,-0.7240582050000001,-0.43847544
1764435673.3533964,-2.94518,3.46402,0.41202,0.544249095,-0.7240582050000001,-0.43847544
1764435673.3533964,-2.94518,3.46402,0.41202,0.544249095,-0.7240582050000001,-0.43847544
1764435673.3533964,-2.94518,3.46402,0.41202,0.544249095,-0.7240582050000001,-0.43847544
1764435673.3533964,-2.94518,3.46402,0.41202,0.544249095,-0.7240582050000001,-0.43847544
1764435673.3533964,-2.91466,3.52506,0.93086,0.5444322,-0.72485166,-0.438048195
1764435673.3533964,-2.91466,3.52506,0.93086,0.5444322,-0.72485166,-0.438048195
1764435673.3533964,-2.91466,3.52506,0.93086,0.5444322,-0.72485166,-0.438048195
1764435673.3533964,-2.91466,3.52506,0.93086,0.5444322,-0.72485166,-0.438048195
1764435673.3533964,-2.91466,3.52506,0.93086,0.5444322,-0.72485166,-0.438048195
1764435673.3533964,-2.91466,3.52506,0.93086,0.5444322,-0.72485166,-0.438048195
1764435673.3533964,-2.91466,3.52506,0.93086,0.5444322,-0.72485166,-0.438048195
1764435673.3533964,-2.91466,3.52506,0.93086,0.5444322,-0.72485166,-0.438048195
1764435673.3533964,-2.91466,3.52506,0.93086,0.5444322,-0.72485166,-0.438048195
1764435673.3533964,-2.91466,3.52506,0.93086,0.5444322,-0.72485166,-0.438048195
1764435673.3533964,-2.54842,3.64714,0.6409199999999999,0.544249095,-0.7238751,-0.438048195
1764435673.3533964,-2.54842,3.64714,0.6409199999999999,0.544249095,-0.7238751,-0.438048195
1764435673.354396,-2.54842,3.64714,0.6409199999999999,0.544249095,-0.7238751,-0.438048195
1764435673.354396,-2.54842,3.64714,0.6409199999999999,0.544249095,-0.7238751,-0.438048195
1764435673.354396,-2.54842,3.64714,0.6409199999999999,0.544249095,-0.7238751,-0.438048195
1764435673.354396,-2.54842,3.64714,0.6409199999999999,0.544249095,-0.7238751,-0.438048195
1764435673.354396,-2.54842,3.64714,0.6409199999999999,0.544249095,-0.7238751,-0.438048195
1764435673.354396,-2.54842,3.64714,0.6409199999999999,0.544249095,-0.7238751,-0.438048195
1764435673.354396,-2.54842,3.64714,0.6409199999999999,0.544249095,-0.7238751,-0.438048195
1764435673.354396,-2.54842,3.64714,0.6409199999999999,0.544249095,-0.7238751,-0.438048195
1764435673.3968484,-2.18218,3.67766,0.8392999999999999,0.5444322,-0.72411924,-0.4382313
1764435673.3968484,-2.18218,3.67766,0.8392999999999999,0.5444322,-0.72411924,-0.4382313
1764435673.3968484,-2.18218,3.67766,0.8392999999999999,0.5444322,-0.72411924,-0.4382313
1764435673.3968484,-2.18218,3.67766,0.8392999999999999,0.5444322,-0.72411924,-0.4382313
1764435673.3968484,-2.18218,3.67766,0.8392999999999999,0.5444322,-0.72411924,-0.4382313
1764435673.3968484,-2.18218,3.67766,0.8392999999999999,0.5444322,-0.72411924,-0.4382313
1764435673.3968484,-2.18218,3.67766,0.8392999999999999,0.5444322,-0.72411924,-0.4382313
1764435673.3968484,-2.18218,3.67766,0.8392999999999999,0.5444322,-0.72411924,-0.4382313
1764435673.3968484,-2.18218,3.67766,0.8392999999999999,0.5444322,-0.72411924,-0.4382313
1764435673.397866,-2.18218,3.67766,0.8392999999999999,0.5444322,-0.72411924,-0.4382313
1764435673.397866,-1.6022999999999998,3.61662,0.7019599999999999,0.5444322,-0.72399717,-0.437804055
1764435673.397866,-1.6022999999999998,3.61662,0.7019599999999999,0.5444322,-0.72399717,-0.437804055
1764435673.397866,-1.6022999999999998,3.61662,0.7019599999999999,0.5444322,-0.72399717,-0.437804055
1764435673.397866,-1.6022999999999998,3.61662,0.7019599999999999,0.5444322,-0.72399717,-0.437804055
1764435673.397866,-1.6022999999999998,3.61662,0.7019599999999999,0.5444322,-0.72399717,-0.437804055
1764435673.397866,-1.6022999999999998,3.61662,0.7019599999999999,0.5444322,-0.72399717,-0.437804055
1764435673.397866,-1.6022999999999998,3.61662,0.7019599999999999,0.5444322,-0.72399717,-0.437804055
1764435673.397866,-1.6022999999999998,3.61662,0.7019599999999999,0.5444322,-0.72399717,-0.437804055
1764435673.397866,-1.6022999999999998,3.61662,0.7019599999999999,0.5444322,-0.72399717,-0.437804055
1764435673.397866,-1.6022999999999998,3.61662,0.7019599999999999,0.5444322,-0.72399717,-0.437804055
1764435673.397866,-1.46496,3.78448,1.02242,0.54418806,-0.72314268,-0.438658545
1764435673.397866,-1.46496,3.78448,1.02242,0.54418806,-0.72314268,-0.438658545
1764435673.4415932,-1.46496,3.78448,1.02242,0.54418806,-0.72314268,-0.438658545
1764435673.4415932,-1.46496,3.78448,1.02242,0.54418806,-0.72314268,-0.438658545
1764435673.4415932,-1.46496,3.78448,1.02242,0.54418806,-0.72314268,-0.438658545
1764435673.4415932,-1.46496,3.78448,1.02242,0.54418806,-0.72314268,-0.438658545
1764435673.4415932,-1.46496,3.78448,1.02242,0.54418806,-0.72314268,-0.438658545
1764435673.4431703,-1.46496,3.78448,1.02242,0.54418806,-0.72314268,-0.438658545
1764435673.4431703,-1.46496,3.78448,1.02242,0.54418806,-0.72314268,-0.438658545
1764435673.4431703,-1.46496,3.78448,1.02242,0.54418806,-0.72314268,-0.438658545
1764435673.443704,-1.26658,3.72344,0.763,0.543882885,-0.72216612,-0.439513035
1764435673.443704,-1.26658,3.72344,0.763,0.543882885,-0.72216612,-0.439513035
1764435673.443704,-1.26658,3.72344,0.763,0.543882885,-0.72216612,-0.439513035
1764435673.443704,-1.26658,3.72344,0.763,0.543882885,-0.72216612,-0.439513035
1764435673.443704,-1.26658,3.72344,0.763,0.543882885,-0.72216612,-0.439513035
1764435673.443704,-1.26658,3.72344,0.763,0.543882885,-0.72216612,-0.439513035
1764435673.443704,-1.26658,3.72344,0.763,0.543882885,-0.72216612,-0.439513035
1764435673.443704,-1.26658,3.72344,0.763,0.543882885,-0.72216612,-0.439513035
1764435673.443704,-1.26658,3.72344,0.763,0.543882885,-0.72216612,-0.439513035
1764435673.443704,-1.26658,3.72344,0.763,0.543882885,-0.72216612,-0.439513035
1764435673.443704,-1.28184,3.86078,0.4578,0.544004955,-0.722593365,-0.43920786
1764435673.443704,-1.28184,3.86078,0.4578,0.544004955,-0.722593365,-0.43920786
1764435673.444718,-1.28184,3.86078,0.4578,0.544004955,-0.722593365,-0.43920786
1764435673.444718,-1.28184,3.86078,0.4578,0.544004955,-0.722593365,-0.43920786
1764435673.4457245,-1.28184,3.86078,0.4578,0.544004955,-0.722593365,-0.43920786
1764435673.4457245,-1.28184,3.86078,0.4578,0.544004955,-0.722593365,-0.43920786
1764435673.493057,-1.28184,3.86078,0.4578,0.544004955,-0.722593365,-0.43920786
1764435673.493057,-1.28184,3.86078,0.4578,0.544004955,-0.722593365,-0.43920786
1764435673.493057,-1.28184,3.86078,0.4578,0.544004955,-0.722593365,-0.43920786
1764435673.493057,-1.28184,3.86078,0.4578,0.544004955,-0.722593365,-0.43920786
1764435673.493057,-1.92276,3.26564,0.74774,0.5443101300000001,-0.7225323300000001,-0.439024755
1764435673.493057,-1.92276,3.26564,0.74774,0.5443101300000001,-0.7225323300000001,-0.439024755
1764435673.493057,-1.92276,3.26564,0.74774,0.5443101300000001,-0.7225323300000001,-0.439024755
1764435673.493057,-1.92276,3.26564,0.74774,0.5443101300000001,-0.7225323300000001,-0.439024755
1764435673.4940743,-1.92276,3.26564,0.74774,0.5443101300000001,-0.7225323300000001,-0.439024755
1764435673.4940743,-1.92276,3.26564,0.74774,0.5443101300000001,-0.7225323300000001,-0.439024755
1764435673.4940743,-1.92276,3.26564,0.74774,0.5443101300000001,-0.7225323300000001,-0.439024755
1764435673.4940743,-1.92276,3.26564,0.74774,0.5443101300000001,-0.7225323300000001,-0.439024755
1764435673.4940743,-1.92276,3.26564,0.74774,0.5443101300000001,-0.7225323300000001,-0.439024755
1764435673.4940743,-1.92276,3.26564,0.74774,0.5443101300000001,-0.7225323300000001,-0.439024755
1764435673.4940743,-1.70912,3.64714,0.65618,0.544371165,-0.722715435,-0.43994028
1764435673.4940743,-1.70912,3.64714,0.65618,0.544371165,-0.722715435,-0.43994028
1764435673.4940743,-1.70912,3.64714,0.65618,0.544371165,-0.722715435,-0.43994028
1764435673.4940743,-1.70912,3.64714,0.65618,0.544371165,-0.722715435,-0.43994028
1764435673.4940743,-1.70912,3.64714,0.65618,0.544371165,-0.722715435,-0.43994028
1764435673.4940743,-1.70912,3.64714,0.65618,0.544371165,-0.722715435,-0.43994028
1764435673.4940743,-1.70912,3.64714,0.65618,0.544371165,-0.722715435,-0.43994028
1764435673.4940743,-1.70912,3.64714,0.65618,0.544371165,-0.722715435,-0.43994028
1764435673.4940743,-1.70912,3.64714,0.65618,0.544371165,-0.722715435,-0.43994028
1764435673.4940743,-1.70912,3.64714,0.65618,0.544371165,-0.722715435,-0.43994028
1764435673.5378652,-1.84646,3.47928,0.65618,0.544615305,-0.72241026,-0.43994028
1764435673.5378652,-1.84646,3.47928,0.65618,0.544615305,-0.72241026,-0.43994028
1764435673.5378652,-1.84646,3.47928,0.65618,0.544615305,-0.72241026,-0.43994028
1764435673.5378652,-1.84646,3.47928,0.65618,0.544615305,-0.72241026,-0.43994028
1764435673.5378652,-1.84646,3.47928,0.65618,0.544615305,-0.72241026,-0.43994028
1764435673.5378652,-1.84646,3.47928,0.65618,0.544615305,-0.72241026,-0.43994028
1764435673.5378652,-1.84646,3.47928,0.65618,0.544615305,-0.72241026,-0.43994028
1764435673.5378652,-1.84646,3.47928,0.65618,0.544615305,-0.72241026,-0.43994028
1764435673.5378652,-1.84646,3.47928,0.65618,0.544615305,-0.72241026,-0.43994028
1764435673.5378652,-1.84646,3.47928,0.65618,0.544615305,-0.72241026,-0.43994028
1764435673.5378652,-2.09062,3.6624,0.6714399999999999,0.54418806,-0.722471295,-0.440489595
1764435673.5378652,-2.09062,3.6624,0.6714399999999999,0.54418806,-0.722471295,-0.440489595
1764435673.5378652,-2.09062,3.6624,0.6714399999999999,0.54418806,-0.722471295,-0.440489595
1764435673.5388775,-2.09062,3.6624,0.6714399999999999,0.54418806,-0.722471295,-0.440489595
1764435673.5388775,-2.09062,3.6624,0.6714399999999999,0.54418806,-0.722471295,-0.440489595
1764435673.5388775,-2.09062,3.6624,0.6714399999999999,0.54418806,-0.722471295,-0.440489595
1764435673.5388775,-2.09062,3.6624,0.6714399999999999,0.54418806,-0.722471295,-0.440489595
1764435673.5388775,-2.09062,3.6624,0.6714399999999999,0.54418806,-0.722471295,-0.440489595
1764435673.5388775,-2.09062,3.6624,0.6714399999999999,0.54418806,-0.722471295,-0.440489595
1764435673.5388775,-2.09062,3.6624,0.6714399999999999,0.54418806,-0.722471295,-0.440489595
1764435673.5388775,-2.31952,3.52506,0.36624,0.543882885,-0.7226544,-0.440977875
1764435673.5388775,-2.31952,3.52506,0.36624,0.543882885,-0.7226544,-0.440977875
1764435673.5388775,-2.31952,3.52506,0.36624,0.543882885,-0.7226544,-0.440977875
1764435673.5388775,-2.31952,3.52506,0.36624,0.543882885,-0.7226544,-0.440977875
1764435673.586967,-2.31952,3.52506,0.36624,0.543882885,-0.7226544,-0.440977875
1764435673.586967,-2.31952,3.52506,0.36624,0.543882885,-0.7226544,-0.440977875
1764435673.586967,-2.31952,3.52506,0.36624,0.543882885,-0.7226544,-0.440977875
1764435673.586967,-2.31952,3.52506,0.36624,0.543882885,-0.7226544,-0.440977875
1764435673.6305234,-2.31952,3.52506,0.36624,0.543882885,-0.7226544,-0.440977875
1764435673.6305234,-2.31952,3.52506,0.36624,0.543882885,-0.7226544,-0.440977875
1764435673.6305234,-1.7549,3.70818,0.6103999999999999,0.544249095,-0.72228819,-0.440855805
1764435673.6305234,-1.7549,3.70818,0.6103999999999999,0.544249095,-0.72228819,-0.440855805
1764435673.6305234,-1.7549,3.70818,0.6103999999999999,0.544249095,-0.72228819,-0.440855805
1764435673.6315362,-1.7549,3.70818,0.6103999999999999,0.544249095,-0.72228819,-0.440855805
1764435673.6315362,-1.7549,3.70818,0.6103999999999999,0.544249095,-0.72228819,-0.440855805
1764435673.6315362,-1.7549,3.70818,0.6103999999999999,0.544249095,-0.72228819,-0.440855805
1764435673.6315362,-1.7549,3.70818,0.6103999999999999,0.544249095,-0.72228819,-0.440855805
1764435673.6315362,-1.7549,3.70818,0.6103999999999999,0.544249095,-0.72228819,-0.440855805
1764435673.6315362,-1.7549,3.70818,0.6103999999999999,0.544249095,-0.72228819,-0.440855805
1764435673.6315362,-1.7549,3.70818,0.6103999999999999,0.544249095,-0.72228819,-0.440855805
1764435673.6315362,-1.55652,4.01338,0.6867,0.544004955,-0.7226544,-0.44103891
1764435673.6315362,-1.55652,4.01338,0.6867,0.544004955,-0.7226544,-0.44103891
1764435673.6315362,-1.55652,4.01338,0.6867,0.544004955,-0.7226544,-0.44103891
1764435673.6315362,-1.55652,4.01338,0.6867,0.544004955,-0.7226544,-0.44103891
1764435673.6315362,-1.55652,4.01338,0.6867,0.544004955,-0.7226544,-0.44103891
1764435673.6315362,-1.55652,4.01338,0.6867,0.544004955,-0.7226544,-0.44103891
1764435673.6315362,-1.55652,4.01338,0.6867,0.544004955,-0.7226544,-0.44103891
1764435673.6315362,-1.55652,4.01338,0.6867,0.544004955,-0.7226544,-0.44103891
1764435673.6315362,-1.55652,4.01338,0.6867,0.544004955,-0.7226544,-0.44103891
1764435673.6315362,-1.55652,4.01338,0.6867,0.544004955,-0.7226544,-0.44103891
1764435673.6315362,-1.46496,3.76922,0.73248,0.544371165,-0.722959575,-0.440855805
1764435673.6315362,-1.46496,3.76922,0.73248,0.544371165,-0.722959575,-0.440855805
1764435673.6315362,-1.46496,3.76922,0.73248,0.544371165,-0.722959575,-0.440855805
1764435673.6315362,-1.46496,3.76922,0.73248,0.544371165,-0.722959575,-0.440855805
1764435673.6315362,-1.46496,3.76922,0.73248,0.544371165,-0.722959575,-0.440855805
1764435673.6315362,-1.46496,3.76922,0.73248,0.544371165,-0.722959575,-0.440855805
1764435673.6335485,-1.46496,3.76922,0.73248,0.544371165,-0.722959575,-0.440855805
1764435673.6335485,-1.46496,3.76922,0.73248,0.544371165,-0.722959575,-0.440855805
1764435673.6335485,-1.46496,3.76922,0.73248,0.544371165,-0.722959575,-0.440855805
1764435673.6335485,-1.46496,3.76922,0.73248,0.544371165,-0.722959575,-0.440855805
1764435673.6335485,-1.09872,4.02864,0.39676,0.544493235,-0.722471295,-0.440489595
1764435673.6335485,-1.09872,4.02864,0.39676,0.544493235,-0.722471295,-0.440489595
1764435673.6335485,-1.09872,4.02864,0.39676,0.544493235,-0.722471295,-0.440489595
1764435673.6335485,-1.09872,4.02864,0.39676,0.544493235,-0.722471295,-0.440489595
1764435673.6335485,-1.09872,4.02864,0.39676,0.544493235,-0.722471295,-0.440489595
1764435673.6335485,-1.09872,4.02864,0.39676,0.544493235,-0.722471295,-0.440489595
1764435673.6335485,-1.09872,4.02864,0.39676,0.544493235,-0.722471295,-0.440489595
1764435673.634554,-1.09872,4.02864,0.39676,0.544493235,-0.722471295,-0.440489595
1764435673.634554,-1.09872,4.02864,0.39676,0.544493235,-0.722471295,-0.440489595
1764435673.634554,-1.09872,4.02864,0.39676,0.544493235,-0.722471295,-0.440489595
1764435673.680477,-1.4497,3.69292,0.7019599999999999,0.54418806,-0.722959575,-0.440733735
1764435673.680477,-1.4497,3.69292,0.7019599999999999,0.54418806,-0.722959575,-0.440733735
1764435673.680477,-1.4497,3.69292,0.7019599999999999,0.54418806,-0.722959575,-0.440733735
1764435673.680477,-1.4497,3.69292,0.7019599999999999,0.54418806,-0.722959575,-0.440733735
1764435673.680477,-1.4497,3.69292,0.7019599999999999,0.54418806,-0.722959575,-0.440733735
1764435673.680477,-1.4497,3.69292,0.7019599999999999,0.54418806,-0.722959575,-0.440733735
1764435673.680477,-1.4497,3.69292,0.7019599999999999,0.54418806,-0.722959575,-0.440733735
1764435673.680477,-1.4497,3.69292,0.7019599999999999,0.54418806,-0.722959575,-0.440733735
1764435673.680477,-1.4497,3.69292,0.7019599999999999,0.54418806,-0.722959575,-0.440733735
1764435673.680477,-1.4497,3.69292,0.7019599999999999,0.54418806,-0.722959575,-0.440733735
1764435673.680477,-1.02242,3.55558,0.5341,0.54406599,-0.7225323300000001,-0.440733735
1764435673.680477,-1.02242,3.55558,0.5341,0.54406599,-0.7225323300000001,-0.440733735
1764435673.6814935,-1.02242,3.55558,0.5341,0.54406599,-0.7225323300000001,-0.440733735
1764435673.6814935,-1.02242,3.55558,0.5341,0.54406599,-0.7225323300000001,-0.440733735
1764435673.6814935,-1.02242,3.55558,0.5341,0.54406599,-0.7225323300000001,-0.440733735
1764435673.6814935,-1.02242,3.55558,0.5341,0.54406599,-0.7225323300000001,-0.440733735
1764435673.6814935,-1.02242,3.55558,0.5341,0.54406599,-0.7225323300000001,-0.440733735
1764435673.6814935,-1.02242,3.55558,0.5341,0.54406599,-0.7225323300000001,-0.440733735
1764435673.6814935,-1.02242,3.55558,0.5341,0.54406599,-0.7225323300000001,-0.440733735
1764435673.6814935,-1.02242,3.55558,0.5341,0.54406599,-0.7225323300000001,-0.440733735
1764435673.6814935,-1.03768,3.46402,0.8392999999999999,0.54406599,-0.7226544,-0.440733735
1764435673.6814935,-1.03768,3.46402,0.8392999999999999,0.54406599,-0.7226544,-0.440733735
1764435673.726639,-1.03768,3.46402,0.8392999999999999,0.54406599,-0.7226544,-0.440733735
1764435673.726639,-1.03768,3.46402,0.8392999999999999,0.54406599,-0.7226544,-0.440733735
1764435673.726639,-1.03768,3.46402,0.8392999999999999,0.54406599,-0.7226544,-0.440733735
1764435673.726639,-1.03768,3.46402,0.8392999999999999,0.54406599,-0.7226544,-0.440733735
1764435673.726639,-1.03768,3.46402,0.8392999999999999,0.54406599,-0.7226544,-0.440733735
1764435673.726639,-1.03768,3.46402,0.8392999999999999,0.54406599,-0.7226544,-0.440733735
1764435673.726639,-1.03768,3.46402,0.8392999999999999,0.54406599,-0.7226544,-0.440733735
1764435673.726639,-1.03768,3.46402,0.8392999999999999,0.54406599,-0.7226544,-0.440733735
1764435673.726639,-1.48022,3.78448,0.56462,0.54406599,-0.7230206100000001,-0.440977875
1764435673.726639,-1.48022,3.78448,0.56462,0.54406599,-0.7230206100000001,-0.440977875
1764435673.726639,-1.48022,3.78448,0.56462,0.54406599,-0.7230206100000001,-0.440977875
1764435673.726639,-1.48022,3.78448,0.56462,0.54406599,-0.7230206100000001,-0.440977875
1764435673.726639,-1.48022,3.78448,0.56462,0.54406599,-0.7230206100000001,-0.440977875
1764435673.726639,-1.48022,3.78448,0.56462,0.54406599,-0.7230206100000001,-0.440977875
1764435673.726639,-1.48022,3.78448,0.56462,0.54406599,-0.7230206100000001,-0.440977875
1764435673.726639,-1.48022,3.78448,0.56462,0.54406599,-0.7230206100000001,-0.440977875
1764435673.72764,-1.48022,3.78448,0.56462,0.54406599,-0.7230206100000001,-0.440977875
1764435673.72764,-1.48022,3.78448,0.56462,0.54406599,-0.7230206100000001,-0.440977875
1764435673.72764,-1.6022999999999998,3.61662,0.51884,0.544371165,-0.7225323300000001,-0.4406727
1764435673.72764,-1.6022999999999998,3.61662,0.51884,0.544371165,-0.7225323300000001,-0.4406727
1764435673.72764,-1.6022999999999998,3.61662,0.51884,0.544371165,-0.7225323300000001,-0.4406727
1764435673.72764,-1.6022999999999998,3.61662,0.51884,0.544371165,-0.7225323300000001,-0.4406727
1764435673.72764,-1.6022999999999998,3.61662,0.51884,0.544371165,-0.7225323300000001,-0.4406727
1764435673.72764,-1.6022999999999998,3.61662,0.51884,0.544371165,-0.7225323300000001,-0.4406727
1764435673.7705152,-1.6022999999999998,3.61662,0.51884,0.544371165,-0.7225323300000001,-0.4406727
1764435673.7711208,-1.6022999999999998,3.61662,0.51884,0.544371165,-0.7225323300000001,-0.4406727
1764435673.7711208,-1.6022999999999998,3.61662,0.51884,0.544371165,-0.7225323300000001,-0.4406727
1764435673.7711208,-1.6022999999999998,3.61662,0.51884,0.544371165,-0.7225323300000001,-0.4406727
1764435673.7711208,-1.6633399999999998,3.57084,0.6409199999999999,0.544004955,-0.7225323300000001,-0.440977875
1764435673.7711208,-1.6633399999999998,3.57084,0.6409199999999999,0.544004955,-0.7225323300000001,-0.440977875
1764435673.7711208,-1.6633399999999998,3.57084,0.6409199999999999,0.544004955,-0.7225323300000001,-0.440977875
1764435673.7711208,-1.6633399999999998,3.57084,0.6409199999999999,0.544004955,-0.7225323300000001,-0.440977875
1764435673.7721386,-1.6633399999999998,3.57084,0.6409199999999999,0.544004955,-0.7225323300000001,-0.440977875
1764435673.7721386,-1.6633399999999998,3.57084,0.6409199999999999,0.544004955,-0.7225323300000001,-0.440977875
1764435673.7721386,-1.6633399999999998,3.57084,0.6409199999999999,0.544004955,-0.7225323300000001,-0.440977875
1764435673.7721386,-1.6633399999999998,3.57084,0.6409199999999999,0.544004955,-0.7225323300000001,-0.440977875
1764435673.7721386,-1.6633399999999998,3.57084,0.6409199999999999,0.544004955,-0.7225323300000001,-0.440977875
1764435673.7721386,-1.6633399999999998,3.57084,0.6409199999999999,0.544004955,-0.7225323300000001,-0.440977875
1764435673.7721386,-1.55652,3.54032,0.6867,0.54345564,-0.72179991,-0.441466155
1764435673.7721386,-1.55652,3.54032,0.6867,0.54345564,-0.72179991,-0.441466155
1764435673.773648,-1.55652,3.54032,0.6867,0.54345564,-0.72179991,-0.441466155
1764435673.773648,-1.55652,3.54032,0.6867,0.54345564,-0.72179991,-0.441466155
1764435673.773648,-1.55652,3.54032,0.6867,0.54345564,-0.72179991,-0.441466155
1764435673.773648,-1.55652,3.54032,0.6867,0.54345564,-0.72179991,-0.441466155
1764435673.773648,-1.55652,3.54032,0.6867,0.54345564,-0.72179991,-0.441466155
1764435673.773648,-1.55652,3.54032,0.6867,0.54345564,-0.72179991,-0.441466155
1764435673.773648,-1.55652,3.54032,0.6867,0.54345564,-0.72179991,-0.441466155
1764435673.773648,-1.55652,3.54032,0.6867,0.54345564,-0.72179991,-0.441466155
1764435673.818478,-1.11398,3.79974,0.59514,0.54369978,-0.72277647,-0.440489595
1764435673.818478,-1.11398,3.79974,0.59514,0.54369978,-0.72277647,-0.440489595
1764435673.818478,-1.11398,3.79974,0.59514,0.54369978,-0.72277647,-0.440489595
1764435673.818478,-1.11398,3.79974,0.59514,0.54369978,-0.72277647,-0.440489595
1764435673.818478,-1.11398,3.79974,0.59514,0.54369978,-0.72277647,-0.440489595
1764435673.818478,-1.11398,3.79974,0.59514,0.54369978,-0.72277647,-0.440489595
1764435673.818478,-1.11398,3.79974,0.59514,0.54369978,-0.72277647,-0.440489595
1764435673.818478,-1.11398,3.79974,0.59514,0.54369978,-0.72277647,-0.440489595
1764435673.818478,-1.11398,3.79974,0.59514,0.54369978,-0.72277647,-0.440489595
1764435673.819492,-1.11398,3.79974,0.59514,0.54369978,-0.72277647,-0.440489595
1764435673.819492,-1.15976,3.78448,0.8392999999999999,0.543760815,-0.7230206100000001,-0.441466155
1764435673.819492,-1.15976,3.78448,0.8392999999999999,0.543760815,-0.7230206100000001,-0.441466155
1764435673.819492,-1.15976,3.78448,0.8392999999999999,0.543760815,-0.7230206100000001,-0.441466155
1764435673.819492,-1.15976,3.78448,0.8392999999999999,0.543760815,-0.7230206100000001,-0.441466155
1764435673.819492,-1.15976,3.78448,0.8392999999999999,0.543760815,-0.7230206100000001,-0.441466155
1764435673.819492,-1.15976,3.78448,0.8392999999999999,0.543760815,-0.7230206100000001,-0.441466155
1764435673.819492,-1.15976,3.78448,0.8392999999999999,0.543760815,-0.7230206100000001,-0.441466155
1764435673.819492,-1.15976,3.78448,0.8392999999999999,0.543760815,-0.7230206100000001,-0.441466155
1764435673.819492,-1.15976,3.78448,0.8392999999999999,0.543760815,-0.7230206100000001,-0.441466155
1764435673.819492,-1.15976,3.78448,0.8392999999999999,0.543760815,-0.7230206100000001,-0.441466155
1764435673.819492,-0.2289,4.02864,0.88508,0.54394392,-0.72241026,-0.441588225
1764435673.819492,-0.2289,4.02864,0.88508,0.54394392,-0.72241026,-0.441588225
1764435673.8199978,-0.2289,4.02864,0.88508,0.54394392,-0.72241026,-0.441588225
1764435673.8199978,-0.2289,4.02864,0.88508,0.54394392,-0.72241026,-0.441588225
1764435673.8656824,-0.2289,4.02864,0.88508,0.54394392,-0.72241026,-0.441588225
1764435673.8656824,-0.2289,4.02864,0.88508,0.54394392,-0.72241026,-0.441588225
1764435673.8656824,-0.2289,4.02864,0.88508,0.54394392,-0.72241026,-0.441588225
1764435673.8656824,-0.2289,4.02864,0.88508,0.54394392,-0.72241026,-0.441588225
1764435673.8656824,-0.2289,4.02864,0.88508,0.54394392,-0.72241026,-0.441588225
1764435673.8656824,-0.2289,4.02864,0.88508,0.54394392,-0.72241026,-0.441588225
1764435673.8656824,-0.19838,4.37962,0.763,0.543638745,-0.7225323300000001,-0.441954435
1764435673.8656824,-0.19838,4.37962,0.763,0.543638745,-0.7225323300000001,-0.441954435
1764435673.8656824,-0.19838,4.37962,0.763,0.543638745,-0.7225323300000001,-0.441954435
1764435673.8656824,-0.19838,4.37962,0.763,0.543638745,-0.7225323300000001,-0.441954435
1764435673.8656824,-0.19838,4.37962,0.763,0.543638745,-0.7225323300000001,-0.441954435
1764435673.8656824,-0.19838,4.37962,0.763,0.543638745,-0.7225323300000001,-0.441954435
1764435673.8656824,-0.19838,4.37962,0.763,0.543638745,-0.7225323300000001,-0.441954435
1764435673.8656824,-0.19838,4.37962,0.763,0.543638745,-0.7225323300000001,-0.441954435
1764435673.8666923,-0.19838,4.37962,0.763,0.543638745,-0.7225323300000001,-0.441954435
1764435673.8666923,-0.19838,4.37962,0.763,0.543638745,-0.7225323300000001,-0.441954435
1764435673.8666923,0.19838,4.24228,0.74774,0.54345564,-0.7225323300000001,-0.44164926
1764435673.8666923,0.19838,4.24228,0.74774,0.54345564,-0.7225323300000001,-0.44164926
1764435673.8666923,0.19838,4.24228,0.74774,0.54345564,-0.7225323300000001,-0.44164926
1764435673.8666923,0.19838,4.24228,0.74774,0.54345564,-0.7225323300000001,-0.44164926
1764435673.8666923,0.19838,4.24228,0.74774,0.54345564,-0.7225323300000001,-0.44164926
1764435673.8666923,0.19838,4.24228,0.74774,0.54345564,-0.7225323300000001,-0.44164926
1764435673.9136376,0.19838,4.24228,0.74774,0.54345564,-0.7225323300000001,-0.44164926
1764435673.9136376,0.19838,4.24228,0.74774,0.54345564,-0.7225323300000001,-0.44164926
1764435673.9146512,0.19838,4.24228,0.74774,0.54345564,-0.7225323300000001,-0.44164926
1764435673.9146512,0.19838,4.24228,0.74774,0.54345564,-0.7225323300000001,-0.44164926
1764435673.9146512,0.04578,3.8913,0.73248,0.543760815,-0.7226544,-0.442076505
1764435673.9146512,0.04578,3.8913,0.73248,0.543760815,-0.7226544,-0.442076505
1764435673.9146512,0.04578,3.8913,0.73248,0.543760815,-0.7226544,-0.442076505
1764435673.9146512,0.04578,3.8913,0.73248,0.543760815,-0.7226544,-0.442076505
1764435673.9146512,0.04578,3.8913,0.73248,0.543760815,-0.7226544,-0.442076505
1764435673.9146512,0.04578,3.8913,0.73248,0.543760815,-0.7226544,-0.442076505
1764435673.9146512,0.04578,3.8913,0.73248,0.543760815,-0.7226544,-0.442076505
1764435673.9146512,0.04578,3.8913,0.73248,0.543760815,-0.7226544,-0.442076505
1764435673.9161606,0.04578,3.8913,0.73248,0.543760815,-0.7226544,-0.442076505
1764435673.9161606,0.04578,3.8913,0.73248,0.543760815,-0.7226544,-0.442076505
1764435673.9161606,-0.71722,3.75396,0.82404,0.54406599,-0.722105085,-0.44201547
1764435673.9161606,-0.71722,3.75396,0.82404,0.54406599,-0.722105085,-0.44201547
1764435673.9161606,-0.71722,3.75396,0.82404,0.54406599,-0.722105085,-0.44201547
1764435673.9161606,-0.71722,3.75396,0.82404,0.54406599,-0.722105085,-0.44201547
1764435673.917169,-0.71722,3.75396,0.82404,0.54406599,-0.722105085,-0.44201547
1764435673.917169,-0.71722,3.75396,0.82404,0.54406599,-0.722105085,-0.44201547
1764435673.917169,-0.71722,3.75396,0.82404,0.54406599,-0.722105085,-0.44201547
1764435673.917169,-0.71722,3.75396,0.82404,0.54406599,-0.722105085,-0.44201547
1764435673.917169,-0.71722,3.75396,0.82404,0.54406599,-0.722105085,-0.44201547
1764435673.917169,-0.71722,3.75396,0.82404,0.54406599,-0.722105085,-0.44201547
1764435673.957288,-0.763,3.64714,0.44254,0.54357771,-0.72241026,-0.441710295
1764435673.957288,-0.763,3.64714,0.44254,0.54357771,-0.72241026,-0.441710295
1764435673.957288,-0.763,3.64714,0.44254,0.54357771,-0.72241026,-0.441710295
1764435673.957288,-0.763,3.64714,0.44254,0.54357771,-0.72241026,-0.441710295
1764435673.957288,-0.763,3.64714,0.44254,0.54357771,-0.72241026,-0.441710295
1764435673.957288,-0.763,3.64714,0.44254,0.54357771,-0.72241026,-0.441710295
1764435673.957288,-0.763,3.64714,0.44254,0.54357771,-0.72241026,-0.441710295
1764435673.957288,-0.763,3.64714,0.44254,0.54357771,-0.72241026,-0.441710295
1764435673.957288,-0.763,3.64714,0.44254,0.54357771,-0.72241026,-0.441710295
1764435673.957288,-0.763,3.64714,0.44254,0.54357771,-0.72241026,-0.441710295
1764435673.957288,-0.96138,3.31142,0.7019599999999999,0.543638745,-0.722593365,-0.44152719
1764435673.957288,-0.96138,3.31142,0.7019599999999999,0.543638745,-0.722593365,-0.44152719
1764435673.957288,-0.96138,3.31142,0.7019599999999999,0.543638745,-0.722593365,-0.44152719
1764435673.957288,-0.96138,3.31142,0.7019599999999999,0.543638745,-0.722593365,-0.44152719
1764435673.957288,-0.96138,3.31142,0.7019599999999999,0.543638745,-0.722593365,-0.44152719
1764435673.957288,-0.96138,3.31142,0.7019599999999999,0.543638745,-0.722593365,-0.44152719
1764435673.957288,-0.96138,3.31142,0.7019599999999999,0.543638745,-0.722593365,-0.44152719
1764435673.957288,-0.96138,3.31142,0.7019599999999999,0.543638745,-0.722593365,-0.44152719
1764435673.957288,-0.96138,3.31142,0.7019599999999999,0.543638745,-0.722593365,-0.44152719
1764435673.957288,-0.96138,3.31142,0.7019599999999999,0.543638745,-0.722593365,-0.44152719
1764435673.9588404,-0.25942,4.3491,1.02242,0.54357771,-0.7225323300000001,-0.44116098
1764435673.9588404,-0.25942,4.3491,1.02242,0.54357771,-0.7225323300000001,-0.44116098
1764435674.0025835,-0.25942,4.3491,1.02242,0.54357771,-0.7225323300000001,-0.44116098
1764435674.0025835,-0.25942,4.3491,1.02242,0.54357771,-0.7225323300000001,-0.44116098
1764435674.0025835,-0.25942,4.3491,1.02242,0.54357771,-0.7225323300000001,-0.44116098
1764435674.0025835,-0.25942,4.3491,1.02242,0.54357771,-0.7225323300000001,-0.44116098
1764435674.0025835,-0.25942,4.3491,1.02242,0.54357771,-0.7225323300000001,-0.44116098
1764435674.0035975,-0.25942,4.3491,1.02242,0.54357771,-0.7225323300000001,-0.44116098
1764435674.0035975,-0.25942,4.3491,1.02242,0.54357771,-0.7225323300000001,-0.44116098
1764435674.0035975,-0.25942,4.3491,1.02242,0.54357771,-0.7225323300000001,-0.44116098
1764435674.0035975,0.3051999999999999,3.76922,0.79352,0.54382185,-0.72277647,-0.441099945
1764435674.0035975,0.3051999999999999,3.76922,0.79352,0.54382185,-0.72277647,-0.441099945
1764435674.0035975,0.3051999999999999,3.76922,0.79352,0.54382185,-0.72277647,-0.441099945
1764435674.0035975,0.3051999999999999,3.76922,0.79352,0.54382185,-0.72277647,-0.441099945
1764435674.0035975,0.3051999999999999,3.76922,0.79352,0.54382185,-0.72277647,-0.441099945
1764435674.0035975,0.3051999999999999,3.76922,0.79352,0.54382185,-0.72277647,-0.441099945
1764435674.0035975,0.3051999999999999,3.76922,0.79352,0.54382185,-0.72277647,-0.441099945
1764435674.0035975,0.3051999999999999,3.76922,0.79352,0.54382185,-0.72277647,-0.441099945
1764435674.0035975,0.3051999999999999,3.76922,0.79352,0.54382185,-0.72277647,-0.441099945
1764435674.0035975,0.3051999999999999,3.76922,0.79352,0.54382185,-0.72277647,-0.441099945
1764435674.0035975,0.77826,3.79974,0.88508,0.544249095,-0.722593365,-0.44091684
1764435674.0035975,0.77826,3.79974,0.88508,0.544249095,-0.722593365,-0.44091684
1764435674.0035975,0.77826,3.79974,0.88508,0.544249095,-0.722593365,-0.44091684
1764435674.0035975,0.77826,3.79974,0.88508,0.544249095,-0.722593365,-0.44091684
1764435674.0046003,0.77826,3.79974,0.88508,0.544249095,-0.722593365,-0.44091684
1764435674.0046003,0.77826,3.79974,0.88508,0.544249095,-0.722593365,-0.44091684
1764435674.0519466,0.77826,3.79974,0.88508,0.544249095,-0.722593365,-0.44091684
1764435674.0529444,0.77826,3.79974,0.88508,0.544249095,-0.722593365,-0.44091684
1764435674.0529444,0.77826,3.79974,0.88508,0.544249095,-0.722593365,-0.44091684
1764435674.0529444,0.77826,3.79974,0.88508,0.544249095,-0.722593365,-0.44091684
1764435674.0529444,0.56462,4.31858,0.79352,0.5444322,-0.722959575,-0.44152719
1764435674.0529444,0.56462,4.31858,0.79352,0.5444322,-0.722959575,-0.44152719
1764435674.053948,0.56462,4.31858,0.79352,0.5444322,-0.722959575,-0.44152719
1764435674.053948,0.56462,4.31858,0.79352,0.5444322,-0.722959575,-0.44152719
1764435674.053948,0.56462,4.31858,0.79352,0.5444322,-0.722959575,-0.44152719
1764435674.054623,0.56462,4.31858,0.79352,0.5444322,-0.722959575,-0.44152719
1764435674.054623,0.56462,4.31858,0.79352,0.5444322,-0.722959575,-0.44152719
1764435674.054943,0.56462,4.31858,0.79352,0.5444322,-0.722959575,-0.44152719
1764435674.054943,0.56462,4.31858,0.79352,0.5444322,-0.722959575,-0.44152719
1764435674.054943,0.56462,4.31858,0.79352,0.5444322,-0.722959575,-0.44152719
1764435674.054943,0.25942,4.01338,0.50358,0.544371165,-0.72289854,-0.440977875
1764435674.054943,0.25942,4.01338,0.50358,0.544371165,-0.72289854,-0.440977875
1764435674.054943,0.25942,4.01338,0.50358,0.544371165,-0.72289854,-0.440977875
1764435674.054943,0.25942,4.01338,0.50358,0.544371165,-0.72289854,-0.440977875
1764435674.054943,0.25942,4.01338,0.50358,0.544371165,-0.72289854,-0.440977875
1764435674.054943,0.25942,4.01338,0.50358,0.544371165,-0.72289854,-0.440977875
1764435674.054943,0.25942,4.01338,0.50358,0.544371165,-0.72289854,-0.440977875
1764435674.054943,0.25942,4.01338,0.50358,0.544371165,-0.72289854,-0.440977875
1764435674.054943,0.25942,4.01338,0.50358,0.544371165,-0.72289854,-0.440977875
1764435674.055941,0.25942,4.01338,0.50358,0.544371165,-0.72289854,-0.440977875
1764435674.099093,0.4578,3.9676,0.74774,0.54418806,-0.723447855,-0.4406727
1764435674.099093,0.4578,3.9676,0.74774,0.54418806,-0.723447855,-0.4406727
1764435674.099093,0.4578,3.9676,0.74774,0.54418806,-0.723447855,-0.4406727
1764435674.099093,0.4578,3.9676,0.74774,0.54418806,-0.723447855,-0.4406727
1764435674.099093,0.4578,3.9676,0.74774,0.54418806,-0.723447855,-0.4406727
1764435674.099093,0.4578,3.9676,0.74774,0.54418806,-0.723447855,-0.4406727
1764435674.099093,0.4578,3.9676,0.74774,0.54418806,-0.723447855,-0.4406727
1764435674.099093,0.4578,3.9676,0.74774,0.54418806,-0.723447855,-0.4406727
1764435674.099093,0.4578,3.9676,0.74774,0.54418806,-0.723447855,-0.4406727
1764435674.099093,0.4578,3.9676,0.74774,0.54418806,-0.723447855,-0.4406727
1764435674.099093,0.57988,4.059159999999999,0.8392999999999999,0.5443101300000001,-0.723325785,-0.440367525
1764435674.099093,0.57988,4.059159999999999,0.8392999999999999,0.5443101300000001,-0.723325785,-0.440367525
1764435674.099093,0.57988,4.059159999999999,0.8392999999999999,0.5443101300000001,-0.723325785,-0.440367525
1764435674.099093,0.57988,4.059159999999999,0.8392999999999999,0.5443101300000001,-0.723325785,-0.440367525
1764435674.1000996,0.57988,4.059159999999999,0.8392999999999999,0.5443101300000001,-0.723325785,-0.440367525
1764435674.1000996,0.57988,4.059159999999999,0.8392999999999999,0.5443101300000001,-0.723325785,-0.440367525
1764435674.1000996,0.57988,4.059159999999999,0.8392999999999999,0.5443101300000001,-0.723325785,-0.440367525
1764435674.1000996,0.57988,4.059159999999999,0.8392999999999999,0.5443101300000001,-0.723325785,-0.440367525
1764435674.1000996,0.57988,4.059159999999999,0.8392999999999999,0.5443101300000001,-0.723325785,-0.440367525
1764435674.1000996,0.57988,4.059159999999999,0.8392999999999999,0.5443101300000001,-0.723325785,-0.440367525
1764435674.1000996,0.19838,4.15072,1.05294,0.54382185,-0.72326475,-0.44030649
1764435674.1000996,0.19838,4.15072,1.05294,0.54382185,-0.72326475,-0.44030649
1764435674.1441104,0.19838,4.15072,1.05294,0.54382185,-0.72326475,-0.44030649
1764435674.1441104,0.19838,4.15072,1.05294,0.54382185,-0.72326475,-0.44030649
1764435674.1441104,0.19838,4.15072,1.05294,0.54382185,-0.72326475,-0.44030649
1764435674.1441104,0.19838,4.15072,1.05294,0.54382185,-0.72326475,-0.44030649
1764435674.1441104,0.19838,4.15072,1.05294,0.54382185,-0.72326475,-0.44030649
1764435674.1441104,0.19838,4.15072,1.05294,0.54382185,-0.72326475,-0.44030649
1764435674.1441104,0.19838,4.15072,1.05294,0.54382185,-0.72326475,-0.44030649
1764435674.1441104,0.19838,4.15072,1.05294,0.54382185,-0.72326475,-0.44030649
1764435674.1441104,0.03052,3.75396,0.73248,0.54369978,-0.72314268,-0.43981821
1764435674.1441104,0.03052,3.75396,0.73248,0.54369978,-0.72314268,-0.43981821
1764435674.1441104,0.03052,3.75396,0.73248,0.54369978,-0.72314268,-0.43981821
1764435674.1441104,0.03052,3.75396,0.73248,0.54369978,-0.72314268,-0.43981821
1764435674.144631,0.03052,3.75396,0.73248,0.54369978,-0.72314268,-0.43981821
1764435674.144631,0.03052,3.75396,0.73248,0.54369978,-0.72314268,-0.43981821
1764435674.144631,0.03052,3.75396,0.73248,0.54369978,-0.72314268,-0.43981821
1764435674.144631,0.03052,3.75396,0.73248,0.54369978,-0.72314268,-0.43981821
1764435674.144631,0.03052,3.75396,0.73248,0.54369978,-0.72314268,-0.43981821
1764435674.144631,0.03052,3.75396,0.73248,0.54369978,-0.72314268,-0.43981821
1764435674.144631,0.3051999999999999,3.86078,0.94612,0.54394392,-0.72338682,-0.43981821
1764435674.144631,0.3051999999999999,3.86078,0.94612,0.54394392,-0.72338682,-0.43981821
1764435674.144631,0.3051999999999999,3.86078,0.94612,0.54394392,-0.72338682,-0.43981821
1764435674.144631,0.3051999999999999,3.86078,0.94612,0.54394392,-0.72338682,-0.43981821
1764435674.144631,0.3051999999999999,3.86078,0.94612,0.54394392,-0.72338682,-0.43981821
1764435674.144631,0.3051999999999999,3.86078,0.94612,0.54394392,-0.72338682,-0.43981821
1764435674.1900916,0.3051999999999999,3.86078,0.94612,0.54394392,-0.72338682,-0.43981821
1764435674.1900916,0.3051999999999999,3.86078,0.94612,0.54394392,-0.72338682,-0.43981821
1764435674.1900916,0.3051999999999999,3.86078,0.94612,0.54394392,-0.72338682,-0.43981821
1764435674.1900916,0.3051999999999999,3.86078,0.94612,0.54394392,-0.72338682,-0.43981821
1764435674.1900916,0.03052,3.92182,1.1445,0.54406599,-0.7235699250000001,-0.440611665
1764435674.1900916,0.03052,3.92182,1.1445,0.54406599,-0.7235699250000001,-0.440611665
1764435674.1911137,0.03052,3.92182,1.1445,0.54406599,-0.7235699250000001,-0.440611665
1764435674.1911137,0.03052,3.92182,1.1445,0.54406599,-0.7235699250000001,-0.440611665
1764435674.1911137,0.03052,3.92182,1.1445,0.54406599,-0.7235699250000001,-0.440611665
1764435674.1911137,0.03052,3.92182,1.1445,0.54406599,-0.7235699250000001,-0.440611665
1764435674.1911137,0.03052,3.92182,1.1445,0.54406599,-0.7235699250000001,-0.440611665
1764435674.1911137,0.03052,3.92182,1.1445,0.54406599,-0.7235699250000001,-0.440611665
1764435674.1911137,0.03052,3.92182,1.1445,0.54406599,-0.7235699250000001,-0.440611665
1764435674.1911137,0.03052,3.92182,1.1445,0.54406599,-0.7235699250000001,-0.440611665
1764435674.1911137,0.03052,3.7387,0.77826,0.5444322,-0.723325785,-0.439513035
1764435674.1911137,0.03052,3.7387,0.77826,0.5444322,-0.723325785,-0.439513035
1764435674.1911137,0.03052,3.7387,0.77826,0.5444322,-0.723325785,-0.439513035
1764435674.1911137,0.03052,3.7387,0.77826,0.5444322,-0.723325785,-0.439513035
1764435674.1911137,0.03052,3.7387,0.77826,0.5444322,-0.723325785,-0.439513035
1764435674.1911137,0.03052,3.7387,0.77826,0.5444322,-0.723325785,-0.439513035
1764435674.1911137,0.03052,3.7387,0.77826,0.5444322,-0.723325785,-0.439513035
1764435674.1911137,0.03052,3.7387,0.77826,0.5444322,-0.723325785,-0.439513035
1764435674.2355406,0.03052,3.7387,0.77826,0.5444322,-0.723325785,-0.439513035
1764435674.2361455,0.03052,3.7387,0.77826,0.5444322,-0.723325785,-0.439513035
1764435674.2361455,0.65618,4.22702,0.8698199999999999,0.544371165,-0.722837505,-0.43981821
1764435674.2361455,0.65618,4.22702,0.8698199999999999,0.544371165,-0.722837505,-0.43981821
1764435674.2361455,0.65618,4.22702,0.8698199999999999,0.544371165,-0.722837505,-0.43981821
1764435674.2361455,0.65618,4.22702,0.8698199999999999,0.544371165,-0.722837505,-0.43981821
1764435674.2361455,0.65618,4.22702,0.8698199999999999,0.544371165,-0.722837505,-0.43981821
1764435674.2361455,0.65618,4.22702,0.8698199999999999,0.544371165,-0.722837505,-0.43981821
1764435674.2361455,0.65618,4.22702,0.8698199999999999,0.544371165,-0.722837505,-0.43981821
1764435674.2361455,0.65618,4.22702,0.8698199999999999,0.544371165,-0.722837505,-0.43981821
1764435674.2361455,0.65618,4.22702,0.8698199999999999,0.544371165,-0.722837505,-0.43981821
1764435674.2372143,0.65618,4.22702,0.8698199999999999,0.544371165,-0.722837505,-0.43981821
1764435674.2387197,0.93086,4.39488,0.85456,0.544371165,-0.7230206100000001,-0.439757175
1764435674.2387197,0.93086,4.39488,0.85456,0.544371165,-0.7230206100000001,-0.439757175
1764435674.2387197,0.93086,4.39488,0.85456,0.544371165,-0.7230206100000001,-0.439757175
1764435674.2387197,0.93086,4.39488,0.85456,0.544371165,-0.7230206100000001,-0.439757175
1764435674.2387197,0.93086,4.39488,0.85456,0.544371165,-0.7230206100000001,-0.439757175
1764435674.2387197,0.93086,4.39488,0.85456,0.544371165,-0.7230206100000001,-0.439757175
1764435674.2387197,0.93086,4.39488,0.85456,0.544371165,-0.7230206100000001,-0.439757175
1764435674.2387197,0.93086,4.39488,0.85456,0.544371165,-0.7230206100000001,-0.439757175
1764435674.2387197,0.93086,4.39488,0.85456,0.544371165,-0.7230206100000001,-0.439757175
1764435674.2387197,0.93086,4.39488,0.85456,0.544371165,-0.7230206100000001,-0.439757175
1764435674.2387197,0.93086,4.24228,0.65618,0.544127025,-0.72326475,-0.43957407
1764435674.2387197,0.93086,4.24228,0.65618,0.544127025,-0.72326475,-0.43957407
1764435674.2820382,0.93086,4.24228,0.65618,0.544127025,-0.72326475,-0.43957407
1764435674.2827225,0.93086,4.24228,0.65618,0.544127025,-0.72326475,-0.43957407
1764435674.2827225,0.93086,4.24228,0.65618,0.544127025,-0.72326475,-0.43957407
1764435674.2827225,0.93086,4.24228,0.65618,0.544127025,-0.72326475,-0.43957407
1764435674.2827225,0.93086,4.24228,0.65618,0.544127025,-0.72326475,-0.43957407
1764435674.2827225,0.93086,4.24228,0.65618,0.544127025,-0.72326475,-0.43957407
1764435674.2827225,0.93086,4.24228,0.65618,0.544127025,-0.72326475,-0.43957407
1764435674.2827225,0.93086,4.24228,0.65618,0.544127025,-0.72326475,-0.43957407
1764435674.2827225,0.54936,4.47118,0.79352,0.544127025,-0.723814065,-0.439757175
1764435674.2827225,0.54936,4.47118,0.79352,0.544127025,-0.723814065,-0.439757175
1764435674.2827225,0.54936,4.47118,0.79352,0.544127025,-0.723814065,-0.439757175
1764435674.2827225,0.54936,4.47118,0.79352,0.544127025,-0.723814065,-0.439757175
1764435674.285272,0.54936,4.47118,0.79352,0.544127025,-0.723814065,-0.439757175
1764435674.285272,0.54936,4.47118,0.79352,0.544127025,-0.723814065,-0.439757175
1764435674.285272,0.54936,4.47118,0.79352,0.544127025,-0.723814065,-0.439757175
1764435674.285272,0.54936,4.47118,0.79352,0.544127025,-0.723814065,-0.439757175
1764435674.285272,0.54936,4.47118,0.79352,0.544127025,-0.723814065,-0.439757175
1764435674.285272,0.54936,4.47118,0.79352,0.544127025,-0.723814065,-0.439757175
1764435674.285272,0.62566,4.02864,1.09872,0.544249095,-0.72497373,-0.43932993
1764435674.285272,0.62566,4.02864,1.09872,0.544249095,-0.72497373,-0.43932993
1764435674.285272,0.62566,4.02864,1.09872,0.544249095,-0.72497373,-0.43932993
1764435674.285272,0.62566,4.02864,1.09872,0.544249095,-0.72497373,-0.43932993
1764435674.2857928,0.62566,4.02864,1.09872,0.544249095,-0.72497373,-0.43932993
1764435674.2857928,0.62566,4.02864,1.09872,0.544249095,-0.72497373,-0.43932993
1764435674.3290482,0.62566,4.02864,1.09872,0.544249095,-0.72497373,-0.43932993
1764435674.3290482,0.62566,4.02864,1.09872,0.544249095,-0.72497373,-0.43932993
1764435674.3290482,0.62566,4.02864,1.09872,0.544249095,-0.72497373,-0.43932993
1764435674.3290482,0.62566,4.02864,1.09872,0.544249095,-0.72497373,-0.43932993
1764435674.3290482,0.13734,3.93708,1.05294,0.54394392,-0.72436338,-0.43908579
1764435674.3290482,0.13734,3.93708,1.05294,0.54394392,-0.72436338,-0.43908579
1764435674.3306868,0.13734,3.93708,1.05294,0.54394392,-0.72436338,-0.43908579
1764435674.3306868,0.13734,3.93708,1.05294,0.54394392,-0.72436338,-0.43908579
1764435674.3306868,0.13734,3.93708,1.05294,0.54394392,-0.72436338,-0.43908579
1764435674.3306868,0.13734,3.93708,1.05294,0.54394392,-0.72436338,-0.43908579
1764435674.3306868,0.13734,3.93708,1.05294,0.54394392,-0.72436338,-0.43908579
1764435674.3306868,0.13734,3.93708,1.05294,0.54394392,-0.72436338,-0.43908579
1764435674.3306868,0.13734,3.93708,1.05294,0.54394392,-0.72436338,-0.43908579
1764435674.3306868,0.13734,3.93708,1.05294,0.54394392,-0.72436338,-0.43908579
1764435674.3306868,0.25942,3.95234,0.57988,0.544493235,-0.7240582050000001,-0.438902685
1764435674.3306868,0.25942,3.95234,0.57988,0.544493235,-0.7240582050000001,-0.438902685
1764435674.3306868,0.25942,3.95234,0.57988,0.544493235,-0.7240582050000001,-0.438902685
1764435674.3306868,0.25942,3.95234,0.57988,0.544493235,-0.7240582050000001,-0.438902685
1764435674.3306868,0.25942,3.95234,0.57988,0.544493235,-0.7240582050000001,-0.438902685
1764435674.3306868,0.25942,3.95234,0.57988,0.544493235,-0.7240582050000001,-0.438902685
1764435674.3306868,0.25942,3.95234,0.57988,0.544493235,-0.7240582050000001,-0.438902685
1764435674.3306868,0.25942,3.95234,0.57988,0.544493235,-0.7240582050000001,-0.438902685
1764435674.3306868,0.25942,3.95234,0.57988,0.544493235,-0.7240582050000001,-0.438902685
1764435674.3306868,0.25942,3.95234,0.57988,0.544493235,-0.7240582050000001,-0.438902685
1764435674.3755972,-0.2289,4.33384,0.59514,0.54455427,-0.7246075200000001,-0.43859751
1764435674.3755972,-0.2289,4.33384,0.59514,0.54455427,-0.7246075200000001,-0.43859751
1764435674.3755972,-0.2289,4.33384,0.59514,0.54455427,-0.7246075200000001,-0.43859751
1764435674.3755972,-0.2289,4.33384,0.59514,0.54455427,-0.7246075200000001,-0.43859751
1764435674.3755972,-0.2289,4.33384,0.59514,0.54455427,-0.7246075200000001,-0.43859751
1764435674.3766196,-0.2289,4.33384,0.59514,0.54455427,-0.7246075200000001,-0.43859751
1764435674.3766196,-0.2289,4.33384,0.59514,0.54455427,-0.7246075200000001,-0.43859751
1764435674.3766196,-0.2289,4.33384,0.59514,0.54455427,-0.7246075200000001,-0.43859751
1764435674.3766196,-0.2289,4.33384,0.59514,0.54455427,-0.7246075200000001,-0.43859751
1764435674.3766196,-0.2289,4.33384,0.59514,0.54455427,-0.7246075200000001,-0.43859751
1764435674.3766196,-0.01526,3.90656,0.82404,0.544371165,-0.724912695,-0.4382313
1764435674.3766196,-0.01526,3.90656,0.82404,0.544371165,-0.724912695,-0.4382313
1764435674.3766196,-0.01526,3.90656,0.82404,0.544371165,-0.724912695,-0.4382313
1764435674.3766196,-0.01526,3.90656,0.82404,0.544371165,-0.724912695,-0.4382313
1764435674.3766196,-0.01526,3.90656,0.82404,0.544371165,-0.724912695,-0.4382313
1764435674.3766196,-0.01526,3.90656,0.82404,0.544371165,-0.724912695,-0.4382313
1764435674.3766196,-0.01526,3.90656,0.82404,0.544371165,-0.724912695,-0.4382313
1764435674.3766196,-0.01526,3.90656,0.82404,0.544371165,-0.724912695,-0.4382313
1764435674.3766196,-0.01526,3.90656,0.82404,0.544371165,-0.724912695,-0.4382313
1764435674.3766196,-0.01526,3.90656,0.82404,0.544371165,-0.724912695,-0.4382313
1764435674.3781404,0.0762999999999999,3.79974,1.11398,0.5443101300000001,-0.72497373,-0.438048195
1764435674.3781404,0.0762999999999999,3.79974,1.11398,0.5443101300000001,-0.72497373,-0.438048195
1764435674.4220142,0.0762999999999999,3.79974,1.11398,0.5443101300000001,-0.72497373,-0.438048195
1764435674.4220142,0.0762999999999999,3.79974,1.11398,0.5443101300000001,-0.72497373,-0.438048195
1764435674.4220142,0.0762999999999999,3.79974,1.11398,0.5443101300000001,-0.72497373,-0.438048195
1764435674.4220142,0.0762999999999999,3.79974,1.11398,0.5443101300000001,-0.72497373,-0.438048195
1764435674.4220142,0.0762999999999999,3.79974,1.11398,0.5443101300000001,-0.72497373,-0.438048195
1764435674.4220142,0.0762999999999999,3.79974,1.11398,0.5443101300000001,-0.72497373,-0.438048195
1764435674.4220142,0.0762999999999999,3.79974,1.11398,0.5443101300000001,-0.72497373,-0.438048195
1764435674.4220142,0.0762999999999999,3.79974,1.11398,0.5443101300000001,-0.72497373,-0.438048195
1764435674.4220142,0.25942,4.1202,0.85456,0.5444322,-0.724668555,-0.43725474
1764435674.4220142,0.25942,4.1202,0.85456,0.5444322,-0.724668555,-0.43725474
1764435674.4220142,0.25942,4.1202,0.85456,0.5444322,-0.724668555,-0.43725474
1764435674.4220142,0.25942,4.1202,0.85456,0.5444322,-0.724668555,-0.43725474
1764435674.4220142,0.25942,4.1202,0.85456,0.5444322,-0.724668555,-0.43725474
1764435674.4220142,0.25942,4.1202,0.85456,0.5444322,-0.724668555,-0.43725474
1764435674.4220142,0.25942,4.1202,0.85456,0.5444322,-0.724668555,-0.43725474
1764435674.4220142,0.25942,4.1202,0.85456,0.5444322,-0.724668555,-0.43725474
1764435674.4220142,0.25942,4.1202,0.85456,0.5444322,-0.724668555,-0.43725474
1764435674.4220142,0.25942,4.1202,0.85456,0.5444322,-0.724668555,-0.43725474
1764435674.4220142,0.2289,4.2728,0.7019599999999999,0.544493235,-0.724790625,-0.4370106
1764435674.4220142,0.2289,4.2728,0.7019599999999999,0.544493235,-0.724790625,-0.4370106
1764435674.4220142,0.2289,4.2728,0.7019599999999999,0.544493235,-0.724790625,-0.4370106
1764435674.4220142,0.2289,4.2728,0.7019599999999999,0.544493235,-0.724790625,-0.4370106
1764435674.4701586,0.2289,4.2728,0.7019599999999999,0.544493235,-0.724790625,-0.4370106
1764435674.4701586,0.2289,4.2728,0.7019599999999999,0.544493235,-0.724790625,-0.4370106
1764435674.4701586,0.2289,4.2728,0.7019599999999999,0.544493235,-0.724790625,-0.4370106
1764435674.4701586,0.2289,4.2728,0.7019599999999999,0.544493235,-0.724790625,-0.4370106
1764435674.4701586,0.2289,4.2728,0.7019599999999999,0.544493235,-0.724790625,-0.4370106
1764435674.4701586,0.2289,4.2728,0.7019599999999999,0.544493235,-0.724790625,-0.4370106
1764435674.4701586,0.3815,4.51696,0.73248,0.54418806,-0.72472959,-0.438170265
1764435674.4701586,0.3815,4.51696,0.73248,0.54418806,-0.72472959,-0.438170265
1764435674.4701586,0.3815,4.51696,0.73248,0.54418806,-0.72472959,-0.438170265
1764435674.4701586,0.3815,4.51696,0.73248,0.54418806,-0.72472959,-0.438170265
1764435674.4701586,0.3815,4.51696,0.73248,0.54418806,-0.72472959,-0.438170265
1764435674.4701586,0.3815,4.51696,0.73248,0.54418806,-0.72472959,-0.438170265
1764435674.4701586,0.3815,4.51696,0.73248,0.54418806,-0.72472959,-0.438170265
1764435674.4701586,0.3815,4.51696,0.73248,0.54418806,-0.72472959,-0.438170265
1764435674.4701586,0.3815,4.51696,0.73248,0.54418806,-0.72472959,-0.438170265
1764435674.4701586,0.3815,4.51696,0.73248,0.54418806,-0.72472959,-0.438170265
1764435674.4701586,0.62566,4.1965,0.82404,0.54418806,-0.72448545,-0.43786509
1764435674.4701586,0.62566,4.1965,0.82404,0.54418806,-0.72448545,-0.43786509
1764435674.4701586,0.62566,4.1965,0.82404,0.54418806,-0.72448545,-0.43786509
1764435674.4701586,0.62566,4.1965,0.82404,0.54418806,-0.72448545,-0.43786509
1764435674.4701586,0.62566,4.1965,0.82404,0.54418806,-0.72448545,-0.43786509
1764435674.4701586,0.62566,4.1965,0.82404,0.54418806,-0.72448545,-0.43786509
1764435674.4701586,0.62566,4.1965,0.82404,0.54418806,-0.72448545,-0.43786509
1764435674.4718564,0.62566,4.1965,0.82404,0.54418806,-0.72448545,-0.43786509
1764435674.5158825,0.62566,4.1965,0.82404,0.54418806,-0.72448545,-0.43786509
1764435674.5158825,0.62566,4.1965,0.82404,0.54418806,-0.72448545,-0.43786509
1764435674.5158825,0.62566,4.0439,0.62566,0.544127025,-0.7250958,-0.43737681
1764435674.5158825,0.62566,4.0439,0.62566,0.544127025,-0.7250958,-0.43737681
1764435674.5158825,0.62566,4.0439,0.62566,0.544127025,-0.7250958,-0.43737681
1764435674.5158825,0.62566,4.0439,0.62566,0.544127025,-0.7250958,-0.43737681
1764435674.5158825,0.62566,4.0439,0.62566,0.544127025,-0.7250958,-0.43737681
1764435674.5158825,0.62566,4.0439,0.62566,0.544127025,-0.7250958,-0.43737681
1764435674.5158825,0.62566,4.0439,0.62566,0.544127025,-0.7250958,-0.43737681
1764435674.5158825,0.62566,4.0439,0.62566,0.544127025,-0.7250958,-0.43737681
1764435674.5158825,0.62566,4.0439,0.62566,0.544127025,-0.7250958,-0.43737681
1764435674.5158825,0.62566,4.0439,0.62566,0.544127025,-0.7250958,-0.43737681
1764435674.5186458,0.44254,4.059159999999999,0.54936,0.54455427,-0.72497373,-0.43688853
1764435674.5186458,0.44254,4.059159999999999,0.54936,0.54455427,-0.72497373,-0.43688853
1764435674.5186458,0.44254,4.059159999999999,0.54936,0.54455427,-0.72497373,-0.43688853
1764435674.5186458,0.44254,4.059159999999999,0.54936,0.54455427,-0.72497373,-0.43688853
1764435674.5186458,0.44254,4.059159999999999,0.54936,0.54455427,-0.72497373,-0.43688853
1764435674.5186458,0.44254,4.059159999999999,0.54936,0.54455427,-0.72497373,-0.43688853
1764435674.5186458,0.44254,4.059159999999999,0.54936,0.54455427,-0.72497373,-0.43688853
1764435674.5186458,0.44254,4.059159999999999,0.54936,0.54455427,-0.72497373,-0.43688853
1764435674.5186458,0.44254,4.059159999999999,0.54936,0.54455427,-0.72497373,-0.43688853
1764435674.5186458,0.44254,4.059159999999999,0.54936,0.54455427,-0.72497373,-0.43688853
1764435674.5186458,-0.47306,3.67766,0.56462,0.54418806,-0.7246075200000001,-0.437071635
1764435674.5186458,-0.47306,3.67766,0.56462,0.54418806,-0.7246075200000001,-0.437071635
1764435674.5640094,-0.47306,3.67766,0.56462,0.54418806,-0.7246075200000001,-0.437071635
1764435674.5640094,-0.47306,3.67766,0.56462,0.54418806,-0.7246075200000001,-0.437071635
1764435674.5640094,-0.47306,3.67766,0.56462,0.54418806,-0.7246075200000001,-0.437071635
1764435674.5650206,-0.47306,3.67766,0.56462,0.54418806,-0.7246075200000001,-0.437071635
1764435674.5650206,-0.47306,3.67766,0.56462,0.54418806,-0.7246075200000001,-0.437071635
1764435674.5650206,-0.47306,3.67766,0.56462,0.54418806,-0.7246075200000001,-0.437071635
1764435674.5650206,-0.47306,3.67766,0.56462,0.54418806,-0.7246075200000001,-0.437071635
1764435674.5650206,-0.47306,3.67766,0.56462,0.54418806,-0.7246075200000001,-0.437071635
1764435674.5650206,-0.27468,3.5098,0.57988,0.544004955,-0.7250958,-0.437804055
1764435674.5650206,-0.27468,3.5098,0.57988,0.544004955,-0.7250958,-0.437804055
1764435674.5650206,-0.27468,3.5098,0.57988,0.544004955,-0.7250958,-0.437804055
1764435674.5650206,-0.27468,3.5098,0.57988,0.544004955,-0.7250958,-0.437804055
1764435674.5650206,-0.27468,3.5098,0.57988,0.544004955,-0.7250958,-0.437804055
1764435674.5650206,-0.27468,3.5098,0.57988,0.544004955,-0.7250958,-0.437804055
1764435674.5650206,-0.27468,3.5098,0.57988,0.544004955,-0.7250958,-0.437804055
1764435674.5650206,-0.27468,3.5098,0.57988,0.544004955,-0.7250958,-0.437804055
1764435674.5650206,-0.27468,3.5098,0.57988,0.544004955,-0.7250958,-0.437804055
1764435674.5650206,-0.27468,3.5098,0.57988,0.544004955,-0.7250958,-0.437804055
1764435674.5650206,-0.3204599999999999,3.93708,1.0682,0.5443101300000001,-0.72485166,-0.437071635
1764435674.5650206,-0.3204599999999999,3.93708,1.0682,0.5443101300000001,-0.72485166,-0.437071635
1764435674.5650206,-0.3204599999999999,3.93708,1.0682,0.5443101300000001,-0.72485166,-0.437071635
1764435674.5650206,-0.3204599999999999,3.93708,1.0682,0.5443101300000001,-0.72485166,-0.437071635
1764435674.5655265,-0.3204599999999999,3.93708,1.0682,0.5443101300000001,-0.72485166,-0.437071635
1764435674.5655265,-0.3204599999999999,3.93708,1.0682,0.5443101300000001,-0.72485166,-0.437071635
1764435674.60879,-0.3204599999999999,3.93708,1.0682,0.5443101300000001,-0.72485166,-0.437071635
1764435674.60879,-0.3204599999999999,3.93708,1.0682,0.5443101300000001,-0.72485166,-0.437071635
1764435674.6093185,-0.3204599999999999,3.93708,1.0682,0.5443101300000001,-0.72485166,-0.437071635
1764435674.6093185,-0.3204599999999999,3.93708,1.0682,0.5443101300000001,-0.72485166,-0.437071635
1764435674.6093185,-0.54936,3.78448,0.44254,0.54369978,-0.725156835,-0.43652232
1764435674.6093185,-0.54936,3.78448,0.44254,0.54369978,-0.725156835,-0.43652232
1764435674.6093185,-0.54936,3.78448,0.44254,0.54369978,-0.725156835,-0.43652232
1764435674.6093185,-0.54936,3.78448,0.44254,0.54369978,-0.725156835,-0.43652232
1764435674.6093185,-0.54936,3.78448,0.44254,0.54369978,-0.725156835,-0.43652232
1764435674.6093185,-0.54936,3.78448,0.44254,0.54369978,-0.725156835,-0.43652232
1764435674.6103263,-0.54936,3.78448,0.44254,0.54369978,-0.725156835,-0.43652232
1764435674.6103263,-0.54936,3.78448,0.44254,0.54369978,-0.725156835,-0.43652232
1764435674.6103263,-0.54936,3.78448,0.44254,0.54369978,-0.725156835,-0.43652232
1764435674.6103263,-0.54936,3.78448,0.44254,0.54369978,-0.725156835,-0.43652232
1764435674.6103263,-0.3204599999999999,3.61662,0.77826,0.544127025,-0.726011325,-0.436217145
1764435674.6103263,-0.3204599999999999,3.61662,0.77826,0.544127025,-0.726011325,-0.436217145
1764435674.6103263,-0.3204599999999999,3.61662,0.77826,0.544127025,-0.726011325,-0.436217145
1764435674.6103263,-0.3204599999999999,3.61662,0.77826,0.544127025,-0.726011325,-0.436217145
1764435674.6103263,-0.3204599999999999,3.61662,0.77826,0.544127025,-0.726011325,-0.436217145
1764435674.6103263,-0.3204599999999999,3.61662,0.77826,0.544127025,-0.726011325,-0.436217145
1764435674.6103263,-0.3204599999999999,3.61662,0.77826,0.544127025,-0.726011325,-0.436217145
1764435674.6103263,-0.3204599999999999,3.61662,0.77826,0.544127025,-0.726011325,-0.436217145
1764435674.6582923,-0.3204599999999999,3.61662,0.77826,0.544127025,-0.726011325,-0.436217145
1764435674.6582923,-0.3204599999999999,3.61662,0.77826,0.544127025,-0.726011325,-0.436217145
1764435674.6582923,-0.19838,3.79974,1.0682,0.54467634,-0.72533994,-0.436217145
1764435674.6582923,-0.19838,3.79974,1.0682,0.54467634,-0.72533994,-0.436217145
1764435674.6582923,-0.19838,3.79974,1.0682,0.54467634,-0.72533994,-0.436217145
1764435674.6582923,-0.19838,3.79974,1.0682,0.54467634,-0.72533994,-0.436217145
1764435674.6582923,-0.19838,3.79974,1.0682,0.54467634,-0.72533994,-0.436217145
1764435674.6582923,-0.19838,3.79974,1.0682,0.54467634,-0.72533994,-0.436217145
1764435674.6593058,-0.19838,3.79974,1.0682,0.54467634,-0.72533994,-0.436217145
1764435674.6593058,-0.19838,3.79974,1.0682,0.54467634,-0.72533994,-0.436217145
1764435674.6593058,-0.19838,3.79974,1.0682,0.54467634,-0.72533994,-0.436217145
1764435674.6593058,-0.19838,3.79974,1.0682,0.54467634,-0.72533994,-0.436217145
1764435674.6593058,0.0,3.98286,0.56462,0.54528669,-0.725278905,-0.436339215
1764435674.6593058,0.0,3.98286,0.56462,0.54528669,-0.725278905,-0.436339215
1764435674.6593058,0.0,3.98286,0.56462,0.54528669,-0.725278905,-0.436339215
1764435674.6593058,0.0,3.98286,0.56462,0.54528669,-0.725278905,-0.436339215
1764435674.6593058,0.0,3.98286,0.56462,0.54528669,-0.725278905,-0.436339215
1764435674.6593058,0.0,3.98286,0.56462,0.54528669,-0.725278905,-0.436339215
1764435674.6593058,0.0,3.98286,0.56462,0.54528669,-0.725278905,-0.436339215
1764435674.6593058,0.0,3.98286,0.56462,0.54528669,-0.725278905,-0.436339215
1764435674.6593058,0.0,3.98286,0.56462,0.54528669,-0.725278905,-0.436339215
1764435674.6593058,0.0,3.98286,0.56462,0.54528669,-0.725278905,-0.436339215
1764435674.6593058,0.06104,3.8913,0.36624,0.54455427,-0.72533994,-0.436339215
1764435674.6593058,0.06104,3.8913,0.36624,0.54455427,-0.72533994,-0.436339215
1764435674.7032404,0.06104,3.8913,0.36624,0.54455427,-0.72533994,-0.436339215
1764435674.7037463,0.06104,3.8913,0.36624,0.54455427,-0.72533994,-0.436339215
1764435674.7037463,0.06104,3.8913,0.36624,0.54455427,-0.72533994,-0.436339215
1764435674.7037463,0.06104,3.8913,0.36624,0.54455427,-0.72533994,-0.436339215
1764435674.7037463,0.06104,3.8913,0.36624,0.54455427,-0.72533994,-0.436339215
1764435674.7037463,0.06104,3.8913,0.36624,0.54455427,-0.72533994,-0.436339215
1764435674.7037463,0.06104,3.8913,0.36624,0.54455427,-0.72533994,-0.436339215
1764435674.7037463,0.06104,3.8913,0.36624,0.54455427,-0.72533994,-0.436339215
1764435674.7037463,0.3509799999999999,3.6624,0.93086,0.544127025,-0.725156835,-0.436217145
1764435674.7037463,0.3509799999999999,3.6624,0.93086,0.544127025,-0.725156835,-0.436217145
1764435674.7037463,0.3509799999999999,3.6624,0.93086,0.544127025,-0.725156835,-0.436217145
1764435674.7037463,0.3509799999999999,3.6624,0.93086,0.544127025,-0.725156835,-0.436217145
1764435674.7037463,0.3509799999999999,3.6624,0.93086,0.544127025,-0.725156835,-0.436217145
1764435674.7037463,0.3509799999999999,3.6624,0.93086,0.544127025,-0.725156835,-0.436217145
1764435674.705894,0.3509799999999999,3.6624,0.93086,0.544127025,-0.725156835,-0.436217145
1764435674.705894,0.3509799999999999,3.6624,0.93086,0.544127025,-0.725156835,-0.436217145
1764435674.705894,0.3509799999999999,3.6624,0.93086,0.544127025,-0.725156835,-0.436217145
1764435674.705894,0.3509799999999999,3.6624,0.93086,0.544127025,-0.725156835,-0.436217145
1764435674.705894,-0.12208,3.87604,0.763,0.54369978,-0.72558408,-0.43591197
1764435674.705894,-0.12208,3.87604,0.763,0.54369978,-0.72558408,-0.43591197
1764435674.705894,-0.12208,3.87604,0.763,0.54369978,-0.72558408,-0.43591197
1764435674.705894,-0.12208,3.87604,0.763,0.54369978,-0.72558408,-0.43591197
1764435674.705894,-0.12208,3.87604,0.763,0.54369978,-0.72558408,-0.43591197
1764435674.705894,-0.12208,3.87604,0.763,0.54369978,-0.72558408,-0.43591197
1764435674.7492428,-0.12208,3.87604,0.763,0.54369978,-0.72558408,-0.43591197
1764435674.7492428,-0.12208,3.87604,0.763,0.54369978,-0.72558408,-0.43591197
1764435674.7492428,-0.12208,3.87604,0.763,0.54369978,-0.72558408,-0.43591197
1764435674.7492428,-0.12208,3.87604,0.763,0.54369978,-0.72558408,-0.43591197
1764435674.7492428,-0.3509799999999999,4.07442,0.8698199999999999,0.54394392,-0.72546201,-0.436217145
1764435674.7492428,-0.3509799999999999,4.07442,0.8698199999999999,0.54394392,-0.72546201,-0.436217145
1764435674.7492428,-0.3509799999999999,4.07442,0.8698199999999999,0.54394392,-0.72546201,-0.436217145
1764435674.7492428,-0.3509799999999999,4.07442,0.8698199999999999,0.54394392,-0.72546201,-0.436217145
1764435674.7492428,-0.3509799999999999,4.07442,0.8698199999999999,0.54394392,-0.72546201,-0.436217145
1764435674.7492428,-0.3509799999999999,4.07442,0.8698199999999999,0.54394392,-0.72546201,-0.436217145
1764435674.7492428,-0.3509799999999999,4.07442,0.8698199999999999,0.54394392,-0.72546201,-0.436217145
1764435674.7492428,-0.3509799999999999,4.07442,0.8698199999999999,0.54394392,-0.72546201,-0.436217145
1764435674.7492428,-0.3509799999999999,4.07442,0.8698199999999999,0.54394392,-0.72546201,-0.436217145
1764435674.7492428,-0.3509799999999999,4.07442,0.8698199999999999,0.54394392,-0.72546201,-0.436217145
1764435674.7492428,-0.18312,3.95234,0.59514,0.54382185,-0.72546201,-0.436461285
1764435674.7492428,-0.18312,3.95234,0.59514,0.54382185,-0.72546201,-0.436461285
1764435674.7492428,-0.18312,3.95234,0.59514,0.54382185,-0.72546201,-0.436461285
1764435674.7492428,-0.18312,3.95234,0.59514,0.54382185,-0.72546201,-0.436461285
1764435674.7502556,-0.18312,3.95234,0.59514,0.54382185,-0.72546201,-0.436461285
1764435674.7502556,-0.18312,3.95234,0.59514,0.54382185,-0.72546201,-0.436461285
1764435674.7502556,-0.18312,3.95234,0.59514,0.54382185,-0.72546201,-0.436461285
1764435674.7502556,-0.18312,3.95234,0.59514,0.54382185,-0.72546201,-0.436461285
1764435674.7990646,-0.18312,3.95234,0.59514,0.54382185,-0.72546201,-0.436461285
1764435674.7990646,-0.18312,3.95234,0.59514,0.54382185,-0.72546201,-0.436461285
1764435674.7990646,-0.44254,3.86078,0.6867,0.543882885,-0.724912695,-0.436949565
1764435674.7990646,-0.44254,3.86078,0.6867,0.543882885,-0.724912695,-0.436949565
1764435674.7990646,-0.44254,3.86078,0.6867,0.543882885,-0.724912695,-0.436949565
1764435674.7990646,-0.44254,3.86078,0.6867,0.543882885,-0.724912695,-0.436949565
1764435674.7990646,-0.44254,3.86078,0.6867,0.543882885,-0.724912695,-0.436949565
1764435674.7990646,-0.44254,3.86078,0.6867,0.543882885,-0.724912695,-0.436949565
1764435674.7990646,-0.44254,3.86078,0.6867,0.543882885,-0.724912695,-0.436949565
1764435674.7990646,-0.44254,3.86078,0.6867,0.543882885,-0.724912695,-0.436949565
1764435674.7990646,-0.44254,3.86078,0.6867,0.543882885,-0.724912695,-0.436949565
1764435674.7990646,-0.44254,3.86078,0.6867,0.543882885,-0.724912695,-0.436949565
1764435674.7990646,-0.48832,3.5098,0.7019599999999999,0.54394392,-0.725523045,-0.43688853
1764435674.7990646,-0.48832,3.5098,0.7019599999999999,0.54394392,-0.725523045,-0.43688853
1764435674.7990646,-0.48832,3.5098,0.7019599999999999,0.54394392,-0.725523045,-0.43688853
1764435674.8005722,-0.48832,3.5098,0.7019599999999999,0.54394392,-0.725523045,-0.43688853
1764435674.8005722,-0.48832,3.5098,0.7019599999999999,0.54394392,-0.725523045,-0.43688853
1764435674.8005722,-0.48832,3.5098,0.7019599999999999,0.54394392,-0.725523045,-0.43688853
1764435674.8005722,-0.48832,3.5098,0.7019599999999999,0.54394392,-0.725523045,-0.43688853
1764435674.8005722,-0.48832,3.5098,0.7019599999999999,0.54394392,-0.725523045,-0.43688853
1764435674.8005722,-0.48832,3.5098,0.7019599999999999,0.54394392,-0.725523045,-0.43688853
1764435674.8005722,-0.48832,3.5098,0.7019599999999999,0.54394392,-0.725523045,-0.43688853
1764435674.8005722,-0.13734,4.21176,0.763,0.54369978,-0.725278905,-0.43640025
1764435674.8005722,-0.13734,4.21176,0.763,0.54369978,-0.725278905,-0.43640025
1764435674.844234,-0.13734,4.21176,0.763,0.54369978,-0.725278905,-0.43640025
1764435674.844234,-0.13734,4.21176,0.763,0.54369978,-0.725278905,-0.43640025
1764435674.844234,-0.13734,4.21176,0.763,0.54369978,-0.725278905,-0.43640025
1764435674.844234,-0.13734,4.21176,0.763,0.54369978,-0.725278905,-0.43640025
1764435674.844234,-0.13734,4.21176,0.763,0.54369978,-0.725278905,-0.43640025
1764435674.844234,-0.13734,4.21176,0.763,0.54369978,-0.725278905,-0.43640025
1764435674.844234,-0.13734,4.21176,0.763,0.54369978,-0.725278905,-0.43640025
1764435674.844234,-0.13734,4.21176,0.763,0.54369978,-0.725278905,-0.43640025
1764435674.844234,-0.42728,4.3491,0.6714399999999999,0.5443101300000001,-0.72533994,-0.43554576
1764435674.844234,-0.42728,4.3491,0.6714399999999999,0.5443101300000001,-0.72533994,-0.43554576
1764435674.844234,-0.42728,4.3491,0.6714399999999999,0.5443101300000001,-0.72533994,-0.43554576
1764435674.844234,-0.42728,4.3491,0.6714399999999999,0.5443101300000001,-0.72533994,-0.43554576
1764435674.844234,-0.42728,4.3491,0.6714399999999999,0.5443101300000001,-0.72533994,-0.43554576
1764435674.844234,-0.42728,4.3491,0.6714399999999999,0.5443101300000001,-0.72533994,-0.43554576
1764435674.844234,-0.42728,4.3491,0.6714399999999999,0.5443101300000001,-0.72533994,-0.43554576
1764435674.844234,-0.42728,4.3491,0.6714399999999999,0.5443101300000001,-0.72533994,-0.43554576
1764435674.844234,-0.42728,4.3491,0.6714399999999999,0.5443101300000001,-0.72533994,-0.43554576
1764435674.844234,-0.42728,4.3491,0.6714399999999999,0.5443101300000001,-0.72533994,-0.43554576
1764435674.844234,-0.3357199999999999,4.16598,1.05294,0.54406599,-0.7261944300000001,-0.435118515
1764435674.844234,-0.3357199999999999,4.16598,1.05294,0.54406599,-0.7261944300000001,-0.435118515
1764435674.844234,-0.3357199999999999,4.16598,1.05294,0.54406599,-0.7261944300000001,-0.435118515
1764435674.844234,-0.3357199999999999,4.16598,1.05294,0.54406599,-0.7261944300000001,-0.435118515
1764435674.888234,-0.3357199999999999,4.16598,1.05294,0.54406599,-0.7261944300000001,-0.435118515
1764435674.888234,-0.3357199999999999,4.16598,1.05294,0.54406599,-0.7261944300000001,-0.435118515
1764435674.888234,-0.3357199999999999,4.16598,1.05294,0.54406599,-0.7261944300000001,-0.435118515
1764435674.888234,-0.3357199999999999,4.16598,1.05294,0.54406599,-0.7261944300000001,-0.435118515
1764435674.888234,-0.3357199999999999,4.16598,1.05294,0.54406599,-0.7261944300000001,-0.435118515
1764435674.888234,-0.3357199999999999,4.16598,1.05294,0.54406599,-0.7261944300000001,-0.435118515
1764435674.888234,-0.71722,4.07442,0.42728,0.54418806,-0.72643857,-0.434996445
1764435674.888234,-0.71722,4.07442,0.42728,0.54418806,-0.72643857,-0.434996445
1764435674.888234,-0.71722,4.07442,0.42728,0.54418806,-0.72643857,-0.434996445
1764435674.888234,-0.71722,4.07442,0.42728,0.54418806,-0.72643857,-0.434996445
1764435674.888234,-0.71722,4.07442,0.42728,0.54418806,-0.72643857,-0.434996445
1764435674.888234,-0.71722,4.07442,0.42728,0.54418806,-0.72643857,-0.434996445
1764435674.888234,-0.71722,4.07442,0.42728,0.54418806,-0.72643857,-0.434996445
1764435674.888234,-0.71722,4.07442,0.42728,0.54418806,-0.72643857,-0.434996445
1764435674.888234,-0.71722,4.07442,0.42728,0.54418806,-0.72643857,-0.434996445
1764435674.888234,-0.71722,4.07442,0.42728,0.54418806,-0.72643857,-0.434996445
1764435674.888234,-0.47306,3.63188,0.51884,0.54553083,-0.726011325,-0.434996445
1764435674.888234,-0.47306,3.63188,0.51884,0.54553083,-0.726011325,-0.434996445
1764435674.888234,-0.47306,3.63188,0.51884,0.54553083,-0.726011325,-0.434996445
1764435674.8892407,-0.47306,3.63188,0.51884,0.54553083,-0.726011325,-0.434996445
1764435674.8892407,-0.47306,3.63188,0.51884,0.54553083,-0.726011325,-0.434996445
1764435674.8892407,-0.47306,3.63188,0.51884,0.54553083,-0.726011325,-0.434996445
1764435674.8892407,-0.47306,3.63188,0.51884,0.54553083,-0.726011325,-0.434996445
1764435674.8892407,-0.47306,3.63188,0.51884,0.54553083,-0.726011325,-0.434996445
1764435674.936665,-0.47306,3.63188,0.51884,0.54553083,-0.726011325,-0.434996445
1764435674.936665,-0.47306,3.63188,0.51884,0.54553083,-0.726011325,-0.434996445
1764435674.936665,-0.6103999999999999,3.72344,0.77826,0.54479841,-0.725400975,-0.434996445
1764435674.936665,-0.6103999999999999,3.72344,0.77826,0.54479841,-0.725400975,-0.434996445
1764435674.936665,-0.6103999999999999,3.72344,0.77826,0.54479841,-0.725400975,-0.434996445
1764435674.936665,-0.6103999999999999,3.72344,0.77826,0.54479841,-0.725400975,-0.434996445
1764435674.9376624,-0.6103999999999999,3.72344,0.77826,0.54479841,-0.725400975,-0.434996445
1764435674.9376624,-0.6103999999999999,3.72344,0.77826,0.54479841,-0.725400975,-0.434996445
1764435674.9376624,-0.6103999999999999,3.72344,0.77826,0.54479841,-0.725400975,-0.434996445
1764435674.9376624,-0.6103999999999999,3.72344,0.77826,0.54479841,-0.725400975,-0.434996445
1764435674.9376624,-0.6103999999999999,3.72344,0.77826,0.54479841,-0.725400975,-0.434996445
1764435674.9376624,-0.6103999999999999,3.72344,0.77826,0.54479841,-0.725400975,-0.434996445
1764435674.9376624,-1.11398,3.55558,0.73248,0.544371165,-0.72570615,-0.43517955
1764435674.9376624,-1.11398,3.55558,0.73248,0.544371165,-0.72570615,-0.43517955
1764435674.9386642,-1.11398,3.55558,0.73248,0.544371165,-0.72570615,-0.43517955
1764435674.9386642,-1.11398,3.55558,0.73248,0.544371165,-0.72570615,-0.43517955
1764435674.9386642,-1.11398,3.55558,0.73248,0.544371165,-0.72570615,-0.43517955
1764435674.9386642,-1.11398,3.55558,0.73248,0.544371165,-0.72570615,-0.43517955
1764435674.9386642,-1.11398,3.55558,0.73248,0.544371165,-0.72570615,-0.43517955
1764435674.9386642,-1.11398,3.55558,0.73248,0.544371165,-0.72570615,-0.43517955
1764435674.9386642,-1.11398,3.55558,0.73248,0.544371165,-0.72570615,-0.43517955
1764435674.9386642,-1.11398,3.55558,0.73248,0.544371165,-0.72570615,-0.43517955
1764435674.9823167,-0.94612,3.84552,0.4578,0.54394392,-0.72546201,-0.435484725
1764435674.9823167,-0.94612,3.84552,0.4578,0.54394392,-0.72546201,-0.435484725
1764435674.9823167,-0.94612,3.84552,0.4578,0.54394392,-0.72546201,-0.435484725
1764435674.9823167,-0.94612,3.84552,0.4578,0.54394392,-0.72546201,-0.435484725
1764435674.9823167,-0.94612,3.84552,0.4578,0.54394392,-0.72546201,-0.435484725
1764435674.9828503,-0.94612,3.84552,0.4578,0.54394392,-0.72546201,-0.435484725
1764435674.9828503,-0.94612,3.84552,0.4578,0.54394392,-0.72546201,-0.435484725
1764435674.9828503,-0.94612,3.84552,0.4578,0.54394392,-0.72546201,-0.435484725
1764435674.9828503,-0.94612,3.84552,0.4578,0.54394392,-0.72546201,-0.435484725
1764435674.9828503,-0.94612,3.84552,0.4578,0.54394392,-0.72546201,-0.435484725
1764435674.9828503,-0.9003399999999999,3.72344,0.42728,0.543760815,-0.724668555,-0.435362655
1764435674.9828503,-0.9003399999999999,3.72344,0.42728,0.543760815,-0.724668555,-0.435362655
1764435674.9828503,-0.9003399999999999,3.72344,0.42728,0.543760815,-0.724668555,-0.435362655
1764435674.9828503,-0.9003399999999999,3.72344,0.42728,0.543760815,-0.724668555,-0.435362655
1764435674.9828503,-0.9003399999999999,3.72344,0.42728,0.543760815,-0.724668555,-0.435362655
1764435674.9828503,-0.9003399999999999,3.72344,0.42728,0.543760815,-0.724668555,-0.435362655
1764435674.9828503,-0.9003399999999999,3.72344,0.42728,0.543760815,-0.724668555,-0.435362655
1764435674.9828503,-0.9003399999999999,3.72344,0.42728,0.543760815,-0.724668555,-0.435362655
1764435674.9828503,-0.9003399999999999,3.72344,0.42728,0.543760815,-0.724668555,-0.435362655
1764435674.9828503,-0.9003399999999999,3.72344,0.42728,0.543760815,-0.724668555,-0.435362655
1764435674.9828503,-0.8087799999999999,3.40298,0.7019599999999999,0.5444322,-0.725523045,-0.43493541
1764435674.9828503,-0.8087799999999999,3.40298,0.7019599999999999,0.5444322,-0.725523045,-0.43493541
1764435674.9828503,-0.8087799999999999,3.40298,0.7019599999999999,0.5444322,-0.725523045,-0.43493541
1764435674.9828503,-0.8087799999999999,3.40298,0.7019599999999999,0.5444322,-0.725523045,-0.43493541
1764435675.0270312,-0.8087799999999999,3.40298,0.7019599999999999,0.5444322,-0.725523045,-0.43493541
1764435675.0270312,-0.8087799999999999,3.40298,0.7019599999999999,0.5444322,-0.725523045,-0.43493541
1764435675.0270312,-0.8087799999999999,3.40298,0.7019599999999999,0.5444322,-0.725523045,-0.43493541
1764435675.0270312,-0.8087799999999999,3.40298,0.7019599999999999,0.5444322,-0.725523045,-0.43493541
1764435675.0270312,-0.8087799999999999,3.40298,0.7019599999999999,0.5444322,-0.725523045,-0.43493541
1764435675.0270312,-0.8087799999999999,3.40298,0.7019599999999999,0.5444322,-0.725523045,-0.43493541
1764435675.0270312,-0.56462,7.79786,0.71722,0.544981515,-0.726011325,-0.435240585
1764435675.0281184,-0.56462,7.79786,0.71722,0.544981515,-0.726011325,-0.435240585
1764435675.0281184,-0.56462,7.79786,0.71722,0.544981515,-0.726011325,-0.435240585
1764435675.0281184,-0.56462,7.79786,0.71722,0.544981515,-0.726011325,-0.435240585
1764435675.0281184,-0.56462,7.79786,0.71722,0.544981515,-0.726011325,-0.435240585
1764435675.0281184,-0.56462,7.79786,0.71722,0.544981515,-0.726011325,-0.435240585
1764435675.0281184,-0.56462,7.79786,0.71722,0.544981515,-0.726011325,-0.435240585
1764435675.0281184,-0.56462,7.79786,0.71722,0.544981515,-0.726011325,-0.435240585
1764435675.0291145,-0.56462,7.79786,0.71722,0.544981515,-0.726011325,-0.435240585
1764435675.0291145,-0.56462,7.79786,0.71722,0.544981515,-0.726011325,-0.435240585
1764435675.0291145,-0.6409199999999999,3.87604,0.8392999999999999,0.544249095,-0.726011325,-0.435118515
1764435675.0291145,-0.6409199999999999,3.87604,0.8392999999999999,0.544249095,-0.726011325,-0.435118515
1764435675.0291145,-0.6409199999999999,3.87604,0.8392999999999999,0.544249095,-0.726011325,-0.435118515
1764435675.0291145,-0.6409199999999999,3.87604,0.8392999999999999,0.544249095,-0.726011325,-0.435118515
1764435675.0291145,-0.6409199999999999,3.87604,0.8392999999999999,0.544249095,-0.726011325,-0.435118515
1764435675.0291145,-0.6409199999999999,3.87604,0.8392999999999999,0.544249095,-0.726011325,-0.435118515
1764435675.0291145,-0.6409199999999999,3.87604,0.8392999999999999,0.544249095,-0.726011325,-0.435118515
1764435675.0291145,-0.6409199999999999,3.87604,0.8392999999999999,0.544249095,-0.726011325,-0.435118515
1764435675.0740523,-0.6409199999999999,3.87604,0.8392999999999999,0.544249095,-0.726011325,-0.435118515
1764435675.0740523,-0.6409199999999999,3.87604,0.8392999999999999,0.544249095,-0.726011325,-0.435118515
1764435675.0740523,-0.56462,4.24228,0.6103999999999999,0.54467634,-0.726133395,-0.43530162
1764435675.0740523,-0.56462,4.24228,0.6103999999999999,0.54467634,-0.726133395,-0.43530162
1764435675.0740523,-0.56462,4.24228,0.6103999999999999,0.54467634,-0.726133395,-0.43530162
1764435675.0740523,-0.56462,4.24228,0.6103999999999999,0.54467634,-0.726133395,-0.43530162
1764435675.0740523,-0.56462,4.24228,0.6103999999999999,0.54467634,-0.726133395,-0.43530162
1764435675.0740523,-0.56462,4.24228,0.6103999999999999,0.54467634,-0.726133395,-0.43530162
1764435675.0740523,-0.56462,4.24228,0.6103999999999999,0.54467634,-0.726133395,-0.43530162
1764435675.0740523,-0.56462,4.24228,0.6103999999999999,0.54467634,-0.726133395,-0.43530162
1764435675.0740523,-0.56462,4.24228,0.6103999999999999,0.54467634,-0.726133395,-0.43530162
1764435675.0756035,-0.56462,4.24228,0.6103999999999999,0.54467634,-0.726133395,-0.43530162
1764435675.0756035,-0.51884,4.13546,0.56462,0.544371165,-0.726011325,-0.43469127
1764435675.0756035,-0.51884,4.13546,0.56462,0.544371165,-0.726011325,-0.43469127
1764435675.0756035,-0.51884,4.13546,0.56462,0.544371165,-0.726011325,-0.43469127
1764435675.0756035,-0.51884,4.13546,0.56462,0.544371165,-0.726011325,-0.43469127
1764435675.0756035,-0.51884,4.13546,0.56462,0.544371165,-0.726011325,-0.43469127
1764435675.0756035,-0.51884,4.13546,0.56462,0.544371165,-0.726011325,-0.43469127
1764435675.0756035,-0.51884,4.13546,0.56462,0.544371165,-0.726011325,-0.43469127
1764435675.0756035,-0.51884,4.13546,0.56462,0.544371165,-0.726011325,-0.43469127
1764435675.0756035,-0.51884,4.13546,0.56462,0.544371165,-0.726011325,-0.43469127
1764435675.0756035,-0.51884,4.13546,0.56462,0.544371165,-0.726011325,-0.43469127
1764435675.0756035,-0.56462,3.70818,0.5341,0.5444322,-0.7256451150000001,-0.434996445
1764435675.0756035,-0.56462,3.70818,0.5341,0.5444322,-0.7256451150000001,-0.434996445
1764435675.12245,-0.56462,3.70818,0.5341,0.5444322,-0.7256451150000001,-0.434996445
1764435675.12245,-0.56462,3.70818,0.5341,0.5444322,-0.7256451150000001,-0.434996445
1764435675.12245,-0.56462,3.70818,0.5341,0.5444322,-0.7256451150000001,-0.434996445
1764435675.12245,-0.56462,3.70818,0.5341,0.5444322,-0.7256451150000001,-0.434996445
1764435675.12245,-0.56462,3.70818,0.5341,0.5444322,-0.7256451150000001,-0.434996445
1764435675.12245,-0.56462,3.70818,0.5341,0.5444322,-0.7256451150000001,-0.434996445
1764435675.125153,-0.56462,3.70818,0.5341,0.5444322,-0.7256451150000001,-0.434996445
1764435675.125153,-0.56462,3.70818,0.5341,0.5444322,-0.7256451150000001,-0.434996445
1764435675.125153,-0.97664,3.69292,0.56462,0.54455427,-0.72582822,-0.435606795
1764435675.125153,-0.97664,3.69292,0.56462,0.54455427,-0.72582822,-0.435606795
1764435675.125153,-0.97664,3.69292,0.56462,0.54455427,-0.72582822,-0.435606795
1764435675.125153,-0.97664,3.69292,0.56462,0.54455427,-0.72582822,-0.435606795
1764435675.125153,-0.97664,3.69292,0.56462,0.54455427,-0.72582822,-0.435606795
1764435675.125153,-0.97664,3.69292,0.56462,0.54455427,-0.72582822,-0.435606795
1764435675.125153,-0.97664,3.69292,0.56462,0.54455427,-0.72582822,-0.435606795
1764435675.125153,-0.97664,3.69292,0.56462,0.54455427,-0.72582822,-0.435606795
1764435675.125153,-0.97664,3.69292,0.56462,0.54455427,-0.72582822,-0.435606795
1764435675.125153,-0.97664,3.69292,0.56462,0.54455427,-0.72582822,-0.435606795
1764435675.1261487,-1.34288,3.5861,0.85456,0.544127025,-0.72643857,-0.435728865
1764435675.1261487,-1.34288,3.5861,0.85456,0.544127025,-0.72643857,-0.435728865
1764435675.1261487,-1.34288,3.5861,0.85456,0.544127025,-0.72643857,-0.435728865
1764435675.1261487,-1.34288,3.5861,0.85456,0.544127025,-0.72643857,-0.435728865
1764435675.1261487,-1.34288,3.5861,0.85456,0.544127025,-0.72643857,-0.435728865
1764435675.1261487,-1.34288,3.5861,0.85456,0.544127025,-0.72643857,-0.435728865
1764435675.1710117,-1.34288,3.5861,0.85456,0.544127025,-0.72643857,-0.435728865
1764435675.1710117,-1.34288,3.5861,0.85456,0.544127025,-0.72643857,-0.435728865
1764435675.1710117,-1.34288,3.5861,0.85456,0.544127025,-0.72643857,-0.435728865
1764435675.1710117,-1.34288,3.5861,0.85456,0.544127025,-0.72643857,-0.435728865
1764435675.1710117,-1.35814,3.69292,0.8087799999999999,0.54369978,-0.72607236,-0.435850935
1764435675.1720223,-1.35814,3.69292,0.8087799999999999,0.54369978,-0.72607236,-0.435850935
1764435675.1720223,-1.35814,3.69292,0.8087799999999999,0.54369978,-0.72607236,-0.435850935
1764435675.1720223,-1.35814,3.69292,0.8087799999999999,0.54369978,-0.72607236,-0.435850935
1764435675.1720223,-1.35814,3.69292,0.8087799999999999,0.54369978,-0.72607236,-0.435850935
1764435675.1720223,-1.35814,3.69292,0.8087799999999999,0.54369978,-0.72607236,-0.435850935
1764435675.1720223,-1.35814,3.69292,0.8087799999999999,0.54369978,-0.72607236,-0.435850935
1764435675.1720223,-1.35814,3.69292,0.8087799999999999,0.54369978,-0.72607236,-0.435850935
1764435675.1720223,-1.35814,3.69292,0.8087799999999999,0.54369978,-0.72607236,-0.435850935
1764435675.1720223,-1.35814,3.69292,0.8087799999999999,0.54369978,-0.72607236,-0.435850935
1764435675.1720223,-0.96138,4.02864,0.8087799999999999,0.544737375,-0.7256451150000001,-0.435240585
1764435675.1720223,-0.96138,4.02864,0.8087799999999999,0.544737375,-0.7256451150000001,-0.435240585
1764435675.1720223,-0.96138,4.02864,0.8087799999999999,0.544737375,-0.7256451150000001,-0.435240585
1764435675.1720223,-0.96138,4.02864,0.8087799999999999,0.544737375,-0.7256451150000001,-0.435240585
1764435675.1720223,-0.96138,4.02864,0.8087799999999999,0.544737375,-0.7256451150000001,-0.435240585
1764435675.1720223,-0.96138,4.02864,0.8087799999999999,0.544737375,-0.7256451150000001,-0.435240585
1764435675.1720223,-0.96138,4.02864,0.8087799999999999,0.544737375,-0.7256451150000001,-0.435240585
1764435675.1720223,-0.96138,4.02864,0.8087799999999999,0.544737375,-0.7256451150000001,-0.435240585
1764435675.2191672,-0.96138,4.02864,0.8087799999999999,0.544737375,-0.7256451150000001,-0.435240585
1764435675.2191672,-0.96138,4.02864,0.8087799999999999,0.544737375,-0.7256451150000001,-0.435240585
1764435675.2191672,-0.8698199999999999,3.93708,0.9919,0.54504255,-0.72582822,-0.434874375
1764435675.2191672,-0.8698199999999999,3.93708,0.9919,0.54504255,-0.72582822,-0.434874375
1764435675.2191672,-0.8698199999999999,3.93708,0.9919,0.54504255,-0.72582822,-0.434874375
1764435675.2191672,-0.8698199999999999,3.93708,0.9919,0.54504255,-0.72582822,-0.434874375
1764435675.221079,-0.8698199999999999,3.93708,0.9919,0.54504255,-0.72582822,-0.434874375
1764435675.221079,-0.8698199999999999,3.93708,0.9919,0.54504255,-0.72582822,-0.434874375
1764435675.221079,-0.8698199999999999,3.93708,0.9919,0.54504255,-0.72582822,-0.434874375
1764435675.221079,-0.8698199999999999,3.93708,0.9919,0.54504255,-0.72582822,-0.434874375
1764435675.221079,-0.8698199999999999,3.93708,0.9919,0.54504255,-0.72582822,-0.434874375
1764435675.221079,-0.8698199999999999,3.93708,0.9919,0.54504255,-0.72582822,-0.434874375
1764435675.221079,-0.73248,4.059159999999999,0.54936,0.545469795,-0.725889255,-0.43517955
1764435675.221079,-0.73248,4.059159999999999,0.54936,0.545469795,-0.725889255,-0.43517955
1764435675.221079,-0.73248,4.059159999999999,0.54936,0.545469795,-0.725889255,-0.43517955
1764435675.221079,-0.73248,4.059159999999999,0.54936,0.545469795,-0.725889255,-0.43517955
1764435675.221079,-0.73248,4.059159999999999,0.54936,0.545469795,-0.725889255,-0.43517955
1764435675.221079,-0.73248,4.059159999999999,0.54936,0.545469795,-0.725889255,-0.43517955
1764435675.221079,-0.73248,4.059159999999999,0.54936,0.545469795,-0.725889255,-0.43517955
1764435675.221079,-0.73248,4.059159999999999,0.54936,0.545469795,-0.725889255,-0.43517955
1764435675.221079,-0.73248,4.059159999999999,0.54936,0.545469795,-0.725889255,-0.43517955
1764435675.221079,-0.73248,4.059159999999999,0.54936,0.545469795,-0.725889255,-0.43517955
1764435675.221079,-0.56462,3.9676,0.56462,0.54504255,-0.72558408,-0.43530162
1764435675.221079,-0.56462,3.9676,0.56462,0.54504255,-0.72558408,-0.43530162
1764435675.266322,-0.56462,3.9676,0.56462,0.54504255,-0.72558408,-0.43530162
1764435675.2667391,-0.56462,3.9676,0.56462,0.54504255,-0.72558408,-0.43530162
1764435675.2667391,-0.56462,3.9676,0.56462,0.54504255,-0.72558408,-0.43530162
1764435675.2667391,-0.56462,3.9676,0.56462,0.54504255,-0.72558408,-0.43530162
1764435675.2667391,-0.56462,3.9676,0.56462,0.54504255,-0.72558408,-0.43530162
1764435675.26732,-0.56462,3.9676,0.56462,0.54504255,-0.72558408,-0.43530162
1764435675.26732,-0.56462,3.9676,0.56462,0.54504255,-0.72558408,-0.43530162
1764435675.26732,-0.56462,3.9676,0.56462,0.54504255,-0.72558408,-0.43530162
1764435675.26732,-0.47306,3.70818,0.6103999999999999,0.54540876,-0.7261944300000001,-0.43591197
1764435675.26732,-0.47306,3.70818,0.6103999999999999,0.54540876,-0.7261944300000001,-0.43591197
1764435675.26732,-0.47306,3.70818,0.6103999999999999,0.54540876,-0.7261944300000001,-0.43591197
1764435675.26732,-0.47306,3.70818,0.6103999999999999,0.54540876,-0.7261944300000001,-0.43591197
1764435675.2683249,-0.47306,3.70818,0.6103999999999999,0.54540876,-0.7261944300000001,-0.43591197
1764435675.2683249,-0.47306,3.70818,0.6103999999999999,0.54540876,-0.7261944300000001,-0.43591197
1764435675.2683249,-0.47306,3.70818,0.6103999999999999,0.54540876,-0.7261944300000001,-0.43591197
1764435675.2683249,-0.47306,3.70818,0.6103999999999999,0.54540876,-0.7261944300000001,-0.43591197
1764435675.2683249,-0.47306,3.70818,0.6103999999999999,0.54540876,-0.7261944300000001,-0.43591197
1764435675.2683249,-0.47306,3.70818,0.6103999999999999,0.54540876,-0.7261944300000001,-0.43591197
1764435675.2683249,-0.19838,4.01338,0.6409199999999999,0.544371165,-0.72595029,-0.435362655
1764435675.2683249,-0.19838,4.01338,0.6409199999999999,0.544371165,-0.72595029,-0.435362655
1764435675.2683249,-0.19838,4.01338,0.6409199999999999,0.544371165,-0.72595029,-0.435362655
1764435675.2683249,-0.19838,4.01338,0.6409199999999999,0.544371165,-0.72595029,-0.435362655
1764435675.2683249,-0.19838,4.01338,0.6409199999999999,0.544371165,-0.72595029,-0.435362655
1764435675.2683249,-0.19838,4.01338,0.6409199999999999,0.544371165,-0.72595029,-0.435362655
1764435675.3127875,-0.19838,4.01338,0.6409199999999999,0.544371165,-0.72595029,-0.435362655
1764435675.3127875,-0.19838,4.01338,0.6409199999999999,0.544371165,-0.72595029,-0.435362655
1764435675.3127875,-0.19838,4.01338,0.6409199999999999,0.544371165,-0.72595029,-0.435362655
1764435675.3127875,-0.19838,4.01338,0.6409199999999999,0.544371165,-0.72595029,-0.435362655
1764435675.3137996,-0.42728,3.5861,0.65618,0.544127025,-0.727109955,-0.43505748
1764435675.3137996,-0.42728,3.5861,0.65618,0.544127025,-0.727109955,-0.43505748
1764435675.3137996,-0.42728,3.5861,0.65618,0.544127025,-0.727109955,-0.43505748
1764435675.3137996,-0.42728,3.5861,0.65618,0.544127025,-0.727109955,-0.43505748
1764435675.3152611,-0.42728,3.5861,0.65618,0.544127025,-0.727109955,-0.43505748
1764435675.3152611,-0.42728,3.5861,0.65618,0.544127025,-0.727109955,-0.43505748
1764435675.3152611,-0.42728,3.5861,0.65618,0.544127025,-0.727109955,-0.43505748
1764435675.3152611,-0.42728,3.5861,0.65618,0.544127025,-0.727109955,-0.43505748
1764435675.315801,-0.42728,3.5861,0.65618,0.544127025,-0.727109955,-0.43505748
1764435675.315801,-0.42728,3.5861,0.65618,0.544127025,-0.727109955,-0.43505748
1764435675.315801,-0.7019599999999999,4.25754,0.6409199999999999,0.5443101300000001,-0.72643857,-0.434630235
1764435675.315801,-0.7019599999999999,4.25754,0.6409199999999999,0.5443101300000001,-0.72643857,-0.434630235
1764435675.315801,-0.7019599999999999,4.25754,0.6409199999999999,0.5443101300000001,-0.72643857,-0.434630235
1764435675.315801,-0.7019599999999999,4.25754,0.6409199999999999,0.5443101300000001,-0.72643857,-0.434630235
1764435675.3168046,-0.7019599999999999,4.25754,0.6409199999999999,0.5443101300000001,-0.72643857,-0.434630235
1764435675.3168046,-0.7019599999999999,4.25754,0.6409199999999999,0.5443101300000001,-0.72643857,-0.434630235
1764435675.3168046,-0.7019599999999999,4.25754,0.6409199999999999,0.5443101300000001,-0.72643857,-0.434630235
1764435675.3168046,-0.7019599999999999,4.25754,0.6409199999999999,0.5443101300000001,-0.72643857,-0.434630235
1764435675.3589427,-0.7019599999999999,4.25754,0.6409199999999999,0.5443101300000001,-0.72643857,-0.434630235
1764435675.3589427,-0.7019599999999999,4.25754,0.6409199999999999,0.5443101300000001,-0.72643857,-0.434630235
1764435675.3589427,-1.0682,4.2728,0.97664,0.544371165,-0.726499605,-0.43505748
1764435675.3589427,-1.0682,4.2728,0.97664,0.544371165,-0.726499605,-0.43505748
1764435675.3589427,-1.0682,4.2728,0.97664,0.544371165,-0.726499605,-0.43505748
1764435675.3589427,-1.0682,4.2728,0.97664,0.544371165,-0.726499605,-0.43505748
1764435675.3589427,-1.0682,4.2728,0.97664,0.544371165,-0.726499605,-0.43505748
1764435675.3589427,-1.0682,4.2728,0.97664,0.544371165,-0.726499605,-0.43505748
1764435675.3604553,-1.0682,4.2728,0.97664,0.544371165,-0.726499605,-0.43505748
1764435675.3614714,-1.0682,4.2728,0.97664,0.544371165,-0.726499605,-0.43505748
1764435675.3614714,-1.0682,4.2728,0.97664,0.544371165,-0.726499605,-0.43505748
1764435675.3614714,-1.0682,4.2728,0.97664,0.544371165,-0.726499605,-0.43505748
1764435675.3614714,-1.17502,3.75396,0.71722,0.5443101300000001,-0.725767185,-0.43505748
1764435675.362478,-1.17502,3.75396,0.71722,0.5443101300000001,-0.725767185,-0.43505748
1764435675.362478,-1.17502,3.75396,0.71722,0.5443101300000001,-0.725767185,-0.43505748
1764435675.362478,-1.17502,3.75396,0.71722,0.5443101300000001,-0.725767185,-0.43505748
1764435675.362478,-1.17502,3.75396,0.71722,0.5443101300000001,-0.725767185,-0.43505748
1764435675.3634915,-1.17502,3.75396,0.71722,0.5443101300000001,-0.725767185,-0.43505748
1764435675.3634915,-1.17502,3.75396,0.71722,0.5443101300000001,-0.725767185,-0.43505748
1764435675.3634915,-1.17502,3.75396,0.71722,0.5443101300000001,-0.725767185,-0.43505748
1764435675.3634915,-1.17502,3.75396,0.71722,0.5443101300000001,-0.725767185,-0.43505748
1764435675.3644917,-1.17502,3.75396,0.71722,0.5443101300000001,-0.725767185,-0.43505748
1764435675.3644917,-1.2055399999999998,3.37246,0.41202,0.544249095,-0.72558408,-0.434874375
1764435675.3654966,-1.2055399999999998,3.37246,0.41202,0.544249095,-0.72558408,-0.434874375
1764435675.407168,-1.2055399999999998,3.37246,0.41202,0.544249095,-0.72558408,-0.434874375
1764435675.407168,-1.2055399999999998,3.37246,0.41202,0.544249095,-0.72558408,-0.434874375
1764435675.407168,-1.2055399999999998,3.37246,0.41202,0.544249095,-0.72558408,-0.434874375
1764435675.407168,-1.2055399999999998,3.37246,0.41202,0.544249095,-0.72558408,-0.434874375
1764435675.407168,-1.2055399999999998,3.37246,0.41202,0.544249095,-0.72558408,-0.434874375
1764435675.407168,-1.2055399999999998,3.37246,0.41202,0.544249095,-0.72558408,-0.434874375
1764435675.407168,-1.2055399999999998,3.37246,0.41202,0.544249095,-0.72558408,-0.434874375
1764435675.407168,-1.2055399999999998,3.37246,0.41202,0.544249095,-0.72558408,-0.434874375
1764435675.407168,-0.6714399999999999,4.059159999999999,0.59514,0.544249095,-0.72607236,-0.434996445
1764435675.407168,-0.6714399999999999,4.059159999999999,0.59514,0.544249095,-0.72607236,-0.434996445
1764435675.407168,-0.6714399999999999,4.059159999999999,0.59514,0.544249095,-0.72607236,-0.434996445
1764435675.407168,-0.6714399999999999,4.059159999999999,0.59514,0.544249095,-0.72607236,-0.434996445
1764435675.407168,-0.6714399999999999,4.059159999999999,0.59514,0.544249095,-0.72607236,-0.434996445
1764435675.408176,-0.6714399999999999,4.059159999999999,0.59514,0.544249095,-0.72607236,-0.434996445
1764435675.408176,-0.6714399999999999,4.059159999999999,0.59514,0.544249095,-0.72607236,-0.434996445
1764435675.408176,-0.6714399999999999,4.059159999999999,0.59514,0.544249095,-0.72607236,-0.434996445
1764435675.408176,-0.6714399999999999,4.059159999999999,0.59514,0.544249095,-0.72607236,-0.434996445
1764435675.408176,-0.6714399999999999,4.059159999999999,0.59514,0.544249095,-0.72607236,-0.434996445
1764435675.4091673,-0.44254,3.76922,0.47306,0.54394392,-0.725889255,-0.43493541
1764435675.4091673,-0.44254,3.76922,0.47306,0.54394392,-0.725889255,-0.43493541
1764435675.4091673,-0.44254,3.76922,0.47306,0.54394392,-0.725889255,-0.43493541
1764435675.4091673,-0.44254,3.76922,0.47306,0.54394392,-0.725889255,-0.43493541
1764435675.4091673,-0.44254,3.76922,0.47306,0.54394392,-0.725889255,-0.43493541
1764435675.4091673,-0.44254,3.76922,0.47306,0.54394392,-0.725889255,-0.43493541
1764435675.4527936,-0.44254,3.76922,0.47306,0.54394392,-0.725889255,-0.43493541
1764435675.4527936,-0.44254,3.76922,0.47306,0.54394392,-0.725889255,-0.43493541
1764435675.4527936,-0.44254,3.76922,0.47306,0.54394392,-0.725889255,-0.43493541
1764435675.4527936,-0.44254,3.76922,0.47306,0.54394392,-0.725889255,-0.43493541
1764435675.4527936,0.0762999999999999,3.8913,0.44254,0.54467634,-0.725889255,-0.435240585
1764435675.4527936,0.0762999999999999,3.8913,0.44254,0.54467634,-0.725889255,-0.435240585
1764435675.4527936,0.0762999999999999,3.8913,0.44254,0.54467634,-0.725889255,-0.435240585
1764435675.4527936,0.0762999999999999,3.8913,0.44254,0.54467634,-0.725889255,-0.435240585
1764435675.4527936,0.0762999999999999,3.8913,0.44254,0.54467634,-0.725889255,-0.435240585
1764435675.4527936,0.0762999999999999,3.8913,0.44254,0.54467634,-0.725889255,-0.435240585
1764435675.4527936,0.0762999999999999,3.8913,0.44254,0.54467634,-0.725889255,-0.435240585
1764435675.4527936,0.0762999999999999,3.8913,0.44254,0.54467634,-0.725889255,-0.435240585
1764435675.4527936,0.0762999999999999,3.8913,0.44254,0.54467634,-0.725889255,-0.435240585
1764435675.4527936,0.0762999999999999,3.8913,0.44254,0.54467634,-0.725889255,-0.435240585
1764435675.4527936,-0.03052,3.9676,0.74774,0.544493235,-0.72558408,-0.434630235
1764435675.4537892,-0.03052,3.9676,0.74774,0.544493235,-0.72558408,-0.434630235
1764435675.4537892,-0.03052,3.9676,0.74774,0.544493235,-0.72558408,-0.434630235
1764435675.4537892,-0.03052,3.9676,0.74774,0.544493235,-0.72558408,-0.434630235
1764435675.4537892,-0.03052,3.9676,0.74774,0.544493235,-0.72558408,-0.434630235
1764435675.4547863,-0.03052,3.9676,0.74774,0.544493235,-0.72558408,-0.434630235
1764435675.4547863,-0.03052,3.9676,0.74774,0.544493235,-0.72558408,-0.434630235
1764435675.4547863,-0.03052,3.9676,0.74774,0.544493235,-0.72558408,-0.434630235
1764435675.4993255,-0.03052,3.9676,0.74774,0.544493235,-0.72558408,-0.434630235
1764435675.500343,-0.03052,3.9676,0.74774,0.544493235,-0.72558408,-0.434630235
1764435675.500343,-0.24416,4.21176,0.79352,0.5443101300000001,-0.725889255,-0.434874375
1764435675.500343,-0.24416,4.21176,0.79352,0.5443101300000001,-0.725889255,-0.434874375
1764435675.500343,-0.24416,4.21176,0.79352,0.5443101300000001,-0.725889255,-0.434874375
1764435675.500343,-0.24416,4.21176,0.79352,0.5443101300000001,-0.725889255,-0.434874375
1764435675.500343,-0.24416,4.21176,0.79352,0.5443101300000001,-0.725889255,-0.434874375
1764435675.500343,-0.24416,4.21176,0.79352,0.5443101300000001,-0.725889255,-0.434874375
1764435675.500343,-0.24416,4.21176,0.79352,0.5443101300000001,-0.725889255,-0.434874375
1764435675.500343,-0.24416,4.21176,0.79352,0.5443101300000001,-0.725889255,-0.434874375
1764435675.500343,-0.24416,4.21176,0.79352,0.5443101300000001,-0.725889255,-0.434874375
1764435675.500343,-0.24416,4.21176,0.79352,0.5443101300000001,-0.725889255,-0.434874375
1764435675.500343,-1.02242,3.76922,0.6714399999999999,0.544493235,-0.725889255,-0.43493541
1764435675.500343,-1.02242,3.76922,0.6714399999999999,0.544493235,-0.725889255,-0.43493541
1764435675.5008554,-1.02242,3.76922,0.6714399999999999,0.544493235,-0.725889255,-0.43493541
1764435675.5008554,-1.02242,3.76922,0.6714399999999999,0.544493235,-0.725889255,-0.43493541
1764435675.5008554,-1.02242,3.76922,0.6714399999999999,0.544493235,-0.725889255,-0.43493541
1764435675.5008554,-1.02242,3.76922,0.6714399999999999,0.544493235,-0.725889255,-0.43493541
1764435675.5008554,-1.02242,3.76922,0.6714399999999999,0.544493235,-0.725889255,-0.43493541
1764435675.5008554,-1.02242,3.76922,0.6714399999999999,0.544493235,-0.725889255,-0.43493541
1764435675.5008554,-1.02242,3.76922,0.6714399999999999,0.544493235,-0.725889255,-0.43493541
1764435675.5008554,-1.02242,3.76922,0.6714399999999999,0.544493235,-0.725889255,-0.43493541
1764435675.5008554,-1.08346,3.78448,0.54936,0.544371165,-0.7256451150000001,-0.43517955
1764435675.5008554,-1.08346,3.78448,0.54936,0.544371165,-0.7256451150000001,-0.43517955
1764435675.5451758,-1.08346,3.78448,0.54936,0.544371165,-0.7256451150000001,-0.43517955
1764435675.5451758,-1.08346,3.78448,0.54936,0.544371165,-0.7256451150000001,-0.43517955
1764435675.5451758,-1.08346,3.78448,0.54936,0.544371165,-0.7256451150000001,-0.43517955
1764435675.5451758,-1.08346,3.78448,0.54936,0.544371165,-0.7256451150000001,-0.43517955
1764435675.5451758,-1.08346,3.78448,0.54936,0.544371165,-0.7256451150000001,-0.43517955
1764435675.5451758,-1.08346,3.78448,0.54936,0.544371165,-0.7256451150000001,-0.43517955
1764435675.5451758,-1.08346,3.78448,0.54936,0.544371165,-0.7256451150000001,-0.43517955
1764435675.5451758,-1.08346,3.78448,0.54936,0.544371165,-0.7256451150000001,-0.43517955
1764435675.5451758,-0.62566,3.67766,0.8392999999999999,0.544737375,-0.72570615,-0.434630235
1764435675.5451758,-0.62566,3.67766,0.8392999999999999,0.544737375,-0.72570615,-0.434630235
1764435675.5451758,-0.62566,3.67766,0.8392999999999999,0.544737375,-0.72570615,-0.434630235
1764435675.5451758,-0.62566,3.67766,0.8392999999999999,0.544737375,-0.72570615,-0.434630235
1764435675.5451758,-0.62566,3.67766,0.8392999999999999,0.544737375,-0.72570615,-0.434630235
1764435675.5451758,-0.62566,3.67766,0.8392999999999999,0.544737375,-0.72570615,-0.434630235
1764435675.5451758,-0.62566,3.67766,0.8392999999999999,0.544737375,-0.72570615,-0.434630235
1764435675.5451758,-0.62566,3.67766,0.8392999999999999,0.544737375,-0.72570615,-0.434630235
1764435675.5461886,-0.62566,3.67766,0.8392999999999999,0.544737375,-0.72570615,-0.434630235
1764435675.5461886,-0.62566,3.67766,0.8392999999999999,0.544737375,-0.72570615,-0.434630235
1764435675.5461886,-1.08346,3.64714,0.3357199999999999,0.54467634,-0.726133395,-0.43554576
1764435675.5461886,-1.08346,3.64714,0.3357199999999999,0.54467634,-0.726133395,-0.43554576
1764435675.5461886,-1.08346,3.64714,0.3357199999999999,0.54467634,-0.726133395,-0.43554576
1764435675.5461886,-1.08346,3.64714,0.3357199999999999,0.54467634,-0.726133395,-0.43554576
1764435675.5893724,-1.08346,3.64714,0.3357199999999999,0.54467634,-0.726133395,-0.43554576
1764435675.5893724,-1.08346,3.64714,0.3357199999999999,0.54467634,-0.726133395,-0.43554576
1764435675.5893724,-1.08346,3.64714,0.3357199999999999,0.54467634,-0.726133395,-0.43554576
1764435675.5893724,-1.08346,3.64714,0.3357199999999999,0.54467634,-0.726133395,-0.43554576
1764435675.5893724,-1.08346,3.64714,0.3357199999999999,0.54467634,-0.726133395,-0.43554576
1764435675.5893724,-1.08346,3.64714,0.3357199999999999,0.54467634,-0.726133395,-0.43554576
1764435675.5893724,-0.96138,3.75396,0.59514,0.54540876,-0.7261944300000001,-0.435973005
1764435675.5893724,-0.96138,3.75396,0.59514,0.54540876,-0.7261944300000001,-0.435973005
1764435675.5893724,-0.96138,3.75396,0.59514,0.54540876,-0.7261944300000001,-0.435973005
1764435675.5893724,-0.96138,3.75396,0.59514,0.54540876,-0.7261944300000001,-0.435973005
1764435675.5893724,-0.96138,3.75396,0.59514,0.54540876,-0.7261944300000001,-0.435973005
1764435675.5893724,-0.96138,3.75396,0.59514,0.54540876,-0.7261944300000001,-0.435973005
1764435675.5905826,-0.96138,3.75396,0.59514,0.54540876,-0.7261944300000001,-0.435973005
1764435675.5905826,-0.96138,3.75396,0.59514,0.54540876,-0.7261944300000001,-0.435973005
1764435675.5911412,-0.96138,3.75396,0.59514,0.54540876,-0.7261944300000001,-0.435973005
1764435675.5911412,-0.96138,3.75396,0.59514,0.54540876,-0.7261944300000001,-0.435973005
1764435675.5911412,-0.82404,4.02864,0.59514,0.5453477250000001,-0.725523045,-0.43566783
1764435675.5911412,-0.82404,4.02864,0.59514,0.5453477250000001,-0.725523045,-0.43566783
1764435675.5911412,-0.82404,4.02864,0.59514,0.5453477250000001,-0.725523045,-0.43566783
1764435675.5911412,-0.82404,4.02864,0.59514,0.5453477250000001,-0.725523045,-0.43566783
1764435675.5911412,-0.82404,4.02864,0.59514,0.5453477250000001,-0.725523045,-0.43566783
1764435675.5911412,-0.82404,4.02864,0.59514,0.5453477250000001,-0.725523045,-0.43566783
1764435675.5911412,-0.82404,4.02864,0.59514,0.5453477250000001,-0.725523045,-0.43566783
1764435675.5911412,-0.82404,4.02864,0.59514,0.5453477250000001,-0.725523045,-0.43566783
1764435675.6370094,-0.82404,4.02864,0.59514,0.5453477250000001,-0.725523045,-0.43566783
1764435675.6370094,-0.82404,4.02864,0.59514,0.5453477250000001,-0.725523045,-0.43566783
1764435675.6370094,-0.48832,3.79974,0.73248,0.545469795,-0.726255465,-0.43493541
1764435675.6370094,-0.48832,3.79974,0.73248,0.545469795,-0.726255465,-0.43493541
1764435675.6370094,-0.48832,3.79974,0.73248,0.545469795,-0.726255465,-0.43493541
1764435675.6370094,-0.48832,3.79974,0.73248,0.545469795,-0.726255465,-0.43493541
1764435675.6370094,-0.48832,3.79974,0.73248,0.545469795,-0.726255465,-0.43493541
1764435675.6370094,-0.48832,3.79974,0.73248,0.545469795,-0.726255465,-0.43493541
1764435675.6370094,-0.48832,3.79974,0.73248,0.545469795,-0.726255465,-0.43493541
1764435675.6370094,-0.48832,3.79974,0.73248,0.545469795,-0.726255465,-0.43493541
1764435675.638011,-0.48832,3.79974,0.73248,0.545469795,-0.726255465,-0.43493541
1764435675.638011,-0.48832,3.79974,0.73248,0.545469795,-0.726255465,-0.43493541
1764435675.638011,-0.6103999999999999,3.60136,0.88508,0.54528669,-0.726011325,-0.43469127
1764435675.638011,-0.6103999999999999,3.60136,0.88508,0.54528669,-0.726011325,-0.43469127
1764435675.6390915,-0.6103999999999999,3.60136,0.88508,0.54528669,-0.726011325,-0.43469127
1764435675.6390915,-0.6103999999999999,3.60136,0.88508,0.54528669,-0.726011325,-0.43469127
1764435675.6390915,-0.6103999999999999,3.60136,0.88508,0.54528669,-0.726011325,-0.43469127
1764435675.6390915,-0.6103999999999999,3.60136,0.88508,0.54528669,-0.726011325,-0.43469127
1764435675.6390915,-0.6103999999999999,3.60136,0.88508,0.54528669,-0.726011325,-0.43469127
1764435675.6390915,-0.6103999999999999,3.60136,0.88508,0.54528669,-0.726011325,-0.43469127
1764435675.6390915,-0.6103999999999999,3.60136,0.88508,0.54528669,-0.726011325,-0.43469127
1764435675.6390915,-0.6103999999999999,3.60136,0.88508,0.54528669,-0.726011325,-0.43469127
1764435675.6390915,-0.65618,3.8913,0.6103999999999999,0.544615305,-0.726377535,-0.43493541
1764435675.6406,-0.65618,3.8913,0.6103999999999999,0.544615305,-0.726377535,-0.43493541
1764435675.6864247,-0.65618,3.8913,0.6103999999999999,0.544615305,-0.726377535,-0.43493541
1764435675.6864247,-0.65618,3.8913,0.6103999999999999,0.544615305,-0.726377535,-0.43493541
1764435675.6864247,-0.65618,3.8913,0.6103999999999999,0.544615305,-0.726377535,-0.43493541
1764435675.6864247,-0.65618,3.8913,0.6103999999999999,0.544615305,-0.726377535,-0.43493541
1764435675.6864247,-0.65618,3.8913,0.6103999999999999,0.544615305,-0.726377535,-0.43493541
1764435675.6864247,-0.65618,3.8913,0.6103999999999999,0.544615305,-0.726377535,-0.43493541
1764435675.6864247,-0.65618,3.8913,0.6103999999999999,0.544615305,-0.726377535,-0.43493541
1764435675.6864247,-0.65618,3.8913,0.6103999999999999,0.544615305,-0.726377535,-0.43493541
1764435675.6864247,-0.01526,0.0,0.56462,0.54467634,-0.726255465,-0.435118515
1764435675.6864247,-0.01526,0.0,0.56462,0.54467634,-0.726255465,-0.435118515
1764435675.6864247,-0.01526,0.0,0.56462,0.54467634,-0.726255465,-0.435118515
1764435675.6864247,-0.01526,0.0,0.56462,0.54467634,-0.726255465,-0.435118515
1764435675.6864247,-0.01526,0.0,0.56462,0.54467634,-0.726255465,-0.435118515
1764435675.6864247,-0.01526,0.0,0.56462,0.54467634,-0.726255465,-0.435118515
1764435675.6864247,-0.01526,0.0,0.56462,0.54467634,-0.726255465,-0.435118515
1764435675.6864247,-0.01526,0.0,0.56462,0.54467634,-0.726255465,-0.435118515
1764435675.6864247,-0.01526,0.0,0.56462,0.54467634,-0.726255465,-0.435118515
1764435675.6864247,-0.01526,0.0,0.56462,0.54467634,-0.726255465,-0.435118515
1764435675.6864247,-0.18312,3.90656,1.0682,0.5444322,-0.725767185,-0.43530162
1764435675.6864247,-0.18312,3.90656,1.0682,0.5444322,-0.725767185,-0.43530162
1764435675.6864247,-0.18312,3.90656,1.0682,0.5444322,-0.725767185,-0.43530162
1764435675.6864247,-0.18312,3.90656,1.0682,0.5444322,-0.725767185,-0.43530162
1764435675.7326045,-0.18312,3.90656,1.0682,0.5444322,-0.725767185,-0.43530162
1764435675.7326045,-0.18312,3.90656,1.0682,0.5444322,-0.725767185,-0.43530162
1764435675.7336216,-0.18312,3.90656,1.0682,0.5444322,-0.725767185,-0.43530162
1764435675.7336216,-0.18312,3.90656,1.0682,0.5444322,-0.725767185,-0.43530162
1764435675.7336216,-0.18312,3.90656,1.0682,0.5444322,-0.725767185,-0.43530162
1764435675.7336216,-0.18312,3.90656,1.0682,0.5444322,-0.725767185,-0.43530162
1764435675.7346203,-0.85456,3.4335,1.12924,0.544004955,-0.72607236,-0.43542369
1764435675.7346203,-0.85456,3.4335,1.12924,0.544004955,-0.72607236,-0.43542369
1764435675.7346203,-0.85456,3.4335,1.12924,0.544004955,-0.72607236,-0.43542369
1764435675.7356155,-0.85456,3.4335,1.12924,0.544004955,-0.72607236,-0.43542369
1764435675.7356155,-0.85456,3.4335,1.12924,0.544004955,-0.72607236,-0.43542369
1764435675.7356155,-0.85456,3.4335,1.12924,0.544004955,-0.72607236,-0.43542369
1764435675.7356155,-0.85456,3.4335,1.12924,0.544004955,-0.72607236,-0.43542369
1764435675.7356155,-0.85456,3.4335,1.12924,0.544004955,-0.72607236,-0.43542369
1764435675.7366984,-0.85456,3.4335,1.12924,0.544004955,-0.72607236,-0.43542369
1764435675.7366984,-0.85456,3.4335,1.12924,0.544004955,-0.72607236,-0.43542369
1764435675.7366984,-1.31236,4.02864,0.71722,0.54406599,-0.72558408,-0.435606795
1764435675.7376962,-1.31236,4.02864,0.71722,0.54406599,-0.72558408,-0.435606795
1764435675.7376962,-1.31236,4.02864,0.71722,0.54406599,-0.72558408,-0.435606795
1764435675.7376962,-1.31236,4.02864,0.71722,0.54406599,-0.72558408,-0.435606795
1764435675.7376962,-1.31236,4.02864,0.71722,0.54406599,-0.72558408,-0.435606795
1764435675.7376962,-1.31236,4.02864,0.71722,0.54406599,-0.72558408,-0.435606795
1764435675.7376962,-1.31236,4.02864,0.71722,0.54406599,-0.72558408,-0.435606795
1764435675.7386975,-1.31236,4.02864,0.71722,0.54406599,-0.72558408,-0.435606795
1764435675.7792811,-1.31236,4.02864,0.71722,0.54406599,-0.72558408,-0.435606795
1764435675.7792811,-1.31236,4.02864,0.71722,0.54406599,-0.72558408,-0.435606795
1764435675.7792811,-1.2971,3.67766,0.56462,0.54406599,-0.726011325,-0.43566783
1764435675.7792811,-1.2971,3.67766,0.56462,0.54406599,-0.726011325,-0.43566783
1764435675.7792811,-1.2971,3.67766,0.56462,0.54406599,-0.726011325,-0.43566783
1764435675.7792811,-1.2971,3.67766,0.56462,0.54406599,-0.726011325,-0.43566783
1764435675.7792811,-1.2971,3.67766,0.56462,0.54406599,-0.726011325,-0.43566783
1764435675.7792811,-1.2971,3.67766,0.56462,0.54406599,-0.726011325,-0.43566783
1764435675.7792811,-1.2971,3.67766,0.56462,0.54406599,-0.726011325,-0.43566783
1764435675.7792811,-1.2971,3.67766,0.56462,0.54406599,-0.726011325,-0.43566783
1764435675.7792811,-1.2971,3.67766,0.56462,0.54406599,-0.726011325,-0.43566783
1764435675.7792811,-1.2971,3.67766,0.56462,0.54406599,-0.726011325,-0.43566783
1764435675.7792811,-1.43444,3.72344,0.9003399999999999,0.54455427,-0.72570615,-0.435850935
1764435675.7792811,-1.43444,3.72344,0.9003399999999999,0.54455427,-0.72570615,-0.435850935
1764435675.7792811,-1.43444,3.72344,0.9003399999999999,0.54455427,-0.72570615,-0.435850935
1764435675.7792811,-1.43444,3.72344,0.9003399999999999,0.54455427,-0.72570615,-0.435850935
1764435675.7792811,-1.43444,3.72344,0.9003399999999999,0.54455427,-0.72570615,-0.435850935
1764435675.7792811,-1.43444,3.72344,0.9003399999999999,0.54455427,-0.72570615,-0.435850935
1764435675.7792811,-1.43444,3.72344,0.9003399999999999,0.54455427,-0.72570615,-0.435850935
1764435675.7792811,-1.43444,3.72344,0.9003399999999999,0.54455427,-0.72570615,-0.435850935
1764435675.7792811,-1.43444,3.72344,0.9003399999999999,0.54455427,-0.72570615,-0.435850935
1764435675.7792811,-1.43444,3.72344,0.9003399999999999,0.54455427,-0.72570615,-0.435850935
1764435675.8229313,-1.46496,3.92182,0.3357199999999999,0.54455427,-0.72533994,-0.434874375
1764435675.8229313,-1.46496,3.92182,0.3357199999999999,0.54455427,-0.72533994,-0.434874375
1764435675.8229313,-1.46496,3.92182,0.3357199999999999,0.54455427,-0.72533994,-0.434874375
1764435675.8229313,-1.46496,3.92182,0.3357199999999999,0.54455427,-0.72533994,-0.434874375
1764435675.8229313,-1.46496,3.92182,0.3357199999999999,0.54455427,-0.72533994,-0.434874375
1764435675.8229313,-1.46496,3.92182,0.3357199999999999,0.54455427,-0.72533994,-0.434874375
1764435675.8229313,-1.46496,3.92182,0.3357199999999999,0.54455427,-0.72533994,-0.434874375
1764435675.8229313,-1.46496,3.92182,0.3357199999999999,0.54455427,-0.72533994,-0.434874375
1764435675.8229313,-1.46496,3.92182,0.3357199999999999,0.54455427,-0.72533994,-0.434874375
1764435675.8229313,-1.46496,3.92182,0.3357199999999999,0.54455427,-0.72533994,-0.434874375
1764435675.8229313,-0.41202,3.69292,0.56462,0.54467634,-0.72582822,-0.434386095
1764435675.8229313,-0.41202,3.69292,0.56462,0.54467634,-0.72582822,-0.434386095
1764435675.8229313,-0.41202,3.69292,0.56462,0.54467634,-0.72582822,-0.434386095
1764435675.8229313,-0.41202,3.69292,0.56462,0.54467634,-0.72582822,-0.434386095
1764435675.8239417,-0.41202,3.69292,0.56462,0.54467634,-0.72582822,-0.434386095
1764435675.8239417,-0.41202,3.69292,0.56462,0.54467634,-0.72582822,-0.434386095
1764435675.8239417,-0.41202,3.69292,0.56462,0.54467634,-0.72582822,-0.434386095
1764435675.8239417,-0.41202,3.69292,0.56462,0.54467634,-0.72582822,-0.434386095
1764435675.8239417,-0.41202,3.69292,0.56462,0.54467634,-0.72582822,-0.434386095
1764435675.8239417,-0.41202,3.69292,0.56462,0.54467634,-0.72582822,-0.434386095
1764435675.8239417,-0.44254,3.83026,0.57988,0.544981515,-0.726499605,-0.43469127
1764435675.8239417,-0.44254,3.83026,0.57988,0.544981515,-0.726499605,-0.43469127
1764435675.8239417,-0.44254,3.83026,0.57988,0.544981515,-0.726499605,-0.43469127
1764435675.8239417,-0.44254,3.83026,0.57988,0.544981515,-0.726499605,-0.43469127
1764435675.8679326,-0.44254,3.83026,0.57988,0.544981515,-0.726499605,-0.43469127
1764435675.8679326,-0.44254,3.83026,0.57988,0.544981515,-0.726499605,-0.43469127
1764435675.8679326,-0.44254,3.83026,0.57988,0.544981515,-0.726499605,-0.43469127
1764435675.8679326,-0.44254,3.83026,0.57988,0.544981515,-0.726499605,-0.43469127
1764435675.8679326,-0.44254,3.83026,0.57988,0.544981515,-0.726499605,-0.43469127
1764435675.8679326,-0.44254,3.83026,0.57988,0.544981515,-0.726499605,-0.43469127
1764435675.8679326,-0.18312,3.75396,0.73248,0.54467634,-0.72607236,-0.4345692
1764435675.8679326,-0.18312,3.75396,0.73248,0.54467634,-0.72607236,-0.4345692
1764435675.8679326,-0.18312,3.75396,0.73248,0.54467634,-0.72607236,-0.4345692
1764435675.86965,-0.18312,3.75396,0.73248,0.54467634,-0.72607236,-0.4345692
1764435675.86965,-0.18312,3.75396,0.73248,0.54467634,-0.72607236,-0.4345692
1764435675.86965,-0.18312,3.75396,0.73248,0.54467634,-0.72607236,-0.4345692
1764435675.86965,-0.18312,3.75396,0.73248,0.54467634,-0.72607236,-0.4345692
1764435675.8706615,-0.18312,3.75396,0.73248,0.54467634,-0.72607236,-0.4345692
1764435675.8706615,-0.18312,3.75396,0.73248,0.54467634,-0.72607236,-0.4345692
1764435675.8706615,-0.18312,3.75396,0.73248,0.54467634,-0.72607236,-0.4345692
1764435675.8706615,-0.18312,3.60136,0.763,0.54504255,-0.7256451150000001,-0.43469127
1764435675.8706615,-0.18312,3.60136,0.763,0.54504255,-0.7256451150000001,-0.43469127
1764435675.8706615,-0.18312,3.60136,0.763,0.54504255,-0.7256451150000001,-0.43469127
1764435675.8706615,-0.18312,3.60136,0.763,0.54504255,-0.7256451150000001,-0.43469127
1764435675.8706615,-0.18312,3.60136,0.763,0.54504255,-0.7256451150000001,-0.43469127
1764435675.8706615,-0.18312,3.60136,0.763,0.54504255,-0.7256451150000001,-0.43469127
1764435675.9132447,-0.18312,3.60136,0.763,0.54504255,-0.7256451150000001,-0.43469127
1764435675.9132447,-0.18312,3.60136,0.763,0.54504255,-0.7256451150000001,-0.43469127
1764435675.9132447,-0.18312,3.60136,0.763,0.54504255,-0.7256451150000001,-0.43469127
1764435675.9132447,-0.18312,3.60136,0.763,0.54504255,-0.7256451150000001,-0.43469127
1764435675.9132447,-0.3509799999999999,3.54032,0.62566,0.54455427,-0.7256451150000001,-0.434996445
1764435675.9132447,-0.3509799999999999,3.54032,0.62566,0.54455427,-0.7256451150000001,-0.434996445
1764435675.9132447,-0.3509799999999999,3.54032,0.62566,0.54455427,-0.7256451150000001,-0.434996445
1764435675.9132447,-0.3509799999999999,3.54032,0.62566,0.54455427,-0.7256451150000001,-0.434996445
1764435675.9132447,-0.3509799999999999,3.54032,0.62566,0.54455427,-0.7256451150000001,-0.434996445
1764435675.9132447,-0.3509799999999999,3.54032,0.62566,0.54455427,-0.7256451150000001,-0.434996445
1764435675.9132447,-0.3509799999999999,3.54032,0.62566,0.54455427,-0.7256451150000001,-0.434996445
1764435675.9132447,-0.3509799999999999,3.54032,0.62566,0.54455427,-0.7256451150000001,-0.434996445
1764435675.9132447,-0.3509799999999999,3.54032,0.62566,0.54455427,-0.7256451150000001,-0.434996445
1764435675.9132447,-0.3509799999999999,3.54032,0.62566,0.54455427,-0.7256451150000001,-0.434996445
1764435675.9132447,-0.3051999999999999,3.15882,0.77826,0.544127025,-0.725400975,-0.43493541
1764435675.9132447,-0.3051999999999999,3.15882,0.77826,0.544127025,-0.725400975,-0.43493541
1764435675.9132447,-0.3051999999999999,3.15882,0.77826,0.544127025,-0.725400975,-0.43493541
1764435675.9132447,-0.3051999999999999,3.15882,0.77826,0.544127025,-0.725400975,-0.43493541
1764435675.9132447,-0.3051999999999999,3.15882,0.77826,0.544127025,-0.725400975,-0.43493541
1764435675.9132447,-0.3051999999999999,3.15882,0.77826,0.544127025,-0.725400975,-0.43493541
1764435675.9132447,-0.3051999999999999,3.15882,0.77826,0.544127025,-0.725400975,-0.43493541
1764435675.9132447,-0.3051999999999999,3.15882,0.77826,0.544127025,-0.725400975,-0.43493541
1764435675.9132447,-0.3051999999999999,3.15882,0.77826,0.544127025,-0.725400975,-0.43493541
1764435675.9132447,-0.3051999999999999,3.15882,0.77826,0.544127025,-0.725400975,-0.43493541
