Timestamp,GyroX,GyroY,GyroZ,AccX,AccY,AccZ
1764433722.8636718,-0.82404,3.75396,0.9003399999999999,0.54846051,-0.52917345,-0.658140405
1764433722.8642085,-0.82404,3.75396,0.9003399999999999,0.54846051,-0.52917345,-0.658140405
1764433722.8642085,-0.82404,3.75396,0.9003399999999999,0.54846051,-0.52917345,-0.658140405
1764433722.8642085,-0.82404,3.75396,0.9003399999999999,0.54846051,-0.52917345,-0.658140405
1764433722.8642085,-0.82404,3.75396,0.9003399999999999,0.54846051,-0.52917345,-0.658140405
1764433722.8642085,-0.763,3.38772,0.88508,0.548399475,-0.528868275,-0.6585676500000001
1764433722.8642085,-0.763,3.38772,0.88508,0.548399475,-0.528868275,-0.6585676500000001
1764433722.8642085,-0.763,3.38772,0.88508,0.548399475,-0.528868275,-0.6585676500000001
1764433722.8642085,-0.763,3.38772,0.88508,0.548399475,-0.528868275,-0.6585676500000001
1764433722.8642085,-0.763,3.38772,0.88508,0.548399475,-0.528868275,-0.6585676500000001
1764433722.8642085,-0.763,3.38772,0.88508,0.548399475,-0.528868275,-0.6585676500000001
1764433722.8642085,-0.763,3.38772,0.88508,0.548399475,-0.528868275,-0.6585676500000001
1764433722.8642085,-0.763,3.38772,0.88508,0.548399475,-0.528868275,-0.6585676500000001
1764433722.8642085,-0.763,3.38772,0.88508,0.548399475,-0.528868275,-0.6585676500000001
1764433722.8642085,-0.763,3.38772,0.88508,0.548399475,-0.528868275,-0.6585676500000001
1764433722.864744,-1.25132,3.31142,0.59514,0.549376035,-0.528624135,-0.6596052450000001
1764433722.864744,-1.25132,3.31142,0.59514,0.549376035,-0.528624135,-0.6596052450000001
1764433722.864744,-1.25132,3.31142,0.59514,0.549376035,-0.528624135,-0.6596052450000001
1764433722.864744,-1.25132,3.31142,0.59514,0.549376035,-0.528624135,-0.6596052450000001
1764433722.864744,-1.25132,3.31142,0.59514,0.549376035,-0.528624135,-0.6596052450000001
1764433722.864744,-1.25132,3.31142,0.59514,0.549376035,-0.528624135,-0.6596052450000001
1764433722.864744,-1.25132,3.31142,0.59514,0.549376035,-0.528624135,-0.6596052450000001
1764433722.864744,-1.25132,3.31142,0.59514,0.549376035,-0.528624135,-0.6596052450000001
1764433722.912245,-1.25132,3.31142,0.59514,0.549376035,-0.528624135,-0.6596052450000001
1764433722.912245,-1.25132,3.31142,0.59514,0.549376035,-0.528624135,-0.6596052450000001
1764433722.912245,-1.19028,3.5098,0.65618,0.548887755,-0.5291124150000001,-0.65905593
1764433722.912245,-1.19028,3.5098,0.65618,0.548887755,-0.5291124150000001,-0.65905593
1764433722.912245,-1.19028,3.5098,0.65618,0.548887755,-0.5291124150000001,-0.65905593
1764433722.912245,-1.19028,3.5098,0.65618,0.548887755,-0.5291124150000001,-0.65905593
1764433722.912245,-1.19028,3.5098,0.65618,0.548887755,-0.5291124150000001,-0.65905593
1764433722.912245,-1.19028,3.5098,0.65618,0.548887755,-0.5291124150000001,-0.65905593
1764433722.912245,-1.19028,3.5098,0.65618,0.548887755,-0.5291124150000001,-0.65905593
1764433722.913256,-1.19028,3.5098,0.65618,0.548887755,-0.5291124150000001,-0.65905593
1764433722.913256,-1.19028,3.5098,0.65618,0.548887755,-0.5291124150000001,-0.65905593
1764433722.913256,-1.19028,3.5098,0.65618,0.548887755,-0.5291124150000001,-0.65905593
1764433722.913256,-1.23606,3.31142,0.5341,0.548765685,-0.528379995,-0.659361105
1764433722.913256,-1.23606,3.31142,0.5341,0.548765685,-0.528379995,-0.659361105
1764433722.913256,-1.23606,3.31142,0.5341,0.548765685,-0.528379995,-0.659361105
1764433722.913256,-1.23606,3.31142,0.5341,0.548765685,-0.528379995,-0.659361105
1764433722.913256,-1.23606,3.31142,0.5341,0.548765685,-0.528379995,-0.659361105
1764433722.913256,-1.23606,3.31142,0.5341,0.548765685,-0.528379995,-0.659361105
1764433722.913256,-1.23606,3.31142,0.5341,0.548765685,-0.528379995,-0.659361105
1764433722.913256,-1.23606,3.31142,0.5341,0.548765685,-0.528379995,-0.659361105
1764433722.913256,-1.23606,3.31142,0.5341,0.548765685,-0.528379995,-0.659361105
1764433722.913256,-1.23606,3.31142,0.5341,0.548765685,-0.528379995,-0.659361105
1764433722.9567163,-0.9919,3.6624,0.51884,0.54894879,-0.52783068,-0.6596052450000001
1764433722.9567163,-0.9919,3.6624,0.51884,0.54894879,-0.52783068,-0.6596052450000001
1764433722.9567163,-0.9919,3.6624,0.51884,0.54894879,-0.52783068,-0.6596052450000001
1764433722.9567163,-0.9919,3.6624,0.51884,0.54894879,-0.52783068,-0.6596052450000001
1764433722.9567163,-0.9919,3.6624,0.51884,0.54894879,-0.52783068,-0.6596052450000001
1764433722.9567163,-0.9919,3.6624,0.51884,0.54894879,-0.52783068,-0.6596052450000001
1764433722.9567163,-0.9919,3.6624,0.51884,0.54894879,-0.52783068,-0.6596052450000001
1764433722.9567163,-0.9919,3.6624,0.51884,0.54894879,-0.52783068,-0.6596052450000001
1764433722.9567163,-0.9919,3.6624,0.51884,0.54894879,-0.52783068,-0.6596052450000001
1764433722.9567163,-0.9919,3.6624,0.51884,0.54894879,-0.52783068,-0.6596052450000001
1764433722.9567163,-0.94612,3.76922,0.42728,0.548399475,-0.528135855,-0.659239035
1764433722.9567163,-0.94612,3.76922,0.42728,0.548399475,-0.528135855,-0.659239035
1764433722.9567163,-0.94612,3.76922,0.42728,0.548399475,-0.528135855,-0.659239035
1764433722.9567163,-0.94612,3.76922,0.42728,0.548399475,-0.528135855,-0.659239035
1764433722.9567163,-0.94612,3.76922,0.42728,0.548399475,-0.528135855,-0.659239035
1764433722.9567163,-0.94612,3.76922,0.42728,0.548399475,-0.528135855,-0.659239035
1764433722.9567163,-0.94612,3.76922,0.42728,0.548399475,-0.528135855,-0.659239035
1764433722.9567163,-0.94612,3.76922,0.42728,0.548399475,-0.528135855,-0.659239035
1764433722.9567163,-0.94612,3.76922,0.42728,0.548399475,-0.528135855,-0.659239035
1764433722.9567163,-0.94612,3.76922,0.42728,0.548399475,-0.528135855,-0.659239035
1764433722.9567163,-1.23606,3.8913,0.50358,0.54833844,-0.52917345,-0.659361105
1764433722.9567163,-1.23606,3.8913,0.50358,0.54833844,-0.52917345,-0.659361105
1764433722.9567163,-1.23606,3.8913,0.50358,0.54833844,-0.52917345,-0.659361105
1764433722.9567163,-1.23606,3.8913,0.50358,0.54833844,-0.52917345,-0.659361105
1764433723.0040658,-1.23606,3.8913,0.50358,0.54833844,-0.52917345,-0.659361105
1764433723.0040658,-1.23606,3.8913,0.50358,0.54833844,-0.52917345,-0.659361105
1764433723.0040658,-1.23606,3.8913,0.50358,0.54833844,-0.52917345,-0.659361105
1764433723.0040658,-1.23606,3.8913,0.50358,0.54833844,-0.52917345,-0.659361105
1764433723.0040658,-1.23606,3.8913,0.50358,0.54833844,-0.52917345,-0.659361105
1764433723.0040658,-1.23606,3.8913,0.50358,0.54833844,-0.52917345,-0.659361105
1764433723.0040658,-1.11398,4.15072,0.6867,0.548887755,-0.52819689,-0.65966628
1764433723.0040658,-1.11398,4.15072,0.6867,0.548887755,-0.52819689,-0.65966628
1764433723.0040658,-1.11398,4.15072,0.6867,0.548887755,-0.52819689,-0.65966628
1764433723.0040658,-1.11398,4.15072,0.6867,0.548887755,-0.52819689,-0.65966628
1764433723.0040658,-1.11398,4.15072,0.6867,0.548887755,-0.52819689,-0.65966628
1764433723.0040658,-1.11398,4.15072,0.6867,0.548887755,-0.52819689,-0.65966628
1764433723.0040658,-1.11398,4.15072,0.6867,0.548887755,-0.52819689,-0.65966628
1764433723.0040658,-1.11398,4.15072,0.6867,0.548887755,-0.52819689,-0.65966628
1764433723.0040658,-1.11398,4.15072,0.6867,0.548887755,-0.52819689,-0.65966628
1764433723.0040658,-1.11398,4.15072,0.6867,0.548887755,-0.52819689,-0.65966628
1764433723.0040658,-1.73964,3.86078,0.763,0.549620175,-0.52819689,-0.65978835
1764433723.0054405,-1.73964,3.86078,0.763,0.549620175,-0.52819689,-0.65978835
1764433723.0054405,-1.73964,3.86078,0.763,0.549620175,-0.52819689,-0.65978835
1764433723.0054405,-1.73964,3.86078,0.763,0.549620175,-0.52819689,-0.65978835
1764433723.0054405,-1.73964,3.86078,0.763,0.549620175,-0.52819689,-0.65978835
1764433723.0054405,-1.73964,3.86078,0.763,0.549620175,-0.52819689,-0.65978835
1764433723.0481396,-1.73964,3.86078,0.763,0.549620175,-0.52819689,-0.65978835
1764433723.0481396,-1.73964,3.86078,0.763,0.549620175,-0.52819689,-0.65978835
1764433723.0481396,-1.73964,3.86078,0.763,0.549620175,-0.52819689,-0.65978835
1764433723.0481396,-1.73964,3.86078,0.763,0.549620175,-0.52819689,-0.65978835
1764433723.0481396,-1.9838,3.26564,0.01526,0.549498105,-0.527891715,-0.65942214
1764433723.0481396,-1.9838,3.26564,0.01526,0.549498105,-0.527891715,-0.65942214
1764433723.0481396,-1.9838,3.26564,0.01526,0.549498105,-0.527891715,-0.65942214
1764433723.0481396,-1.9838,3.26564,0.01526,0.549498105,-0.527891715,-0.65942214
1764433723.0481396,-1.9838,3.26564,0.01526,0.549498105,-0.527891715,-0.65942214
1764433723.0481396,-1.9838,3.26564,0.01526,0.549498105,-0.527891715,-0.65942214
1764433723.0481396,-1.9838,3.26564,0.01526,0.549498105,-0.527891715,-0.65942214
1764433723.0481396,-1.9838,3.26564,0.01526,0.549498105,-0.527891715,-0.65942214
1764433723.0481396,-1.9838,3.26564,0.01526,0.549498105,-0.527891715,-0.65942214
1764433723.0481396,-1.9838,3.26564,0.01526,0.549498105,-0.527891715,-0.65942214
1764433723.0481396,-1.77016,3.37246,0.42728,0.549315,-0.528379995,-0.65966628
1764433723.0481396,-1.77016,3.37246,0.42728,0.549315,-0.528379995,-0.65966628
1764433723.0481396,-1.77016,3.37246,0.42728,0.549315,-0.528379995,-0.65966628
1764433723.0481396,-1.77016,3.37246,0.42728,0.549315,-0.528379995,-0.65966628
1764433723.0481396,-1.77016,3.37246,0.42728,0.549315,-0.528379995,-0.65966628
1764433723.0481396,-1.77016,3.37246,0.42728,0.549315,-0.528379995,-0.65966628
1764433723.0481396,-1.77016,3.37246,0.42728,0.549315,-0.528379995,-0.65966628
1764433723.0496705,-1.77016,3.37246,0.42728,0.549315,-0.528379995,-0.65966628
1764433723.0496705,-1.77016,3.37246,0.42728,0.549315,-0.528379995,-0.65966628
1764433723.0496705,-1.77016,3.37246,0.42728,0.549315,-0.528379995,-0.65966628
1764433723.0961888,-1.9838,3.29616,0.42728,0.548765685,-0.5291124150000001,-0.659483175
1764433723.0961888,-1.9838,3.29616,0.42728,0.548765685,-0.5291124150000001,-0.659483175
1764433723.0961888,-1.9838,3.29616,0.42728,0.548765685,-0.5291124150000001,-0.659483175
1764433723.0961888,-1.9838,3.29616,0.42728,0.548765685,-0.5291124150000001,-0.659483175
1764433723.0972018,-1.9838,3.29616,0.42728,0.548765685,-0.5291124150000001,-0.659483175
1764433723.0972018,-1.9838,3.29616,0.42728,0.548765685,-0.5291124150000001,-0.659483175
1764433723.0972018,-1.9838,3.29616,0.42728,0.548765685,-0.5291124150000001,-0.659483175
1764433723.0972018,-1.9838,3.29616,0.42728,0.548765685,-0.5291124150000001,-0.659483175
1764433723.0972018,-1.9838,3.29616,0.42728,0.548765685,-0.5291124150000001,-0.659483175
1764433723.0972018,-1.9838,3.29616,0.42728,0.548765685,-0.5291124150000001,-0.659483175
1764433723.0972018,-1.89224,3.2809,0.62566,0.54870465,-0.528990345,-0.659727315
1764433723.0972018,-1.89224,3.2809,0.62566,0.54870465,-0.528990345,-0.659727315
1764433723.0972018,-1.89224,3.2809,0.62566,0.54870465,-0.528990345,-0.659727315
1764433723.098197,-1.89224,3.2809,0.62566,0.54870465,-0.528990345,-0.659727315
1764433723.098197,-1.89224,3.2809,0.62566,0.54870465,-0.528990345,-0.659727315
1764433723.098197,-1.89224,3.2809,0.62566,0.54870465,-0.528990345,-0.659727315
1764433723.0987084,-1.89224,3.2809,0.62566,0.54870465,-0.528990345,-0.659727315
1764433723.0987084,-1.89224,3.2809,0.62566,0.54870465,-0.528990345,-0.659727315
1764433723.0987084,-1.89224,3.2809,0.62566,0.54870465,-0.528990345,-0.659727315
1764433723.0987084,-1.89224,3.2809,0.62566,0.54870465,-0.528990345,-0.659727315
1764433723.0987084,-1.87698,3.37246,0.54936,0.548887755,-0.528502065,-0.65966628
1764433723.0987084,-1.87698,3.37246,0.54936,0.548887755,-0.528502065,-0.65966628
1764433723.1398392,-1.87698,3.37246,0.54936,0.548887755,-0.528502065,-0.65966628
1764433723.1398392,-1.87698,3.37246,0.54936,0.548887755,-0.528502065,-0.65966628
1764433723.1398392,-1.87698,3.37246,0.54936,0.548887755,-0.528502065,-0.65966628
1764433723.1398392,-1.87698,3.37246,0.54936,0.548887755,-0.528502065,-0.65966628
1764433723.1398392,-1.87698,3.37246,0.54936,0.548887755,-0.528502065,-0.65966628
1764433723.1398392,-1.87698,3.37246,0.54936,0.548887755,-0.528502065,-0.65966628
1764433723.1398392,-1.87698,3.37246,0.54936,0.548887755,-0.528502065,-0.65966628
1764433723.1408484,-1.87698,3.37246,0.54936,0.548887755,-0.528502065,-0.65966628
1764433723.1408484,-2.12114,2.99096,0.3357199999999999,0.548887755,-0.52795275,-0.65966628
1764433723.1408484,-2.12114,2.99096,0.3357199999999999,0.548887755,-0.52795275,-0.65966628
1764433723.1408484,-2.12114,2.99096,0.3357199999999999,0.548887755,-0.52795275,-0.65966628
1764433723.1418612,-2.12114,2.99096,0.3357199999999999,0.548887755,-0.52795275,-0.65966628
1764433723.1418612,-2.12114,2.99096,0.3357199999999999,0.548887755,-0.52795275,-0.65966628
1764433723.1418612,-2.12114,2.99096,0.3357199999999999,0.548887755,-0.52795275,-0.65966628
1764433723.1418612,-2.12114,2.99096,0.3357199999999999,0.548887755,-0.52795275,-0.65966628
1764433723.1418612,-2.12114,2.99096,0.3357199999999999,0.548887755,-0.52795275,-0.65966628
1764433723.1418612,-2.12114,2.99096,0.3357199999999999,0.548887755,-0.52795275,-0.65966628
1764433723.1418612,-2.12114,2.99096,0.3357199999999999,0.548887755,-0.52795275,-0.65966628
1764433723.142884,-1.70912,2.79258,0.01526,0.549253965,-0.5273424,-0.6601545600000001
1764433723.142884,-1.70912,2.79258,0.01526,0.549253965,-0.5273424,-0.6601545600000001
1764433723.1438663,-1.70912,2.79258,0.01526,0.549253965,-0.5273424,-0.6601545600000001
1764433723.1438663,-1.70912,2.79258,0.01526,0.549253965,-0.5273424,-0.6601545600000001
1764433723.1438663,-1.70912,2.79258,0.01526,0.549253965,-0.5273424,-0.6601545600000001
1764433723.1438663,-1.70912,2.79258,0.01526,0.549253965,-0.5273424,-0.6601545600000001
1764433723.1863046,-1.70912,2.79258,0.01526,0.549253965,-0.5273424,-0.6601545600000001
1764433723.1863046,-1.70912,2.79258,0.01526,0.549253965,-0.5273424,-0.6601545600000001
1764433723.1863046,-1.70912,2.79258,0.01526,0.549253965,-0.5273424,-0.6601545600000001
1764433723.1863046,-1.70912,2.79258,0.01526,0.549253965,-0.5273424,-0.6601545600000001
1764433723.1863046,-1.54126,3.1283,0.3509799999999999,0.54968121,-0.5275255050000001,-0.66027663
1764433723.1863046,-1.54126,3.1283,0.3509799999999999,0.54968121,-0.5275255050000001,-0.66027663
1764433723.1863046,-1.54126,3.1283,0.3509799999999999,0.54968121,-0.5275255050000001,-0.66027663
1764433723.1863046,-1.54126,3.1283,0.3509799999999999,0.54968121,-0.5275255050000001,-0.66027663
1764433723.1863046,-1.54126,3.1283,0.3509799999999999,0.54968121,-0.5275255050000001,-0.66027663
1764433723.1863046,-1.54126,3.1283,0.3509799999999999,0.54968121,-0.5275255050000001,-0.66027663
1764433723.1863046,-1.54126,3.1283,0.3509799999999999,0.54968121,-0.5275255050000001,-0.66027663
1764433723.1863046,-1.54126,3.1283,0.3509799999999999,0.54968121,-0.5275255050000001,-0.66027663
1764433723.1863046,-1.54126,3.1283,0.3509799999999999,0.54968121,-0.5275255050000001,-0.66027663
1764433723.1863046,-1.54126,3.1283,0.3509799999999999,0.54968121,-0.5275255050000001,-0.66027663
1764433723.1863046,-1.6786,3.18934,0.1678599999999999,0.549498105,-0.526915155,-0.6611921550000001
1764433723.187819,-1.6786,3.18934,0.1678599999999999,0.549498105,-0.526915155,-0.6611921550000001
1764433723.187819,-1.6786,3.18934,0.1678599999999999,0.549498105,-0.526915155,-0.6611921550000001
1764433723.187819,-1.6786,3.18934,0.1678599999999999,0.549498105,-0.526915155,-0.6611921550000001
1764433723.187819,-1.6786,3.18934,0.1678599999999999,0.549498105,-0.526915155,-0.6611921550000001
1764433723.187819,-1.6786,3.18934,0.1678599999999999,0.549498105,-0.526915155,-0.6611921550000001
1764433723.187819,-1.6786,3.18934,0.1678599999999999,0.549498105,-0.526915155,-0.6611921550000001
1764433723.187819,-1.6786,3.18934,0.1678599999999999,0.549498105,-0.526915155,-0.6611921550000001
1764433723.235874,-1.6786,3.18934,0.1678599999999999,0.549498105,-0.526915155,-0.6611921550000001
1764433723.235874,-1.6786,3.18934,0.1678599999999999,0.549498105,-0.526915155,-0.6611921550000001
1764433723.235874,-1.51074,2.94518,0.19838,0.54858258,-0.52624377,-0.661680435
1764433723.235874,-1.51074,2.94518,0.19838,0.54858258,-0.52624377,-0.661680435
1764433723.235874,-1.51074,2.94518,0.19838,0.54858258,-0.52624377,-0.661680435
1764433723.235874,-1.51074,2.94518,0.19838,0.54858258,-0.52624377,-0.661680435
1764433723.235874,-1.51074,2.94518,0.19838,0.54858258,-0.52624377,-0.661680435
1764433723.235874,-1.51074,2.94518,0.19838,0.54858258,-0.52624377,-0.661680435
1764433723.235874,-1.51074,2.94518,0.19838,0.54858258,-0.52624377,-0.661680435
1764433723.235874,-1.51074,2.94518,0.19838,0.54858258,-0.52624377,-0.661680435
1764433723.235874,-1.51074,2.94518,0.19838,0.54858258,-0.52624377,-0.661680435
1764433723.235874,-1.51074,2.94518,0.19838,0.54858258,-0.52624377,-0.661680435
1764433723.235874,-1.58704,3.21986,0.6409199999999999,0.54821637,-0.52709826,-0.66149733
1764433723.235874,-1.58704,3.21986,0.6409199999999999,0.54821637,-0.52709826,-0.66149733
1764433723.235874,-1.58704,3.21986,0.6409199999999999,0.54821637,-0.52709826,-0.66149733
1764433723.235874,-1.58704,3.21986,0.6409199999999999,0.54821637,-0.52709826,-0.66149733
1764433723.235874,-1.58704,3.21986,0.6409199999999999,0.54821637,-0.52709826,-0.66149733
1764433723.235874,-1.58704,3.21986,0.6409199999999999,0.54821637,-0.52709826,-0.66149733
1764433723.235874,-1.58704,3.21986,0.6409199999999999,0.54821637,-0.52709826,-0.66149733
1764433723.235874,-1.58704,3.21986,0.6409199999999999,0.54821637,-0.52709826,-0.66149733
1764433723.235874,-1.58704,3.21986,0.6409199999999999,0.54821637,-0.52709826,-0.66149733
1764433723.235874,-1.58704,3.21986,0.6409199999999999,0.54821637,-0.52709826,-0.66149733
1764433723.2799242,-1.87698,3.23512,0.6409199999999999,0.548521545,-0.527281365,-0.66125319
1764433723.2799242,-1.87698,3.23512,0.6409199999999999,0.548521545,-0.527281365,-0.66125319
1764433723.2799242,-1.87698,3.23512,0.6409199999999999,0.548521545,-0.527281365,-0.66125319
1764433723.2799242,-1.87698,3.23512,0.6409199999999999,0.548521545,-0.527281365,-0.66125319
1764433723.2799242,-1.87698,3.23512,0.6409199999999999,0.548521545,-0.527281365,-0.66125319
1764433723.2799242,-1.87698,3.23512,0.6409199999999999,0.548521545,-0.527281365,-0.66125319
1764433723.2799242,-1.87698,3.23512,0.6409199999999999,0.548521545,-0.527281365,-0.66125319
1764433723.2799242,-1.87698,3.23512,0.6409199999999999,0.548521545,-0.527281365,-0.66125319
1764433723.2799242,-1.87698,3.23512,0.6409199999999999,0.548521545,-0.527281365,-0.66125319
1764433723.2799242,-1.87698,3.23512,0.6409199999999999,0.548521545,-0.527281365,-0.66125319
1764433723.2809384,-2.18218,3.52506,0.79352,0.548033265,-0.5264879100000001,-0.66113112
1764433723.2809384,-2.18218,3.52506,0.79352,0.548033265,-0.5264879100000001,-0.66113112
1764433723.2809384,-2.18218,3.52506,0.79352,0.548033265,-0.5264879100000001,-0.66113112
1764433723.2809384,-2.18218,3.52506,0.79352,0.548033265,-0.5264879100000001,-0.66113112
1764433723.2809384,-2.18218,3.52506,0.79352,0.548033265,-0.5264879100000001,-0.66113112
1764433723.2809384,-2.18218,3.52506,0.79352,0.548033265,-0.5264879100000001,-0.66113112
1764433723.2809384,-2.18218,3.52506,0.79352,0.548033265,-0.5264879100000001,-0.66113112
1764433723.2809384,-2.18218,3.52506,0.79352,0.548033265,-0.5264879100000001,-0.66113112
1764433723.2809384,-2.18218,3.52506,0.79352,0.548033265,-0.5264879100000001,-0.66113112
1764433723.2809384,-2.18218,3.52506,0.79352,0.548033265,-0.5264879100000001,-0.66113112
1764433723.2809384,-2.0601,3.15882,0.48832,0.548765685,-0.526915155,-0.66125319
1764433723.2809384,-2.0601,3.15882,0.48832,0.548765685,-0.526915155,-0.66125319
1764433723.2814467,-2.0601,3.15882,0.48832,0.548765685,-0.526915155,-0.66125319
1764433723.2814467,-2.0601,3.15882,0.48832,0.548765685,-0.526915155,-0.66125319
1764433723.3253412,-2.0601,3.15882,0.48832,0.548765685,-0.526915155,-0.66125319
1764433723.3253412,-2.0601,3.15882,0.48832,0.548765685,-0.526915155,-0.66125319
1764433723.3253412,-2.0601,3.15882,0.48832,0.548765685,-0.526915155,-0.66125319
1764433723.3253412,-2.0601,3.15882,0.48832,0.548765685,-0.526915155,-0.66125319
1764433723.3253412,-2.0601,3.15882,0.48832,0.548765685,-0.526915155,-0.66125319
1764433723.3253412,-2.0601,3.15882,0.48832,0.548765685,-0.526915155,-0.66125319
1764433723.3253412,-1.69386,3.9676,0.73248,0.54858258,-0.5264879100000001,-0.661802505
1764433723.3253412,-1.69386,3.9676,0.73248,0.54858258,-0.5264879100000001,-0.661802505
1764433723.3253412,-1.69386,3.9676,0.73248,0.54858258,-0.5264879100000001,-0.661802505
1764433723.3253412,-1.69386,3.9676,0.73248,0.54858258,-0.5264879100000001,-0.661802505
1764433723.3263557,-1.69386,3.9676,0.73248,0.54858258,-0.5264879100000001,-0.661802505
1764433723.3263557,-1.69386,3.9676,0.73248,0.54858258,-0.5264879100000001,-0.661802505
1764433723.3263557,-1.69386,3.9676,0.73248,0.54858258,-0.5264879100000001,-0.661802505
1764433723.3263557,-1.69386,3.9676,0.73248,0.54858258,-0.5264879100000001,-0.661802505
1764433723.3263557,-1.69386,3.9676,0.73248,0.54858258,-0.5264879100000001,-0.661802505
1764433723.3263557,-1.69386,3.9676,0.73248,0.54858258,-0.5264879100000001,-0.661802505
1764433723.3263557,-1.77016,3.75396,0.6867,0.547789125,-0.526304805,-0.66174147
1764433723.3263557,-1.77016,3.75396,0.6867,0.547789125,-0.526304805,-0.66174147
1764433723.3263557,-1.77016,3.75396,0.6867,0.547789125,-0.526304805,-0.66174147
1764433723.3268638,-1.77016,3.75396,0.6867,0.547789125,-0.526304805,-0.66174147
1764433723.3268638,-1.77016,3.75396,0.6867,0.547789125,-0.526304805,-0.66174147
1764433723.3268638,-1.77016,3.75396,0.6867,0.547789125,-0.526304805,-0.66174147
1764433723.3268638,-1.77016,3.75396,0.6867,0.547789125,-0.526304805,-0.66174147
1764433723.327875,-1.77016,3.75396,0.6867,0.547789125,-0.526304805,-0.66174147
1764433723.3749266,-1.77016,3.75396,0.6867,0.547789125,-0.526304805,-0.66174147
1764433723.375927,-1.77016,3.75396,0.6867,0.547789125,-0.526304805,-0.66174147
1764433723.375927,-1.41918,3.87604,0.65618,0.547911195,-0.526426875,-0.661314225
1764433723.375927,-1.41918,3.87604,0.65618,0.547911195,-0.526426875,-0.661314225
1764433723.375927,-1.41918,3.87604,0.65618,0.547911195,-0.526426875,-0.661314225
1764433723.375927,-1.41918,3.87604,0.65618,0.547911195,-0.526426875,-0.661314225
1764433723.375927,-1.41918,3.87604,0.65618,0.547911195,-0.526426875,-0.661314225
1764433723.375927,-1.41918,3.87604,0.65618,0.547911195,-0.526426875,-0.661314225
1764433723.375927,-1.41918,3.87604,0.65618,0.547911195,-0.526426875,-0.661314225
1764433723.375927,-1.41918,3.87604,0.65618,0.547911195,-0.526426875,-0.661314225
1764433723.375927,-1.41918,3.87604,0.65618,0.547911195,-0.526426875,-0.661314225
1764433723.375927,-1.41918,3.87604,0.65618,0.547911195,-0.526426875,-0.661314225
1764433723.375927,-1.9075,3.46402,0.3357199999999999,0.548643615,-0.526793085,-0.66100905
1764433723.375927,-1.9075,3.46402,0.3357199999999999,0.548643615,-0.526793085,-0.66100905
1764433723.375927,-1.9075,3.46402,0.3357199999999999,0.548643615,-0.526793085,-0.66100905
1764433723.376932,-1.9075,3.46402,0.3357199999999999,0.548643615,-0.526793085,-0.66100905
1764433723.376932,-1.9075,3.46402,0.3357199999999999,0.548643615,-0.526793085,-0.66100905
1764433723.376932,-1.9075,3.46402,0.3357199999999999,0.548643615,-0.526793085,-0.66100905
1764433723.376932,-1.9075,3.46402,0.3357199999999999,0.548643615,-0.526793085,-0.66100905
1764433723.376932,-1.9075,3.46402,0.3357199999999999,0.548643615,-0.526793085,-0.66100905
1764433723.376932,-1.9075,3.46402,0.3357199999999999,0.548643615,-0.526793085,-0.66100905
1764433723.376932,-1.9075,3.46402,0.3357199999999999,0.548643615,-0.526793085,-0.66100905
1764433723.419147,-1.9075,3.34194,0.41202,0.549131895,-0.52587756,-0.661558365
1764433723.419147,-1.9075,3.34194,0.41202,0.549131895,-0.52587756,-0.661558365
1764433723.419147,-1.9075,3.34194,0.41202,0.549131895,-0.52587756,-0.661558365
1764433723.419147,-1.9075,3.34194,0.41202,0.549131895,-0.52587756,-0.661558365
1764433723.419147,-1.9075,3.34194,0.41202,0.549131895,-0.52587756,-0.661558365
1764433723.419147,-1.9075,3.34194,0.41202,0.549131895,-0.52587756,-0.661558365
1764433723.419147,-1.9075,3.34194,0.41202,0.549131895,-0.52587756,-0.661558365
1764433723.419147,-1.9075,3.34194,0.41202,0.549131895,-0.52587756,-0.661558365
1764433723.419147,-1.9075,3.34194,0.41202,0.549131895,-0.52587756,-0.661558365
1764433723.419147,-1.9075,3.34194,0.41202,0.549131895,-0.52587756,-0.661558365
1764433723.4201891,-2.19744,3.64714,0.3815,0.548643615,-0.52563342,-0.662412855
1764433723.4201891,-2.19744,3.64714,0.3815,0.548643615,-0.52563342,-0.662412855
1764433723.4201891,-2.19744,3.64714,0.3815,0.548643615,-0.52563342,-0.662412855
1764433723.4201891,-2.19744,3.64714,0.3815,0.548643615,-0.52563342,-0.662412855
1764433723.4201891,-2.19744,3.64714,0.3815,0.548643615,-0.52563342,-0.662412855
1764433723.4201891,-2.19744,3.64714,0.3815,0.548643615,-0.52563342,-0.662412855
1764433723.4201891,-2.19744,3.64714,0.3815,0.548643615,-0.52563342,-0.662412855
1764433723.4201891,-2.19744,3.64714,0.3815,0.548643615,-0.52563342,-0.662412855
1764433723.4201891,-2.19744,3.64714,0.3815,0.548643615,-0.52563342,-0.662412855
1764433723.4201891,-2.19744,3.64714,0.3815,0.548643615,-0.52563342,-0.662412855
1764433723.4201891,-2.18218,3.31142,0.1678599999999999,0.548765685,-0.525572385,-0.661924575
1764433723.4201891,-2.18218,3.31142,0.1678599999999999,0.548765685,-0.525572385,-0.661924575
1764433723.46479,-2.18218,3.31142,0.1678599999999999,0.548765685,-0.525572385,-0.661924575
1764433723.46479,-2.18218,3.31142,0.1678599999999999,0.548765685,-0.525572385,-0.661924575
1764433723.46479,-2.18218,3.31142,0.1678599999999999,0.548765685,-0.525572385,-0.661924575
1764433723.46479,-2.18218,3.31142,0.1678599999999999,0.548765685,-0.525572385,-0.661924575
1764433723.46479,-2.18218,3.31142,0.1678599999999999,0.548765685,-0.525572385,-0.661924575
1764433723.46479,-2.18218,3.31142,0.1678599999999999,0.548765685,-0.525572385,-0.661924575
1764433723.46479,-2.18218,3.31142,0.1678599999999999,0.548765685,-0.525572385,-0.661924575
1764433723.46479,-2.18218,3.31142,0.1678599999999999,0.548765685,-0.525572385,-0.661924575
1764433723.46479,-2.3653,3.4335,0.1678599999999999,0.548155335,-0.5254503150000001,-0.661924575
1764433723.46479,-2.3653,3.4335,0.1678599999999999,0.548155335,-0.5254503150000001,-0.661924575
1764433723.46479,-2.3653,3.4335,0.1678599999999999,0.548155335,-0.5254503150000001,-0.661924575
1764433723.46479,-2.3653,3.4335,0.1678599999999999,0.548155335,-0.5254503150000001,-0.661924575
1764433723.46479,-2.3653,3.4335,0.1678599999999999,0.548155335,-0.5254503150000001,-0.661924575
1764433723.4658077,-2.3653,3.4335,0.1678599999999999,0.548155335,-0.5254503150000001,-0.661924575
1764433723.4658077,-2.3653,3.4335,0.1678599999999999,0.548155335,-0.5254503150000001,-0.661924575
1764433723.4658077,-2.3653,3.4335,0.1678599999999999,0.548155335,-0.5254503150000001,-0.661924575
1764433723.4658077,-2.3653,3.4335,0.1678599999999999,0.548155335,-0.5254503150000001,-0.661924575
1764433723.4658077,-2.3653,3.4335,0.1678599999999999,0.548155335,-0.5254503150000001,-0.661924575
1764433723.4658077,-1.95328,3.29616,0.39676,0.547911195,-0.52502307,-0.662290785
1764433723.4658077,-1.95328,3.29616,0.39676,0.547911195,-0.52502307,-0.662290785
1764433723.4658077,-1.95328,3.29616,0.39676,0.547911195,-0.52502307,-0.662290785
1764433723.4658077,-1.95328,3.29616,0.39676,0.547911195,-0.52502307,-0.662290785
1764433723.4658077,-1.95328,3.29616,0.39676,0.547911195,-0.52502307,-0.662290785
1764433723.4658077,-1.95328,3.29616,0.39676,0.547911195,-0.52502307,-0.662290785
1764433723.51466,-1.95328,3.29616,0.39676,0.547911195,-0.52502307,-0.662290785
1764433723.51466,-1.95328,3.29616,0.39676,0.547911195,-0.52502307,-0.662290785
1764433723.515661,-1.95328,3.29616,0.39676,0.547911195,-0.52502307,-0.662290785
1764433723.515661,-1.95328,3.29616,0.39676,0.547911195,-0.52502307,-0.662290785
1764433723.515661,-1.95328,3.72344,0.59514,0.548399475,-0.52514514,-0.662168715
1764433723.515661,-1.95328,3.72344,0.59514,0.548399475,-0.52514514,-0.662168715
1764433723.516659,-1.95328,3.72344,0.59514,0.548399475,-0.52514514,-0.662168715
1764433723.516659,-1.95328,3.72344,0.59514,0.548399475,-0.52514514,-0.662168715
1764433723.516659,-1.95328,3.72344,0.59514,0.548399475,-0.52514514,-0.662168715
1764433723.516659,-1.95328,3.72344,0.59514,0.548399475,-0.52514514,-0.662168715
1764433723.5176578,-1.95328,3.72344,0.59514,0.548399475,-0.52514514,-0.662168715
1764433723.5176578,-1.95328,3.72344,0.59514,0.548399475,-0.52514514,-0.662168715
1764433723.5176578,-1.95328,3.72344,0.59514,0.548399475,-0.52514514,-0.662168715
1764433723.5176578,-1.95328,3.72344,0.59514,0.548399475,-0.52514514,-0.662168715
1764433723.5176578,-1.70912,3.37246,0.44254,0.548887755,-0.52465686,-0.662534925
1764433723.5176578,-1.70912,3.37246,0.44254,0.548887755,-0.52465686,-0.662534925
1764433723.5176578,-1.70912,3.37246,0.44254,0.548887755,-0.52465686,-0.662534925
1764433723.5176578,-1.70912,3.37246,0.44254,0.548887755,-0.52465686,-0.662534925
1764433723.5176578,-1.70912,3.37246,0.44254,0.548887755,-0.52465686,-0.662534925
1764433723.5176578,-1.70912,3.37246,0.44254,0.548887755,-0.52465686,-0.662534925
1764433723.5176578,-1.70912,3.37246,0.44254,0.548887755,-0.52465686,-0.662534925
1764433723.5176578,-1.70912,3.37246,0.44254,0.548887755,-0.52465686,-0.662534925
1764433723.5176578,-1.70912,3.37246,0.44254,0.548887755,-0.52465686,-0.662534925
1764433723.5176578,-1.70912,3.37246,0.44254,0.548887755,-0.52465686,-0.662534925
1764433723.5186608,-1.70912,3.75396,0.47306,0.54846051,-0.52429065,-0.662168715
1764433723.5186608,-1.70912,3.75396,0.47306,0.54846051,-0.52429065,-0.662168715
1764433723.5595794,-1.70912,3.75396,0.47306,0.54846051,-0.52429065,-0.662168715
1764433723.5595794,-1.70912,3.75396,0.47306,0.54846051,-0.52429065,-0.662168715
1764433723.5595794,-1.70912,3.75396,0.47306,0.54846051,-0.52429065,-0.662168715
1764433723.5595794,-1.70912,3.75396,0.47306,0.54846051,-0.52429065,-0.662168715
1764433723.5595794,-1.70912,3.75396,0.47306,0.54846051,-0.52429065,-0.662168715
1764433723.5595794,-1.70912,3.75396,0.47306,0.54846051,-0.52429065,-0.662168715
1764433723.5595794,-1.70912,3.75396,0.47306,0.54846051,-0.52429065,-0.662168715
1764433723.5595794,-1.70912,3.75396,0.47306,0.54846051,-0.52429065,-0.662168715
1764433723.5595794,-1.69386,3.90656,0.39676,0.54821637,-0.524351685,-0.66210768
1764433723.5595794,-1.69386,3.90656,0.39676,0.54821637,-0.524351685,-0.66210768
1764433723.5595794,-1.69386,3.90656,0.39676,0.54821637,-0.524351685,-0.66210768
1764433723.5605764,-1.69386,3.90656,0.39676,0.54821637,-0.524351685,-0.66210768
1764433723.5605764,-1.69386,3.90656,0.39676,0.54821637,-0.524351685,-0.66210768
1764433723.5610847,-1.69386,3.90656,0.39676,0.54821637,-0.524351685,-0.66210768
1764433723.5610847,-1.69386,3.90656,0.39676,0.54821637,-0.524351685,-0.66210768
1764433723.5610847,-1.69386,3.90656,0.39676,0.54821637,-0.524351685,-0.66210768
1764433723.5610847,-1.69386,3.90656,0.39676,0.54821637,-0.524351685,-0.66210768
1764433723.5610847,-1.69386,3.90656,0.39676,0.54821637,-0.524351685,-0.66210768
1764433723.5610847,-1.96854,3.64714,0.79352,0.548155335,-0.524351685,-0.6638166600000001
1764433723.5610847,-1.96854,3.64714,0.79352,0.548155335,-0.524351685,-0.6638166600000001
1764433723.5610847,-1.96854,3.64714,0.79352,0.548155335,-0.524351685,-0.6638166600000001
1764433723.5610847,-1.96854,3.64714,0.79352,0.548155335,-0.524351685,-0.6638166600000001
1764433723.607782,-1.96854,3.64714,0.79352,0.548155335,-0.524351685,-0.6638166600000001
1764433723.607782,-1.96854,3.64714,0.79352,0.548155335,-0.524351685,-0.6638166600000001
1764433723.607782,-1.96854,3.64714,0.79352,0.548155335,-0.524351685,-0.6638166600000001
1764433723.607782,-1.96854,3.64714,0.79352,0.548155335,-0.524351685,-0.6638166600000001
1764433723.607782,-1.96854,3.64714,0.79352,0.548155335,-0.524351685,-0.6638166600000001
1764433723.607782,-1.96854,3.64714,0.79352,0.548155335,-0.524351685,-0.6638166600000001
1764433723.607782,-1.26658,3.79974,0.6714399999999999,0.549315,-0.523619265,-0.661924575
1764433723.607782,-1.26658,3.79974,0.6714399999999999,0.549315,-0.523619265,-0.661924575
1764433723.607782,-1.26658,3.79974,0.6714399999999999,0.549315,-0.523619265,-0.661924575
1764433723.607782,-1.26658,3.79974,0.6714399999999999,0.549315,-0.523619265,-0.661924575
1764433723.607782,-1.26658,3.79974,0.6714399999999999,0.549315,-0.523619265,-0.661924575
1764433723.607782,-1.26658,3.79974,0.6714399999999999,0.549315,-0.523619265,-0.661924575
1764433723.6087823,-1.26658,3.79974,0.6714399999999999,0.549315,-0.523619265,-0.661924575
1764433723.6087823,-1.26658,3.79974,0.6714399999999999,0.549315,-0.523619265,-0.661924575
1764433723.6087823,-1.26658,3.79974,0.6714399999999999,0.549315,-0.523619265,-0.661924575
1764433723.6087823,-1.26658,3.79974,0.6714399999999999,0.549315,-0.523619265,-0.661924575
1764433723.6087823,-0.59514,4.1202,0.6867,0.54833844,-0.524351685,-0.661558365
1764433723.6087823,-0.59514,4.1202,0.6867,0.54833844,-0.524351685,-0.661558365
1764433723.6087823,-0.59514,4.1202,0.6867,0.54833844,-0.524351685,-0.661558365
1764433723.6087823,-0.59514,4.1202,0.6867,0.54833844,-0.524351685,-0.661558365
1764433723.6087823,-0.59514,4.1202,0.6867,0.54833844,-0.524351685,-0.661558365
1764433723.6087823,-0.59514,4.1202,0.6867,0.54833844,-0.524351685,-0.661558365
1764433723.6087823,-0.59514,4.1202,0.6867,0.54833844,-0.524351685,-0.661558365
1764433723.6087823,-0.59514,4.1202,0.6867,0.54833844,-0.524351685,-0.661558365
1764433723.652086,-0.59514,4.1202,0.6867,0.54833844,-0.524351685,-0.661558365
1764433723.652086,-0.59514,4.1202,0.6867,0.54833844,-0.524351685,-0.661558365
1764433723.652086,-0.18312,4.21176,1.11398,0.54858258,-0.52465686,-0.662046645
1764433723.652086,-0.18312,4.21176,1.11398,0.54858258,-0.52465686,-0.662046645
1764433723.652086,-0.18312,4.21176,1.11398,0.54858258,-0.52465686,-0.662046645
1764433723.652086,-0.18312,4.21176,1.11398,0.54858258,-0.52465686,-0.662046645
1764433723.652086,-0.18312,4.21176,1.11398,0.54858258,-0.52465686,-0.662046645
1764433723.652086,-0.18312,4.21176,1.11398,0.54858258,-0.52465686,-0.662046645
1764433723.652086,-0.18312,4.21176,1.11398,0.54858258,-0.52465686,-0.662046645
1764433723.652086,-0.18312,4.21176,1.11398,0.54858258,-0.52465686,-0.662046645
1764433723.652086,-0.18312,4.21176,1.11398,0.54858258,-0.52465686,-0.662046645
1764433723.653102,-0.18312,4.21176,1.11398,0.54858258,-0.52465686,-0.662046645
1764433723.653102,-0.21364,3.37246,0.8087799999999999,0.549131895,-0.524595825,-0.661924575
1764433723.653102,-0.21364,3.37246,0.8087799999999999,0.549131895,-0.524595825,-0.661924575
1764433723.653102,-0.21364,3.37246,0.8087799999999999,0.549131895,-0.524595825,-0.661924575
1764433723.653102,-0.21364,3.37246,0.8087799999999999,0.549131895,-0.524595825,-0.661924575
1764433723.6544151,-0.21364,3.37246,0.8087799999999999,0.549131895,-0.524595825,-0.661924575
1764433723.6544151,-0.21364,3.37246,0.8087799999999999,0.549131895,-0.524595825,-0.661924575
1764433723.6554365,-0.21364,3.37246,0.8087799999999999,0.549131895,-0.524595825,-0.661924575
1764433723.6554365,-0.21364,3.37246,0.8087799999999999,0.549131895,-0.524595825,-0.661924575
1764433723.6554365,-0.21364,3.37246,0.8087799999999999,0.549131895,-0.524595825,-0.661924575
1764433723.6564264,-0.21364,3.37246,0.8087799999999999,0.549131895,-0.524595825,-0.661924575
1764433723.6564264,-0.2289,3.11304,0.62566,0.549498105,-0.524839965,-0.66308424
1764433723.6564264,-0.2289,3.11304,0.62566,0.549498105,-0.524839965,-0.66308424
1764433723.7008798,-0.2289,3.11304,0.62566,0.549498105,-0.524839965,-0.66308424
1764433723.7008798,-0.2289,3.11304,0.62566,0.549498105,-0.524839965,-0.66308424
1764433723.7008798,-0.2289,3.11304,0.62566,0.549498105,-0.524839965,-0.66308424
1764433723.7008798,-0.2289,3.11304,0.62566,0.549498105,-0.524839965,-0.66308424
1764433723.7008798,-0.2289,3.11304,0.62566,0.549498105,-0.524839965,-0.66308424
1764433723.7008798,-0.2289,3.11304,0.62566,0.549498105,-0.524839965,-0.66308424
1764433723.7008798,-0.2289,3.11304,0.62566,0.549498105,-0.524839965,-0.66308424
1764433723.7008798,-0.2289,3.11304,0.62566,0.549498105,-0.524839965,-0.66308424
1764433723.7008798,-1.05294,3.03674,0.12208,0.5490098250000001,-0.523741335,-0.66357252
1764433723.7008798,-1.05294,3.03674,0.12208,0.5490098250000001,-0.523741335,-0.66357252
1764433723.7018907,-1.05294,3.03674,0.12208,0.5490098250000001,-0.523741335,-0.66357252
1764433723.7018907,-1.05294,3.03674,0.12208,0.5490098250000001,-0.523741335,-0.66357252
1764433723.7018907,-1.05294,3.03674,0.12208,0.5490098250000001,-0.523741335,-0.66357252
1764433723.7018907,-1.05294,3.03674,0.12208,0.5490098250000001,-0.523741335,-0.66357252
1764433723.7018907,-1.05294,3.03674,0.12208,0.5490098250000001,-0.523741335,-0.66357252
1764433723.7018907,-1.05294,3.03674,0.12208,0.5490098250000001,-0.523741335,-0.66357252
1764433723.7018907,-1.05294,3.03674,0.12208,0.5490098250000001,-0.523741335,-0.66357252
1764433723.7018907,-1.05294,3.03674,0.12208,0.5490098250000001,-0.523741335,-0.66357252
1764433723.7018907,-0.6867,2.96044,0.47306,0.54846051,-0.5238634050000001,-0.6627790650000001
1764433723.7018907,-0.6867,2.96044,0.47306,0.54846051,-0.5238634050000001,-0.6627790650000001
1764433723.745431,-0.6867,2.96044,0.47306,0.54846051,-0.5238634050000001,-0.6627790650000001
1764433723.745431,-0.6867,2.96044,0.47306,0.54846051,-0.5238634050000001,-0.6627790650000001
1764433723.745431,-0.6867,2.96044,0.47306,0.54846051,-0.5238634050000001,-0.6627790650000001
1764433723.745431,-0.6867,2.96044,0.47306,0.54846051,-0.5238634050000001,-0.6627790650000001
1764433723.745431,-0.6867,2.96044,0.47306,0.54846051,-0.5238634050000001,-0.6627790650000001
1764433723.745431,-0.6867,2.96044,0.47306,0.54846051,-0.5238634050000001,-0.6627790650000001
1764433723.745431,-0.6867,2.96044,0.47306,0.54846051,-0.5238634050000001,-0.6627790650000001
1764433723.745431,-0.6867,2.96044,0.47306,0.54846051,-0.5238634050000001,-0.6627790650000001
1764433723.745942,-0.6103999999999999,3.70818,0.57988,0.54760602,-0.5249010000000001,-0.662046645
1764433723.745942,-0.6103999999999999,3.70818,0.57988,0.54760602,-0.5249010000000001,-0.662046645
1764433723.745942,-0.6103999999999999,3.70818,0.57988,0.54760602,-0.5249010000000001,-0.662046645
1764433723.757161,-0.6103999999999999,3.70818,0.57988,0.54760602,-0.5249010000000001,-0.662046645
1764433723.757161,-0.6103999999999999,3.70818,0.57988,0.54760602,-0.5249010000000001,-0.662046645
1764433723.7581606,-0.6103999999999999,3.70818,0.57988,0.54760602,-0.5249010000000001,-0.662046645
1764433723.7581606,-0.6103999999999999,3.70818,0.57988,0.54760602,-0.5249010000000001,-0.662046645
1764433723.7581606,-0.6103999999999999,3.70818,0.57988,0.54760602,-0.5249010000000001,-0.662046645
1764433723.7581606,-0.6103999999999999,3.70818,0.57988,0.54760602,-0.5249010000000001,-0.662046645
1764433723.7591584,-0.6103999999999999,3.70818,0.57988,0.54760602,-0.5249010000000001,-0.662046645
1764433723.7591584,0.21364,3.38772,0.96138,0.54833844,-0.52538928,-0.66174147
1764433723.7591584,0.21364,3.38772,0.96138,0.54833844,-0.52538928,-0.66174147
1764433723.760164,0.21364,3.38772,0.96138,0.54833844,-0.52538928,-0.66174147
1764433723.760164,0.21364,3.38772,0.96138,0.54833844,-0.52538928,-0.66174147
1764433723.7611578,0.21364,3.38772,0.96138,0.54833844,-0.52538928,-0.66174147
1764433723.7611578,0.21364,3.38772,0.96138,0.54833844,-0.52538928,-0.66174147
1764433723.7956753,0.21364,3.38772,0.96138,0.54833844,-0.52538928,-0.66174147
1764433723.7956753,0.21364,3.38772,0.96138,0.54833844,-0.52538928,-0.66174147
1764433723.7956753,0.21364,3.38772,0.96138,0.54833844,-0.52538928,-0.66174147
1764433723.7956753,0.21364,3.38772,0.96138,0.54833844,-0.52538928,-0.66174147
1764433723.7956753,0.2289,3.69292,1.00716,0.548277405,-0.52563342,-0.661436295
1764433723.7956753,0.2289,3.69292,1.00716,0.548277405,-0.52563342,-0.661436295
1764433723.7956753,0.2289,3.69292,1.00716,0.548277405,-0.52563342,-0.661436295
1764433723.7956753,0.2289,3.69292,1.00716,0.548277405,-0.52563342,-0.661436295
1764433723.7956753,0.2289,3.69292,1.00716,0.548277405,-0.52563342,-0.661436295
1764433723.7956753,0.2289,3.69292,1.00716,0.548277405,-0.52563342,-0.661436295
1764433723.7956753,0.2289,3.69292,1.00716,0.548277405,-0.52563342,-0.661436295
1764433723.7956753,0.2289,3.69292,1.00716,0.548277405,-0.52563342,-0.661436295
1764433723.7956753,0.2289,3.69292,1.00716,0.548277405,-0.52563342,-0.661436295
1764433723.7956753,0.2289,3.69292,1.00716,0.548277405,-0.52563342,-0.661436295
1764433723.7956753,0.24416,3.61662,1.12924,0.548765685,-0.52563342,-0.66186354
1764433723.7966726,0.24416,3.61662,1.12924,0.548765685,-0.52563342,-0.66186354
1764433723.7966726,0.24416,3.61662,1.12924,0.548765685,-0.52563342,-0.66186354
1764433723.7966726,0.24416,3.61662,1.12924,0.548765685,-0.52563342,-0.66186354
1764433723.7966726,0.24416,3.61662,1.12924,0.548765685,-0.52563342,-0.66186354
1764433723.7966726,0.24416,3.61662,1.12924,0.548765685,-0.52563342,-0.66186354
1764433723.7966726,0.24416,3.61662,1.12924,0.548765685,-0.52563342,-0.66186354
1764433723.7966726,0.24416,3.61662,1.12924,0.548765685,-0.52563342,-0.66186354
1764433723.7966726,0.24416,3.61662,1.12924,0.548765685,-0.52563342,-0.66186354
1764433723.7966726,0.24416,3.61662,1.12924,0.548765685,-0.52563342,-0.66186354
1764433723.8409944,-0.2289,3.79974,0.96138,0.54870465,-0.525328245,-0.66235182
1764433723.8409944,-0.2289,3.79974,0.96138,0.54870465,-0.525328245,-0.66235182
1764433723.8409944,-0.2289,3.79974,0.96138,0.54870465,-0.525328245,-0.66235182
1764433723.8409944,-0.2289,3.79974,0.96138,0.54870465,-0.525328245,-0.66235182
1764433723.8409944,-0.2289,3.79974,0.96138,0.54870465,-0.525328245,-0.66235182
1764433723.8409944,-0.2289,3.79974,0.96138,0.54870465,-0.525328245,-0.66235182
1764433723.8409944,-0.2289,3.79974,0.96138,0.54870465,-0.525328245,-0.66235182
1764433723.8409944,-0.2289,3.79974,0.96138,0.54870465,-0.525328245,-0.66235182
1764433723.8409944,-0.2289,3.79974,0.96138,0.54870465,-0.525328245,-0.66235182
1764433723.8409944,-0.2289,3.79974,0.96138,0.54870465,-0.525328245,-0.66235182
1764433723.8420062,-0.1525999999999999,3.32668,0.8392999999999999,0.54858258,-0.525938595,-0.662168715
1764433723.8420062,-0.1525999999999999,3.32668,0.8392999999999999,0.54858258,-0.525938595,-0.662168715
1764433723.8420062,-0.1525999999999999,3.32668,0.8392999999999999,0.54858258,-0.525938595,-0.662168715
1764433723.8420062,-0.1525999999999999,3.32668,0.8392999999999999,0.54858258,-0.525938595,-0.662168715
1764433723.8420062,-0.1525999999999999,3.32668,0.8392999999999999,0.54858258,-0.525938595,-0.662168715
1764433723.8420062,-0.1525999999999999,3.32668,0.8392999999999999,0.54858258,-0.525938595,-0.662168715
1764433723.8420062,-0.1525999999999999,3.32668,0.8392999999999999,0.54858258,-0.525938595,-0.662168715
1764433723.8420062,-0.1525999999999999,3.32668,0.8392999999999999,0.54858258,-0.525938595,-0.662168715
1764433723.8420062,-0.1525999999999999,3.32668,0.8392999999999999,0.54858258,-0.525938595,-0.662168715
1764433723.8420062,-0.1525999999999999,3.32668,0.8392999999999999,0.54858258,-0.525938595,-0.662168715
1764433723.8420062,-0.03052,3.72344,0.39676,0.54882672,-0.524962035,-0.66259596
1764433723.8420062,-0.03052,3.72344,0.39676,0.54882672,-0.524962035,-0.66259596
1764433723.8420062,-0.03052,3.72344,0.39676,0.54882672,-0.524962035,-0.66259596
1764433723.8420062,-0.03052,3.72344,0.39676,0.54882672,-0.524962035,-0.66259596
1764433723.885136,-0.03052,3.72344,0.39676,0.54882672,-0.524962035,-0.66259596
1764433723.885136,-0.03052,3.72344,0.39676,0.54882672,-0.524962035,-0.66259596
1764433723.885136,-0.03052,3.72344,0.39676,0.54882672,-0.524962035,-0.66259596
1764433723.885136,-0.03052,3.72344,0.39676,0.54882672,-0.524962035,-0.66259596
1764433723.885136,-0.03052,3.72344,0.39676,0.54882672,-0.524962035,-0.66259596
1764433723.885136,-0.03052,3.72344,0.39676,0.54882672,-0.524962035,-0.66259596
1764433723.885136,0.10682,3.64714,0.3204599999999999,0.547789125,-0.52551135,-0.6628401
1764433723.885136,0.10682,3.64714,0.3204599999999999,0.547789125,-0.52551135,-0.6628401
1764433723.885136,0.10682,3.64714,0.3204599999999999,0.547789125,-0.52551135,-0.6628401
1764433723.885136,0.10682,3.64714,0.3204599999999999,0.547789125,-0.52551135,-0.6628401
1764433723.885136,0.10682,3.64714,0.3204599999999999,0.547789125,-0.52551135,-0.6628401
1764433723.885136,0.10682,3.64714,0.3204599999999999,0.547789125,-0.52551135,-0.6628401
1764433723.885136,0.10682,3.64714,0.3204599999999999,0.547789125,-0.52551135,-0.6628401
1764433723.885136,0.10682,3.64714,0.3204599999999999,0.547789125,-0.52551135,-0.6628401
1764433723.885136,0.10682,3.64714,0.3204599999999999,0.547789125,-0.52551135,-0.6628401
1764433723.885136,0.10682,3.64714,0.3204599999999999,0.547789125,-0.52551135,-0.6628401
1764433723.885136,-0.01526,3.98286,0.3815,0.547789125,-0.52563342,-0.66235182
1764433723.885136,-0.01526,3.98286,0.3815,0.547789125,-0.52563342,-0.66235182
1764433723.885136,-0.01526,3.98286,0.3815,0.547789125,-0.52563342,-0.66235182
1764433723.885136,-0.01526,3.98286,0.3815,0.547789125,-0.52563342,-0.66235182
1764433723.885136,-0.01526,3.98286,0.3815,0.547789125,-0.52563342,-0.66235182
1764433723.885136,-0.01526,3.98286,0.3815,0.547789125,-0.52563342,-0.66235182
1764433723.9323597,-0.01526,3.98286,0.3815,0.547789125,-0.52563342,-0.66235182
1764433723.9323597,-0.01526,3.98286,0.3815,0.547789125,-0.52563342,-0.66235182
1764433723.9323597,-0.01526,3.98286,0.3815,0.547789125,-0.52563342,-0.66235182
1764433723.9323597,-0.01526,3.98286,0.3815,0.547789125,-0.52563342,-0.66235182
1764433723.9323597,0.13734,3.63188,0.8087799999999999,0.547667055,-0.52502307,-0.661070085
1764433723.9323597,0.13734,3.63188,0.8087799999999999,0.547667055,-0.52502307,-0.661070085
1764433723.9323597,0.13734,3.63188,0.8087799999999999,0.547667055,-0.52502307,-0.661070085
1764433723.9323597,0.13734,3.63188,0.8087799999999999,0.547667055,-0.52502307,-0.661070085
1764433723.9323597,0.13734,3.63188,0.8087799999999999,0.547667055,-0.52502307,-0.661070085
1764433723.933375,0.13734,3.63188,0.8087799999999999,0.547667055,-0.52502307,-0.661070085
1764433723.933375,0.13734,3.63188,0.8087799999999999,0.547667055,-0.52502307,-0.661070085
1764433723.933375,0.13734,3.63188,0.8087799999999999,0.547667055,-0.52502307,-0.661070085
1764433723.933375,0.13734,3.63188,0.8087799999999999,0.547667055,-0.52502307,-0.661070085
1764433723.933375,0.13734,3.63188,0.8087799999999999,0.547667055,-0.52502307,-0.661070085
1764433723.933375,0.25942,4.15072,0.51884,0.548643615,-0.525084105,-0.660948015
1764433723.933375,0.25942,4.15072,0.51884,0.548643615,-0.525084105,-0.660948015
1764433723.933375,0.25942,4.15072,0.51884,0.548643615,-0.525084105,-0.660948015
1764433723.933375,0.25942,4.15072,0.51884,0.548643615,-0.525084105,-0.660948015
1764433723.933375,0.25942,4.15072,0.51884,0.548643615,-0.525084105,-0.660948015
1764433723.933375,0.25942,4.15072,0.51884,0.548643615,-0.525084105,-0.660948015
1764433723.933375,0.25942,4.15072,0.51884,0.548643615,-0.525084105,-0.660948015
1764433723.933375,0.25942,4.15072,0.51884,0.548643615,-0.525084105,-0.660948015
1764433723.9810858,0.25942,4.15072,0.51884,0.548643615,-0.525084105,-0.660948015
1764433723.9810858,0.25942,4.15072,0.51884,0.548643615,-0.525084105,-0.660948015
1764433723.9810858,0.1678599999999999,3.67766,0.47306,0.547911195,-0.52526721,-0.66174147
1764433723.9810858,0.1678599999999999,3.67766,0.47306,0.547911195,-0.52526721,-0.66174147
1764433723.9810858,0.1678599999999999,3.67766,0.47306,0.547911195,-0.52526721,-0.66174147
1764433723.9810858,0.1678599999999999,3.67766,0.47306,0.547911195,-0.52526721,-0.66174147
1764433723.9810858,0.1678599999999999,3.67766,0.47306,0.547911195,-0.52526721,-0.66174147
1764433723.9810858,0.1678599999999999,3.67766,0.47306,0.547911195,-0.52526721,-0.66174147
1764433723.9810858,0.1678599999999999,3.67766,0.47306,0.547911195,-0.52526721,-0.66174147
1764433723.9810858,0.1678599999999999,3.67766,0.47306,0.547911195,-0.52526721,-0.66174147
1764433723.9810858,0.1678599999999999,3.67766,0.47306,0.547911195,-0.52526721,-0.66174147
1764433723.9810858,0.1678599999999999,3.67766,0.47306,0.547911195,-0.52526721,-0.66174147
1764433723.9815972,0.6103999999999999,4.10494,0.9003399999999999,0.5479722300000001,-0.525816525,-0.661070085
1764433723.9815972,0.6103999999999999,4.10494,0.9003399999999999,0.5479722300000001,-0.525816525,-0.661070085
1764433723.9815972,0.6103999999999999,4.10494,0.9003399999999999,0.5479722300000001,-0.525816525,-0.661070085
1764433723.9815972,0.6103999999999999,4.10494,0.9003399999999999,0.5479722300000001,-0.525816525,-0.661070085
1764433723.9815972,0.6103999999999999,4.10494,0.9003399999999999,0.5479722300000001,-0.525816525,-0.661070085
1764433723.9815972,0.6103999999999999,4.10494,0.9003399999999999,0.5479722300000001,-0.525816525,-0.661070085
1764433723.9815972,0.6103999999999999,4.10494,0.9003399999999999,0.5479722300000001,-0.525816525,-0.661070085
1764433723.9815972,0.6103999999999999,4.10494,0.9003399999999999,0.5479722300000001,-0.525816525,-0.661070085
1764433723.9815972,0.6103999999999999,4.10494,0.9003399999999999,0.5479722300000001,-0.525816525,-0.661070085
1764433723.9815972,0.6103999999999999,4.10494,0.9003399999999999,0.5479722300000001,-0.525816525,-0.661070085
1764433723.9815972,0.6409199999999999,4.1965,0.8698199999999999,0.548155335,-0.52551135,-0.66149733
1764433723.9815972,0.6409199999999999,4.1965,0.8698199999999999,0.548155335,-0.52551135,-0.66149733
1764433724.023548,0.6409199999999999,4.1965,0.8698199999999999,0.548155335,-0.52551135,-0.66149733
1764433724.023548,0.6409199999999999,4.1965,0.8698199999999999,0.548155335,-0.52551135,-0.66149733
1764433724.023548,0.6409199999999999,4.1965,0.8698199999999999,0.548155335,-0.52551135,-0.66149733
1764433724.023548,0.6409199999999999,4.1965,0.8698199999999999,0.548155335,-0.52551135,-0.66149733
1764433724.023548,0.6409199999999999,4.1965,0.8698199999999999,0.548155335,-0.52551135,-0.66149733
1764433724.023548,0.6409199999999999,4.1965,0.8698199999999999,0.548155335,-0.52551135,-0.66149733
1764433724.023548,0.6409199999999999,4.1965,0.8698199999999999,0.548155335,-0.52551135,-0.66149733
1764433724.023548,0.6409199999999999,4.1965,0.8698199999999999,0.548155335,-0.52551135,-0.66149733
1764433724.023548,0.6103999999999999,4.1202,1.03768,0.548643615,-0.52575549,-0.661314225
1764433724.023548,0.6103999999999999,4.1202,1.03768,0.548643615,-0.52575549,-0.661314225
1764433724.023548,0.6103999999999999,4.1202,1.03768,0.548643615,-0.52575549,-0.661314225
1764433724.023548,0.6103999999999999,4.1202,1.03768,0.548643615,-0.52575549,-0.661314225
1764433724.023548,0.6103999999999999,4.1202,1.03768,0.548643615,-0.52575549,-0.661314225
1764433724.023548,0.6103999999999999,4.1202,1.03768,0.548643615,-0.52575549,-0.661314225
1764433724.023548,0.6103999999999999,4.1202,1.03768,0.548643615,-0.52575549,-0.661314225
1764433724.023548,0.6103999999999999,4.1202,1.03768,0.548643615,-0.52575549,-0.661314225
1764433724.023548,0.6103999999999999,4.1202,1.03768,0.548643615,-0.52575549,-0.661314225
1764433724.023548,0.6103999999999999,4.1202,1.03768,0.548643615,-0.52575549,-0.661314225
1764433724.023548,0.59514,3.49454,1.12924,0.549315,-0.526671015,-0.66149733
1764433724.023548,0.59514,3.49454,1.12924,0.549315,-0.526671015,-0.66149733
1764433724.023548,0.59514,3.49454,1.12924,0.549315,-0.526671015,-0.66149733
1764433724.023548,0.59514,3.49454,1.12924,0.549315,-0.526671015,-0.66149733
1764433724.023548,0.59514,3.49454,1.12924,0.549315,-0.526671015,-0.66149733
1764433724.023548,0.59514,3.49454,1.12924,0.549315,-0.526671015,-0.66149733
1764433724.0709765,0.59514,3.49454,1.12924,0.549315,-0.526671015,-0.66149733
1764433724.0720775,0.59514,3.49454,1.12924,0.549315,-0.526671015,-0.66149733
1764433724.0720775,0.59514,3.49454,1.12924,0.549315,-0.526671015,-0.66149733
1764433724.0720775,0.59514,3.49454,1.12924,0.549315,-0.526671015,-0.66149733
1764433724.0730762,0.1678599999999999,3.70818,0.74774,0.54968121,-0.526426875,-0.66174147
1764433724.0730762,0.1678599999999999,3.70818,0.74774,0.54968121,-0.526426875,-0.66174147
1764433724.0730762,0.1678599999999999,3.70818,0.74774,0.54968121,-0.526426875,-0.66174147
1764433724.0730762,0.1678599999999999,3.70818,0.74774,0.54968121,-0.526426875,-0.66174147
1764433724.0730762,0.1678599999999999,3.70818,0.74774,0.54968121,-0.526426875,-0.66174147
1764433724.0730762,0.1678599999999999,3.70818,0.74774,0.54968121,-0.526426875,-0.66174147
1764433724.0730762,0.1678599999999999,3.70818,0.74774,0.54968121,-0.526426875,-0.66174147
1764433724.074093,0.1678599999999999,3.70818,0.74774,0.54968121,-0.526426875,-0.66174147
1764433724.074093,0.1678599999999999,3.70818,0.74774,0.54968121,-0.526426875,-0.66174147
1764433724.074093,0.1678599999999999,3.70818,0.74774,0.54968121,-0.526426875,-0.66174147
1764433724.074093,-0.01526,3.54032,0.50358,0.549864315,-0.526793085,-0.66174147
1764433724.074093,-0.01526,3.54032,0.50358,0.549864315,-0.526793085,-0.66174147
1764433724.074093,-0.01526,3.54032,0.50358,0.549864315,-0.526793085,-0.66174147
1764433724.0750902,-0.01526,3.54032,0.50358,0.549864315,-0.526793085,-0.66174147
1764433724.0750902,-0.01526,3.54032,0.50358,0.549864315,-0.526793085,-0.66174147
1764433724.0750902,-0.01526,3.54032,0.50358,0.549864315,-0.526793085,-0.66174147
1764433724.0750902,-0.01526,3.54032,0.50358,0.549864315,-0.526793085,-0.66174147
1764433724.0750902,-0.01526,3.54032,0.50358,0.549864315,-0.526793085,-0.66174147
1764433724.0750902,-0.01526,3.54032,0.50358,0.549864315,-0.526793085,-0.66174147
1764433724.0750902,-0.01526,3.54032,0.50358,0.549864315,-0.526793085,-0.66174147
1764433724.114851,-0.42728,3.14356,0.50358,0.55004742,-0.526915155,-0.6611921550000001
1764433724.114851,-0.42728,3.14356,0.50358,0.55004742,-0.526915155,-0.6611921550000001
1764433724.114851,-0.42728,3.14356,0.50358,0.55004742,-0.526915155,-0.6611921550000001
1764433724.114851,-0.42728,3.14356,0.50358,0.55004742,-0.526915155,-0.6611921550000001
1764433724.114851,-0.42728,3.14356,0.50358,0.55004742,-0.526915155,-0.6611921550000001
1764433724.114851,-0.42728,3.14356,0.50358,0.55004742,-0.526915155,-0.6611921550000001
1764433724.114851,-0.42728,3.14356,0.50358,0.55004742,-0.526915155,-0.6611921550000001
1764433724.114851,-0.42728,3.14356,0.50358,0.55004742,-0.526915155,-0.6611921550000001
1764433724.114851,-0.42728,3.14356,0.50358,0.55004742,-0.526915155,-0.6611921550000001
1764433724.114851,-0.42728,3.14356,0.50358,0.55004742,-0.526915155,-0.6611921550000001
1764433724.114851,-0.13734,3.90656,0.19838,0.54919293,-0.52697619,-0.660948015
1764433724.114851,-0.13734,3.90656,0.19838,0.54919293,-0.52697619,-0.660948015
1764433724.1158707,-0.13734,3.90656,0.19838,0.54919293,-0.52697619,-0.660948015
1764433724.1158707,-0.13734,3.90656,0.19838,0.54919293,-0.52697619,-0.660948015
1764433724.1158707,-0.13734,3.90656,0.19838,0.54919293,-0.52697619,-0.660948015
1764433724.1158707,-0.13734,3.90656,0.19838,0.54919293,-0.52697619,-0.660948015
1764433724.1158707,-0.13734,3.90656,0.19838,0.54919293,-0.52697619,-0.660948015
1764433724.1158707,-0.13734,3.90656,0.19838,0.54919293,-0.52697619,-0.660948015
1764433724.1158707,-0.13734,3.90656,0.19838,0.54919293,-0.52697619,-0.660948015
1764433724.1158707,-0.13734,3.90656,0.19838,0.54919293,-0.52697619,-0.660948015
1764433724.165352,0.04578,3.83026,0.96138,0.54907086,-0.52685412,-0.660459735
1764433724.165352,0.04578,3.83026,0.96138,0.54907086,-0.52685412,-0.660459735
1764433724.165352,0.04578,3.83026,0.96138,0.54907086,-0.52685412,-0.660459735
1764433724.165352,0.04578,3.83026,0.96138,0.54907086,-0.52685412,-0.660459735
1764433724.165352,0.04578,3.83026,0.96138,0.54907086,-0.52685412,-0.660459735
1764433724.165352,0.04578,3.83026,0.96138,0.54907086,-0.52685412,-0.660459735
1764433724.165352,0.04578,3.83026,0.96138,0.54907086,-0.52685412,-0.660459735
1764433724.165352,0.04578,3.83026,0.96138,0.54907086,-0.52685412,-0.660459735
1764433724.165352,0.04578,3.83026,0.96138,0.54907086,-0.52685412,-0.660459735
1764433724.165352,0.04578,3.83026,0.96138,0.54907086,-0.52685412,-0.660459735
1764433724.165352,0.2289,3.55558,0.6714399999999999,0.54943707,-0.52709826,-0.66076491
1764433724.165352,0.2289,3.55558,0.6714399999999999,0.54943707,-0.52709826,-0.66076491
1764433724.165352,0.2289,3.55558,0.6714399999999999,0.54943707,-0.52709826,-0.66076491
1764433724.165352,0.2289,3.55558,0.6714399999999999,0.54943707,-0.52709826,-0.66076491
1764433724.165352,0.2289,3.55558,0.6714399999999999,0.54943707,-0.52709826,-0.66076491
1764433724.165352,0.2289,3.55558,0.6714399999999999,0.54943707,-0.52709826,-0.66076491
1764433724.165352,0.2289,3.55558,0.6714399999999999,0.54943707,-0.52709826,-0.66076491
1764433724.165352,0.2289,3.55558,0.6714399999999999,0.54943707,-0.52709826,-0.66076491
1764433724.165352,0.2289,3.55558,0.6714399999999999,0.54943707,-0.52709826,-0.66076491
1764433724.165352,0.2289,3.55558,0.6714399999999999,0.54943707,-0.52709826,-0.66076491
1764433724.165352,0.3051999999999999,3.70818,0.51884,0.549620175,-0.52795275,-0.660337665
1764433724.165352,0.3051999999999999,3.70818,0.51884,0.549620175,-0.52795275,-0.660337665
1764433724.165352,0.3051999999999999,3.70818,0.51884,0.549620175,-0.52795275,-0.660337665
1764433724.1663637,0.3051999999999999,3.70818,0.51884,0.549620175,-0.52795275,-0.660337665
1764433724.2099905,0.3051999999999999,3.70818,0.51884,0.549620175,-0.52795275,-0.660337665
1764433724.2099905,0.3051999999999999,3.70818,0.51884,0.549620175,-0.52795275,-0.660337665
1764433724.2099905,0.3051999999999999,3.70818,0.51884,0.549620175,-0.52795275,-0.660337665
1764433724.2099905,0.3051999999999999,3.70818,0.51884,0.549620175,-0.52795275,-0.660337665
1764433724.2099905,0.3051999999999999,3.70818,0.51884,0.549620175,-0.52795275,-0.660337665
1764433724.2099905,0.3051999999999999,3.70818,0.51884,0.549620175,-0.52795275,-0.660337665
1764433724.2099905,3.87604,3.78448,0.97664,0.548887755,-0.528013785,-0.65954421
1764433724.2099905,3.87604,3.78448,0.97664,0.548887755,-0.528013785,-0.65954421
1764433724.2099905,3.87604,3.78448,0.97664,0.548887755,-0.528013785,-0.65954421
1764433724.2099905,3.87604,3.78448,0.97664,0.548887755,-0.528013785,-0.65954421
1764433724.2099905,3.87604,3.78448,0.97664,0.548887755,-0.528013785,-0.65954421
1764433724.2099905,3.87604,3.78448,0.97664,0.548887755,-0.528013785,-0.65954421
1764433724.2099905,3.87604,3.78448,0.97664,0.548887755,-0.528013785,-0.65954421
1764433724.2099905,3.87604,3.78448,0.97664,0.548887755,-0.528013785,-0.65954421
1764433724.2099905,3.87604,3.78448,0.97664,0.548887755,-0.528013785,-0.65954421
1764433724.2099905,3.87604,3.78448,0.97664,0.548887755,-0.528013785,-0.65954421
1764433724.2099905,-0.09156,3.60136,1.08346,0.548765685,-0.527647575,-0.65978835
1764433724.2099905,-0.09156,3.60136,1.08346,0.548765685,-0.527647575,-0.65978835
1764433724.2099905,-0.09156,3.60136,1.08346,0.548765685,-0.527647575,-0.65978835
1764433724.2099905,-0.09156,3.60136,1.08346,0.548765685,-0.527647575,-0.65978835
1764433724.2099905,-0.09156,3.60136,1.08346,0.548765685,-0.527647575,-0.65978835
1764433724.2099905,-0.09156,3.60136,1.08346,0.548765685,-0.527647575,-0.65978835
1764433724.2109857,-0.09156,3.60136,1.08346,0.548765685,-0.527647575,-0.65978835
1764433724.2109857,-0.09156,3.60136,1.08346,0.548765685,-0.527647575,-0.65978835
1764433724.2540329,-0.09156,3.60136,1.08346,0.548765685,-0.527647575,-0.65978835
1764433724.2540329,-0.09156,3.60136,1.08346,0.548765685,-0.527647575,-0.65978835
1764433724.255577,-0.21364,4.08968,0.65618,0.548521545,-0.52746447,-0.659849385
1764433724.255577,-0.21364,4.08968,0.65618,0.548521545,-0.52746447,-0.659849385
1764433724.255577,-0.21364,4.08968,0.65618,0.548521545,-0.52746447,-0.659849385
1764433724.255577,-0.21364,4.08968,0.65618,0.548521545,-0.52746447,-0.659849385
1764433724.255577,-0.21364,4.08968,0.65618,0.548521545,-0.52746447,-0.659849385
1764433724.255577,-0.21364,4.08968,0.65618,0.548521545,-0.52746447,-0.659849385
1764433724.255577,-0.21364,4.08968,0.65618,0.548521545,-0.52746447,-0.659849385
1764433724.255577,-0.21364,4.08968,0.65618,0.548521545,-0.52746447,-0.659849385
1764433724.255577,-0.21364,4.08968,0.65618,0.548521545,-0.52746447,-0.659849385
1764433724.255577,-0.21364,4.08968,0.65618,0.548521545,-0.52746447,-0.659849385
1764433724.255577,-0.27468,3.93708,0.56462,0.54846051,-0.52758654,-0.659483175
1764433724.255577,-0.27468,3.93708,0.56462,0.54846051,-0.52758654,-0.659483175
1764433724.2565868,-0.27468,3.93708,0.56462,0.54846051,-0.52758654,-0.659483175
1764433724.2575932,-0.27468,3.93708,0.56462,0.54846051,-0.52758654,-0.659483175
1764433724.2575932,-0.27468,3.93708,0.56462,0.54846051,-0.52758654,-0.659483175
1764433724.2575932,-0.27468,3.93708,0.56462,0.54846051,-0.52758654,-0.659483175
1764433724.2575932,-0.27468,3.93708,0.56462,0.54846051,-0.52758654,-0.659483175
1764433724.2585878,-0.27468,3.93708,0.56462,0.54846051,-0.52758654,-0.659483175
1764433724.2585878,-0.27468,3.93708,0.56462,0.54846051,-0.52758654,-0.659483175
1764433724.2585878,-0.27468,3.93708,0.56462,0.54846051,-0.52758654,-0.659483175
1764433724.2585878,-0.06104,3.83026,0.93086,0.548155335,-0.527403435,-0.65966628
1764433724.2585878,-0.06104,3.83026,0.93086,0.548155335,-0.527403435,-0.65966628
1764433724.3027103,-0.06104,3.83026,0.93086,0.548155335,-0.527403435,-0.65966628
1764433724.3027103,-0.06104,3.83026,0.93086,0.548155335,-0.527403435,-0.65966628
1764433724.3027103,-0.06104,3.83026,0.93086,0.548155335,-0.527403435,-0.65966628
1764433724.3027103,-0.06104,3.83026,0.93086,0.548155335,-0.527403435,-0.65966628
1764433724.3027103,-0.06104,3.83026,0.93086,0.548155335,-0.527403435,-0.65966628
1764433724.3027103,-0.06104,3.83026,0.93086,0.548155335,-0.527403435,-0.65966628
1764433724.3027103,-0.06104,3.83026,0.93086,0.548155335,-0.527403435,-0.65966628
1764433724.3027103,-0.06104,3.83026,0.93086,0.548155335,-0.527403435,-0.65966628
1764433724.3027103,0.50358,3.86078,0.54936,0.54870465,-0.527769645,-0.65930007
1764433724.3027103,0.50358,3.86078,0.54936,0.54870465,-0.527769645,-0.65930007
1764433724.3027103,0.50358,3.86078,0.54936,0.54870465,-0.527769645,-0.65930007
1764433724.3027103,0.50358,3.86078,0.54936,0.54870465,-0.527769645,-0.65930007
1764433724.3027103,0.50358,3.86078,0.54936,0.54870465,-0.527769645,-0.65930007
1764433724.3027103,0.50358,3.86078,0.54936,0.54870465,-0.527769645,-0.65930007
1764433724.3027103,0.50358,3.86078,0.54936,0.54870465,-0.527769645,-0.65930007
1764433724.3027103,0.50358,3.86078,0.54936,0.54870465,-0.527769645,-0.65930007
1764433724.3027103,0.50358,3.86078,0.54936,0.54870465,-0.527769645,-0.65930007
1764433724.3027103,0.50358,3.86078,0.54936,0.54870465,-0.527769645,-0.65930007
1764433724.3027103,-0.06104,3.11304,0.5341,0.54858258,-0.52795275,-0.6601545600000001
1764433724.3027103,-0.06104,3.11304,0.5341,0.54858258,-0.52795275,-0.6601545600000001
1764433724.303727,-0.06104,3.11304,0.5341,0.54858258,-0.52795275,-0.6601545600000001
1764433724.303727,-0.06104,3.11304,0.5341,0.54858258,-0.52795275,-0.6601545600000001
1764433724.303727,-0.06104,3.11304,0.5341,0.54858258,-0.52795275,-0.6601545600000001
1764433724.303727,-0.06104,3.11304,0.5341,0.54858258,-0.52795275,-0.6601545600000001
1764433724.3495018,-0.06104,3.11304,0.5341,0.54858258,-0.52795275,-0.6601545600000001
1764433724.3495018,-0.06104,3.11304,0.5341,0.54858258,-0.52795275,-0.6601545600000001
1764433724.3495018,-0.06104,3.11304,0.5341,0.54858258,-0.52795275,-0.6601545600000001
1764433724.3495018,-0.06104,3.11304,0.5341,0.54858258,-0.52795275,-0.6601545600000001
1764433724.3495018,-0.48832,3.47928,0.54936,0.549376035,-0.52783068,-0.659483175
1764433724.3495018,-0.48832,3.47928,0.54936,0.549376035,-0.52783068,-0.659483175
1764433724.3495018,-0.48832,3.47928,0.54936,0.549376035,-0.52783068,-0.659483175
1764433724.3495018,-0.48832,3.47928,0.54936,0.549376035,-0.52783068,-0.659483175
1764433724.3495018,-0.48832,3.47928,0.54936,0.549376035,-0.52783068,-0.659483175
1764433724.3495018,-0.48832,3.47928,0.54936,0.549376035,-0.52783068,-0.659483175
1764433724.3495018,-0.48832,3.47928,0.54936,0.549376035,-0.52783068,-0.659483175
1764433724.3495018,-0.48832,3.47928,0.54936,0.549376035,-0.52783068,-0.659483175
1764433724.3495018,-0.48832,3.47928,0.54936,0.549376035,-0.52783068,-0.659483175
1764433724.3495018,-0.48832,3.47928,0.54936,0.549376035,-0.52783068,-0.659483175
1764433724.3495018,-0.48832,3.37246,0.4578,0.548765685,-0.527891715,-0.659239035
1764433724.3495018,-0.48832,3.37246,0.4578,0.548765685,-0.527891715,-0.659239035
1764433724.3495018,-0.48832,3.37246,0.4578,0.548765685,-0.527891715,-0.659239035
1764433724.3495018,-0.48832,3.37246,0.4578,0.548765685,-0.527891715,-0.659239035
1764433724.3495018,-0.48832,3.37246,0.4578,0.548765685,-0.527891715,-0.659239035
1764433724.3495018,-0.48832,3.37246,0.4578,0.548765685,-0.527891715,-0.659239035
1764433724.396963,-0.48832,3.37246,0.4578,0.548765685,-0.527891715,-0.659239035
1764433724.396963,-0.48832,3.37246,0.4578,0.548765685,-0.527891715,-0.659239035
1764433724.396963,-0.48832,3.37246,0.4578,0.548765685,-0.527891715,-0.659239035
1764433724.396963,-0.48832,3.37246,0.4578,0.548765685,-0.527891715,-0.659239035
1764433724.396963,-0.3509799999999999,3.84552,0.4578,0.548521545,-0.528624135,-0.659116965
1764433724.396963,-0.3509799999999999,3.84552,0.4578,0.548521545,-0.528624135,-0.659116965
1764433724.396963,-0.3509799999999999,3.84552,0.4578,0.548521545,-0.528624135,-0.659116965
1764433724.396963,-0.3509799999999999,3.84552,0.4578,0.548521545,-0.528624135,-0.659116965
1764433724.396963,-0.3509799999999999,3.84552,0.4578,0.548521545,-0.528624135,-0.659116965
1764433724.396963,-0.3509799999999999,3.84552,0.4578,0.548521545,-0.528624135,-0.659116965
1764433724.396963,-0.3509799999999999,3.84552,0.4578,0.548521545,-0.528624135,-0.659116965
1764433724.397971,-0.3509799999999999,3.84552,0.4578,0.548521545,-0.528624135,-0.659116965
1764433724.397971,-0.3509799999999999,3.84552,0.4578,0.548521545,-0.528624135,-0.659116965
1764433724.397971,-0.3509799999999999,3.84552,0.4578,0.548521545,-0.528624135,-0.659116965
1764433724.397971,-0.4578,3.60136,0.8392999999999999,0.54919293,-0.52905138,-0.65868972
1764433724.397971,-0.4578,3.60136,0.8392999999999999,0.54919293,-0.52905138,-0.65868972
1764433724.397971,-0.4578,3.60136,0.8392999999999999,0.54919293,-0.52905138,-0.65868972
1764433724.397971,-0.4578,3.60136,0.8392999999999999,0.54919293,-0.52905138,-0.65868972
1764433724.397971,-0.4578,3.60136,0.8392999999999999,0.54919293,-0.52905138,-0.65868972
1764433724.397971,-0.4578,3.60136,0.8392999999999999,0.54919293,-0.52905138,-0.65868972
1764433724.397971,-0.4578,3.60136,0.8392999999999999,0.54919293,-0.52905138,-0.65868972
1764433724.397971,-0.4578,3.60136,0.8392999999999999,0.54919293,-0.52905138,-0.65868972
1764433724.397971,-0.4578,3.60136,0.8392999999999999,0.54919293,-0.52905138,-0.65868972
1764433724.397971,-0.4578,3.60136,0.8392999999999999,0.54919293,-0.52905138,-0.65868972
1764433724.441458,-0.74774,3.44876,0.79352,0.54919293,-0.52844103,-0.65954421
1764433724.441984,-0.74774,3.44876,0.79352,0.54919293,-0.52844103,-0.65954421
1764433724.441984,-0.74774,3.44876,0.79352,0.54919293,-0.52844103,-0.65954421
1764433724.441984,-0.74774,3.44876,0.79352,0.54919293,-0.52844103,-0.65954421
1764433724.441984,-0.74774,3.44876,0.79352,0.54919293,-0.52844103,-0.65954421
1764433724.441984,-0.74774,3.44876,0.79352,0.54919293,-0.52844103,-0.65954421
1764433724.441984,-0.74774,3.44876,0.79352,0.54919293,-0.52844103,-0.65954421
1764433724.441984,-0.74774,3.44876,0.79352,0.54919293,-0.52844103,-0.65954421
1764433724.441984,-0.74774,3.44876,0.79352,0.54919293,-0.52844103,-0.65954421
1764433724.441984,-0.74774,3.44876,0.79352,0.54919293,-0.52844103,-0.65954421
1764433724.441984,-0.79352,3.14356,0.6409199999999999,0.54919293,-0.528746205,-0.659727315
1764433724.441984,-0.79352,3.14356,0.6409199999999999,0.54919293,-0.528746205,-0.659727315
1764433724.441984,-0.79352,3.14356,0.6409199999999999,0.54919293,-0.528746205,-0.659727315
1764433724.441984,-0.79352,3.14356,0.6409199999999999,0.54919293,-0.528746205,-0.659727315
1764433724.441984,-0.79352,3.14356,0.6409199999999999,0.54919293,-0.528746205,-0.659727315
1764433724.441984,-0.79352,3.14356,0.6409199999999999,0.54919293,-0.528746205,-0.659727315
1764433724.441984,-0.79352,3.14356,0.6409199999999999,0.54919293,-0.528746205,-0.659727315
1764433724.441984,-0.79352,3.14356,0.6409199999999999,0.54919293,-0.528746205,-0.659727315
1764433724.441984,-0.79352,3.14356,0.6409199999999999,0.54919293,-0.528746205,-0.659727315
1764433724.441984,-0.79352,3.14356,0.6409199999999999,0.54919293,-0.528746205,-0.659727315
1764433724.441984,-0.54936,3.8913,0.9156,0.54907086,-0.527891715,-0.659239035
1764433724.441984,-0.54936,3.8913,0.9156,0.54907086,-0.527891715,-0.659239035
1764433724.441984,-0.54936,3.8913,0.9156,0.54907086,-0.527891715,-0.659239035
1764433724.441984,-0.54936,3.8913,0.9156,0.54907086,-0.527891715,-0.659239035
1764433724.4909914,-0.54936,3.8913,0.9156,0.54907086,-0.527891715,-0.659239035
1764433724.4909914,-0.54936,3.8913,0.9156,0.54907086,-0.527891715,-0.659239035
1764433724.4909914,-0.54936,3.8913,0.9156,0.54907086,-0.527891715,-0.659239035
1764433724.4909914,-0.54936,3.8913,0.9156,0.54907086,-0.527891715,-0.659239035
1764433724.4909914,-0.54936,3.8913,0.9156,0.54907086,-0.527891715,-0.659239035
1764433724.4909914,-0.54936,3.8913,0.9156,0.54907086,-0.527891715,-0.659239035
1764433724.4909914,0.04578,3.46402,0.6409199999999999,0.549131895,-0.52770861,-0.658872825
1764433724.4909914,0.04578,3.46402,0.6409199999999999,0.549131895,-0.52770861,-0.658872825
1764433724.4909914,0.04578,3.46402,0.6409199999999999,0.549131895,-0.52770861,-0.658872825
1764433724.4909914,0.04578,3.46402,0.6409199999999999,0.549131895,-0.52770861,-0.658872825
1764433724.4909914,0.04578,3.46402,0.6409199999999999,0.549131895,-0.52770861,-0.658872825
1764433724.4909914,0.04578,3.46402,0.6409199999999999,0.549131895,-0.52770861,-0.658872825
1764433724.4909914,0.04578,3.46402,0.6409199999999999,0.549131895,-0.52770861,-0.658872825
1764433724.4909914,0.04578,3.46402,0.6409199999999999,0.549131895,-0.52770861,-0.658872825
1764433724.4909914,0.04578,3.46402,0.6409199999999999,0.549131895,-0.52770861,-0.658872825
1764433724.4909914,0.04578,3.46402,0.6409199999999999,0.549131895,-0.52770861,-0.658872825
1764433724.4909914,0.13734,3.46402,0.39676,0.54943707,-0.527647575,-0.659239035
1764433724.4909914,0.13734,3.46402,0.39676,0.54943707,-0.527647575,-0.659239035
1764433724.4909914,0.13734,3.46402,0.39676,0.54943707,-0.527647575,-0.659239035
1764433724.4909914,0.13734,3.46402,0.39676,0.54943707,-0.527647575,-0.659239035
1764433724.4909914,0.13734,3.46402,0.39676,0.54943707,-0.527647575,-0.659239035
1764433724.4909914,0.13734,3.46402,0.39676,0.54943707,-0.527647575,-0.659239035
1764433724.4909914,0.13734,3.46402,0.39676,0.54943707,-0.527647575,-0.659239035
1764433724.4920042,0.13734,3.46402,0.39676,0.54943707,-0.527647575,-0.659239035
1764433724.5375516,0.13734,3.46402,0.39676,0.54943707,-0.527647575,-0.659239035
1764433724.5375516,0.13734,3.46402,0.39676,0.54943707,-0.527647575,-0.659239035
1764433724.5375516,0.03052,3.61662,0.51884,0.54882672,-0.52795275,-0.65966628
1764433724.5375516,0.03052,3.61662,0.51884,0.54882672,-0.52795275,-0.65966628
1764433724.5375516,0.03052,3.61662,0.51884,0.54882672,-0.52795275,-0.65966628
1764433724.5375516,0.03052,3.61662,0.51884,0.54882672,-0.52795275,-0.65966628
1764433724.5375516,0.03052,3.61662,0.51884,0.54882672,-0.52795275,-0.65966628
1764433724.5375516,0.03052,3.61662,0.51884,0.54882672,-0.52795275,-0.65966628
1764433724.5375516,0.03052,3.61662,0.51884,0.54882672,-0.52795275,-0.65966628
1764433724.5375516,0.03052,3.61662,0.51884,0.54882672,-0.52795275,-0.65966628
1764433724.5375516,0.03052,3.61662,0.51884,0.54882672,-0.52795275,-0.65966628
1764433724.5375516,0.03052,3.61662,0.51884,0.54882672,-0.52795275,-0.65966628
1764433724.5375516,-0.3357199999999999,3.54032,0.48832,0.548521545,-0.528990345,-0.659483175
1764433724.5375516,-0.3357199999999999,3.54032,0.48832,0.548521545,-0.528990345,-0.659483175
1764433724.5375516,-0.3357199999999999,3.54032,0.48832,0.548521545,-0.528990345,-0.659483175
1764433724.5375516,-0.3357199999999999,3.54032,0.48832,0.548521545,-0.528990345,-0.659483175
1764433724.5375516,-0.3357199999999999,3.54032,0.48832,0.548521545,-0.528990345,-0.659483175
1764433724.5375516,-0.3357199999999999,3.54032,0.48832,0.548521545,-0.528990345,-0.659483175
1764433724.5375516,-0.3357199999999999,3.54032,0.48832,0.548521545,-0.528990345,-0.659483175
1764433724.5375516,-0.3357199999999999,3.54032,0.48832,0.548521545,-0.528990345,-0.659483175
1764433724.5375516,-0.3357199999999999,3.54032,0.48832,0.548521545,-0.528990345,-0.659483175
1764433724.5375516,-0.3357199999999999,3.54032,0.48832,0.548521545,-0.528990345,-0.659483175
1764433724.5375516,-0.36624,3.63188,0.62566,0.548521545,-0.528135855,-0.659239035
1764433724.5375516,-0.36624,3.63188,0.62566,0.548521545,-0.528135855,-0.659239035
1764433724.5815885,-0.36624,3.63188,0.62566,0.548521545,-0.528135855,-0.659239035
1764433724.5815885,-0.36624,3.63188,0.62566,0.548521545,-0.528135855,-0.659239035
1764433724.582602,-0.36624,3.63188,0.62566,0.548521545,-0.528135855,-0.659239035
1764433724.582602,-0.36624,3.63188,0.62566,0.548521545,-0.528135855,-0.659239035
1764433724.582602,-0.36624,3.63188,0.62566,0.548521545,-0.528135855,-0.659239035
1764433724.582602,-0.36624,3.63188,0.62566,0.548521545,-0.528135855,-0.659239035
1764433724.583605,-0.36624,3.63188,0.62566,0.548521545,-0.528135855,-0.659239035
1764433724.583605,-0.36624,3.63188,0.62566,0.548521545,-0.528135855,-0.659239035
1764433724.583605,-0.763,3.60136,0.59514,0.54882672,-0.52892931,-0.65978835
1764433724.583605,-0.763,3.60136,0.59514,0.54882672,-0.52892931,-0.65978835
1764433724.583605,-0.763,3.60136,0.59514,0.54882672,-0.52892931,-0.65978835
1764433724.5845978,-0.763,3.60136,0.59514,0.54882672,-0.52892931,-0.65978835
1764433724.5845978,-0.763,3.60136,0.59514,0.54882672,-0.52892931,-0.65978835
1764433724.5845978,-0.763,3.60136,0.59514,0.54882672,-0.52892931,-0.65978835
1764433724.5845978,-0.763,3.60136,0.59514,0.54882672,-0.52892931,-0.65978835
1764433724.5845978,-0.763,3.60136,0.59514,0.54882672,-0.52892931,-0.65978835
1764433724.5855987,-0.763,3.60136,0.59514,0.54882672,-0.52892931,-0.65978835
1764433724.5855987,-0.763,3.60136,0.59514,0.54882672,-0.52892931,-0.65978835
1764433724.5855987,-0.94612,3.75396,0.79352,0.54919293,-0.52831896,-0.659849385
1764433724.5855987,-0.94612,3.75396,0.79352,0.54919293,-0.52831896,-0.659849385
1764433724.5855987,-0.94612,3.75396,0.79352,0.54919293,-0.52831896,-0.659849385
1764433724.5855987,-0.94612,3.75396,0.79352,0.54919293,-0.52831896,-0.659849385
1764433724.6259327,-0.94612,3.75396,0.79352,0.54919293,-0.52831896,-0.659849385
1764433724.6259327,-0.94612,3.75396,0.79352,0.54919293,-0.52831896,-0.659849385
1764433724.6259327,-0.94612,3.75396,0.79352,0.54919293,-0.52831896,-0.659849385
1764433724.6259327,-0.94612,3.75396,0.79352,0.54919293,-0.52831896,-0.659849385
1764433724.6259327,-0.94612,3.75396,0.79352,0.54919293,-0.52831896,-0.659849385
1764433724.6259327,-0.94612,3.75396,0.79352,0.54919293,-0.52831896,-0.659849385
1764433724.6259327,-0.6867,4.08968,0.763,0.54833844,-0.52819689,-0.65905593
1764433724.6259327,-0.6867,4.08968,0.763,0.54833844,-0.52819689,-0.65905593
1764433724.6259327,-0.6867,4.08968,0.763,0.54833844,-0.52819689,-0.65905593
1764433724.6259327,-0.6867,4.08968,0.763,0.54833844,-0.52819689,-0.65905593
1764433724.6259327,-0.6867,4.08968,0.763,0.54833844,-0.52819689,-0.65905593
1764433724.6259327,-0.6867,4.08968,0.763,0.54833844,-0.52819689,-0.65905593
1764433724.6269517,-0.6867,4.08968,0.763,0.54833844,-0.52819689,-0.65905593
1764433724.6269517,-0.6867,4.08968,0.763,0.54833844,-0.52819689,-0.65905593
1764433724.6279516,-0.6867,4.08968,0.763,0.54833844,-0.52819689,-0.65905593
1764433724.6279516,-0.6867,4.08968,0.763,0.54833844,-0.52819689,-0.65905593
1764433724.6279516,-0.19838,3.9676,1.02242,0.54858258,-0.528502065,-0.65844558
1764433724.6279516,-0.19838,3.9676,1.02242,0.54858258,-0.528502065,-0.65844558
1764433724.628949,-0.19838,3.9676,1.02242,0.54858258,-0.528502065,-0.65844558
1764433724.628949,-0.19838,3.9676,1.02242,0.54858258,-0.528502065,-0.65844558
1764433724.628949,-0.19838,3.9676,1.02242,0.54858258,-0.528502065,-0.65844558
1764433724.628949,-0.19838,3.9676,1.02242,0.54858258,-0.528502065,-0.65844558
1764433724.6726413,-0.19838,3.9676,1.02242,0.54858258,-0.528502065,-0.65844558
1764433724.6726413,-0.19838,3.9676,1.02242,0.54858258,-0.528502065,-0.65844558
1764433724.6726413,-0.19838,3.9676,1.02242,0.54858258,-0.528502065,-0.65844558
1764433724.6726413,-0.19838,3.9676,1.02242,0.54858258,-0.528502065,-0.65844558
1764433724.6726413,-0.10682,4.24228,0.77826,0.54943707,-0.52758654,-0.658506615
1764433724.6726413,-0.10682,4.24228,0.77826,0.54943707,-0.52758654,-0.658506615
1764433724.6726413,-0.10682,4.24228,0.77826,0.54943707,-0.52758654,-0.658506615
1764433724.6726413,-0.10682,4.24228,0.77826,0.54943707,-0.52758654,-0.658506615
1764433724.6726413,-0.10682,4.24228,0.77826,0.54943707,-0.52758654,-0.658506615
1764433724.6726413,-0.10682,4.24228,0.77826,0.54943707,-0.52758654,-0.658506615
1764433724.6726413,-0.10682,4.24228,0.77826,0.54943707,-0.52758654,-0.658506615
1764433724.6726413,-0.10682,4.24228,0.77826,0.54943707,-0.52758654,-0.658506615
1764433724.6726413,-0.10682,4.24228,0.77826,0.54943707,-0.52758654,-0.658506615
1764433724.6726413,-0.10682,4.24228,0.77826,0.54943707,-0.52758654,-0.658506615
1764433724.6726413,0.0,4.22702,1.12924,0.549498105,-0.527403435,-0.659178
1764433724.6726413,0.0,4.22702,1.12924,0.549498105,-0.527403435,-0.659178
1764433724.6726413,0.0,4.22702,1.12924,0.549498105,-0.527403435,-0.659178
1764433724.6726413,0.0,4.22702,1.12924,0.549498105,-0.527403435,-0.659178
1764433724.6726413,0.0,4.22702,1.12924,0.549498105,-0.527403435,-0.659178
1764433724.6726413,0.0,4.22702,1.12924,0.549498105,-0.527403435,-0.659178
1764433724.6726413,0.0,4.22702,1.12924,0.549498105,-0.527403435,-0.659178
1764433724.6726413,0.0,4.22702,1.12924,0.549498105,-0.527403435,-0.659178
1764433724.6726413,0.0,4.22702,1.12924,0.549498105,-0.527403435,-0.659178
1764433724.6726413,0.0,4.22702,1.12924,0.549498105,-0.527403435,-0.659178
1764433724.716991,-0.51884,3.64714,0.42728,0.54992535,-0.527769645,-0.659178
1764433724.716991,-0.51884,3.64714,0.42728,0.54992535,-0.527769645,-0.659178
1764433724.716991,-0.51884,3.64714,0.42728,0.54992535,-0.527769645,-0.659178
1764433724.716991,-0.51884,3.64714,0.42728,0.54992535,-0.527769645,-0.659178
1764433724.718014,-0.51884,3.64714,0.42728,0.54992535,-0.527769645,-0.659178
1764433724.718014,-0.51884,3.64714,0.42728,0.54992535,-0.527769645,-0.659178
1764433724.718014,-0.51884,3.64714,0.42728,0.54992535,-0.527769645,-0.659178
1764433724.718014,-0.51884,3.64714,0.42728,0.54992535,-0.527769645,-0.659178
1764433724.718014,-0.51884,3.64714,0.42728,0.54992535,-0.527769645,-0.659178
1764433724.718014,-0.51884,3.64714,0.42728,0.54992535,-0.527769645,-0.659178
1764433724.718014,-0.79352,3.70818,0.44254,0.549315,-0.52819689,-0.65930007
1764433724.718014,-0.79352,3.70818,0.44254,0.549315,-0.52819689,-0.65930007
1764433724.718014,-0.79352,3.70818,0.44254,0.549315,-0.52819689,-0.65930007
1764433724.718014,-0.79352,3.70818,0.44254,0.549315,-0.52819689,-0.65930007
1764433724.718014,-0.79352,3.70818,0.44254,0.549315,-0.52819689,-0.65930007
1764433724.718014,-0.79352,3.70818,0.44254,0.549315,-0.52819689,-0.65930007
1764433724.718014,-0.79352,3.70818,0.44254,0.549315,-0.52819689,-0.65930007
1764433724.718014,-0.79352,3.70818,0.44254,0.549315,-0.52819689,-0.65930007
1764433724.718014,-0.79352,3.70818,0.44254,0.549315,-0.52819689,-0.65930007
1764433724.718014,-0.79352,3.70818,0.44254,0.549315,-0.52819689,-0.65930007
1764433724.718014,-0.96138,3.2046,0.50358,0.549315,-0.52783068,-0.65942214
1764433724.718014,-0.96138,3.2046,0.50358,0.549315,-0.52783068,-0.65942214
1764433724.718014,-0.96138,3.2046,0.50358,0.549315,-0.52783068,-0.65942214
1764433724.718014,-0.96138,3.2046,0.50358,0.549315,-0.52783068,-0.65942214
1764433724.7651567,-0.96138,3.2046,0.50358,0.549315,-0.52783068,-0.65942214
1764433724.7651567,-0.96138,3.2046,0.50358,0.549315,-0.52783068,-0.65942214
1764433724.7651567,-0.96138,3.2046,0.50358,0.549315,-0.52783068,-0.65942214
1764433724.7651567,-0.96138,3.2046,0.50358,0.549315,-0.52783068,-0.65942214
1764433724.7651567,-0.96138,3.2046,0.50358,0.549315,-0.52783068,-0.65942214
1764433724.7651567,-0.96138,3.2046,0.50358,0.549315,-0.52783068,-0.65942214
1764433724.7651567,-1.09872,3.26564,0.65618,0.549376035,-0.52868517,-0.65942214
1764433724.7651567,-1.09872,3.26564,0.65618,0.549376035,-0.52868517,-0.65942214
1764433724.7651567,-1.09872,3.26564,0.65618,0.549376035,-0.52868517,-0.65942214
1764433724.7651567,-1.09872,3.26564,0.65618,0.549376035,-0.52868517,-0.65942214
1764433724.7651567,-1.09872,3.26564,0.65618,0.549376035,-0.52868517,-0.65942214
1764433724.7651567,-1.09872,3.26564,0.65618,0.549376035,-0.52868517,-0.65942214
1764433724.7651567,-1.09872,3.26564,0.65618,0.549376035,-0.52868517,-0.65942214
1764433724.7651567,-1.09872,3.26564,0.65618,0.549376035,-0.52868517,-0.65942214
1764433724.7651567,-1.09872,3.26564,0.65618,0.549376035,-0.52868517,-0.65942214
1764433724.7651567,-1.09872,3.26564,0.65618,0.549376035,-0.52868517,-0.65942214
1764433724.7651567,-1.05294,3.2809,0.5341,0.548643615,-0.52892931,-0.659483175
1764433724.7661688,-1.05294,3.2809,0.5341,0.548643615,-0.52892931,-0.659483175
1764433724.7661688,-1.05294,3.2809,0.5341,0.548643615,-0.52892931,-0.659483175
1764433724.7661688,-1.05294,3.2809,0.5341,0.548643615,-0.52892931,-0.659483175
1764433724.8101285,-1.05294,3.2809,0.5341,0.548643615,-0.52892931,-0.659483175
1764433724.8101285,-1.05294,3.2809,0.5341,0.548643615,-0.52892931,-0.659483175
1764433724.8101285,-1.05294,3.2809,0.5341,0.548643615,-0.52892931,-0.659483175
1764433724.8101285,-1.05294,3.2809,0.5341,0.548643615,-0.52892931,-0.659483175
1764433724.8101285,-1.05294,3.2809,0.5341,0.548643615,-0.52892931,-0.659483175
1764433724.8101285,-1.05294,3.2809,0.5341,0.548643615,-0.52892931,-0.659483175
1764433724.8101285,-0.59514,3.29616,0.27468,0.549376035,-0.528624135,-0.659727315
1764433724.8101285,-0.59514,3.29616,0.27468,0.549376035,-0.528624135,-0.659727315
1764433724.8101285,-0.59514,3.29616,0.27468,0.549376035,-0.528624135,-0.659727315
1764433724.8101285,-0.59514,3.29616,0.27468,0.549376035,-0.528624135,-0.659727315
1764433724.8101285,-0.59514,3.29616,0.27468,0.549376035,-0.528624135,-0.659727315
1764433724.8111477,-0.59514,3.29616,0.27468,0.549376035,-0.528624135,-0.659727315
1764433724.8111477,-0.59514,3.29616,0.27468,0.549376035,-0.528624135,-0.659727315
1764433724.8111477,-0.59514,3.29616,0.27468,0.549376035,-0.528624135,-0.659727315
1764433724.8111477,-0.59514,3.29616,0.27468,0.549376035,-0.528624135,-0.659727315
1764433724.8111477,-0.59514,3.29616,0.27468,0.549376035,-0.528624135,-0.659727315
1764433724.8111477,-0.48832,3.55558,0.8392999999999999,0.549253965,-0.52819689,-0.65978835
1764433724.8111477,-0.48832,3.55558,0.8392999999999999,0.549253965,-0.52819689,-0.65978835
1764433724.811658,-0.48832,3.55558,0.8392999999999999,0.549253965,-0.52819689,-0.65978835
1764433724.811658,-0.48832,3.55558,0.8392999999999999,0.549253965,-0.52819689,-0.65978835
1764433724.811658,-0.48832,3.55558,0.8392999999999999,0.549253965,-0.52819689,-0.65978835
1764433724.811658,-0.48832,3.55558,0.8392999999999999,0.549253965,-0.52819689,-0.65978835
1764433724.811658,-0.48832,3.55558,0.8392999999999999,0.549253965,-0.52819689,-0.65978835
1764433724.811658,-0.48832,3.55558,0.8392999999999999,0.549253965,-0.52819689,-0.65978835
1764433724.8591335,-0.48832,3.55558,0.8392999999999999,0.549253965,-0.52819689,-0.65978835
1764433724.8591335,-0.48832,3.55558,0.8392999999999999,0.549253965,-0.52819689,-0.65978835
1764433724.8591335,-0.6714399999999999,3.63188,0.77826,0.54882672,-0.52709826,-0.65966628
1764433724.8591335,-0.6714399999999999,3.63188,0.77826,0.54882672,-0.52709826,-0.65966628
1764433724.8591335,-0.6714399999999999,3.63188,0.77826,0.54882672,-0.52709826,-0.65966628
1764433724.8591335,-0.6714399999999999,3.63188,0.77826,0.54882672,-0.52709826,-0.65966628
1764433724.8591335,-0.6714399999999999,3.63188,0.77826,0.54882672,-0.52709826,-0.65966628
1764433724.8591335,-0.6714399999999999,3.63188,0.77826,0.54882672,-0.52709826,-0.65966628
1764433724.8591335,-0.6714399999999999,3.63188,0.77826,0.54882672,-0.52709826,-0.65966628
1764433724.8591335,-0.6714399999999999,3.63188,0.77826,0.54882672,-0.52709826,-0.65966628
1764433724.8591335,-0.6714399999999999,3.63188,0.77826,0.54882672,-0.52709826,-0.65966628
1764433724.8591335,-0.6714399999999999,3.63188,0.77826,0.54882672,-0.52709826,-0.65966628
1764433724.8591335,-0.44254,3.70818,1.08346,0.549376035,-0.52795275,-0.659727315
1764433724.8591335,-0.44254,3.70818,1.08346,0.549376035,-0.52795275,-0.659727315
1764433724.8591335,-0.44254,3.70818,1.08346,0.549376035,-0.52795275,-0.659727315
1764433724.8591335,-0.44254,3.70818,1.08346,0.549376035,-0.52795275,-0.659727315
1764433724.8591335,-0.44254,3.70818,1.08346,0.549376035,-0.52795275,-0.659727315
1764433724.8591335,-0.44254,3.70818,1.08346,0.549376035,-0.52795275,-0.659727315
1764433724.8591335,-0.44254,3.70818,1.08346,0.549376035,-0.52795275,-0.659727315
1764433724.8591335,-0.44254,3.70818,1.08346,0.549376035,-0.52795275,-0.659727315
1764433724.8601315,-0.44254,3.70818,1.08346,0.549376035,-0.52795275,-0.659727315
1764433724.8601315,-0.44254,3.70818,1.08346,0.549376035,-0.52795275,-0.659727315
1764433724.8616457,-0.6867,3.8913,0.82404,0.549315,-0.52795275,-0.65966628
1764433724.8616457,-0.6867,3.8913,0.82404,0.549315,-0.52795275,-0.65966628
1764433724.9042816,-0.6867,3.8913,0.82404,0.549315,-0.52795275,-0.65966628
1764433724.9042816,-0.6867,3.8913,0.82404,0.549315,-0.52795275,-0.65966628
1764433724.9042816,-0.6867,3.8913,0.82404,0.549315,-0.52795275,-0.65966628
1764433724.9042816,-0.6867,3.8913,0.82404,0.549315,-0.52795275,-0.65966628
1764433724.9042816,-0.6867,3.8913,0.82404,0.549315,-0.52795275,-0.65966628
1764433724.9042816,-0.6867,3.8913,0.82404,0.549315,-0.52795275,-0.65966628
1764433724.9042816,-0.6867,3.8913,0.82404,0.549315,-0.52795275,-0.65966628
1764433724.9042816,-0.6867,3.8913,0.82404,0.549315,-0.52795275,-0.65966628
1764433724.9053054,-0.74774,3.55558,0.6103999999999999,0.548765685,-0.528257925,-0.65954421
1764433724.9053054,-0.74774,3.55558,0.6103999999999999,0.548765685,-0.528257925,-0.65954421
1764433724.9053054,-0.74774,3.55558,0.6103999999999999,0.548765685,-0.528257925,-0.65954421
1764433724.9053054,-0.74774,3.55558,0.6103999999999999,0.548765685,-0.528257925,-0.65954421
1764433724.9053054,-0.74774,3.55558,0.6103999999999999,0.548765685,-0.528257925,-0.65954421
1764433724.9053054,-0.74774,3.55558,0.6103999999999999,0.548765685,-0.528257925,-0.65954421
1764433724.9053054,-0.74774,3.55558,0.6103999999999999,0.548765685,-0.528257925,-0.65954421
1764433724.9053054,-0.74774,3.55558,0.6103999999999999,0.548765685,-0.528257925,-0.65954421
1764433724.9053054,-0.74774,3.55558,0.6103999999999999,0.548765685,-0.528257925,-0.65954421
1764433724.9053054,-0.74774,3.55558,0.6103999999999999,0.548765685,-0.528257925,-0.65954421
1764433724.9053054,-0.54936,3.29616,0.8698199999999999,0.548643615,-0.52831896,-0.659239035
1764433724.9053054,-0.54936,3.29616,0.8698199999999999,0.548643615,-0.52831896,-0.659239035
1764433724.9063177,-0.54936,3.29616,0.8698199999999999,0.548643615,-0.52831896,-0.659239035
1764433724.9063177,-0.54936,3.29616,0.8698199999999999,0.548643615,-0.52831896,-0.659239035
1764433724.953741,-0.54936,3.29616,0.8698199999999999,0.548643615,-0.52831896,-0.659239035
1764433724.953741,-0.54936,3.29616,0.8698199999999999,0.548643615,-0.52831896,-0.659239035
1764433724.953741,-0.54936,3.29616,0.8698199999999999,0.548643615,-0.52831896,-0.659239035
1764433724.953741,-0.54936,3.29616,0.8698199999999999,0.548643615,-0.52831896,-0.659239035
1764433724.953741,-0.54936,3.29616,0.8698199999999999,0.548643615,-0.52831896,-0.659239035
1764433724.953741,-0.54936,3.29616,0.8698199999999999,0.548643615,-0.52831896,-0.659239035
1764433724.953741,-0.88508,3.5861,0.41202,0.549498105,-0.52966173,-0.65905593
1764433724.953741,-0.88508,3.5861,0.41202,0.549498105,-0.52966173,-0.65905593
1764433724.953741,-0.88508,3.5861,0.41202,0.549498105,-0.52966173,-0.65905593
1764433724.953741,-0.88508,3.5861,0.41202,0.549498105,-0.52966173,-0.65905593
1764433724.953741,-0.88508,3.5861,0.41202,0.549498105,-0.52966173,-0.65905593
1764433724.953741,-0.88508,3.5861,0.41202,0.549498105,-0.52966173,-0.65905593
1764433724.953741,-0.88508,3.5861,0.41202,0.549498105,-0.52966173,-0.65905593
1764433724.953741,-0.88508,3.5861,0.41202,0.549498105,-0.52966173,-0.65905593
1764433724.953741,-0.88508,3.5861,0.41202,0.549498105,-0.52966173,-0.65905593
1764433724.953741,-0.88508,3.5861,0.41202,0.549498105,-0.52966173,-0.65905593
1764433724.953741,-0.9156,3.63188,0.51884,0.549864315,-0.52819689,-0.659483175
1764433724.953741,-0.9156,3.63188,0.51884,0.549864315,-0.52819689,-0.659483175
1764433724.953741,-0.9156,3.63188,0.51884,0.549864315,-0.52819689,-0.659483175
1764433724.953741,-0.9156,3.63188,0.51884,0.549864315,-0.52819689,-0.659483175
1764433724.953741,-0.9156,3.63188,0.51884,0.549864315,-0.52819689,-0.659483175
1764433724.953741,-0.9156,3.63188,0.51884,0.549864315,-0.52819689,-0.659483175
1764433724.953741,-0.9156,3.63188,0.51884,0.549864315,-0.52819689,-0.659483175
1764433724.9547572,-0.9156,3.63188,0.51884,0.549864315,-0.52819689,-0.659483175
1764433724.997777,-0.9156,3.63188,0.51884,0.549864315,-0.52819689,-0.659483175
1764433724.998314,-0.9156,3.63188,0.51884,0.549864315,-0.52819689,-0.659483175
1764433724.998314,-0.8392999999999999,3.052,0.42728,0.549620175,-0.528013785,-0.65966628
1764433724.998314,-0.8392999999999999,3.052,0.42728,0.549620175,-0.528013785,-0.65966628
1764433724.998314,-0.8392999999999999,3.052,0.42728,0.549620175,-0.528013785,-0.65966628
1764433724.998314,-0.8392999999999999,3.052,0.42728,0.549620175,-0.528013785,-0.65966628
1764433724.998314,-0.8392999999999999,3.052,0.42728,0.549620175,-0.528013785,-0.65966628
1764433724.998314,-0.8392999999999999,3.052,0.42728,0.549620175,-0.528013785,-0.65966628
1764433724.998314,-0.8392999999999999,3.052,0.42728,0.549620175,-0.528013785,-0.65966628
1764433724.998314,-0.8392999999999999,3.052,0.42728,0.549620175,-0.528013785,-0.65966628
1764433724.998314,-0.8392999999999999,3.052,0.42728,0.549620175,-0.528013785,-0.65966628
1764433724.998314,-0.8392999999999999,3.052,0.42728,0.549620175,-0.528013785,-0.65966628
1764433724.998314,-1.17502,3.08252,0.56462,0.54907086,-0.52819689,-0.65905593
1764433724.998314,-1.17502,3.08252,0.56462,0.54907086,-0.52819689,-0.65905593
1764433724.998314,-1.17502,3.08252,0.56462,0.54907086,-0.52819689,-0.65905593
1764433724.998314,-1.17502,3.08252,0.56462,0.54907086,-0.52819689,-0.65905593
1764433724.998314,-1.17502,3.08252,0.56462,0.54907086,-0.52819689,-0.65905593
1764433724.998314,-1.17502,3.08252,0.56462,0.54907086,-0.52819689,-0.65905593
1764433724.998314,-1.17502,3.08252,0.56462,0.54907086,-0.52819689,-0.65905593
1764433724.998314,-1.17502,3.08252,0.56462,0.54907086,-0.52819689,-0.65905593
1764433724.998314,-1.17502,3.08252,0.56462,0.54907086,-0.52819689,-0.65905593
1764433724.998314,-1.17502,3.08252,0.56462,0.54907086,-0.52819689,-0.65905593
1764433724.998314,-0.9156,3.52506,0.7019599999999999,0.54870465,-0.5280748200000001,-0.659483175
1764433724.998314,-0.9156,3.52506,0.7019599999999999,0.54870465,-0.5280748200000001,-0.659483175
1764433725.0457652,-0.9156,3.52506,0.7019599999999999,0.54870465,-0.5280748200000001,-0.659483175
1764433725.0457652,-0.9156,3.52506,0.7019599999999999,0.54870465,-0.5280748200000001,-0.659483175
1764433725.0457652,-0.9156,3.52506,0.7019599999999999,0.54870465,-0.5280748200000001,-0.659483175
1764433725.0457652,-0.9156,3.52506,0.7019599999999999,0.54870465,-0.5280748200000001,-0.659483175
1764433725.0457652,-0.9156,3.52506,0.7019599999999999,0.54870465,-0.5280748200000001,-0.659483175
1764433725.0457652,-0.9156,3.52506,0.7019599999999999,0.54870465,-0.5280748200000001,-0.659483175
1764433725.0457652,-0.9156,3.52506,0.7019599999999999,0.54870465,-0.5280748200000001,-0.659483175
1764433725.0457652,-0.9156,3.52506,0.7019599999999999,0.54870465,-0.5280748200000001,-0.659483175
1764433725.0457652,-1.0682,3.47928,1.15976,0.54919293,-0.528013785,-0.659116965
1764433725.0457652,-1.0682,3.47928,1.15976,0.54919293,-0.528013785,-0.659116965
1764433725.0457652,-1.0682,3.47928,1.15976,0.54919293,-0.528013785,-0.659116965
1764433725.0457652,-1.0682,3.47928,1.15976,0.54919293,-0.528013785,-0.659116965
1764433725.0457652,-1.0682,3.47928,1.15976,0.54919293,-0.528013785,-0.659116965
1764433725.0457652,-1.0682,3.47928,1.15976,0.54919293,-0.528013785,-0.659116965
1764433725.0457652,-1.0682,3.47928,1.15976,0.54919293,-0.528013785,-0.659116965
1764433725.0457652,-1.0682,3.47928,1.15976,0.54919293,-0.528013785,-0.659116965
1764433725.0457652,-1.0682,3.47928,1.15976,0.54919293,-0.528013785,-0.659116965
1764433725.0457652,-1.0682,3.47928,1.15976,0.54919293,-0.528013785,-0.659116965
1764433725.0457652,-0.4578,3.1283,0.9919,0.54894879,-0.528257925,-0.659971455
1764433725.046777,-0.4578,3.1283,0.9919,0.54894879,-0.528257925,-0.659971455
1764433725.046777,-0.4578,3.1283,0.9919,0.54894879,-0.528257925,-0.659971455
1764433725.046777,-0.4578,3.1283,0.9919,0.54894879,-0.528257925,-0.659971455
1764433725.089203,-0.4578,3.1283,0.9919,0.54894879,-0.528257925,-0.659971455
1764433725.089203,-0.4578,3.1283,0.9919,0.54894879,-0.528257925,-0.659971455
1764433725.089203,-0.4578,3.1283,0.9919,0.54894879,-0.528257925,-0.659971455
1764433725.089203,-0.4578,3.1283,0.9919,0.54894879,-0.528257925,-0.659971455
1764433725.089203,-0.4578,3.1283,0.9919,0.54894879,-0.528257925,-0.659971455
1764433725.089203,-0.4578,3.1283,0.9919,0.54894879,-0.528257925,-0.659971455
1764433725.089203,-0.79352,3.64714,0.6409199999999999,0.54833844,-0.527891715,-0.6596052450000001
1764433725.089203,-0.79352,3.64714,0.6409199999999999,0.54833844,-0.527891715,-0.6596052450000001
1764433725.089203,-0.79352,3.64714,0.6409199999999999,0.54833844,-0.527891715,-0.6596052450000001
1764433725.089203,-0.79352,3.64714,0.6409199999999999,0.54833844,-0.527891715,-0.6596052450000001
1764433725.089203,-0.79352,3.64714,0.6409199999999999,0.54833844,-0.527891715,-0.6596052450000001
1764433725.089203,-0.79352,3.64714,0.6409199999999999,0.54833844,-0.527891715,-0.6596052450000001
1764433725.089203,-0.79352,3.64714,0.6409199999999999,0.54833844,-0.527891715,-0.6596052450000001
1764433725.089203,-0.79352,3.64714,0.6409199999999999,0.54833844,-0.527891715,-0.6596052450000001
1764433725.089203,-0.79352,3.64714,0.6409199999999999,0.54833844,-0.527891715,-0.6596052450000001
1764433725.089203,-0.79352,3.64714,0.6409199999999999,0.54833844,-0.527891715,-0.6596052450000001
1764433725.089203,-0.51884,3.60136,0.4578,0.54882672,-0.52868517,-0.658994895
1764433725.090743,-0.51884,3.60136,0.4578,0.54882672,-0.52868517,-0.658994895
1764433725.090743,-0.51884,3.60136,0.4578,0.54882672,-0.52868517,-0.658994895
1764433725.090743,-0.51884,3.60136,0.4578,0.54882672,-0.52868517,-0.658994895
1764433725.090743,-0.51884,3.60136,0.4578,0.54882672,-0.52868517,-0.658994895
1764433725.090743,-0.51884,3.60136,0.4578,0.54882672,-0.52868517,-0.658994895
1764433725.090743,-0.51884,3.60136,0.4578,0.54882672,-0.52868517,-0.658994895
1764433725.090743,-0.51884,3.60136,0.4578,0.54882672,-0.52868517,-0.658994895
1764433725.137398,-0.51884,3.60136,0.4578,0.54882672,-0.52868517,-0.658994895
1764433725.137398,-0.51884,3.60136,0.4578,0.54882672,-0.52868517,-0.658994895
1764433725.137398,-0.6867,3.70818,0.3357199999999999,0.549864315,-0.5285631000000001,-0.659239035
1764433725.137398,-0.6867,3.70818,0.3357199999999999,0.549864315,-0.5285631000000001,-0.659239035
1764433725.137398,-0.6867,3.70818,0.3357199999999999,0.549864315,-0.5285631000000001,-0.659239035
1764433725.137398,-0.6867,3.70818,0.3357199999999999,0.549864315,-0.5285631000000001,-0.659239035
1764433725.137398,-0.6867,3.70818,0.3357199999999999,0.549864315,-0.5285631000000001,-0.659239035
1764433725.137398,-0.6867,3.70818,0.3357199999999999,0.549864315,-0.5285631000000001,-0.659239035
1764433725.137398,-0.6867,3.70818,0.3357199999999999,0.549864315,-0.5285631000000001,-0.659239035
1764433725.137398,-0.6867,3.70818,0.3357199999999999,0.549864315,-0.5285631000000001,-0.659239035
1764433725.137398,-0.6867,3.70818,0.3357199999999999,0.549864315,-0.5285631000000001,-0.659239035
1764433725.137398,-0.6867,3.70818,0.3357199999999999,0.549864315,-0.5285631000000001,-0.659239035
1764433725.137398,-0.3204599999999999,3.64714,0.51884,0.549498105,-0.528624135,-0.659483175
1764433725.137398,-0.3204599999999999,3.64714,0.51884,0.549498105,-0.528624135,-0.659483175
1764433725.137398,-0.3204599999999999,3.64714,0.51884,0.549498105,-0.528624135,-0.659483175
1764433725.137398,-0.3204599999999999,3.64714,0.51884,0.549498105,-0.528624135,-0.659483175
1764433725.137398,-0.3204599999999999,3.64714,0.51884,0.549498105,-0.528624135,-0.659483175
1764433725.1389146,-0.3204599999999999,3.64714,0.51884,0.549498105,-0.528624135,-0.659483175
1764433725.1389146,-0.3204599999999999,3.64714,0.51884,0.549498105,-0.528624135,-0.659483175
1764433725.1389146,-0.3204599999999999,3.64714,0.51884,0.549498105,-0.528624135,-0.659483175
1764433725.1389146,-0.3204599999999999,3.64714,0.51884,0.549498105,-0.528624135,-0.659483175
1764433725.1389146,-0.3204599999999999,3.64714,0.51884,0.549498105,-0.528624135,-0.659483175
1764433725.181819,-0.7019599999999999,3.44876,0.19838,0.54968121,-0.528746205,-0.659239035
1764433725.181819,-0.7019599999999999,3.44876,0.19838,0.54968121,-0.528746205,-0.659239035
1764433725.181819,-0.7019599999999999,3.44876,0.19838,0.54968121,-0.528746205,-0.659239035
1764433725.1828446,-0.7019599999999999,3.44876,0.19838,0.54968121,-0.528746205,-0.659239035
1764433725.1828446,-0.7019599999999999,3.44876,0.19838,0.54968121,-0.528746205,-0.659239035
1764433725.1828446,-0.7019599999999999,3.44876,0.19838,0.54968121,-0.528746205,-0.659239035
1764433725.1828446,-0.7019599999999999,3.44876,0.19838,0.54968121,-0.528746205,-0.659239035
1764433725.1841438,-0.7019599999999999,3.44876,0.19838,0.54968121,-0.528746205,-0.659239035
1764433725.1841438,-0.7019599999999999,3.44876,0.19838,0.54968121,-0.528746205,-0.659239035
1764433725.1841438,-0.7019599999999999,3.44876,0.19838,0.54968121,-0.528746205,-0.659239035
1764433725.1841438,-0.763,3.76922,0.56462,0.55004742,-0.528746205,-0.65905593
1764433725.1841438,-0.763,3.76922,0.56462,0.55004742,-0.528746205,-0.65905593
1764433725.1841438,-0.763,3.76922,0.56462,0.55004742,-0.528746205,-0.65905593
1764433725.1841438,-0.763,3.76922,0.56462,0.55004742,-0.528746205,-0.65905593
1764433725.1841438,-0.763,3.76922,0.56462,0.55004742,-0.528746205,-0.65905593
1764433725.1841438,-0.763,3.76922,0.56462,0.55004742,-0.528746205,-0.65905593
1764433725.1841438,-0.763,3.76922,0.56462,0.55004742,-0.528746205,-0.65905593
1764433725.1841438,-0.763,3.76922,0.56462,0.55004742,-0.528746205,-0.65905593
1764433725.1841438,-0.763,3.76922,0.56462,0.55004742,-0.528746205,-0.65905593
1764433725.1841438,-0.763,3.76922,0.56462,0.55004742,-0.528746205,-0.65905593
1764433725.1861367,-0.763,3.41824,0.42728,0.549498105,-0.52880724,-0.65942214
1764433725.1861367,-0.763,3.41824,0.42728,0.549498105,-0.52880724,-0.65942214
1764433725.1861367,-0.763,3.41824,0.42728,0.549498105,-0.52880724,-0.65942214
1764433725.1861367,-0.763,3.41824,0.42728,0.549498105,-0.52880724,-0.65942214
1764433725.229427,-0.763,3.41824,0.42728,0.549498105,-0.52880724,-0.65942214
1764433725.229427,-0.763,3.41824,0.42728,0.549498105,-0.52880724,-0.65942214
1764433725.229427,-0.763,3.41824,0.42728,0.549498105,-0.52880724,-0.65942214
1764433725.229427,-0.763,3.41824,0.42728,0.549498105,-0.52880724,-0.65942214
1764433725.229427,-0.763,3.41824,0.42728,0.549498105,-0.52880724,-0.65942214
1764433725.229427,-0.763,3.41824,0.42728,0.549498105,-0.52880724,-0.65942214
1764433725.229427,-0.56462,3.46402,0.65618,0.549620175,-0.52819689,-0.65966628
1764433725.229427,-0.56462,3.46402,0.65618,0.549620175,-0.52819689,-0.65966628
1764433725.229427,-0.56462,3.46402,0.65618,0.549620175,-0.52819689,-0.65966628
1764433725.229427,-0.56462,3.46402,0.65618,0.549620175,-0.52819689,-0.65966628
1764433725.229427,-0.56462,3.46402,0.65618,0.549620175,-0.52819689,-0.65966628
1764433725.229427,-0.56462,3.46402,0.65618,0.549620175,-0.52819689,-0.65966628
1764433725.2304451,-0.56462,3.46402,0.65618,0.549620175,-0.52819689,-0.65966628
1764433725.2304451,-0.56462,3.46402,0.65618,0.549620175,-0.52819689,-0.65966628
1764433725.2304451,-0.56462,3.46402,0.65618,0.549620175,-0.52819689,-0.65966628
1764433725.2304451,-0.56462,3.46402,0.65618,0.549620175,-0.52819689,-0.65966628
1764433725.2304451,-0.8698199999999999,3.55558,0.8087799999999999,0.549315,-0.528013785,-0.65905593
1764433725.2304451,-0.8698199999999999,3.55558,0.8087799999999999,0.549315,-0.528013785,-0.65905593
1764433725.2304451,-0.8698199999999999,3.55558,0.8087799999999999,0.549315,-0.528013785,-0.65905593
1764433725.2304451,-0.8698199999999999,3.55558,0.8087799999999999,0.549315,-0.528013785,-0.65905593
1764433725.2304451,-0.8698199999999999,3.55558,0.8087799999999999,0.549315,-0.528013785,-0.65905593
1764433725.2304451,-0.8698199999999999,3.55558,0.8087799999999999,0.549315,-0.528013785,-0.65905593
1764433725.2304451,-0.8698199999999999,3.55558,0.8087799999999999,0.549315,-0.528013785,-0.65905593
1764433725.230954,-0.8698199999999999,3.55558,0.8087799999999999,0.549315,-0.528013785,-0.65905593
1764433725.2775948,-0.8698199999999999,3.55558,0.8087799999999999,0.549315,-0.528013785,-0.65905593
1764433725.2781284,-0.8698199999999999,3.55558,0.8087799999999999,0.549315,-0.528013785,-0.65905593
1764433725.2781284,-0.65618,3.5861,0.6714399999999999,0.54882672,-0.5280748200000001,-0.658872825
1764433725.2781284,-0.65618,3.5861,0.6714399999999999,0.54882672,-0.5280748200000001,-0.658872825
1764433725.2781284,-0.65618,3.5861,0.6714399999999999,0.54882672,-0.5280748200000001,-0.658872825
1764433725.2781284,-0.65618,3.5861,0.6714399999999999,0.54882672,-0.5280748200000001,-0.658872825
1764433725.2781284,-0.65618,3.5861,0.6714399999999999,0.54882672,-0.5280748200000001,-0.658872825
1764433725.2781284,-0.65618,3.5861,0.6714399999999999,0.54882672,-0.5280748200000001,-0.658872825
1764433725.2781284,-0.65618,3.5861,0.6714399999999999,0.54882672,-0.5280748200000001,-0.658872825
1764433725.2781284,-0.65618,3.5861,0.6714399999999999,0.54882672,-0.5280748200000001,-0.658872825
1764433725.2781284,-0.65618,3.5861,0.6714399999999999,0.54882672,-0.5280748200000001,-0.658872825
1764433725.2781284,-0.65618,3.5861,0.6714399999999999,0.54882672,-0.5280748200000001,-0.658872825
1764433725.2781284,-0.42728,3.99812,1.00716,0.54894879,-0.52795275,-0.65868972
1764433725.2781284,-0.42728,3.99812,1.00716,0.54894879,-0.52795275,-0.65868972
1764433725.2781284,-0.42728,3.99812,1.00716,0.54894879,-0.52795275,-0.65868972
1764433725.2781284,-0.42728,3.99812,1.00716,0.54894879,-0.52795275,-0.65868972
1764433725.2781284,-0.42728,3.99812,1.00716,0.54894879,-0.52795275,-0.65868972
1764433725.2781284,-0.42728,3.99812,1.00716,0.54894879,-0.52795275,-0.65868972
1764433725.2781284,-0.42728,3.99812,1.00716,0.54894879,-0.52795275,-0.65868972
1764433725.2781284,-0.42728,3.99812,1.00716,0.54894879,-0.52795275,-0.65868972
1764433725.2781284,-0.42728,3.99812,1.00716,0.54894879,-0.52795275,-0.65868972
1764433725.2781284,-0.42728,3.99812,1.00716,0.54894879,-0.52795275,-0.65868972
1764433725.3267446,-0.28994,3.7387,0.44254,0.54907086,-0.5280748200000001,-0.65905593
1764433725.3267446,-0.28994,3.7387,0.44254,0.54907086,-0.5280748200000001,-0.65905593
1764433725.3267446,-0.28994,3.7387,0.44254,0.54907086,-0.5280748200000001,-0.65905593
1764433725.3267446,-0.28994,3.7387,0.44254,0.54907086,-0.5280748200000001,-0.65905593
1764433725.3267446,-0.28994,3.7387,0.44254,0.54907086,-0.5280748200000001,-0.65905593
1764433725.3267446,-0.28994,3.7387,0.44254,0.54907086,-0.5280748200000001,-0.65905593
1764433725.3267446,-0.28994,3.7387,0.44254,0.54907086,-0.5280748200000001,-0.65905593
1764433725.3267446,-0.28994,3.7387,0.44254,0.54907086,-0.5280748200000001,-0.65905593
1764433725.3267446,-0.28994,3.7387,0.44254,0.54907086,-0.5280748200000001,-0.65905593
1764433725.3267446,-0.28994,3.7387,0.44254,0.54907086,-0.5280748200000001,-0.65905593
1764433725.3267446,-0.3204599999999999,3.83026,0.47306,0.549864315,-0.528379995,-0.659178
1764433725.3267446,-0.3204599999999999,3.83026,0.47306,0.549864315,-0.528379995,-0.659178
1764433725.3267446,-0.3204599999999999,3.83026,0.47306,0.549864315,-0.528379995,-0.659178
1764433725.3267446,-0.3204599999999999,3.83026,0.47306,0.549864315,-0.528379995,-0.659178
1764433725.3267446,-0.3204599999999999,3.83026,0.47306,0.549864315,-0.528379995,-0.659178
1764433725.3267446,-0.3204599999999999,3.83026,0.47306,0.549864315,-0.528379995,-0.659178
1764433725.3267446,-0.3204599999999999,3.83026,0.47306,0.549864315,-0.528379995,-0.659178
1764433725.3267446,-0.3204599999999999,3.83026,0.47306,0.549864315,-0.528379995,-0.659178
1764433725.3273883,-0.3204599999999999,3.83026,0.47306,0.549864315,-0.528379995,-0.659178
1764433725.3273883,-0.3204599999999999,3.83026,0.47306,0.549864315,-0.528379995,-0.659178
1764433725.3273883,-1.02242,3.61662,0.9919,0.54980328,-0.5280748200000001,-0.65954421
1764433725.3273883,-1.02242,3.61662,0.9919,0.54980328,-0.5280748200000001,-0.65954421
1764433725.3273883,-1.02242,3.61662,0.9919,0.54980328,-0.5280748200000001,-0.65954421
1764433725.3273883,-1.02242,3.61662,0.9919,0.54980328,-0.5280748200000001,-0.65954421
1764433725.371751,-1.02242,3.61662,0.9919,0.54980328,-0.5280748200000001,-0.65954421
1764433725.371751,-1.02242,3.61662,0.9919,0.54980328,-0.5280748200000001,-0.65954421
1764433725.371751,-1.02242,3.61662,0.9919,0.54980328,-0.5280748200000001,-0.65954421
1764433725.371751,-1.02242,3.61662,0.9919,0.54980328,-0.5280748200000001,-0.65954421
1764433725.3732705,-1.02242,3.61662,0.9919,0.54980328,-0.5280748200000001,-0.65954421
1764433725.3732705,-1.02242,3.61662,0.9919,0.54980328,-0.5280748200000001,-0.65954421
1764433725.3732705,-0.763,3.78448,0.6103999999999999,0.54968121,-0.528502065,-0.65942214
1764433725.3732705,-0.763,3.78448,0.6103999999999999,0.54968121,-0.528502065,-0.65942214
1764433725.3732705,-0.763,3.78448,0.6103999999999999,0.54968121,-0.528502065,-0.65942214
1764433725.3742826,-0.763,3.78448,0.6103999999999999,0.54968121,-0.528502065,-0.65942214
1764433725.3742826,-0.763,3.78448,0.6103999999999999,0.54968121,-0.528502065,-0.65942214
1764433725.3742826,-0.763,3.78448,0.6103999999999999,0.54968121,-0.528502065,-0.65942214
1764433725.3742826,-0.763,3.78448,0.6103999999999999,0.54968121,-0.528502065,-0.65942214
1764433725.3752792,-0.763,3.78448,0.6103999999999999,0.54968121,-0.528502065,-0.65942214
1764433725.3752792,-0.763,3.78448,0.6103999999999999,0.54968121,-0.528502065,-0.65942214
1764433725.3752792,-0.763,3.78448,0.6103999999999999,0.54968121,-0.528502065,-0.65942214
1764433725.3752792,-1.02242,3.18934,0.3051999999999999,0.55004742,-0.528990345,-0.658628685
1764433725.3752792,-1.02242,3.18934,0.3051999999999999,0.55004742,-0.528990345,-0.658628685
1764433725.3752792,-1.02242,3.18934,0.3051999999999999,0.55004742,-0.528990345,-0.658628685
1764433725.3762822,-1.02242,3.18934,0.3051999999999999,0.55004742,-0.528990345,-0.658628685
1764433725.3772798,-1.02242,3.18934,0.3051999999999999,0.55004742,-0.528990345,-0.658628685
1764433725.3772798,-1.02242,3.18934,0.3051999999999999,0.55004742,-0.528990345,-0.658628685
1764433725.3772798,-1.02242,3.18934,0.3051999999999999,0.55004742,-0.528990345,-0.658628685
1764433725.3772798,-1.02242,3.18934,0.3051999999999999,0.55004742,-0.528990345,-0.658628685
1764433725.4168725,-1.02242,3.18934,0.3051999999999999,0.55004742,-0.528990345,-0.658628685
1764433725.4168725,-1.02242,3.18934,0.3051999999999999,0.55004742,-0.528990345,-0.658628685
1764433725.4168725,-0.96138,3.38772,0.3051999999999999,0.54980328,-0.529234485,-0.6580183350000001
1764433725.4168725,-0.96138,3.38772,0.3051999999999999,0.54980328,-0.529234485,-0.6580183350000001
1764433725.4168725,-0.96138,3.38772,0.3051999999999999,0.54980328,-0.529234485,-0.6580183350000001
1764433725.4168725,-0.96138,3.38772,0.3051999999999999,0.54980328,-0.529234485,-0.6580183350000001
1764433725.4168725,-0.96138,3.38772,0.3051999999999999,0.54980328,-0.529234485,-0.6580183350000001
1764433725.4168725,-0.96138,3.38772,0.3051999999999999,0.54980328,-0.529234485,-0.6580183350000001
1764433725.4168725,-0.96138,3.38772,0.3051999999999999,0.54980328,-0.529234485,-0.6580183350000001
1764433725.4168725,-0.96138,3.38772,0.3051999999999999,0.54980328,-0.529234485,-0.6580183350000001
1764433725.418407,-0.96138,3.38772,0.3051999999999999,0.54980328,-0.529234485,-0.6580183350000001
1764433725.418407,-0.96138,3.38772,0.3051999999999999,0.54980328,-0.529234485,-0.6580183350000001
1764433725.418407,-0.74774,3.46402,0.56462,0.549864315,-0.52892931,-0.65832351
1764433725.418407,-0.74774,3.46402,0.56462,0.549864315,-0.52892931,-0.65832351
1764433725.418407,-0.74774,3.46402,0.56462,0.549864315,-0.52892931,-0.65832351
1764433725.418407,-0.74774,3.46402,0.56462,0.549864315,-0.52892931,-0.65832351
1764433725.418407,-0.74774,3.46402,0.56462,0.549864315,-0.52892931,-0.65832351
1764433725.418407,-0.74774,3.46402,0.56462,0.549864315,-0.52892931,-0.65832351
1764433725.418407,-0.74774,3.46402,0.56462,0.549864315,-0.52892931,-0.65832351
1764433725.418407,-0.74774,3.46402,0.56462,0.549864315,-0.52892931,-0.65832351
1764433725.418407,-0.74774,3.46402,0.56462,0.549864315,-0.52892931,-0.65832351
1764433725.418407,-0.74774,3.46402,0.56462,0.549864315,-0.52892931,-0.65832351
1764433725.418407,-0.9003399999999999,3.815,0.39676,0.548887755,-0.52795275,-0.658506615
1764433725.418407,-0.9003399999999999,3.815,0.39676,0.548887755,-0.52795275,-0.658506615
1764433725.465771,-0.9003399999999999,3.815,0.39676,0.548887755,-0.52795275,-0.658506615
1764433725.465771,-0.9003399999999999,3.815,0.39676,0.548887755,-0.52795275,-0.658506615
1764433725.465771,-0.9003399999999999,3.815,0.39676,0.548887755,-0.52795275,-0.658506615
1764433725.465771,-0.9003399999999999,3.815,0.39676,0.548887755,-0.52795275,-0.658506615
1764433725.465771,-0.9003399999999999,3.815,0.39676,0.548887755,-0.52795275,-0.658506615
1764433725.465771,-0.9003399999999999,3.815,0.39676,0.548887755,-0.52795275,-0.658506615
1764433725.465771,-0.9003399999999999,3.815,0.39676,0.548887755,-0.52795275,-0.658506615
1764433725.465771,-0.9003399999999999,3.815,0.39676,0.548887755,-0.52795275,-0.658506615
1764433725.465771,-0.6867,3.67766,1.08346,0.549864315,-0.52831896,-0.65868972
1764433725.465771,-0.6867,3.67766,1.08346,0.549864315,-0.52831896,-0.65868972
1764433725.465771,-0.6867,3.67766,1.08346,0.549864315,-0.52831896,-0.65868972
1764433725.465771,-0.6867,3.67766,1.08346,0.549864315,-0.52831896,-0.65868972
1764433725.465771,-0.6867,3.67766,1.08346,0.549864315,-0.52831896,-0.65868972
1764433725.465771,-0.6867,3.67766,1.08346,0.549864315,-0.52831896,-0.65868972
1764433725.4673045,-0.6867,3.67766,1.08346,0.549864315,-0.52831896,-0.65868972
1764433725.4673045,-0.6867,3.67766,1.08346,0.549864315,-0.52831896,-0.65868972
1764433725.4673045,-0.6867,3.67766,1.08346,0.549864315,-0.52831896,-0.65868972
1764433725.4673045,-0.6867,3.67766,1.08346,0.549864315,-0.52831896,-0.65868972
1764433725.4673045,-0.88508,3.90656,0.73248,0.5490098250000001,-0.527403435,-0.65893386
1764433725.4673045,-0.88508,3.90656,0.73248,0.5490098250000001,-0.527403435,-0.65893386
1764433725.4673045,-0.88508,3.90656,0.73248,0.5490098250000001,-0.527403435,-0.65893386
1764433725.4673045,-0.88508,3.90656,0.73248,0.5490098250000001,-0.527403435,-0.65893386
1764433725.4673045,-0.88508,3.90656,0.73248,0.5490098250000001,-0.527403435,-0.65893386
1764433725.4673045,-0.88508,3.90656,0.73248,0.5490098250000001,-0.527403435,-0.65893386
1764433725.5108826,-0.88508,3.90656,0.73248,0.5490098250000001,-0.527403435,-0.65893386
1764433725.5108826,-0.88508,3.90656,0.73248,0.5490098250000001,-0.527403435,-0.65893386
1764433725.5108826,-0.88508,3.90656,0.73248,0.5490098250000001,-0.527403435,-0.65893386
1764433725.5108826,-0.88508,3.90656,0.73248,0.5490098250000001,-0.527403435,-0.65893386
1764433725.5108826,-1.02242,3.3572,0.44254,0.549498105,-0.528135855,-0.658872825
1764433725.5108826,-1.02242,3.3572,0.44254,0.549498105,-0.528135855,-0.658872825
1764433725.511407,-1.02242,3.3572,0.44254,0.549498105,-0.528135855,-0.658872825
1764433725.511407,-1.02242,3.3572,0.44254,0.549498105,-0.528135855,-0.658872825
1764433725.511407,-1.02242,3.3572,0.44254,0.549498105,-0.528135855,-0.658872825
1764433725.511407,-1.02242,3.3572,0.44254,0.549498105,-0.528135855,-0.658872825
1764433725.511407,-1.02242,3.3572,0.44254,0.549498105,-0.528135855,-0.658872825
1764433725.511407,-1.02242,3.3572,0.44254,0.549498105,-0.528135855,-0.658872825
1764433725.511407,-1.02242,3.3572,0.44254,0.549498105,-0.528135855,-0.658872825
1764433725.511407,-1.02242,3.3572,0.44254,0.549498105,-0.528135855,-0.658872825
1764433725.511407,-1.17502,3.21986,0.85456,0.54968121,-0.528257925,-0.65893386
1764433725.511407,-1.17502,3.21986,0.85456,0.54968121,-0.528257925,-0.65893386
1764433725.511407,-1.17502,3.21986,0.85456,0.54968121,-0.528257925,-0.65893386
1764433725.511407,-1.17502,3.21986,0.85456,0.54968121,-0.528257925,-0.65893386
1764433725.5133045,-1.17502,3.21986,0.85456,0.54968121,-0.528257925,-0.65893386
1764433725.5133045,-1.17502,3.21986,0.85456,0.54968121,-0.528257925,-0.65893386
1764433725.5133045,-1.17502,3.21986,0.85456,0.54968121,-0.528257925,-0.65893386
1764433725.5133045,-1.17502,3.21986,0.85456,0.54968121,-0.528257925,-0.65893386
1764433725.5577292,-1.17502,3.21986,0.85456,0.54968121,-0.528257925,-0.65893386
1764433725.5577292,-1.17502,3.21986,0.85456,0.54968121,-0.528257925,-0.65893386
1764433725.5577292,-1.11398,3.57084,0.5341,0.549315,-0.528013785,-0.658750755
1764433725.5577292,-1.11398,3.57084,0.5341,0.549315,-0.528013785,-0.658750755
1764433725.5577292,-1.11398,3.57084,0.5341,0.549315,-0.528013785,-0.658750755
1764433725.5577292,-1.11398,3.57084,0.5341,0.549315,-0.528013785,-0.658750755
1764433725.5577292,-1.11398,3.57084,0.5341,0.549315,-0.528013785,-0.658750755
1764433725.5577292,-1.11398,3.57084,0.5341,0.549315,-0.528013785,-0.658750755
1764433725.5577292,-1.11398,3.57084,0.5341,0.549315,-0.528013785,-0.658750755
1764433725.5577292,-1.11398,3.57084,0.5341,0.549315,-0.528013785,-0.658750755
1764433725.5577292,-1.11398,3.57084,0.5341,0.549315,-0.528013785,-0.658750755
1764433725.5577292,-1.11398,3.57084,0.5341,0.549315,-0.528013785,-0.658750755
1764433725.5577292,-0.57988,3.63188,0.47306,0.549315,-0.52844103,-0.658506615
1764433725.5577292,-0.57988,3.63188,0.47306,0.549315,-0.52844103,-0.658506615
1764433725.5577292,-0.57988,3.63188,0.47306,0.549315,-0.52844103,-0.658506615
1764433725.5577292,-0.57988,3.63188,0.47306,0.549315,-0.52844103,-0.658506615
1764433725.5577292,-0.57988,3.63188,0.47306,0.549315,-0.52844103,-0.658506615
1764433725.5577292,-0.57988,3.63188,0.47306,0.549315,-0.52844103,-0.658506615
1764433725.5577292,-0.57988,3.63188,0.47306,0.549315,-0.52844103,-0.658506615
1764433725.5577292,-0.57988,3.63188,0.47306,0.549315,-0.52844103,-0.658506615
1764433725.5577292,-0.57988,3.63188,0.47306,0.549315,-0.52844103,-0.658506615
1764433725.5577292,-0.57988,3.63188,0.47306,0.549315,-0.52844103,-0.658506615
1764433725.6061428,-0.73248,3.34194,0.41202,0.54894879,-0.52795275,-0.658140405
1764433725.6061428,-0.73248,3.34194,0.41202,0.54894879,-0.52795275,-0.658140405
1764433725.6061428,-0.73248,3.34194,0.41202,0.54894879,-0.52795275,-0.658140405
1764433725.6061428,-0.73248,3.34194,0.41202,0.54894879,-0.52795275,-0.658140405
1764433725.6061428,-0.73248,3.34194,0.41202,0.54894879,-0.52795275,-0.658140405
1764433725.6061428,-0.73248,3.34194,0.41202,0.54894879,-0.52795275,-0.658140405
1764433725.6061428,-0.73248,3.34194,0.41202,0.54894879,-0.52795275,-0.658140405
1764433725.6061428,-0.73248,3.34194,0.41202,0.54894879,-0.52795275,-0.658140405
1764433725.6061428,-0.73248,3.34194,0.41202,0.54894879,-0.52795275,-0.658140405
1764433725.6061428,-0.73248,3.34194,0.41202,0.54894879,-0.52795275,-0.658140405
1764433725.6061428,-1.03768,3.52506,0.41202,0.5490098250000001,-0.52819689,-0.65905593
1764433725.6061428,-1.03768,3.52506,0.41202,0.5490098250000001,-0.52819689,-0.65905593
1764433725.6061428,-1.03768,3.52506,0.41202,0.5490098250000001,-0.52819689,-0.65905593
1764433725.6061428,-1.03768,3.52506,0.41202,0.5490098250000001,-0.52819689,-0.65905593
1764433725.6061428,-1.03768,3.52506,0.41202,0.5490098250000001,-0.52819689,-0.65905593
1764433725.6061428,-1.03768,3.52506,0.41202,0.5490098250000001,-0.52819689,-0.65905593
1764433725.6061428,-1.03768,3.52506,0.41202,0.5490098250000001,-0.52819689,-0.65905593
1764433725.6061428,-1.03768,3.52506,0.41202,0.5490098250000001,-0.52819689,-0.65905593
1764433725.6071565,-1.03768,3.52506,0.41202,0.5490098250000001,-0.52819689,-0.65905593
1764433725.6071565,-1.03768,3.52506,0.41202,0.5490098250000001,-0.52819689,-0.65905593
1764433725.6071565,-1.55652,3.79974,0.8698199999999999,0.549742245,-0.528135855,-0.659483175
1764433725.6071565,-1.55652,3.79974,0.8698199999999999,0.549742245,-0.528135855,-0.659483175
1764433725.6071565,-1.55652,3.79974,0.8698199999999999,0.549742245,-0.528135855,-0.659483175
1764433725.6071565,-1.55652,3.79974,0.8698199999999999,0.549742245,-0.528135855,-0.659483175
1764433725.650365,-1.55652,3.79974,0.8698199999999999,0.549742245,-0.528135855,-0.659483175
1764433725.650365,-1.55652,3.79974,0.8698199999999999,0.549742245,-0.528135855,-0.659483175
1764433725.650365,-1.55652,3.79974,0.8698199999999999,0.549742245,-0.528135855,-0.659483175
1764433725.650365,-1.55652,3.79974,0.8698199999999999,0.549742245,-0.528135855,-0.659483175
1764433725.650365,-1.55652,3.79974,0.8698199999999999,0.549742245,-0.528135855,-0.659483175
1764433725.650365,-1.55652,3.79974,0.8698199999999999,0.549742245,-0.528135855,-0.659483175
1764433725.651378,-1.526,3.61662,0.04578,0.549742245,-0.52795275,-0.65942214
1764433725.651378,-1.526,3.61662,0.04578,0.549742245,-0.52795275,-0.65942214
1764433725.651378,-1.526,3.61662,0.04578,0.549742245,-0.52795275,-0.65942214
1764433725.651378,-1.526,3.61662,0.04578,0.549742245,-0.52795275,-0.65942214
1764433725.651378,-1.526,3.61662,0.04578,0.549742245,-0.52795275,-0.65942214
1764433725.651378,-1.526,3.61662,0.04578,0.549742245,-0.52795275,-0.65942214
1764433725.651378,-1.526,3.61662,0.04578,0.549742245,-0.52795275,-0.65942214
1764433725.651378,-1.526,3.61662,0.04578,0.549742245,-0.52795275,-0.65942214
1764433725.651378,-1.526,3.61662,0.04578,0.549742245,-0.52795275,-0.65942214
1764433725.651378,-1.526,3.61662,0.04578,0.549742245,-0.52795275,-0.65942214
1764433725.651378,-1.70912,3.75396,0.3204599999999999,0.54943707,-0.528013785,-0.6596052450000001
1764433725.651378,-1.70912,3.75396,0.3204599999999999,0.54943707,-0.528013785,-0.6596052450000001
1764433725.6529272,-1.70912,3.75396,0.3204599999999999,0.54943707,-0.528013785,-0.6596052450000001
1764433725.6529272,-1.70912,3.75396,0.3204599999999999,0.54943707,-0.528013785,-0.6596052450000001
1764433725.6529272,-1.70912,3.75396,0.3204599999999999,0.54943707,-0.528013785,-0.6596052450000001
1764433725.6529272,-1.70912,3.75396,0.3204599999999999,0.54943707,-0.528013785,-0.6596052450000001
1764433725.6539264,-1.70912,3.75396,0.3204599999999999,0.54943707,-0.528013785,-0.6596052450000001
1764433725.6539264,-1.70912,3.75396,0.3204599999999999,0.54943707,-0.528013785,-0.6596052450000001
1764433725.6984024,-1.70912,3.75396,0.3204599999999999,0.54943707,-0.528013785,-0.6596052450000001
1764433725.6984024,-1.70912,3.75396,0.3204599999999999,0.54943707,-0.528013785,-0.6596052450000001
1764433725.6993957,-1.26658,3.2046,0.74774,0.548887755,-0.5285631000000001,-0.659483175
1764433725.6993957,-1.26658,3.2046,0.74774,0.548887755,-0.5285631000000001,-0.659483175
