Timestamp,GyroX,GyroY,GyroZ,AccX,AccY,AccZ
1764435595.0435507,-5.78354,0.7019599999999999,0.2289,0.97253169,-0.16564899,0.09973119
1764435595.0435507,-5.78354,0.7019599999999999,0.2289,0.97253169,-0.16564899,0.09973119
1764435595.0435507,-5.78354,0.7019599999999999,0.2289,0.97253169,-0.16564899,0.09973119
1764435595.0435507,-4.959499999999999,1.17502,-0.56462,0.97326411,-0.16686969,0.10021947
1764435595.0435507,-4.959499999999999,1.17502,-0.56462,0.97326411,-0.16686969,0.10021947
1764435595.0435507,-4.959499999999999,1.17502,-0.56462,0.97326411,-0.16686969,0.10021947
1764435595.0435507,-4.959499999999999,1.17502,-0.56462,0.97326411,-0.16686969,0.10021947
1764435595.0435507,-4.959499999999999,1.17502,-0.56462,0.97326411,-0.16686969,0.10021947
1764435595.0435507,-4.959499999999999,1.17502,-0.56462,0.97326411,-0.16686969,0.10021947
1764435595.0435507,-4.959499999999999,1.17502,-0.56462,0.97326411,-0.16686969,0.10021947
1764435595.0435507,-4.959499999999999,1.17502,-0.56462,0.97326411,-0.16686969,0.10021947
1764435595.0837977,-4.959499999999999,1.17502,-0.56462,0.97326411,-0.16686969,0.10021947
1764435595.0837977,-4.959499999999999,1.17502,-0.56462,0.97326411,-0.16686969,0.10021947
1764435595.0837977,-3.93708,1.72438,-0.5341,0.97326411,-0.16748004,0.10107396
1764435595.0837977,-3.93708,1.72438,-0.5341,0.97326411,-0.16748004,0.10107396
1764435595.0837977,-3.93708,1.72438,-0.5341,0.97326411,-0.16748004,0.10107396
1764435595.0837977,-3.93708,1.72438,-0.5341,0.97326411,-0.16748004,0.10107396
1764435595.0837977,-3.93708,1.72438,-0.5341,0.97326411,-0.16748004,0.10107396
1764435595.0837977,-3.93708,1.72438,-0.5341,0.97326411,-0.16748004,0.10107396
1764435595.0837977,-3.93708,1.72438,-0.5341,0.97326411,-0.16748004,0.10107396
1764435595.0837977,-3.93708,1.72438,-0.5341,0.97326411,-0.16748004,0.10107396
1764435595.0837977,-3.93708,1.72438,-0.5341,0.97326411,-0.16748004,0.10107396
1764435595.0837977,-3.93708,1.72438,-0.5341,0.97326411,-0.16748004,0.10107396
1764435595.0837977,-2.91466,1.84646,-0.62566,0.972348585,-0.167174865,0.101012925
1764435595.0837977,-2.91466,1.84646,-0.62566,0.972348585,-0.167174865,0.101012925
1764435595.084801,-2.91466,1.84646,-0.62566,0.972348585,-0.167174865,0.101012925
1764435595.084801,-2.91466,1.84646,-0.62566,0.972348585,-0.167174865,0.101012925
1764435595.084801,-2.91466,1.84646,-0.62566,0.972348585,-0.167174865,0.101012925
1764435595.084801,-2.91466,1.84646,-0.62566,0.972348585,-0.167174865,0.101012925
1764435595.084801,-2.91466,1.84646,-0.62566,0.972348585,-0.167174865,0.101012925
1764435595.084801,-2.91466,1.84646,-0.62566,0.972348585,-0.167174865,0.101012925
1764435595.1296463,-2.91466,1.84646,-0.62566,0.972348585,-0.167174865,0.101012925
1764435595.1296463,-2.91466,1.84646,-0.62566,0.972348585,-0.167174865,0.101012925
1764435595.1296463,-2.45686,1.32762,-0.6409199999999999,0.97057857,-0.1660152,0.10058568
1764435595.1301565,-2.45686,1.32762,-0.6409199999999999,0.97057857,-0.1660152,0.10058568
1764435595.1301565,-2.45686,1.32762,-0.6409199999999999,0.97057857,-0.1660152,0.10058568
1764435595.1301565,-2.45686,1.32762,-0.6409199999999999,0.97057857,-0.1660152,0.10058568
1764435595.1301565,-2.45686,1.32762,-0.6409199999999999,0.97057857,-0.1660152,0.10058568
1764435595.1301565,-2.45686,1.32762,-0.6409199999999999,0.97057857,-0.1660152,0.10058568
1764435595.1301565,-2.45686,1.32762,-0.6409199999999999,0.97057857,-0.1660152,0.10058568
1764435595.1301565,-2.45686,1.32762,-0.6409199999999999,0.97057857,-0.1660152,0.10058568
1764435595.1301565,-2.45686,1.32762,-0.6409199999999999,0.97057857,-0.1660152,0.10058568
1764435595.1301565,-2.45686,1.32762,-0.6409199999999999,0.97057857,-0.1660152,0.10058568
1764435595.1301565,-1.92276,1.02242,-0.97664,0.97021236,-0.16406208,0.100646715
1764435595.1301565,-1.92276,1.02242,-0.97664,0.97021236,-0.16406208,0.100646715
1764435595.1301565,-1.92276,1.02242,-0.97664,0.97021236,-0.16406208,0.100646715
1764435595.1301565,-1.92276,1.02242,-0.97664,0.97021236,-0.16406208,0.100646715
1764435595.1301565,-1.92276,1.02242,-0.97664,0.97021236,-0.16406208,0.100646715
1764435595.1301565,-1.92276,1.02242,-0.97664,0.97021236,-0.16406208,0.100646715
1764435595.1301565,-1.92276,1.02242,-0.97664,0.97021236,-0.16406208,0.100646715
1764435595.1301565,-1.92276,1.02242,-0.97664,0.97021236,-0.16406208,0.100646715
1764435595.1301565,-1.92276,1.02242,-0.97664,0.97021236,-0.16406208,0.100646715
1764435595.1301565,-1.92276,1.02242,-0.97664,0.97021236,-0.16406208,0.100646715
1764435595.1301565,-1.70912,0.5341,-0.5341,0.97070064,-0.162902415,0.10119603
1764435595.1301565,-1.70912,0.5341,-0.5341,0.97070064,-0.162902415,0.10119603
1764435595.1311774,-1.70912,0.5341,-0.5341,0.97070064,-0.162902415,0.10119603
1764435595.1321828,-1.70912,0.5341,-0.5341,0.97070064,-0.162902415,0.10119603
1764435595.176921,-1.70912,0.5341,-0.5341,0.97070064,-0.162902415,0.10119603
1764435595.176921,-1.70912,0.5341,-0.5341,0.97070064,-0.162902415,0.10119603
1764435595.176921,-1.70912,0.5341,-0.5341,0.97070064,-0.162902415,0.10119603
1764435595.176921,-1.70912,0.5341,-0.5341,0.97070064,-0.162902415,0.10119603
1764435595.176921,-1.70912,0.5341,-0.5341,0.97070064,-0.162902415,0.10119603
1764435595.176921,-1.70912,0.5341,-0.5341,0.97070064,-0.162902415,0.10119603
1764435595.176921,-1.99906,0.25942,-0.6867,0.97192134,-0.16101033,0.100890855
1764435595.176921,-1.99906,0.25942,-0.6867,0.97192134,-0.16101033,0.100890855
1764435595.176921,-1.99906,0.25942,-0.6867,0.97192134,-0.16101033,0.100890855
1764435595.176921,-1.99906,0.25942,-0.6867,0.97192134,-0.16101033,0.100890855
1764435595.176921,-1.99906,0.25942,-0.6867,0.97192134,-0.16101033,0.100890855
1764435595.176921,-1.99906,0.25942,-0.6867,0.97192134,-0.16101033,0.100890855
1764435595.176921,-1.99906,0.25942,-0.6867,0.97192134,-0.16101033,0.100890855
1764435595.177935,-1.99906,0.25942,-0.6867,0.97192134,-0.16101033,0.100890855
1764435595.177935,-1.99906,0.25942,-0.6867,0.97192134,-0.16101033,0.100890855
1764435595.177935,-1.99906,0.25942,-0.6867,0.97192134,-0.16101033,0.100890855
1764435595.177935,-2.79258,0.04578,-0.77826,0.973203075,-0.15881307,0.09997533
1764435595.177935,-2.79258,0.04578,-0.77826,0.973203075,-0.15881307,0.09997533
1764435595.177935,-2.79258,0.04578,-0.77826,0.973203075,-0.15881307,0.09997533
1764435595.177935,-2.79258,0.04578,-0.77826,0.973203075,-0.15881307,0.09997533
1764435595.1789396,-2.79258,0.04578,-0.77826,0.973203075,-0.15881307,0.09997533
1764435595.1789396,-2.79258,0.04578,-0.77826,0.973203075,-0.15881307,0.09997533
1764435595.2201743,-2.79258,0.04578,-0.77826,0.973203075,-0.15881307,0.09997533
1764435595.2201743,-2.79258,0.04578,-0.77826,0.973203075,-0.15881307,0.09997533
1764435595.2201743,-2.79258,0.04578,-0.77826,0.973203075,-0.15881307,0.09997533
1764435595.2211692,-2.79258,0.04578,-0.77826,0.973203075,-0.15881307,0.09997533
1764435595.2211692,-4.2728,-0.1525999999999999,-0.44254,0.9741186,-0.15673788,0.098937735
1764435595.2211692,-4.2728,-0.1525999999999999,-0.44254,0.9741186,-0.15673788,0.098937735
1764435595.2221682,-4.2728,-0.1525999999999999,-0.44254,0.9741186,-0.15673788,0.098937735
1764435595.2221682,-4.2728,-0.1525999999999999,-0.44254,0.9741186,-0.15673788,0.098937735
1764435595.2221682,-4.2728,-0.1525999999999999,-0.44254,0.9741186,-0.15673788,0.098937735
1764435595.2221682,-4.2728,-0.1525999999999999,-0.44254,0.9741186,-0.15673788,0.098937735
1764435595.2231734,-4.2728,-0.1525999999999999,-0.44254,0.9741186,-0.15673788,0.098937735
1764435595.2231734,-4.2728,-0.1525999999999999,-0.44254,0.9741186,-0.15673788,0.098937735
1764435595.2231734,-4.2728,-0.1525999999999999,-0.44254,0.9741186,-0.15673788,0.098937735
1764435595.2241695,-4.2728,-0.1525999999999999,-0.44254,0.9741186,-0.15673788,0.098937735
1764435595.2241695,-6.271859999999999,-0.3509799999999999,-0.03052,0.974057565,-0.155700285,0.098449455
1764435595.2241695,-6.271859999999999,-0.3509799999999999,-0.03052,0.974057565,-0.155700285,0.098449455
1764435595.2241695,-6.271859999999999,-0.3509799999999999,-0.03052,0.974057565,-0.155700285,0.098449455
1764435595.2241695,-6.271859999999999,-0.3509799999999999,-0.03052,0.974057565,-0.155700285,0.098449455
1764435595.2241695,-6.271859999999999,-0.3509799999999999,-0.03052,0.974057565,-0.155700285,0.098449455
1764435595.2241695,-6.271859999999999,-0.3509799999999999,-0.03052,0.974057565,-0.155700285,0.098449455
1764435595.2241695,-6.271859999999999,-0.3509799999999999,-0.03052,0.974057565,-0.155700285,0.098449455
1764435595.2241695,-6.271859999999999,-0.3509799999999999,-0.03052,0.974057565,-0.155700285,0.098449455
1764435595.2241695,-6.271859999999999,-0.3509799999999999,-0.03052,0.974057565,-0.155700285,0.098449455
1764435595.2241695,-6.271859999999999,-0.3509799999999999,-0.03052,0.974057565,-0.155700285,0.098449455
1764435595.2679574,-7.05012,-0.04578,0.48832,0.973325145,-0.1550289,0.097656
1764435595.2689774,-7.05012,-0.04578,0.48832,0.973325145,-0.1550289,0.097656
1764435595.2689774,-7.05012,-0.04578,0.48832,0.973325145,-0.1550289,0.097656
1764435595.2689774,-7.05012,-0.04578,0.48832,0.973325145,-0.1550289,0.097656
1764435595.2689774,-7.05012,-0.04578,0.48832,0.973325145,-0.1550289,0.097656
1764435595.2689774,-7.05012,-0.04578,0.48832,0.973325145,-0.1550289,0.097656
1764435595.2689774,-7.05012,-0.04578,0.48832,0.973325145,-0.1550289,0.097656
1764435595.2689774,-7.05012,-0.04578,0.48832,0.973325145,-0.1550289,0.097656
1764435595.2689774,-7.05012,-0.04578,0.48832,0.973325145,-0.1550289,0.097656
1764435595.2689774,-7.05012,-0.04578,0.48832,0.973325145,-0.1550289,0.097656
1764435595.2689774,-7.691039999999999,0.04578,1.2055399999999998,0.973203075,-0.15612753,0.09704565
1764435595.2689774,-7.691039999999999,0.04578,1.2055399999999998,0.973203075,-0.15612753,0.09704565
1764435595.2689774,-7.691039999999999,0.04578,1.2055399999999998,0.973203075,-0.15612753,0.09704565
1764435595.2689774,-7.691039999999999,0.04578,1.2055399999999998,0.973203075,-0.15612753,0.09704565
1764435595.2689774,-7.691039999999999,0.04578,1.2055399999999998,0.973203075,-0.15612753,0.09704565
1764435595.2689774,-7.691039999999999,0.04578,1.2055399999999998,0.973203075,-0.15612753,0.09704565
1764435595.2689774,-7.691039999999999,0.04578,1.2055399999999998,0.973203075,-0.15612753,0.09704565
1764435595.2689774,-7.691039999999999,0.04578,1.2055399999999998,0.973203075,-0.15612753,0.09704565
1764435595.2689774,-7.691039999999999,0.04578,1.2055399999999998,0.973203075,-0.15612753,0.09704565
1764435595.2689774,-7.691039999999999,0.04578,1.2055399999999998,0.973203075,-0.15612753,0.09704565
1764435595.2689774,-7.59948,0.3204599999999999,1.28184,0.972348585,-0.15881307,0.097839105
1764435595.2689774,-7.59948,0.3204599999999999,1.28184,0.972348585,-0.15881307,0.097839105
1764435595.2689774,-7.59948,0.3204599999999999,1.28184,0.972348585,-0.15881307,0.097839105
1764435595.2689774,-7.59948,0.3204599999999999,1.28184,0.972348585,-0.15881307,0.097839105
1764435595.3131511,-7.59948,0.3204599999999999,1.28184,0.972348585,-0.15881307,0.097839105
1764435595.3136623,-7.59948,0.3204599999999999,1.28184,0.972348585,-0.15881307,0.097839105
1764435595.3136623,-7.59948,0.3204599999999999,1.28184,0.972348585,-0.15881307,0.097839105
1764435595.3136623,-7.59948,0.3204599999999999,1.28184,0.972348585,-0.15881307,0.097839105
1764435595.3136623,-7.59948,0.3204599999999999,1.28184,0.972348585,-0.15881307,0.097839105
1764435595.3136623,-7.59948,0.3204599999999999,1.28184,0.972348585,-0.15881307,0.097839105
1764435595.3136623,-6.9433,0.96138,0.93086,0.972348585,-0.16101033,0.09826635
1764435595.3136623,-6.9433,0.96138,0.93086,0.972348585,-0.16101033,0.09826635
1764435595.3136623,-6.9433,0.96138,0.93086,0.972348585,-0.16101033,0.09826635
1764435595.3136623,-6.9433,0.96138,0.93086,0.972348585,-0.16101033,0.09826635
1764435595.3136623,-6.9433,0.96138,0.93086,0.972348585,-0.16101033,0.09826635
1764435595.3136623,-6.9433,0.96138,0.93086,0.972348585,-0.16101033,0.09826635
1764435595.3136623,-6.9433,0.96138,0.93086,0.972348585,-0.16101033,0.09826635
1764435595.3136623,-6.9433,0.96138,0.93086,0.972348585,-0.16101033,0.09826635
1764435595.314195,-6.9433,0.96138,0.93086,0.972348585,-0.16101033,0.09826635
1764435595.314195,-6.9433,0.96138,0.93086,0.972348585,-0.16101033,0.09826635
1764435595.314195,-5.66146,1.28184,0.42728,0.972348585,-0.16284138,0.09875463
1764435595.314195,-5.66146,1.28184,0.42728,0.972348585,-0.16284138,0.09875463
1764435595.314195,-5.66146,1.28184,0.42728,0.972348585,-0.16284138,0.09875463
1764435595.314195,-5.66146,1.28184,0.42728,0.972348585,-0.16284138,0.09875463
1764435595.314195,-5.66146,1.28184,0.42728,0.972348585,-0.16284138,0.09875463
1764435595.314195,-5.66146,1.28184,0.42728,0.972348585,-0.16284138,0.09875463
1764435595.3593583,-5.66146,1.28184,0.42728,0.972348585,-0.16284138,0.09875463
1764435595.3593583,-5.66146,1.28184,0.42728,0.972348585,-0.16284138,0.09875463
1764435595.3593583,-5.66146,1.28184,0.42728,0.972348585,-0.16284138,0.09875463
1764435595.3593583,-5.66146,1.28184,0.42728,0.972348585,-0.16284138,0.09875463
1764435595.3603556,-4.2728,1.6633399999999998,-0.10682,0.97204341,-0.16455036,0.099548085
1764435595.3603556,-4.2728,1.6633399999999998,-0.10682,0.97204341,-0.16455036,0.099548085
1764435595.3603556,-4.2728,1.6633399999999998,-0.10682,0.97204341,-0.16455036,0.099548085
1764435595.3603556,-4.2728,1.6633399999999998,-0.10682,0.97204341,-0.16455036,0.099548085
1764435595.3613558,-4.2728,1.6633399999999998,-0.10682,0.97204341,-0.16455036,0.099548085
1764435595.3613558,-4.2728,1.6633399999999998,-0.10682,0.97204341,-0.16455036,0.099548085
1764435595.3613558,-4.2728,1.6633399999999998,-0.10682,0.97204341,-0.16455036,0.099548085
1764435595.3613558,-4.2728,1.6633399999999998,-0.10682,0.97204341,-0.16455036,0.099548085
1764435595.3623586,-4.2728,1.6633399999999998,-0.10682,0.97204341,-0.16455036,0.099548085
1764435595.3623586,-4.2728,1.6633399999999998,-0.10682,0.97204341,-0.16455036,0.099548085
1764435595.3623586,-2.31952,2.27374,-0.51884,0.971982375,-0.16735797,0.099548085
1764435595.363357,-2.31952,2.27374,-0.51884,0.971982375,-0.16735797,0.099548085
1764435595.363357,-2.31952,2.27374,-0.51884,0.971982375,-0.16735797,0.099548085
1764435595.363357,-2.31952,2.27374,-0.51884,0.971982375,-0.16735797,0.099548085
1764435595.363357,-2.31952,2.27374,-0.51884,0.971982375,-0.16735797,0.099548085
1764435595.363357,-2.31952,2.27374,-0.51884,0.971982375,-0.16735797,0.099548085
1764435595.3643584,-2.31952,2.27374,-0.51884,0.971982375,-0.16735797,0.099548085
1764435595.3643584,-2.31952,2.27374,-0.51884,0.971982375,-0.16735797,0.099548085
1764435595.4057603,-2.31952,2.27374,-0.51884,0.971982375,-0.16735797,0.099548085
1764435595.4057603,-2.31952,2.27374,-0.51884,0.971982375,-0.16735797,0.099548085
1764435595.4067836,-1.12924,2.01432,-0.3357199999999999,0.972226515,-0.16699176,0.100280505
1764435595.4067836,-1.12924,2.01432,-0.3357199999999999,0.972226515,-0.16699176,0.100280505
1764435595.4067836,-1.12924,2.01432,-0.3357199999999999,0.972226515,-0.16699176,0.100280505
1764435595.4067836,-1.12924,2.01432,-0.3357199999999999,0.972226515,-0.16699176,0.100280505
1764435595.4067836,-1.12924,2.01432,-0.3357199999999999,0.972226515,-0.16699176,0.100280505
1764435595.4078372,-1.12924,2.01432,-0.3357199999999999,0.972226515,-0.16699176,0.100280505
1764435595.4078372,-1.12924,2.01432,-0.3357199999999999,0.972226515,-0.16699176,0.100280505
1764435595.4078372,-1.12924,2.01432,-0.3357199999999999,0.972226515,-0.16699176,0.100280505
1764435595.4078372,-1.12924,2.01432,-0.3357199999999999,0.972226515,-0.16699176,0.100280505
1764435595.4078372,-1.12924,2.01432,-0.3357199999999999,0.972226515,-0.16699176,0.100280505
1764435595.4078372,-0.4578,1.2055399999999998,-0.39676,0.971249955,-0.16467243,0.099303945
1764435595.4078372,-0.4578,1.2055399999999998,-0.39676,0.971249955,-0.16467243,0.099303945
1764435595.4078372,-0.4578,1.2055399999999998,-0.39676,0.971249955,-0.16467243,0.099303945
1764435595.4078372,-0.4578,1.2055399999999998,-0.39676,0.971249955,-0.16467243,0.099303945
1764435595.4078372,-0.4578,1.2055399999999998,-0.39676,0.971249955,-0.16467243,0.099303945
1764435595.4078372,-0.4578,1.2055399999999998,-0.39676,0.971249955,-0.16467243,0.099303945
1764435595.4078372,-0.4578,1.2055399999999998,-0.39676,0.971249955,-0.16467243,0.099303945
1764435595.4078372,-0.4578,1.2055399999999998,-0.39676,0.971249955,-0.16467243,0.099303945
1764435595.4078372,-0.4578,1.2055399999999998,-0.39676,0.971249955,-0.16467243,0.099303945
1764435595.4078372,-0.4578,1.2055399999999998,-0.39676,0.971249955,-0.16467243,0.099303945
1764435595.4078372,-0.5341,0.6409199999999999,-1.0682,0.9728979,-0.16223103,0.09838842
1764435595.4078372,-0.5341,0.6409199999999999,-1.0682,0.9728979,-0.16223103,0.09838842
1764435595.452552,-0.5341,0.6409199999999999,-1.0682,0.9728979,-0.16223103,0.09838842
1764435595.452552,-0.5341,0.6409199999999999,-1.0682,0.9728979,-0.16223103,0.09838842
1764435595.452552,-0.5341,0.6409199999999999,-1.0682,0.9728979,-0.16223103,0.09838842
1764435595.452552,-0.5341,0.6409199999999999,-1.0682,0.9728979,-0.16223103,0.09838842
1764435595.452552,-0.5341,0.6409199999999999,-1.0682,0.9728979,-0.16223103,0.09838842
1764435595.452552,-0.5341,0.6409199999999999,-1.0682,0.9728979,-0.16223103,0.09838842
1764435595.452552,-0.5341,0.6409199999999999,-1.0682,0.9728979,-0.16223103,0.09838842
1764435595.452552,-0.5341,0.6409199999999999,-1.0682,0.9728979,-0.16223103,0.09838842
1764435595.452552,-0.62566,0.50358,-1.05294,0.97497309,-0.160094805,0.09851049
1764435595.452552,-0.62566,0.50358,-1.05294,0.97497309,-0.160094805,0.09851049
1764435595.452552,-0.62566,0.50358,-1.05294,0.97497309,-0.160094805,0.09851049
1764435595.452552,-0.62566,0.50358,-1.05294,0.97497309,-0.160094805,0.09851049
1764435595.4545524,-0.62566,0.50358,-1.05294,0.97497309,-0.160094805,0.09851049
1764435595.4545524,-0.62566,0.50358,-1.05294,0.97497309,-0.160094805,0.09851049
1764435595.4545524,-0.62566,0.50358,-1.05294,0.97497309,-0.160094805,0.09851049
1764435595.4545524,-0.62566,0.50358,-1.05294,0.97497309,-0.160094805,0.09851049
1764435595.4545524,-0.62566,0.50358,-1.05294,0.97497309,-0.160094805,0.09851049
1764435595.4545524,-0.62566,0.50358,-1.05294,0.97497309,-0.160094805,0.09851049
1764435595.4545524,-1.8006799999999998,0.6714399999999999,-1.6022999999999998,0.975400335,-0.15673788,0.09851049
1764435595.4545524,-1.8006799999999998,0.6714399999999999,-1.6022999999999998,0.975400335,-0.15673788,0.09851049
1764435595.4545524,-1.8006799999999998,0.6714399999999999,-1.6022999999999998,0.975400335,-0.15673788,0.09851049
1764435595.4545524,-1.8006799999999998,0.6714399999999999,-1.6022999999999998,0.975400335,-0.15673788,0.09851049
1764435595.4545524,-1.8006799999999998,0.6714399999999999,-1.6022999999999998,0.975400335,-0.15673788,0.09851049
1764435595.4545524,-1.8006799999999998,0.6714399999999999,-1.6022999999999998,0.975400335,-0.15673788,0.09851049
1764435595.50102,-1.8006799999999998,0.6714399999999999,-1.6022999999999998,0.975400335,-0.15673788,0.09851049
1764435595.50102,-1.8006799999999998,0.6714399999999999,-1.6022999999999998,0.975400335,-0.15673788,0.09851049
1764435595.5020823,-1.8006799999999998,0.6714399999999999,-1.6022999999999998,0.975400335,-0.15673788,0.09851049
1764435595.5020823,-1.8006799999999998,0.6714399999999999,-1.6022999999999998,0.975400335,-0.15673788,0.09851049
1764435595.5020823,-2.96044,0.4578,-1.73964,0.974179635,-0.15393027,0.09777807
1764435595.5020823,-2.96044,0.4578,-1.73964,0.974179635,-0.15393027,0.09777807
1764435595.5020823,-2.96044,0.4578,-1.73964,0.974179635,-0.15393027,0.09777807
1764435595.5030837,-2.96044,0.4578,-1.73964,0.974179635,-0.15393027,0.09777807
1764435595.5030837,-2.96044,0.4578,-1.73964,0.974179635,-0.15393027,0.09777807
1764435595.5030837,-2.96044,0.4578,-1.73964,0.974179635,-0.15393027,0.09777807
1764435595.5030837,-2.96044,0.4578,-1.73964,0.974179635,-0.15393027,0.09777807
1764435595.5030837,-2.96044,0.4578,-1.73964,0.974179635,-0.15393027,0.09777807
1764435595.504088,-2.96044,0.4578,-1.73964,0.974179635,-0.15393027,0.09777807
1764435595.504088,-2.96044,0.4578,-1.73964,0.974179635,-0.15393027,0.09777807
1764435595.504088,-4.1965,0.65618,-1.31236,0.972958935,-0.15185508,0.096374265
1764435595.504088,-4.1965,0.65618,-1.31236,0.972958935,-0.15185508,0.096374265
1764435595.504088,-4.1965,0.65618,-1.31236,0.972958935,-0.15185508,0.096374265
1764435595.504088,-4.1965,0.65618,-1.31236,0.972958935,-0.15185508,0.096374265
1764435595.504088,-4.1965,0.65618,-1.31236,0.972958935,-0.15185508,0.096374265
1764435595.504088,-4.1965,0.65618,-1.31236,0.972958935,-0.15185508,0.096374265
1764435595.504088,-4.1965,0.65618,-1.31236,0.972958935,-0.15185508,0.096374265
1764435595.504088,-4.1965,0.65618,-1.31236,0.972958935,-0.15185508,0.096374265
1764435595.504088,-4.1965,0.65618,-1.31236,0.972958935,-0.15185508,0.096374265
1764435595.5050852,-4.1965,0.65618,-1.31236,0.972958935,-0.15185508,0.096374265
1764435595.5444903,-5.82932,0.25942,-0.8392999999999999,0.97253169,-0.152404395,0.096252195
1764435595.5444903,-5.82932,0.25942,-0.8392999999999999,0.97253169,-0.152404395,0.096252195
1764435595.5444903,-5.82932,0.25942,-0.8392999999999999,0.97253169,-0.152404395,0.096252195
1764435595.5444903,-5.82932,0.25942,-0.8392999999999999,0.97253169,-0.152404395,0.096252195
1764435595.5444903,-5.82932,0.25942,-0.8392999999999999,0.97253169,-0.152404395,0.096252195
1764435595.5444903,-5.82932,0.25942,-0.8392999999999999,0.97253169,-0.152404395,0.096252195
1764435595.5444903,-5.82932,0.25942,-0.8392999999999999,0.97253169,-0.152404395,0.096252195
1764435595.5444903,-5.82932,0.25942,-0.8392999999999999,0.97253169,-0.152404395,0.096252195
1764435595.5455024,-5.82932,0.25942,-0.8392999999999999,0.97253169,-0.152404395,0.096252195
1764435595.5465066,-5.82932,0.25942,-0.8392999999999999,0.97253169,-0.152404395,0.096252195
1764435595.5470178,-6.21082,0.41202,-0.3509799999999999,0.972470655,-0.153014745,0.09655737
1764435595.5470178,-6.21082,0.41202,-0.3509799999999999,0.972470655,-0.153014745,0.09655737
1764435595.5470178,-6.21082,0.41202,-0.3509799999999999,0.972470655,-0.153014745,0.09655737
1764435595.5470178,-6.21082,0.41202,-0.3509799999999999,0.972470655,-0.153014745,0.09655737
1764435595.5480328,-6.21082,0.41202,-0.3509799999999999,0.972470655,-0.153014745,0.09655737
1764435595.5480328,-6.21082,0.41202,-0.3509799999999999,0.972470655,-0.153014745,0.09655737
1764435595.548432,-6.21082,0.41202,-0.3509799999999999,0.972470655,-0.153014745,0.09655737
1764435595.5490327,-6.21082,0.41202,-0.3509799999999999,0.972470655,-0.153014745,0.09655737
1764435595.5490327,-6.21082,0.41202,-0.3509799999999999,0.972470655,-0.153014745,0.09655737
1764435595.5490327,-6.21082,0.41202,-0.3509799999999999,0.972470655,-0.153014745,0.09655737
1764435595.5490327,-6.69914,0.57988,0.82404,0.971982375,-0.154479585,0.097106685
1764435595.5490327,-6.69914,0.57988,0.82404,0.971982375,-0.154479585,0.097106685
1764435595.5940635,-6.69914,0.57988,0.82404,0.971982375,-0.154479585,0.097106685
1764435595.5940635,-6.69914,0.57988,0.82404,0.971982375,-0.154479585,0.097106685
1764435595.5940635,-6.69914,0.57988,0.82404,0.971982375,-0.154479585,0.097106685
1764435595.5940635,-6.69914,0.57988,0.82404,0.971982375,-0.154479585,0.097106685
1764435595.5940635,-6.69914,0.57988,0.82404,0.971982375,-0.154479585,0.097106685
1764435595.5940635,-6.69914,0.57988,0.82404,0.971982375,-0.154479585,0.097106685
1764435595.5940635,-6.69914,0.57988,0.82404,0.971982375,-0.154479585,0.097106685
1764435595.5940635,-6.69914,0.57988,0.82404,0.971982375,-0.154479585,0.097106685
1764435595.5940635,-6.76018,0.56462,1.23606,0.972592725,-0.156554775,0.096984615
1764435595.5940635,-6.76018,0.56462,1.23606,0.972592725,-0.156554775,0.096984615
1764435595.5940635,-6.76018,0.56462,1.23606,0.972592725,-0.156554775,0.096984615
1764435595.5940635,-6.76018,0.56462,1.23606,0.972592725,-0.156554775,0.096984615
1764435595.5940635,-6.76018,0.56462,1.23606,0.972592725,-0.156554775,0.096984615
1764435595.5940635,-6.76018,0.56462,1.23606,0.972592725,-0.156554775,0.096984615
1764435595.5940635,-6.76018,0.56462,1.23606,0.972592725,-0.156554775,0.096984615
1764435595.5940635,-6.76018,0.56462,1.23606,0.972592725,-0.156554775,0.096984615
1764435595.5940635,-6.76018,0.56462,1.23606,0.972592725,-0.156554775,0.096984615
1764435595.5940635,-6.76018,0.56462,1.23606,0.972592725,-0.156554775,0.096984615
1764435595.5940635,-6.88226,0.73248,1.08346,0.972592725,-0.15856893,0.096496335
1764435595.5940635,-6.88226,0.73248,1.08346,0.972592725,-0.15856893,0.096496335
1764435595.5940635,-6.88226,0.73248,1.08346,0.972592725,-0.15856893,0.096496335
1764435595.5940635,-6.88226,0.73248,1.08346,0.972592725,-0.15856893,0.096496335
1764435595.6382687,-6.88226,0.73248,1.08346,0.972592725,-0.15856893,0.096496335
1764435595.6382687,-6.88226,0.73248,1.08346,0.972592725,-0.15856893,0.096496335
1764435595.6382687,-6.88226,0.73248,1.08346,0.972592725,-0.15856893,0.096496335
1764435595.6392689,-6.88226,0.73248,1.08346,0.972592725,-0.15856893,0.096496335
1764435595.6392689,-6.88226,0.73248,1.08346,0.972592725,-0.15856893,0.096496335
1764435595.6392689,-6.88226,0.73248,1.08346,0.972592725,-0.15856893,0.096496335
1764435595.6392689,-5.44782,1.78542,1.08346,0.97424067,-0.1611324,0.09753393
1764435595.6392689,-5.44782,1.78542,1.08346,0.97424067,-0.1611324,0.09753393
1764435595.640787,-5.44782,1.78542,1.08346,0.97424067,-0.1611324,0.09753393
1764435595.640787,-5.44782,1.78542,1.08346,0.97424067,-0.1611324,0.09753393
1764435595.640787,-5.44782,1.78542,1.08346,0.97424067,-0.1611324,0.09753393
1764435595.640787,-5.44782,1.78542,1.08346,0.97424067,-0.1611324,0.09753393
1764435595.640787,-5.44782,1.78542,1.08346,0.97424067,-0.1611324,0.09753393
1764435595.640787,-5.44782,1.78542,1.08346,0.97424067,-0.1611324,0.09753393
1764435595.640787,-5.44782,1.78542,1.08346,0.97424067,-0.1611324,0.09753393
1764435595.640787,-5.44782,1.78542,1.08346,0.97424067,-0.1611324,0.09753393
1764435595.640787,-4.28806,2.1364,0.47306,0.974179635,-0.163268625,0.098083245
1764435595.640787,-4.28806,2.1364,0.47306,0.974179635,-0.163268625,0.098083245
1764435595.640787,-4.28806,2.1364,0.47306,0.974179635,-0.163268625,0.098083245
1764435595.640787,-4.28806,2.1364,0.47306,0.974179635,-0.163268625,0.098083245
1764435595.6417997,-4.28806,2.1364,0.47306,0.974179635,-0.163268625,0.098083245
1764435595.6423106,-4.28806,2.1364,0.47306,0.974179635,-0.163268625,0.098083245
1764435595.6423106,-4.28806,2.1364,0.47306,0.974179635,-0.163268625,0.098083245
1764435595.6426475,-4.28806,2.1364,0.47306,0.974179635,-0.163268625,0.098083245
1764435595.682718,-4.28806,2.1364,0.47306,0.974179635,-0.163268625,0.098083245
1764435595.682718,-4.28806,2.1364,0.47306,0.974179635,-0.163268625,0.098083245
1764435595.682718,-3.25038,2.01432,-0.1525999999999999,0.973813425,-0.16381794,0.09863256
1764435595.682718,-3.25038,2.01432,-0.1525999999999999,0.973813425,-0.16381794,0.09863256
1764435595.682718,-3.25038,2.01432,-0.1525999999999999,0.973813425,-0.16381794,0.09863256
1764435595.682718,-3.25038,2.01432,-0.1525999999999999,0.973813425,-0.16381794,0.09863256
1764435595.682718,-3.25038,2.01432,-0.1525999999999999,0.973813425,-0.16381794,0.09863256
1764435595.682718,-3.25038,2.01432,-0.1525999999999999,0.973813425,-0.16381794,0.09863256
1764435595.682718,-3.25038,2.01432,-0.1525999999999999,0.973813425,-0.16381794,0.09863256
1764435595.682718,-3.25038,2.01432,-0.1525999999999999,0.973813425,-0.16381794,0.09863256
1764435595.6837327,-3.25038,2.01432,-0.1525999999999999,0.973813425,-0.16381794,0.09863256
1764435595.6837327,-3.25038,2.01432,-0.1525999999999999,0.973813425,-0.16381794,0.09863256
1764435595.6837327,-2.70102,1.89224,-0.54936,0.97350825,-0.16369587,0.098937735
1764435595.6837327,-2.70102,1.89224,-0.54936,0.97350825,-0.16369587,0.098937735
1764435595.6837327,-2.70102,1.89224,-0.54936,0.97350825,-0.16369587,0.098937735
1764435595.6837327,-2.70102,1.89224,-0.54936,0.97350825,-0.16369587,0.098937735
1764435595.6837327,-2.70102,1.89224,-0.54936,0.97350825,-0.16369587,0.098937735
1764435595.685732,-2.70102,1.89224,-0.54936,0.97350825,-0.16369587,0.098937735
1764435595.685732,-2.70102,1.89224,-0.54936,0.97350825,-0.16369587,0.098937735
1764435595.685732,-2.70102,1.89224,-0.54936,0.97350825,-0.16369587,0.098937735
1764435595.685732,-2.70102,1.89224,-0.54936,0.97350825,-0.16369587,0.098937735
1764435595.685732,-2.70102,1.89224,-0.54936,0.97350825,-0.16369587,0.098937735
1764435595.685732,-1.32762,2.4416,-0.97664,0.97363032,-0.16308552,0.09960912
1764435595.685732,-1.32762,2.4416,-0.97664,0.97363032,-0.16308552,0.09960912
1764435595.7307148,-1.32762,2.4416,-0.97664,0.97363032,-0.16308552,0.09960912
1764435595.7307148,-1.32762,2.4416,-0.97664,0.97363032,-0.16308552,0.09960912
1764435595.7307148,-1.32762,2.4416,-0.97664,0.97363032,-0.16308552,0.09960912
1764435595.7307148,-1.32762,2.4416,-0.97664,0.97363032,-0.16308552,0.09960912
1764435595.7307148,-1.32762,2.4416,-0.97664,0.97363032,-0.16308552,0.09960912
1764435595.7307148,-1.32762,2.4416,-0.97664,0.97363032,-0.16308552,0.09960912
1764435595.7307148,-1.32762,2.4416,-0.97664,0.97363032,-0.16308552,0.09960912
1764435595.7307148,-1.32762,2.4416,-0.97664,0.97363032,-0.16308552,0.09960912
1764435595.7307148,-1.23606,1.6786,-1.19028,0.971494095,-0.16125447,0.099792225
1764435595.7307148,-1.23606,1.6786,-1.19028,0.971494095,-0.16125447,0.099792225
1764435595.7307148,-1.23606,1.6786,-1.19028,0.971494095,-0.16125447,0.099792225
1764435595.7307148,-1.23606,1.6786,-1.19028,0.971494095,-0.16125447,0.099792225
1764435595.7307148,-1.23606,1.6786,-1.19028,0.971494095,-0.16125447,0.099792225
1764435595.7307148,-1.23606,1.6786,-1.19028,0.971494095,-0.16125447,0.099792225
1764435595.7307148,-1.23606,1.6786,-1.19028,0.971494095,-0.16125447,0.099792225
1764435595.7307148,-1.23606,1.6786,-1.19028,0.971494095,-0.16125447,0.099792225
1764435595.7307148,-1.23606,1.6786,-1.19028,0.971494095,-0.16125447,0.099792225
1764435595.7307148,-1.23606,1.6786,-1.19028,0.971494095,-0.16125447,0.099792225
1764435595.7307148,-1.15976,1.17502,-1.15976,0.97106685,-0.15844686,0.09936498
1764435595.7307148,-1.15976,1.17502,-1.15976,0.97106685,-0.15844686,0.09936498
1764435595.7751317,-1.15976,1.17502,-1.15976,0.97106685,-0.15844686,0.09936498
1764435595.7751317,-1.15976,1.17502,-1.15976,0.97106685,-0.15844686,0.09936498
1764435595.7751317,-1.15976,1.17502,-1.15976,0.97106685,-0.15844686,0.09936498
1764435595.7751317,-1.15976,1.17502,-1.15976,0.97106685,-0.15844686,0.09936498
1764435595.7751317,-1.15976,1.17502,-1.15976,0.97106685,-0.15844686,0.09936498
1764435595.7751317,-1.15976,1.17502,-1.15976,0.97106685,-0.15844686,0.09936498
1764435595.7761276,-1.15976,1.17502,-1.15976,0.97106685,-0.15844686,0.09936498
1764435595.7761276,-1.15976,1.17502,-1.15976,0.97106685,-0.15844686,0.09936498
1764435595.7761276,-1.86172,1.17502,-1.4497,0.971005815,-0.155700285,0.099059805
1764435595.7761276,-1.86172,1.17502,-1.4497,0.971005815,-0.155700285,0.099059805
1764435595.7761276,-1.86172,1.17502,-1.4497,0.971005815,-0.155700285,0.099059805
1764435595.7761276,-1.86172,1.17502,-1.4497,0.971005815,-0.155700285,0.099059805
1764435595.7761276,-1.86172,1.17502,-1.4497,0.971005815,-0.155700285,0.099059805
1764435595.7761276,-1.86172,1.17502,-1.4497,0.971005815,-0.155700285,0.099059805
1764435595.7761276,-1.86172,1.17502,-1.4497,0.971005815,-0.155700285,0.099059805
1764435595.7761276,-1.86172,1.17502,-1.4497,0.971005815,-0.155700285,0.099059805
1764435595.7761276,-1.86172,1.17502,-1.4497,0.971005815,-0.155700285,0.099059805
1764435595.7761276,-1.86172,1.17502,-1.4497,0.971005815,-0.155700285,0.099059805
1764435595.7761276,-2.47212,0.5341,-1.05294,0.971982375,-0.153380955,0.09838842
1764435595.7761276,-2.47212,0.5341,-1.05294,0.971982375,-0.153380955,0.09838842
1764435595.7761276,-2.47212,0.5341,-1.05294,0.971982375,-0.153380955,0.09838842
1764435595.7761276,-2.47212,0.5341,-1.05294,0.971982375,-0.153380955,0.09838842
1764435595.7761276,-2.47212,0.5341,-1.05294,0.971982375,-0.153380955,0.09838842
1764435595.7761276,-2.47212,0.5341,-1.05294,0.971982375,-0.153380955,0.09838842
1764435595.8243492,-2.47212,0.5341,-1.05294,0.971982375,-0.153380955,0.09838842
1764435595.8243492,-2.47212,0.5341,-1.05294,0.971982375,-0.153380955,0.09838842
1764435595.8243492,-2.47212,0.5341,-1.05294,0.971982375,-0.153380955,0.09838842
1764435595.8243492,-2.47212,0.5341,-1.05294,0.971982375,-0.153380955,0.09838842
1764435595.8243492,-3.52506,0.19838,-1.35814,0.97338618,-0.152404395,0.09802221
1764435595.8243492,-3.52506,0.19838,-1.35814,0.97338618,-0.152404395,0.09802221
1764435595.8243492,-3.52506,0.19838,-1.35814,0.97338618,-0.152404395,0.09802221
1764435595.8243492,-3.52506,0.19838,-1.35814,0.97338618,-0.152404395,0.09802221
1764435595.8243492,-3.52506,0.19838,-1.35814,0.97338618,-0.152404395,0.09802221
1764435595.825348,-3.52506,0.19838,-1.35814,0.97338618,-0.152404395,0.09802221
1764435595.825348,-3.52506,0.19838,-1.35814,0.97338618,-0.152404395,0.09802221
1764435595.825348,-3.52506,0.19838,-1.35814,0.97338618,-0.152404395,0.09802221
1764435595.825348,-3.52506,0.19838,-1.35814,0.97338618,-0.152404395,0.09802221
1764435595.825348,-3.52506,0.19838,-1.35814,0.97338618,-0.152404395,0.09802221
1764435595.825348,-4.53222,-0.42728,-1.19028,0.974545845,-0.15124473,0.09814428
1764435595.825348,-4.53222,-0.42728,-1.19028,0.974545845,-0.15124473,0.09814428
1764435595.825348,-4.53222,-0.42728,-1.19028,0.974545845,-0.15124473,0.09814428
1764435595.825348,-4.53222,-0.42728,-1.19028,0.974545845,-0.15124473,0.09814428
1764435595.825348,-4.53222,-0.42728,-1.19028,0.974545845,-0.15124473,0.09814428
1764435595.825348,-4.53222,-0.42728,-1.19028,0.974545845,-0.15124473,0.09814428
1764435595.825348,-4.53222,-0.42728,-1.19028,0.974545845,-0.15124473,0.09814428
1764435595.825348,-4.53222,-0.42728,-1.19028,0.974545845,-0.15124473,0.09814428
1764435595.825348,-4.53222,-0.42728,-1.19028,0.974545845,-0.15124473,0.09814428
1764435595.825348,-4.53222,-0.42728,-1.19028,0.974545845,-0.15124473,0.09814428
1764435595.8710368,-5.63094,0.03052,-0.54936,0.975156195,-0.150939555,0.09790014
1764435595.8710368,-5.63094,0.03052,-0.54936,0.975156195,-0.150939555,0.09790014
1764435595.8710368,-5.63094,0.03052,-0.54936,0.975156195,-0.150939555,0.09790014
1764435595.8710368,-5.63094,0.03052,-0.54936,0.975156195,-0.150939555,0.09790014
1764435595.8710368,-5.63094,0.03052,-0.54936,0.975156195,-0.150939555,0.09790014
1764435595.8710368,-5.63094,0.03052,-0.54936,0.975156195,-0.150939555,0.09790014
1764435595.8710368,-5.63094,0.03052,-0.54936,0.975156195,-0.150939555,0.09790014
1764435595.8710368,-5.63094,0.03052,-0.54936,0.975156195,-0.150939555,0.09790014
1764435595.8710368,-5.63094,0.03052,-0.54936,0.975156195,-0.150939555,0.09790014
1764435595.8710368,-5.63094,0.03052,-0.54936,0.975156195,-0.150939555,0.09790014
1764435595.8710368,-6.83648,-0.1678599999999999,0.10682,0.974667915,-0.151183695,0.09704565
1764435595.8710368,-6.83648,-0.1678599999999999,0.10682,0.974667915,-0.151183695,0.09704565
1764435595.8710368,-6.83648,-0.1678599999999999,0.10682,0.974667915,-0.151183695,0.09704565
1764435595.8710368,-6.83648,-0.1678599999999999,0.10682,0.974667915,-0.151183695,0.09704565
1764435595.8710368,-6.83648,-0.1678599999999999,0.10682,0.974667915,-0.151183695,0.09704565
1764435595.8710368,-6.83648,-0.1678599999999999,0.10682,0.974667915,-0.151183695,0.09704565
1764435595.8710368,-6.83648,-0.1678599999999999,0.10682,0.974667915,-0.151183695,0.09704565
1764435595.8710368,-6.83648,-0.1678599999999999,0.10682,0.974667915,-0.151183695,0.09704565
1764435595.8710368,-6.83648,-0.1678599999999999,0.10682,0.974667915,-0.151183695,0.09704565
1764435595.8710368,-6.83648,-0.1678599999999999,0.10682,0.974667915,-0.151183695,0.09704565
1764435595.8710368,-7.73682,0.3509799999999999,0.79352,0.975034125,-0.15124473,0.096740475
1764435595.8710368,-7.73682,0.3509799999999999,0.79352,0.975034125,-0.15124473,0.096740475
1764435595.8710368,-7.73682,0.3509799999999999,0.79352,0.975034125,-0.15124473,0.096740475
1764435595.8710368,-7.73682,0.3509799999999999,0.79352,0.975034125,-0.15124473,0.096740475
1764435595.91607,-7.73682,0.3509799999999999,0.79352,0.975034125,-0.15124473,0.096740475
1764435595.9170575,-7.73682,0.3509799999999999,0.79352,0.975034125,-0.15124473,0.096740475
1764435595.9170575,-7.73682,0.3509799999999999,0.79352,0.975034125,-0.15124473,0.096740475
1764435595.9170575,-7.73682,0.3509799999999999,0.79352,0.975034125,-0.15124473,0.096740475
1764435595.9170575,-7.73682,0.3509799999999999,0.79352,0.975034125,-0.15124473,0.096740475
1764435595.9170575,-7.73682,0.3509799999999999,0.79352,0.975034125,-0.15124473,0.096740475
1764435595.9170575,-7.645259999999999,0.9003399999999999,1.61756,0.974545845,-0.15295371,0.096374265
1764435595.9170575,-7.645259999999999,0.9003399999999999,1.61756,0.974545845,-0.15295371,0.096374265
1764435595.9170575,-7.645259999999999,0.9003399999999999,1.61756,0.974545845,-0.15295371,0.096374265
1764435595.9170575,-7.645259999999999,0.9003399999999999,1.61756,0.974545845,-0.15295371,0.096374265
1764435595.9170575,-7.645259999999999,0.9003399999999999,1.61756,0.974545845,-0.15295371,0.096374265
1764435595.9170575,-7.645259999999999,0.9003399999999999,1.61756,0.974545845,-0.15295371,0.096374265
1764435595.9170575,-7.645259999999999,0.9003399999999999,1.61756,0.974545845,-0.15295371,0.096374265
1764435595.9170575,-7.645259999999999,0.9003399999999999,1.61756,0.974545845,-0.15295371,0.096374265
1764435595.9170575,-7.645259999999999,0.9003399999999999,1.61756,0.974545845,-0.15295371,0.096374265
1764435595.9170575,-7.645259999999999,0.9003399999999999,1.61756,0.974545845,-0.15295371,0.096374265
1764435595.9170575,-7.18746,1.6786,1.51074,0.97424067,-0.155212005,0.0964353
1764435595.9170575,-7.18746,1.6786,1.51074,0.97424067,-0.155212005,0.0964353
1764435595.9170575,-7.18746,1.6786,1.51074,0.97424067,-0.155212005,0.0964353
1764435595.9170575,-7.18746,1.6786,1.51074,0.97424067,-0.155212005,0.0964353
1764435595.918209,-7.18746,1.6786,1.51074,0.97424067,-0.155212005,0.0964353
1764435595.918209,-7.18746,1.6786,1.51074,0.97424067,-0.155212005,0.0964353
1764435595.9614666,-7.18746,1.6786,1.51074,0.97424067,-0.155212005,0.0964353
1764435595.9614666,-7.18746,1.6786,1.51074,0.97424067,-0.155212005,0.0964353
1764435595.9614666,-7.18746,1.6786,1.51074,0.97424067,-0.155212005,0.0964353
1764435595.9630044,-7.18746,1.6786,1.51074,0.97424067,-0.155212005,0.0964353
1764435595.9630044,-5.67672,2.3653,1.19028,0.973691355,-0.15783651,0.097472895
1764435595.9630044,-5.67672,2.3653,1.19028,0.973691355,-0.15783651,0.097472895
1764435595.9630044,-5.67672,2.3653,1.19028,0.973691355,-0.15783651,0.097472895
1764435595.9630044,-5.67672,2.3653,1.19028,0.973691355,-0.15783651,0.097472895
1764435595.9630044,-5.67672,2.3653,1.19028,0.973691355,-0.15783651,0.097472895
1764435595.9630044,-5.67672,2.3653,1.19028,0.973691355,-0.15783651,0.097472895
1764435595.9630044,-5.67672,2.3653,1.19028,0.973691355,-0.15783651,0.097472895
1764435595.9630044,-5.67672,2.3653,1.19028,0.973691355,-0.15783651,0.097472895
1764435595.9630044,-5.67672,2.3653,1.19028,0.973691355,-0.15783651,0.097472895
1764435595.9630044,-5.67672,2.3653,1.19028,0.973691355,-0.15783651,0.097472895
1764435595.966019,-4.31858,2.86888,0.6103999999999999,0.97375239,-0.159606525,0.098571525
1764435595.966019,-4.31858,2.86888,0.6103999999999999,0.97375239,-0.159606525,0.098571525
1764435595.966019,-4.31858,2.86888,0.6103999999999999,0.97375239,-0.159606525,0.098571525
1764435595.966019,-4.31858,2.86888,0.6103999999999999,0.97375239,-0.159606525,0.098571525
1764435595.966019,-4.31858,2.86888,0.6103999999999999,0.97375239,-0.159606525,0.098571525
1764435595.966019,-4.31858,2.86888,0.6103999999999999,0.97375239,-0.159606525,0.098571525
1764435595.966019,-4.31858,2.86888,0.6103999999999999,0.97375239,-0.159606525,0.098571525
1764435595.966019,-4.31858,2.86888,0.6103999999999999,0.97375239,-0.159606525,0.098571525
1764435595.966019,-4.31858,2.86888,0.6103999999999999,0.97375239,-0.159606525,0.098571525
1764435595.966019,-4.31858,2.86888,0.6103999999999999,0.97375239,-0.159606525,0.098571525
1764435596.0114288,-2.73154,2.56368,0.13734,0.973569285,-0.161071365,0.099548085
1764435596.0114288,-2.73154,2.56368,0.13734,0.973569285,-0.161071365,0.099548085
1764435596.0114288,-2.73154,2.56368,0.13734,0.973569285,-0.161071365,0.099548085
1764435596.0114288,-2.73154,2.56368,0.13734,0.973569285,-0.161071365,0.099548085
1764435596.0114288,-2.73154,2.56368,0.13734,0.973569285,-0.161071365,0.099548085
1764435596.0114288,-2.73154,2.56368,0.13734,0.973569285,-0.161071365,0.099548085
1764435596.0114288,-2.73154,2.56368,0.13734,0.973569285,-0.161071365,0.099548085
1764435596.0114288,-2.73154,2.56368,0.13734,0.973569285,-0.161071365,0.099548085
1764435596.0114288,-2.73154,2.56368,0.13734,0.973569285,-0.161071365,0.099548085
1764435596.0114288,-2.73154,2.56368,0.13734,0.973569285,-0.161071365,0.099548085
1764435596.0114288,-0.79352,2.39582,0.25942,0.972592725,-0.16052205,0.099792225
1764435596.0114288,-0.79352,2.39582,0.25942,0.972592725,-0.16052205,0.099792225
1764435596.0114288,-0.79352,2.39582,0.25942,0.972592725,-0.16052205,0.099792225
1764435596.0114288,-0.79352,2.39582,0.25942,0.972592725,-0.16052205,0.099792225
1764435596.0114288,-0.79352,2.39582,0.25942,0.972592725,-0.16052205,0.099792225
1764435596.0114288,-0.79352,2.39582,0.25942,0.972592725,-0.16052205,0.099792225
1764435596.0114288,-0.79352,2.39582,0.25942,0.972592725,-0.16052205,0.099792225
1764435596.0114288,-0.79352,2.39582,0.25942,0.972592725,-0.16052205,0.099792225
1764435596.0114288,-0.79352,2.39582,0.25942,0.972592725,-0.16052205,0.099792225
1764435596.0114288,-0.79352,2.39582,0.25942,0.972592725,-0.16052205,0.099792225
1764435596.0114288,0.09156,2.09062,-0.01526,0.971616165,-0.16027791,0.1000974
1764435596.0114288,0.09156,2.09062,-0.01526,0.971616165,-0.16027791,0.1000974
1764435596.0114288,0.09156,2.09062,-0.01526,0.971616165,-0.16027791,0.1000974
1764435596.0114288,0.09156,2.09062,-0.01526,0.971616165,-0.16027791,0.1000974
1764435596.055892,0.09156,2.09062,-0.01526,0.971616165,-0.16027791,0.1000974
1764435596.055892,0.09156,2.09062,-0.01526,0.971616165,-0.16027791,0.1000974
1764435596.055892,0.09156,2.09062,-0.01526,0.971616165,-0.16027791,0.1000974
1764435596.055892,0.09156,2.09062,-0.01526,0.971616165,-0.16027791,0.1000974
1764435596.055892,0.09156,2.09062,-0.01526,0.971616165,-0.16027791,0.1000974
1764435596.055892,0.09156,2.09062,-0.01526,0.971616165,-0.16027791,0.1000974
1764435596.055892,0.96138,1.46496,1.05294,0.970517535,-0.159606525,0.099792225
1764435596.055892,0.96138,1.46496,1.05294,0.970517535,-0.159606525,0.099792225
1764435596.055892,0.96138,1.46496,1.05294,0.970517535,-0.159606525,0.099792225
1764435596.055892,0.96138,1.46496,1.05294,0.970517535,-0.159606525,0.099792225
1764435596.055892,0.96138,1.46496,1.05294,0.970517535,-0.159606525,0.099792225
1764435596.055892,0.96138,1.46496,1.05294,0.970517535,-0.159606525,0.099792225
1764435596.055892,0.96138,1.46496,1.05294,0.970517535,-0.159606525,0.099792225
1764435596.055892,0.96138,1.46496,1.05294,0.970517535,-0.159606525,0.099792225
1764435596.055892,0.96138,1.46496,1.05294,0.970517535,-0.159606525,0.099792225
1764435596.055892,0.96138,1.46496,1.05294,0.970517535,-0.159606525,0.099792225
1764435596.055892,0.8698199999999999,1.2055399999999998,1.23606,0.971616165,-0.15820272,0.099914295
1764435596.055892,0.8698199999999999,1.2055399999999998,1.23606,0.971616165,-0.15820272,0.099914295
1764435596.055892,0.8698199999999999,1.2055399999999998,1.23606,0.971616165,-0.15820272,0.099914295
1764435596.055892,0.8698199999999999,1.2055399999999998,1.23606,0.971616165,-0.15820272,0.099914295
1764435596.055892,0.8698199999999999,1.2055399999999998,1.23606,0.971616165,-0.15820272,0.099914295
1764435596.055892,0.8698199999999999,1.2055399999999998,1.23606,0.971616165,-0.15820272,0.099914295
1764435596.055892,0.8698199999999999,1.2055399999999998,1.23606,0.971616165,-0.15820272,0.099914295
1764435596.055892,0.8698199999999999,1.2055399999999998,1.23606,0.971616165,-0.15820272,0.099914295
1764435596.1033683,0.8698199999999999,1.2055399999999998,1.23606,0.971616165,-0.15820272,0.099914295
1764435596.1033683,0.8698199999999999,1.2055399999999998,1.23606,0.971616165,-0.15820272,0.099914295
1764435596.1033683,-1.00716,0.3204599999999999,0.85456,0.973203075,-0.15356406,0.097961175
1764435596.1033683,-1.00716,0.3204599999999999,0.85456,0.973203075,-0.15356406,0.097961175
1764435596.1033683,-1.00716,0.3204599999999999,0.85456,0.973203075,-0.15356406,0.097961175
1764435596.1033683,-1.00716,0.3204599999999999,0.85456,0.973203075,-0.15356406,0.097961175
1764435596.1033683,-1.00716,0.3204599999999999,0.85456,0.973203075,-0.15356406,0.097961175
1764435596.1033683,-1.00716,0.3204599999999999,0.85456,0.973203075,-0.15356406,0.097961175
1764435596.1033683,-1.00716,0.3204599999999999,0.85456,0.973203075,-0.15356406,0.097961175
1764435596.1033683,-1.00716,0.3204599999999999,0.85456,0.973203075,-0.15356406,0.097961175
1764435596.1033683,-1.00716,0.3204599999999999,0.85456,0.973203075,-0.15356406,0.097961175
1764435596.1033683,-1.00716,0.3204599999999999,0.85456,0.973203075,-0.15356406,0.097961175
1764435596.1033683,-2.71628,-0.24416,0.25942,0.975278265,-0.149962995,0.09814428
1764435596.1033683,-2.71628,-0.24416,0.25942,0.975278265,-0.149962995,0.09814428
1764435596.104385,-2.71628,-0.24416,0.25942,0.975278265,-0.149962995,0.09814428
1764435596.104385,-2.71628,-0.24416,0.25942,0.975278265,-0.149962995,0.09814428
1764435596.104385,-2.71628,-0.24416,0.25942,0.975278265,-0.149962995,0.09814428
1764435596.104385,-2.71628,-0.24416,0.25942,0.975278265,-0.149962995,0.09814428
1764435596.104385,-2.71628,-0.24416,0.25942,0.975278265,-0.149962995,0.09814428
1764435596.104385,-2.71628,-0.24416,0.25942,0.975278265,-0.149962995,0.09814428
1764435596.104385,-2.71628,-0.24416,0.25942,0.975278265,-0.149962995,0.09814428
1764435596.104385,-2.71628,-0.24416,0.25942,0.975278265,-0.149962995,0.09814428
1764435596.1518133,-4.8069,-0.2289,-0.01526,0.97717035,-0.148131945,0.098205315
1764435596.1518133,-4.8069,-0.2289,-0.01526,0.97717035,-0.148131945,0.098205315
1764435596.1518133,-4.8069,-0.2289,-0.01526,0.97717035,-0.148131945,0.098205315
1764435596.1518133,-4.8069,-0.2289,-0.01526,0.97717035,-0.148131945,0.098205315
1764435596.1518133,-4.8069,-0.2289,-0.01526,0.97717035,-0.148131945,0.098205315
1764435596.1518133,-4.8069,-0.2289,-0.01526,0.97717035,-0.148131945,0.098205315
1764435596.1518133,-4.8069,-0.2289,-0.01526,0.97717035,-0.148131945,0.098205315
1764435596.1518133,-4.8069,-0.2289,-0.01526,0.97717035,-0.148131945,0.098205315
1764435596.1518133,-4.8069,-0.2289,-0.01526,0.97717035,-0.148131945,0.098205315
1764435596.1518133,-4.8069,-0.2289,-0.01526,0.97717035,-0.148131945,0.098205315
1764435596.1518133,-6.37868,0.25942,0.50358,0.975644475,-0.14782677,0.09753393
1764435596.1518133,-6.37868,0.25942,0.50358,0.975644475,-0.14782677,0.09753393
1764435596.1518133,-6.37868,0.25942,0.50358,0.975644475,-0.14782677,0.09753393
1764435596.1518133,-6.37868,0.25942,0.50358,0.975644475,-0.14782677,0.09753393
1764435596.1518133,-6.37868,0.25942,0.50358,0.975644475,-0.14782677,0.09753393
1764435596.1518133,-6.37868,0.25942,0.50358,0.975644475,-0.14782677,0.09753393
1764435596.1518133,-6.37868,0.25942,0.50358,0.975644475,-0.14782677,0.09753393
1764435596.1518133,-6.37868,0.25942,0.50358,0.975644475,-0.14782677,0.09753393
1764435596.1518133,-6.37868,0.25942,0.50358,0.975644475,-0.14782677,0.09753393
1764435596.1518133,-6.37868,0.25942,0.50358,0.975644475,-0.14782677,0.09753393
1764435596.1518133,-7.53844,0.3509799999999999,1.70912,0.973203075,-0.14868126,0.09704565
1764435596.1518133,-7.53844,0.3509799999999999,1.70912,0.973203075,-0.14868126,0.09704565
1764435596.1518133,-7.53844,0.3509799999999999,1.70912,0.973203075,-0.14868126,0.09704565
1764435596.1518133,-7.53844,0.3509799999999999,1.70912,0.973203075,-0.14868126,0.09704565
1764435596.1967783,-7.53844,0.3509799999999999,1.70912,0.973203075,-0.14868126,0.09704565
1764435596.1967783,-7.53844,0.3509799999999999,1.70912,0.973203075,-0.14868126,0.09704565
1764435596.1967783,-7.53844,0.3509799999999999,1.70912,0.973203075,-0.14868126,0.09704565
1764435596.1967783,-7.53844,0.3509799999999999,1.70912,0.973203075,-0.14868126,0.09704565
1764435596.1967783,-7.53844,0.3509799999999999,1.70912,0.973203075,-0.14868126,0.09704565
1764435596.1967783,-7.53844,0.3509799999999999,1.70912,0.973203075,-0.14868126,0.09704565
1764435596.1967783,-8.118319999999999,0.5341,2.10588,0.972348585,-0.15112266,0.097228755
1764435596.1967783,-8.118319999999999,0.5341,2.10588,0.972348585,-0.15112266,0.097228755
1764435596.1967783,-8.118319999999999,0.5341,2.10588,0.972348585,-0.15112266,0.097228755
1764435596.1967783,-8.118319999999999,0.5341,2.10588,0.972348585,-0.15112266,0.097228755
1764435596.1972847,-8.118319999999999,0.5341,2.10588,0.972348585,-0.15112266,0.097228755
1764435596.1972847,-8.118319999999999,0.5341,2.10588,0.972348585,-0.15112266,0.097228755
1764435596.1972847,-8.118319999999999,0.5341,2.10588,0.972348585,-0.15112266,0.097228755
1764435596.1972847,-8.118319999999999,0.5341,2.10588,0.972348585,-0.15112266,0.097228755
1764435596.1972847,-8.118319999999999,0.5341,2.10588,0.972348585,-0.15112266,0.097228755
1764435596.1972847,-8.118319999999999,0.5341,2.10588,0.972348585,-0.15112266,0.097228755
1764435596.1972847,-7.446879999999999,0.50358,3.06726,0.972226515,-0.1538082,0.097350825
1764435596.1972847,-7.446879999999999,0.50358,3.06726,0.972226515,-0.1538082,0.097350825
1764435596.1972847,-7.446879999999999,0.50358,3.06726,0.972226515,-0.1538082,0.097350825
1764435596.1972847,-7.446879999999999,0.50358,3.06726,0.972226515,-0.1538082,0.097350825
1764435596.1972847,-7.446879999999999,0.50358,3.06726,0.972226515,-0.1538082,0.097350825
1764435596.1972847,-7.446879999999999,0.50358,3.06726,0.972226515,-0.1538082,0.097350825
1764435596.2416155,-7.446879999999999,0.50358,3.06726,0.972226515,-0.1538082,0.097350825
1764435596.2416155,-7.446879999999999,0.50358,3.06726,0.972226515,-0.1538082,0.097350825
1764435596.2416155,-7.446879999999999,0.50358,3.06726,0.972226515,-0.1538082,0.097350825
1764435596.2416155,-7.446879999999999,0.50358,3.06726,0.972226515,-0.1538082,0.097350825
1764435596.2416155,-6.39394,1.526,2.45686,0.972958935,-0.157653405,0.09728979
1764435596.2416155,-6.39394,1.526,2.45686,0.972958935,-0.157653405,0.09728979
1764435596.2416155,-6.39394,1.526,2.45686,0.972958935,-0.157653405,0.09728979
1764435596.2416155,-6.39394,1.526,2.45686,0.972958935,-0.157653405,0.09728979
1764435596.2416155,-6.39394,1.526,2.45686,0.972958935,-0.157653405,0.09728979
1764435596.2416155,-6.39394,1.526,2.45686,0.972958935,-0.157653405,0.09728979
1764435596.2416155,-6.39394,1.526,2.45686,0.972958935,-0.157653405,0.09728979
1764435596.2416155,-6.39394,1.526,2.45686,0.972958935,-0.157653405,0.09728979
1764435596.2416155,-6.39394,1.526,2.45686,0.972958935,-0.157653405,0.09728979
1764435596.2416155,-6.39394,1.526,2.45686,0.972958935,-0.157653405,0.09728979
1764435596.242125,-4.45592,1.57178,2.57894,0.97326411,-0.160827225,0.098083245
1764435596.242125,-4.45592,1.57178,2.57894,0.97326411,-0.160827225,0.098083245
1764435596.242125,-4.45592,1.57178,2.57894,0.97326411,-0.160827225,0.098083245
1764435596.242125,-4.45592,1.57178,2.57894,0.97326411,-0.160827225,0.098083245
1764435596.242125,-4.45592,1.57178,2.57894,0.97326411,-0.160827225,0.098083245
1764435596.242125,-4.45592,1.57178,2.57894,0.97326411,-0.160827225,0.098083245
1764435596.242125,-4.45592,1.57178,2.57894,0.97326411,-0.160827225,0.098083245
1764435596.242125,-4.45592,1.57178,2.57894,0.97326411,-0.160827225,0.098083245
1764435596.242125,-4.45592,1.57178,2.57894,0.97326411,-0.160827225,0.098083245
1764435596.242125,-4.45592,1.57178,2.57894,0.97326411,-0.160827225,0.098083245
1764435596.2884989,-2.35004,1.69386,1.8312,0.97387446,-0.164123115,0.099181875
1764435596.2884989,-2.35004,1.69386,1.8312,0.97387446,-0.164123115,0.099181875
1764435596.2884989,-2.35004,1.69386,1.8312,0.97387446,-0.164123115,0.099181875
1764435596.2884989,-2.35004,1.69386,1.8312,0.97387446,-0.164123115,0.099181875
1764435596.2884989,-2.35004,1.69386,1.8312,0.97387446,-0.164123115,0.099181875
1764435596.2884989,-2.35004,1.69386,1.8312,0.97387446,-0.164123115,0.099181875
1764435596.2884989,-2.35004,1.69386,1.8312,0.97387446,-0.164123115,0.099181875
1764435596.2884989,-2.35004,1.69386,1.8312,0.97387446,-0.164123115,0.099181875
1764435596.2884989,-2.35004,1.69386,1.8312,0.97387446,-0.164123115,0.099181875
1764435596.2884989,-2.35004,1.69386,1.8312,0.97387446,-0.164123115,0.099181875
1764435596.2884989,-0.21364,2.02958,1.54126,0.973325145,-0.165832095,0.099426015
1764435596.2884989,-0.21364,2.02958,1.54126,0.973325145,-0.165832095,0.099426015
1764435596.2884989,-0.21364,2.02958,1.54126,0.973325145,-0.165832095,0.099426015
1764435596.2884989,-0.21364,2.02958,1.54126,0.973325145,-0.165832095,0.099426015
1764435596.2884989,-0.21364,2.02958,1.54126,0.973325145,-0.165832095,0.099426015
1764435596.289987,-0.21364,2.02958,1.54126,0.973325145,-0.165832095,0.099426015
1764435596.289987,-0.21364,2.02958,1.54126,0.973325145,-0.165832095,0.099426015
1764435596.289987,-0.21364,2.02958,1.54126,0.973325145,-0.165832095,0.099426015
1764435596.289987,-0.21364,2.02958,1.54126,0.973325145,-0.165832095,0.099426015
1764435596.289987,-0.21364,2.02958,1.54126,0.973325145,-0.165832095,0.099426015
1764435596.289987,1.4039199999999998,2.56368,1.38866,0.973935495,-0.16662555,0.099670155
1764435596.289987,1.4039199999999998,2.56368,1.38866,0.973935495,-0.16662555,0.099670155
1764435596.289987,1.4039199999999998,2.56368,1.38866,0.973935495,-0.16662555,0.099670155
1764435596.289987,1.4039199999999998,2.56368,1.38866,0.973935495,-0.16662555,0.099670155
1764435596.3331902,1.4039199999999998,2.56368,1.38866,0.973935495,-0.16662555,0.099670155
1764435596.3331902,1.4039199999999998,2.56368,1.38866,0.973935495,-0.16662555,0.099670155
1764435596.3331902,1.4039199999999998,2.56368,1.38866,0.973935495,-0.16662555,0.099670155
1764435596.3337004,1.4039199999999998,2.56368,1.38866,0.973935495,-0.16662555,0.099670155
1764435596.3337004,1.4039199999999998,2.56368,1.38866,0.973935495,-0.16662555,0.099670155
1764435596.3337004,1.4039199999999998,2.56368,1.38866,0.973935495,-0.16662555,0.099670155
1764435596.3337004,1.81594,1.2055399999999998,0.5341,0.97387446,-0.163512765,0.099426015
1764435596.3337004,1.81594,1.2055399999999998,0.5341,0.97387446,-0.163512765,0.099426015
1764435596.3337004,1.81594,1.2055399999999998,0.5341,0.97387446,-0.163512765,0.099426015
1764435596.3337004,1.81594,1.2055399999999998,0.5341,0.97387446,-0.163512765,0.099426015
1764435596.3337004,1.81594,1.2055399999999998,0.5341,0.97387446,-0.163512765,0.099426015
1764435596.3337004,1.81594,1.2055399999999998,0.5341,0.97387446,-0.163512765,0.099426015
1764435596.3337004,1.81594,1.2055399999999998,0.5341,0.97387446,-0.163512765,0.099426015
1764435596.3337004,1.81594,1.2055399999999998,0.5341,0.97387446,-0.163512765,0.099426015
1764435596.3337004,1.81594,1.2055399999999998,0.5341,0.97387446,-0.163512765,0.099426015
1764435596.3337004,1.81594,1.2055399999999998,0.5341,0.97387446,-0.163512765,0.099426015
1764435596.3342092,1.1445,0.59514,-0.36624,0.97265376,-0.16052205,0.09875463
1764435596.3342092,1.1445,0.59514,-0.36624,0.97265376,-0.16052205,0.09875463
1764435596.3342092,1.1445,0.59514,-0.36624,0.97265376,-0.16052205,0.09875463
1764435596.3342092,1.1445,0.59514,-0.36624,0.97265376,-0.16052205,0.09875463
1764435596.3342092,1.1445,0.59514,-0.36624,0.97265376,-0.16052205,0.09875463
1764435596.3342092,1.1445,0.59514,-0.36624,0.97265376,-0.16052205,0.09875463
1764435596.38158,1.1445,0.59514,-0.36624,0.97265376,-0.16052205,0.09875463
1764435596.38158,1.1445,0.59514,-0.36624,0.97265376,-0.16052205,0.09875463
1764435596.38158,1.1445,0.59514,-0.36624,0.97265376,-0.16052205,0.09875463
1764435596.38158,1.1445,0.59514,-0.36624,0.97265376,-0.16052205,0.09875463
1764435596.38158,-0.3051999999999999,0.27468,-0.42728,0.972836865,-0.15685995,0.097961175
1764435596.38158,-0.3051999999999999,0.27468,-0.42728,0.972836865,-0.15685995,0.097961175
1764435596.38158,-0.3051999999999999,0.27468,-0.42728,0.972836865,-0.15685995,0.097961175
1764435596.38158,-0.3051999999999999,0.27468,-0.42728,0.972836865,-0.15685995,0.097961175
1764435596.38158,-0.3051999999999999,0.27468,-0.42728,0.972836865,-0.15685995,0.097961175
1764435596.38158,-0.3051999999999999,0.27468,-0.42728,0.972836865,-0.15685995,0.097961175
1764435596.38158,-0.3051999999999999,0.27468,-0.42728,0.972836865,-0.15685995,0.097961175
1764435596.38158,-0.3051999999999999,0.27468,-0.42728,0.972836865,-0.15685995,0.097961175
1764435596.38158,-0.3051999999999999,0.27468,-0.42728,0.972836865,-0.15685995,0.097961175
1764435596.38158,-0.3051999999999999,0.27468,-0.42728,0.972836865,-0.15685995,0.097961175
1764435596.38158,-1.64808,0.51884,-0.9919,0.97253169,-0.15356406,0.097350825
1764435596.38158,-1.64808,0.51884,-0.9919,0.97253169,-0.15356406,0.097350825
1764435596.38158,-1.64808,0.51884,-0.9919,0.97253169,-0.15356406,0.097350825
1764435596.38158,-1.64808,0.51884,-0.9919,0.97253169,-0.15356406,0.097350825
1764435596.38158,-1.64808,0.51884,-0.9919,0.97253169,-0.15356406,0.097350825
1764435596.38158,-1.64808,0.51884,-0.9919,0.97253169,-0.15356406,0.097350825
1764435596.38158,-1.64808,0.51884,-0.9919,0.97253169,-0.15356406,0.097350825
1764435596.38158,-1.64808,0.51884,-0.9919,0.97253169,-0.15356406,0.097350825
1764435596.4298084,-1.64808,0.51884,-0.9919,0.97253169,-0.15356406,0.097350825
1764435596.4298084,-1.64808,0.51884,-0.9919,0.97253169,-0.15356406,0.097350825
1764435596.4298084,-3.54032,0.85456,-0.85456,0.971860305,-0.15051231,0.096496335
1764435596.4298084,-3.54032,0.85456,-0.85456,0.971860305,-0.15051231,0.096496335
1764435596.4298084,-3.54032,0.85456,-0.85456,0.971860305,-0.15051231,0.096496335
1764435596.4298084,-3.54032,0.85456,-0.85456,0.971860305,-0.15051231,0.096496335
1764435596.4298084,-3.54032,0.85456,-0.85456,0.971860305,-0.15051231,0.096496335
1764435596.4298084,-3.54032,0.85456,-0.85456,0.971860305,-0.15051231,0.096496335
1764435596.4298084,-3.54032,0.85456,-0.85456,0.971860305,-0.15051231,0.096496335
1764435596.4298084,-3.54032,0.85456,-0.85456,0.971860305,-0.15051231,0.096496335
1764435596.4298084,-3.54032,0.85456,-0.85456,0.971860305,-0.15051231,0.096496335
1764435596.4298084,-3.54032,0.85456,-0.85456,0.971860305,-0.15051231,0.096496335
1764435596.4298084,-5.85984,0.36624,-0.18312,0.972104445,-0.14929161,0.09631323
1764435596.4298084,-5.85984,0.36624,-0.18312,0.972104445,-0.14929161,0.09631323
1764435596.4298084,-5.85984,0.36624,-0.18312,0.972104445,-0.14929161,0.09631323
1764435596.4298084,-5.85984,0.36624,-0.18312,0.972104445,-0.14929161,0.09631323
1764435596.4298084,-5.85984,0.36624,-0.18312,0.972104445,-0.14929161,0.09631323
1764435596.4298084,-5.85984,0.36624,-0.18312,0.972104445,-0.14929161,0.09631323
1764435596.4298084,-5.85984,0.36624,-0.18312,0.972104445,-0.14929161,0.09631323
1764435596.4298084,-5.85984,0.36624,-0.18312,0.972104445,-0.14929161,0.09631323
1764435596.4298084,-5.85984,0.36624,-0.18312,0.972104445,-0.14929161,0.09631323
1764435596.4298084,-5.85984,0.36624,-0.18312,0.972104445,-0.14929161,0.09631323
1764435596.4298084,-7.35532,0.71722,-0.42728,0.972348585,-0.14929161,0.096496335
1764435596.4298084,-7.35532,0.71722,-0.42728,0.972348585,-0.14929161,0.096496335
1764435596.474647,-7.35532,0.71722,-0.42728,0.972348585,-0.14929161,0.096496335
1764435596.474647,-7.35532,0.71722,-0.42728,0.972348585,-0.14929161,0.096496335
1764435596.474647,-7.35532,0.71722,-0.42728,0.972348585,-0.14929161,0.096496335
1764435596.474647,-7.35532,0.71722,-0.42728,0.972348585,-0.14929161,0.096496335
1764435596.474647,-7.35532,0.71722,-0.42728,0.972348585,-0.14929161,0.096496335
1764435596.474647,-7.35532,0.71722,-0.42728,0.972348585,-0.14929161,0.096496335
1764435596.474647,-7.35532,0.71722,-0.42728,0.972348585,-0.14929161,0.096496335
1764435596.474647,-7.35532,0.71722,-0.42728,0.972348585,-0.14929161,0.096496335
1764435596.474647,-7.66052,1.11398,0.3357199999999999,0.97277583,-0.151794045,0.09631323
1764435596.474647,-7.66052,1.11398,0.3357199999999999,0.97277583,-0.151794045,0.09631323
1764435596.474647,-7.66052,1.11398,0.3357199999999999,0.97277583,-0.151794045,0.09631323
1764435596.474647,-7.66052,1.11398,0.3357199999999999,0.97277583,-0.151794045,0.09631323
1764435596.474647,-7.66052,1.11398,0.3357199999999999,0.97277583,-0.151794045,0.09631323
1764435596.474647,-7.66052,1.11398,0.3357199999999999,0.97277583,-0.151794045,0.09631323
1764435596.474647,-7.66052,1.11398,0.3357199999999999,0.97277583,-0.151794045,0.09631323
1764435596.474647,-7.66052,1.11398,0.3357199999999999,0.97277583,-0.151794045,0.09631323
1764435596.474647,-7.66052,1.11398,0.3357199999999999,0.97277583,-0.151794045,0.09631323
1764435596.474647,-7.66052,1.11398,0.3357199999999999,0.97277583,-0.151794045,0.09631323
1764435596.474647,-6.91278,1.00716,0.4578,0.973325145,-0.15466269,0.096984615
1764435596.474647,-6.91278,1.00716,0.4578,0.973325145,-0.15466269,0.096984615
1764435596.475644,-6.91278,1.00716,0.4578,0.973325145,-0.15466269,0.096984615
1764435596.475644,-6.91278,1.00716,0.4578,0.973325145,-0.15466269,0.096984615
1764435596.475644,-6.91278,1.00716,0.4578,0.973325145,-0.15466269,0.096984615
1764435596.475644,-6.91278,1.00716,0.4578,0.973325145,-0.15466269,0.096984615
1764435596.518787,-6.91278,1.00716,0.4578,0.973325145,-0.15466269,0.096984615
1764435596.518787,-6.91278,1.00716,0.4578,0.973325145,-0.15466269,0.096984615
1764435596.518787,-6.91278,1.00716,0.4578,0.973325145,-0.15466269,0.096984615
1764435596.518787,-6.91278,1.00716,0.4578,0.973325145,-0.15466269,0.096984615
1764435596.518787,-5.60042,1.19028,0.9156,0.97350825,-0.15832479,0.097717035
1764435596.518787,-5.60042,1.19028,0.9156,0.97350825,-0.15832479,0.097717035
1764435596.518787,-5.60042,1.19028,0.9156,0.97350825,-0.15832479,0.097717035
1764435596.518787,-5.60042,1.19028,0.9156,0.97350825,-0.15832479,0.097717035
1764435596.518787,-5.60042,1.19028,0.9156,0.97350825,-0.15832479,0.097717035
1764435596.518787,-5.60042,1.19028,0.9156,0.97350825,-0.15832479,0.097717035
1764435596.518787,-5.60042,1.19028,0.9156,0.97350825,-0.15832479,0.097717035
1764435596.518787,-5.60042,1.19028,0.9156,0.97350825,-0.15832479,0.097717035
1764435596.518787,-5.60042,1.19028,0.9156,0.97350825,-0.15832479,0.097717035
1764435596.518787,-5.60042,1.19028,0.9156,0.97350825,-0.15832479,0.097717035
1764435596.518787,-4.24228,1.51074,0.6867,0.973203075,-0.16015584,0.098205315
1764435596.518787,-4.24228,1.51074,0.6867,0.973203075,-0.16015584,0.098205315
1764435596.518787,-4.24228,1.51074,0.6867,0.973203075,-0.16015584,0.098205315
1764435596.518787,-4.24228,1.51074,0.6867,0.973203075,-0.16015584,0.098205315
1764435596.518787,-4.24228,1.51074,0.6867,0.973203075,-0.16015584,0.098205315
1764435596.518787,-4.24228,1.51074,0.6867,0.973203075,-0.16015584,0.098205315
1764435596.518787,-4.24228,1.51074,0.6867,0.973203075,-0.16015584,0.098205315
1764435596.518787,-4.24228,1.51074,0.6867,0.973203075,-0.16015584,0.098205315
1764435596.518787,-4.24228,1.51074,0.6867,0.973203075,-0.16015584,0.098205315
1764435596.518787,-4.24228,1.51074,0.6867,0.973203075,-0.16015584,0.098205315
1764435596.5640588,-2.92992,1.43444,0.6867,0.97338618,-0.161193435,0.098693595
1764435596.5640588,-2.92992,1.43444,0.6867,0.97338618,-0.161193435,0.098693595
1764435596.5640588,-2.92992,1.43444,0.6867,0.97338618,-0.161193435,0.098693595
1764435596.5650735,-2.92992,1.43444,0.6867,0.97338618,-0.161193435,0.098693595
1764435596.5650735,-2.92992,1.43444,0.6867,0.97338618,-0.161193435,0.098693595
1764435596.5650735,-2.92992,1.43444,0.6867,0.97338618,-0.161193435,0.098693595
1764435596.5670722,-2.92992,1.43444,0.6867,0.97338618,-0.161193435,0.098693595
1764435596.5670722,-2.92992,1.43444,0.6867,0.97338618,-0.161193435,0.098693595
1764435596.5670722,-2.92992,1.43444,0.6867,0.97338618,-0.161193435,0.098693595
1764435596.5670722,-2.92992,1.43444,0.6867,0.97338618,-0.161193435,0.098693595
1764435596.5670722,-0.94612,1.34288,0.3204599999999999,0.973447215,-0.16101033,0.098815665
1764435596.5670722,-0.94612,1.34288,0.3204599999999999,0.973447215,-0.16101033,0.098815665
1764435596.5670722,-0.94612,1.34288,0.3204599999999999,0.973447215,-0.16101033,0.098815665
1764435596.5670722,-0.94612,1.34288,0.3204599999999999,0.973447215,-0.16101033,0.098815665
1764435596.5670722,-0.94612,1.34288,0.3204599999999999,0.973447215,-0.16101033,0.098815665
1764435596.5670722,-0.94612,1.34288,0.3204599999999999,0.973447215,-0.16101033,0.098815665
1764435596.5670722,-0.94612,1.34288,0.3204599999999999,0.973447215,-0.16101033,0.098815665
1764435596.5670722,-0.94612,1.34288,0.3204599999999999,0.973447215,-0.16101033,0.098815665
1764435596.5670722,-0.94612,1.34288,0.3204599999999999,0.973447215,-0.16101033,0.098815665
1764435596.5670722,-0.94612,1.34288,0.3204599999999999,0.973447215,-0.16101033,0.098815665
1764435596.5670722,-0.09156,1.11398,0.10682,0.97277583,-0.15930135,0.098937735
1764435596.5670722,-0.09156,1.11398,0.10682,0.97277583,-0.15930135,0.098937735
1764435596.611231,-0.09156,1.11398,0.10682,0.97277583,-0.15930135,0.098937735
1764435596.611231,-0.09156,1.11398,0.10682,0.97277583,-0.15930135,0.098937735
1764435596.611231,-0.09156,1.11398,0.10682,0.97277583,-0.15930135,0.098937735
1764435596.611231,-0.09156,1.11398,0.10682,0.97277583,-0.15930135,0.098937735
1764435596.611231,-0.09156,1.11398,0.10682,0.97277583,-0.15930135,0.098937735
1764435596.611231,-0.09156,1.11398,0.10682,0.97277583,-0.15930135,0.098937735
1764435596.611231,-0.09156,1.11398,0.10682,0.97277583,-0.15930135,0.098937735
1764435596.611231,-0.09156,1.11398,0.10682,0.97277583,-0.15930135,0.098937735
1764435596.611231,0.2289,1.25132,0.01526,0.972836865,-0.15759237,0.098815665
1764435596.611231,0.2289,1.25132,0.01526,0.972836865,-0.15759237,0.098815665
1764435596.611231,0.2289,1.25132,0.01526,0.972836865,-0.15759237,0.098815665
1764435596.611231,0.2289,1.25132,0.01526,0.972836865,-0.15759237,0.098815665
1764435596.611231,0.2289,1.25132,0.01526,0.972836865,-0.15759237,0.098815665
1764435596.611231,0.2289,1.25132,0.01526,0.972836865,-0.15759237,0.098815665
1764435596.611231,0.2289,1.25132,0.01526,0.972836865,-0.15759237,0.098815665
1764435596.611231,0.2289,1.25132,0.01526,0.972836865,-0.15759237,0.098815665
1764435596.611231,0.2289,1.25132,0.01526,0.972836865,-0.15759237,0.098815665
1764435596.611231,0.2289,1.25132,0.01526,0.972836865,-0.15759237,0.098815665
1764435596.611231,-0.10682,1.32762,0.24416,0.973081005,-0.155822355,0.097839105
1764435596.611231,-0.10682,1.32762,0.24416,0.973081005,-0.155822355,0.097839105
1764435596.611231,-0.10682,1.32762,0.24416,0.973081005,-0.155822355,0.097839105
1764435596.6122434,-0.10682,1.32762,0.24416,0.973081005,-0.155822355,0.097839105
1764435596.6592312,-0.10682,1.32762,0.24416,0.973081005,-0.155822355,0.097839105
1764435596.6601331,-0.10682,1.32762,0.24416,0.973081005,-0.155822355,0.097839105
1764435596.6601331,-0.10682,1.32762,0.24416,0.973081005,-0.155822355,0.097839105
1764435596.6601331,-0.10682,1.32762,0.24416,0.973081005,-0.155822355,0.097839105
1764435596.6601331,-0.10682,1.32762,0.24416,0.973081005,-0.155822355,0.097839105
1764435596.6601331,-0.10682,1.32762,0.24416,0.973081005,-0.155822355,0.097839105
1764435596.6601331,-1.19028,1.6022999999999998,-0.1525999999999999,0.97509516,-0.152770605,0.09728979
1764435596.6601331,-1.19028,1.6022999999999998,-0.1525999999999999,0.97509516,-0.152770605,0.09728979
1764435596.6601331,-1.19028,1.6022999999999998,-0.1525999999999999,0.97509516,-0.152770605,0.09728979
1764435596.6601331,-1.19028,1.6022999999999998,-0.1525999999999999,0.97509516,-0.152770605,0.09728979
1764435596.6601331,-1.19028,1.6022999999999998,-0.1525999999999999,0.97509516,-0.152770605,0.09728979
1764435596.6601331,-1.19028,1.6022999999999998,-0.1525999999999999,0.97509516,-0.152770605,0.09728979
1764435596.6601331,-1.19028,1.6022999999999998,-0.1525999999999999,0.97509516,-0.152770605,0.09728979
1764435596.6601331,-1.19028,1.6022999999999998,-0.1525999999999999,0.97509516,-0.152770605,0.09728979
1764435596.6601331,-1.19028,1.6022999999999998,-0.1525999999999999,0.97509516,-0.152770605,0.09728979
1764435596.6601331,-1.19028,1.6022999999999998,-0.1525999999999999,0.97509516,-0.152770605,0.09728979
1764435596.6601331,-1.73964,1.46496,0.10682,0.974789985,-0.15026817,0.09655737
1764435596.6601331,-1.73964,1.46496,0.10682,0.974789985,-0.15026817,0.09655737
1764435596.6601331,-1.73964,1.46496,0.10682,0.974789985,-0.15026817,0.09655737
1764435596.6601331,-1.73964,1.46496,0.10682,0.974789985,-0.15026817,0.09655737
1764435596.6601331,-1.73964,1.46496,0.10682,0.974789985,-0.15026817,0.09655737
1764435596.6601331,-1.73964,1.46496,0.10682,0.974789985,-0.15026817,0.09655737
1764435596.7044642,-1.73964,1.46496,0.10682,0.974789985,-0.15026817,0.09655737
1764435596.7044642,-1.73964,1.46496,0.10682,0.974789985,-0.15026817,0.09655737
1764435596.7062268,-1.73964,1.46496,0.10682,0.974789985,-0.15026817,0.09655737
1764435596.7062268,-1.73964,1.46496,0.10682,0.974789985,-0.15026817,0.09655737
1764435596.7062268,-3.3572,1.49548,0.10682,0.974423775,-0.149108505,0.096618405
1764435596.7062268,-3.3572,1.49548,0.10682,0.974423775,-0.149108505,0.096618405
1764435596.7062268,-3.3572,1.49548,0.10682,0.974423775,-0.149108505,0.096618405
1764435596.7062268,-3.3572,1.49548,0.10682,0.974423775,-0.149108505,0.096618405
1764435596.7062268,-3.3572,1.49548,0.10682,0.974423775,-0.149108505,0.096618405
1764435596.7062268,-3.3572,1.49548,0.10682,0.974423775,-0.149108505,0.096618405
1764435596.7062268,-3.3572,1.49548,0.10682,0.974423775,-0.149108505,0.096618405
1764435596.7062268,-3.3572,1.49548,0.10682,0.974423775,-0.149108505,0.096618405
1764435596.7062268,-3.3572,1.49548,0.10682,0.974423775,-0.149108505,0.096618405
1764435596.7062268,-3.3572,1.49548,0.10682,0.974423775,-0.149108505,0.096618405
1764435596.7062268,-4.66956,1.526,1.03768,0.97448481,-0.1501461,0.09692358
1764435596.7062268,-4.66956,1.526,1.03768,0.97448481,-0.1501461,0.09692358
1764435596.7062268,-4.66956,1.526,1.03768,0.97448481,-0.1501461,0.09692358
1764435596.7062268,-4.66956,1.526,1.03768,0.97448481,-0.1501461,0.09692358
1764435596.7062268,-4.66956,1.526,1.03768,0.97448481,-0.1501461,0.09692358
1764435596.7062268,-4.66956,1.526,1.03768,0.97448481,-0.1501461,0.09692358
1764435596.7062268,-4.66956,1.526,1.03768,0.97448481,-0.1501461,0.09692358
1764435596.7062268,-4.66956,1.526,1.03768,0.97448481,-0.1501461,0.09692358
1764435596.7062268,-4.66956,1.526,1.03768,0.97448481,-0.1501461,0.09692358
1764435596.7062268,-4.66956,1.526,1.03768,0.97448481,-0.1501461,0.09692358
1764435596.707243,-5.0358,1.8312,1.86172,0.97387446,-0.151305765,0.097350825
1764435596.707243,-5.0358,1.8312,1.86172,0.97387446,-0.151305765,0.097350825
1764435596.750547,-5.0358,1.8312,1.86172,0.97387446,-0.151305765,0.097350825
1764435596.750547,-5.0358,1.8312,1.86172,0.97387446,-0.151305765,0.097350825
1764435596.750547,-5.0358,1.8312,1.86172,0.97387446,-0.151305765,0.097350825
1764435596.750547,-5.0358,1.8312,1.86172,0.97387446,-0.151305765,0.097350825
1764435596.750547,-5.0358,1.8312,1.86172,0.97387446,-0.151305765,0.097350825
1764435596.750547,-5.0358,1.8312,1.86172,0.97387446,-0.151305765,0.097350825
1764435596.7993848,-5.0358,1.8312,1.86172,0.97387446,-0.151305765,0.097350825
1764435596.7993848,-5.0358,1.8312,1.86172,0.97387446,-0.151305765,0.097350825
1764435596.7993848,-4.74586,1.51074,2.65524,0.97375239,-0.153380955,0.09802221
1764435596.7993848,-4.74586,1.51074,2.65524,0.97375239,-0.153380955,0.09802221
1764435596.7993848,-4.74586,1.51074,2.65524,0.97375239,-0.153380955,0.09802221
1764435596.7993848,-4.74586,1.51074,2.65524,0.97375239,-0.153380955,0.09802221
1764435596.7993848,-4.74586,1.51074,2.65524,0.97375239,-0.153380955,0.09802221
1764435596.7993848,-4.74586,1.51074,2.65524,0.97375239,-0.153380955,0.09802221
1764435596.7993848,-4.74586,1.51074,2.65524,0.97375239,-0.153380955,0.09802221
1764435596.7993848,-4.74586,1.51074,2.65524,0.97375239,-0.153380955,0.09802221
1764435596.7993848,-4.74586,1.51074,2.65524,0.97375239,-0.153380955,0.09802221
1764435596.7993848,-4.74586,1.51074,2.65524,0.97375239,-0.153380955,0.09802221
1764435596.7993848,-4.94424,0.9003399999999999,2.16692,0.97301997,-0.154235445,0.09790014
1764435596.7993848,-4.94424,0.9003399999999999,2.16692,0.97301997,-0.154235445,0.09790014
1764435596.7993848,-4.94424,0.9003399999999999,2.16692,0.97301997,-0.154235445,0.09790014
1764435596.7993848,-4.94424,0.9003399999999999,2.16692,0.97301997,-0.154235445,0.09790014
1764435596.7993848,-4.94424,0.9003399999999999,2.16692,0.97301997,-0.154235445,0.09790014
1764435596.7993848,-4.94424,0.9003399999999999,2.16692,0.97301997,-0.154235445,0.09790014
1764435596.7993848,-4.94424,0.9003399999999999,2.16692,0.97301997,-0.154235445,0.09790014
1764435596.7993848,-4.94424,0.9003399999999999,2.16692,0.97301997,-0.154235445,0.09790014
1764435596.7993848,-4.94424,0.9003399999999999,2.16692,0.97301997,-0.154235445,0.09790014
1764435596.7993848,-4.94424,0.9003399999999999,2.16692,0.97301997,-0.154235445,0.09790014
1764435596.7993848,-4.70008,1.17502,1.6786,0.97424067,-0.155822355,0.098693595
1764435596.7993848,-4.70008,1.17502,1.6786,0.97424067,-0.155822355,0.098693595
1764435596.7993848,-4.70008,1.17502,1.6786,0.97424067,-0.155822355,0.098693595
1764435596.8004036,-4.70008,1.17502,1.6786,0.97424067,-0.155822355,0.098693595
1764435596.8004036,-4.70008,1.17502,1.6786,0.97424067,-0.155822355,0.098693595
1764435596.8004036,-4.70008,1.17502,1.6786,0.97424067,-0.155822355,0.098693595
1764435596.8004036,-4.70008,1.17502,1.6786,0.97424067,-0.155822355,0.098693595
1764435596.8004036,-4.70008,1.17502,1.6786,0.97424067,-0.155822355,0.098693595
1764435596.8004036,-4.70008,1.17502,1.6786,0.97424067,-0.155822355,0.098693595
1764435596.8004036,-4.70008,1.17502,1.6786,0.97424067,-0.155822355,0.098693595
1764435596.8004036,-4.08968,1.34288,1.6022999999999998,0.97460688,-0.15783651,0.100280505
1764435596.8004036,-4.08968,1.34288,1.6022999999999998,0.97460688,-0.15783651,0.100280505
1764435596.801399,-4.08968,1.34288,1.6022999999999998,0.97460688,-0.15783651,0.100280505
1764435596.801399,-4.08968,1.34288,1.6022999999999998,0.97460688,-0.15783651,0.100280505
1764435596.801399,-4.08968,1.34288,1.6022999999999998,0.97460688,-0.15783651,0.100280505
1764435596.801399,-4.08968,1.34288,1.6022999999999998,0.97460688,-0.15783651,0.100280505
1764435596.802402,-4.08968,1.34288,1.6022999999999998,0.97460688,-0.15783651,0.100280505
1764435596.802402,-4.08968,1.34288,1.6022999999999998,0.97460688,-0.15783651,0.100280505
1764435596.847311,-4.08968,1.34288,1.6022999999999998,0.97460688,-0.15783651,0.100280505
1764435596.847311,-4.08968,1.34288,1.6022999999999998,0.97460688,-0.15783651,0.100280505
1764435596.847311,-2.88414,1.9075,0.8392999999999999,0.973325145,-0.158141685,0.10070775
1764435596.847311,-2.88414,1.9075,0.8392999999999999,0.973325145,-0.158141685,0.10070775
1764435596.847311,-2.88414,1.9075,0.8392999999999999,0.973325145,-0.158141685,0.10070775
1764435596.847311,-2.88414,1.9075,0.8392999999999999,0.973325145,-0.158141685,0.10070775
1764435596.847311,-2.88414,1.9075,0.8392999999999999,0.973325145,-0.158141685,0.10070775
1764435596.847311,-2.88414,1.9075,0.8392999999999999,0.973325145,-0.158141685,0.10070775
1764435596.847311,-2.88414,1.9075,0.8392999999999999,0.973325145,-0.158141685,0.10070775
1764435596.847311,-2.88414,1.9075,0.8392999999999999,0.973325145,-0.158141685,0.10070775
1764435596.847311,-2.88414,1.9075,0.8392999999999999,0.973325145,-0.158141685,0.10070775
1764435596.847311,-2.88414,1.9075,0.8392999999999999,0.973325145,-0.158141685,0.10070775
1764435596.8483293,-2.60946,1.69386,0.42728,0.97216548,-0.15771444,0.100158435
1764435596.8483293,-2.60946,1.69386,0.42728,0.97216548,-0.15771444,0.100158435
1764435596.8483293,-2.60946,1.69386,0.42728,0.97216548,-0.15771444,0.100158435
1764435596.8483293,-2.60946,1.69386,0.42728,0.97216548,-0.15771444,0.100158435
1764435596.8483293,-2.60946,1.69386,0.42728,0.97216548,-0.15771444,0.100158435
1764435596.8483293,-2.60946,1.69386,0.42728,0.97216548,-0.15771444,0.100158435
1764435596.8483293,-2.60946,1.69386,0.42728,0.97216548,-0.15771444,0.100158435
1764435596.8483293,-2.60946,1.69386,0.42728,0.97216548,-0.15771444,0.100158435
1764435596.849388,-2.60946,1.69386,0.42728,0.97216548,-0.15771444,0.100158435
1764435596.849388,-2.60946,1.69386,0.42728,0.97216548,-0.15771444,0.100158435
1764435596.849388,-2.45686,0.82404,0.6103999999999999,0.971005815,-0.157287195,0.10021947
1764435596.849388,-2.45686,0.82404,0.6103999999999999,0.971005815,-0.157287195,0.10021947
1764435596.849388,-2.45686,0.82404,0.6103999999999999,0.971005815,-0.157287195,0.10021947
1764435596.8503892,-2.45686,0.82404,0.6103999999999999,0.971005815,-0.157287195,0.10021947
1764435596.894106,-2.45686,0.82404,0.6103999999999999,0.971005815,-0.157287195,0.10021947
1764435596.894106,-2.45686,0.82404,0.6103999999999999,0.971005815,-0.157287195,0.10021947
1764435596.894106,-2.45686,0.82404,0.6103999999999999,0.971005815,-0.157287195,0.10021947
1764435596.894106,-2.45686,0.82404,0.6103999999999999,0.971005815,-0.157287195,0.10021947
1764435596.894106,-2.45686,0.82404,0.6103999999999999,0.971005815,-0.157287195,0.10021947
1764435596.894106,-2.45686,0.82404,0.6103999999999999,0.971005815,-0.157287195,0.10021947
1764435596.894106,-2.35004,0.73248,0.3204599999999999,0.970761675,-0.156676845,0.100402575
1764435596.894106,-2.35004,0.73248,0.3204599999999999,0.970761675,-0.156676845,0.100402575
1764435596.894106,-2.35004,0.73248,0.3204599999999999,0.970761675,-0.156676845,0.100402575
1764435596.894106,-2.35004,0.73248,0.3204599999999999,0.970761675,-0.156676845,0.100402575
1764435596.894106,-2.35004,0.73248,0.3204599999999999,0.970761675,-0.156676845,0.100402575
1764435596.894106,-2.35004,0.73248,0.3204599999999999,0.970761675,-0.156676845,0.100402575
1764435596.894106,-2.35004,0.73248,0.3204599999999999,0.970761675,-0.156676845,0.100402575
1764435596.894106,-2.35004,0.73248,0.3204599999999999,0.970761675,-0.156676845,0.100402575
1764435596.894106,-2.35004,0.73248,0.3204599999999999,0.970761675,-0.156676845,0.100402575
1764435596.894106,-2.35004,0.73248,0.3204599999999999,0.970761675,-0.156676845,0.100402575
1764435596.894106,-2.60946,0.85456,1.28184,0.97179927,-0.156432705,0.09985326
1764435596.894106,-2.60946,0.85456,1.28184,0.97179927,-0.156432705,0.09985326
1764435596.894106,-2.60946,0.85456,1.28184,0.97179927,-0.156432705,0.09985326
1764435596.894106,-2.60946,0.85456,1.28184,0.97179927,-0.156432705,0.09985326
1764435596.9392557,-2.60946,0.85456,1.28184,0.97179927,-0.156432705,0.09985326
1764435596.9392557,-2.60946,0.85456,1.28184,0.97179927,-0.156432705,0.09985326
1764435596.9392557,-2.60946,0.85456,1.28184,0.97179927,-0.156432705,0.09985326
1764435596.9392557,-2.60946,0.85456,1.28184,0.97179927,-0.156432705,0.09985326
1764435596.9392557,-2.60946,0.85456,1.28184,0.97179927,-0.156432705,0.09985326
1764435596.9392557,-2.60946,0.85456,1.28184,0.97179927,-0.156432705,0.09985326
1764435596.9392557,-2.68576,0.6714399999999999,1.11398,0.97326411,-0.156676845,0.099670155
1764435596.9392557,-2.68576,0.6714399999999999,1.11398,0.97326411,-0.156676845,0.099670155
1764435596.9392557,-2.68576,0.6714399999999999,1.11398,0.97326411,-0.156676845,0.099670155
1764435596.9392557,-2.68576,0.6714399999999999,1.11398,0.97326411,-0.156676845,0.099670155
1764435596.9392557,-2.68576,0.6714399999999999,1.11398,0.97326411,-0.156676845,0.099670155
1764435596.9392557,-2.68576,0.6714399999999999,1.11398,0.97326411,-0.156676845,0.099670155
1764435596.9392557,-2.68576,0.6714399999999999,1.11398,0.97326411,-0.156676845,0.099670155
1764435596.9392557,-2.68576,0.6714399999999999,1.11398,0.97326411,-0.156676845,0.099670155
1764435596.9392557,-2.68576,0.6714399999999999,1.11398,0.97326411,-0.156676845,0.099670155
1764435596.9392557,-2.68576,0.6714399999999999,1.11398,0.97326411,-0.156676845,0.099670155
1764435596.9403274,-2.35004,0.71722,0.74774,0.973691355,-0.156798915,0.09851049
1764435596.9403274,-2.35004,0.71722,0.74774,0.973691355,-0.156798915,0.09851049
1764435596.9403274,-2.35004,0.71722,0.74774,0.973691355,-0.156798915,0.09851049
1764435596.9403274,-2.35004,0.71722,0.74774,0.973691355,-0.156798915,0.09851049
1764435596.9403274,-2.35004,0.71722,0.74774,0.973691355,-0.156798915,0.09851049
1764435596.9403274,-2.35004,0.71722,0.74774,0.973691355,-0.156798915,0.09851049
1764435596.9403274,-2.35004,0.71722,0.74774,0.973691355,-0.156798915,0.09851049
1764435596.9403274,-2.35004,0.71722,0.74774,0.973691355,-0.156798915,0.09851049
1764435596.9849644,-2.35004,0.71722,0.74774,0.973691355,-0.156798915,0.09851049
1764435596.9849644,-2.35004,0.71722,0.74774,0.973691355,-0.156798915,0.09851049
1764435596.9849644,-2.65524,0.77826,0.8698199999999999,0.974179635,-0.15612753,0.098571525
1764435596.985977,-2.65524,0.77826,0.8698199999999999,0.974179635,-0.15612753,0.098571525
1764435596.985977,-2.65524,0.77826,0.8698199999999999,0.974179635,-0.15612753,0.098571525
1764435596.985977,-2.65524,0.77826,0.8698199999999999,0.974179635,-0.15612753,0.098571525
1764435596.985977,-2.65524,0.77826,0.8698199999999999,0.974179635,-0.15612753,0.098571525
1764435596.985977,-2.65524,0.77826,0.8698199999999999,0.974179635,-0.15612753,0.098571525
1764435596.985977,-2.65524,0.77826,0.8698199999999999,0.974179635,-0.15612753,0.098571525
1764435596.985977,-2.65524,0.77826,0.8698199999999999,0.974179635,-0.15612753,0.098571525
1764435596.985977,-2.65524,0.77826,0.8698199999999999,0.974179635,-0.15612753,0.098571525
1764435596.9874873,-2.65524,0.77826,0.8698199999999999,0.974179635,-0.15612753,0.098571525
1764435596.9874873,-3.08252,1.7549,0.96138,0.975644475,-0.15710409,0.098571525
1764435596.9874873,-3.08252,1.7549,0.96138,0.975644475,-0.15710409,0.098571525
1764435596.9874873,-3.08252,1.7549,0.96138,0.975644475,-0.15710409,0.098571525
1764435596.9874873,-3.08252,1.7549,0.96138,0.975644475,-0.15710409,0.098571525
1764435596.9874873,-3.08252,1.7549,0.96138,0.975644475,-0.15710409,0.098571525
1764435596.9885015,-3.08252,1.7549,0.96138,0.975644475,-0.15710409,0.098571525
1764435596.9885015,-3.08252,1.7549,0.96138,0.975644475,-0.15710409,0.098571525
1764435596.9895062,-3.08252,1.7549,0.96138,0.975644475,-0.15710409,0.098571525
1764435596.9895062,-3.08252,1.7549,0.96138,0.975644475,-0.15710409,0.098571525
1764435596.9895062,-3.08252,1.7549,0.96138,0.975644475,-0.15710409,0.098571525
1764435596.9895062,-3.18934,0.94612,0.6867,0.974789985,-0.15637167,0.097594965
1764435596.9895062,-3.18934,0.94612,0.6867,0.974789985,-0.15637167,0.097594965
1764435597.0337512,-3.18934,0.94612,0.6867,0.974789985,-0.15637167,0.097594965
1764435597.0337512,-3.18934,0.94612,0.6867,0.974789985,-0.15637167,0.097594965
1764435597.0337512,-3.18934,0.94612,0.6867,0.974789985,-0.15637167,0.097594965
1764435597.0337512,-3.18934,0.94612,0.6867,0.974789985,-0.15637167,0.097594965
1764435597.0337512,-3.18934,0.94612,0.6867,0.974789985,-0.15637167,0.097594965
1764435597.0337512,-3.18934,0.94612,0.6867,0.974789985,-0.15637167,0.097594965
1764435597.0337512,-3.18934,0.94612,0.6867,0.974789985,-0.15637167,0.097594965
1764435597.0337512,-3.18934,0.94612,0.6867,0.974789985,-0.15637167,0.097594965
1764435597.0337512,-3.75396,0.48832,0.7019599999999999,0.97399653,-0.15600546,0.097717035
1764435597.0337512,-3.75396,0.48832,0.7019599999999999,0.97399653,-0.15600546,0.097717035
1764435597.0337512,-3.75396,0.48832,0.7019599999999999,0.97399653,-0.15600546,0.097717035
1764435597.0337512,-3.75396,0.48832,0.7019599999999999,0.97399653,-0.15600546,0.097717035
1764435597.0337512,-3.75396,0.48832,0.7019599999999999,0.97399653,-0.15600546,0.097717035
1764435597.0337512,-3.75396,0.48832,0.7019599999999999,0.97399653,-0.15600546,0.097717035
1764435597.0337512,-3.75396,0.48832,0.7019599999999999,0.97399653,-0.15600546,0.097717035
1764435597.0337512,-3.75396,0.48832,0.7019599999999999,0.97399653,-0.15600546,0.097717035
1764435597.0337512,-3.75396,0.48832,0.7019599999999999,0.97399653,-0.15600546,0.097717035
1764435597.0337512,-3.75396,0.48832,0.7019599999999999,0.97399653,-0.15600546,0.097717035
1764435597.0337512,-4.822159999999999,0.77826,0.94612,0.973935495,-0.154845795,0.097717035
1764435597.0337512,-4.822159999999999,0.77826,0.94612,0.973935495,-0.154845795,0.097717035
1764435597.0337512,-4.822159999999999,0.77826,0.94612,0.973935495,-0.154845795,0.097717035
1764435597.0337512,-4.822159999999999,0.77826,0.94612,0.973935495,-0.154845795,0.097717035
1764435597.0337512,-4.822159999999999,0.77826,0.94612,0.973935495,-0.154845795,0.097717035
1764435597.0337512,-4.822159999999999,0.77826,0.94612,0.973935495,-0.154845795,0.097717035
1764435597.0804603,-4.822159999999999,0.77826,0.94612,0.973935495,-0.154845795,0.097717035
1764435597.0804603,-4.822159999999999,0.77826,0.94612,0.973935495,-0.154845795,0.097717035
1764435597.0804603,-4.822159999999999,0.77826,0.94612,0.973935495,-0.154845795,0.097717035
1764435597.0804603,-4.822159999999999,0.77826,0.94612,0.973935495,-0.154845795,0.097717035
1764435597.0804603,-4.852679999999999,0.7019599999999999,0.79352,0.974179635,-0.15490683,0.097961175
1764435597.0816505,-4.852679999999999,0.7019599999999999,0.79352,0.974179635,-0.15490683,0.097961175
1764435597.0816505,-4.852679999999999,0.7019599999999999,0.79352,0.974179635,-0.15490683,0.097961175
1764435597.0816505,-4.852679999999999,0.7019599999999999,0.79352,0.974179635,-0.15490683,0.097961175
1764435597.0816505,-4.852679999999999,0.7019599999999999,0.79352,0.974179635,-0.15490683,0.097961175
1764435597.0816505,-4.852679999999999,0.7019599999999999,0.79352,0.974179635,-0.15490683,0.097961175
1764435597.0816505,-4.852679999999999,0.7019599999999999,0.79352,0.974179635,-0.15490683,0.097961175
1764435597.0816505,-4.852679999999999,0.7019599999999999,0.79352,0.974179635,-0.15490683,0.097961175
1764435597.0816505,-4.852679999999999,0.7019599999999999,0.79352,0.974179635,-0.15490683,0.097961175
1764435597.0816505,-4.852679999999999,0.7019599999999999,0.79352,0.974179635,-0.15490683,0.097961175
1764435597.0816505,-5.67672,1.08346,0.9156,0.97240962,-0.15454062,0.097839105
1764435597.0816505,-5.67672,1.08346,0.9156,0.97240962,-0.15454062,0.097839105
1764435597.0816505,-5.67672,1.08346,0.9156,0.97240962,-0.15454062,0.097839105
1764435597.0816505,-5.67672,1.08346,0.9156,0.97240962,-0.15454062,0.097839105
1764435597.0816505,-5.67672,1.08346,0.9156,0.97240962,-0.15454062,0.097839105
1764435597.0816505,-5.67672,1.08346,0.9156,0.97240962,-0.15454062,0.097839105
1764435597.0816505,-5.67672,1.08346,0.9156,0.97240962,-0.15454062,0.097839105
1764435597.0816505,-5.67672,1.08346,0.9156,0.97240962,-0.15454062,0.097839105
1764435597.1312182,-5.67672,1.08346,0.9156,0.97240962,-0.15454062,0.097839105
1764435597.1312182,-5.67672,1.08346,0.9156,0.97240962,-0.15454062,0.097839105
1764435597.1312182,-5.340999999999999,1.28184,0.3509799999999999,0.97192134,-0.155456145,0.097961175
1764435597.1312182,-5.340999999999999,1.28184,0.3509799999999999,0.97192134,-0.155456145,0.097961175
1764435597.1312182,-5.340999999999999,1.28184,0.3509799999999999,0.97192134,-0.155456145,0.097961175
1764435597.1312182,-5.340999999999999,1.28184,0.3509799999999999,0.97192134,-0.155456145,0.097961175
1764435597.1312182,-5.340999999999999,1.28184,0.3509799999999999,0.97192134,-0.155456145,0.097961175
1764435597.1312182,-5.340999999999999,1.28184,0.3509799999999999,0.97192134,-0.155456145,0.097961175
1764435597.1312182,-5.340999999999999,1.28184,0.3509799999999999,0.97192134,-0.155456145,0.097961175
1764435597.1312182,-5.340999999999999,1.28184,0.3509799999999999,0.97192134,-0.155456145,0.097961175
1764435597.1312182,-5.340999999999999,1.28184,0.3509799999999999,0.97192134,-0.155456145,0.097961175
1764435597.1312182,-5.340999999999999,1.28184,0.3509799999999999,0.97192134,-0.155456145,0.097961175
1764435597.1312182,-5.60042,1.05294,0.10682,0.971494095,-0.156066495,0.09802221
1764435597.1312182,-5.60042,1.05294,0.10682,0.971494095,-0.156066495,0.09802221
1764435597.1312182,-5.60042,1.05294,0.10682,0.971494095,-0.156066495,0.09802221
1764435597.1312182,-5.60042,1.05294,0.10682,0.971494095,-0.156066495,0.09802221
1764435597.1312182,-5.60042,1.05294,0.10682,0.971494095,-0.156066495,0.09802221
1764435597.1322136,-5.60042,1.05294,0.10682,0.971494095,-0.156066495,0.09802221
1764435597.1322136,-5.60042,1.05294,0.10682,0.971494095,-0.156066495,0.09802221
1764435597.1322136,-5.60042,1.05294,0.10682,0.971494095,-0.156066495,0.09802221
1764435597.1322136,-5.60042,1.05294,0.10682,0.971494095,-0.156066495,0.09802221
1764435597.1322136,-5.60042,1.05294,0.10682,0.971494095,-0.156066495,0.09802221
1764435597.1322136,-4.440659999999999,1.1445,-0.10682,0.97131099,-0.15710409,0.09912084
1764435597.1322136,-4.440659999999999,1.1445,-0.10682,0.97131099,-0.15710409,0.09912084
1764435597.1710875,-4.440659999999999,1.1445,-0.10682,0.97131099,-0.15710409,0.09912084
1764435597.1710875,-4.440659999999999,1.1445,-0.10682,0.97131099,-0.15710409,0.09912084
1764435597.1710875,-4.440659999999999,1.1445,-0.10682,0.97131099,-0.15710409,0.09912084
1764435597.1710875,-4.440659999999999,1.1445,-0.10682,0.97131099,-0.15710409,0.09912084
1764435597.172108,-4.440659999999999,1.1445,-0.10682,0.97131099,-0.15710409,0.09912084
1764435597.172108,-4.440659999999999,1.1445,-0.10682,0.97131099,-0.15710409,0.09912084
1764435597.172108,-4.440659999999999,1.1445,-0.10682,0.97131099,-0.15710409,0.09912084
1764435597.172108,-4.440659999999999,1.1445,-0.10682,0.97131099,-0.15710409,0.09912084
1764435597.172108,-3.5098,1.31236,-0.4578,0.97253169,-0.158141685,0.09997533
1764435597.172108,-3.5098,1.31236,-0.4578,0.97253169,-0.158141685,0.09997533
1764435597.172108,-3.5098,1.31236,-0.4578,0.97253169,-0.158141685,0.09997533
1764435597.172108,-3.5098,1.31236,-0.4578,0.97253169,-0.158141685,0.09997533
1764435597.172108,-3.5098,1.31236,-0.4578,0.97253169,-0.158141685,0.09997533
1764435597.172108,-3.5098,1.31236,-0.4578,0.97253169,-0.158141685,0.09997533
1764435597.172108,-3.5098,1.31236,-0.4578,0.97253169,-0.158141685,0.09997533
1764435597.172108,-3.5098,1.31236,-0.4578,0.97253169,-0.158141685,0.09997533
1764435597.172108,-3.5098,1.31236,-0.4578,0.97253169,-0.158141685,0.09997533
1764435597.172108,-3.5098,1.31236,-0.4578,0.97253169,-0.158141685,0.09997533
1764435597.1741097,-3.08252,0.85456,-0.04578,0.97265376,-0.15832479,0.100036365
1764435597.1741097,-3.08252,0.85456,-0.04578,0.97265376,-0.15832479,0.100036365
1764435597.1741097,-3.08252,0.85456,-0.04578,0.97265376,-0.15832479,0.100036365
1764435597.1751082,-3.08252,0.85456,-0.04578,0.97265376,-0.15832479,0.100036365
1764435597.2196329,-3.08252,0.85456,-0.04578,0.97265376,-0.15832479,0.100036365
1764435597.220649,-3.08252,0.85456,-0.04578,0.97265376,-0.15832479,0.100036365
1764435597.220649,-3.08252,0.85456,-0.04578,0.97265376,-0.15832479,0.100036365
1764435597.220649,-3.08252,0.85456,-0.04578,0.97265376,-0.15832479,0.100036365
1764435597.220649,-3.08252,0.85456,-0.04578,0.97265376,-0.15832479,0.100036365
1764435597.220649,-3.08252,0.85456,-0.04578,0.97265376,-0.15832479,0.100036365
1764435597.220649,-2.42634,0.6103999999999999,-0.06104,0.97265376,-0.1574703,0.100036365
1764435597.220649,-2.42634,0.6103999999999999,-0.06104,0.97265376,-0.1574703,0.100036365
1764435597.220649,-2.42634,0.6103999999999999,-0.06104,0.97265376,-0.1574703,0.100036365
1764435597.220649,-2.42634,0.6103999999999999,-0.06104,0.97265376,-0.1574703,0.100036365
1764435597.220649,-2.42634,0.6103999999999999,-0.06104,0.97265376,-0.1574703,0.100036365
1764435597.220649,-2.42634,0.6103999999999999,-0.06104,0.97265376,-0.1574703,0.100036365
1764435597.220649,-2.42634,0.6103999999999999,-0.06104,0.97265376,-0.1574703,0.100036365
1764435597.220649,-2.42634,0.6103999999999999,-0.06104,0.97265376,-0.1574703,0.100036365
1764435597.220649,-2.42634,0.6103999999999999,-0.06104,0.97265376,-0.1574703,0.100036365
1764435597.220649,-2.42634,0.6103999999999999,-0.06104,0.97265376,-0.1574703,0.100036365
1764435597.220649,-2.5942,0.42728,0.0762999999999999,0.972958935,-0.1562496,0.09960912
1764435597.220649,-2.5942,0.42728,0.0762999999999999,0.972958935,-0.1562496,0.09960912
1764435597.220649,-2.5942,0.42728,0.0762999999999999,0.972958935,-0.1562496,0.09960912
1764435597.220649,-2.5942,0.42728,0.0762999999999999,0.972958935,-0.1562496,0.09960912
1764435597.220649,-2.5942,0.42728,0.0762999999999999,0.972958935,-0.1562496,0.09960912
1764435597.220649,-2.5942,0.42728,0.0762999999999999,0.972958935,-0.1562496,0.09960912
1764435597.220649,-2.5942,0.42728,0.0762999999999999,0.972958935,-0.1562496,0.09960912
1764435597.220649,-2.5942,0.42728,0.0762999999999999,0.972958935,-0.1562496,0.09960912
1764435597.2638357,-2.5942,0.42728,0.0762999999999999,0.972958935,-0.1562496,0.09960912
1764435597.2638357,-2.5942,0.42728,0.0762999999999999,0.972958935,-0.1562496,0.09960912
1764435597.2638357,-2.8994,0.2289,0.6409199999999999,0.97350825,-0.153747165,0.09936498
1764435597.2638357,-2.8994,0.2289,0.6409199999999999,0.97350825,-0.153747165,0.09936498
1764435597.2638357,-2.8994,0.2289,0.6409199999999999,0.97350825,-0.153747165,0.09936498
1764435597.2638357,-2.8994,0.2289,0.6409199999999999,0.97350825,-0.153747165,0.09936498
1764435597.2656038,-2.8994,0.2289,0.6409199999999999,0.97350825,-0.153747165,0.09936498
1764435597.2656038,-2.8994,0.2289,0.6409199999999999,0.97350825,-0.153747165,0.09936498
1764435597.2656038,-2.8994,0.2289,0.6409199999999999,0.97350825,-0.153747165,0.09936498
1764435597.2656038,-2.8994,0.2289,0.6409199999999999,0.97350825,-0.153747165,0.09936498
1764435597.2656038,-2.8994,0.2289,0.6409199999999999,0.97350825,-0.153747165,0.09936498
1764435597.2656038,-2.8994,0.2289,0.6409199999999999,0.97350825,-0.153747165,0.09936498
1764435597.267141,-3.49454,-0.6409199999999999,1.05294,0.973203075,-0.15222129,0.09814428
1764435597.267141,-3.49454,-0.6409199999999999,1.05294,0.973203075,-0.15222129,0.09814428
1764435597.267141,-3.49454,-0.6409199999999999,1.05294,0.973203075,-0.15222129,0.09814428
1764435597.267141,-3.49454,-0.6409199999999999,1.05294,0.973203075,-0.15222129,0.09814428
1764435597.267141,-3.49454,-0.6409199999999999,1.05294,0.973203075,-0.15222129,0.09814428
1764435597.268154,-3.49454,-0.6409199999999999,1.05294,0.973203075,-0.15222129,0.09814428
1764435597.268154,-3.49454,-0.6409199999999999,1.05294,0.973203075,-0.15222129,0.09814428
1764435597.268154,-3.49454,-0.6409199999999999,1.05294,0.973203075,-0.15222129,0.09814428
1764435597.268154,-3.49454,-0.6409199999999999,1.05294,0.973203075,-0.15222129,0.09814428
1764435597.2691555,-3.49454,-0.6409199999999999,1.05294,0.973203075,-0.15222129,0.09814428
1764435597.2691555,-4.440659999999999,-0.3815,1.2055399999999998,0.973935495,-0.15185508,0.09753393
1764435597.2691555,-4.440659999999999,-0.3815,1.2055399999999998,0.973935495,-0.15185508,0.09753393
1764435597.3097484,-4.440659999999999,-0.3815,1.2055399999999998,0.973935495,-0.15185508,0.09753393
1764435597.3097484,-4.440659999999999,-0.3815,1.2055399999999998,0.973935495,-0.15185508,0.09753393
1764435597.3097484,-4.440659999999999,-0.3815,1.2055399999999998,0.973935495,-0.15185508,0.09753393
1764435597.3097484,-4.440659999999999,-0.3815,1.2055399999999998,0.973935495,-0.15185508,0.09753393
1764435597.3097484,-4.440659999999999,-0.3815,1.2055399999999998,0.973935495,-0.15185508,0.09753393
1764435597.3097484,-4.440659999999999,-0.3815,1.2055399999999998,0.973935495,-0.15185508,0.09753393
1764435597.3097484,-4.440659999999999,-0.3815,1.2055399999999998,0.973935495,-0.15185508,0.09753393
1764435597.3097484,-4.440659999999999,-0.3815,1.2055399999999998,0.973935495,-0.15185508,0.09753393
1764435597.3097484,-5.1121,-0.27468,1.17502,0.97436274,-0.15161094,0.09716772
1764435597.3097484,-5.1121,-0.27468,1.17502,0.97436274,-0.15161094,0.09716772
1764435597.31215,-5.1121,-0.27468,1.17502,0.97436274,-0.15161094,0.09716772
1764435597.31215,-5.1121,-0.27468,1.17502,0.97436274,-0.15161094,0.09716772
1764435597.31215,-5.1121,-0.27468,1.17502,0.97436274,-0.15161094,0.09716772
1764435597.31215,-5.1121,-0.27468,1.17502,0.97436274,-0.15161094,0.09716772
1764435597.31215,-5.1121,-0.27468,1.17502,0.97436274,-0.15161094,0.09716772
1764435597.31215,-5.1121,-0.27468,1.17502,0.97436274,-0.15161094,0.09716772
1764435597.31215,-5.1121,-0.27468,1.17502,0.97436274,-0.15161094,0.09716772
1764435597.31215,-5.1121,-0.27468,1.17502,0.97436274,-0.15161094,0.09716772
1764435597.31215,-5.55464,0.48832,1.03768,0.974423775,-0.152648535,0.096374265
1764435597.31215,-5.55464,0.48832,1.03768,0.974423775,-0.152648535,0.096374265
1764435597.31215,-5.55464,0.48832,1.03768,0.974423775,-0.152648535,0.096374265
1764435597.31215,-5.55464,0.48832,1.03768,0.974423775,-0.152648535,0.096374265
1764435597.359432,-5.55464,0.48832,1.03768,0.974423775,-0.152648535,0.096374265
1764435597.359432,-5.55464,0.48832,1.03768,0.974423775,-0.152648535,0.096374265
1764435597.359432,-5.55464,0.48832,1.03768,0.974423775,-0.152648535,0.096374265
1764435597.359432,-5.55464,0.48832,1.03768,0.974423775,-0.152648535,0.096374265
1764435597.359432,-5.55464,0.48832,1.03768,0.974423775,-0.152648535,0.096374265
1764435597.359432,-5.55464,0.48832,1.03768,0.974423775,-0.152648535,0.096374265
1764435597.359432,-5.43256,0.39676,1.2055399999999998,0.97460688,-0.15429648,0.09655737
1764435597.359432,-5.43256,0.39676,1.2055399999999998,0.97460688,-0.15429648,0.09655737
1764435597.359432,-5.43256,0.39676,1.2055399999999998,0.97460688,-0.15429648,0.09655737
1764435597.359432,-5.43256,0.39676,1.2055399999999998,0.97460688,-0.15429648,0.09655737
1764435597.359432,-5.43256,0.39676,1.2055399999999998,0.97460688,-0.15429648,0.09655737
1764435597.359432,-5.43256,0.39676,1.2055399999999998,0.97460688,-0.15429648,0.09655737
1764435597.3604486,-5.43256,0.39676,1.2055399999999998,0.97460688,-0.15429648,0.09655737
1764435597.3604486,-5.43256,0.39676,1.2055399999999998,0.97460688,-0.15429648,0.09655737
1764435597.3604486,-5.43256,0.39676,1.2055399999999998,0.97460688,-0.15429648,0.09655737
1764435597.3604486,-5.43256,0.39676,1.2055399999999998,0.97460688,-0.15429648,0.09655737
1764435597.3604486,-5.08158,0.8087799999999999,1.19028,0.973813425,-0.155822355,0.096374265
1764435597.3604486,-5.08158,0.8087799999999999,1.19028,0.973813425,-0.155822355,0.096374265
1764435597.3604486,-5.08158,0.8087799999999999,1.19028,0.973813425,-0.155822355,0.096374265
1764435597.3604486,-5.08158,0.8087799999999999,1.19028,0.973813425,-0.155822355,0.096374265
1764435597.3604486,-5.08158,0.8087799999999999,1.19028,0.973813425,-0.155822355,0.096374265
1764435597.3604486,-5.08158,0.8087799999999999,1.19028,0.973813425,-0.155822355,0.096374265
1764435597.3604486,-5.08158,0.8087799999999999,1.19028,0.973813425,-0.155822355,0.096374265
1764435597.3604486,-5.08158,0.8087799999999999,1.19028,0.973813425,-0.155822355,0.096374265
1764435597.4040868,-5.08158,0.8087799999999999,1.19028,0.973813425,-0.155822355,0.096374265
1764435597.4040868,-5.08158,0.8087799999999999,1.19028,0.973813425,-0.155822355,0.096374265
1764435597.4040868,-4.37962,1.00716,1.05294,0.973813425,-0.15759237,0.097106685
1764435597.4040868,-4.37962,1.00716,1.05294,0.973813425,-0.15759237,0.097106685
1764435597.404623,-4.37962,1.00716,1.05294,0.973813425,-0.15759237,0.097106685
1764435597.404623,-4.37962,1.00716,1.05294,0.973813425,-0.15759237,0.097106685
1764435597.404623,-4.37962,1.00716,1.05294,0.973813425,-0.15759237,0.097106685
1764435597.404623,-4.37962,1.00716,1.05294,0.973813425,-0.15759237,0.097106685
1764435597.404623,-4.37962,1.00716,1.05294,0.973813425,-0.15759237,0.097106685
1764435597.404623,-4.37962,1.00716,1.05294,0.973813425,-0.15759237,0.097106685
1764435597.404623,-4.37962,1.00716,1.05294,0.973813425,-0.15759237,0.097106685
1764435597.404623,-4.37962,1.00716,1.05294,0.973813425,-0.15759237,0.097106685
1764435597.404623,-3.9676,0.96138,0.79352,0.97363032,-0.15917928,0.097350825
1764435597.404623,-3.9676,0.96138,0.79352,0.97363032,-0.15917928,0.097350825
1764435597.404623,-3.9676,0.96138,0.79352,0.97363032,-0.15917928,0.097350825
1764435597.404623,-3.9676,0.96138,0.79352,0.97363032,-0.15917928,0.097350825
1764435597.404623,-3.9676,0.96138,0.79352,0.97363032,-0.15917928,0.097350825
1764435597.404623,-3.9676,0.96138,0.79352,0.97363032,-0.15917928,0.097350825
1764435597.404623,-3.9676,0.96138,0.79352,0.97363032,-0.15917928,0.097350825
1764435597.404623,-3.9676,0.96138,0.79352,0.97363032,-0.15917928,0.097350825
1764435597.404623,-3.9676,0.96138,0.79352,0.97363032,-0.15917928,0.097350825
1764435597.404623,-3.9676,0.96138,0.79352,0.97363032,-0.15917928,0.097350825
1764435597.4498072,-3.84552,1.17502,1.19028,0.97350825,-0.16003377,0.09777807
1764435597.4498072,-3.84552,1.17502,1.19028,0.97350825,-0.16003377,0.09777807
1764435597.4498072,-3.84552,1.17502,1.19028,0.97350825,-0.16003377,0.09777807
1764435597.4498072,-3.84552,1.17502,1.19028,0.97350825,-0.16003377,0.09777807
1764435597.4498072,-3.84552,1.17502,1.19028,0.97350825,-0.16003377,0.09777807
1764435597.4498072,-3.84552,1.17502,1.19028,0.97350825,-0.16003377,0.09777807
1764435597.4498072,-3.84552,1.17502,1.19028,0.97350825,-0.16003377,0.09777807
1764435597.4498072,-3.84552,1.17502,1.19028,0.97350825,-0.16003377,0.09777807
1764435597.4508245,-3.84552,1.17502,1.19028,0.97350825,-0.16003377,0.09777807
1764435597.4508245,-3.84552,1.17502,1.19028,0.97350825,-0.16003377,0.09777807
1764435597.4508245,-4.1202,-0.0762999999999999,0.93086,0.9716772,-0.15783651,0.097228755
1764435597.4508245,-4.1202,-0.0762999999999999,0.93086,0.9716772,-0.15783651,0.097228755
1764435597.4508245,-4.1202,-0.0762999999999999,0.93086,0.9716772,-0.15783651,0.097228755
1764435597.4508245,-4.1202,-0.0762999999999999,0.93086,0.9716772,-0.15783651,0.097228755
1764435597.4508245,-4.1202,-0.0762999999999999,0.93086,0.9716772,-0.15783651,0.097228755
1764435597.4508245,-4.1202,-0.0762999999999999,0.93086,0.9716772,-0.15783651,0.097228755
1764435597.4508245,-4.1202,-0.0762999999999999,0.93086,0.9716772,-0.15783651,0.097228755
1764435597.4508245,-4.1202,-0.0762999999999999,0.93086,0.9716772,-0.15783651,0.097228755
1764435597.4508245,-4.1202,-0.0762999999999999,0.93086,0.9716772,-0.15783651,0.097228755
1764435597.4508245,-4.1202,-0.0762999999999999,0.93086,0.9716772,-0.15783651,0.097228755
1764435597.4528725,-5.2647,-1.12924,0.0,0.972104445,-0.15551718,0.097106685
1764435597.4528725,-5.2647,-1.12924,0.0,0.972104445,-0.15551718,0.097106685
1764435597.4528725,-5.2647,-1.12924,0.0,0.972104445,-0.15551718,0.097106685
1764435597.4528725,-5.2647,-1.12924,0.0,0.972104445,-0.15551718,0.097106685
1764435597.499847,-5.2647,-1.12924,0.0,0.972104445,-0.15551718,0.097106685
1764435597.501053,-5.2647,-1.12924,0.0,0.972104445,-0.15551718,0.097106685
1764435597.501053,-5.2647,-1.12924,0.0,0.972104445,-0.15551718,0.097106685
1764435597.501053,-5.2647,-1.12924,0.0,0.972104445,-0.15551718,0.097106685
1764435597.501053,-5.2647,-1.12924,0.0,0.972104445,-0.15551718,0.097106685
1764435597.501053,-5.2647,-1.12924,0.0,0.972104445,-0.15551718,0.097106685
1764435597.501053,-6.04296,-1.2055399999999998,-0.5341,0.97363032,-0.155089935,0.097106685
1764435597.501053,-6.04296,-1.2055399999999998,-0.5341,0.97363032,-0.155089935,0.097106685
1764435597.501053,-6.04296,-1.2055399999999998,-0.5341,0.97363032,-0.155089935,0.097106685
1764435597.501053,-6.04296,-1.2055399999999998,-0.5341,0.97363032,-0.155089935,0.097106685
1764435597.501053,-6.04296,-1.2055399999999998,-0.5341,0.97363032,-0.155089935,0.097106685
1764435597.501053,-6.04296,-1.2055399999999998,-0.5341,0.97363032,-0.155089935,0.097106685
1764435597.502568,-6.04296,-1.2055399999999998,-0.5341,0.97363032,-0.155089935,0.097106685
1764435597.502972,-6.04296,-1.2055399999999998,-0.5341,0.97363032,-0.155089935,0.097106685
1764435597.502972,-6.04296,-1.2055399999999998,-0.5341,0.97363032,-0.155089935,0.097106685
1764435597.502972,-6.04296,-1.2055399999999998,-0.5341,0.97363032,-0.155089935,0.097106685
1764435597.502972,-6.98908,-0.763,-0.7019599999999999,0.97314204,-0.15466269,0.097350825
1764435597.502972,-6.98908,-0.763,-0.7019599999999999,0.97314204,-0.15466269,0.097350825
1764435597.502972,-6.98908,-0.763,-0.7019599999999999,0.97314204,-0.15466269,0.097350825
1764435597.502972,-6.98908,-0.763,-0.7019599999999999,0.97314204,-0.15466269,0.097350825
1764435597.502972,-6.98908,-0.763,-0.7019599999999999,0.97314204,-0.15466269,0.097350825
1764435597.502972,-6.98908,-0.763,-0.7019599999999999,0.97314204,-0.15466269,0.097350825
1764435597.502972,-6.98908,-0.763,-0.7019599999999999,0.97314204,-0.15466269,0.097350825
1764435597.502972,-6.98908,-0.763,-0.7019599999999999,0.97314204,-0.15466269,0.097350825
1764435597.5419786,-6.98908,-0.763,-0.7019599999999999,0.97314204,-0.15466269,0.097350825
1764435597.5429912,-6.98908,-0.763,-0.7019599999999999,0.97314204,-0.15466269,0.097350825
1764435597.5429912,-8.0115,-0.9156,-1.2055399999999998,0.972348585,-0.152770605,0.097350825
1764435597.5429912,-8.0115,-0.9156,-1.2055399999999998,0.972348585,-0.152770605,0.097350825
1764435597.5429912,-8.0115,-0.9156,-1.2055399999999998,0.972348585,-0.152770605,0.097350825
1764435597.5429912,-8.0115,-0.9156,-1.2055399999999998,0.972348585,-0.152770605,0.097350825
1764435597.5429912,-8.0115,-0.9156,-1.2055399999999998,0.972348585,-0.152770605,0.097350825
1764435597.5429912,-8.0115,-0.9156,-1.2055399999999998,0.972348585,-0.152770605,0.097350825
1764435597.5429912,-8.0115,-0.9156,-1.2055399999999998,0.972348585,-0.152770605,0.097350825
1764435597.5429912,-8.0115,-0.9156,-1.2055399999999998,0.972348585,-0.152770605,0.097350825
1764435597.5429912,-8.0115,-0.9156,-1.2055399999999998,0.972348585,-0.152770605,0.097350825
1764435597.5429912,-8.0115,-0.9156,-1.2055399999999998,0.972348585,-0.152770605,0.097350825
1764435597.5439987,-8.51508,-0.88508,-0.94612,0.971982375,-0.15246543,0.09777807
1764435597.5439987,-8.51508,-0.88508,-0.94612,0.971982375,-0.15246543,0.09777807
1764435597.5439987,-8.51508,-0.88508,-0.94612,0.971982375,-0.15246543,0.09777807
1764435597.5439987,-8.51508,-0.88508,-0.94612,0.971982375,-0.15246543,0.09777807
1764435597.5439987,-8.51508,-0.88508,-0.94612,0.971982375,-0.15246543,0.09777807
1764435597.5439987,-8.51508,-0.88508,-0.94612,0.971982375,-0.15246543,0.09777807
1764435597.5439987,-8.51508,-0.88508,-0.94612,0.971982375,-0.15246543,0.09777807
1764435597.5439987,-8.51508,-0.88508,-0.94612,0.971982375,-0.15246543,0.09777807
1764435597.5439987,-8.51508,-0.88508,-0.94612,0.971982375,-0.15246543,0.09777807
1764435597.5439987,-8.51508,-0.88508,-0.94612,0.971982375,-0.15246543,0.09777807
1764435597.5910735,-8.454039999999999,-0.9919,-1.2055399999999998,0.971249955,-0.153869235,0.09802221
1764435597.5916004,-8.454039999999999,-0.9919,-1.2055399999999998,0.971249955,-0.153869235,0.09802221
1764435597.5916004,-8.454039999999999,-0.9919,-1.2055399999999998,0.971249955,-0.153869235,0.09802221
1764435597.5916004,-8.454039999999999,-0.9919,-1.2055399999999998,0.971249955,-0.153869235,0.09802221
1764435597.5916004,-8.454039999999999,-0.9919,-1.2055399999999998,0.971249955,-0.153869235,0.09802221
1764435597.5916004,-8.454039999999999,-0.9919,-1.2055399999999998,0.971249955,-0.153869235,0.09802221
1764435597.5916004,-8.454039999999999,-0.9919,-1.2055399999999998,0.971249955,-0.153869235,0.09802221
1764435597.5916004,-8.454039999999999,-0.9919,-1.2055399999999998,0.971249955,-0.153869235,0.09802221
1764435597.5916004,-8.454039999999999,-0.9919,-1.2055399999999998,0.971249955,-0.153869235,0.09802221
1764435597.5916004,-8.454039999999999,-0.9919,-1.2055399999999998,0.971249955,-0.153869235,0.09802221
1764435597.5916004,-8.1641,-1.35814,-0.9156,0.97192134,-0.15490683,0.09814428
1764435597.5916004,-8.1641,-1.35814,-0.9156,0.97192134,-0.15490683,0.09814428
1764435597.5916004,-8.1641,-1.35814,-0.9156,0.97192134,-0.15490683,0.09814428
1764435597.5921175,-8.1641,-1.35814,-0.9156,0.97192134,-0.15490683,0.09814428
1764435597.5921175,-8.1641,-1.35814,-0.9156,0.97192134,-0.15490683,0.09814428
1764435597.5921175,-8.1641,-1.35814,-0.9156,0.97192134,-0.15490683,0.09814428
1764435597.5921175,-8.1641,-1.35814,-0.9156,0.97192134,-0.15490683,0.09814428
1764435597.5921175,-8.1641,-1.35814,-0.9156,0.97192134,-0.15490683,0.09814428
1764435597.5921175,-8.1641,-1.35814,-0.9156,0.97192134,-0.15490683,0.09814428
1764435597.5921175,-8.1641,-1.35814,-0.9156,0.97192134,-0.15490683,0.09814428
1764435597.5921175,-8.07254,-0.48832,-1.08346,0.97375239,-0.15466269,0.097228755
1764435597.5921175,-8.07254,-0.48832,-1.08346,0.97375239,-0.15466269,0.097228755
1764435597.5921175,-8.07254,-0.48832,-1.08346,0.97375239,-0.15466269,0.097228755
1764435597.5921175,-8.07254,-0.48832,-1.08346,0.97375239,-0.15466269,0.097228755
1764435597.6359918,-8.07254,-0.48832,-1.08346,0.97375239,-0.15466269,0.097228755
1764435597.6359918,-8.07254,-0.48832,-1.08346,0.97375239,-0.15466269,0.097228755
1764435597.6359918,-8.07254,-0.48832,-1.08346,0.97375239,-0.15466269,0.097228755
1764435597.6359918,-8.07254,-0.48832,-1.08346,0.97375239,-0.15466269,0.097228755
1764435597.6359918,-8.07254,-0.48832,-1.08346,0.97375239,-0.15466269,0.097228755
1764435597.6359918,-8.07254,-0.48832,-1.08346,0.97375239,-0.15466269,0.097228755
1764435597.6359918,-7.996239999999999,-1.31236,-0.97664,0.972836865,-0.15515097,0.096008055
1764435597.6359918,-7.996239999999999,-1.31236,-0.97664,0.972836865,-0.15515097,0.096008055
1764435597.6359918,-7.996239999999999,-1.31236,-0.97664,0.972836865,-0.15515097,0.096008055
1764435597.6359918,-7.996239999999999,-1.31236,-0.97664,0.972836865,-0.15515097,0.096008055
1764435597.6359918,-7.996239999999999,-1.31236,-0.97664,0.972836865,-0.15515097,0.096008055
1764435597.6359918,-7.996239999999999,-1.31236,-0.97664,0.972836865,-0.15515097,0.096008055
1764435597.6359918,-7.996239999999999,-1.31236,-0.97664,0.972836865,-0.15515097,0.096008055
1764435597.6359918,-7.996239999999999,-1.31236,-0.97664,0.972836865,-0.15515097,0.096008055
1764435597.6359918,-7.996239999999999,-1.31236,-0.97664,0.972836865,-0.15515097,0.096008055
1764435597.6359918,-7.996239999999999,-1.31236,-0.97664,0.972836865,-0.15515097,0.096008055
1764435597.6359918,-8.65242,-2.4416,-0.7019599999999999,0.973447215,-0.15478476,0.095153565
1764435597.6359918,-8.65242,-2.4416,-0.7019599999999999,0.973447215,-0.15478476,0.095153565
1764435597.6359918,-8.65242,-2.4416,-0.7019599999999999,0.973447215,-0.15478476,0.095153565
1764435597.6359918,-8.65242,-2.4416,-0.7019599999999999,0.973447215,-0.15478476,0.095153565
1764435597.6359918,-8.65242,-2.4416,-0.7019599999999999,0.973447215,-0.15478476,0.095153565
1764435597.6359918,-8.65242,-2.4416,-0.7019599999999999,0.973447215,-0.15478476,0.095153565
1764435597.6844387,-8.65242,-2.4416,-0.7019599999999999,0.973447215,-0.15478476,0.095153565
1764435597.6844387,-8.65242,-2.4416,-0.7019599999999999,0.973447215,-0.15478476,0.095153565
1764435597.6844387,-8.65242,-2.4416,-0.7019599999999999,0.973447215,-0.15478476,0.095153565
1764435597.6854377,-8.65242,-2.4416,-0.7019599999999999,0.973447215,-0.15478476,0.095153565
1764435597.6854377,-8.743979999999999,-2.2127,-0.6103999999999999,0.97436274,-0.15563925,0.09484839
1764435597.6854377,-8.743979999999999,-2.2127,-0.6103999999999999,0.97436274,-0.15563925,0.09484839
1764435597.6854377,-8.743979999999999,-2.2127,-0.6103999999999999,0.97436274,-0.15563925,0.09484839
1764435597.6854377,-8.743979999999999,-2.2127,-0.6103999999999999,0.97436274,-0.15563925,0.09484839
1764435597.686437,-8.743979999999999,-2.2127,-0.6103999999999999,0.97436274,-0.15563925,0.09484839
1764435597.686437,-8.743979999999999,-2.2127,-0.6103999999999999,0.97436274,-0.15563925,0.09484839
1764435597.686437,-8.743979999999999,-2.2127,-0.6103999999999999,0.97436274,-0.15563925,0.09484839
1764435597.686437,-8.743979999999999,-2.2127,-0.6103999999999999,0.97436274,-0.15563925,0.09484839
1764435597.687437,-8.743979999999999,-2.2127,-0.6103999999999999,0.97436274,-0.15563925,0.09484839
1764435597.687437,-8.743979999999999,-2.2127,-0.6103999999999999,0.97436274,-0.15563925,0.09484839
1764435597.6879475,-8.51508,-3.54032,-0.8087799999999999,0.974179635,-0.155578215,0.09509253
1764435597.6879475,-8.51508,-3.54032,-0.8087799999999999,0.974179635,-0.155578215,0.09509253
1764435597.6879475,-8.51508,-3.54032,-0.8087799999999999,0.974179635,-0.155578215,0.09509253
1764435597.6879475,-8.51508,-3.54032,-0.8087799999999999,0.974179635,-0.155578215,0.09509253
1764435597.6879475,-8.51508,-3.54032,-0.8087799999999999,0.974179635,-0.155578215,0.09509253
1764435597.6879475,-8.51508,-3.54032,-0.8087799999999999,0.974179635,-0.155578215,0.09509253
1764435597.688971,-8.51508,-3.54032,-0.8087799999999999,0.974179635,-0.155578215,0.09509253
1764435597.6894262,-8.51508,-3.54032,-0.8087799999999999,0.974179635,-0.155578215,0.09509253
1764435597.6894262,-8.51508,-3.54032,-0.8087799999999999,0.974179635,-0.155578215,0.09509253
1764435597.6894262,-8.51508,-3.54032,-0.8087799999999999,0.974179635,-0.155578215,0.09509253
1764435597.7328677,-10.16316,-4.8832,-1.31236,0.97192134,-0.15331992,0.09387183
1764435597.7338834,-10.16316,-4.8832,-1.31236,0.97192134,-0.15331992,0.09387183
1764435597.7338834,-10.16316,-4.8832,-1.31236,0.97192134,-0.15331992,0.09387183
1764435597.7338834,-10.16316,-4.8832,-1.31236,0.97192134,-0.15331992,0.09387183
1764435597.7338834,-10.16316,-4.8832,-1.31236,0.97192134,-0.15331992,0.09387183
1764435597.73488,-10.16316,-4.8832,-1.31236,0.97192134,-0.15331992,0.09387183
1764435597.73488,-10.16316,-4.8832,-1.31236,0.97192134,-0.15331992,0.09387183
1764435597.73488,-10.16316,-4.8832,-1.31236,0.97192134,-0.15331992,0.09387183
1764435597.73488,-10.16316,-4.8832,-1.31236,0.97192134,-0.15331992,0.09387183
1764435597.73488,-10.16316,-4.8832,-1.31236,0.97192134,-0.15331992,0.09387183
1764435597.73488,-13.5814,-7.08064,-1.2971,0.969785115,-0.149840925,0.092956305
1764435597.73488,-13.5814,-7.08064,-1.2971,0.969785115,-0.149840925,0.092956305
1764435597.73488,-13.5814,-7.08064,-1.2971,0.969785115,-0.149840925,0.092956305
1764435597.7358806,-13.5814,-7.08064,-1.2971,0.969785115,-0.149840925,0.092956305
1764435597.7358806,-13.5814,-7.08064,-1.2971,0.969785115,-0.149840925,0.092956305
1764435597.7358806,-13.5814,-7.08064,-1.2971,0.969785115,-0.149840925,0.092956305
1764435597.7358806,-13.5814,-7.08064,-1.2971,0.969785115,-0.149840925,0.092956305
1764435597.7358806,-13.5814,-7.08064,-1.2971,0.969785115,-0.149840925,0.092956305
1764435597.7358806,-13.5814,-7.08064,-1.2971,0.969785115,-0.149840925,0.092956305
1764435597.7358806,-13.5814,-7.08064,-1.2971,0.969785115,-0.149840925,0.092956305
1764435597.7358806,-17.65582,-8.6219,-1.35814,0.968930625,-0.14697228,0.091979745
1764435597.7358806,-17.65582,-8.6219,-1.35814,0.968930625,-0.14697228,0.091979745
1764435597.7358806,-17.65582,-8.6219,-1.35814,0.968930625,-0.14697228,0.091979745
1764435597.7358806,-17.65582,-8.6219,-1.35814,0.968930625,-0.14697228,0.091979745
1764435597.779426,-17.65582,-8.6219,-1.35814,0.968930625,-0.14697228,0.091979745
1764435597.779426,-17.65582,-8.6219,-1.35814,0.968930625,-0.14697228,0.091979745
1764435597.779426,-17.65582,-8.6219,-1.35814,0.968930625,-0.14697228,0.091979745
1764435597.779426,-17.65582,-8.6219,-1.35814,0.968930625,-0.14697228,0.091979745
1764435597.779426,-17.65582,-8.6219,-1.35814,0.968930625,-0.14697228,0.091979745
1764435597.779426,-17.65582,-8.6219,-1.35814,0.968930625,-0.14697228,0.091979745
1764435597.779426,-22.7374,-10.23946,-0.8087799999999999,0.967954065,-0.145080195,0.091369395
1764435597.779426,-22.7374,-10.23946,-0.8087799999999999,0.967954065,-0.145080195,0.091369395
1764435597.779426,-22.7374,-10.23946,-0.8087799999999999,0.967954065,-0.145080195,0.091369395
1764435597.779426,-22.7374,-10.23946,-0.8087799999999999,0.967954065,-0.145080195,0.091369395
1764435597.779426,-22.7374,-10.23946,-0.8087799999999999,0.967954065,-0.145080195,0.091369395
1764435597.779426,-22.7374,-10.23946,-0.8087799999999999,0.967954065,-0.145080195,0.091369395
1764435597.779426,-22.7374,-10.23946,-0.8087799999999999,0.967954065,-0.145080195,0.091369395
1764435597.779426,-22.7374,-10.23946,-0.8087799999999999,0.967954065,-0.145080195,0.091369395
1764435597.779426,-22.7374,-10.23946,-0.8087799999999999,0.967954065,-0.145080195,0.091369395
1764435597.779426,-22.7374,-10.23946,-0.8087799999999999,0.967954065,-0.145080195,0.091369395
1764435597.779426,-27.68164,-11.5976,-0.56462,0.965756805,-0.144103635,0.08947731
1764435597.779426,-27.68164,-11.5976,-0.56462,0.965756805,-0.144103635,0.08947731
1764435597.780429,-27.68164,-11.5976,-0.56462,0.965756805,-0.144103635,0.08947731
1764435597.780429,-27.68164,-11.5976,-0.56462,0.965756805,-0.144103635,0.08947731
1764435597.780429,-27.68164,-11.5976,-0.56462,0.965756805,-0.144103635,0.08947731
1764435597.780429,-27.68164,-11.5976,-0.56462,0.965756805,-0.144103635,0.08947731
1764435597.780429,-27.68164,-11.5976,-0.56462,0.965756805,-0.144103635,0.08947731
1764435597.780429,-27.68164,-11.5976,-0.56462,0.965756805,-0.144103635,0.08947731
1764435597.8238895,-27.68164,-11.5976,-0.56462,0.965756805,-0.144103635,0.08947731
1764435597.8238895,-27.68164,-11.5976,-0.56462,0.965756805,-0.144103635,0.08947731
1764435597.8238895,-33.1905,-14.28336,-0.39676,0.96337644,-0.14367639,0.08776833
1764435597.8238895,-33.1905,-14.28336,-0.39676,0.96337644,-0.14367639,0.08776833
1764435597.8238895,-33.1905,-14.28336,-0.39676,0.96337644,-0.14367639,0.08776833
1764435597.8238895,-33.1905,-14.28336,-0.39676,0.96337644,-0.14367639,0.08776833
1764435597.8238895,-33.1905,-14.28336,-0.39676,0.96337644,-0.14367639,0.08776833
1764435597.8238895,-33.1905,-14.28336,-0.39676,0.96337644,-0.14367639,0.08776833
1764435597.8238895,-33.1905,-14.28336,-0.39676,0.96337644,-0.14367639,0.08776833
1764435597.8238895,-33.1905,-14.28336,-0.39676,0.96337644,-0.14367639,0.08776833
1764435597.8238895,-33.1905,-14.28336,-0.39676,0.96337644,-0.14367639,0.08776833
1764435597.8238895,-33.1905,-14.28336,-0.39676,0.96337644,-0.14367639,0.08776833
1764435597.8238895,-37.55486,-15.21422,-0.28994,0.964658175,-0.14587365,0.086608665
1764435597.8238895,-37.55486,-15.21422,-0.28994,0.964658175,-0.14587365,0.086608665
1764435597.8238895,-37.55486,-15.21422,-0.28994,0.964658175,-0.14587365,0.086608665
1764435597.8238895,-37.55486,-15.21422,-0.28994,0.964658175,-0.14587365,0.086608665
1764435597.8238895,-37.55486,-15.21422,-0.28994,0.964658175,-0.14587365,0.086608665
1764435597.8238895,-37.55486,-15.21422,-0.28994,0.964658175,-0.14587365,0.086608665
1764435597.8238895,-37.55486,-15.21422,-0.28994,0.964658175,-0.14587365,0.086608665
1764435597.8238895,-37.55486,-15.21422,-0.28994,0.964658175,-0.14587365,0.086608665
1764435597.8238895,-37.55486,-15.21422,-0.28994,0.964658175,-0.14587365,0.086608665
1764435597.8238895,-37.55486,-15.21422,-0.28994,0.964658175,-0.14587365,0.086608665
1764435597.868756,-42.3465,-16.57236,-1.58704,0.968564415,-0.14746056,0.082824495
1764435597.868756,-42.3465,-16.57236,-1.58704,0.968564415,-0.14746056,0.082824495
1764435597.868756,-42.3465,-16.57236,-1.58704,0.968564415,-0.14746056,0.082824495
1764435597.868756,-42.3465,-16.57236,-1.58704,0.968564415,-0.14746056,0.082824495
1764435597.869266,-42.3465,-16.57236,-1.58704,0.968564415,-0.14746056,0.082824495
1764435597.869266,-42.3465,-16.57236,-1.58704,0.968564415,-0.14746056,0.082824495
1764435597.869266,-42.3465,-16.57236,-1.58704,0.968564415,-0.14746056,0.082824495
1764435597.869266,-42.3465,-16.57236,-1.58704,0.968564415,-0.14746056,0.082824495
1764435597.8714583,-42.3465,-16.57236,-1.58704,0.968564415,-0.14746056,0.082824495
1764435597.8714583,-42.3465,-16.57236,-1.58704,0.968564415,-0.14746056,0.082824495
1764435597.8714583,-46.66508,-17.44218,-4.21176,0.97192134,-0.148864365,0.07995585
1764435597.8714583,-46.66508,-17.44218,-4.21176,0.97192134,-0.148864365,0.07995585
1764435597.8714583,-46.66508,-17.44218,-4.21176,0.97192134,-0.148864365,0.07995585
1764435597.8714583,-46.66508,-17.44218,-4.21176,0.97192134,-0.148864365,0.07995585
