Timestamp,GyroX,GyroY,GyroZ,AccX,AccY,AccZ
1764434034.8692095,-4.5017,1.32762,0.36624,-0.66125319,0.73217586,-0.10583469
1764434034.8692095,-4.5017,1.32762,0.36624,-0.66125319,0.73217586,-0.10583469
1764434034.8692095,-4.5017,1.32762,0.36624,-0.66125319,0.73217586,-0.10583469
1764434034.8692095,-4.5017,1.32762,0.36624,-0.66125319,0.73217586,-0.10583469
1764434034.8692095,-4.5017,1.32762,0.36624,-0.66125319,0.73217586,-0.10583469
1764434034.8692095,-4.5017,1.32762,0.36624,-0.66125319,0.73217586,-0.10583469
1764434034.8692095,-4.48644,1.54126,0.39676,-0.66125319,0.73278621,-0.1062009
1764434034.8692095,-4.48644,1.54126,0.39676,-0.66125319,0.73278621,-0.1062009
1764434034.8692095,-4.48644,1.54126,0.39676,-0.66125319,0.73278621,-0.1062009
1764434034.8692095,-4.48644,1.54126,0.39676,-0.66125319,0.73278621,-0.1062009
1764434034.8692095,-4.48644,1.54126,0.39676,-0.66125319,0.73278621,-0.1062009
1764434034.8692095,-4.48644,1.54126,0.39676,-0.66125319,0.73278621,-0.1062009
1764434034.8692095,-4.48644,1.54126,0.39676,-0.66125319,0.73278621,-0.1062009
1764434034.8692095,-4.48644,1.54126,0.39676,-0.66125319,0.73278621,-0.1062009
1764434034.8692095,-4.48644,1.54126,0.39676,-0.66125319,0.73278621,-0.1062009
1764434034.8692095,-4.48644,1.54126,0.39676,-0.66125319,0.73278621,-0.1062009
1764434034.8692095,-4.39488,1.92276,0.51884,-0.660825945,0.731992755,-0.10644504
1764434034.8692095,-4.39488,1.92276,0.51884,-0.660825945,0.731992755,-0.10644504
1764434034.8692095,-4.39488,1.92276,0.51884,-0.660825945,0.731992755,-0.10644504
1764434034.8692095,-4.39488,1.92276,0.51884,-0.660825945,0.731992755,-0.10644504
1764434034.8692095,-4.39488,1.92276,0.51884,-0.660825945,0.731992755,-0.10644504
1764434034.8692095,-4.39488,1.92276,0.51884,-0.660825945,0.731992755,-0.10644504
1764434034.8692095,-4.39488,1.92276,0.51884,-0.660825945,0.731992755,-0.10644504
1764434034.8692095,-4.39488,1.92276,0.51884,-0.660825945,0.731992755,-0.10644504
1764434034.9147868,-4.39488,1.92276,0.51884,-0.660825945,0.731992755,-0.10644504
1764434034.9147868,-4.39488,1.92276,0.51884,-0.660825945,0.731992755,-0.10644504
1764434034.9147868,-5.02054,1.2971,0.57988,-0.66113112,0.731992755,-0.106628145
1764434034.9147868,-5.02054,1.2971,0.57988,-0.66113112,0.731992755,-0.106628145
1764434034.9147868,-5.02054,1.2971,0.57988,-0.66113112,0.731992755,-0.106628145
1764434034.9147868,-5.02054,1.2971,0.57988,-0.66113112,0.731992755,-0.106628145
1764434034.9147868,-5.02054,1.2971,0.57988,-0.66113112,0.731992755,-0.106628145
1764434034.9147868,-5.02054,1.2971,0.57988,-0.66113112,0.731992755,-0.106628145
1764434034.9147868,-5.02054,1.2971,0.57988,-0.66113112,0.731992755,-0.106628145
1764434034.9147868,-5.02054,1.2971,0.57988,-0.66113112,0.731992755,-0.106628145
1764434034.9147868,-5.02054,1.2971,0.57988,-0.66113112,0.731992755,-0.106628145
1764434034.9147868,-5.02054,1.2971,0.57988,-0.66113112,0.731992755,-0.106628145
1764434034.9147868,-4.45592,1.8312,0.41202,-0.660703875,0.732114825,-0.106017795
1764434034.9147868,-4.45592,1.8312,0.41202,-0.660703875,0.732114825,-0.106017795
1764434034.9147868,-4.45592,1.8312,0.41202,-0.660703875,0.732114825,-0.106017795
1764434034.915802,-4.45592,1.8312,0.41202,-0.660703875,0.732114825,-0.106017795
1764434034.915802,-4.45592,1.8312,0.41202,-0.660703875,0.732114825,-0.106017795
1764434034.915802,-4.45592,1.8312,0.41202,-0.660703875,0.732114825,-0.106017795
1764434034.915802,-4.45592,1.8312,0.41202,-0.660703875,0.732114825,-0.106017795
1764434034.915802,-4.45592,1.8312,0.41202,-0.660703875,0.732114825,-0.106017795
1764434034.915802,-4.45592,1.8312,0.41202,-0.660703875,0.732114825,-0.106017795
1764434034.915802,-4.45592,1.8312,0.41202,-0.660703875,0.732114825,-0.106017795
1764434034.9582987,-4.47118,1.09872,0.4578,-0.66052077,0.732236895,-0.10668918
1764434034.9582987,-4.47118,1.09872,0.4578,-0.66052077,0.732236895,-0.10668918
1764434034.9582987,-4.47118,1.09872,0.4578,-0.66052077,0.732236895,-0.10668918
1764434034.9593053,-4.47118,1.09872,0.4578,-0.66052077,0.732236895,-0.10668918
1764434034.9593053,-4.47118,1.09872,0.4578,-0.66052077,0.732236895,-0.10668918
1764434034.9593053,-4.47118,1.09872,0.4578,-0.66052077,0.732236895,-0.10668918
1764434034.9593053,-4.47118,1.09872,0.4578,-0.66052077,0.732236895,-0.10668918
1764434034.9593053,-4.47118,1.09872,0.4578,-0.66052077,0.732236895,-0.10668918
1764434034.9593053,-4.47118,1.09872,0.4578,-0.66052077,0.732236895,-0.10668918
1764434034.9593053,-4.47118,1.09872,0.4578,-0.66052077,0.732236895,-0.10668918
1764434034.9593053,-4.5017,1.19028,0.04578,-0.6603987,0.73205379,-0.10607883
1764434034.9593053,-4.5017,1.19028,0.04578,-0.6603987,0.73205379,-0.10607883
1764434034.9593053,-4.5017,1.19028,0.04578,-0.6603987,0.73205379,-0.10607883
1764434034.9593053,-4.5017,1.19028,0.04578,-0.6603987,0.73205379,-0.10607883
1764434034.9593053,-4.5017,1.19028,0.04578,-0.6603987,0.73205379,-0.10607883
1764434034.9593053,-4.5017,1.19028,0.04578,-0.6603987,0.73205379,-0.10607883
1764434034.9593053,-4.5017,1.19028,0.04578,-0.6603987,0.73205379,-0.10607883
1764434034.9593053,-4.5017,1.19028,0.04578,-0.6603987,0.73205379,-0.10607883
1764434034.9593053,-4.5017,1.19028,0.04578,-0.6603987,0.73205379,-0.10607883
1764434034.9593053,-4.5017,1.19028,0.04578,-0.6603987,0.73205379,-0.10607883
1764434034.9593053,-5.0358,1.08346,-0.39676,-0.66052077,0.73229793,-0.10522434
1764434034.9593053,-5.0358,1.08346,-0.39676,-0.66052077,0.73229793,-0.10522434
1764434035.0048854,-5.0358,1.08346,-0.39676,-0.66052077,0.73229793,-0.10522434
1764434035.0048854,-5.0358,1.08346,-0.39676,-0.66052077,0.73229793,-0.10522434
1764434035.0048854,-5.0358,1.08346,-0.39676,-0.66052077,0.73229793,-0.10522434
1764434035.0048854,-5.0358,1.08346,-0.39676,-0.66052077,0.73229793,-0.10522434
1764434035.0048854,-5.0358,1.08346,-0.39676,-0.66052077,0.73229793,-0.10522434
1764434035.0048854,-5.0358,1.08346,-0.39676,-0.66052077,0.73229793,-0.10522434
1764434035.0048854,-5.0358,1.08346,-0.39676,-0.66052077,0.73229793,-0.10522434
1764434035.0048854,-5.0358,1.08346,-0.39676,-0.66052077,0.73229793,-0.10522434
1764434035.0048854,-4.54748,0.8087799999999999,0.2289,-0.66076491,0.73315242,-0.10546848
1764434035.0048854,-4.54748,0.8087799999999999,0.2289,-0.66076491,0.73315242,-0.10546848
1764434035.0048854,-4.54748,0.8087799999999999,0.2289,-0.66076491,0.73315242,-0.10546848
1764434035.0048854,-4.54748,0.8087799999999999,0.2289,-0.66076491,0.73315242,-0.10546848
1764434035.0048854,-4.54748,0.8087799999999999,0.2289,-0.66076491,0.73315242,-0.10546848
1764434035.0048854,-4.54748,0.8087799999999999,0.2289,-0.66076491,0.73315242,-0.10546848
1764434035.0048854,-4.54748,0.8087799999999999,0.2289,-0.66076491,0.73315242,-0.10546848
1764434035.0048854,-4.54748,0.8087799999999999,0.2289,-0.66076491,0.73315242,-0.10546848
1764434035.0048854,-4.54748,0.8087799999999999,0.2289,-0.66076491,0.73315242,-0.10546848
1764434035.006427,-4.54748,0.8087799999999999,0.2289,-0.66076491,0.73315242,-0.10546848
1764434035.006427,-4.51696,1.4497,0.47306,-0.6606428400000001,0.732358965,-0.10607883
1764434035.006427,-4.51696,1.4497,0.47306,-0.6606428400000001,0.732358965,-0.10607883
1764434035.006427,-4.51696,1.4497,0.47306,-0.6606428400000001,0.732358965,-0.10607883
1764434035.006427,-4.51696,1.4497,0.47306,-0.6606428400000001,0.732358965,-0.10607883
1764434035.006427,-4.51696,1.4497,0.47306,-0.6606428400000001,0.732358965,-0.10607883
1764434035.006427,-4.51696,1.4497,0.47306,-0.6606428400000001,0.732358965,-0.10607883
1764434035.0508506,-4.51696,1.4497,0.47306,-0.6606428400000001,0.732358965,-0.10607883
1764434035.0508506,-4.51696,1.4497,0.47306,-0.6606428400000001,0.732358965,-0.10607883
1764434035.0508506,-4.51696,1.4497,0.47306,-0.6606428400000001,0.732358965,-0.10607883
1764434035.0508506,-4.51696,1.4497,0.47306,-0.6606428400000001,0.732358965,-0.10607883
1764434035.0508506,-4.86794,1.61756,0.44254,-0.661070085,0.73254207,-0.105651585
1764434035.0508506,-4.86794,1.61756,0.44254,-0.661070085,0.73254207,-0.105651585
1764434035.0508506,-4.86794,1.61756,0.44254,-0.661070085,0.73254207,-0.105651585
1764434035.0508506,-4.86794,1.61756,0.44254,-0.661070085,0.73254207,-0.105651585
1764434035.0534384,-4.86794,1.61756,0.44254,-0.661070085,0.73254207,-0.105651585
1764434035.0544832,-4.86794,1.61756,0.44254,-0.661070085,0.73254207,-0.105651585
1764434035.0544832,-4.86794,1.61756,0.44254,-0.661070085,0.73254207,-0.105651585
1764434035.0544832,-4.86794,1.61756,0.44254,-0.661070085,0.73254207,-0.105651585
1764434035.0544832,-4.86794,1.61756,0.44254,-0.661070085,0.73254207,-0.105651585
1764434035.0544832,-4.86794,1.61756,0.44254,-0.661070085,0.73254207,-0.105651585
1764434035.0544832,-5.0358,1.4497,0.6867,-0.660459735,0.732603105,-0.10522434
1764434035.0544832,-5.0358,1.4497,0.6867,-0.660459735,0.732603105,-0.10522434
1764434035.0544832,-5.0358,1.4497,0.6867,-0.660459735,0.732603105,-0.10522434
1764434035.0544832,-5.0358,1.4497,0.6867,-0.660459735,0.732603105,-0.10522434
1764434035.0544832,-5.0358,1.4497,0.6867,-0.660459735,0.732603105,-0.10522434
1764434035.0544832,-5.0358,1.4497,0.6867,-0.660459735,0.732603105,-0.10522434
1764434035.0560088,-5.0358,1.4497,0.6867,-0.660459735,0.732603105,-0.10522434
1764434035.0560088,-5.0358,1.4497,0.6867,-0.660459735,0.732603105,-0.10522434
1764434035.0560088,-5.0358,1.4497,0.6867,-0.660459735,0.732603105,-0.10522434
1764434035.0560088,-5.0358,1.4497,0.6867,-0.660459735,0.732603105,-0.10522434
1764434035.1012216,-4.51696,1.26658,0.39676,-0.660703875,0.7319317200000001,-0.10461399
1764434035.1012216,-4.51696,1.26658,0.39676,-0.660703875,0.7319317200000001,-0.10461399
1764434035.1012216,-4.51696,1.26658,0.39676,-0.660703875,0.7319317200000001,-0.10461399
1764434035.1012216,-4.51696,1.26658,0.39676,-0.660703875,0.7319317200000001,-0.10461399
1764434035.1012216,-4.51696,1.26658,0.39676,-0.660703875,0.7319317200000001,-0.10461399
1764434035.1012216,-4.51696,1.26658,0.39676,-0.660703875,0.7319317200000001,-0.10461399
1764434035.1012216,-4.51696,1.26658,0.39676,-0.660703875,0.7319317200000001,-0.10461399
1764434035.1012216,-4.51696,1.26658,0.39676,-0.660703875,0.7319317200000001,-0.10461399
1764434035.1012216,-4.51696,1.26658,0.39676,-0.660703875,0.7319317200000001,-0.10461399
1764434035.1012216,-4.51696,1.26658,0.39676,-0.660703875,0.7319317200000001,-0.10461399
1764434035.1012216,-4.303319999999999,1.4497,0.4578,-0.660703875,0.731626545,-0.10522434
1764434035.1012216,-4.303319999999999,1.4497,0.4578,-0.660703875,0.731626545,-0.10522434
1764434035.1012216,-4.303319999999999,1.4497,0.4578,-0.660703875,0.731626545,-0.10522434
1764434035.1012216,-4.303319999999999,1.4497,0.4578,-0.660703875,0.731626545,-0.10522434
1764434035.1012216,-4.303319999999999,1.4497,0.4578,-0.660703875,0.731626545,-0.10522434
1764434035.1012216,-4.303319999999999,1.4497,0.4578,-0.660703875,0.731626545,-0.10522434
1764434035.1012216,-4.303319999999999,1.4497,0.4578,-0.660703875,0.731626545,-0.10522434
1764434035.1012216,-4.303319999999999,1.4497,0.4578,-0.660703875,0.731626545,-0.10522434
1764434035.1012216,-4.303319999999999,1.4497,0.4578,-0.660703875,0.731626545,-0.10522434
1764434035.1012216,-4.303319999999999,1.4497,0.4578,-0.660703875,0.731626545,-0.10522434
1764434035.1012216,-4.13546,1.49548,0.50358,-0.660825945,0.731992755,-0.105773655
1764434035.1012216,-4.13546,1.49548,0.50358,-0.660825945,0.731992755,-0.105773655
1764434035.1012216,-4.13546,1.49548,0.50358,-0.660825945,0.731992755,-0.105773655
1764434035.1012216,-4.13546,1.49548,0.50358,-0.660825945,0.731992755,-0.105773655
1764434035.1473255,-4.13546,1.49548,0.50358,-0.660825945,0.731992755,-0.105773655
1764434035.1473255,-4.13546,1.49548,0.50358,-0.660825945,0.731992755,-0.105773655
1764434035.1473255,-4.13546,1.49548,0.50358,-0.660825945,0.731992755,-0.105773655
1764434035.1473255,-4.13546,1.49548,0.50358,-0.660825945,0.731992755,-0.105773655
1764434035.1473255,-4.13546,1.49548,0.50358,-0.660825945,0.731992755,-0.105773655
1764434035.1473255,-4.13546,1.49548,0.50358,-0.660825945,0.731992755,-0.105773655
1764434035.1473255,-4.77638,1.58704,0.3051999999999999,-0.6603987,0.7319317200000001,-0.105895725
1764434035.1473255,-4.77638,1.58704,0.3051999999999999,-0.6603987,0.7319317200000001,-0.105895725
1764434035.1473255,-4.77638,1.58704,0.3051999999999999,-0.6603987,0.7319317200000001,-0.105895725
1764434035.1473255,-4.77638,1.58704,0.3051999999999999,-0.6603987,0.7319317200000001,-0.105895725
1764434035.1473255,-4.77638,1.58704,0.3051999999999999,-0.6603987,0.7319317200000001,-0.105895725
1764434035.1473255,-4.77638,1.58704,0.3051999999999999,-0.6603987,0.7319317200000001,-0.105895725
1764434035.1473255,-4.77638,1.58704,0.3051999999999999,-0.6603987,0.7319317200000001,-0.105895725
1764434035.1473255,-4.77638,1.58704,0.3051999999999999,-0.6603987,0.7319317200000001,-0.105895725
1764434035.1473255,-4.77638,1.58704,0.3051999999999999,-0.6603987,0.7319317200000001,-0.105895725
1764434035.1473255,-4.77638,1.58704,0.3051999999999999,-0.6603987,0.7319317200000001,-0.105895725
1764434035.1473255,-4.715339999999999,1.25132,0.3204599999999999,-0.6611921550000001,0.73254207,-0.106017795
1764434035.148371,-4.715339999999999,1.25132,0.3204599999999999,-0.6611921550000001,0.73254207,-0.106017795
1764434035.148371,-4.715339999999999,1.25132,0.3204599999999999,-0.6611921550000001,0.73254207,-0.106017795
1764434035.148371,-4.715339999999999,1.25132,0.3204599999999999,-0.6611921550000001,0.73254207,-0.106017795
1764434035.148371,-4.715339999999999,1.25132,0.3204599999999999,-0.6611921550000001,0.73254207,-0.106017795
1764434035.148371,-4.715339999999999,1.25132,0.3204599999999999,-0.6611921550000001,0.73254207,-0.106017795
1764434035.1941676,-4.715339999999999,1.25132,0.3204599999999999,-0.6611921550000001,0.73254207,-0.106017795
1764434035.1941676,-4.715339999999999,1.25132,0.3204599999999999,-0.6611921550000001,0.73254207,-0.106017795
1764434035.1941676,-4.715339999999999,1.25132,0.3204599999999999,-0.6611921550000001,0.73254207,-0.106017795
1764434035.1941676,-4.715339999999999,1.25132,0.3204599999999999,-0.6611921550000001,0.73254207,-0.106017795
1764434035.1941676,-4.48644,1.73964,0.39676,-0.66052077,0.73217586,-0.105041235
1764434035.1941676,-4.48644,1.73964,0.39676,-0.66052077,0.73217586,-0.105041235
1764434035.1941676,-4.48644,1.73964,0.39676,-0.66052077,0.73217586,-0.105041235
1764434035.194686,-4.48644,1.73964,0.39676,-0.66052077,0.73217586,-0.105041235
1764434035.194686,-4.48644,1.73964,0.39676,-0.66052077,0.73217586,-0.105041235
1764434035.194686,-4.48644,1.73964,0.39676,-0.66052077,0.73217586,-0.105041235
1764434035.194686,-4.48644,1.73964,0.39676,-0.66052077,0.73217586,-0.105041235
1764434035.194686,-4.48644,1.73964,0.39676,-0.66052077,0.73217586,-0.105041235
1764434035.194686,-4.48644,1.73964,0.39676,-0.66052077,0.73217586,-0.105041235
1764434035.194686,-4.48644,1.73964,0.39676,-0.66052077,0.73217586,-0.105041235
1764434035.194686,-4.07442,1.6022999999999998,0.3357199999999999,-0.660459735,0.732358965,-0.10546848
1764434035.194686,-4.07442,1.6022999999999998,0.3357199999999999,-0.660459735,0.732358965,-0.10546848
1764434035.194686,-4.07442,1.6022999999999998,0.3357199999999999,-0.660459735,0.732358965,-0.10546848
1764434035.194686,-4.07442,1.6022999999999998,0.3357199999999999,-0.660459735,0.732358965,-0.10546848
1764434035.194686,-4.07442,1.6022999999999998,0.3357199999999999,-0.660459735,0.732358965,-0.10546848
1764434035.194686,-4.07442,1.6022999999999998,0.3357199999999999,-0.660459735,0.732358965,-0.10546848
1764434035.194686,-4.07442,1.6022999999999998,0.3357199999999999,-0.660459735,0.732358965,-0.10546848
1764434035.194686,-4.07442,1.6022999999999998,0.3357199999999999,-0.660459735,0.732358965,-0.10546848
1764434035.2403126,-4.07442,1.6022999999999998,0.3357199999999999,-0.660459735,0.732358965,-0.10546848
1764434035.2403126,-4.07442,1.6022999999999998,0.3357199999999999,-0.660459735,0.732358965,-0.10546848
1764434035.2403126,-4.63904,1.32762,0.18312,-0.66052077,0.732603105,-0.10559055
1764434035.2403126,-4.63904,1.32762,0.18312,-0.66052077,0.732603105,-0.10559055
1764434035.2403126,-4.63904,1.32762,0.18312,-0.66052077,0.732603105,-0.10559055
1764434035.2403126,-4.63904,1.32762,0.18312,-0.66052077,0.732603105,-0.10559055
1764434035.2403126,-4.63904,1.32762,0.18312,-0.66052077,0.732603105,-0.10559055
1764434035.2403126,-4.63904,1.32762,0.18312,-0.66052077,0.732603105,-0.10559055
1764434035.2403126,-4.63904,1.32762,0.18312,-0.66052077,0.732603105,-0.10559055
1764434035.2403126,-4.63904,1.32762,0.18312,-0.66052077,0.732603105,-0.10559055
1764434035.2403126,-4.63904,1.32762,0.18312,-0.66052077,0.732603105,-0.10559055
1764434035.2403126,-4.63904,1.32762,0.18312,-0.66052077,0.732603105,-0.10559055
1764434035.2403126,-4.577999999999999,1.63282,0.09156,-0.65991042,0.73229793,-0.10583469
1764434035.2403126,-4.577999999999999,1.63282,0.09156,-0.65991042,0.73229793,-0.10583469
1764434035.2403126,-4.577999999999999,1.63282,0.09156,-0.65991042,0.73229793,-0.10583469
1764434035.2403126,-4.577999999999999,1.63282,0.09156,-0.65991042,0.73229793,-0.10583469
1764434035.2403126,-4.577999999999999,1.63282,0.09156,-0.65991042,0.73229793,-0.10583469
1764434035.2403126,-4.577999999999999,1.63282,0.09156,-0.65991042,0.73229793,-0.10583469
1764434035.2403126,-4.577999999999999,1.63282,0.09156,-0.65991042,0.73229793,-0.10583469
1764434035.2403126,-4.577999999999999,1.63282,0.09156,-0.65991042,0.73229793,-0.10583469
1764434035.2403126,-4.577999999999999,1.63282,0.09156,-0.65991042,0.73229793,-0.10583469
1764434035.2413158,-4.577999999999999,1.63282,0.09156,-0.65991042,0.73229793,-0.10583469
1764434035.2413158,-4.37962,1.09872,0.13734,-0.6606428400000001,0.732358965,-0.105407445
1764434035.2413158,-4.37962,1.09872,0.13734,-0.6606428400000001,0.732358965,-0.105407445
1764434035.2861109,-4.37962,1.09872,0.13734,-0.6606428400000001,0.732358965,-0.105407445
1764434035.2861109,-4.37962,1.09872,0.13734,-0.6606428400000001,0.732358965,-0.105407445
1764434035.2861109,-4.37962,1.09872,0.13734,-0.6606428400000001,0.732358965,-0.105407445
1764434035.2861109,-4.37962,1.09872,0.13734,-0.6606428400000001,0.732358965,-0.105407445
1764434035.2861109,-4.37962,1.09872,0.13734,-0.6606428400000001,0.732358965,-0.105407445
1764434035.2861109,-4.37962,1.09872,0.13734,-0.6606428400000001,0.732358965,-0.105407445
1764434035.2861109,-4.37962,1.09872,0.13734,-0.6606428400000001,0.732358965,-0.105407445
1764434035.2861109,-4.37962,1.09872,0.13734,-0.6606428400000001,0.732358965,-0.105407445
1764434035.2861109,-3.99812,1.31236,0.09156,-0.660825945,0.73205379,-0.105407445
1764434035.2861109,-3.99812,1.31236,0.09156,-0.660825945,0.73205379,-0.105407445
1764434035.2861109,-3.99812,1.31236,0.09156,-0.660825945,0.73205379,-0.105407445
1764434035.2861109,-3.99812,1.31236,0.09156,-0.660825945,0.73205379,-0.105407445
1764434035.2861109,-3.99812,1.31236,0.09156,-0.660825945,0.73205379,-0.105407445
1764434035.2861109,-3.99812,1.31236,0.09156,-0.660825945,0.73205379,-0.105407445
1764434035.2861109,-3.99812,1.31236,0.09156,-0.660825945,0.73205379,-0.105407445
1764434035.2861109,-3.99812,1.31236,0.09156,-0.660825945,0.73205379,-0.105407445
1764434035.2861109,-3.99812,1.31236,0.09156,-0.660825945,0.73205379,-0.105407445
1764434035.2861109,-3.99812,1.31236,0.09156,-0.660825945,0.73205379,-0.105407445
1764434035.2861109,-4.01338,1.46496,0.3357199999999999,-0.660459735,0.7319317200000001,-0.10546848
1764434035.2861109,-4.01338,1.46496,0.3357199999999999,-0.660459735,0.7319317200000001,-0.10546848
1764434035.2861109,-4.01338,1.46496,0.3357199999999999,-0.660459735,0.7319317200000001,-0.10546848
1764434035.2861109,-4.01338,1.46496,0.3357199999999999,-0.660459735,0.7319317200000001,-0.10546848
1764434035.2861109,-4.01338,1.46496,0.3357199999999999,-0.660459735,0.7319317200000001,-0.10546848
1764434035.2861109,-4.01338,1.46496,0.3357199999999999,-0.660459735,0.7319317200000001,-0.10546848
1764434035.3326418,-4.01338,1.46496,0.3357199999999999,-0.660459735,0.7319317200000001,-0.10546848
1764434035.3331792,-4.01338,1.46496,0.3357199999999999,-0.660459735,0.7319317200000001,-0.10546848
1764434035.3331792,-4.01338,1.46496,0.3357199999999999,-0.660459735,0.7319317200000001,-0.10546848
1764434035.3331792,-4.01338,1.46496,0.3357199999999999,-0.660459735,0.7319317200000001,-0.10546848
1764434035.3331792,-4.62378,1.11398,0.3815,-0.6603987,0.731870685,-0.10546848
1764434035.3331792,-4.62378,1.11398,0.3815,-0.6603987,0.731870685,-0.10546848
1764434035.3331792,-4.62378,1.11398,0.3815,-0.6603987,0.731870685,-0.10546848
1764434035.3331792,-4.62378,1.11398,0.3815,-0.6603987,0.731870685,-0.10546848
1764434035.3331792,-4.62378,1.11398,0.3815,-0.6603987,0.731870685,-0.10546848
1764434035.3331792,-4.62378,1.11398,0.3815,-0.6603987,0.731870685,-0.10546848
1764434035.3331792,-4.62378,1.11398,0.3815,-0.6603987,0.731870685,-0.10546848
1764434035.3337357,-4.62378,1.11398,0.3815,-0.6603987,0.731870685,-0.10546848
1764434035.3337357,-4.62378,1.11398,0.3815,-0.6603987,0.731870685,-0.10546848
1764434035.3337357,-4.62378,1.11398,0.3815,-0.6603987,0.731870685,-0.10546848
1764434035.3337357,-4.59326,1.31236,0.09156,-0.6601545600000001,0.7324810350000001,-0.106017795
1764434035.3337357,-4.59326,1.31236,0.09156,-0.6601545600000001,0.7324810350000001,-0.106017795
1764434035.3337357,-4.59326,1.31236,0.09156,-0.6601545600000001,0.7324810350000001,-0.106017795
1764434035.3337357,-4.59326,1.31236,0.09156,-0.6601545600000001,0.7324810350000001,-0.106017795
1764434035.3337357,-4.59326,1.31236,0.09156,-0.6601545600000001,0.7324810350000001,-0.106017795
1764434035.3337357,-4.59326,1.31236,0.09156,-0.6601545600000001,0.7324810350000001,-0.106017795
1764434035.3337357,-4.59326,1.31236,0.09156,-0.6601545600000001,0.7324810350000001,-0.106017795
1764434035.3337357,-4.59326,1.31236,0.09156,-0.6601545600000001,0.7324810350000001,-0.106017795
1764434035.3337357,-4.59326,1.31236,0.09156,-0.6601545600000001,0.7324810350000001,-0.106017795
1764434035.3337357,-4.59326,1.31236,0.09156,-0.6601545600000001,0.7324810350000001,-0.106017795
1764434035.377838,-4.36436,1.2055399999999998,0.3815,-0.66076491,0.7324810350000001,-0.105651585
1764434035.377838,-4.36436,1.2055399999999998,0.3815,-0.66076491,0.7324810350000001,-0.105651585
1764434035.377838,-4.36436,1.2055399999999998,0.3815,-0.66076491,0.7324810350000001,-0.105651585
1764434035.377838,-4.36436,1.2055399999999998,0.3815,-0.66076491,0.7324810350000001,-0.105651585
1764434035.377838,-4.36436,1.2055399999999998,0.3815,-0.66076491,0.7324810350000001,-0.105651585
1764434035.377838,-4.36436,1.2055399999999998,0.3815,-0.66076491,0.7324810350000001,-0.105651585
1764434035.377838,-4.36436,1.2055399999999998,0.3815,-0.66076491,0.7324810350000001,-0.105651585
1764434035.377838,-4.36436,1.2055399999999998,0.3815,-0.66076491,0.7324810350000001,-0.105651585
1764434035.377838,-4.36436,1.2055399999999998,0.3815,-0.66076491,0.7324810350000001,-0.105651585
1764434035.377838,-4.36436,1.2055399999999998,0.3815,-0.66076491,0.7324810350000001,-0.105651585
1764434035.377838,-4.715339999999999,1.00716,0.03052,-0.659971455,0.73278621,-0.105773655
1764434035.377838,-4.715339999999999,1.00716,0.03052,-0.659971455,0.73278621,-0.105773655
1764434035.377838,-4.715339999999999,1.00716,0.03052,-0.659971455,0.73278621,-0.105773655
1764434035.377838,-4.715339999999999,1.00716,0.03052,-0.659971455,0.73278621,-0.105773655
1764434035.377838,-4.715339999999999,1.00716,0.03052,-0.659971455,0.73278621,-0.105773655
1764434035.377838,-4.715339999999999,1.00716,0.03052,-0.659971455,0.73278621,-0.105773655
1764434035.377838,-4.715339999999999,1.00716,0.03052,-0.659971455,0.73278621,-0.105773655
1764434035.377838,-4.715339999999999,1.00716,0.03052,-0.659971455,0.73278621,-0.105773655
1764434035.377838,-4.715339999999999,1.00716,0.03052,-0.659971455,0.73278621,-0.105773655
1764434035.377838,-4.715339999999999,1.00716,0.03052,-0.659971455,0.73278621,-0.105773655
1764434035.3794117,-4.56274,0.94612,0.24416,-0.65991042,0.732847245,-0.105895725
1764434035.3794117,-4.56274,0.94612,0.24416,-0.65991042,0.732847245,-0.105895725
1764434035.3794117,-4.56274,0.94612,0.24416,-0.65991042,0.732847245,-0.105895725
1764434035.3794117,-4.56274,0.94612,0.24416,-0.65991042,0.732847245,-0.105895725
1764434035.427168,-4.56274,0.94612,0.24416,-0.65991042,0.732847245,-0.105895725
1764434035.427168,-4.56274,0.94612,0.24416,-0.65991042,0.732847245,-0.105895725
1764434035.427168,-4.56274,0.94612,0.24416,-0.65991042,0.732847245,-0.105895725
1764434035.427168,-4.56274,0.94612,0.24416,-0.65991042,0.732847245,-0.105895725
1764434035.427168,-4.56274,0.94612,0.24416,-0.65991042,0.732847245,-0.105895725
1764434035.427168,-4.56274,0.94612,0.24416,-0.65991042,0.732847245,-0.105895725
1764434035.427168,-4.13546,1.12924,-0.2289,-0.659361105,0.73315242,-0.105529515
1764434035.427168,-4.13546,1.12924,-0.2289,-0.659361105,0.73315242,-0.105529515
1764434035.427168,-4.13546,1.12924,-0.2289,-0.659361105,0.73315242,-0.105529515
1764434035.427168,-4.13546,1.12924,-0.2289,-0.659361105,0.73315242,-0.105529515
1764434035.427168,-4.13546,1.12924,-0.2289,-0.659361105,0.73315242,-0.105529515
1764434035.427168,-4.13546,1.12924,-0.2289,-0.659361105,0.73315242,-0.105529515
1764434035.427168,-4.13546,1.12924,-0.2289,-0.659361105,0.73315242,-0.105529515
1764434035.427168,-4.13546,1.12924,-0.2289,-0.659361105,0.73315242,-0.105529515
1764434035.427168,-4.13546,1.12924,-0.2289,-0.659361105,0.73315242,-0.105529515
1764434035.427168,-4.13546,1.12924,-0.2289,-0.659361105,0.73315242,-0.105529515
1764434035.427168,-4.54748,1.49548,0.47306,-0.65966628,0.732358965,-0.104919165
1764434035.427168,-4.54748,1.49548,0.47306,-0.65966628,0.732358965,-0.104919165
1764434035.427168,-4.54748,1.49548,0.47306,-0.65966628,0.732358965,-0.104919165
1764434035.427168,-4.54748,1.49548,0.47306,-0.65966628,0.732358965,-0.104919165
1764434035.427168,-4.54748,1.49548,0.47306,-0.65966628,0.732358965,-0.104919165
1764434035.427168,-4.54748,1.49548,0.47306,-0.65966628,0.732358965,-0.104919165
1764434035.471443,-4.54748,1.49548,0.47306,-0.65966628,0.732358965,-0.104919165
1764434035.471443,-4.54748,1.49548,0.47306,-0.65966628,0.732358965,-0.104919165
1764434035.471443,-4.54748,1.49548,0.47306,-0.65966628,0.732358965,-0.104919165
1764434035.471443,-4.54748,1.49548,0.47306,-0.65966628,0.732358965,-0.104919165
1764434035.471443,-4.66956,1.0682,0.39676,-0.660581805,0.73254207,-0.10522434
1764434035.471443,-4.66956,1.0682,0.39676,-0.660581805,0.73254207,-0.10522434
1764434035.471443,-4.66956,1.0682,0.39676,-0.660581805,0.73254207,-0.10522434
1764434035.471443,-4.66956,1.0682,0.39676,-0.660581805,0.73254207,-0.10522434
1764434035.471443,-4.66956,1.0682,0.39676,-0.660581805,0.73254207,-0.10522434
1764434035.471443,-4.66956,1.0682,0.39676,-0.660581805,0.73254207,-0.10522434
1764434035.471443,-4.66956,1.0682,0.39676,-0.660581805,0.73254207,-0.10522434
1764434035.471443,-4.66956,1.0682,0.39676,-0.660581805,0.73254207,-0.10522434
1764434035.4739635,-4.66956,1.0682,0.39676,-0.660581805,0.73254207,-0.10522434
1764434035.4739635,-4.66956,1.0682,0.39676,-0.660581805,0.73254207,-0.10522434
1764434035.4739635,-4.01338,1.3734,0.18312,-0.659849385,0.732725175,-0.10534641
1764434035.4739635,-4.01338,1.3734,0.18312,-0.659849385,0.732725175,-0.10534641
1764434035.4739635,-4.01338,1.3734,0.18312,-0.659849385,0.732725175,-0.10534641
1764434035.4739635,-4.01338,1.3734,0.18312,-0.659849385,0.732725175,-0.10534641
1764434035.4739635,-4.01338,1.3734,0.18312,-0.659849385,0.732725175,-0.10534641
1764434035.4739635,-4.01338,1.3734,0.18312,-0.659849385,0.732725175,-0.10534641
1764434035.4739635,-4.01338,1.3734,0.18312,-0.659849385,0.732725175,-0.10534641
1764434035.4739635,-4.01338,1.3734,0.18312,-0.659849385,0.732725175,-0.10534641
1764434035.5194366,-4.01338,1.3734,0.18312,-0.659849385,0.732725175,-0.10534641
1764434035.5194366,-4.01338,1.3734,0.18312,-0.659849385,0.732725175,-0.10534641
1764434035.5194366,-4.577999999999999,1.41918,0.01526,-0.660703875,0.732603105,-0.105651585
1764434035.5194366,-4.577999999999999,1.41918,0.01526,-0.660703875,0.732603105,-0.105651585
1764434035.5194366,-4.577999999999999,1.41918,0.01526,-0.660703875,0.732603105,-0.105651585
1764434035.5194366,-4.577999999999999,1.41918,0.01526,-0.660703875,0.732603105,-0.105651585
1764434035.5194366,-4.577999999999999,1.41918,0.01526,-0.660703875,0.732603105,-0.105651585
1764434035.5194366,-4.577999999999999,1.41918,0.01526,-0.660703875,0.732603105,-0.105651585
1764434035.5194366,-4.577999999999999,1.41918,0.01526,-0.660703875,0.732603105,-0.105651585
1764434035.5194366,-4.577999999999999,1.41918,0.01526,-0.660703875,0.732603105,-0.105651585
1764434035.5194366,-4.577999999999999,1.41918,0.01526,-0.660703875,0.732603105,-0.105651585
1764434035.520431,-4.577999999999999,1.41918,0.01526,-0.660703875,0.732603105,-0.105651585
1764434035.520431,-4.21176,1.43444,0.42728,-0.660459735,0.7319317200000001,-0.10559055
1764434035.520431,-4.21176,1.43444,0.42728,-0.660459735,0.7319317200000001,-0.10559055
1764434035.520431,-4.21176,1.43444,0.42728,-0.660459735,0.7319317200000001,-0.10559055
1764434035.520431,-4.21176,1.43444,0.42728,-0.660459735,0.7319317200000001,-0.10559055
1764434035.520431,-4.21176,1.43444,0.42728,-0.660459735,0.7319317200000001,-0.10559055
1764434035.520431,-4.21176,1.43444,0.42728,-0.660459735,0.7319317200000001,-0.10559055
1764434035.520431,-4.21176,1.43444,0.42728,-0.660459735,0.7319317200000001,-0.10559055
1764434035.520431,-4.21176,1.43444,0.42728,-0.660459735,0.7319317200000001,-0.10559055
1764434035.520431,-4.21176,1.43444,0.42728,-0.660459735,0.7319317200000001,-0.10559055
1764434035.520431,-4.21176,1.43444,0.42728,-0.660459735,0.7319317200000001,-0.10559055
1764434035.520431,-4.22702,1.2208,0.19838,-0.66088698,0.732236895,-0.105285375
1764434035.520431,-4.22702,1.2208,0.19838,-0.66088698,0.732236895,-0.105285375
1764434035.5642262,-4.22702,1.2208,0.19838,-0.66088698,0.732236895,-0.105285375
1764434035.5642262,-4.22702,1.2208,0.19838,-0.66088698,0.732236895,-0.105285375
1764434035.5642262,-4.22702,1.2208,0.19838,-0.66088698,0.732236895,-0.105285375
1764434035.5642262,-4.22702,1.2208,0.19838,-0.66088698,0.732236895,-0.105285375
1764434035.5642262,-4.22702,1.2208,0.19838,-0.66088698,0.732236895,-0.105285375
1764434035.5648685,-4.22702,1.2208,0.19838,-0.66088698,0.732236895,-0.105285375
1764434035.5648685,-4.22702,1.2208,0.19838,-0.66088698,0.732236895,-0.105285375
1764434035.5648685,-4.22702,1.2208,0.19838,-0.66088698,0.732236895,-0.105285375
1764434035.5648685,-4.440659999999999,1.09872,0.6409199999999999,-0.6603987,0.7314434400000001,-0.10546848
1764434035.5648685,-4.440659999999999,1.09872,0.6409199999999999,-0.6603987,0.7314434400000001,-0.10546848
1764434035.5648685,-4.440659999999999,1.09872,0.6409199999999999,-0.6603987,0.7314434400000001,-0.10546848
1764434035.5648685,-4.440659999999999,1.09872,0.6409199999999999,-0.6603987,0.7314434400000001,-0.10546848
1764434035.5648685,-4.440659999999999,1.09872,0.6409199999999999,-0.6603987,0.7314434400000001,-0.10546848
1764434035.5648685,-4.440659999999999,1.09872,0.6409199999999999,-0.6603987,0.7314434400000001,-0.10546848
1764434035.5648685,-4.440659999999999,1.09872,0.6409199999999999,-0.6603987,0.7314434400000001,-0.10546848
1764434035.5648685,-4.440659999999999,1.09872,0.6409199999999999,-0.6603987,0.7314434400000001,-0.10546848
1764434035.5648685,-4.440659999999999,1.09872,0.6409199999999999,-0.6603987,0.7314434400000001,-0.10546848
1764434035.5648685,-4.440659999999999,1.09872,0.6409199999999999,-0.6603987,0.7314434400000001,-0.10546848
1764434035.5648685,-4.6543,1.4039199999999998,0.39676,-0.6606428400000001,0.731260335,-0.10571262
1764434035.5648685,-4.6543,1.4039199999999998,0.39676,-0.6606428400000001,0.731260335,-0.10571262
1764434035.5648685,-4.6543,1.4039199999999998,0.39676,-0.6606428400000001,0.731260335,-0.10571262
1764434035.5648685,-4.6543,1.4039199999999998,0.39676,-0.6606428400000001,0.731260335,-0.10571262
1764434035.5648685,-4.6543,1.4039199999999998,0.39676,-0.6606428400000001,0.731260335,-0.10571262
1764434035.5648685,-4.6543,1.4039199999999998,0.39676,-0.6606428400000001,0.731260335,-0.10571262
1764434035.6105697,-4.6543,1.4039199999999998,0.39676,-0.6606428400000001,0.731260335,-0.10571262
1764434035.6105697,-4.6543,1.4039199999999998,0.39676,-0.6606428400000001,0.731260335,-0.10571262
1764434035.6105697,-4.6543,1.4039199999999998,0.39676,-0.6606428400000001,0.731260335,-0.10571262
1764434035.6105697,-4.6543,1.4039199999999998,0.39676,-0.6606428400000001,0.731260335,-0.10571262
1764434035.6105697,-4.7306,1.99906,0.6867,-0.660459735,0.731626545,-0.105651585
1764434035.6105697,-4.7306,1.99906,0.6867,-0.660459735,0.731626545,-0.105651585
1764434035.6105697,-4.7306,1.99906,0.6867,-0.660459735,0.731626545,-0.105651585
1764434035.6105697,-4.7306,1.99906,0.6867,-0.660459735,0.731626545,-0.105651585
1764434035.6105697,-4.7306,1.99906,0.6867,-0.660459735,0.731626545,-0.105651585
1764434035.6105697,-4.7306,1.99906,0.6867,-0.660459735,0.731626545,-0.105651585
1764434035.6105697,-4.7306,1.99906,0.6867,-0.660459735,0.731626545,-0.105651585
1764434035.6105697,-4.7306,1.99906,0.6867,-0.660459735,0.731626545,-0.105651585
1764434035.6105697,-4.7306,1.99906,0.6867,-0.660459735,0.731626545,-0.105651585
1764434035.6105697,-4.7306,1.99906,0.6867,-0.660459735,0.731626545,-0.105651585
1764434035.6105697,-4.47118,1.526,0.59514,-0.66113112,0.73266414,-0.105895725
1764434035.6105697,-4.47118,1.526,0.59514,-0.66113112,0.73266414,-0.105895725
1764434035.6105697,-4.47118,1.526,0.59514,-0.66113112,0.73266414,-0.105895725
1764434035.6105697,-4.47118,1.526,0.59514,-0.66113112,0.73266414,-0.105895725
1764434035.6105697,-4.47118,1.526,0.59514,-0.66113112,0.73266414,-0.105895725
1764434035.6105697,-4.47118,1.526,0.59514,-0.66113112,0.73266414,-0.105895725
1764434035.6105697,-4.47118,1.526,0.59514,-0.66113112,0.73266414,-0.105895725
1764434035.6105697,-4.47118,1.526,0.59514,-0.66113112,0.73266414,-0.105895725
1764434035.6105697,-4.47118,1.526,0.59514,-0.66113112,0.73266414,-0.105895725
1764434035.6105697,-4.47118,1.526,0.59514,-0.66113112,0.73266414,-0.105895725
1764434035.658785,-4.39488,1.526,0.44254,-0.660948015,0.732847245,-0.105407445
1764434035.658785,-4.39488,1.526,0.44254,-0.660948015,0.732847245,-0.105407445
1764434035.6597826,-4.39488,1.526,0.44254,-0.660948015,0.732847245,-0.105407445
1764434035.6597826,-4.39488,1.526,0.44254,-0.660948015,0.732847245,-0.105407445
1764434035.6607826,-4.39488,1.526,0.44254,-0.660948015,0.732847245,-0.105407445
1764434035.6607826,-4.39488,1.526,0.44254,-0.660948015,0.732847245,-0.105407445
1764434035.6607826,-4.39488,1.526,0.44254,-0.660948015,0.732847245,-0.105407445
1764434035.6607826,-4.39488,1.526,0.44254,-0.660948015,0.732847245,-0.105407445
1764434035.6607826,-4.39488,1.526,0.44254,-0.660948015,0.732847245,-0.105407445
1764434035.6607826,-4.39488,1.526,0.44254,-0.660948015,0.732847245,-0.105407445
1764434035.6607826,-3.5861,1.11398,0.4578,-0.660581805,0.7329693150000001,-0.104919165
1764434035.6607826,-3.5861,1.11398,0.4578,-0.660581805,0.7329693150000001,-0.104919165
1764434035.6607826,-3.5861,1.11398,0.4578,-0.660581805,0.7329693150000001,-0.104919165
1764434035.6607826,-3.5861,1.11398,0.4578,-0.660581805,0.7329693150000001,-0.104919165
1764434035.6607826,-3.5861,1.11398,0.4578,-0.660581805,0.7329693150000001,-0.104919165
1764434035.6607826,-3.5861,1.11398,0.4578,-0.660581805,0.7329693150000001,-0.104919165
1764434035.6607826,-3.5861,1.11398,0.4578,-0.660581805,0.7329693150000001,-0.104919165
1764434035.6607826,-3.5861,1.11398,0.4578,-0.660581805,0.7329693150000001,-0.104919165
1764434035.6607826,-3.5861,1.11398,0.4578,-0.660581805,0.7329693150000001,-0.104919165
1764434035.661782,-3.5861,1.11398,0.4578,-0.660581805,0.7329693150000001,-0.104919165
1764434035.661782,-3.99812,0.8087799999999999,0.1678599999999999,-0.660215595,0.73242,-0.10485813
1764434035.661782,-3.99812,0.8087799999999999,0.1678599999999999,-0.660215595,0.73242,-0.10485813
1764434035.7012866,-3.99812,0.8087799999999999,0.1678599999999999,-0.660215595,0.73242,-0.10485813
1764434035.7012866,-3.99812,0.8087799999999999,0.1678599999999999,-0.660215595,0.73242,-0.10485813
1764434035.7012866,-3.99812,0.8087799999999999,0.1678599999999999,-0.660215595,0.73242,-0.10485813
1764434035.7012866,-3.99812,0.8087799999999999,0.1678599999999999,-0.660215595,0.73242,-0.10485813
1764434035.7012866,-3.99812,0.8087799999999999,0.1678599999999999,-0.660215595,0.73242,-0.10485813
1764434035.7012866,-3.99812,0.8087799999999999,0.1678599999999999,-0.660215595,0.73242,-0.10485813
1764434035.7012866,-3.99812,0.8087799999999999,0.1678599999999999,-0.660215595,0.73242,-0.10485813
1764434035.7012866,-3.99812,0.8087799999999999,0.1678599999999999,-0.660215595,0.73242,-0.10485813
1764434035.7012866,-4.5017,1.1445,0.12208,-0.660948015,0.731992755,-0.10559055
1764434035.7012866,-4.5017,1.1445,0.12208,-0.660948015,0.731992755,-0.10559055
1764434035.702326,-4.5017,1.1445,0.12208,-0.660948015,0.731992755,-0.10559055
1764434035.702326,-4.5017,1.1445,0.12208,-0.660948015,0.731992755,-0.10559055
1764434035.702326,-4.5017,1.1445,0.12208,-0.660948015,0.731992755,-0.10559055
1764434035.702326,-4.5017,1.1445,0.12208,-0.660948015,0.731992755,-0.10559055
1764434035.702326,-4.5017,1.1445,0.12208,-0.660948015,0.731992755,-0.10559055
1764434035.7033255,-4.5017,1.1445,0.12208,-0.660948015,0.731992755,-0.10559055
1764434035.7038343,-4.5017,1.1445,0.12208,-0.660948015,0.731992755,-0.10559055
1764434035.7038343,-4.5017,1.1445,0.12208,-0.660948015,0.731992755,-0.10559055
1764434035.7038343,-4.18124,0.9156,0.3051999999999999,-0.66113112,0.73168758,-0.10534641
1764434035.7038343,-4.18124,0.9156,0.3051999999999999,-0.66113112,0.73168758,-0.10534641
1764434035.704879,-4.18124,0.9156,0.3051999999999999,-0.66113112,0.73168758,-0.10534641
1764434035.704879,-4.18124,0.9156,0.3051999999999999,-0.66113112,0.73168758,-0.10534641
1764434035.7491536,-4.18124,0.9156,0.3051999999999999,-0.66113112,0.73168758,-0.10534641
1764434035.7491536,-4.18124,0.9156,0.3051999999999999,-0.66113112,0.73168758,-0.10534641
1764434035.7491536,-4.18124,0.9156,0.3051999999999999,-0.66113112,0.73168758,-0.10534641
1764434035.7491536,-4.18124,0.9156,0.3051999999999999,-0.66113112,0.73168758,-0.10534641
1764434035.7491536,-4.18124,0.9156,0.3051999999999999,-0.66113112,0.73168758,-0.10534641
1764434035.7491536,-4.18124,0.9156,0.3051999999999999,-0.66113112,0.73168758,-0.10534641
1764434035.7491536,-3.79974,1.81594,0.3509799999999999,-0.66125319,0.731748615,-0.105285375
1764434035.7491536,-3.79974,1.81594,0.3509799999999999,-0.66125319,0.731748615,-0.105285375
1764434035.7491536,-3.79974,1.81594,0.3509799999999999,-0.66125319,0.731748615,-0.105285375
1764434035.7491536,-3.79974,1.81594,0.3509799999999999,-0.66125319,0.731748615,-0.105285375
1764434035.7491536,-3.79974,1.81594,0.3509799999999999,-0.66125319,0.731748615,-0.105285375
1764434035.7491536,-3.79974,1.81594,0.3509799999999999,-0.66125319,0.731748615,-0.105285375
1764434035.7491536,-3.79974,1.81594,0.3509799999999999,-0.66125319,0.731748615,-0.105285375
1764434035.7496886,-3.79974,1.81594,0.3509799999999999,-0.66125319,0.731748615,-0.105285375
1764434035.7496886,-3.79974,1.81594,0.3509799999999999,-0.66125319,0.731748615,-0.105285375
1764434035.7496886,-3.79974,1.81594,0.3509799999999999,-0.66125319,0.731748615,-0.105285375
1764434035.7496886,-3.86078,1.6022999999999998,0.3357199999999999,-0.660948015,0.7314434400000001,-0.10546848
1764434035.7496886,-3.86078,1.6022999999999998,0.3357199999999999,-0.660948015,0.7314434400000001,-0.10546848
1764434035.7496886,-3.86078,1.6022999999999998,0.3357199999999999,-0.660948015,0.7314434400000001,-0.10546848
1764434035.7496886,-3.86078,1.6022999999999998,0.3357199999999999,-0.660948015,0.7314434400000001,-0.10546848
1764434035.7496886,-3.86078,1.6022999999999998,0.3357199999999999,-0.660948015,0.7314434400000001,-0.10546848
1764434035.7496886,-3.86078,1.6022999999999998,0.3357199999999999,-0.660948015,0.7314434400000001,-0.10546848
1764434035.7496886,-3.86078,1.6022999999999998,0.3357199999999999,-0.660948015,0.7314434400000001,-0.10546848
1764434035.7496886,-3.86078,1.6022999999999998,0.3357199999999999,-0.660948015,0.7314434400000001,-0.10546848
1764434035.797579,-3.86078,1.6022999999999998,0.3357199999999999,-0.660948015,0.7314434400000001,-0.10546848
1764434035.797579,-3.86078,1.6022999999999998,0.3357199999999999,-0.660948015,0.7314434400000001,-0.10546848
1764434035.797579,-4.08968,1.2055399999999998,0.93086,-0.660948015,0.73168758,-0.10473606
1764434035.797579,-4.08968,1.2055399999999998,0.93086,-0.660948015,0.73168758,-0.10473606
1764434035.797579,-4.08968,1.2055399999999998,0.93086,-0.660948015,0.73168758,-0.10473606
1764434035.7985716,-4.08968,1.2055399999999998,0.93086,-0.660948015,0.73168758,-0.10473606
1764434035.7985716,-4.08968,1.2055399999999998,0.93086,-0.660948015,0.73168758,-0.10473606
1764434035.7985716,-4.08968,1.2055399999999998,0.93086,-0.660948015,0.73168758,-0.10473606
1764434035.7985716,-4.08968,1.2055399999999998,0.93086,-0.660948015,0.73168758,-0.10473606
1764434035.7985716,-4.08968,1.2055399999999998,0.93086,-0.660948015,0.73168758,-0.10473606
1764434035.7995722,-4.08968,1.2055399999999998,0.93086,-0.660948015,0.73168758,-0.10473606
1764434035.7995722,-4.08968,1.2055399999999998,0.93086,-0.660948015,0.73168758,-0.10473606
1764434035.7995722,-3.57084,1.6022999999999998,0.54936,-0.66088698,0.7314434400000001,-0.105041235
1764434035.7995722,-3.57084,1.6022999999999998,0.54936,-0.66088698,0.7314434400000001,-0.105041235
1764434035.8005714,-3.57084,1.6022999999999998,0.54936,-0.66088698,0.7314434400000001,-0.105041235
1764434035.8005714,-3.57084,1.6022999999999998,0.54936,-0.66088698,0.7314434400000001,-0.105041235
1764434035.8005714,-3.57084,1.6022999999999998,0.54936,-0.66088698,0.7314434400000001,-0.105041235
1764434035.8005714,-3.57084,1.6022999999999998,0.54936,-0.66088698,0.7314434400000001,-0.105041235
1764434035.8015802,-3.57084,1.6022999999999998,0.54936,-0.66088698,0.7314434400000001,-0.105041235
1764434035.8015802,-3.57084,1.6022999999999998,0.54936,-0.66088698,0.7314434400000001,-0.105041235
1764434035.8015802,-3.57084,1.6022999999999998,0.54936,-0.66088698,0.7314434400000001,-0.105041235
1764434035.8015802,-3.57084,1.6022999999999998,0.54936,-0.66088698,0.7314434400000001,-0.105041235
1764434035.8015802,-3.23512,1.54126,0.6867,-0.660459735,0.73205379,-0.105163305
1764434035.8015802,-3.23512,1.54126,0.6867,-0.660459735,0.73205379,-0.105163305
1764434035.841991,-3.23512,1.54126,0.6867,-0.660459735,0.73205379,-0.105163305
1764434035.841991,-3.23512,1.54126,0.6867,-0.660459735,0.73205379,-0.105163305
1764434035.841991,-3.23512,1.54126,0.6867,-0.660459735,0.73205379,-0.105163305
1764434035.841991,-3.23512,1.54126,0.6867,-0.660459735,0.73205379,-0.105163305
1764434035.841991,-3.23512,1.54126,0.6867,-0.660459735,0.73205379,-0.105163305
1764434035.841991,-3.23512,1.54126,0.6867,-0.660459735,0.73205379,-0.105163305
1764434035.841991,-3.23512,1.54126,0.6867,-0.660459735,0.73205379,-0.105163305
1764434035.841991,-3.23512,1.54126,0.6867,-0.660459735,0.73205379,-0.105163305
1764434035.841991,-3.67766,2.10588,0.51884,-0.660337665,0.73254207,-0.106017795
1764434035.841991,-3.67766,2.10588,0.51884,-0.660337665,0.73254207,-0.106017795
1764434035.841991,-3.67766,2.10588,0.51884,-0.660337665,0.73254207,-0.106017795
1764434035.841991,-3.67766,2.10588,0.51884,-0.660337665,0.73254207,-0.106017795
1764434035.841991,-3.67766,2.10588,0.51884,-0.660337665,0.73254207,-0.106017795
1764434035.841991,-3.67766,2.10588,0.51884,-0.660337665,0.73254207,-0.106017795
1764434035.841991,-3.67766,2.10588,0.51884,-0.660337665,0.73254207,-0.106017795
1764434035.841991,-3.67766,2.10588,0.51884,-0.660337665,0.73254207,-0.106017795
1764434035.841991,-3.67766,2.10588,0.51884,-0.660337665,0.73254207,-0.106017795
1764434035.841991,-3.67766,2.10588,0.51884,-0.660337665,0.73254207,-0.106017795
1764434035.841991,-3.64714,1.8312,0.6409199999999999,-0.66052077,0.732358965,-0.10668918
1764434035.841991,-3.64714,1.8312,0.6409199999999999,-0.66052077,0.732358965,-0.10668918
1764434035.841991,-3.64714,1.8312,0.6409199999999999,-0.66052077,0.732358965,-0.10668918
1764434035.841991,-3.64714,1.8312,0.6409199999999999,-0.66052077,0.732358965,-0.10668918
1764434035.8875349,-3.64714,1.8312,0.6409199999999999,-0.66052077,0.732358965,-0.10668918
1764434035.888566,-3.64714,1.8312,0.6409199999999999,-0.66052077,0.732358965,-0.10668918
1764434035.888566,-3.64714,1.8312,0.6409199999999999,-0.66052077,0.732358965,-0.10668918
1764434035.888566,-3.64714,1.8312,0.6409199999999999,-0.66052077,0.732358965,-0.10668918
1764434035.888566,-3.64714,1.8312,0.6409199999999999,-0.66052077,0.732358965,-0.10668918
1764434035.888566,-3.64714,1.8312,0.6409199999999999,-0.66052077,0.732358965,-0.10668918
1764434035.888566,-3.55558,1.8006799999999998,0.57988,-0.6596052450000001,0.73254207,-0.10644504
1764434035.888566,-3.55558,1.8006799999999998,0.57988,-0.6596052450000001,0.73254207,-0.10644504
1764434035.888566,-3.55558,1.8006799999999998,0.57988,-0.6596052450000001,0.73254207,-0.10644504
1764434035.8888752,-3.55558,1.8006799999999998,0.57988,-0.6596052450000001,0.73254207,-0.10644504
1764434035.8888752,-3.55558,1.8006799999999998,0.57988,-0.6596052450000001,0.73254207,-0.10644504
1764434035.8888752,-3.55558,1.8006799999999998,0.57988,-0.6596052450000001,0.73254207,-0.10644504
1764434035.8888752,-3.55558,1.8006799999999998,0.57988,-0.6596052450000001,0.73254207,-0.10644504
1764434035.8888752,-3.55558,1.8006799999999998,0.57988,-0.6596052450000001,0.73254207,-0.10644504
1764434035.8888752,-3.55558,1.8006799999999998,0.57988,-0.6596052450000001,0.73254207,-0.10644504
1764434035.8888752,-3.55558,1.8006799999999998,0.57988,-0.6596052450000001,0.73254207,-0.10644504
1764434035.8888752,-3.4335,1.34288,0.47306,-0.66003249,0.731992755,-0.105651585
1764434035.8888752,-3.4335,1.34288,0.47306,-0.66003249,0.731992755,-0.105651585
1764434035.8888752,-3.4335,1.34288,0.47306,-0.66003249,0.731992755,-0.105651585
1764434035.8888752,-3.4335,1.34288,0.47306,-0.66003249,0.731992755,-0.105651585
1764434035.8888752,-3.4335,1.34288,0.47306,-0.66003249,0.731992755,-0.105651585
1764434035.8888752,-3.4335,1.34288,0.47306,-0.66003249,0.731992755,-0.105651585
1764434035.9323833,-3.4335,1.34288,0.47306,-0.66003249,0.731992755,-0.105651585
1764434035.9323833,-3.4335,1.34288,0.47306,-0.66003249,0.731992755,-0.105651585
1764434035.9323833,-3.4335,1.34288,0.47306,-0.66003249,0.731992755,-0.105651585
1764434035.9323833,-3.4335,1.34288,0.47306,-0.66003249,0.731992755,-0.105651585
1764434035.9323833,-3.2046,1.26658,0.54936,-0.660581805,0.7324810350000001,-0.10546848
1764434035.9323833,-3.2046,1.26658,0.54936,-0.660581805,0.7324810350000001,-0.10546848
1764434035.9323833,-3.2046,1.26658,0.54936,-0.660581805,0.7324810350000001,-0.10546848
1764434035.9323833,-3.2046,1.26658,0.54936,-0.660581805,0.7324810350000001,-0.10546848
1764434035.9323833,-3.2046,1.26658,0.54936,-0.660581805,0.7324810350000001,-0.10546848
1764434035.9323833,-3.2046,1.26658,0.54936,-0.660581805,0.7324810350000001,-0.10546848
1764434035.9323833,-3.2046,1.26658,0.54936,-0.660581805,0.7324810350000001,-0.10546848
1764434035.9323833,-3.2046,1.26658,0.54936,-0.660581805,0.7324810350000001,-0.10546848
1764434035.9345064,-3.2046,1.26658,0.54936,-0.660581805,0.7324810350000001,-0.10546848
1764434035.9345064,-3.2046,1.26658,0.54936,-0.660581805,0.7324810350000001,-0.10546848
1764434035.9345064,-2.99096,1.15976,0.18312,-0.660703875,0.73266414,-0.105895725
1764434035.9345064,-2.99096,1.15976,0.18312,-0.660703875,0.73266414,-0.105895725
1764434035.9345064,-2.99096,1.15976,0.18312,-0.660703875,0.73266414,-0.105895725
1764434035.9345064,-2.99096,1.15976,0.18312,-0.660703875,0.73266414,-0.105895725
1764434035.9345064,-2.99096,1.15976,0.18312,-0.660703875,0.73266414,-0.105895725
1764434035.9345064,-2.99096,1.15976,0.18312,-0.660703875,0.73266414,-0.105895725
1764434035.9345064,-2.99096,1.15976,0.18312,-0.660703875,0.73266414,-0.105895725
1764434035.9345064,-2.99096,1.15976,0.18312,-0.660703875,0.73266414,-0.105895725
1764434035.9345064,-2.99096,1.15976,0.18312,-0.660703875,0.73266414,-0.105895725
1764434035.9345064,-2.99096,1.15976,0.18312,-0.660703875,0.73266414,-0.105895725
1764434035.9784813,-3.06726,1.43444,0.19838,-0.6606428400000001,0.732114825,-0.10607883
1764434035.9784813,-3.06726,1.43444,0.19838,-0.6606428400000001,0.732114825,-0.10607883
1764434035.9784813,-3.06726,1.43444,0.19838,-0.6606428400000001,0.732114825,-0.10607883
1764434035.9784813,-3.06726,1.43444,0.19838,-0.6606428400000001,0.732114825,-0.10607883
1764434035.9784813,-3.06726,1.43444,0.19838,-0.6606428400000001,0.732114825,-0.10607883
1764434035.9784813,-3.06726,1.43444,0.19838,-0.6606428400000001,0.732114825,-0.10607883
1764434035.9784813,-3.06726,1.43444,0.19838,-0.6606428400000001,0.732114825,-0.10607883
1764434035.9784813,-3.06726,1.43444,0.19838,-0.6606428400000001,0.732114825,-0.10607883
1764434035.9784813,-3.06726,1.43444,0.19838,-0.6606428400000001,0.732114825,-0.10607883
1764434035.9784813,-3.06726,1.43444,0.19838,-0.6606428400000001,0.732114825,-0.10607883
1764434035.9784813,-3.29616,1.23606,0.3357199999999999,-0.66125319,0.73229793,-0.10644504
1764434035.9784813,-3.29616,1.23606,0.3357199999999999,-0.66125319,0.73229793,-0.10644504
1764434035.9784813,-3.29616,1.23606,0.3357199999999999,-0.66125319,0.73229793,-0.10644504
1764434035.9784813,-3.29616,1.23606,0.3357199999999999,-0.66125319,0.73229793,-0.10644504
1764434035.9795284,-3.29616,1.23606,0.3357199999999999,-0.66125319,0.73229793,-0.10644504
1764434035.9795284,-3.29616,1.23606,0.3357199999999999,-0.66125319,0.73229793,-0.10644504
1764434035.9795284,-3.29616,1.23606,0.3357199999999999,-0.66125319,0.73229793,-0.10644504
1764434035.9795284,-3.29616,1.23606,0.3357199999999999,-0.66125319,0.73229793,-0.10644504
1764434035.9795284,-3.29616,1.23606,0.3357199999999999,-0.66125319,0.73229793,-0.10644504
1764434035.9795284,-3.29616,1.23606,0.3357199999999999,-0.66125319,0.73229793,-0.10644504
1764434035.9820788,-2.77732,1.35814,0.24416,-0.66100905,0.73217586,-0.106750215
1764434035.9820788,-2.77732,1.35814,0.24416,-0.66100905,0.73217586,-0.106750215
1764434035.9820788,-2.77732,1.35814,0.24416,-0.66100905,0.73217586,-0.106750215
1764434035.9820788,-2.77732,1.35814,0.24416,-0.66100905,0.73217586,-0.106750215
1764434036.0270174,-2.77732,1.35814,0.24416,-0.66100905,0.73217586,-0.106750215
1764434036.0270174,-2.77732,1.35814,0.24416,-0.66100905,0.73217586,-0.106750215
1764434036.0270174,-2.77732,1.35814,0.24416,-0.66100905,0.73217586,-0.106750215
1764434036.0270174,-2.77732,1.35814,0.24416,-0.66100905,0.73217586,-0.106750215
1764434036.0270174,-2.77732,1.35814,0.24416,-0.66100905,0.73217586,-0.106750215
1764434036.0270174,-2.77732,1.35814,0.24416,-0.66100905,0.73217586,-0.106750215
1764434036.028048,-2.94518,1.526,0.6409199999999999,-0.660948015,0.7319317200000001,-0.106750215
1764434036.028048,-2.94518,1.526,0.6409199999999999,-0.660948015,0.7319317200000001,-0.106750215
1764434036.028048,-2.94518,1.526,0.6409199999999999,-0.660948015,0.7319317200000001,-0.106750215
1764434036.028048,-2.94518,1.526,0.6409199999999999,-0.660948015,0.7319317200000001,-0.106750215
1764434036.0290558,-2.94518,1.526,0.6409199999999999,-0.660948015,0.7319317200000001,-0.106750215
1764434036.0290558,-2.94518,1.526,0.6409199999999999,-0.660948015,0.7319317200000001,-0.106750215
1764434036.0290558,-2.94518,1.526,0.6409199999999999,-0.660948015,0.7319317200000001,-0.106750215
1764434036.0290558,-2.94518,1.526,0.6409199999999999,-0.660948015,0.7319317200000001,-0.106750215
1764434036.0290558,-2.94518,1.526,0.6409199999999999,-0.660948015,0.7319317200000001,-0.106750215
1764434036.0290558,-2.94518,1.526,0.6409199999999999,-0.660948015,0.7319317200000001,-0.106750215
1764434036.0290558,-3.11304,1.57178,0.50358,-0.66088698,0.732358965,-0.107238495
1764434036.0290558,-3.11304,1.57178,0.50358,-0.66088698,0.732358965,-0.107238495
1764434036.0290558,-3.11304,1.57178,0.50358,-0.66088698,0.732358965,-0.107238495
1764434036.0290558,-3.11304,1.57178,0.50358,-0.66088698,0.732358965,-0.107238495
1764434036.0290558,-3.11304,1.57178,0.50358,-0.66088698,0.732358965,-0.107238495
1764434036.0290558,-3.11304,1.57178,0.50358,-0.66088698,0.732358965,-0.107238495
1764434036.0726252,-3.11304,1.57178,0.50358,-0.66088698,0.732358965,-0.107238495
1764434036.0726252,-3.11304,1.57178,0.50358,-0.66088698,0.732358965,-0.107238495
1764434036.0726252,-3.11304,1.57178,0.50358,-0.66088698,0.732358965,-0.107238495
1764434036.0731936,-3.11304,1.57178,0.50358,-0.66088698,0.732358965,-0.107238495
1764434036.0731936,-3.32668,1.41918,0.62566,-0.66052077,0.73229793,-0.107726775
1764434036.0731936,-3.32668,1.41918,0.62566,-0.66052077,0.73229793,-0.107726775
1764434036.0731936,-3.32668,1.41918,0.62566,-0.66052077,0.73229793,-0.107726775
1764434036.0731936,-3.32668,1.41918,0.62566,-0.66052077,0.73229793,-0.107726775
1764434036.0731936,-3.32668,1.41918,0.62566,-0.66052077,0.73229793,-0.107726775
1764434036.0731936,-3.32668,1.41918,0.62566,-0.66052077,0.73229793,-0.107726775
1764434036.0731936,-3.32668,1.41918,0.62566,-0.66052077,0.73229793,-0.107726775
1764434036.0731936,-3.32668,1.41918,0.62566,-0.66052077,0.73229793,-0.107726775
1764434036.0731936,-3.32668,1.41918,0.62566,-0.66052077,0.73229793,-0.107726775
1764434036.0731936,-3.32668,1.41918,0.62566,-0.66052077,0.73229793,-0.107726775
1764434036.0731936,-3.15882,1.58704,0.56462,-0.660825945,0.732236895,-0.107848845
1764434036.0731936,-3.15882,1.58704,0.56462,-0.660825945,0.732236895,-0.107848845
1764434036.0731936,-3.15882,1.58704,0.56462,-0.660825945,0.732236895,-0.107848845
1764434036.0731936,-3.15882,1.58704,0.56462,-0.660825945,0.732236895,-0.107848845
1764434036.0737576,-3.15882,1.58704,0.56462,-0.660825945,0.732236895,-0.107848845
1764434036.0737576,-3.15882,1.58704,0.56462,-0.660825945,0.732236895,-0.107848845
1764434036.0737576,-3.15882,1.58704,0.56462,-0.660825945,0.732236895,-0.107848845
1764434036.0737576,-3.15882,1.58704,0.56462,-0.660825945,0.732236895,-0.107848845
1764434036.1178496,-3.15882,1.58704,0.56462,-0.660825945,0.732236895,-0.107848845
1764434036.1178496,-3.15882,1.58704,0.56462,-0.660825945,0.732236895,-0.107848845
1764434036.1178496,-2.71628,1.35814,0.44254,-0.66100905,0.73278621,-0.10803195
1764434036.1178496,-2.71628,1.35814,0.44254,-0.66100905,0.73278621,-0.10803195
1764434036.1178496,-2.71628,1.35814,0.44254,-0.66100905,0.73278621,-0.10803195
1764434036.1178496,-2.71628,1.35814,0.44254,-0.66100905,0.73278621,-0.10803195
1764434036.1178496,-2.71628,1.35814,0.44254,-0.66100905,0.73278621,-0.10803195
1764434036.1178496,-2.71628,1.35814,0.44254,-0.66100905,0.73278621,-0.10803195
1764434036.1178496,-2.71628,1.35814,0.44254,-0.66100905,0.73278621,-0.10803195
1764434036.1178496,-2.71628,1.35814,0.44254,-0.66100905,0.73278621,-0.10803195
1764434036.1178496,-2.71628,1.35814,0.44254,-0.66100905,0.73278621,-0.10803195
1764434036.1178496,-2.71628,1.35814,0.44254,-0.66100905,0.73278621,-0.10803195
1764434036.1178496,-3.02148,1.6786,0.763,-0.66052077,0.732114825,-0.107726775
1764434036.1178496,-3.02148,1.6786,0.763,-0.66052077,0.732114825,-0.107726775
1764434036.1178496,-3.02148,1.6786,0.763,-0.66052077,0.732114825,-0.107726775
1764434036.1178496,-3.02148,1.6786,0.763,-0.66052077,0.732114825,-0.107726775
1764434036.1178496,-3.02148,1.6786,0.763,-0.66052077,0.732114825,-0.107726775
1764434036.1188853,-3.02148,1.6786,0.763,-0.66052077,0.732114825,-0.107726775
1764434036.1188853,-3.02148,1.6786,0.763,-0.66052077,0.732114825,-0.107726775
1764434036.1188853,-3.02148,1.6786,0.763,-0.66052077,0.732114825,-0.107726775
1764434036.1188853,-3.02148,1.6786,0.763,-0.66052077,0.732114825,-0.107726775
1764434036.1188853,-3.02148,1.6786,0.763,-0.66052077,0.732114825,-0.107726775
1764434036.1188853,-2.77732,1.81594,0.21364,-0.6603987,0.732358965,-0.107604705
1764434036.1188853,-2.77732,1.81594,0.21364,-0.6603987,0.732358965,-0.107604705
1764434036.1673224,-2.77732,1.81594,0.21364,-0.6603987,0.732358965,-0.107604705
1764434036.1673224,-2.77732,1.81594,0.21364,-0.6603987,0.732358965,-0.107604705
1764434036.1673224,-2.77732,1.81594,0.21364,-0.6603987,0.732358965,-0.107604705
1764434036.1673224,-2.77732,1.81594,0.21364,-0.6603987,0.732358965,-0.107604705
1764434036.1673224,-2.77732,1.81594,0.21364,-0.6603987,0.732358965,-0.107604705
1764434036.1673224,-2.77732,1.81594,0.21364,-0.6603987,0.732358965,-0.107604705
1764434036.1673224,-2.77732,1.81594,0.21364,-0.6603987,0.732358965,-0.107604705
1764434036.1673224,-2.77732,1.81594,0.21364,-0.6603987,0.732358965,-0.107604705
1764434036.1673224,-2.6705,1.26658,0.47306,-0.660825945,0.7324810350000001,-0.108337125
1764434036.1673224,-2.6705,1.26658,0.47306,-0.660825945,0.7324810350000001,-0.108337125
1764434036.1673224,-2.6705,1.26658,0.47306,-0.660825945,0.7324810350000001,-0.108337125
1764434036.1673224,-2.6705,1.26658,0.47306,-0.660825945,0.7324810350000001,-0.108337125
1764434036.1673224,-2.6705,1.26658,0.47306,-0.660825945,0.7324810350000001,-0.108337125
1764434036.1673224,-2.6705,1.26658,0.47306,-0.660825945,0.7324810350000001,-0.108337125
1764434036.1673224,-2.6705,1.26658,0.47306,-0.660825945,0.7324810350000001,-0.108337125
1764434036.1673224,-2.6705,1.26658,0.47306,-0.660825945,0.7324810350000001,-0.108337125
1764434036.1673224,-2.6705,1.26658,0.47306,-0.660825945,0.7324810350000001,-0.108337125
1764434036.1673224,-2.6705,1.26658,0.47306,-0.660825945,0.7324810350000001,-0.108337125
1764434036.1673224,-2.62472,1.34288,0.3051999999999999,-0.659971455,0.7324810350000001,-0.10803195
1764434036.1673224,-2.62472,1.34288,0.3051999999999999,-0.659971455,0.7324810350000001,-0.10803195
1764434036.167987,-2.62472,1.34288,0.3051999999999999,-0.659971455,0.7324810350000001,-0.10803195
1764434036.167987,-2.62472,1.34288,0.3051999999999999,-0.659971455,0.7324810350000001,-0.10803195
1764434036.167987,-2.62472,1.34288,0.3051999999999999,-0.659971455,0.7324810350000001,-0.10803195
1764434036.167987,-2.62472,1.34288,0.3051999999999999,-0.659971455,0.7324810350000001,-0.10803195
1764434036.212103,-2.62472,1.34288,0.3051999999999999,-0.659971455,0.7324810350000001,-0.10803195
1764434036.212103,-2.62472,1.34288,0.3051999999999999,-0.659971455,0.7324810350000001,-0.10803195
1764434036.212103,-2.62472,1.34288,0.3051999999999999,-0.659971455,0.7324810350000001,-0.10803195
1764434036.212103,-2.62472,1.34288,0.3051999999999999,-0.659971455,0.7324810350000001,-0.10803195
1764434036.212103,-2.53316,1.55652,0.19838,-0.66003249,0.73303035,-0.108337125
1764434036.212103,-2.53316,1.55652,0.19838,-0.66003249,0.73303035,-0.108337125
1764434036.212103,-2.53316,1.55652,0.19838,-0.66003249,0.73303035,-0.108337125
1764434036.212103,-2.53316,1.55652,0.19838,-0.66003249,0.73303035,-0.108337125
1764434036.212103,-2.53316,1.55652,0.19838,-0.66003249,0.73303035,-0.108337125
1764434036.212103,-2.53316,1.55652,0.19838,-0.66003249,0.73303035,-0.108337125
1764434036.212103,-2.53316,1.55652,0.19838,-0.66003249,0.73303035,-0.108337125
1764434036.212103,-2.53316,1.55652,0.19838,-0.66003249,0.73303035,-0.108337125
1764434036.212103,-2.53316,1.55652,0.19838,-0.66003249,0.73303035,-0.108337125
1764434036.212103,-2.53316,1.55652,0.19838,-0.66003249,0.73303035,-0.108337125
1764434036.212103,-2.38056,1.54126,0.54936,-0.66088698,0.732603105,-0.10815402
1764434036.212103,-2.38056,1.54126,0.54936,-0.66088698,0.732603105,-0.10815402
1764434036.212103,-2.38056,1.54126,0.54936,-0.66088698,0.732603105,-0.10815402
1764434036.212103,-2.38056,1.54126,0.54936,-0.66088698,0.732603105,-0.10815402
1764434036.2136436,-2.38056,1.54126,0.54936,-0.66088698,0.732603105,-0.10815402
1764434036.2136436,-2.38056,1.54126,0.54936,-0.66088698,0.732603105,-0.10815402
1764434036.2136436,-2.38056,1.54126,0.54936,-0.66088698,0.732603105,-0.10815402
1764434036.2146845,-2.38056,1.54126,0.54936,-0.66088698,0.732603105,-0.10815402
1764434036.2550004,-2.38056,1.54126,0.54936,-0.66088698,0.732603105,-0.10815402
1764434036.2560346,-2.38056,1.54126,0.54936,-0.66088698,0.732603105,-0.10815402
1764434036.2560346,-2.10588,1.7549,0.47306,-0.660948015,0.7324810350000001,-0.10900851
1764434036.2560346,-2.10588,1.7549,0.47306,-0.660948015,0.7324810350000001,-0.10900851
1764434036.2560346,-2.10588,1.7549,0.47306,-0.660948015,0.7324810350000001,-0.10900851
1764434036.2560346,-2.10588,1.7549,0.47306,-0.660948015,0.7324810350000001,-0.10900851
1764434036.2560346,-2.10588,1.7549,0.47306,-0.660948015,0.7324810350000001,-0.10900851
1764434036.257581,-2.10588,1.7549,0.47306,-0.660948015,0.7324810350000001,-0.10900851
1764434036.257581,-2.10588,1.7549,0.47306,-0.660948015,0.7324810350000001,-0.10900851
1764434036.257581,-2.10588,1.7549,0.47306,-0.660948015,0.7324810350000001,-0.10900851
1764434036.257581,-2.10588,1.7549,0.47306,-0.660948015,0.7324810350000001,-0.10900851
1764434036.257581,-2.10588,1.7549,0.47306,-0.660948015,0.7324810350000001,-0.10900851
1764434036.257581,-2.289,1.46496,0.41202,-0.66076491,0.731504475,-0.10949679
1764434036.257581,-2.289,1.46496,0.41202,-0.66076491,0.731504475,-0.10949679
1764434036.2586312,-2.289,1.46496,0.41202,-0.66076491,0.731504475,-0.10949679
1764434036.2586312,-2.289,1.46496,0.41202,-0.66076491,0.731504475,-0.10949679
1764434036.2586312,-2.289,1.46496,0.41202,-0.66076491,0.731504475,-0.10949679
1764434036.2586312,-2.289,1.46496,0.41202,-0.66076491,0.731504475,-0.10949679
1764434036.2586312,-2.289,1.46496,0.41202,-0.66076491,0.731504475,-0.10949679
1764434036.2596328,-2.289,1.46496,0.41202,-0.66076491,0.731504475,-0.10949679
1764434036.2596328,-2.289,1.46496,0.41202,-0.66076491,0.731504475,-0.10949679
1764434036.2596328,-2.289,1.46496,0.41202,-0.66076491,0.731504475,-0.10949679
1764434036.3041022,-2.42634,1.93802,0.85456,-0.660581805,0.73168758,-0.110168175
1764434036.3041022,-2.42634,1.93802,0.85456,-0.660581805,0.73168758,-0.110168175
1764434036.3041022,-2.42634,1.93802,0.85456,-0.660581805,0.73168758,-0.110168175
1764434036.3041022,-2.42634,1.93802,0.85456,-0.660581805,0.73168758,-0.110168175
1764434036.3041022,-2.42634,1.93802,0.85456,-0.660581805,0.73168758,-0.110168175
1764434036.3041022,-2.42634,1.93802,0.85456,-0.660581805,0.73168758,-0.110168175
1764434036.3041022,-2.42634,1.93802,0.85456,-0.660581805,0.73168758,-0.110168175
1764434036.3041022,-2.42634,1.93802,0.85456,-0.660581805,0.73168758,-0.110168175
1764434036.3041022,-2.42634,1.93802,0.85456,-0.660581805,0.73168758,-0.110168175
1764434036.3041022,-2.42634,1.93802,0.85456,-0.660581805,0.73168758,-0.110168175
1764434036.3041022,-2.56368,1.77016,0.62566,-0.66076491,0.73229793,-0.110290245
1764434036.3041022,-2.56368,1.77016,0.62566,-0.66076491,0.73229793,-0.110290245
1764434036.3041022,-2.56368,1.77016,0.62566,-0.66076491,0.73229793,-0.110290245
1764434036.3041022,-2.56368,1.77016,0.62566,-0.66076491,0.73229793,-0.110290245
1764434036.3041022,-2.56368,1.77016,0.62566,-0.66076491,0.73229793,-0.110290245
1764434036.3041022,-2.56368,1.77016,0.62566,-0.66076491,0.73229793,-0.110290245
1764434036.3041022,-2.56368,1.77016,0.62566,-0.66076491,0.73229793,-0.110290245
1764434036.3041022,-2.56368,1.77016,0.62566,-0.66076491,0.73229793,-0.110290245
1764434036.3041022,-2.56368,1.77016,0.62566,-0.66076491,0.73229793,-0.110290245
1764434036.3041022,-2.56368,1.77016,0.62566,-0.66076491,0.73229793,-0.110290245
1764434036.3041022,-3.09778,1.70912,0.6867,-0.6603987,0.73168758,-0.11047335
1764434036.3041022,-3.09778,1.70912,0.6867,-0.6603987,0.73168758,-0.11047335
1764434036.3041022,-3.09778,1.70912,0.6867,-0.6603987,0.73168758,-0.11047335
1764434036.3051467,-3.09778,1.70912,0.6867,-0.6603987,0.73168758,-0.11047335
1764434036.3541076,-3.09778,1.70912,0.6867,-0.6603987,0.73168758,-0.11047335
1764434036.3541076,-3.09778,1.70912,0.6867,-0.6603987,0.73168758,-0.11047335
1764434036.3541076,-3.09778,1.70912,0.6867,-0.6603987,0.73168758,-0.11047335
1764434036.3541076,-3.09778,1.70912,0.6867,-0.6603987,0.73168758,-0.11047335
1764434036.3541076,-3.09778,1.70912,0.6867,-0.6603987,0.73168758,-0.11047335
1764434036.3541076,-3.09778,1.70912,0.6867,-0.6603987,0.73168758,-0.11047335
1764434036.3541076,-2.53316,1.58704,0.4578,-0.66003249,0.732236895,-0.111022665
1764434036.3541076,-2.53316,1.58704,0.4578,-0.66003249,0.732236895,-0.111022665
1764434036.3541076,-2.53316,1.58704,0.4578,-0.66003249,0.732236895,-0.111022665
1764434036.3541076,-2.53316,1.58704,0.4578,-0.66003249,0.732236895,-0.111022665
1764434036.3541076,-2.53316,1.58704,0.4578,-0.66003249,0.732236895,-0.111022665
1764434036.3541076,-2.53316,1.58704,0.4578,-0.66003249,0.732236895,-0.111022665
1764434036.3551416,-2.53316,1.58704,0.4578,-0.66003249,0.732236895,-0.111022665
1764434036.3551416,-2.53316,1.58704,0.4578,-0.66003249,0.732236895,-0.111022665
1764434036.3551416,-2.53316,1.58704,0.4578,-0.66003249,0.732236895,-0.111022665
1764434036.3551416,-2.53316,1.58704,0.4578,-0.66003249,0.732236895,-0.111022665
1764434036.3551416,-2.0601,1.9075,0.27468,-0.65954421,0.731992755,-0.111388875
1764434036.3551416,-2.0601,1.9075,0.27468,-0.65954421,0.731992755,-0.111388875
1764434036.3551416,-2.0601,1.9075,0.27468,-0.65954421,0.731992755,-0.111388875
1764434036.3551416,-2.0601,1.9075,0.27468,-0.65954421,0.731992755,-0.111388875
1764434036.3551416,-2.0601,1.9075,0.27468,-0.65954421,0.731992755,-0.111388875
1764434036.3551416,-2.0601,1.9075,0.27468,-0.65954421,0.731992755,-0.111388875
1764434036.3551416,-2.0601,1.9075,0.27468,-0.65954421,0.731992755,-0.111388875
1764434036.3551416,-2.0601,1.9075,0.27468,-0.65954421,0.731992755,-0.111388875
1764434036.3969138,-2.0601,1.9075,0.27468,-0.65954421,0.731992755,-0.111388875
1764434036.3969138,-2.0601,1.9075,0.27468,-0.65954421,0.731992755,-0.111388875
1764434036.3969138,-3.31142,1.41918,0.24416,-0.65893386,0.73180965,-0.11206026
1764434036.3969138,-3.31142,1.41918,0.24416,-0.65893386,0.73180965,-0.11206026
1764434036.3969138,-3.31142,1.41918,0.24416,-0.65893386,0.73180965,-0.11206026
1764434036.3969138,-3.31142,1.41918,0.24416,-0.65893386,0.73180965,-0.11206026
1764434036.3969138,-3.31142,1.41918,0.24416,-0.65893386,0.73180965,-0.11206026
1764434036.3969138,-3.31142,1.41918,0.24416,-0.65893386,0.73180965,-0.11206026
1764434036.3969138,-3.31142,1.41918,0.24416,-0.65893386,0.73180965,-0.11206026
1764434036.3969138,-3.31142,1.41918,0.24416,-0.65893386,0.73180965,-0.11206026
1764434036.398456,-3.31142,1.41918,0.24416,-0.65893386,0.73180965,-0.11206026
1764434036.398456,-3.31142,1.41918,0.24416,-0.65893386,0.73180965,-0.11206026
1764434036.398456,-3.38772,1.48022,0.54936,-0.659361105,0.73229793,-0.11181612
1764434036.398456,-3.38772,1.48022,0.54936,-0.659361105,0.73229793,-0.11181612
1764434036.398456,-3.38772,1.48022,0.54936,-0.659361105,0.73229793,-0.11181612
1764434036.398456,-3.38772,1.48022,0.54936,-0.659361105,0.73229793,-0.11181612
1764434036.398456,-3.38772,1.48022,0.54936,-0.659361105,0.73229793,-0.11181612
1764434036.398456,-3.38772,1.48022,0.54936,-0.659361105,0.73229793,-0.11181612
1764434036.398456,-3.38772,1.48022,0.54936,-0.659361105,0.73229793,-0.11181612
1764434036.398456,-3.38772,1.48022,0.54936,-0.659361105,0.73229793,-0.11181612
1764434036.398456,-3.38772,1.48022,0.54936,-0.659361105,0.73229793,-0.11181612
1764434036.398456,-3.38772,1.48022,0.54936,-0.659361105,0.73229793,-0.11181612
1764434036.398456,-2.5179,1.73964,0.6867,-0.6603987,0.732114825,-0.111877155
1764434036.398456,-2.5179,1.73964,0.6867,-0.6603987,0.732114825,-0.111877155
1764434036.4457235,-2.5179,1.73964,0.6867,-0.6603987,0.732114825,-0.111877155
1764434036.4457235,-2.5179,1.73964,0.6867,-0.6603987,0.732114825,-0.111877155
1764434036.4457235,-2.5179,1.73964,0.6867,-0.6603987,0.732114825,-0.111877155
1764434036.4457235,-2.5179,1.73964,0.6867,-0.6603987,0.732114825,-0.111877155
1764434036.4457235,-2.5179,1.73964,0.6867,-0.6603987,0.732114825,-0.111877155
1764434036.4457235,-2.5179,1.73964,0.6867,-0.6603987,0.732114825,-0.111877155
1764434036.4457235,-2.5179,1.73964,0.6867,-0.6603987,0.732114825,-0.111877155
1764434036.4467263,-2.5179,1.73964,0.6867,-0.6603987,0.732114825,-0.111877155
1764434036.4467263,-2.62472,1.70912,0.77826,-0.660948015,0.73180965,-0.11242647
1764434036.4467263,-2.62472,1.70912,0.77826,-0.660948015,0.73180965,-0.11242647
1764434036.4467263,-2.62472,1.70912,0.77826,-0.660948015,0.73180965,-0.11242647
1764434036.4467263,-2.62472,1.70912,0.77826,-0.660948015,0.73180965,-0.11242647
1764434036.4477177,-2.62472,1.70912,0.77826,-0.660948015,0.73180965,-0.11242647
1764434036.4477177,-2.62472,1.70912,0.77826,-0.660948015,0.73180965,-0.11242647
1764434036.4477177,-2.62472,1.70912,0.77826,-0.660948015,0.73180965,-0.11242647
1764434036.4477177,-2.62472,1.70912,0.77826,-0.660948015,0.73180965,-0.11242647
1764434036.4477177,-2.62472,1.70912,0.77826,-0.660948015,0.73180965,-0.11242647
1764434036.4477177,-2.62472,1.70912,0.77826,-0.660948015,0.73180965,-0.11242647
1764434036.4477177,-2.94518,1.51074,0.74774,-0.660337665,0.7314434400000001,-0.112487505
1764434036.4477177,-2.94518,1.51074,0.74774,-0.660337665,0.7314434400000001,-0.112487505
1764434036.4477177,-2.94518,1.51074,0.74774,-0.660337665,0.7314434400000001,-0.112487505
1764434036.4477177,-2.94518,1.51074,0.74774,-0.660337665,0.7314434400000001,-0.112487505
1764434036.4477177,-2.94518,1.51074,0.74774,-0.660337665,0.7314434400000001,-0.112487505
1764434036.4477177,-2.94518,1.51074,0.74774,-0.660337665,0.7314434400000001,-0.112487505
1764434036.4918962,-2.94518,1.51074,0.74774,-0.660337665,0.7314434400000001,-0.112487505
1764434036.4918962,-2.94518,1.51074,0.74774,-0.660337665,0.7314434400000001,-0.112487505
1764434036.4918962,-2.94518,1.51074,0.74774,-0.660337665,0.7314434400000001,-0.112487505
1764434036.4918962,-2.94518,1.51074,0.74774,-0.660337665,0.7314434400000001,-0.112487505
1764434036.4918962,-3.49454,1.58704,0.6409199999999999,-0.6601545600000001,0.731382405,-0.11206026
1764434036.4918962,-3.49454,1.58704,0.6409199999999999,-0.6601545600000001,0.731382405,-0.11206026
1764434036.4918962,-3.49454,1.58704,0.6409199999999999,-0.6601545600000001,0.731382405,-0.11206026
1764434036.4918962,-3.49454,1.58704,0.6409199999999999,-0.6601545600000001,0.731382405,-0.11206026
1764434036.4918962,-3.49454,1.58704,0.6409199999999999,-0.6601545600000001,0.731382405,-0.11206026
1764434036.4918962,-3.49454,1.58704,0.6409199999999999,-0.6601545600000001,0.731382405,-0.11206026
1764434036.4918962,-3.49454,1.58704,0.6409199999999999,-0.6601545600000001,0.731382405,-0.11206026
1764434036.4918962,-3.49454,1.58704,0.6409199999999999,-0.6601545600000001,0.731382405,-0.11206026
1764434036.4918962,-3.49454,1.58704,0.6409199999999999,-0.6601545600000001,0.731382405,-0.11206026
1764434036.4918962,-3.49454,1.58704,0.6409199999999999,-0.6601545600000001,0.731382405,-0.11206026
1764434036.4918962,-3.2809,1.31236,0.3815,-0.659849385,0.73132137,-0.112365435
1764434036.4918962,-3.2809,1.31236,0.3815,-0.659849385,0.73132137,-0.112365435
1764434036.4918962,-3.2809,1.31236,0.3815,-0.659849385,0.73132137,-0.112365435
1764434036.4918962,-3.2809,1.31236,0.3815,-0.659849385,0.73132137,-0.112365435
1764434036.4918962,-3.2809,1.31236,0.3815,-0.659849385,0.73132137,-0.112365435
1764434036.4918962,-3.2809,1.31236,0.3815,-0.659849385,0.73132137,-0.112365435
1764434036.4918962,-3.2809,1.31236,0.3815,-0.659849385,0.73132137,-0.112365435
1764434036.4918962,-3.2809,1.31236,0.3815,-0.659849385,0.73132137,-0.112365435
1764434036.53676,-3.2809,1.31236,0.3815,-0.659849385,0.73132137,-0.112365435
1764434036.53676,-3.2809,1.31236,0.3815,-0.659849385,0.73132137,-0.112365435
1764434036.53676,-3.09778,1.51074,0.57988,-0.66052077,0.73132137,-0.11279268
1764434036.53676,-3.09778,1.51074,0.57988,-0.66052077,0.73132137,-0.11279268
1764434036.53676,-3.09778,1.51074,0.57988,-0.66052077,0.73132137,-0.11279268
1764434036.53676,-3.09778,1.51074,0.57988,-0.66052077,0.73132137,-0.11279268
1764434036.53676,-3.09778,1.51074,0.57988,-0.66052077,0.73132137,-0.11279268
1764434036.53676,-3.09778,1.51074,0.57988,-0.66052077,0.73132137,-0.11279268
1764434036.53676,-3.09778,1.51074,0.57988,-0.66052077,0.73132137,-0.11279268
1764434036.53676,-3.09778,1.51074,0.57988,-0.66052077,0.73132137,-0.11279268
1764434036.53676,-3.09778,1.51074,0.57988,-0.66052077,0.73132137,-0.11279268
1764434036.53676,-3.09778,1.51074,0.57988,-0.66052077,0.73132137,-0.11279268
1764434036.53676,-3.7387,1.51074,0.54936,-0.66076491,0.731016195,-0.1135251
1764434036.53676,-3.7387,1.51074,0.54936,-0.66076491,0.731016195,-0.1135251
1764434036.53676,-3.7387,1.51074,0.54936,-0.66076491,0.731016195,-0.1135251
1764434036.53676,-3.7387,1.51074,0.54936,-0.66076491,0.731016195,-0.1135251
1764434036.53676,-3.7387,1.51074,0.54936,-0.66076491,0.731016195,-0.1135251
1764434036.53676,-3.7387,1.51074,0.54936,-0.66076491,0.731016195,-0.1135251
1764434036.53676,-3.7387,1.51074,0.54936,-0.66076491,0.731016195,-0.1135251
1764434036.53676,-3.7387,1.51074,0.54936,-0.66076491,0.731016195,-0.1135251
1764434036.53676,-3.7387,1.51074,0.54936,-0.66076491,0.731016195,-0.1135251
1764434036.53676,-3.7387,1.51074,0.54936,-0.66076491,0.731016195,-0.1135251
1764434036.53676,-3.86078,1.70912,0.62566,-0.660581805,0.7311993,-0.11364717
1764434036.53676,-3.86078,1.70912,0.62566,-0.660581805,0.7311993,-0.11364717
1764434036.5857468,-3.86078,1.70912,0.62566,-0.660581805,0.7311993,-0.11364717
1764434036.5857468,-3.86078,1.70912,0.62566,-0.660581805,0.7311993,-0.11364717
1764434036.5857468,-3.86078,1.70912,0.62566,-0.660581805,0.7311993,-0.11364717
1764434036.5857468,-3.86078,1.70912,0.62566,-0.660581805,0.7311993,-0.11364717
1764434036.586726,-3.86078,1.70912,0.62566,-0.660581805,0.7311993,-0.11364717
1764434036.586726,-3.86078,1.70912,0.62566,-0.660581805,0.7311993,-0.11364717
1764434036.586726,-3.86078,1.70912,0.62566,-0.660581805,0.7311993,-0.11364717
1764434036.586726,-3.86078,1.70912,0.62566,-0.660581805,0.7311993,-0.11364717
1764434036.586726,-3.67766,1.54126,0.44254,-0.6601545600000001,0.731870685,-0.113464065
1764434036.586726,-3.67766,1.54126,0.44254,-0.6601545600000001,0.731870685,-0.113464065
1764434036.587734,-3.67766,1.54126,0.44254,-0.6601545600000001,0.731870685,-0.113464065
1764434036.587734,-3.67766,1.54126,0.44254,-0.6601545600000001,0.731870685,-0.113464065
1764434036.587734,-3.67766,1.54126,0.44254,-0.6601545600000001,0.731870685,-0.113464065
1764434036.587734,-3.67766,1.54126,0.44254,-0.6601545600000001,0.731870685,-0.113464065
1764434036.587734,-3.67766,1.54126,0.44254,-0.6601545600000001,0.731870685,-0.113464065
1764434036.587734,-3.67766,1.54126,0.44254,-0.6601545600000001,0.731870685,-0.113464065
1764434036.587734,-3.67766,1.54126,0.44254,-0.6601545600000001,0.731870685,-0.113464065
1764434036.588735,-3.67766,1.54126,0.44254,-0.6601545600000001,0.731870685,-0.113464065
1764434036.588735,-4.18124,1.46496,0.2289,-0.65942214,0.732236895,-0.114074415
1764434036.588735,-4.18124,1.46496,0.2289,-0.65942214,0.732236895,-0.114074415
1764434036.588735,-4.18124,1.46496,0.2289,-0.65942214,0.732236895,-0.114074415
1764434036.588735,-4.18124,1.46496,0.2289,-0.65942214,0.732236895,-0.114074415
1764434036.6299171,-4.18124,1.46496,0.2289,-0.65942214,0.732236895,-0.114074415
1764434036.6299171,-4.18124,1.46496,0.2289,-0.65942214,0.732236895,-0.114074415
1764434036.6299171,-4.18124,1.46496,0.2289,-0.65942214,0.732236895,-0.114074415
1764434036.6299171,-4.18124,1.46496,0.2289,-0.65942214,0.732236895,-0.114074415
1764434036.6309574,-4.18124,1.46496,0.2289,-0.65942214,0.732236895,-0.114074415
1764434036.6309574,-4.18124,1.46496,0.2289,-0.65942214,0.732236895,-0.114074415
1764434036.6309574,-5.02054,1.4497,0.3051999999999999,-0.658872825,0.731626545,-0.114196485
1764434036.6309574,-5.02054,1.4497,0.3051999999999999,-0.658872825,0.731626545,-0.114196485
1764434036.6309574,-5.02054,1.4497,0.3051999999999999,-0.658872825,0.731626545,-0.114196485
1764434036.6309574,-5.02054,1.4497,0.3051999999999999,-0.658872825,0.731626545,-0.114196485
1764434036.6309574,-5.02054,1.4497,0.3051999999999999,-0.658872825,0.731626545,-0.114196485
1764434036.6309574,-5.02054,1.4497,0.3051999999999999,-0.658872825,0.731626545,-0.114196485
1764434036.6309574,-5.02054,1.4497,0.3051999999999999,-0.658872825,0.731626545,-0.114196485
1764434036.6309574,-5.02054,1.4497,0.3051999999999999,-0.658872825,0.731626545,-0.114196485
1764434036.6309574,-5.02054,1.4497,0.3051999999999999,-0.658872825,0.731626545,-0.114196485
1764434036.6309574,-5.02054,1.4497,0.3051999999999999,-0.658872825,0.731626545,-0.114196485
1764434036.6309574,-5.21892,1.12924,0.04578,-0.659116965,0.731748615,-0.11340303
1764434036.6309574,-5.21892,1.12924,0.04578,-0.659116965,0.731748615,-0.11340303
1764434036.6309574,-5.21892,1.12924,0.04578,-0.659116965,0.731748615,-0.11340303
1764434036.6309574,-5.21892,1.12924,0.04578,-0.659116965,0.731748615,-0.11340303
1764434036.6309574,-5.21892,1.12924,0.04578,-0.659116965,0.731748615,-0.11340303
1764434036.6309574,-5.21892,1.12924,0.04578,-0.659116965,0.731748615,-0.11340303
1764434036.6319551,-5.21892,1.12924,0.04578,-0.659116965,0.731748615,-0.11340303
1764434036.6319551,-5.21892,1.12924,0.04578,-0.659116965,0.731748615,-0.11340303
1764434036.6790185,-5.21892,1.12924,0.04578,-0.659116965,0.731748615,-0.11340303
1764434036.6790185,-5.21892,1.12924,0.04578,-0.659116965,0.731748615,-0.11340303
1764434036.68005,-5.29522,1.2971,0.03052,-0.659971455,0.731504475,-0.112975785
1764434036.68005,-5.29522,1.2971,0.03052,-0.659971455,0.731504475,-0.112975785
1764434036.68005,-5.29522,1.2971,0.03052,-0.659971455,0.731504475,-0.112975785
1764434036.68005,-5.29522,1.2971,0.03052,-0.659971455,0.731504475,-0.112975785
1764434036.68005,-5.29522,1.2971,0.03052,-0.659971455,0.731504475,-0.112975785
1764434036.6810594,-5.29522,1.2971,0.03052,-0.659971455,0.731504475,-0.112975785
1764434036.6810594,-5.29522,1.2971,0.03052,-0.659971455,0.731504475,-0.112975785
1764434036.6810594,-5.29522,1.2971,0.03052,-0.659971455,0.731504475,-0.112975785
1764434036.6810594,-5.29522,1.2971,0.03052,-0.659971455,0.731504475,-0.112975785
1764434036.6810594,-5.29522,1.2971,0.03052,-0.659971455,0.731504475,-0.112975785
1764434036.682058,-5.096839999999999,1.05294,0.10682,-0.65991042,0.7314434400000001,-0.11315889
1764434036.682058,-5.096839999999999,1.05294,0.10682,-0.65991042,0.7314434400000001,-0.11315889
1764434036.682058,-5.096839999999999,1.05294,0.10682,-0.65991042,0.7314434400000001,-0.11315889
1764434036.682058,-5.096839999999999,1.05294,0.10682,-0.65991042,0.7314434400000001,-0.11315889
1764434036.682058,-5.096839999999999,1.05294,0.10682,-0.65991042,0.7314434400000001,-0.11315889
1764434036.682058,-5.096839999999999,1.05294,0.10682,-0.65991042,0.7314434400000001,-0.11315889
1764434036.682058,-5.096839999999999,1.05294,0.10682,-0.65991042,0.7314434400000001,-0.11315889
1764434036.682058,-5.096839999999999,1.05294,0.10682,-0.65991042,0.7314434400000001,-0.11315889
1764434036.6835954,-5.096839999999999,1.05294,0.10682,-0.65991042,0.7314434400000001,-0.11315889
1764434036.6835954,-5.096839999999999,1.05294,0.10682,-0.65991042,0.7314434400000001,-0.11315889
1764434036.6835954,-5.21892,1.25132,0.27468,-0.659727315,0.731626545,-0.113341995
1764434036.6835954,-5.21892,1.25132,0.27468,-0.659727315,0.731626545,-0.113341995
1764434036.7272012,-5.21892,1.25132,0.27468,-0.659727315,0.731626545,-0.113341995
1764434036.7272012,-5.21892,1.25132,0.27468,-0.659727315,0.731626545,-0.113341995
1764434036.7272012,-5.21892,1.25132,0.27468,-0.659727315,0.731626545,-0.113341995
1764434036.7272012,-5.21892,1.25132,0.27468,-0.659727315,0.731626545,-0.113341995
1764434036.7272012,-5.21892,1.25132,0.27468,-0.659727315,0.731626545,-0.113341995
1764434036.7272012,-5.21892,1.25132,0.27468,-0.659727315,0.731626545,-0.113341995
1764434036.7272012,-5.21892,1.25132,0.27468,-0.659727315,0.731626545,-0.113341995
1764434036.7272012,-5.21892,1.25132,0.27468,-0.659727315,0.731626545,-0.113341995
1764434036.7272012,-5.40204,1.28184,-0.21364,-0.659483175,0.731992755,-0.11328096
1764434036.7272012,-5.40204,1.28184,-0.21364,-0.659483175,0.731992755,-0.11328096
1764434036.7272012,-5.40204,1.28184,-0.21364,-0.659483175,0.731992755,-0.11328096
1764434036.7272012,-5.40204,1.28184,-0.21364,-0.659483175,0.731992755,-0.11328096
1764434036.7272012,-5.40204,1.28184,-0.21364,-0.659483175,0.731992755,-0.11328096
1764434036.7272012,-5.40204,1.28184,-0.21364,-0.659483175,0.731992755,-0.11328096
1764434036.7282414,-5.40204,1.28184,-0.21364,-0.659483175,0.731992755,-0.11328096
1764434036.7282414,-5.40204,1.28184,-0.21364,-0.659483175,0.731992755,-0.11328096
1764434036.7282414,-5.40204,1.28184,-0.21364,-0.659483175,0.731992755,-0.11328096
1764434036.7282414,-5.40204,1.28184,-0.21364,-0.659483175,0.731992755,-0.11328096
1764434036.7282414,-6.3329,1.28184,0.03052,-0.659361105,0.731870685,-0.11303682
1764434036.7282414,-6.3329,1.28184,0.03052,-0.659361105,0.731870685,-0.11303682
1764434036.7282414,-6.3329,1.28184,0.03052,-0.659361105,0.731870685,-0.11303682
1764434036.7282414,-6.3329,1.28184,0.03052,-0.659361105,0.731870685,-0.11303682
1764434036.7282414,-6.3329,1.28184,0.03052,-0.659361105,0.731870685,-0.11303682
1764434036.7282414,-6.3329,1.28184,0.03052,-0.659361105,0.731870685,-0.11303682
1764434036.7721026,-6.3329,1.28184,0.03052,-0.659361105,0.731870685,-0.11303682
1764434036.7721026,-6.3329,1.28184,0.03052,-0.659361105,0.731870685,-0.11303682
1764434036.7721026,-6.3329,1.28184,0.03052,-0.659361105,0.731870685,-0.11303682
1764434036.7721026,-6.3329,1.28184,0.03052,-0.659361105,0.731870685,-0.11303682
1764434036.7721026,-6.31764,1.25132,0.3815,-0.65942214,0.73242,-0.11291475
1764434036.7721026,-6.31764,1.25132,0.3815,-0.65942214,0.73242,-0.11291475
1764434036.7721026,-6.31764,1.25132,0.3815,-0.65942214,0.73242,-0.11291475
1764434036.7721026,-6.31764,1.25132,0.3815,-0.65942214,0.73242,-0.11291475
1764434036.7721026,-6.31764,1.25132,0.3815,-0.65942214,0.73242,-0.11291475
1764434036.7721026,-6.31764,1.25132,0.3815,-0.65942214,0.73242,-0.11291475
1764434036.7721026,-6.31764,1.25132,0.3815,-0.65942214,0.73242,-0.11291475
1764434036.7721026,-6.31764,1.25132,0.3815,-0.65942214,0.73242,-0.11291475
1764434036.7721026,-6.31764,1.25132,0.3815,-0.65942214,0.73242,-0.11291475
1764434036.7721026,-6.31764,1.25132,0.3815,-0.65942214,0.73242,-0.11291475
1764434036.7721026,-6.2566,1.2971,0.3509799999999999,-0.65978835,0.731870685,-0.11218233
1764434036.7721026,-6.2566,1.2971,0.3509799999999999,-0.65978835,0.731870685,-0.11218233
1764434036.7721026,-6.2566,1.2971,0.3509799999999999,-0.65978835,0.731870685,-0.11218233
1764434036.7721026,-6.2566,1.2971,0.3509799999999999,-0.65978835,0.731870685,-0.11218233
1764434036.7721026,-6.2566,1.2971,0.3509799999999999,-0.65978835,0.731870685,-0.11218233
1764434036.7721026,-6.2566,1.2971,0.3509799999999999,-0.65978835,0.731870685,-0.11218233
1764434036.7721026,-6.2566,1.2971,0.3509799999999999,-0.65978835,0.731870685,-0.11218233
1764434036.7721026,-6.2566,1.2971,0.3509799999999999,-0.65978835,0.731870685,-0.11218233
1764434036.7721026,-6.2566,1.2971,0.3509799999999999,-0.65978835,0.731870685,-0.11218233
1764434036.7721026,-6.2566,1.2971,0.3509799999999999,-0.65978835,0.731870685,-0.11218233
1764434036.816042,-5.8751,1.26658,0.50358,-0.660215595,0.73229793,-0.111877155
1764434036.816042,-5.8751,1.26658,0.50358,-0.660215595,0.73229793,-0.111877155
1764434036.816042,-5.8751,1.26658,0.50358,-0.660215595,0.73229793,-0.111877155
1764434036.816042,-5.8751,1.26658,0.50358,-0.660215595,0.73229793,-0.111877155
1764434036.816042,-5.8751,1.26658,0.50358,-0.660215595,0.73229793,-0.111877155
1764434036.816042,-5.8751,1.26658,0.50358,-0.660215595,0.73229793,-0.111877155
1764434036.816042,-5.8751,1.26658,0.50358,-0.660215595,0.73229793,-0.111877155
1764434036.816042,-5.8751,1.26658,0.50358,-0.660215595,0.73229793,-0.111877155
1764434036.816042,-5.8751,1.26658,0.50358,-0.660215595,0.73229793,-0.111877155
1764434036.8170743,-5.8751,1.26658,0.50358,-0.660215595,0.73229793,-0.111877155
1764434036.8170743,-5.508859999999999,1.2971,0.27468,-0.659971455,0.731504475,-0.111633015
1764434036.8170743,-5.508859999999999,1.2971,0.27468,-0.659971455,0.731504475,-0.111633015
1764434036.8170743,-5.508859999999999,1.2971,0.27468,-0.659971455,0.731504475,-0.111633015
1764434036.8170743,-5.508859999999999,1.2971,0.27468,-0.659971455,0.731504475,-0.111633015
1764434036.8170743,-5.508859999999999,1.2971,0.27468,-0.659971455,0.731504475,-0.111633015
1764434036.8170743,-5.508859999999999,1.2971,0.27468,-0.659971455,0.731504475,-0.111633015
1764434036.8170743,-5.508859999999999,1.2971,0.27468,-0.659971455,0.731504475,-0.111633015
1764434036.8170743,-5.508859999999999,1.2971,0.27468,-0.659971455,0.731504475,-0.111633015
1764434036.8170743,-5.508859999999999,1.2971,0.27468,-0.659971455,0.731504475,-0.111633015
1764434036.8170743,-5.508859999999999,1.2971,0.27468,-0.659971455,0.731504475,-0.111633015
1764434036.8170743,-5.31048,1.6633399999999998,0.65618,-0.660093525,0.7319317200000001,-0.111144735
1764434036.8170743,-5.31048,1.6633399999999998,0.65618,-0.660093525,0.7319317200000001,-0.111144735
1764434036.8654182,-5.31048,1.6633399999999998,0.65618,-0.660093525,0.7319317200000001,-0.111144735
1764434036.8664374,-5.31048,1.6633399999999998,0.65618,-0.660093525,0.7319317200000001,-0.111144735
1764434036.8664374,-5.31048,1.6633399999999998,0.65618,-0.660093525,0.7319317200000001,-0.111144735
1764434036.8664374,-5.31048,1.6633399999999998,0.65618,-0.660093525,0.7319317200000001,-0.111144735
1764434036.8664374,-5.31048,1.6633399999999998,0.65618,-0.660093525,0.7319317200000001,-0.111144735
1764434036.8674145,-5.31048,1.6633399999999998,0.65618,-0.660093525,0.7319317200000001,-0.111144735
1764434036.8674145,-5.31048,1.6633399999999998,0.65618,-0.660093525,0.7319317200000001,-0.111144735
1764434036.8674145,-5.31048,1.6633399999999998,0.65618,-0.660093525,0.7319317200000001,-0.111144735
1764434036.8682525,-5.52412,1.526,0.19838,-0.659849385,0.7319317200000001,-0.111755085
1764434036.8682525,-5.52412,1.526,0.19838,-0.659849385,0.7319317200000001,-0.111755085
1764434036.8682525,-5.52412,1.526,0.19838,-0.659849385,0.7319317200000001,-0.111755085
1764434036.8682525,-5.52412,1.526,0.19838,-0.659849385,0.7319317200000001,-0.111755085
1764434036.8682525,-5.52412,1.526,0.19838,-0.659849385,0.7319317200000001,-0.111755085
1764434036.8682525,-5.52412,1.526,0.19838,-0.659849385,0.7319317200000001,-0.111755085
1764434036.8682525,-5.52412,1.526,0.19838,-0.659849385,0.7319317200000001,-0.111755085
1764434036.8682525,-5.52412,1.526,0.19838,-0.659849385,0.7319317200000001,-0.111755085
1764434036.8694143,-5.52412,1.526,0.19838,-0.659849385,0.7319317200000001,-0.111755085
1764434036.8694143,-5.52412,1.526,0.19838,-0.659849385,0.7319317200000001,-0.111755085
1764434036.8694143,-5.58516,1.2971,0.21364,-0.660093525,0.731626545,-0.111633015
1764434036.8694143,-5.58516,1.2971,0.21364,-0.660093525,0.731626545,-0.111633015
1764434036.8694143,-5.58516,1.2971,0.21364,-0.660093525,0.731626545,-0.111633015
1764434036.8694143,-5.58516,1.2971,0.21364,-0.660093525,0.731626545,-0.111633015
1764434036.9107196,-5.58516,1.2971,0.21364,-0.660093525,0.731626545,-0.111633015
1764434036.9107196,-5.58516,1.2971,0.21364,-0.660093525,0.731626545,-0.111633015
1764434036.9107196,-5.58516,1.2971,0.21364,-0.660093525,0.731626545,-0.111633015
1764434036.9107196,-5.58516,1.2971,0.21364,-0.660093525,0.731626545,-0.111633015
1764434036.9107196,-5.58516,1.2971,0.21364,-0.660093525,0.731626545,-0.111633015
1764434036.9107196,-5.58516,1.2971,0.21364,-0.660093525,0.731626545,-0.111633015
1764434036.9107196,-5.76828,1.32762,0.1678599999999999,-0.66052077,0.731870685,-0.111388875
1764434036.9107196,-5.76828,1.32762,0.1678599999999999,-0.66052077,0.731870685,-0.111388875
1764434036.9107196,-5.76828,1.32762,0.1678599999999999,-0.66052077,0.731870685,-0.111388875
1764434036.9107196,-5.76828,1.32762,0.1678599999999999,-0.66052077,0.731870685,-0.111388875
1764434036.9107196,-5.76828,1.32762,0.1678599999999999,-0.66052077,0.731870685,-0.111388875
1764434036.9107196,-5.76828,1.32762,0.1678599999999999,-0.66052077,0.731870685,-0.111388875
1764434036.9107196,-5.76828,1.32762,0.1678599999999999,-0.66052077,0.731870685,-0.111388875
1764434036.9107196,-5.76828,1.32762,0.1678599999999999,-0.66052077,0.731870685,-0.111388875
1764434036.9107196,-5.76828,1.32762,0.1678599999999999,-0.66052077,0.731870685,-0.111388875
1764434036.9107196,-5.76828,1.32762,0.1678599999999999,-0.66052077,0.731870685,-0.111388875
1764434036.9107196,-5.85984,1.35814,0.27468,-0.659727315,0.7319317200000001,-0.11083956
1764434036.9107196,-5.85984,1.35814,0.27468,-0.659727315,0.7319317200000001,-0.11083956
1764434036.9107196,-5.85984,1.35814,0.27468,-0.659727315,0.7319317200000001,-0.11083956
1764434036.9107196,-5.85984,1.35814,0.27468,-0.659727315,0.7319317200000001,-0.11083956
1764434036.9107196,-5.85984,1.35814,0.27468,-0.659727315,0.7319317200000001,-0.11083956
1764434036.9107196,-5.85984,1.35814,0.27468,-0.659727315,0.7319317200000001,-0.11083956
1764434036.9107196,-5.85984,1.35814,0.27468,-0.659727315,0.7319317200000001,-0.11083956
1764434036.9107196,-5.85984,1.35814,0.27468,-0.659727315,0.7319317200000001,-0.11083956
1764434036.9558551,-5.85984,1.35814,0.27468,-0.659727315,0.7319317200000001,-0.11083956
1764434036.9558551,-5.85984,1.35814,0.27468,-0.659727315,0.7319317200000001,-0.11083956
1764434036.9564238,-5.4173,1.46496,0.62566,-0.65978835,0.731748615,-0.11035128
1764434036.9564238,-5.4173,1.46496,0.62566,-0.65978835,0.731748615,-0.11035128
1764434036.9564238,-5.4173,1.46496,0.62566,-0.65978835,0.731748615,-0.11035128
1764434036.9564238,-5.4173,1.46496,0.62566,-0.65978835,0.731748615,-0.11035128
1764434036.9564238,-5.4173,1.46496,0.62566,-0.65978835,0.731748615,-0.11035128
1764434036.9564238,-5.4173,1.46496,0.62566,-0.65978835,0.731748615,-0.11035128
1764434036.9564238,-5.4173,1.46496,0.62566,-0.65978835,0.731748615,-0.11035128
1764434036.9564238,-5.4173,1.46496,0.62566,-0.65978835,0.731748615,-0.11035128
1764434036.9564238,-5.4173,1.46496,0.62566,-0.65978835,0.731748615,-0.11035128
1764434036.9564238,-5.4173,1.46496,0.62566,-0.65978835,0.731748615,-0.11035128
1764434036.9564238,-5.9514,1.51074,0.5341,-0.658994895,0.73242,-0.11157198
1764434036.9564238,-5.9514,1.51074,0.5341,-0.658994895,0.73242,-0.11157198
1764434036.9564238,-5.9514,1.51074,0.5341,-0.658994895,0.73242,-0.11157198
1764434036.9564238,-5.9514,1.51074,0.5341,-0.658994895,0.73242,-0.11157198
1764434036.9564238,-5.9514,1.51074,0.5341,-0.658994895,0.73242,-0.11157198
1764434036.9564238,-5.9514,1.51074,0.5341,-0.658994895,0.73242,-0.11157198
1764434036.9564238,-5.9514,1.51074,0.5341,-0.658994895,0.73242,-0.11157198
1764434036.9564238,-5.9514,1.51074,0.5341,-0.658994895,0.73242,-0.11157198
1764434036.9574597,-5.9514,1.51074,0.5341,-0.658994895,0.73242,-0.11157198
1764434036.9574597,-5.9514,1.51074,0.5341,-0.658994895,0.73242,-0.11157198
1764434036.9574597,-6.1803,1.43444,0.28994,-0.65905593,0.73303035,-0.11083956
1764434036.9574597,-6.1803,1.43444,0.28994,-0.65905593,0.73303035,-0.11083956
1764434037.0009756,-6.1803,1.43444,0.28994,-0.65905593,0.73303035,-0.11083956
1764434037.0009756,-6.1803,1.43444,0.28994,-0.65905593,0.73303035,-0.11083956
1764434037.0009756,-6.1803,1.43444,0.28994,-0.65905593,0.73303035,-0.11083956
1764434037.0009756,-6.1803,1.43444,0.28994,-0.65905593,0.73303035,-0.11083956
1764434037.0009756,-6.1803,1.43444,0.28994,-0.65905593,0.73303035,-0.11083956
1764434037.0009756,-6.1803,1.43444,0.28994,-0.65905593,0.73303035,-0.11083956
1764434037.0009756,-6.1803,1.43444,0.28994,-0.65905593,0.73303035,-0.11083956
1764434037.0009756,-6.1803,1.43444,0.28994,-0.65905593,0.73303035,-0.11083956
1764434037.0009756,-5.890359999999999,1.25132,-0.06104,-0.65844558,0.73290828,-0.111022665
1764434037.0020237,-5.890359999999999,1.25132,-0.06104,-0.65844558,0.73290828,-0.111022665
1764434037.0020237,-5.890359999999999,1.25132,-0.06104,-0.65844558,0.73290828,-0.111022665
1764434037.0020237,-5.890359999999999,1.25132,-0.06104,-0.65844558,0.73290828,-0.111022665
1764434037.0020237,-5.890359999999999,1.25132,-0.06104,-0.65844558,0.73290828,-0.111022665
1764434037.0020237,-5.890359999999999,1.25132,-0.06104,-0.65844558,0.73290828,-0.111022665
1764434037.0035412,-5.890359999999999,1.25132,-0.06104,-0.65844558,0.73290828,-0.111022665
1764434037.0035412,-5.890359999999999,1.25132,-0.06104,-0.65844558,0.73290828,-0.111022665
1764434037.0035412,-5.890359999999999,1.25132,-0.06104,-0.65844558,0.73290828,-0.111022665
1764434037.0035412,-5.890359999999999,1.25132,-0.06104,-0.65844558,0.73290828,-0.111022665
1764434037.0035412,-5.7225,1.00716,0.06104,-0.65832351,0.7329693150000001,-0.110656455
1764434037.0035412,-5.7225,1.00716,0.06104,-0.65832351,0.7329693150000001,-0.110656455
1764434037.0504742,-5.7225,1.00716,0.06104,-0.65832351,0.7329693150000001,-0.110656455
1764434037.0504742,-5.7225,1.00716,0.06104,-0.65832351,0.7329693150000001,-0.110656455
1764434037.0504742,-5.7225,1.00716,0.06104,-0.65832351,0.7329693150000001,-0.110656455
1764434037.0504742,-5.7225,1.00716,0.06104,-0.65832351,0.7329693150000001,-0.110656455
1764434037.0504742,-5.7225,1.00716,0.06104,-0.65832351,0.7329693150000001,-0.110656455
1764434037.0504742,-5.7225,1.00716,0.06104,-0.65832351,0.7329693150000001,-0.110656455
1764434037.0504742,-5.7225,1.00716,0.06104,-0.65832351,0.7329693150000001,-0.110656455
1764434037.0504742,-5.7225,1.00716,0.06104,-0.65832351,0.7329693150000001,-0.110656455
1764434037.0504742,-6.653359999999999,0.97664,0.0,-0.65905593,0.73217586,-0.11035128
1764434037.0504742,-6.653359999999999,0.97664,0.0,-0.65905593,0.73217586,-0.11035128
1764434037.0504742,-6.653359999999999,0.97664,0.0,-0.65905593,0.73217586,-0.11035128
1764434037.0504742,-6.653359999999999,0.97664,0.0,-0.65905593,0.73217586,-0.11035128
1764434037.0515108,-6.653359999999999,0.97664,0.0,-0.65905593,0.73217586,-0.11035128
1764434037.0515108,-6.653359999999999,0.97664,0.0,-0.65905593,0.73217586,-0.11035128
1764434037.0515108,-6.653359999999999,0.97664,0.0,-0.65905593,0.73217586,-0.11035128
1764434037.0515108,-6.653359999999999,0.97664,0.0,-0.65905593,0.73217586,-0.11035128
1764434037.0515108,-6.653359999999999,0.97664,0.0,-0.65905593,0.73217586,-0.11035128
1764434037.0515108,-6.653359999999999,0.97664,0.0,-0.65905593,0.73217586,-0.11035128
1764434037.0515108,-6.01244,1.46496,-0.10682,-0.66003249,0.73205379,-0.109801965
1764434037.0515108,-6.01244,1.46496,-0.10682,-0.66003249,0.73205379,-0.109801965
1764434037.0515108,-6.01244,1.46496,-0.10682,-0.66003249,0.73205379,-0.109801965
1764434037.0515108,-6.01244,1.46496,-0.10682,-0.66003249,0.73205379,-0.109801965
1764434037.0515108,-6.01244,1.46496,-0.10682,-0.66003249,0.73205379,-0.109801965
1764434037.0515108,-6.01244,1.46496,-0.10682,-0.66003249,0.73205379,-0.109801965
1764434037.0515108,-6.01244,1.46496,-0.10682,-0.66003249,0.73205379,-0.109801965
1764434037.0515108,-6.01244,1.46496,-0.10682,-0.66003249,0.73205379,-0.109801965
1764434037.0976243,-6.01244,1.46496,-0.10682,-0.66003249,0.73205379,-0.109801965
1764434037.098632,-6.01244,1.46496,-0.10682,-0.66003249,0.73205379,-0.109801965
1764434037.098632,-5.753019999999999,1.26658,0.27468,-0.659849385,0.731992755,-0.109191615
1764434037.098632,-5.753019999999999,1.26658,0.27468,-0.659849385,0.731992755,-0.109191615
1764434037.098632,-5.753019999999999,1.26658,0.27468,-0.659849385,0.731992755,-0.109191615
1764434037.098632,-5.753019999999999,1.26658,0.27468,-0.659849385,0.731992755,-0.109191615
1764434037.098632,-5.753019999999999,1.26658,0.27468,-0.659849385,0.731992755,-0.109191615
1764434037.098632,-5.753019999999999,1.26658,0.27468,-0.659849385,0.731992755,-0.109191615
1764434037.098632,-5.753019999999999,1.26658,0.27468,-0.659849385,0.731992755,-0.109191615
1764434037.098632,-5.753019999999999,1.26658,0.27468,-0.659849385,0.731992755,-0.109191615
1764434037.098632,-5.753019999999999,1.26658,0.27468,-0.659849385,0.731992755,-0.109191615
1764434037.098632,-5.753019999999999,1.26658,0.27468,-0.659849385,0.731992755,-0.109191615
1764434037.098632,-5.890359999999999,1.1445,0.21364,-0.660703875,0.73168758,-0.109191615
1764434037.098632,-5.890359999999999,1.1445,0.21364,-0.660703875,0.73168758,-0.109191615
1764434037.098632,-5.890359999999999,1.1445,0.21364,-0.660703875,0.73168758,-0.109191615
1764434037.098632,-5.890359999999999,1.1445,0.21364,-0.660703875,0.73168758,-0.109191615
1764434037.098632,-5.890359999999999,1.1445,0.21364,-0.660703875,0.73168758,-0.109191615
1764434037.098632,-5.890359999999999,1.1445,0.21364,-0.660703875,0.73168758,-0.109191615
1764434037.098632,-5.890359999999999,1.1445,0.21364,-0.660703875,0.73168758,-0.109191615
1764434037.098632,-5.890359999999999,1.1445,0.21364,-0.660703875,0.73168758,-0.109191615
1764434037.098632,-5.890359999999999,1.1445,0.21364,-0.660703875,0.73168758,-0.109191615
1764434037.098632,-5.890359999999999,1.1445,0.21364,-0.660703875,0.73168758,-0.109191615
1764434037.1439834,-5.8751,1.57178,0.25942,-0.6606428400000001,0.73180965,-0.10852023
1764434037.1439834,-5.8751,1.57178,0.25942,-0.6606428400000001,0.73180965,-0.10852023
1764434037.1439834,-5.8751,1.57178,0.25942,-0.6606428400000001,0.73180965,-0.10852023
1764434037.1439834,-5.8751,1.57178,0.25942,-0.6606428400000001,0.73180965,-0.10852023
1764434037.1439834,-5.8751,1.57178,0.25942,-0.6606428400000001,0.73180965,-0.10852023
1764434037.1439834,-5.8751,1.57178,0.25942,-0.6606428400000001,0.73180965,-0.10852023
1764434037.1439834,-5.8751,1.57178,0.25942,-0.6606428400000001,0.73180965,-0.10852023
1764434037.1439834,-5.8751,1.57178,0.25942,-0.6606428400000001,0.73180965,-0.10852023
1764434037.1439834,-5.8751,1.57178,0.25942,-0.6606428400000001,0.73180965,-0.10852023
1764434037.1439834,-5.8751,1.57178,0.25942,-0.6606428400000001,0.73180965,-0.10852023
1764434037.1439834,-6.04296,1.2208,0.18312,-0.660337665,0.731260335,-0.10790988
1764434037.1439834,-6.04296,1.2208,0.18312,-0.660337665,0.731260335,-0.10790988
1764434037.1439834,-6.04296,1.2208,0.18312,-0.660337665,0.731260335,-0.10790988
1764434037.1439834,-6.04296,1.2208,0.18312,-0.660337665,0.731260335,-0.10790988
1764434037.1439834,-6.04296,1.2208,0.18312,-0.660337665,0.731260335,-0.10790988
1764434037.1439834,-6.04296,1.2208,0.18312,-0.660337665,0.731260335,-0.10790988
1764434037.1439834,-6.04296,1.2208,0.18312,-0.660337665,0.731260335,-0.10790988
1764434037.1439834,-6.04296,1.2208,0.18312,-0.660337665,0.731260335,-0.10790988
1764434037.1450222,-6.04296,1.2208,0.18312,-0.660337665,0.731260335,-0.10790988
1764434037.1450222,-6.04296,1.2208,0.18312,-0.660337665,0.731260335,-0.10790988
1764434037.1450222,-5.84458,1.2971,0.3051999999999999,-0.659971455,0.731626545,-0.107482635
1764434037.1450222,-5.84458,1.2971,0.3051999999999999,-0.659971455,0.731626545,-0.107482635
1764434037.1469264,-5.84458,1.2971,0.3051999999999999,-0.659971455,0.731626545,-0.107482635
1764434037.1469264,-5.84458,1.2971,0.3051999999999999,-0.659971455,0.731626545,-0.107482635
1764434037.186948,-5.84458,1.2971,0.3051999999999999,-0.659971455,0.731626545,-0.107482635
1764434037.186948,-5.84458,1.2971,0.3051999999999999,-0.659971455,0.731626545,-0.107482635
1764434037.186948,-5.84458,1.2971,0.3051999999999999,-0.659971455,0.731626545,-0.107482635
1764434037.186948,-5.84458,1.2971,0.3051999999999999,-0.659971455,0.731626545,-0.107482635
1764434037.186948,-5.84458,1.2971,0.3051999999999999,-0.659971455,0.731626545,-0.107482635
1764434037.186948,-5.84458,1.2971,0.3051999999999999,-0.659971455,0.731626545,-0.107482635
1764434037.186948,-5.40204,1.4039199999999998,-0.06104,-0.660215595,0.731626545,-0.107604705
1764434037.186948,-5.40204,1.4039199999999998,-0.06104,-0.660215595,0.731626545,-0.107604705
1764434037.187986,-5.40204,1.4039199999999998,-0.06104,-0.660215595,0.731626545,-0.107604705
1764434037.187986,-5.40204,1.4039199999999998,-0.06104,-0.660215595,0.731626545,-0.107604705
1764434037.187986,-5.40204,1.4039199999999998,-0.06104,-0.660215595,0.731626545,-0.107604705
1764434037.187986,-5.40204,1.4039199999999998,-0.06104,-0.660215595,0.731626545,-0.107604705
1764434037.187986,-5.40204,1.4039199999999998,-0.06104,-0.660215595,0.731626545,-0.107604705
1764434037.187986,-5.40204,1.4039199999999998,-0.06104,-0.660215595,0.731626545,-0.107604705
1764434037.187986,-5.40204,1.4039199999999998,-0.06104,-0.660215595,0.731626545,-0.107604705
1764434037.187986,-5.40204,1.4039199999999998,-0.06104,-0.660215595,0.731626545,-0.107604705
1764434037.1889863,-5.27996,1.2055399999999998,0.3357199999999999,-0.660948015,0.732358965,-0.107726775
1764434037.1889863,-5.27996,1.2055399999999998,0.3357199999999999,-0.660948015,0.732358965,-0.107726775
1764434037.1889863,-5.27996,1.2055399999999998,0.3357199999999999,-0.660948015,0.732358965,-0.107726775
1764434037.1889863,-5.27996,1.2055399999999998,0.3357199999999999,-0.660948015,0.732358965,-0.107726775
1764434037.1889863,-5.27996,1.2055399999999998,0.3357199999999999,-0.660948015,0.732358965,-0.107726775
1764434037.1889863,-5.27996,1.2055399999999998,0.3357199999999999,-0.660948015,0.732358965,-0.107726775
1764434037.2382371,-5.27996,1.2055399999999998,0.3357199999999999,-0.660948015,0.732358965,-0.107726775
1764434037.2382371,-5.27996,1.2055399999999998,0.3357199999999999,-0.660948015,0.732358965,-0.107726775
1764434037.2382371,-5.27996,1.2055399999999998,0.3357199999999999,-0.660948015,0.732358965,-0.107726775
1764434037.2382371,-5.27996,1.2055399999999998,0.3357199999999999,-0.660948015,0.732358965,-0.107726775
1764434037.2382371,-5.478339999999999,1.6786,0.51884,-0.6601545600000001,0.73303035,-0.10790988
1764434037.2382371,-5.478339999999999,1.6786,0.51884,-0.6601545600000001,0.73303035,-0.10790988
1764434037.2382371,-5.478339999999999,1.6786,0.51884,-0.6601545600000001,0.73303035,-0.10790988
1764434037.2382371,-5.478339999999999,1.6786,0.51884,-0.6601545600000001,0.73303035,-0.10790988
1764434037.2382371,-5.478339999999999,1.6786,0.51884,-0.6601545600000001,0.73303035,-0.10790988
1764434037.2382371,-5.478339999999999,1.6786,0.51884,-0.6601545600000001,0.73303035,-0.10790988
1764434037.2382371,-5.478339999999999,1.6786,0.51884,-0.6601545600000001,0.73303035,-0.10790988
1764434037.2382371,-5.478339999999999,1.6786,0.51884,-0.6601545600000001,0.73303035,-0.10790988
1764434037.2382371,-5.478339999999999,1.6786,0.51884,-0.6601545600000001,0.73303035,-0.10790988
1764434037.2382371,-5.478339999999999,1.6786,0.51884,-0.6601545600000001,0.73303035,-0.10790988
1764434037.2382371,-5.38678,1.48022,0.3051999999999999,-0.66003249,0.732603105,-0.107604705
1764434037.2382371,-5.38678,1.48022,0.3051999999999999,-0.66003249,0.732603105,-0.107604705
1764434037.2382371,-5.38678,1.48022,0.3051999999999999,-0.66003249,0.732603105,-0.107604705
1764434037.2382371,-5.38678,1.48022,0.3051999999999999,-0.66003249,0.732603105,-0.107604705
1764434037.2382371,-5.38678,1.48022,0.3051999999999999,-0.66003249,0.732603105,-0.107604705
1764434037.2382371,-5.38678,1.48022,0.3051999999999999,-0.66003249,0.732603105,-0.107604705
1764434037.2392354,-5.38678,1.48022,0.3051999999999999,-0.66003249,0.732603105,-0.107604705
1764434037.2392354,-5.38678,1.48022,0.3051999999999999,-0.66003249,0.732603105,-0.107604705
1764434037.2392354,-5.38678,1.48022,0.3051999999999999,-0.66003249,0.732603105,-0.107604705
1764434037.2392354,-5.38678,1.48022,0.3051999999999999,-0.66003249,0.732603105,-0.107604705
1764434037.2808514,-5.24944,1.55652,0.21364,-0.659483175,0.73278621,-0.107482635
1764434037.281882,-5.24944,1.55652,0.21364,-0.659483175,0.73278621,-0.107482635
1764434037.281882,-5.24944,1.55652,0.21364,-0.659483175,0.73278621,-0.107482635
1764434037.281882,-5.24944,1.55652,0.21364,-0.659483175,0.73278621,-0.107482635
1764434037.281882,-5.24944,1.55652,0.21364,-0.659483175,0.73278621,-0.107482635
1764434037.282921,-5.24944,1.55652,0.21364,-0.659483175,0.73278621,-0.107482635
1764434037.282921,-5.24944,1.55652,0.21364,-0.659483175,0.73278621,-0.107482635
1764434037.282921,-5.24944,1.55652,0.21364,-0.659483175,0.73278621,-0.107482635
1764434037.282921,-5.24944,1.55652,0.21364,-0.659483175,0.73278621,-0.107482635
1764434037.282921,-5.24944,1.55652,0.21364,-0.659483175,0.73278621,-0.107482635
1764434037.2839203,-5.55464,1.38866,0.36624,-0.658994895,0.732847245,-0.10790988
1764434037.2839203,-5.55464,1.38866,0.36624,-0.658994895,0.732847245,-0.10790988
1764434037.2839203,-5.55464,1.38866,0.36624,-0.658994895,0.732847245,-0.10790988
1764434037.2839203,-5.55464,1.38866,0.36624,-0.658994895,0.732847245,-0.10790988
1764434037.284434,-5.55464,1.38866,0.36624,-0.658994895,0.732847245,-0.10790988
1764434037.284434,-5.55464,1.38866,0.36624,-0.658994895,0.732847245,-0.10790988
1764434037.284434,-5.55464,1.38866,0.36624,-0.658994895,0.732847245,-0.10790988
1764434037.284434,-5.55464,1.38866,0.36624,-0.658994895,0.732847245,-0.10790988
1764434037.284434,-5.55464,1.38866,0.36624,-0.658994895,0.732847245,-0.10790988
1764434037.284434,-5.55464,1.38866,0.36624,-0.658994895,0.732847245,-0.10790988
1764434037.284434,-5.63094,1.0682,0.04578,-0.6596052450000001,0.73242,-0.107604705
1764434037.284434,-5.63094,1.0682,0.04578,-0.6596052450000001,0.73242,-0.107604705
1764434037.326052,-5.63094,1.0682,0.04578,-0.6596052450000001,0.73242,-0.107604705
1764434037.326052,-5.63094,1.0682,0.04578,-0.6596052450000001,0.73242,-0.107604705
1764434037.326052,-5.63094,1.0682,0.04578,-0.6596052450000001,0.73242,-0.107604705
1764434037.326052,-5.63094,1.0682,0.04578,-0.6596052450000001,0.73242,-0.107604705
1764434037.326052,-5.63094,1.0682,0.04578,-0.6596052450000001,0.73242,-0.107604705
1764434037.326052,-5.63094,1.0682,0.04578,-0.6596052450000001,0.73242,-0.107604705
1764434037.326052,-5.63094,1.0682,0.04578,-0.6596052450000001,0.73242,-0.107604705
1764434037.326052,-5.63094,1.0682,0.04578,-0.6596052450000001,0.73242,-0.107604705
1764434037.326052,-5.15788,1.49548,0.1525999999999999,-0.6606428400000001,0.732114825,-0.10717746
1764434037.326052,-5.15788,1.49548,0.1525999999999999,-0.6606428400000001,0.732114825,-0.10717746
1764434037.326052,-5.15788,1.49548,0.1525999999999999,-0.6606428400000001,0.732114825,-0.10717746
1764434037.327602,-5.15788,1.49548,0.1525999999999999,-0.6606428400000001,0.732114825,-0.10717746
1764434037.327602,-5.15788,1.49548,0.1525999999999999,-0.6606428400000001,0.732114825,-0.10717746
1764434037.327602,-5.15788,1.49548,0.1525999999999999,-0.6606428400000001,0.732114825,-0.10717746
1764434037.327602,-5.15788,1.49548,0.1525999999999999,-0.6606428400000001,0.732114825,-0.10717746
1764434037.327602,-5.15788,1.49548,0.1525999999999999,-0.6606428400000001,0.732114825,-0.10717746
1764434037.327602,-5.15788,1.49548,0.1525999999999999,-0.6606428400000001,0.732114825,-0.10717746
1764434037.327602,-5.15788,1.49548,0.1525999999999999,-0.6606428400000001,0.732114825,-0.10717746
1764434037.327602,-4.39488,1.19028,0.13734,-0.66113112,0.73254207,-0.10717746
1764434037.327602,-4.39488,1.19028,0.13734,-0.66113112,0.73254207,-0.10717746
1764434037.328169,-4.39488,1.19028,0.13734,-0.66113112,0.73254207,-0.10717746
1764434037.328169,-4.39488,1.19028,0.13734,-0.66113112,0.73254207,-0.10717746
1764434037.328169,-4.39488,1.19028,0.13734,-0.66113112,0.73254207,-0.10717746
1764434037.328169,-4.39488,1.19028,0.13734,-0.66113112,0.73254207,-0.10717746
1764434037.3731213,-4.39488,1.19028,0.13734,-0.66113112,0.73254207,-0.10717746
1764434037.3736334,-4.39488,1.19028,0.13734,-0.66113112,0.73254207,-0.10717746
1764434037.3736334,-4.39488,1.19028,0.13734,-0.66113112,0.73254207,-0.10717746
1764434037.3736334,-4.39488,1.19028,0.13734,-0.66113112,0.73254207,-0.10717746
1764434037.3736334,-4.70008,1.0682,0.0,-0.66113112,0.73242,-0.10681125
1764434037.3736334,-4.70008,1.0682,0.0,-0.66113112,0.73242,-0.10681125
1764434037.3741398,-4.70008,1.0682,0.0,-0.66113112,0.73242,-0.10681125
1764434037.3741398,-4.70008,1.0682,0.0,-0.66113112,0.73242,-0.10681125
1764434037.3741398,-4.70008,1.0682,0.0,-0.66113112,0.73242,-0.10681125
1764434037.3741398,-4.70008,1.0682,0.0,-0.66113112,0.73242,-0.10681125
1764434037.3741398,-4.70008,1.0682,0.0,-0.66113112,0.73242,-0.10681125
1764434037.3741398,-4.70008,1.0682,0.0,-0.66113112,0.73242,-0.10681125
1764434037.3741398,-4.70008,1.0682,0.0,-0.66113112,0.73242,-0.10681125
1764434037.3741398,-4.70008,1.0682,0.0,-0.66113112,0.73242,-0.10681125
1764434037.3747032,-4.63904,0.8392999999999999,0.3204599999999999,-0.660459735,0.7324810350000001,-0.106384005
1764434037.3757484,-4.63904,0.8392999999999999,0.3204599999999999,-0.660459735,0.7324810350000001,-0.106384005
1764434037.3757484,-4.63904,0.8392999999999999,0.3204599999999999,-0.660459735,0.7324810350000001,-0.106384005
1764434037.3757484,-4.63904,0.8392999999999999,0.3204599999999999,-0.660459735,0.7324810350000001,-0.106384005
1764434037.3757484,-4.63904,0.8392999999999999,0.3204599999999999,-0.660459735,0.7324810350000001,-0.106384005
1764434037.3757484,-4.63904,0.8392999999999999,0.3204599999999999,-0.660459735,0.7324810350000001,-0.106384005
1764434037.3757484,-4.63904,0.8392999999999999,0.3204599999999999,-0.660459735,0.7324810350000001,-0.106384005
1764434037.3757484,-4.63904,0.8392999999999999,0.3204599999999999,-0.660459735,0.7324810350000001,-0.106384005
1764434037.3757484,-4.63904,0.8392999999999999,0.3204599999999999,-0.660459735,0.7324810350000001,-0.106384005
1764434037.3757484,-4.63904,0.8392999999999999,0.3204599999999999,-0.660459735,0.7324810350000001,-0.106384005
1764434037.4201162,-4.86794,1.23606,0.3204599999999999,-0.66052077,0.732236895,-0.106750215
1764434037.4201162,-4.86794,1.23606,0.3204599999999999,-0.66052077,0.732236895,-0.106750215
1764434037.4201162,-4.86794,1.23606,0.3204599999999999,-0.66052077,0.732236895,-0.106750215
1764434037.4201162,-4.86794,1.23606,0.3204599999999999,-0.66052077,0.732236895,-0.106750215
1764434037.4201162,-4.86794,1.23606,0.3204599999999999,-0.66052077,0.732236895,-0.106750215
1764434037.4201162,-4.86794,1.23606,0.3204599999999999,-0.66052077,0.732236895,-0.106750215
1764434037.4201162,-4.86794,1.23606,0.3204599999999999,-0.66052077,0.732236895,-0.106750215
1764434037.4201162,-4.86794,1.23606,0.3204599999999999,-0.66052077,0.732236895,-0.106750215
1764434037.4201162,-4.86794,1.23606,0.3204599999999999,-0.66052077,0.732236895,-0.106750215
1764434037.4201162,-4.86794,1.23606,0.3204599999999999,-0.66052077,0.732236895,-0.106750215
1764434037.4211566,-5.06632,1.08346,0.24416,-0.6606428400000001,0.732236895,-0.10693332
1764434037.4211566,-5.06632,1.08346,0.24416,-0.6606428400000001,0.732236895,-0.10693332
1764434037.4211566,-5.06632,1.08346,0.24416,-0.6606428400000001,0.732236895,-0.10693332
1764434037.4211566,-5.06632,1.08346,0.24416,-0.6606428400000001,0.732236895,-0.10693332
1764434037.4211566,-5.06632,1.08346,0.24416,-0.6606428400000001,0.732236895,-0.10693332
1764434037.4211566,-5.06632,1.08346,0.24416,-0.6606428400000001,0.732236895,-0.10693332
1764434037.4211566,-5.06632,1.08346,0.24416,-0.6606428400000001,0.732236895,-0.10693332
1764434037.4211566,-5.06632,1.08346,0.24416,-0.6606428400000001,0.732236895,-0.10693332
1764434037.4211566,-5.06632,1.08346,0.24416,-0.6606428400000001,0.732236895,-0.10693332
1764434037.4211566,-5.06632,1.08346,0.24416,-0.6606428400000001,0.732236895,-0.10693332
1764434037.4211566,-5.15788,1.32762,0.18312,-0.660948015,0.7319317200000001,-0.10607883
1764434037.4211566,-5.15788,1.32762,0.18312,-0.660948015,0.7319317200000001,-0.10607883
1764434037.4687026,-5.15788,1.32762,0.18312,-0.660948015,0.7319317200000001,-0.10607883
1764434037.4697523,-5.15788,1.32762,0.18312,-0.660948015,0.7319317200000001,-0.10607883
1764434037.4697523,-5.15788,1.32762,0.18312,-0.660948015,0.7319317200000001,-0.10607883
1764434037.4697523,-5.15788,1.32762,0.18312,-0.660948015,0.7319317200000001,-0.10607883
1764434037.4697523,-5.15788,1.32762,0.18312,-0.660948015,0.7319317200000001,-0.10607883
1764434037.4697523,-5.15788,1.32762,0.18312,-0.660948015,0.7319317200000001,-0.10607883
1764434037.4697523,-5.15788,1.32762,0.18312,-0.660948015,0.7319317200000001,-0.10607883
1764434037.4707425,-5.15788,1.32762,0.18312,-0.660948015,0.7319317200000001,-0.10607883
1764434037.4707425,-5.05106,1.12924,0.5341,-0.6603987,0.73229793,-0.106872285
1764434037.4707425,-5.05106,1.12924,0.5341,-0.6603987,0.73229793,-0.106872285
1764434037.4707425,-5.05106,1.12924,0.5341,-0.6603987,0.73229793,-0.106872285
1764434037.4707425,-5.05106,1.12924,0.5341,-0.6603987,0.73229793,-0.106872285
1764434037.4707425,-5.05106,1.12924,0.5341,-0.6603987,0.73229793,-0.106872285
1764434037.4707425,-5.05106,1.12924,0.5341,-0.6603987,0.73229793,-0.106872285
1764434037.4707425,-5.05106,1.12924,0.5341,-0.6603987,0.73229793,-0.106872285
1764434037.4717438,-5.05106,1.12924,0.5341,-0.6603987,0.73229793,-0.106872285
1764434037.4717438,-5.05106,1.12924,0.5341,-0.6603987,0.73229793,-0.106872285
1764434037.4717438,-5.05106,1.12924,0.5341,-0.6603987,0.73229793,-0.106872285
1764434037.4717438,-4.70008,1.1445,0.28994,-0.66052077,0.73254207,-0.106139865
1764434037.4717438,-4.70008,1.1445,0.28994,-0.66052077,0.73254207,-0.106139865
1764434037.4717438,-4.70008,1.1445,0.28994,-0.66052077,0.73254207,-0.106139865
1764434037.4717438,-4.70008,1.1445,0.28994,-0.66052077,0.73254207,-0.106139865
1764434037.4717438,-4.70008,1.1445,0.28994,-0.66052077,0.73254207,-0.106139865
1764434037.4717438,-4.70008,1.1445,0.28994,-0.66052077,0.73254207,-0.106139865
1764434037.514026,-4.70008,1.1445,0.28994,-0.66052077,0.73254207,-0.106139865
1764434037.514026,-4.70008,1.1445,0.28994,-0.66052077,0.73254207,-0.106139865
1764434037.514026,-4.70008,1.1445,0.28994,-0.66052077,0.73254207,-0.106139865
1764434037.514026,-4.70008,1.1445,0.28994,-0.66052077,0.73254207,-0.106139865
1764434037.514026,-4.76112,1.38866,0.18312,-0.66088698,0.73290828,-0.106384005
1764434037.514026,-4.76112,1.38866,0.18312,-0.66088698,0.73290828,-0.106384005
1764434037.514026,-4.76112,1.38866,0.18312,-0.66088698,0.73290828,-0.106384005
1764434037.514026,-4.76112,1.38866,0.18312,-0.66088698,0.73290828,-0.106384005
1764434037.514026,-4.76112,1.38866,0.18312,-0.66088698,0.73290828,-0.106384005
1764434037.514026,-4.76112,1.38866,0.18312,-0.66088698,0.73290828,-0.106384005
1764434037.514026,-4.76112,1.38866,0.18312,-0.66088698,0.73290828,-0.106384005
1764434037.514026,-4.76112,1.38866,0.18312,-0.66088698,0.73290828,-0.106384005
1764434037.5145397,-4.76112,1.38866,0.18312,-0.66088698,0.73290828,-0.106384005
1764434037.5145397,-4.76112,1.38866,0.18312,-0.66088698,0.73290828,-0.106384005
1764434037.5145397,-4.70008,1.19028,0.59514,-0.660581805,0.732603105,-0.10607883
1764434037.5145397,-4.70008,1.19028,0.59514,-0.660581805,0.732603105,-0.10607883
1764434037.5145397,-4.70008,1.19028,0.59514,-0.660581805,0.732603105,-0.10607883
1764434037.5145397,-4.70008,1.19028,0.59514,-0.660581805,0.732603105,-0.10607883
1764434037.5145397,-4.70008,1.19028,0.59514,-0.660581805,0.732603105,-0.10607883
1764434037.5145397,-4.70008,1.19028,0.59514,-0.660581805,0.732603105,-0.10607883
1764434037.5145397,-4.70008,1.19028,0.59514,-0.660581805,0.732603105,-0.10607883
1764434037.5145397,-4.70008,1.19028,0.59514,-0.660581805,0.732603105,-0.10607883
1764434037.5625112,-4.70008,1.19028,0.59514,-0.660581805,0.732603105,-0.10607883
1764434037.5625112,-4.70008,1.19028,0.59514,-0.660581805,0.732603105,-0.10607883
1764434037.5625112,-4.36436,1.4497,0.3051999999999999,-0.66003249,0.73266414,-0.106384005
1764434037.5625112,-4.36436,1.4497,0.3051999999999999,-0.66003249,0.73266414,-0.106384005
1764434037.5625112,-4.36436,1.4497,0.3051999999999999,-0.66003249,0.73266414,-0.106384005
1764434037.5625112,-4.36436,1.4497,0.3051999999999999,-0.66003249,0.73266414,-0.106384005
1764434037.5625112,-4.36436,1.4497,0.3051999999999999,-0.66003249,0.73266414,-0.106384005
1764434037.5625112,-4.36436,1.4497,0.3051999999999999,-0.66003249,0.73266414,-0.106384005
1764434037.5625112,-4.36436,1.4497,0.3051999999999999,-0.66003249,0.73266414,-0.106384005
1764434037.5625112,-4.36436,1.4497,0.3051999999999999,-0.66003249,0.73266414,-0.106384005
1764434037.5625112,-4.36436,1.4497,0.3051999999999999,-0.66003249,0.73266414,-0.106384005
1764434037.5625112,-4.36436,1.4497,0.3051999999999999,-0.66003249,0.73266414,-0.106384005
1764434037.5625112,-4.47118,1.26658,0.1525999999999999,-0.660459735,0.732358965,-0.106261935
1764434037.5625112,-4.47118,1.26658,0.1525999999999999,-0.660459735,0.732358965,-0.106261935
1764434037.5625112,-4.47118,1.26658,0.1525999999999999,-0.660459735,0.732358965,-0.106261935
1764434037.5625112,-4.47118,1.26658,0.1525999999999999,-0.660459735,0.732358965,-0.106261935
1764434037.5625112,-4.47118,1.26658,0.1525999999999999,-0.660459735,0.732358965,-0.106261935
1764434037.5625112,-4.47118,1.26658,0.1525999999999999,-0.660459735,0.732358965,-0.106261935
1764434037.5625112,-4.47118,1.26658,0.1525999999999999,-0.660459735,0.732358965,-0.106261935
1764434037.5625112,-4.47118,1.26658,0.1525999999999999,-0.660459735,0.732358965,-0.106261935
1764434037.5625112,-4.47118,1.26658,0.1525999999999999,-0.660459735,0.732358965,-0.106261935
1764434037.5625112,-4.47118,1.26658,0.1525999999999999,-0.660459735,0.732358965,-0.106261935
1764434037.5625112,-4.63904,0.97664,0.28994,-0.660703875,0.73229793,-0.106139865
1764434037.5625112,-4.63904,0.97664,0.28994,-0.660703875,0.73229793,-0.106139865
1764434037.607005,-4.63904,0.97664,0.28994,-0.660703875,0.73229793,-0.106139865
1764434037.607005,-4.63904,0.97664,0.28994,-0.660703875,0.73229793,-0.106139865
1764434037.607005,-4.63904,0.97664,0.28994,-0.660703875,0.73229793,-0.106139865
1764434037.607005,-4.63904,0.97664,0.28994,-0.660703875,0.73229793,-0.106139865
1764434037.607005,-4.63904,0.97664,0.28994,-0.660703875,0.73229793,-0.106139865
1764434037.607005,-4.63904,0.97664,0.28994,-0.660703875,0.73229793,-0.106139865
1764434037.607005,-4.63904,0.97664,0.28994,-0.660703875,0.73229793,-0.106139865
1764434037.607005,-4.63904,0.97664,0.28994,-0.660703875,0.73229793,-0.106139865
1764434037.607005,-4.63904,1.28184,0.18312,-0.661070085,0.731992755,-0.105895725
1764434037.607005,-4.63904,1.28184,0.18312,-0.661070085,0.731992755,-0.105895725
1764434037.607005,-4.63904,1.28184,0.18312,-0.661070085,0.731992755,-0.105895725
1764434037.607005,-4.63904,1.28184,0.18312,-0.661070085,0.731992755,-0.105895725
1764434037.607005,-4.63904,1.28184,0.18312,-0.661070085,0.731992755,-0.105895725
1764434037.608053,-4.63904,1.28184,0.18312,-0.661070085,0.731992755,-0.105895725
1764434037.608053,-4.63904,1.28184,0.18312,-0.661070085,0.731992755,-0.105895725
1764434037.608053,-4.63904,1.28184,0.18312,-0.661070085,0.731992755,-0.105895725
1764434037.608053,-4.63904,1.28184,0.18312,-0.661070085,0.731992755,-0.105895725
1764434037.608053,-4.63904,1.28184,0.18312,-0.661070085,0.731992755,-0.105895725
1764434037.608053,-4.70008,1.46496,0.21364,-0.660581805,0.73266414,-0.106139865
1764434037.6085677,-4.70008,1.46496,0.21364,-0.660581805,0.73266414,-0.106139865
1764434037.6085677,-4.70008,1.46496,0.21364,-0.660581805,0.73266414,-0.106139865
1764434037.6085677,-4.70008,1.46496,0.21364,-0.660581805,0.73266414,-0.106139865
1764434037.6095953,-4.70008,1.46496,0.21364,-0.660581805,0.73266414,-0.106139865
1764434037.6095953,-4.70008,1.46496,0.21364,-0.660581805,0.73266414,-0.106139865
1764434037.6567717,-4.70008,1.46496,0.21364,-0.660581805,0.73266414,-0.106139865
1764434037.6567717,-4.70008,1.46496,0.21364,-0.660581805,0.73266414,-0.106139865
1764434037.6567717,-4.70008,1.46496,0.21364,-0.660581805,0.73266414,-0.106139865
1764434037.6567717,-4.70008,1.46496,0.21364,-0.660581805,0.73266414,-0.106139865
1764434037.6567717,-4.47118,1.43444,0.3204599999999999,-0.660337665,0.73242,-0.105651585
1764434037.6567717,-4.47118,1.43444,0.3204599999999999,-0.660337665,0.73242,-0.105651585
1764434037.6567717,-4.47118,1.43444,0.3204599999999999,-0.660337665,0.73242,-0.105651585
1764434037.6567717,-4.47118,1.43444,0.3204599999999999,-0.660337665,0.73242,-0.105651585
1764434037.6567717,-4.47118,1.43444,0.3204599999999999,-0.660337665,0.73242,-0.105651585
1764434037.6567717,-4.47118,1.43444,0.3204599999999999,-0.660337665,0.73242,-0.105651585
1764434037.6567717,-4.47118,1.43444,0.3204599999999999,-0.660337665,0.73242,-0.105651585
