Timestamp,GyroX,GyroY,GyroZ,AccX,AccY,AccZ
1764434814.959161,-3.75396,0.47306,0.77826,0.955136715,-0.153991305,0.190124025
1764434814.959161,-3.75396,0.47306,0.77826,0.955136715,-0.153991305,0.190124025
1764434814.9601824,-3.75396,0.47306,0.77826,0.955136715,-0.153991305,0.190124025
1764434814.9601824,-3.54032,1.03768,0.10682,0.95519775,-0.1538082,0.19030713
1764434814.9601824,-3.54032,1.03768,0.10682,0.95519775,-0.1538082,0.19030713
1764434814.9601824,-3.54032,1.03768,0.10682,0.95519775,-0.1538082,0.19030713
1764434814.9601824,-3.54032,1.03768,0.10682,0.95519775,-0.1538082,0.19030713
1764434814.9601824,-3.54032,1.03768,0.10682,0.95519775,-0.1538082,0.19030713
1764434814.9601824,-3.54032,1.03768,0.10682,0.95519775,-0.1538082,0.19030713
1764434814.9601824,-3.54032,1.03768,0.10682,0.95519775,-0.1538082,0.19030713
1764434814.9601824,-3.54032,1.03768,0.10682,0.95519775,-0.1538082,0.19030713
1764434814.9601824,-3.54032,1.03768,0.10682,0.95519775,-0.1538082,0.19030713
1764434814.9601824,-3.54032,1.03768,0.10682,0.95519775,-0.1538082,0.19030713
1764434814.9601824,-3.47928,0.97664,-0.48832,0.954892575,-0.153136815,0.190368165
1764434814.9601824,-3.47928,0.97664,-0.48832,0.954892575,-0.153136815,0.190368165
1764434814.9601824,-3.47928,0.97664,-0.48832,0.954892575,-0.153136815,0.190368165
1764434814.9601824,-3.47928,0.97664,-0.48832,0.954892575,-0.153136815,0.190368165
1764434814.9601824,-3.47928,0.97664,-0.48832,0.954892575,-0.153136815,0.190368165
1764434814.9601824,-3.47928,0.97664,-0.48832,0.954892575,-0.153136815,0.190368165
1764434814.9601824,-3.47928,0.97664,-0.48832,0.954892575,-0.153136815,0.190368165
1764434814.9601824,-3.47928,0.97664,-0.48832,0.954892575,-0.153136815,0.190368165
1764434815.0054169,-3.47928,0.97664,-0.48832,0.954892575,-0.153136815,0.190368165
1764434815.0054169,-3.47928,0.97664,-0.48832,0.954892575,-0.153136815,0.190368165
1764434815.0054169,-3.7387,1.28184,-0.4578,0.954038085,-0.15173301,0.19103955
1764434815.0054169,-3.7387,1.28184,-0.4578,0.954038085,-0.15173301,0.19103955
1764434815.0054169,-3.7387,1.28184,-0.4578,0.954038085,-0.15173301,0.19103955
1764434815.0054169,-3.7387,1.28184,-0.4578,0.954038085,-0.15173301,0.19103955
1764434815.0054169,-3.7387,1.28184,-0.4578,0.954038085,-0.15173301,0.19103955
1764434815.0054169,-3.7387,1.28184,-0.4578,0.954038085,-0.15173301,0.19103955
1764434815.0054169,-3.7387,1.28184,-0.4578,0.954038085,-0.15173301,0.19103955
1764434815.0054169,-3.7387,1.28184,-0.4578,0.954038085,-0.15173301,0.19103955
1764434815.0054169,-3.7387,1.28184,-0.4578,0.954038085,-0.15173301,0.19103955
1764434815.0054169,-3.7387,1.28184,-0.4578,0.954038085,-0.15173301,0.19103955
1764434815.0054169,-3.78448,1.1445,-0.77826,0.95312256,-0.150817485,0.191100585
1764434815.0066755,-3.78448,1.1445,-0.77826,0.95312256,-0.150817485,0.191100585
1764434815.0066755,-3.78448,1.1445,-0.77826,0.95312256,-0.150817485,0.191100585
1764434815.0066755,-3.78448,1.1445,-0.77826,0.95312256,-0.150817485,0.191100585
1764434815.0066755,-3.78448,1.1445,-0.77826,0.95312256,-0.150817485,0.191100585
1764434815.0076995,-3.78448,1.1445,-0.77826,0.95312256,-0.150817485,0.191100585
1764434815.0076995,-3.78448,1.1445,-0.77826,0.95312256,-0.150817485,0.191100585
1764434815.0076995,-3.78448,1.1445,-0.77826,0.95312256,-0.150817485,0.191100585
1764434815.0076995,-3.78448,1.1445,-0.77826,0.95312256,-0.150817485,0.191100585
1764434815.0086873,-3.78448,1.1445,-0.77826,0.95312256,-0.150817485,0.191100585
1764434815.0086873,-4.47118,0.57988,-0.8698199999999999,0.95312256,-0.150085065,0.19116162
1764434815.0086873,-4.47118,0.57988,-0.8698199999999999,0.95312256,-0.150085065,0.19116162
1764434815.0557556,-4.47118,0.57988,-0.8698199999999999,0.95312256,-0.150085065,0.19116162
1764434815.0557556,-4.47118,0.57988,-0.8698199999999999,0.95312256,-0.150085065,0.19116162
1764434815.0557556,-4.47118,0.57988,-0.8698199999999999,0.95312256,-0.150085065,0.19116162
1764434815.0557556,-4.47118,0.57988,-0.8698199999999999,0.95312256,-0.150085065,0.19116162
1764434815.0557556,-4.47118,0.57988,-0.8698199999999999,0.95312256,-0.150085065,0.19116162
1764434815.0557556,-4.47118,0.57988,-0.8698199999999999,0.95312256,-0.150085065,0.19116162
1764434815.0557556,-4.47118,0.57988,-0.8698199999999999,0.95312256,-0.150085065,0.19116162
1764434815.0557556,-4.47118,0.57988,-0.8698199999999999,0.95312256,-0.150085065,0.19116162
1764434815.0557556,-4.56274,0.6103999999999999,-0.763,0.95361084,-0.1501461,0.190978515
1764434815.0557556,-4.56274,0.6103999999999999,-0.763,0.95361084,-0.1501461,0.190978515
1764434815.0557556,-4.56274,0.6103999999999999,-0.763,0.95361084,-0.1501461,0.190978515
1764434815.0557556,-4.56274,0.6103999999999999,-0.763,0.95361084,-0.1501461,0.190978515
1764434815.0557556,-4.56274,0.6103999999999999,-0.763,0.95361084,-0.1501461,0.190978515
1764434815.0557556,-4.56274,0.6103999999999999,-0.763,0.95361084,-0.1501461,0.190978515
1764434815.0557556,-4.56274,0.6103999999999999,-0.763,0.95361084,-0.1501461,0.190978515
1764434815.0557556,-4.56274,0.6103999999999999,-0.763,0.95361084,-0.1501461,0.190978515
1764434815.0557556,-4.56274,0.6103999999999999,-0.763,0.95361084,-0.1501461,0.190978515
1764434815.0557556,-4.56274,0.6103999999999999,-0.763,0.95361084,-0.1501461,0.190978515
1764434815.0557556,-4.303319999999999,0.54936,-0.3051999999999999,0.954770505,-0.14990196,0.191100585
1764434815.0557556,-4.303319999999999,0.54936,-0.3051999999999999,0.954770505,-0.14990196,0.191100585
1764434815.0557556,-4.303319999999999,0.54936,-0.3051999999999999,0.954770505,-0.14990196,0.191100585
1764434815.0557556,-4.303319999999999,0.54936,-0.3051999999999999,0.954770505,-0.14990196,0.191100585
1764434815.0557556,-4.303319999999999,0.54936,-0.3051999999999999,0.954770505,-0.14990196,0.191100585
1764434815.0557556,-4.303319999999999,0.54936,-0.3051999999999999,0.954770505,-0.14990196,0.191100585
1764434815.1018913,-4.303319999999999,0.54936,-0.3051999999999999,0.954770505,-0.14990196,0.191100585
1764434815.1018913,-4.303319999999999,0.54936,-0.3051999999999999,0.954770505,-0.14990196,0.191100585
1764434815.1018913,-4.303319999999999,0.54936,-0.3051999999999999,0.954770505,-0.14990196,0.191100585
1764434815.1018913,-4.303319999999999,0.54936,-0.3051999999999999,0.954770505,-0.14990196,0.191100585
1764434815.1018913,-4.33384,0.65618,-0.01526,0.955014645,-0.14990196,0.191344725
1764434815.1018913,-4.33384,0.65618,-0.01526,0.955014645,-0.14990196,0.191344725
1764434815.1018913,-4.33384,0.65618,-0.01526,0.955014645,-0.14990196,0.191344725
1764434815.1018913,-4.33384,0.65618,-0.01526,0.955014645,-0.14990196,0.191344725
1764434815.1018913,-4.33384,0.65618,-0.01526,0.955014645,-0.14990196,0.191344725
1764434815.1018913,-4.33384,0.65618,-0.01526,0.955014645,-0.14990196,0.191344725
1764434815.1018913,-4.33384,0.65618,-0.01526,0.955014645,-0.14990196,0.191344725
1764434815.1018913,-4.33384,0.65618,-0.01526,0.955014645,-0.14990196,0.191344725
1764434815.1018913,-4.33384,0.65618,-0.01526,0.955014645,-0.14990196,0.191344725
1764434815.103017,-4.33384,0.65618,-0.01526,0.955014645,-0.14990196,0.191344725
1764434815.103017,-4.3491,0.6867,0.27468,0.955502925,-0.14965782,0.191222655
1764434815.103017,-4.3491,0.6867,0.27468,0.955502925,-0.14965782,0.191222655
1764434815.1040154,-4.3491,0.6867,0.27468,0.955502925,-0.14965782,0.191222655
1764434815.1040154,-4.3491,0.6867,0.27468,0.955502925,-0.14965782,0.191222655
1764434815.1040154,-4.3491,0.6867,0.27468,0.955502925,-0.14965782,0.191222655
1764434815.1040154,-4.3491,0.6867,0.27468,0.955502925,-0.14965782,0.191222655
1764434815.1040154,-4.3491,0.6867,0.27468,0.955502925,-0.14965782,0.191222655
1764434815.1040154,-4.3491,0.6867,0.27468,0.955502925,-0.14965782,0.191222655
1764434815.1040154,-4.3491,0.6867,0.27468,0.955502925,-0.14965782,0.191222655
1764434815.1040154,-4.3491,0.6867,0.27468,0.955502925,-0.14965782,0.191222655
1764434815.147012,-4.02864,0.6867,0.0,0.955624995,-0.14929161,0.190246095
1764434815.147012,-4.02864,0.6867,0.0,0.955624995,-0.14929161,0.190246095
1764434815.147012,-4.02864,0.6867,0.0,0.955624995,-0.14929161,0.190246095
1764434815.147012,-4.02864,0.6867,0.0,0.955624995,-0.14929161,0.190246095
1764434815.147012,-4.02864,0.6867,0.0,0.955624995,-0.14929161,0.190246095
1764434815.147012,-4.02864,0.6867,0.0,0.955624995,-0.14929161,0.190246095
1764434815.147012,-4.02864,0.6867,0.0,0.955624995,-0.14929161,0.190246095
1764434815.147012,-4.02864,0.6867,0.0,0.955624995,-0.14929161,0.190246095
1764434815.147012,-4.02864,0.6867,0.0,0.955624995,-0.14929161,0.190246095
1764434815.147012,-4.02864,0.6867,0.0,0.955624995,-0.14929161,0.190246095
1764434815.147012,-3.87604,0.97664,0.36624,0.955380855,-0.149230575,0.19030713
1764434815.147012,-3.87604,0.97664,0.36624,0.955380855,-0.149230575,0.19030713
1764434815.147012,-3.87604,0.97664,0.36624,0.955380855,-0.149230575,0.19030713
1764434815.147012,-3.87604,0.97664,0.36624,0.955380855,-0.149230575,0.19030713
1764434815.147012,-3.87604,0.97664,0.36624,0.955380855,-0.149230575,0.19030713
1764434815.147012,-3.87604,0.97664,0.36624,0.955380855,-0.149230575,0.19030713
1764434815.147012,-3.87604,0.97664,0.36624,0.955380855,-0.149230575,0.19030713
1764434815.147012,-3.87604,0.97664,0.36624,0.955380855,-0.149230575,0.19030713
1764434815.147012,-3.87604,0.97664,0.36624,0.955380855,-0.149230575,0.19030713
1764434815.1480224,-3.87604,0.97664,0.36624,0.955380855,-0.149230575,0.19030713
1764434815.1480224,-3.5861,0.8392999999999999,0.93086,0.955380855,-0.14929161,0.19055127
1764434815.1480224,-3.5861,0.8392999999999999,0.93086,0.955380855,-0.14929161,0.19055127
1764434815.194554,-3.5861,0.8392999999999999,0.93086,0.955380855,-0.14929161,0.19055127
1764434815.194554,-3.5861,0.8392999999999999,0.93086,0.955380855,-0.14929161,0.19055127
1764434815.1950853,-3.5861,0.8392999999999999,0.93086,0.955380855,-0.14929161,0.19055127
1764434815.1950853,-3.5861,0.8392999999999999,0.93086,0.955380855,-0.14929161,0.19055127
1764434815.1950853,-3.5861,0.8392999999999999,0.93086,0.955380855,-0.14929161,0.19055127
1764434815.1950853,-3.5861,0.8392999999999999,0.93086,0.955380855,-0.14929161,0.19055127
1764434815.1950853,-3.5861,0.8392999999999999,0.93086,0.955380855,-0.14929161,0.19055127
1764434815.1950853,-3.5861,0.8392999999999999,0.93086,0.955380855,-0.14929161,0.19055127
1764434815.1950853,-2.99096,0.9919,0.88508,0.95568603,-0.14953575,0.190490235
1764434815.1950853,-2.99096,0.9919,0.88508,0.95568603,-0.14953575,0.190490235
1764434815.1950853,-2.99096,0.9919,0.88508,0.95568603,-0.14953575,0.190490235
1764434815.1950853,-2.99096,0.9919,0.88508,0.95568603,-0.14953575,0.190490235
1764434815.1950853,-2.99096,0.9919,0.88508,0.95568603,-0.14953575,0.190490235
1764434815.1950853,-2.99096,0.9919,0.88508,0.95568603,-0.14953575,0.190490235
1764434815.1950853,-2.99096,0.9919,0.88508,0.95568603,-0.14953575,0.190490235
1764434815.1950853,-2.99096,0.9919,0.88508,0.95568603,-0.14953575,0.190490235
1764434815.1950853,-2.99096,0.9919,0.88508,0.95568603,-0.14953575,0.190490235
1764434815.1950853,-2.99096,0.9919,0.88508,0.95568603,-0.14953575,0.190490235
1764434815.1950853,-3.34194,0.94612,1.05294,0.954892575,-0.149230575,0.18994092
1764434815.1950853,-3.34194,0.94612,1.05294,0.954892575,-0.149230575,0.18994092
1764434815.1950853,-3.34194,0.94612,1.05294,0.954892575,-0.149230575,0.18994092
1764434815.1950853,-3.34194,0.94612,1.05294,0.954892575,-0.149230575,0.18994092
1764434815.1950853,-3.34194,0.94612,1.05294,0.954892575,-0.149230575,0.18994092
1764434815.1950853,-3.34194,0.94612,1.05294,0.954892575,-0.149230575,0.18994092
1764434815.2392058,-3.34194,0.94612,1.05294,0.954892575,-0.149230575,0.18994092
1764434815.2392058,-3.34194,0.94612,1.05294,0.954892575,-0.149230575,0.18994092
1764434815.2392058,-3.34194,0.94612,1.05294,0.954892575,-0.149230575,0.18994092
1764434815.2392058,-3.34194,0.94612,1.05294,0.954892575,-0.149230575,0.18994092
1764434815.2392058,-3.1283,0.79352,1.4039199999999998,0.9545874,-0.14953575,0.19018506
1764434815.2392058,-3.1283,0.79352,1.4039199999999998,0.9545874,-0.14953575,0.19018506
1764434815.2392058,-3.1283,0.79352,1.4039199999999998,0.9545874,-0.14953575,0.19018506
1764434815.2392058,-3.1283,0.79352,1.4039199999999998,0.9545874,-0.14953575,0.19018506
1764434815.2392058,-3.1283,0.79352,1.4039199999999998,0.9545874,-0.14953575,0.19018506
1764434815.2392058,-3.1283,0.79352,1.4039199999999998,0.9545874,-0.14953575,0.19018506
1764434815.2392058,-3.1283,0.79352,1.4039199999999998,0.9545874,-0.14953575,0.19018506
1764434815.2392058,-3.1283,0.79352,1.4039199999999998,0.9545874,-0.14953575,0.19018506
1764434815.2392058,-3.1283,0.79352,1.4039199999999998,0.9545874,-0.14953575,0.19018506
1764434815.2392058,-3.1283,0.79352,1.4039199999999998,0.9545874,-0.14953575,0.19018506
1764434815.2392058,-2.83836,1.31236,1.72438,0.95446533,-0.150695415,0.189879885
1764434815.2392058,-2.83836,1.31236,1.72438,0.95446533,-0.150695415,0.189879885
1764434815.2402143,-2.83836,1.31236,1.72438,0.95446533,-0.150695415,0.189879885
1764434815.2402143,-2.83836,1.31236,1.72438,0.95446533,-0.150695415,0.189879885
1764434815.2402143,-2.83836,1.31236,1.72438,0.95446533,-0.150695415,0.189879885
1764434815.2402143,-2.83836,1.31236,1.72438,0.95446533,-0.150695415,0.189879885
1764434815.2407222,-2.83836,1.31236,1.72438,0.95446533,-0.150695415,0.189879885
1764434815.2407222,-2.83836,1.31236,1.72438,0.95446533,-0.150695415,0.189879885
1764434815.2851806,-2.83836,1.31236,1.72438,0.95446533,-0.150695415,0.189879885
1764434815.2851806,-2.83836,1.31236,1.72438,0.95446533,-0.150695415,0.189879885
1764434815.2851806,-2.71628,1.4497,1.87698,0.955747065,-0.15075645,0.190612305
1764434815.2851806,-2.71628,1.4497,1.87698,0.955747065,-0.15075645,0.190612305
1764434815.2851806,-2.71628,1.4497,1.87698,0.955747065,-0.15075645,0.190612305
1764434815.2851806,-2.71628,1.4497,1.87698,0.955747065,-0.15075645,0.190612305
1764434815.2851806,-2.71628,1.4497,1.87698,0.955747065,-0.15075645,0.190612305
1764434815.2851806,-2.71628,1.4497,1.87698,0.955747065,-0.15075645,0.190612305
1764434815.2851806,-2.71628,1.4497,1.87698,0.955747065,-0.15075645,0.190612305
1764434815.2851806,-2.71628,1.4497,1.87698,0.955747065,-0.15075645,0.190612305
1764434815.2851806,-2.71628,1.4497,1.87698,0.955747065,-0.15075645,0.190612305
1764434815.2851806,-2.71628,1.4497,1.87698,0.955747065,-0.15075645,0.190612305
1764434815.287194,-3.23512,0.8392999999999999,1.51074,0.95361084,-0.149596785,0.18981885
1764434815.287194,-3.23512,0.8392999999999999,1.51074,0.95361084,-0.149596785,0.18981885
1764434815.287194,-3.23512,0.8392999999999999,1.51074,0.95361084,-0.149596785,0.18981885
1764434815.287194,-3.23512,0.8392999999999999,1.51074,0.95361084,-0.149596785,0.18981885
1764434815.288195,-3.23512,0.8392999999999999,1.51074,0.95361084,-0.149596785,0.18981885
1764434815.288195,-3.23512,0.8392999999999999,1.51074,0.95361084,-0.149596785,0.18981885
1764434815.288195,-3.23512,0.8392999999999999,1.51074,0.95361084,-0.149596785,0.18981885
1764434815.288195,-3.23512,0.8392999999999999,1.51074,0.95361084,-0.149596785,0.18981885
1764434815.288195,-3.23512,0.8392999999999999,1.51074,0.95361084,-0.149596785,0.18981885
1764434815.288195,-3.23512,0.8392999999999999,1.51074,0.95361084,-0.149596785,0.18981885
1764434815.288195,-3.64714,0.27468,1.1445,0.954770505,-0.149352645,0.190246095
1764434815.288195,-3.64714,0.27468,1.1445,0.954770505,-0.149352645,0.190246095
1764434815.288195,-3.64714,0.27468,1.1445,0.954770505,-0.149352645,0.190246095
1764434815.288195,-3.64714,0.27468,1.1445,0.954770505,-0.149352645,0.190246095
1764434815.3319752,-3.64714,0.27468,1.1445,0.954770505,-0.149352645,0.190246095
1764434815.3319752,-3.64714,0.27468,1.1445,0.954770505,-0.149352645,0.190246095
1764434815.3319752,-3.64714,0.27468,1.1445,0.954770505,-0.149352645,0.190246095
1764434815.3319752,-3.64714,0.27468,1.1445,0.954770505,-0.149352645,0.190246095
1764434815.3319752,-3.64714,0.27468,1.1445,0.954770505,-0.149352645,0.190246095
1764434815.3319752,-3.64714,0.27468,1.1445,0.954770505,-0.149352645,0.190246095
1764434815.3319752,-3.84552,1.4039199999999998,1.31236,0.957089835,-0.14953575,0.18981885
1764434815.3319752,-3.84552,1.4039199999999998,1.31236,0.957089835,-0.14953575,0.18981885
1764434815.3319752,-3.84552,1.4039199999999998,1.31236,0.957089835,-0.14953575,0.18981885
1764434815.3319752,-3.84552,1.4039199999999998,1.31236,0.957089835,-0.14953575,0.18981885
1764434815.3319752,-3.84552,1.4039199999999998,1.31236,0.957089835,-0.14953575,0.18981885
1764434815.3319752,-3.84552,1.4039199999999998,1.31236,0.957089835,-0.14953575,0.18981885
1764434815.3319752,-3.84552,1.4039199999999998,1.31236,0.957089835,-0.14953575,0.18981885
1764434815.3319752,-3.84552,1.4039199999999998,1.31236,0.957089835,-0.14953575,0.18981885
1764434815.3319752,-3.84552,1.4039199999999998,1.31236,0.957089835,-0.14953575,0.18981885
1764434815.3334856,-3.84552,1.4039199999999998,1.31236,0.957089835,-0.14953575,0.18981885
1764434815.3334856,-3.60136,1.69386,0.96138,0.955991205,-0.149718855,0.190124025
1764434815.3334856,-3.60136,1.69386,0.96138,0.955991205,-0.149718855,0.190124025
1764434815.334499,-3.60136,1.69386,0.96138,0.955991205,-0.149718855,0.190124025
1764434815.334499,-3.60136,1.69386,0.96138,0.955991205,-0.149718855,0.190124025
1764434815.380164,-3.60136,1.69386,0.96138,0.955991205,-0.149718855,0.190124025
1764434815.380164,-3.60136,1.69386,0.96138,0.955991205,-0.149718855,0.190124025
1764434815.380164,-3.60136,1.69386,0.96138,0.955991205,-0.149718855,0.190124025
1764434815.380164,-3.60136,1.69386,0.96138,0.955991205,-0.149718855,0.190124025
1764434815.380164,-3.60136,1.69386,0.96138,0.955991205,-0.149718855,0.190124025
1764434815.380164,-3.60136,1.69386,0.96138,0.955991205,-0.149718855,0.190124025
1764434815.380164,-4.2728,1.41918,0.54936,0.954526365,-0.14977989,0.19055127
1764434815.380164,-4.2728,1.41918,0.54936,0.954526365,-0.14977989,0.19055127
1764434815.380164,-4.2728,1.41918,0.54936,0.954526365,-0.14977989,0.19055127
1764434815.380164,-4.2728,1.41918,0.54936,0.954526365,-0.14977989,0.19055127
1764434815.380164,-4.2728,1.41918,0.54936,0.954526365,-0.14977989,0.19055127
1764434815.380164,-4.2728,1.41918,0.54936,0.954526365,-0.14977989,0.19055127
1764434815.380164,-4.2728,1.41918,0.54936,0.954526365,-0.14977989,0.19055127
1764434815.380164,-4.2728,1.41918,0.54936,0.954526365,-0.14977989,0.19055127
1764434815.380164,-4.2728,1.41918,0.54936,0.954526365,-0.14977989,0.19055127
1764434815.380164,-4.2728,1.41918,0.54936,0.954526365,-0.14977989,0.19055127
1764434815.380164,-3.98286,0.82404,0.42728,0.95397705,-0.15039024,0.191222655
1764434815.380164,-3.98286,0.82404,0.42728,0.95397705,-0.15039024,0.191222655
1764434815.381674,-3.98286,0.82404,0.42728,0.95397705,-0.15039024,0.191222655
1764434815.381674,-3.98286,0.82404,0.42728,0.95397705,-0.15039024,0.191222655
1764434815.381674,-3.98286,0.82404,0.42728,0.95397705,-0.15039024,0.191222655
1764434815.381674,-3.98286,0.82404,0.42728,0.95397705,-0.15039024,0.191222655
1764434815.381674,-3.98286,0.82404,0.42728,0.95397705,-0.15039024,0.191222655
1764434815.381674,-3.98286,0.82404,0.42728,0.95397705,-0.15039024,0.191222655
1764434815.424605,-3.98286,0.82404,0.42728,0.95397705,-0.15039024,0.191222655
1764434815.424605,-3.98286,0.82404,0.42728,0.95397705,-0.15039024,0.191222655
1764434815.424605,-3.3572,0.9156,0.57988,0.95361084,-0.151427835,0.190978515
1764434815.424605,-3.3572,0.9156,0.57988,0.95361084,-0.151427835,0.190978515
1764434815.424605,-3.3572,0.9156,0.57988,0.95361084,-0.151427835,0.190978515
1764434815.424605,-3.3572,0.9156,0.57988,0.95361084,-0.151427835,0.190978515
1764434815.424605,-3.3572,0.9156,0.57988,0.95361084,-0.151427835,0.190978515
1764434815.424605,-3.3572,0.9156,0.57988,0.95361084,-0.151427835,0.190978515
1764434815.424605,-3.3572,0.9156,0.57988,0.95361084,-0.151427835,0.190978515
1764434815.4258416,-3.3572,0.9156,0.57988,0.95361084,-0.151427835,0.190978515
1764434815.4258416,-3.3572,0.9156,0.57988,0.95361084,-0.151427835,0.190978515
1764434815.4258416,-3.3572,0.9156,0.57988,0.95361084,-0.151427835,0.190978515
1764434815.4258416,-3.31142,0.71722,0.9003399999999999,0.953427735,-0.15234336,0.19116162
1764434815.4258416,-3.31142,0.71722,0.9003399999999999,0.953427735,-0.15234336,0.19116162
1764434815.4258416,-3.31142,0.71722,0.9003399999999999,0.953427735,-0.15234336,0.19116162
1764434815.4258416,-3.31142,0.71722,0.9003399999999999,0.953427735,-0.15234336,0.19116162
1764434815.4258416,-3.31142,0.71722,0.9003399999999999,0.953427735,-0.15234336,0.19116162
1764434815.4258416,-3.31142,0.71722,0.9003399999999999,0.953427735,-0.15234336,0.19116162
1764434815.4258416,-3.31142,0.71722,0.9003399999999999,0.953427735,-0.15234336,0.19116162
1764434815.4258416,-3.31142,0.71722,0.9003399999999999,0.953427735,-0.15234336,0.19116162
1764434815.4258416,-3.31142,0.71722,0.9003399999999999,0.953427735,-0.15234336,0.19116162
1764434815.4258416,-3.31142,0.71722,0.9003399999999999,0.953427735,-0.15234336,0.19116162
1764434815.4692736,-2.9757,1.09872,0.9003399999999999,0.95483154,-0.152038185,0.19128369
1764434815.4692736,-2.9757,1.09872,0.9003399999999999,0.95483154,-0.152038185,0.19128369
1764434815.4692736,-2.9757,1.09872,0.9003399999999999,0.95483154,-0.152038185,0.19128369
1764434815.4692736,-2.9757,1.09872,0.9003399999999999,0.95483154,-0.152038185,0.19128369
1764434815.4692736,-2.9757,1.09872,0.9003399999999999,0.95483154,-0.152038185,0.19128369
1764434815.4692736,-2.9757,1.09872,0.9003399999999999,0.95483154,-0.152038185,0.19128369
1764434815.4692736,-2.9757,1.09872,0.9003399999999999,0.95483154,-0.152038185,0.19128369
1764434815.4692736,-2.9757,1.09872,0.9003399999999999,0.95483154,-0.152038185,0.19128369
1764434815.4692736,-2.9757,1.09872,0.9003399999999999,0.95483154,-0.152038185,0.19128369
1764434815.4692736,-2.9757,1.09872,0.9003399999999999,0.95483154,-0.152038185,0.19128369
1764434815.4692736,-3.14356,0.48832,0.51884,0.954892575,-0.15209922,0.190368165
1764434815.4692736,-3.14356,0.48832,0.51884,0.954892575,-0.15209922,0.190368165
1764434815.4692736,-3.14356,0.48832,0.51884,0.954892575,-0.15209922,0.190368165
1764434815.4692736,-3.14356,0.48832,0.51884,0.954892575,-0.15209922,0.190368165
1764434815.4692736,-3.14356,0.48832,0.51884,0.954892575,-0.15209922,0.190368165
1764434815.4692736,-3.14356,0.48832,0.51884,0.954892575,-0.15209922,0.190368165
1764434815.4692736,-3.14356,0.48832,0.51884,0.954892575,-0.15209922,0.190368165
1764434815.4692736,-3.14356,0.48832,0.51884,0.954892575,-0.15209922,0.190368165
1764434815.4692736,-3.14356,0.48832,0.51884,0.954892575,-0.15209922,0.190368165
1764434815.4692736,-3.14356,0.48832,0.51884,0.954892575,-0.15209922,0.190368165
1764434815.4692736,-3.46402,1.0682,0.94612,0.95519775,-0.15161094,0.189879885
1764434815.4692736,-3.46402,1.0682,0.94612,0.95519775,-0.15161094,0.189879885
1764434815.4710033,-3.46402,1.0682,0.94612,0.95519775,-0.15161094,0.189879885
1764434815.4710033,-3.46402,1.0682,0.94612,0.95519775,-0.15161094,0.189879885
1764434815.517166,-3.46402,1.0682,0.94612,0.95519775,-0.15161094,0.189879885
1764434815.517166,-3.46402,1.0682,0.94612,0.95519775,-0.15161094,0.189879885
1764434815.517166,-3.46402,1.0682,0.94612,0.95519775,-0.15161094,0.189879885
1764434815.517166,-3.46402,1.0682,0.94612,0.95519775,-0.15161094,0.189879885
1764434815.517166,-3.46402,1.0682,0.94612,0.95519775,-0.15161094,0.189879885
1764434815.517166,-3.46402,1.0682,0.94612,0.95519775,-0.15161094,0.189879885
1764434815.517166,-3.63188,1.57178,0.96138,0.956479485,-0.151794045,0.189879885
1764434815.517166,-3.63188,1.57178,0.96138,0.956479485,-0.151794045,0.189879885
1764434815.517166,-3.63188,1.57178,0.96138,0.956479485,-0.151794045,0.189879885
1764434815.517166,-3.63188,1.57178,0.96138,0.956479485,-0.151794045,0.189879885
1764434815.5181825,-3.63188,1.57178,0.96138,0.956479485,-0.151794045,0.189879885
1764434815.5181825,-3.63188,1.57178,0.96138,0.956479485,-0.151794045,0.189879885
1764434815.5181825,-3.63188,1.57178,0.96138,0.956479485,-0.151794045,0.189879885
1764434815.5181825,-3.63188,1.57178,0.96138,0.956479485,-0.151794045,0.189879885
1764434815.5181825,-3.63188,1.57178,0.96138,0.956479485,-0.151794045,0.189879885
1764434815.5181825,-3.63188,1.57178,0.96138,0.956479485,-0.151794045,0.189879885
1764434815.5181825,-3.67766,0.8392999999999999,0.97664,0.95556396,-0.15197715,0.190124025
1764434815.5181825,-3.67766,0.8392999999999999,0.97664,0.95556396,-0.15197715,0.190124025
1764434815.5181825,-3.67766,0.8392999999999999,0.97664,0.95556396,-0.15197715,0.190124025
1764434815.5181825,-3.67766,0.8392999999999999,0.97664,0.95556396,-0.15197715,0.190124025
1764434815.5181825,-3.67766,0.8392999999999999,0.97664,0.95556396,-0.15197715,0.190124025
1764434815.5181825,-3.67766,0.8392999999999999,0.97664,0.95556396,-0.15197715,0.190124025
1764434815.5181825,-3.67766,0.8392999999999999,0.97664,0.95556396,-0.15197715,0.190124025
1764434815.5181825,-3.67766,0.8392999999999999,0.97664,0.95556396,-0.15197715,0.190124025
1764434815.5649753,-3.67766,0.8392999999999999,0.97664,0.95556396,-0.15197715,0.190124025
1764434815.5655062,-3.67766,0.8392999999999999,0.97664,0.95556396,-0.15197715,0.190124025
1764434815.5655062,-3.83026,0.39676,0.25942,0.95519775,-0.15222129,0.189635745
1764434815.5655062,-3.83026,0.39676,0.25942,0.95519775,-0.15222129,0.189635745
1764434815.5655062,-3.83026,0.39676,0.25942,0.95519775,-0.15222129,0.189635745
1764434815.5655062,-3.83026,0.39676,0.25942,0.95519775,-0.15222129,0.189635745
1764434815.5655062,-3.83026,0.39676,0.25942,0.95519775,-0.15222129,0.189635745
1764434815.5655062,-3.83026,0.39676,0.25942,0.95519775,-0.15222129,0.189635745
1764434815.5655062,-3.83026,0.39676,0.25942,0.95519775,-0.15222129,0.189635745
1764434815.5665238,-3.83026,0.39676,0.25942,0.95519775,-0.15222129,0.189635745
1764434815.5665238,-3.83026,0.39676,0.25942,0.95519775,-0.15222129,0.189635745
1764434815.5665238,-3.83026,0.39676,0.25942,0.95519775,-0.15222129,0.189635745
1764434815.5665238,-4.08968,0.71722,0.28994,0.955380855,-0.152160255,0.18981885
1764434815.5665238,-4.08968,0.71722,0.28994,0.955380855,-0.152160255,0.18981885
1764434815.5665238,-4.08968,0.71722,0.28994,0.955380855,-0.152160255,0.18981885
1764434815.5665238,-4.08968,0.71722,0.28994,0.955380855,-0.152160255,0.18981885
1764434815.5665238,-4.08968,0.71722,0.28994,0.955380855,-0.152160255,0.18981885
1764434815.5665238,-4.08968,0.71722,0.28994,0.955380855,-0.152160255,0.18981885
1764434815.5665238,-4.08968,0.71722,0.28994,0.955380855,-0.152160255,0.18981885
1764434815.5665238,-4.08968,0.71722,0.28994,0.955380855,-0.152160255,0.18981885
1764434815.5665238,-4.08968,0.71722,0.28994,0.955380855,-0.152160255,0.18981885
1764434815.5665238,-4.08968,0.71722,0.28994,0.955380855,-0.152160255,0.18981885
1764434815.6102872,-3.79974,1.03768,0.04578,0.95483154,-0.15234336,0.19030713
1764434815.6102872,-3.79974,1.03768,0.04578,0.95483154,-0.15234336,0.19030713
1764434815.6102872,-3.79974,1.03768,0.04578,0.95483154,-0.15234336,0.19030713
1764434815.6102872,-3.79974,1.03768,0.04578,0.95483154,-0.15234336,0.19030713
1764434815.6102872,-3.79974,1.03768,0.04578,0.95483154,-0.15234336,0.19030713
1764434815.6102872,-3.79974,1.03768,0.04578,0.95483154,-0.15234336,0.19030713
1764434815.6102872,-3.79974,1.03768,0.04578,0.95483154,-0.15234336,0.19030713
1764434815.6102872,-3.79974,1.03768,0.04578,0.95483154,-0.15234336,0.19030713
1764434815.6102872,-3.79974,1.03768,0.04578,0.95483154,-0.15234336,0.19030713
1764434815.6102872,-3.79974,1.03768,0.04578,0.95483154,-0.15234336,0.19030713
1764434815.6102872,-3.99812,1.23606,-0.09156,0.954160155,-0.151183695,0.190734375
1764434815.6102872,-3.99812,1.23606,-0.09156,0.954160155,-0.151183695,0.190734375
1764434815.6102872,-3.99812,1.23606,-0.09156,0.954160155,-0.151183695,0.190734375
1764434815.6102872,-3.99812,1.23606,-0.09156,0.954160155,-0.151183695,0.190734375
1764434815.6113029,-3.99812,1.23606,-0.09156,0.954160155,-0.151183695,0.190734375
1764434815.6113029,-3.99812,1.23606,-0.09156,0.954160155,-0.151183695,0.190734375
1764434815.6113029,-3.99812,1.23606,-0.09156,0.954160155,-0.151183695,0.190734375
1764434815.6113029,-3.99812,1.23606,-0.09156,0.954160155,-0.151183695,0.190734375
1764434815.6113029,-3.99812,1.23606,-0.09156,0.954160155,-0.151183695,0.190734375
1764434815.6113029,-3.99812,1.23606,-0.09156,0.954160155,-0.151183695,0.190734375
1764434815.6113029,-4.21176,0.763,-0.27468,0.954404295,-0.149962995,0.1916499
1764434815.6113029,-4.21176,0.763,-0.27468,0.954404295,-0.149962995,0.1916499
1764434815.6113029,-4.21176,0.763,-0.27468,0.954404295,-0.149962995,0.1916499
1764434815.6113029,-4.21176,0.763,-0.27468,0.954404295,-0.149962995,0.1916499
1764434815.660071,-4.21176,0.763,-0.27468,0.954404295,-0.149962995,0.1916499
1764434815.669954,-4.21176,0.763,-0.27468,0.954404295,-0.149962995,0.1916499
1764434815.669954,-4.21176,0.763,-0.27468,0.954404295,-0.149962995,0.1916499
1764434815.669954,-4.21176,0.763,-0.27468,0.954404295,-0.149962995,0.1916499
1764434815.669954,-4.21176,0.763,-0.27468,0.954404295,-0.149962995,0.1916499
1764434815.6711323,-4.21176,0.763,-0.27468,0.954404295,-0.149962995,0.1916499
1764434815.6711323,-4.21176,0.74774,0.01526,0.953305665,-0.149718855,0.191344725
1764434815.6711323,-4.21176,0.74774,0.01526,0.953305665,-0.149718855,0.191344725
1764434815.6711323,-4.21176,0.74774,0.01526,0.953305665,-0.149718855,0.191344725
1764434815.6711323,-4.21176,0.74774,0.01526,0.953305665,-0.149718855,0.191344725
1764434815.6711323,-4.21176,0.74774,0.01526,0.953305665,-0.149718855,0.191344725
1764434815.6711323,-4.21176,0.74774,0.01526,0.953305665,-0.149718855,0.191344725
1764434815.6711323,-4.21176,0.74774,0.01526,0.953305665,-0.149718855,0.191344725
1764434815.6711323,-4.21176,0.74774,0.01526,0.953305665,-0.149718855,0.191344725
1764434815.6711323,-4.21176,0.74774,0.01526,0.953305665,-0.149718855,0.191344725
1764434815.6711323,-4.21176,0.74774,0.01526,0.953305665,-0.149718855,0.191344725
1764434815.6711323,-3.99812,0.59514,0.12208,0.95361084,-0.149718855,0.190734375
1764434815.6711323,-3.99812,0.59514,0.12208,0.95361084,-0.149718855,0.190734375
1764434815.6711323,-3.99812,0.59514,0.12208,0.95361084,-0.149718855,0.190734375
1764434815.6711323,-3.99812,0.59514,0.12208,0.95361084,-0.149718855,0.190734375
1764434815.6711323,-3.99812,0.59514,0.12208,0.95361084,-0.149718855,0.190734375
1764434815.6711323,-3.99812,0.59514,0.12208,0.95361084,-0.149718855,0.190734375
1764434815.6711323,-3.99812,0.59514,0.12208,0.95361084,-0.149718855,0.190734375
1764434815.6711323,-3.99812,0.59514,0.12208,0.95361084,-0.149718855,0.190734375
1764434815.7038684,-3.99812,0.59514,0.12208,0.95361084,-0.149718855,0.190734375
1764434815.7038684,-3.99812,0.59514,0.12208,0.95361084,-0.149718855,0.190734375
1764434815.705411,-3.69292,0.73248,0.1678599999999999,0.954526365,-0.14953575,0.19140576
1764434815.705411,-3.69292,0.73248,0.1678599999999999,0.954526365,-0.14953575,0.19140576
1764434815.705411,-3.69292,0.73248,0.1678599999999999,0.954526365,-0.14953575,0.19140576
1764434815.705411,-3.69292,0.73248,0.1678599999999999,0.954526365,-0.14953575,0.19140576
1764434815.705411,-3.69292,0.73248,0.1678599999999999,0.954526365,-0.14953575,0.19140576
1764434815.705411,-3.69292,0.73248,0.1678599999999999,0.954526365,-0.14953575,0.19140576
1764434815.705948,-3.69292,0.73248,0.1678599999999999,0.954526365,-0.14953575,0.19140576
1764434815.705948,-3.69292,0.73248,0.1678599999999999,0.954526365,-0.14953575,0.19140576
1764434815.705948,-3.69292,0.73248,0.1678599999999999,0.954526365,-0.14953575,0.19140576
1764434815.705948,-3.69292,0.73248,0.1678599999999999,0.954526365,-0.14953575,0.19140576
1764434815.705948,-3.61662,0.54936,0.1525999999999999,0.954892575,-0.149352645,0.19128369
1764434815.70696,-3.61662,0.54936,0.1525999999999999,0.954892575,-0.149352645,0.19128369
1764434815.70696,-3.61662,0.54936,0.1525999999999999,0.954892575,-0.149352645,0.19128369
1764434815.707584,-3.61662,0.54936,0.1525999999999999,0.954892575,-0.149352645,0.19128369
1764434815.707584,-3.61662,0.54936,0.1525999999999999,0.954892575,-0.149352645,0.19128369
1764434815.7079637,-3.61662,0.54936,0.1525999999999999,0.954892575,-0.149352645,0.19128369
1764434815.7079637,-3.61662,0.54936,0.1525999999999999,0.954892575,-0.149352645,0.19128369
1764434815.7079637,-3.61662,0.54936,0.1525999999999999,0.954892575,-0.149352645,0.19128369
1764434815.7079637,-3.61662,0.54936,0.1525999999999999,0.954892575,-0.149352645,0.19128369
1764434815.7079637,-3.61662,0.54936,0.1525999999999999,0.954892575,-0.149352645,0.19128369
1764434815.751865,-3.93708,0.77826,0.1678599999999999,0.955991205,-0.14953575,0.190856445
1764434815.751865,-3.93708,0.77826,0.1678599999999999,0.955991205,-0.14953575,0.190856445
1764434815.751865,-3.93708,0.77826,0.1678599999999999,0.955991205,-0.14953575,0.190856445
1764434815.751865,-3.93708,0.77826,0.1678599999999999,0.955991205,-0.14953575,0.190856445
1764434815.751865,-3.93708,0.77826,0.1678599999999999,0.955991205,-0.14953575,0.190856445
1764434815.751865,-3.93708,0.77826,0.1678599999999999,0.955991205,-0.14953575,0.190856445
1764434815.751865,-3.93708,0.77826,0.1678599999999999,0.955991205,-0.14953575,0.190856445
1764434815.751865,-3.93708,0.77826,0.1678599999999999,0.955991205,-0.14953575,0.190856445
1764434815.751865,-3.93708,0.77826,0.1678599999999999,0.955991205,-0.14953575,0.190856445
1764434815.751865,-3.93708,0.77826,0.1678599999999999,0.955991205,-0.14953575,0.190856445
1764434815.751865,-3.8913,0.12208,-0.27468,0.95556396,-0.14880333,0.1904292
1764434815.751865,-3.8913,0.12208,-0.27468,0.95556396,-0.14880333,0.1904292
1764434815.751865,-3.8913,0.12208,-0.27468,0.95556396,-0.14880333,0.1904292
1764434815.751865,-3.8913,0.12208,-0.27468,0.95556396,-0.14880333,0.1904292
1764434815.751865,-3.8913,0.12208,-0.27468,0.95556396,-0.14880333,0.1904292
1764434815.751865,-3.8913,0.12208,-0.27468,0.95556396,-0.14880333,0.1904292
1764434815.751865,-3.8913,0.12208,-0.27468,0.95556396,-0.14880333,0.1904292
1764434815.751865,-3.8913,0.12208,-0.27468,0.95556396,-0.14880333,0.1904292
1764434815.751865,-3.8913,0.12208,-0.27468,0.95556396,-0.14880333,0.1904292
1764434815.751865,-3.8913,0.12208,-0.27468,0.95556396,-0.14880333,0.1904292
1764434815.751865,-3.98286,0.0,0.0762999999999999,0.95568603,-0.14916954,0.190490235
1764434815.751865,-3.98286,0.0,0.0762999999999999,0.95568603,-0.14916954,0.190490235
1764434815.7534068,-3.98286,0.0,0.0762999999999999,0.95568603,-0.14916954,0.190490235
1764434815.7534068,-3.98286,0.0,0.0762999999999999,0.95568603,-0.14916954,0.190490235
1764434815.7988656,-3.98286,0.0,0.0762999999999999,0.95568603,-0.14916954,0.190490235
1764434815.7988656,-3.98286,0.0,0.0762999999999999,0.95568603,-0.14916954,0.190490235
1764434815.7988656,-3.98286,0.0,0.0762999999999999,0.95568603,-0.14916954,0.190490235
1764434815.7988656,-3.98286,0.0,0.0762999999999999,0.95568603,-0.14916954,0.190490235
1764434815.7988656,-3.98286,0.0,0.0762999999999999,0.95568603,-0.14916954,0.190490235
1764434815.7988656,-3.98286,0.0,0.0762999999999999,0.95568603,-0.14916954,0.190490235
1764434815.7988656,-3.54032,0.3509799999999999,0.1678599999999999,0.955502925,-0.14941368,0.190856445
1764434815.7988656,-3.54032,0.3509799999999999,0.1678599999999999,0.955502925,-0.14941368,0.190856445
1764434815.7988656,-3.54032,0.3509799999999999,0.1678599999999999,0.955502925,-0.14941368,0.190856445
1764434815.7988656,-3.54032,0.3509799999999999,0.1678599999999999,0.955502925,-0.14941368,0.190856445
1764434815.7988656,-3.54032,0.3509799999999999,0.1678599999999999,0.955502925,-0.14941368,0.190856445
1764434815.7988656,-3.54032,0.3509799999999999,0.1678599999999999,0.955502925,-0.14941368,0.190856445
1764434815.7988656,-3.54032,0.3509799999999999,0.1678599999999999,0.955502925,-0.14941368,0.190856445
1764434815.7988656,-3.54032,0.3509799999999999,0.1678599999999999,0.955502925,-0.14941368,0.190856445
1764434815.7988656,-3.54032,0.3509799999999999,0.1678599999999999,0.955502925,-0.14941368,0.190856445
1764434815.7995014,-3.54032,0.3509799999999999,0.1678599999999999,0.955502925,-0.14941368,0.190856445
1764434815.7995014,-3.52506,0.3815,0.12208,0.95617431,-0.149352645,0.190001955
1764434815.7995014,-3.52506,0.3815,0.12208,0.95617431,-0.149352645,0.190001955
1764434815.7995014,-3.52506,0.3815,0.12208,0.95617431,-0.149352645,0.190001955
1764434815.7995014,-3.52506,0.3815,0.12208,0.95617431,-0.149352645,0.190001955
1764434815.7995014,-3.52506,0.3815,0.12208,0.95617431,-0.149352645,0.190001955
1764434815.7995014,-3.52506,0.3815,0.12208,0.95617431,-0.149352645,0.190001955
1764434815.8005075,-3.52506,0.3815,0.12208,0.95617431,-0.149352645,0.190001955
1764434815.8005075,-3.52506,0.3815,0.12208,0.95617431,-0.149352645,0.190001955
1764434815.8005075,-3.52506,0.3815,0.12208,0.95617431,-0.149352645,0.190001955
1764434815.8005075,-3.52506,0.3815,0.12208,0.95617431,-0.149352645,0.190001955
1764434815.844546,-3.44876,0.3204599999999999,0.3815,0.95544189,-0.14929161,0.1892085
1764434815.844546,-3.44876,0.3204599999999999,0.3815,0.95544189,-0.14929161,0.1892085
1764434815.844546,-3.44876,0.3204599999999999,0.3815,0.95544189,-0.14929161,0.1892085
1764434815.844546,-3.44876,0.3204599999999999,0.3815,0.95544189,-0.14929161,0.1892085
1764434815.844546,-3.44876,0.3204599999999999,0.3815,0.95544189,-0.14929161,0.1892085
1764434815.844546,-3.44876,0.3204599999999999,0.3815,0.95544189,-0.14929161,0.1892085
1764434815.844546,-3.44876,0.3204599999999999,0.3815,0.95544189,-0.14929161,0.1892085
1764434815.844546,-3.44876,0.3204599999999999,0.3815,0.95544189,-0.14929161,0.1892085
1764434815.844546,-3.44876,0.3204599999999999,0.3815,0.95544189,-0.14929161,0.1892085
1764434815.844546,-3.44876,0.3204599999999999,0.3815,0.95544189,-0.14929161,0.1892085
1764434815.844546,-3.3572,0.88508,0.54936,0.95556396,-0.14941368,0.18908643
1764434815.844546,-3.3572,0.88508,0.54936,0.95556396,-0.14941368,0.18908643
1764434815.8455572,-3.3572,0.88508,0.54936,0.95556396,-0.14941368,0.18908643
1764434815.8455572,-3.3572,0.88508,0.54936,0.95556396,-0.14941368,0.18908643
1764434815.8455572,-3.3572,0.88508,0.54936,0.95556396,-0.14941368,0.18908643
1764434815.8455572,-3.3572,0.88508,0.54936,0.95556396,-0.14941368,0.18908643
1764434815.8455572,-3.3572,0.88508,0.54936,0.95556396,-0.14941368,0.18908643
1764434815.8455572,-3.3572,0.88508,0.54936,0.95556396,-0.14941368,0.18908643
1764434815.8455572,-3.3572,0.88508,0.54936,0.95556396,-0.14941368,0.18908643
1764434815.8455572,-3.3572,0.88508,0.54936,0.95556396,-0.14941368,0.18908643
1764434815.8924184,-2.86888,0.5341,0.73248,0.95629638,-0.150573345,0.18872022
1764434815.8924184,-2.86888,0.5341,0.73248,0.95629638,-0.150573345,0.18872022
1764434815.8924184,-2.86888,0.5341,0.73248,0.95629638,-0.150573345,0.18872022
1764434815.8924184,-2.86888,0.5341,0.73248,0.95629638,-0.150573345,0.18872022
1764434815.8924184,-2.86888,0.5341,0.73248,0.95629638,-0.150573345,0.18872022
1764434815.8924184,-2.86888,0.5341,0.73248,0.95629638,-0.150573345,0.18872022
1764434815.8924184,-2.86888,0.5341,0.73248,0.95629638,-0.150573345,0.18872022
1764434815.8924184,-2.86888,0.5341,0.73248,0.95629638,-0.150573345,0.18872022
1764434815.8924184,-2.86888,0.5341,0.73248,0.95629638,-0.150573345,0.18872022
1764434815.8924184,-2.86888,0.5341,0.73248,0.95629638,-0.150573345,0.18872022
1764434815.8924184,-3.15882,1.12924,0.9156,0.955747065,-0.15124473,0.18908643
1764434815.8924184,-3.15882,1.12924,0.9156,0.955747065,-0.15124473,0.18908643
1764434815.8924184,-3.15882,1.12924,0.9156,0.955747065,-0.15124473,0.18908643
1764434815.8936746,-3.15882,1.12924,0.9156,0.955747065,-0.15124473,0.18908643
1764434815.8936746,-3.15882,1.12924,0.9156,0.955747065,-0.15124473,0.18908643
1764434815.8936746,-3.15882,1.12924,0.9156,0.955747065,-0.15124473,0.18908643
1764434815.8936746,-3.15882,1.12924,0.9156,0.955747065,-0.15124473,0.18908643
1764434815.8936746,-3.15882,1.12924,0.9156,0.955747065,-0.15124473,0.18908643
1764434815.8936746,-3.15882,1.12924,0.9156,0.955747065,-0.15124473,0.18908643
1764434815.8936746,-3.15882,1.12924,0.9156,0.955747065,-0.15124473,0.18908643
1764434815.8936746,-3.44876,0.73248,1.03768,0.95519775,-0.149840925,0.18847608
1764434815.8936746,-3.44876,0.73248,1.03768,0.95519775,-0.149840925,0.18847608
1764434815.8936746,-3.44876,0.73248,1.03768,0.95519775,-0.149840925,0.18847608
1764434815.8936746,-3.44876,0.73248,1.03768,0.95519775,-0.149840925,0.18847608
1764434815.9385517,-3.44876,0.73248,1.03768,0.95519775,-0.149840925,0.18847608
1764434815.9385517,-3.44876,0.73248,1.03768,0.95519775,-0.149840925,0.18847608
1764434815.9385517,-3.44876,0.73248,1.03768,0.95519775,-0.149840925,0.18847608
1764434815.9385517,-3.44876,0.73248,1.03768,0.95519775,-0.149840925,0.18847608
1764434815.9385517,-3.44876,0.73248,1.03768,0.95519775,-0.149840925,0.18847608
1764434815.9385517,-3.44876,0.73248,1.03768,0.95519775,-0.149840925,0.18847608
1764434815.9385517,-3.79974,-0.13734,0.27468,0.955136715,-0.1489254,0.18823194
1764434815.9385517,-3.79974,-0.13734,0.27468,0.955136715,-0.1489254,0.18823194
1764434815.9385517,-3.79974,-0.13734,0.27468,0.955136715,-0.1489254,0.18823194
1764434815.9385517,-3.79974,-0.13734,0.27468,0.955136715,-0.1489254,0.18823194
1764434815.9385517,-3.79974,-0.13734,0.27468,0.955136715,-0.1489254,0.18823194
1764434815.9385517,-3.79974,-0.13734,0.27468,0.955136715,-0.1489254,0.18823194
1764434815.9390576,-3.79974,-0.13734,0.27468,0.955136715,-0.1489254,0.18823194
1764434815.9390576,-3.79974,-0.13734,0.27468,0.955136715,-0.1489254,0.18823194
1764434815.9390576,-3.79974,-0.13734,0.27468,0.955136715,-0.1489254,0.18823194
1764434815.9390576,-3.79974,-0.13734,0.27468,0.955136715,-0.1489254,0.18823194
1764434815.9390576,-4.25754,0.5341,-0.54936,0.958188465,-0.14904747,0.18810987
1764434815.9390576,-4.25754,0.5341,-0.54936,0.958188465,-0.14904747,0.18810987
1764434815.9390576,-4.25754,0.5341,-0.54936,0.958188465,-0.14904747,0.18810987
1764434815.9390576,-4.25754,0.5341,-0.54936,0.958188465,-0.14904747,0.18810987
1764434815.9390576,-4.25754,0.5341,-0.54936,0.958188465,-0.14904747,0.18810987
1764434815.9390576,-4.25754,0.5341,-0.54936,0.958188465,-0.14904747,0.18810987
1764434815.9390576,-4.25754,0.5341,-0.54936,0.958188465,-0.14904747,0.18810987
1764434815.9390576,-4.25754,0.5341,-0.54936,0.958188465,-0.14904747,0.18810987
1764434815.9838324,-4.25754,0.5341,-0.54936,0.958188465,-0.14904747,0.18810987
1764434815.9838324,-4.25754,0.5341,-0.54936,0.958188465,-0.14904747,0.18810987
1764434815.9838324,-4.56274,1.25132,-0.42728,0.95751708,-0.148742295,0.188048835
1764434815.9838324,-4.56274,1.25132,-0.42728,0.95751708,-0.148742295,0.188048835
1764434815.9838324,-4.56274,1.25132,-0.42728,0.95751708,-0.148742295,0.188048835
1764434815.9838324,-4.56274,1.25132,-0.42728,0.95751708,-0.148742295,0.188048835
1764434815.9838324,-4.56274,1.25132,-0.42728,0.95751708,-0.148742295,0.188048835
1764434815.9838324,-4.56274,1.25132,-0.42728,0.95751708,-0.148742295,0.188048835
1764434815.9838324,-4.56274,1.25132,-0.42728,0.95751708,-0.148742295,0.188048835
1764434815.9838324,-4.56274,1.25132,-0.42728,0.95751708,-0.148742295,0.188048835
1764434815.9838324,-4.56274,1.25132,-0.42728,0.95751708,-0.148742295,0.188048835
1764434815.9838324,-4.56274,1.25132,-0.42728,0.95751708,-0.148742295,0.188048835
1764434815.9838324,-4.577999999999999,1.05294,-0.79352,0.95593017,-0.147643665,0.187438485
1764434815.9848278,-4.577999999999999,1.05294,-0.79352,0.95593017,-0.147643665,0.187438485
1764434815.986156,-4.577999999999999,1.05294,-0.79352,0.95593017,-0.147643665,0.187438485
1764434815.986156,-4.577999999999999,1.05294,-0.79352,0.95593017,-0.147643665,0.187438485
1764434815.986156,-4.577999999999999,1.05294,-0.79352,0.95593017,-0.147643665,0.187438485
1764434815.986156,-4.577999999999999,1.05294,-0.79352,0.95593017,-0.147643665,0.187438485
1764434815.986156,-4.577999999999999,1.05294,-0.79352,0.95593017,-0.147643665,0.187438485
1764434815.986156,-4.577999999999999,1.05294,-0.79352,0.95593017,-0.147643665,0.187438485
1764434815.986156,-4.577999999999999,1.05294,-0.79352,0.95593017,-0.147643665,0.187438485
1764434815.986156,-4.577999999999999,1.05294,-0.79352,0.95593017,-0.147643665,0.187438485
1764434815.986156,-4.68482,0.9156,-0.6714399999999999,0.95495361,-0.14733849,0.188048835
1764434815.986156,-4.68482,0.9156,-0.6714399999999999,0.95495361,-0.14733849,0.188048835
1764434816.029951,-4.68482,0.9156,-0.6714399999999999,0.95495361,-0.14733849,0.188048835
1764434816.029951,-4.68482,0.9156,-0.6714399999999999,0.95495361,-0.14733849,0.188048835
1764434816.029951,-4.68482,0.9156,-0.6714399999999999,0.95495361,-0.14733849,0.188048835
1764434816.029951,-4.68482,0.9156,-0.6714399999999999,0.95495361,-0.14733849,0.188048835
1764434816.029951,-4.68482,0.9156,-0.6714399999999999,0.95495361,-0.14733849,0.188048835
1764434816.029951,-4.68482,0.9156,-0.6714399999999999,0.95495361,-0.14733849,0.188048835
1764434816.029951,-4.68482,0.9156,-0.6714399999999999,0.95495361,-0.14733849,0.188048835
1764434816.029951,-4.68482,0.9156,-0.6714399999999999,0.95495361,-0.14733849,0.188048835
1764434816.0304575,-4.18124,1.11398,-0.50358,0.95470947,-0.148131945,0.188537115
1764434816.0304575,-4.18124,1.11398,-0.50358,0.95470947,-0.148131945,0.188537115
1764434816.0304575,-4.18124,1.11398,-0.50358,0.95470947,-0.148131945,0.188537115
1764434816.0304575,-4.18124,1.11398,-0.50358,0.95470947,-0.148131945,0.188537115
1764434816.0304575,-4.18124,1.11398,-0.50358,0.95470947,-0.148131945,0.188537115
1764434816.0304575,-4.18124,1.11398,-0.50358,0.95470947,-0.148131945,0.188537115
1764434816.0304575,-4.18124,1.11398,-0.50358,0.95470947,-0.148131945,0.188537115
1764434816.0304575,-4.18124,1.11398,-0.50358,0.95470947,-0.148131945,0.188537115
1764434816.0304575,-4.18124,1.11398,-0.50358,0.95470947,-0.148131945,0.188537115
1764434816.0304575,-4.18124,1.11398,-0.50358,0.95470947,-0.148131945,0.188537115
1764434816.0304575,-4.0439,0.93086,0.12208,0.95483154,-0.148986435,0.18896436
1764434816.0304575,-4.0439,0.93086,0.12208,0.95483154,-0.148986435,0.18896436
1764434816.0304575,-4.0439,0.93086,0.12208,0.95483154,-0.148986435,0.18896436
1764434816.0304575,-4.0439,0.93086,0.12208,0.95483154,-0.148986435,0.18896436
1764434816.0771222,-4.0439,0.93086,0.12208,0.95483154,-0.148986435,0.18896436
1764434816.0771222,-4.0439,0.93086,0.12208,0.95483154,-0.148986435,0.18896436
1764434816.0771222,-4.0439,0.93086,0.12208,0.95483154,-0.148986435,0.18896436
1764434816.0771222,-4.0439,0.93086,0.12208,0.95483154,-0.148986435,0.18896436
1764434816.0771222,-4.0439,0.93086,0.12208,0.95483154,-0.148986435,0.18896436
1764434816.0771222,-4.0439,0.93086,0.12208,0.95483154,-0.148986435,0.18896436
1764434816.0781338,-2.91466,0.73248,0.44254,0.95568603,-0.149352645,0.189025395
1764434816.0781338,-2.91466,0.73248,0.44254,0.95568603,-0.149352645,0.189025395
1764434816.0781338,-2.91466,0.73248,0.44254,0.95568603,-0.149352645,0.189025395
1764434816.0781338,-2.91466,0.73248,0.44254,0.95568603,-0.149352645,0.189025395
1764434816.0781338,-2.91466,0.73248,0.44254,0.95568603,-0.149352645,0.189025395
1764434816.0781338,-2.91466,0.73248,0.44254,0.95568603,-0.149352645,0.189025395
1764434816.0781338,-2.91466,0.73248,0.44254,0.95568603,-0.149352645,0.189025395
1764434816.0781338,-2.91466,0.73248,0.44254,0.95568603,-0.149352645,0.189025395
1764434816.0781338,-2.91466,0.73248,0.44254,0.95568603,-0.149352645,0.189025395
1764434816.0781338,-2.91466,0.73248,0.44254,0.95568603,-0.149352645,0.189025395
1764434816.0781338,-3.11304,0.94612,0.77826,0.955991205,-0.1489254,0.18847608
1764434816.0781338,-3.11304,0.94612,0.77826,0.955991205,-0.1489254,0.18847608
1764434816.0781338,-3.11304,0.94612,0.77826,0.955991205,-0.1489254,0.18847608
1764434816.0781338,-3.11304,0.94612,0.77826,0.955991205,-0.1489254,0.18847608
1764434816.0781338,-3.11304,0.94612,0.77826,0.955991205,-0.1489254,0.18847608
1764434816.0781338,-3.11304,0.94612,0.77826,0.955991205,-0.1489254,0.18847608
1764434816.125106,-3.11304,0.94612,0.77826,0.955991205,-0.1489254,0.18847608
1764434816.125619,-3.11304,0.94612,0.77826,0.955991205,-0.1489254,0.18847608
1764434816.125619,-3.11304,0.94612,0.77826,0.955991205,-0.1489254,0.18847608
1764434816.125619,-3.11304,0.94612,0.77826,0.955991205,-0.1489254,0.18847608
1764434816.125619,-3.17408,1.35814,0.73248,0.956601555,-0.148498155,0.187804695
1764434816.125619,-3.17408,1.35814,0.73248,0.956601555,-0.148498155,0.187804695
1764434816.125619,-3.17408,1.35814,0.73248,0.956601555,-0.148498155,0.187804695
1764434816.125619,-3.17408,1.35814,0.73248,0.956601555,-0.148498155,0.187804695
1764434816.125619,-3.17408,1.35814,0.73248,0.956601555,-0.148498155,0.187804695
1764434816.125619,-3.17408,1.35814,0.73248,0.956601555,-0.148498155,0.187804695
1764434816.125619,-3.17408,1.35814,0.73248,0.956601555,-0.148498155,0.187804695
1764434816.125619,-3.17408,1.35814,0.73248,0.956601555,-0.148498155,0.187804695
1764434816.125619,-3.17408,1.35814,0.73248,0.956601555,-0.148498155,0.187804695
1764434816.125619,-3.17408,1.35814,0.73248,0.956601555,-0.148498155,0.187804695
1764434816.125619,-3.31142,1.9075,1.09872,0.957578115,-0.14855919,0.18823194
1764434816.125619,-3.31142,1.9075,1.09872,0.957578115,-0.14855919,0.18823194
1764434816.125619,-3.31142,1.9075,1.09872,0.957578115,-0.14855919,0.18823194
1764434816.125619,-3.31142,1.9075,1.09872,0.957578115,-0.14855919,0.18823194
1764434816.125619,-3.31142,1.9075,1.09872,0.957578115,-0.14855919,0.18823194
1764434816.125619,-3.31142,1.9075,1.09872,0.957578115,-0.14855919,0.18823194
1764434816.125619,-3.31142,1.9075,1.09872,0.957578115,-0.14855919,0.18823194
1764434816.125619,-3.31142,1.9075,1.09872,0.957578115,-0.14855919,0.18823194
1764434816.125619,-3.31142,1.9075,1.09872,0.957578115,-0.14855919,0.18823194
1764434816.125619,-3.31142,1.9075,1.09872,0.957578115,-0.14855919,0.18823194
1764434816.125619,-3.6624,0.9919,1.11398,0.956357415,-0.148986435,0.18786573
1764434816.125619,-3.6624,0.9919,1.11398,0.956357415,-0.148986435,0.18786573
1764434816.1722164,-3.6624,0.9919,1.11398,0.956357415,-0.148986435,0.18786573
1764434816.1722164,-3.6624,0.9919,1.11398,0.956357415,-0.148986435,0.18786573
1764434816.1722164,-3.6624,0.9919,1.11398,0.956357415,-0.148986435,0.18786573
1764434816.1722164,-3.6624,0.9919,1.11398,0.956357415,-0.148986435,0.18786573
1764434816.1722164,-3.6624,0.9919,1.11398,0.956357415,-0.148986435,0.18786573
1764434816.1722164,-3.6624,0.9919,1.11398,0.956357415,-0.148986435,0.18786573
1764434816.1722164,-3.6624,0.9919,1.11398,0.956357415,-0.148986435,0.18786573
1764434816.1722164,-3.6624,0.9919,1.11398,0.956357415,-0.148986435,0.18786573
1764434816.1722164,-3.72344,1.2208,0.82404,0.955869135,-0.148864365,0.187560555
1764434816.1722164,-3.72344,1.2208,0.82404,0.955869135,-0.148864365,0.187560555
1764434816.1722164,-3.72344,1.2208,0.82404,0.955869135,-0.148864365,0.187560555
1764434816.173229,-3.72344,1.2208,0.82404,0.955869135,-0.148864365,0.187560555
1764434816.173229,-3.72344,1.2208,0.82404,0.955869135,-0.148864365,0.187560555
1764434816.173229,-3.72344,1.2208,0.82404,0.955869135,-0.148864365,0.187560555
1764434816.173229,-3.72344,1.2208,0.82404,0.955869135,-0.148864365,0.187560555
1764434816.173229,-3.72344,1.2208,0.82404,0.955869135,-0.148864365,0.187560555
1764434816.173229,-3.72344,1.2208,0.82404,0.955869135,-0.148864365,0.187560555
1764434816.173229,-3.72344,1.2208,0.82404,0.955869135,-0.148864365,0.187560555
1764434816.173229,-3.76922,0.96138,0.74774,0.95690673,-0.149230575,0.188048835
1764434816.173229,-3.76922,0.96138,0.74774,0.95690673,-0.149230575,0.188048835
1764434816.173229,-3.76922,0.96138,0.74774,0.95690673,-0.149230575,0.188048835
1764434816.173229,-3.76922,0.96138,0.74774,0.95690673,-0.149230575,0.188048835
1764434816.2166734,-3.76922,0.96138,0.74774,0.95690673,-0.149230575,0.188048835
1764434816.217672,-3.76922,0.96138,0.74774,0.95690673,-0.149230575,0.188048835
1764434816.217672,-3.76922,0.96138,0.74774,0.95690673,-0.149230575,0.188048835
1764434816.217672,-3.76922,0.96138,0.74774,0.95690673,-0.149230575,0.188048835
1764434816.217672,-3.76922,0.96138,0.74774,0.95690673,-0.149230575,0.188048835
1764434816.217672,-3.76922,0.96138,0.74774,0.95690673,-0.149230575,0.188048835
1764434816.217672,-3.67766,1.34288,0.9156,0.956967765,-0.149840925,0.18835401
1764434816.217672,-3.67766,1.34288,0.9156,0.956967765,-0.149840925,0.18835401
1764434816.217672,-3.67766,1.34288,0.9156,0.956967765,-0.149840925,0.18835401
1764434816.217672,-3.67766,1.34288,0.9156,0.956967765,-0.149840925,0.18835401
1764434816.217672,-3.67766,1.34288,0.9156,0.956967765,-0.149840925,0.18835401
1764434816.217672,-3.67766,1.34288,0.9156,0.956967765,-0.149840925,0.18835401
1764434816.217672,-3.67766,1.34288,0.9156,0.956967765,-0.149840925,0.18835401
1764434816.217672,-3.67766,1.34288,0.9156,0.956967765,-0.149840925,0.18835401
1764434816.217672,-3.67766,1.34288,0.9156,0.956967765,-0.149840925,0.18835401
1764434816.217672,-3.67766,1.34288,0.9156,0.956967765,-0.149840925,0.18835401
1764434816.2186637,-3.7387,1.2055399999999998,0.8087799999999999,0.955747065,-0.15026817,0.188170905
1764434816.2186637,-3.7387,1.2055399999999998,0.8087799999999999,0.955747065,-0.15026817,0.188170905
1764434816.2186637,-3.7387,1.2055399999999998,0.8087799999999999,0.955747065,-0.15026817,0.188170905
1764434816.2186637,-3.7387,1.2055399999999998,0.8087799999999999,0.955747065,-0.15026817,0.188170905
1764434816.2186637,-3.7387,1.2055399999999998,0.8087799999999999,0.955747065,-0.15026817,0.188170905
1764434816.2186637,-3.7387,1.2055399999999998,0.8087799999999999,0.955747065,-0.15026817,0.188170905
1764434816.2186637,-3.7387,1.2055399999999998,0.8087799999999999,0.955747065,-0.15026817,0.188170905
1764434816.2186637,-3.7387,1.2055399999999998,0.8087799999999999,0.955747065,-0.15026817,0.188170905
1764434816.2622497,-3.7387,1.2055399999999998,0.8087799999999999,0.955747065,-0.15026817,0.188170905
1764434816.2622497,-3.7387,1.2055399999999998,0.8087799999999999,0.955747065,-0.15026817,0.188170905
1764434816.2622497,-3.52506,0.94612,0.3051999999999999,0.95397705,-0.14977989,0.188537115
1764434816.2622497,-3.52506,0.94612,0.3051999999999999,0.95397705,-0.14977989,0.188537115
1764434816.2622497,-3.52506,0.94612,0.3051999999999999,0.95397705,-0.14977989,0.188537115
1764434816.2622497,-3.52506,0.94612,0.3051999999999999,0.95397705,-0.14977989,0.188537115
1764434816.2632582,-3.52506,0.94612,0.3051999999999999,0.95397705,-0.14977989,0.188537115
1764434816.2632582,-3.52506,0.94612,0.3051999999999999,0.95397705,-0.14977989,0.188537115
1764434816.2632582,-3.52506,0.94612,0.3051999999999999,0.95397705,-0.14977989,0.188537115
1764434816.2632582,-3.52506,0.94612,0.3051999999999999,0.95397705,-0.14977989,0.188537115
1764434816.2632582,-3.52506,0.94612,0.3051999999999999,0.95397705,-0.14977989,0.188537115
1764434816.2632582,-3.52506,0.94612,0.3051999999999999,0.95397705,-0.14977989,0.188537115
1764434816.2632582,-3.76922,0.93086,0.27468,0.954038085,-0.14929161,0.18872022
1764434816.2632582,-3.76922,0.93086,0.27468,0.954038085,-0.14929161,0.18872022
1764434816.2632582,-3.76922,0.93086,0.27468,0.954038085,-0.14929161,0.18872022
1764434816.2632582,-3.76922,0.93086,0.27468,0.954038085,-0.14929161,0.18872022
1764434816.2632582,-3.76922,0.93086,0.27468,0.954038085,-0.14929161,0.18872022
1764434816.2632582,-3.76922,0.93086,0.27468,0.954038085,-0.14929161,0.18872022
1764434816.2632582,-3.76922,0.93086,0.27468,0.954038085,-0.14929161,0.18872022
1764434816.2632582,-3.76922,0.93086,0.27468,0.954038085,-0.14929161,0.18872022
1764434816.2632582,-3.76922,0.93086,0.27468,0.954038085,-0.14929161,0.18872022
1764434816.2632582,-3.76922,0.93086,0.27468,0.954038085,-0.14929161,0.18872022
1764434816.30663,-4.059159999999999,0.82404,-0.18312,0.95470947,-0.14904747,0.18823194
1764434816.30663,-4.059159999999999,0.82404,-0.18312,0.95470947,-0.14904747,0.18823194
1764434816.30663,-4.059159999999999,0.82404,-0.18312,0.95470947,-0.14904747,0.18823194
1764434816.30663,-4.059159999999999,0.82404,-0.18312,0.95470947,-0.14904747,0.18823194
1764434816.30663,-4.059159999999999,0.82404,-0.18312,0.95470947,-0.14904747,0.18823194
1764434816.30663,-4.059159999999999,0.82404,-0.18312,0.95470947,-0.14904747,0.18823194
1764434816.30663,-4.059159999999999,0.82404,-0.18312,0.95470947,-0.14904747,0.18823194
1764434816.30663,-4.059159999999999,0.82404,-0.18312,0.95470947,-0.14904747,0.18823194
1764434816.30663,-4.059159999999999,0.82404,-0.18312,0.95470947,-0.14904747,0.18823194
1764434816.30663,-4.059159999999999,0.82404,-0.18312,0.95470947,-0.14904747,0.18823194
1764434816.3081691,-3.87604,1.05294,-0.12208,0.95519775,-0.149352645,0.18884229
1764434816.3081691,-3.87604,1.05294,-0.12208,0.95519775,-0.149352645,0.18884229
1764434816.3081691,-3.87604,1.05294,-0.12208,0.95519775,-0.149352645,0.18884229
1764434816.3081691,-3.87604,1.05294,-0.12208,0.95519775,-0.149352645,0.18884229
1764434816.3081691,-3.87604,1.05294,-0.12208,0.95519775,-0.149352645,0.18884229
1764434816.3081691,-3.87604,1.05294,-0.12208,0.95519775,-0.149352645,0.18884229
1764434816.3081691,-3.87604,1.05294,-0.12208,0.95519775,-0.149352645,0.18884229
1764434816.3081691,-3.87604,1.05294,-0.12208,0.95519775,-0.149352645,0.18884229
1764434816.3081691,-3.87604,1.05294,-0.12208,0.95519775,-0.149352645,0.18884229
1764434816.3081691,-3.87604,1.05294,-0.12208,0.95519775,-0.149352645,0.18884229
1764434816.3081691,-3.8913,1.32762,0.10682,0.956113275,-0.14855919,0.188170905
1764434816.3081691,-3.8913,1.32762,0.10682,0.956113275,-0.14855919,0.188170905
1764434816.35647,-3.8913,1.32762,0.10682,0.956113275,-0.14855919,0.188170905
1764434816.35647,-3.8913,1.32762,0.10682,0.956113275,-0.14855919,0.188170905
1764434816.35647,-3.8913,1.32762,0.10682,0.956113275,-0.14855919,0.188170905
1764434816.35647,-3.8913,1.32762,0.10682,0.956113275,-0.14855919,0.188170905
1764434816.35647,-3.8913,1.32762,0.10682,0.956113275,-0.14855919,0.188170905
1764434816.35647,-3.8913,1.32762,0.10682,0.956113275,-0.14855919,0.188170905
1764434816.35647,-3.8913,1.32762,0.10682,0.956113275,-0.14855919,0.188170905
1764434816.35647,-3.8913,1.32762,0.10682,0.956113275,-0.14855919,0.188170905
1764434816.35647,-4.07442,1.17502,-0.12208,0.956601555,-0.14904747,0.18810987
1764434816.35647,-4.07442,1.17502,-0.12208,0.956601555,-0.14904747,0.18810987
1764434816.35647,-4.07442,1.17502,-0.12208,0.956601555,-0.14904747,0.18810987
1764434816.35647,-4.07442,1.17502,-0.12208,0.956601555,-0.14904747,0.18810987
1764434816.35647,-4.07442,1.17502,-0.12208,0.956601555,-0.14904747,0.18810987
1764434816.35647,-4.07442,1.17502,-0.12208,0.956601555,-0.14904747,0.18810987
1764434816.35647,-4.07442,1.17502,-0.12208,0.956601555,-0.14904747,0.18810987
1764434816.35647,-4.07442,1.17502,-0.12208,0.956601555,-0.14904747,0.18810987
1764434816.35647,-4.07442,1.17502,-0.12208,0.956601555,-0.14904747,0.18810987
1764434816.35647,-4.07442,1.17502,-0.12208,0.956601555,-0.14904747,0.18810987
1764434816.35647,-3.86078,1.23606,0.19838,0.957089835,-0.14880333,0.188292975
1764434816.35647,-3.86078,1.23606,0.19838,0.957089835,-0.14880333,0.188292975
1764434816.35647,-3.86078,1.23606,0.19838,0.957089835,-0.14880333,0.188292975
1764434816.35647,-3.86078,1.23606,0.19838,0.957089835,-0.14880333,0.188292975
1764434816.35647,-3.86078,1.23606,0.19838,0.957089835,-0.14880333,0.188292975
1764434816.35647,-3.86078,1.23606,0.19838,0.957089835,-0.14880333,0.188292975
1764434816.4015243,-3.86078,1.23606,0.19838,0.957089835,-0.14880333,0.188292975
1764434816.4015243,-3.86078,1.23606,0.19838,0.957089835,-0.14880333,0.188292975
1764434816.4015243,-3.86078,1.23606,0.19838,0.957089835,-0.14880333,0.188292975
1764434816.4015243,-3.86078,1.23606,0.19838,0.957089835,-0.14880333,0.188292975
1764434816.4015243,-3.44876,0.94612,0.2289,0.956845695,-0.14916954,0.188903325
1764434816.4015243,-3.44876,0.94612,0.2289,0.956845695,-0.14916954,0.188903325
1764434816.4015243,-3.44876,0.94612,0.2289,0.956845695,-0.14916954,0.188903325
1764434816.4015243,-3.44876,0.94612,0.2289,0.956845695,-0.14916954,0.188903325
1764434816.4015243,-3.44876,0.94612,0.2289,0.956845695,-0.14916954,0.188903325
1764434816.4015243,-3.44876,0.94612,0.2289,0.956845695,-0.14916954,0.188903325
1764434816.4015243,-3.44876,0.94612,0.2289,0.956845695,-0.14916954,0.188903325
1764434816.4015243,-3.44876,0.94612,0.2289,0.956845695,-0.14916954,0.188903325
1764434816.4015243,-3.44876,0.94612,0.2289,0.956845695,-0.14916954,0.188903325
1764434816.4015243,-3.44876,0.94612,0.2289,0.956845695,-0.14916954,0.188903325
1764434816.4025214,-3.3572,0.9156,0.51884,0.95666259,-0.1489254,0.188415045
1764434816.4025214,-3.3572,0.9156,0.51884,0.95666259,-0.1489254,0.188415045
1764434816.4025214,-3.3572,0.9156,0.51884,0.95666259,-0.1489254,0.188415045
1764434816.4030418,-3.3572,0.9156,0.51884,0.95666259,-0.1489254,0.188415045
1764434816.4030418,-3.3572,0.9156,0.51884,0.95666259,-0.1489254,0.188415045
1764434816.4040496,-3.3572,0.9156,0.51884,0.95666259,-0.1489254,0.188415045
1764434816.4040496,-3.3572,0.9156,0.51884,0.95666259,-0.1489254,0.188415045
1764434816.4040496,-3.3572,0.9156,0.51884,0.95666259,-0.1489254,0.188415045
1764434816.4040496,-3.3572,0.9156,0.51884,0.95666259,-0.1489254,0.188415045
1764434816.4040496,-3.3572,0.9156,0.51884,0.95666259,-0.1489254,0.188415045
1764434816.4465284,-2.88414,1.05294,0.74774,0.956845695,-0.148986435,0.18908643
1764434816.4470687,-2.88414,1.05294,0.74774,0.956845695,-0.148986435,0.18908643
1764434816.4470687,-2.88414,1.05294,0.74774,0.956845695,-0.148986435,0.18908643
1764434816.4470687,-2.88414,1.05294,0.74774,0.956845695,-0.148986435,0.18908643
1764434816.4470687,-2.88414,1.05294,0.74774,0.956845695,-0.148986435,0.18908643
1764434816.4470687,-2.88414,1.05294,0.74774,0.956845695,-0.148986435,0.18908643
1764434816.4470687,-2.88414,1.05294,0.74774,0.956845695,-0.148986435,0.18908643
1764434816.4470687,-2.88414,1.05294,0.74774,0.956845695,-0.148986435,0.18908643
1764434816.4470687,-2.88414,1.05294,0.74774,0.956845695,-0.148986435,0.18908643
1764434816.4470687,-2.88414,1.05294,0.74774,0.956845695,-0.148986435,0.18908643
1764434816.448085,-3.17408,0.6103999999999999,0.85456,0.956235345,-0.14782677,0.189025395
1764434816.448085,-3.17408,0.6103999999999999,0.85456,0.956235345,-0.14782677,0.189025395
1764434816.448085,-3.17408,0.6103999999999999,0.85456,0.956235345,-0.14782677,0.189025395
1764434816.448085,-3.17408,0.6103999999999999,0.85456,0.956235345,-0.14782677,0.189025395
1764434816.448085,-3.17408,0.6103999999999999,0.85456,0.956235345,-0.14782677,0.189025395
1764434816.448085,-3.17408,0.6103999999999999,0.85456,0.956235345,-0.14782677,0.189025395
1764434816.448085,-3.17408,0.6103999999999999,0.85456,0.956235345,-0.14782677,0.189025395
1764434816.448085,-3.17408,0.6103999999999999,0.85456,0.956235345,-0.14782677,0.189025395
1764434816.448085,-3.17408,0.6103999999999999,0.85456,0.956235345,-0.14782677,0.189025395
1764434816.448085,-3.17408,0.6103999999999999,0.85456,0.956235345,-0.14782677,0.189025395
1764434816.448085,-3.06726,1.15976,1.35814,0.95495361,-0.14819298,0.18957471
1764434816.448085,-3.06726,1.15976,1.35814,0.95495361,-0.14819298,0.18957471
1764434816.449082,-3.06726,1.15976,1.35814,0.95495361,-0.14819298,0.18957471
1764434816.4495976,-3.06726,1.15976,1.35814,0.95495361,-0.14819298,0.18957471
1764434816.497806,-3.06726,1.15976,1.35814,0.95495361,-0.14819298,0.18957471
1764434816.497806,-3.06726,1.15976,1.35814,0.95495361,-0.14819298,0.18957471
1764434816.497806,-3.06726,1.15976,1.35814,0.95495361,-0.14819298,0.18957471
1764434816.497806,-3.06726,1.15976,1.35814,0.95495361,-0.14819298,0.18957471
1764434816.497806,-3.06726,1.15976,1.35814,0.95495361,-0.14819298,0.18957471
1764434816.497806,-3.06726,1.15976,1.35814,0.95495361,-0.14819298,0.18957471
1764434816.497806,-3.2046,1.09872,1.32762,0.95483154,-0.14831505,0.189635745
1764434816.497806,-3.2046,1.09872,1.32762,0.95483154,-0.14831505,0.189635745
1764434816.4988034,-3.2046,1.09872,1.32762,0.95483154,-0.14831505,0.189635745
1764434816.4988034,-3.2046,1.09872,1.32762,0.95483154,-0.14831505,0.189635745
1764434816.4988034,-3.2046,1.09872,1.32762,0.95483154,-0.14831505,0.189635745
1764434816.4988034,-3.2046,1.09872,1.32762,0.95483154,-0.14831505,0.189635745
1764434816.4988034,-3.2046,1.09872,1.32762,0.95483154,-0.14831505,0.189635745
1764434816.4988034,-3.2046,1.09872,1.32762,0.95483154,-0.14831505,0.189635745
1764434816.4988034,-3.2046,1.09872,1.32762,0.95483154,-0.14831505,0.189635745
1764434816.4988034,-3.2046,1.09872,1.32762,0.95483154,-0.14831505,0.189635745
1764434816.4988034,-3.06726,1.0682,2.24322,0.955380855,-0.149474715,0.189025395
1764434816.4988034,-3.06726,1.0682,2.24322,0.955380855,-0.149474715,0.189025395
1764434816.4988034,-3.06726,1.0682,2.24322,0.955380855,-0.149474715,0.189025395
1764434816.4988034,-3.06726,1.0682,2.24322,0.955380855,-0.149474715,0.189025395
1764434816.4988034,-3.06726,1.0682,2.24322,0.955380855,-0.149474715,0.189025395
1764434816.4988034,-3.06726,1.0682,2.24322,0.955380855,-0.149474715,0.189025395
1764434816.4988034,-3.06726,1.0682,2.24322,0.955380855,-0.149474715,0.189025395
1764434816.4988034,-3.06726,1.0682,2.24322,0.955380855,-0.149474715,0.189025395
1764434816.5417488,-3.06726,1.0682,2.24322,0.955380855,-0.149474715,0.189025395
1764434816.5417488,-3.06726,1.0682,2.24322,0.955380855,-0.149474715,0.189025395
1764434816.5417488,-3.34194,0.71722,1.2208,0.955624995,-0.14794884,0.18835401
1764434816.5417488,-3.34194,0.71722,1.2208,0.955624995,-0.14794884,0.18835401
1764434816.5417488,-3.34194,0.71722,1.2208,0.955624995,-0.14794884,0.18835401
1764434816.5417488,-3.34194,0.71722,1.2208,0.955624995,-0.14794884,0.18835401
1764434816.5417488,-3.34194,0.71722,1.2208,0.955624995,-0.14794884,0.18835401
1764434816.5417488,-3.34194,0.71722,1.2208,0.955624995,-0.14794884,0.18835401
1764434816.5417488,-3.34194,0.71722,1.2208,0.955624995,-0.14794884,0.18835401
1764434816.5432649,-3.34194,0.71722,1.2208,0.955624995,-0.14794884,0.18835401
1764434816.5432649,-3.34194,0.71722,1.2208,0.955624995,-0.14794884,0.18835401
1764434816.5432649,-3.34194,0.71722,1.2208,0.955624995,-0.14794884,0.18835401
1764434816.5432649,-4.0439,0.48832,0.6867,0.956723625,-0.14697228,0.18847608
1764434816.5432649,-4.0439,0.48832,0.6867,0.956723625,-0.14697228,0.18847608
1764434816.5432649,-4.0439,0.48832,0.6867,0.956723625,-0.14697228,0.18847608
1764434816.5432649,-4.0439,0.48832,0.6867,0.956723625,-0.14697228,0.18847608
1764434816.5432649,-4.0439,0.48832,0.6867,0.956723625,-0.14697228,0.18847608
1764434816.5432649,-4.0439,0.48832,0.6867,0.956723625,-0.14697228,0.18847608
1764434816.5432649,-4.0439,0.48832,0.6867,0.956723625,-0.14697228,0.18847608
1764434816.5432649,-4.0439,0.48832,0.6867,0.956723625,-0.14697228,0.18847608
1764434816.586922,-4.0439,0.48832,0.6867,0.956723625,-0.14697228,0.18847608
1764434816.586922,-4.0439,0.48832,0.6867,0.956723625,-0.14697228,0.18847608
1764434816.586922,-3.72344,1.19028,0.21364,0.95800536,-0.147399525,0.18908643
1764434816.586922,-3.72344,1.19028,0.21364,0.95800536,-0.147399525,0.18908643
1764434816.5874338,-3.72344,1.19028,0.21364,0.95800536,-0.147399525,0.18908643
1764434816.5874338,-3.72344,1.19028,0.21364,0.95800536,-0.147399525,0.18908643
1764434816.5874338,-3.72344,1.19028,0.21364,0.95800536,-0.147399525,0.18908643
1764434816.5874338,-3.72344,1.19028,0.21364,0.95800536,-0.147399525,0.18908643
1764434816.5874338,-3.72344,1.19028,0.21364,0.95800536,-0.147399525,0.18908643
1764434816.5874338,-3.72344,1.19028,0.21364,0.95800536,-0.147399525,0.18908643
1764434816.5874338,-3.72344,1.19028,0.21364,0.95800536,-0.147399525,0.18908643
1764434816.5874338,-3.72344,1.19028,0.21364,0.95800536,-0.147399525,0.18908643
1764434816.5879457,-3.87604,0.97664,0.28994,0.956479485,-0.14746056,0.189025395
1764434816.5879457,-3.87604,0.97664,0.28994,0.956479485,-0.14746056,0.189025395
1764434816.5879457,-3.87604,0.97664,0.28994,0.956479485,-0.14746056,0.189025395
1764434816.5879457,-3.87604,0.97664,0.28994,0.956479485,-0.14746056,0.189025395
1764434816.5879457,-3.87604,0.97664,0.28994,0.956479485,-0.14746056,0.189025395
1764434816.5879457,-3.87604,0.97664,0.28994,0.956479485,-0.14746056,0.189025395
1764434816.5879457,-3.87604,0.97664,0.28994,0.956479485,-0.14746056,0.189025395
1764434816.5889616,-3.87604,0.97664,0.28994,0.956479485,-0.14746056,0.189025395
1764434816.5889616,-3.87604,0.97664,0.28994,0.956479485,-0.14746056,0.189025395
1764434816.5889616,-3.87604,0.97664,0.28994,0.956479485,-0.14746056,0.189025395
1764434816.5899622,-3.84552,0.763,0.6409199999999999,0.95446533,-0.147399525,0.18908643
1764434816.5899622,-3.84552,0.763,0.6409199999999999,0.95446533,-0.147399525,0.18908643
1764434816.5899622,-3.84552,0.763,0.6409199999999999,0.95446533,-0.147399525,0.18908643
1764434816.5899622,-3.84552,0.763,0.6409199999999999,0.95446533,-0.147399525,0.18908643
1764434816.638078,-3.84552,0.763,0.6409199999999999,0.95446533,-0.147399525,0.18908643
1764434816.638078,-3.84552,0.763,0.6409199999999999,0.95446533,-0.147399525,0.18908643
1764434816.638078,-3.84552,0.763,0.6409199999999999,0.95446533,-0.147399525,0.18908643
1764434816.638078,-3.84552,0.763,0.6409199999999999,0.95446533,-0.147399525,0.18908643
1764434816.638078,-3.84552,0.763,0.6409199999999999,0.95446533,-0.147399525,0.18908643
1764434816.638078,-3.84552,0.763,0.6409199999999999,0.95446533,-0.147399525,0.18908643
1764434816.638078,-3.8913,0.3204599999999999,1.26658,0.953549805,-0.148131945,0.189391605
1764434816.638078,-3.8913,0.3204599999999999,1.26658,0.953549805,-0.148131945,0.189391605
1764434816.638078,-3.8913,0.3204599999999999,1.26658,0.953549805,-0.148131945,0.189391605
1764434816.638078,-3.8913,0.3204599999999999,1.26658,0.953549805,-0.148131945,0.189391605
1764434816.638078,-3.8913,0.3204599999999999,1.26658,0.953549805,-0.148131945,0.189391605
1764434816.638078,-3.8913,0.3204599999999999,1.26658,0.953549805,-0.148131945,0.189391605
1764434816.638078,-3.8913,0.3204599999999999,1.26658,0.953549805,-0.148131945,0.189391605
1764434816.638078,-3.8913,0.3204599999999999,1.26658,0.953549805,-0.148131945,0.189391605
1764434816.638078,-3.8913,0.3204599999999999,1.26658,0.953549805,-0.148131945,0.189391605
1764434816.638078,-3.8913,0.3204599999999999,1.26658,0.953549805,-0.148131945,0.189391605
1764434816.6390874,-3.54032,0.6714399999999999,1.3734,0.95373291,-0.148131945,0.18859815
1764434816.6390874,-3.54032,0.6714399999999999,1.3734,0.95373291,-0.148131945,0.18859815
1764434816.6390874,-3.54032,0.6714399999999999,1.3734,0.95373291,-0.148131945,0.18859815
1764434816.6390874,-3.54032,0.6714399999999999,1.3734,0.95373291,-0.148131945,0.18859815
1764434816.6390874,-3.54032,0.6714399999999999,1.3734,0.95373291,-0.148131945,0.18859815
1764434816.6390874,-3.54032,0.6714399999999999,1.3734,0.95373291,-0.148131945,0.18859815
1764434816.683633,-3.54032,0.6714399999999999,1.3734,0.95373291,-0.148131945,0.18859815
1764434816.683633,-3.54032,0.6714399999999999,1.3734,0.95373291,-0.148131945,0.18859815
1764434816.683633,-3.54032,0.6714399999999999,1.3734,0.95373291,-0.148131945,0.18859815
1764434816.683633,-3.54032,0.6714399999999999,1.3734,0.95373291,-0.148131945,0.18859815
1764434816.683633,-2.94518,0.763,1.2208,0.95519775,-0.148986435,0.18835401
1764434816.683633,-2.94518,0.763,1.2208,0.95519775,-0.148986435,0.18835401
1764434816.683633,-2.94518,0.763,1.2208,0.95519775,-0.148986435,0.18835401
1764434816.683633,-2.94518,0.763,1.2208,0.95519775,-0.148986435,0.18835401
1764434816.683633,-2.94518,0.763,1.2208,0.95519775,-0.148986435,0.18835401
1764434816.6846457,-2.94518,0.763,1.2208,0.95519775,-0.148986435,0.18835401
1764434816.6846457,-2.94518,0.763,1.2208,0.95519775,-0.148986435,0.18835401
1764434816.6846457,-2.94518,0.763,1.2208,0.95519775,-0.148986435,0.18835401
1764434816.6846457,-2.94518,0.763,1.2208,0.95519775,-0.148986435,0.18835401
1764434816.6846457,-2.94518,0.763,1.2208,0.95519775,-0.148986435,0.18835401
1764434816.6846457,-2.94518,0.79352,1.26658,0.95556396,-0.15051231,0.188170905
1764434816.6846457,-2.94518,0.79352,1.26658,0.95556396,-0.15051231,0.188170905
1764434816.6846457,-2.94518,0.79352,1.26658,0.95556396,-0.15051231,0.188170905
1764434816.6846457,-2.94518,0.79352,1.26658,0.95556396,-0.15051231,0.188170905
1764434816.6846457,-2.94518,0.79352,1.26658,0.95556396,-0.15051231,0.188170905
1764434816.6846457,-2.94518,0.79352,1.26658,0.95556396,-0.15051231,0.188170905
1764434816.6846457,-2.94518,0.79352,1.26658,0.95556396,-0.15051231,0.188170905
1764434816.6846457,-2.94518,0.79352,1.26658,0.95556396,-0.15051231,0.188170905
1764434816.6846457,-2.94518,0.79352,1.26658,0.95556396,-0.15051231,0.188170905
1764434816.6846457,-2.94518,0.79352,1.26658,0.95556396,-0.15051231,0.188170905
1764434816.7287092,-3.00622,0.62566,0.9156,0.95629638,-0.15002403,0.187072275
1764434816.7287092,-3.00622,0.62566,0.9156,0.95629638,-0.15002403,0.187072275
1764434816.7287092,-3.00622,0.62566,0.9156,0.95629638,-0.15002403,0.187072275
1764434816.7287092,-3.00622,0.62566,0.9156,0.95629638,-0.15002403,0.187072275
1764434816.7287092,-3.00622,0.62566,0.9156,0.95629638,-0.15002403,0.187072275
1764434816.7287092,-3.00622,0.62566,0.9156,0.95629638,-0.15002403,0.187072275
1764434816.7287092,-3.00622,0.62566,0.9156,0.95629638,-0.15002403,0.187072275
1764434816.7287092,-3.00622,0.62566,0.9156,0.95629638,-0.15002403,0.187072275
1764434816.7287092,-3.00622,0.62566,0.9156,0.95629638,-0.15002403,0.187072275
1764434816.7287092,-3.00622,0.62566,0.9156,0.95629638,-0.15002403,0.187072275
1764434816.7287092,-3.08252,0.3204599999999999,1.08346,0.956113275,-0.150695415,0.1867671
1764434816.7287092,-3.08252,0.3204599999999999,1.08346,0.956113275,-0.150695415,0.1867671
1764434816.7297251,-3.08252,0.3204599999999999,1.08346,0.956113275,-0.150695415,0.1867671
1764434816.7297251,-3.08252,0.3204599999999999,1.08346,0.956113275,-0.150695415,0.1867671
1764434816.7297251,-3.08252,0.3204599999999999,1.08346,0.956113275,-0.150695415,0.1867671
1764434816.7297251,-3.08252,0.3204599999999999,1.08346,0.956113275,-0.150695415,0.1867671
1764434816.7297251,-3.08252,0.3204599999999999,1.08346,0.956113275,-0.150695415,0.1867671
1764434816.7297251,-3.08252,0.3204599999999999,1.08346,0.956113275,-0.150695415,0.1867671
1764434816.7297251,-3.08252,0.3204599999999999,1.08346,0.956113275,-0.150695415,0.1867671
1764434816.7297251,-3.08252,0.3204599999999999,1.08346,0.956113275,-0.150695415,0.1867671
1764434816.7297251,-3.64714,0.6103999999999999,1.526,0.95568603,-0.15063438,0.18713331
1764434816.7297251,-3.64714,0.6103999999999999,1.526,0.95568603,-0.15063438,0.18713331
1764434816.7297251,-3.64714,0.6103999999999999,1.526,0.95568603,-0.15063438,0.18713331
1764434816.7297251,-3.64714,0.6103999999999999,1.526,0.95568603,-0.15063438,0.18713331
1764434816.772729,-3.64714,0.6103999999999999,1.526,0.95568603,-0.15063438,0.18713331
1764434816.772729,-3.64714,0.6103999999999999,1.526,0.95568603,-0.15063438,0.18713331
1764434816.772729,-3.64714,0.6103999999999999,1.526,0.95568603,-0.15063438,0.18713331
1764434816.772729,-3.64714,0.6103999999999999,1.526,0.95568603,-0.15063438,0.18713331
1764434816.772729,-3.64714,0.6103999999999999,1.526,0.95568603,-0.15063438,0.18713331
1764434816.772729,-3.64714,0.6103999999999999,1.526,0.95568603,-0.15063438,0.18713331
1764434816.772729,-4.22702,0.01526,1.38866,0.955380855,-0.14916954,0.187194345
1764434816.772729,-4.22702,0.01526,1.38866,0.955380855,-0.14916954,0.187194345
1764434816.772729,-4.22702,0.01526,1.38866,0.955380855,-0.14916954,0.187194345
1764434816.772729,-4.22702,0.01526,1.38866,0.955380855,-0.14916954,0.187194345
1764434816.7732396,-4.22702,0.01526,1.38866,0.955380855,-0.14916954,0.187194345
1764434816.7732396,-4.22702,0.01526,1.38866,0.955380855,-0.14916954,0.187194345
1764434816.7732396,-4.22702,0.01526,1.38866,0.955380855,-0.14916954,0.187194345
1764434816.7732396,-4.22702,0.01526,1.38866,0.955380855,-0.14916954,0.187194345
1764434816.7732396,-4.22702,0.01526,1.38866,0.955380855,-0.14916954,0.187194345
1764434816.7732396,-4.22702,0.01526,1.38866,0.955380855,-0.14916954,0.187194345
1764434816.7732396,-4.440659999999999,0.27468,0.94612,0.95641845,-0.14990196,0.187194345
1764434816.7732396,-4.440659999999999,0.27468,0.94612,0.95641845,-0.14990196,0.187194345
1764434816.7732396,-4.440659999999999,0.27468,0.94612,0.95641845,-0.14990196,0.187194345
1764434816.7732396,-4.440659999999999,0.27468,0.94612,0.95641845,-0.14990196,0.187194345
1764434816.7732396,-4.440659999999999,0.27468,0.94612,0.95641845,-0.14990196,0.187194345
1764434816.7732396,-4.440659999999999,0.27468,0.94612,0.95641845,-0.14990196,0.187194345
1764434816.8216517,-4.440659999999999,0.27468,0.94612,0.95641845,-0.14990196,0.187194345
1764434816.8216517,-4.440659999999999,0.27468,0.94612,0.95641845,-0.14990196,0.187194345
1764434816.8216517,-4.440659999999999,0.27468,0.94612,0.95641845,-0.14990196,0.187194345
1764434816.8216517,-4.440659999999999,0.27468,0.94612,0.95641845,-0.14990196,0.187194345
1764434816.8216517,-4.53222,0.7019599999999999,0.39676,0.9570288,-0.15112266,0.18749952
1764434816.8216517,-4.53222,0.7019599999999999,0.39676,0.9570288,-0.15112266,0.18749952
1764434816.8216517,-4.53222,0.7019599999999999,0.39676,0.9570288,-0.15112266,0.18749952
1764434816.8216517,-4.53222,0.7019599999999999,0.39676,0.9570288,-0.15112266,0.18749952
1764434816.8216517,-4.53222,0.7019599999999999,0.39676,0.9570288,-0.15112266,0.18749952
1764434816.8216517,-4.53222,0.7019599999999999,0.39676,0.9570288,-0.15112266,0.18749952
1764434816.8216517,-4.53222,0.7019599999999999,0.39676,0.9570288,-0.15112266,0.18749952
1764434816.8216517,-4.53222,0.7019599999999999,0.39676,0.9570288,-0.15112266,0.18749952
1764434816.8216517,-4.53222,0.7019599999999999,0.39676,0.9570288,-0.15112266,0.18749952
1764434816.8216517,-4.53222,0.7019599999999999,0.39676,0.9570288,-0.15112266,0.18749952
1764434816.8216517,-3.84552,1.15976,-0.3509799999999999,0.95654052,-0.151305765,0.187316415
1764434816.8216517,-3.84552,1.15976,-0.3509799999999999,0.95654052,-0.151305765,0.187316415
1764434816.8216517,-3.84552,1.15976,-0.3509799999999999,0.95654052,-0.151305765,0.187316415
1764434816.8216517,-3.84552,1.15976,-0.3509799999999999,0.95654052,-0.151305765,0.187316415
1764434816.8216517,-3.84552,1.15976,-0.3509799999999999,0.95654052,-0.151305765,0.187316415
1764434816.8216517,-3.84552,1.15976,-0.3509799999999999,0.95654052,-0.151305765,0.187316415
1764434816.8216517,-3.84552,1.15976,-0.3509799999999999,0.95654052,-0.151305765,0.187316415
1764434816.8216517,-3.84552,1.15976,-0.3509799999999999,0.95654052,-0.151305765,0.187316415
1764434816.8216517,-3.84552,1.15976,-0.3509799999999999,0.95654052,-0.151305765,0.187316415
1764434816.8216517,-3.84552,1.15976,-0.3509799999999999,0.95654052,-0.151305765,0.187316415
1764434816.8670733,-3.76922,0.8698199999999999,-0.4578,0.956601555,-0.151549905,0.186706065
1764434816.8670733,-3.76922,0.8698199999999999,-0.4578,0.956601555,-0.151549905,0.186706065
1764434816.8670733,-3.76922,0.8698199999999999,-0.4578,0.956601555,-0.151549905,0.186706065
1764434816.8670733,-3.76922,0.8698199999999999,-0.4578,0.956601555,-0.151549905,0.186706065
1764434816.8670733,-3.76922,0.8698199999999999,-0.4578,0.956601555,-0.151549905,0.186706065
1764434816.8670733,-3.76922,0.8698199999999999,-0.4578,0.956601555,-0.151549905,0.186706065
1764434816.8670733,-3.76922,0.8698199999999999,-0.4578,0.956601555,-0.151549905,0.186706065
1764434816.8670733,-3.76922,0.8698199999999999,-0.4578,0.956601555,-0.151549905,0.186706065
1764434816.8670733,-3.76922,0.8698199999999999,-0.4578,0.956601555,-0.151549905,0.186706065
1764434816.8670733,-3.76922,0.8698199999999999,-0.4578,0.956601555,-0.151549905,0.186706065
1764434816.8670733,-3.87604,0.6867,-0.19838,0.95531982,-0.15075645,0.18640089
1764434816.8670733,-3.87604,0.6867,-0.19838,0.95531982,-0.15075645,0.18640089
1764434816.8670733,-3.87604,0.6867,-0.19838,0.95531982,-0.15075645,0.18640089
1764434816.8670733,-3.87604,0.6867,-0.19838,0.95531982,-0.15075645,0.18640089
1764434816.8670733,-3.87604,0.6867,-0.19838,0.95531982,-0.15075645,0.18640089
1764434816.8670733,-3.87604,0.6867,-0.19838,0.95531982,-0.15075645,0.18640089
1764434816.8670733,-3.87604,0.6867,-0.19838,0.95531982,-0.15075645,0.18640089
1764434816.8681872,-3.87604,0.6867,-0.19838,0.95531982,-0.15075645,0.18640089
1764434816.8681872,-3.87604,0.6867,-0.19838,0.95531982,-0.15075645,0.18640089
1764434816.8681872,-3.87604,0.6867,-0.19838,0.95531982,-0.15075645,0.18640089
1764434816.8681872,-3.37246,0.6714399999999999,-0.24416,0.955136715,-0.15002403,0.186339855
1764434816.8681872,-3.37246,0.6714399999999999,-0.24416,0.955136715,-0.15002403,0.186339855
1764434816.9115455,-3.37246,0.6714399999999999,-0.24416,0.955136715,-0.15002403,0.186339855
1764434816.9115455,-3.37246,0.6714399999999999,-0.24416,0.955136715,-0.15002403,0.186339855
1764434816.9115455,-3.37246,0.6714399999999999,-0.24416,0.955136715,-0.15002403,0.186339855
1764434816.9115455,-3.37246,0.6714399999999999,-0.24416,0.955136715,-0.15002403,0.186339855
1764434816.9115455,-3.37246,0.6714399999999999,-0.24416,0.955136715,-0.15002403,0.186339855
1764434816.9115455,-3.37246,0.6714399999999999,-0.24416,0.955136715,-0.15002403,0.186339855
1764434816.9115455,-3.37246,0.6714399999999999,-0.24416,0.955136715,-0.15002403,0.186339855
1764434816.9115455,-3.37246,0.6714399999999999,-0.24416,0.955136715,-0.15002403,0.186339855
1764434816.9115455,-2.9757,0.74774,3.87604,0.955624995,-0.14941368,0.186339855
1764434816.9115455,-2.9757,0.74774,3.87604,0.955624995,-0.14941368,0.186339855
1764434816.913277,-2.9757,0.74774,3.87604,0.955624995,-0.14941368,0.186339855
1764434816.913277,-2.9757,0.74774,3.87604,0.955624995,-0.14941368,0.186339855
1764434816.913277,-2.9757,0.74774,3.87604,0.955624995,-0.14941368,0.186339855
1764434816.913277,-2.9757,0.74774,3.87604,0.955624995,-0.14941368,0.186339855
1764434816.9142966,-2.9757,0.74774,3.87604,0.955624995,-0.14941368,0.186339855
1764434816.9142966,-2.9757,0.74774,3.87604,0.955624995,-0.14941368,0.186339855
1764434816.9142966,-2.9757,0.74774,3.87604,0.955624995,-0.14941368,0.186339855
1764434816.9152896,-2.9757,0.74774,3.87604,0.955624995,-0.14941368,0.186339855
1764434816.9152896,-3.00622,1.3734,-0.28994,0.95641845,-0.148742295,0.18664503
1764434816.9152896,-3.00622,1.3734,-0.28994,0.95641845,-0.148742295,0.18664503
1764434816.9152896,-3.00622,1.3734,-0.28994,0.95641845,-0.148742295,0.18664503
1764434816.9165418,-3.00622,1.3734,-0.28994,0.95641845,-0.148742295,0.18664503
1764434816.9165418,-3.00622,1.3734,-0.28994,0.95641845,-0.148742295,0.18664503
1764434816.9165418,-3.00622,1.3734,-0.28994,0.95641845,-0.148742295,0.18664503
1764434816.961681,-3.00622,1.3734,-0.28994,0.95641845,-0.148742295,0.18664503
1764434816.961681,-3.00622,1.3734,-0.28994,0.95641845,-0.148742295,0.18664503
1764434816.961681,-3.00622,1.3734,-0.28994,0.95641845,-0.148742295,0.18664503
1764434816.961681,-3.00622,1.3734,-0.28994,0.95641845,-0.148742295,0.18664503
1764434816.961681,-3.23512,0.97664,0.2289,0.956723625,-0.148376085,0.18664503
1764434816.961681,-3.23512,0.97664,0.2289,0.956723625,-0.148376085,0.18664503
1764434816.961681,-3.23512,0.97664,0.2289,0.956723625,-0.148376085,0.18664503
1764434816.961681,-3.23512,0.97664,0.2289,0.956723625,-0.148376085,0.18664503
1764434816.961681,-3.23512,0.97664,0.2289,0.956723625,-0.148376085,0.18664503
1764434816.961681,-3.23512,0.97664,0.2289,0.956723625,-0.148376085,0.18664503
1764434816.961681,-3.23512,0.97664,0.2289,0.956723625,-0.148376085,0.18664503
1764434816.961681,-3.23512,0.97664,0.2289,0.956723625,-0.148376085,0.18664503
1764434816.961681,-3.23512,0.97664,0.2289,0.956723625,-0.148376085,0.18664503
1764434816.961681,-3.23512,0.97664,0.2289,0.956723625,-0.148376085,0.18664503
1764434816.961681,-3.44876,1.35814,0.36624,0.957211905,-0.148254015,0.18615675
1764434816.961681,-3.44876,1.35814,0.36624,0.957211905,-0.148254015,0.18615675
1764434816.961681,-3.44876,1.35814,0.36624,0.957211905,-0.148254015,0.18615675
1764434816.961681,-3.44876,1.35814,0.36624,0.957211905,-0.148254015,0.18615675
1764434816.961681,-3.44876,1.35814,0.36624,0.957211905,-0.148254015,0.18615675
1764434816.961681,-3.44876,1.35814,0.36624,0.957211905,-0.148254015,0.18615675
1764434816.961681,-3.44876,1.35814,0.36624,0.957211905,-0.148254015,0.18615675
1764434816.961681,-3.44876,1.35814,0.36624,0.957211905,-0.148254015,0.18615675
1764434817.0069122,-3.44876,1.35814,0.36624,0.957211905,-0.148254015,0.18615675
1764434817.0069122,-3.44876,1.35814,0.36624,0.957211905,-0.148254015,0.18615675
1764434817.0069122,-3.5098,1.48022,0.6867,0.95617431,-0.147887805,0.18627882
1764434817.0069122,-3.5098,1.48022,0.6867,0.95617431,-0.147887805,0.18627882
1764434817.0069122,-3.5098,1.48022,0.6867,0.95617431,-0.147887805,0.18627882
1764434817.0069122,-3.5098,1.48022,0.6867,0.95617431,-0.147887805,0.18627882
1764434817.0069122,-3.5098,1.48022,0.6867,0.95617431,-0.147887805,0.18627882
1764434817.0069122,-3.5098,1.48022,0.6867,0.95617431,-0.147887805,0.18627882
1764434817.0069122,-3.5098,1.48022,0.6867,0.95617431,-0.147887805,0.18627882
1764434817.0069122,-3.5098,1.48022,0.6867,0.95617431,-0.147887805,0.18627882
1764434817.0069122,-3.5098,1.48022,0.6867,0.95617431,-0.147887805,0.18627882
1764434817.0069122,-3.5098,1.48022,0.6867,0.95617431,-0.147887805,0.18627882
1764434817.0069122,-3.64714,1.4039199999999998,0.9003399999999999,0.956845695,-0.14794884,0.186461925
1764434817.0069122,-3.64714,1.4039199999999998,0.9003399999999999,0.956845695,-0.14794884,0.186461925
1764434817.0069122,-3.64714,1.4039199999999998,0.9003399999999999,0.956845695,-0.14794884,0.186461925
1764434817.0069122,-3.64714,1.4039199999999998,0.9003399999999999,0.956845695,-0.14794884,0.186461925
1764434817.0079105,-3.64714,1.4039199999999998,0.9003399999999999,0.956845695,-0.14794884,0.186461925
1764434817.0079105,-3.64714,1.4039199999999998,0.9003399999999999,0.956845695,-0.14794884,0.186461925
1764434817.0079105,-3.64714,1.4039199999999998,0.9003399999999999,0.956845695,-0.14794884,0.186461925
1764434817.0079105,-3.64714,1.4039199999999998,0.9003399999999999,0.956845695,-0.14794884,0.186461925
1764434817.0079105,-3.64714,1.4039199999999998,0.9003399999999999,0.956845695,-0.14794884,0.186461925
1764434817.0079105,-3.64714,1.4039199999999998,0.9003399999999999,0.956845695,-0.14794884,0.186461925
1764434817.0079105,-3.4335,1.2971,0.6867,0.956845695,-0.148131945,0.18701124
1764434817.0079105,-3.4335,1.2971,0.6867,0.956845695,-0.148131945,0.18701124
1764434817.053573,-3.4335,1.2971,0.6867,0.956845695,-0.148131945,0.18701124
1764434817.053573,-3.4335,1.2971,0.6867,0.956845695,-0.148131945,0.18701124
1764434817.053573,-3.4335,1.2971,0.6867,0.956845695,-0.148131945,0.18701124
1764434817.053573,-3.4335,1.2971,0.6867,0.956845695,-0.148131945,0.18701124
1764434817.053573,-3.4335,1.2971,0.6867,0.956845695,-0.148131945,0.18701124
1764434817.053573,-3.4335,1.2971,0.6867,0.956845695,-0.148131945,0.18701124
1764434817.053573,-3.4335,1.2971,0.6867,0.956845695,-0.148131945,0.18701124
1764434817.053573,-3.4335,1.2971,0.6867,0.956845695,-0.148131945,0.18701124
1764434817.053573,-3.21986,1.3734,0.73248,0.95641845,-0.147887805,0.18725538
1764434817.053573,-3.21986,1.3734,0.73248,0.95641845,-0.147887805,0.18725538
1764434817.053573,-3.21986,1.3734,0.73248,0.95641845,-0.147887805,0.18725538
1764434817.053573,-3.21986,1.3734,0.73248,0.95641845,-0.147887805,0.18725538
1764434817.053573,-3.21986,1.3734,0.73248,0.95641845,-0.147887805,0.18725538
1764434817.053573,-3.21986,1.3734,0.73248,0.95641845,-0.147887805,0.18725538
1764434817.053573,-3.21986,1.3734,0.73248,0.95641845,-0.147887805,0.18725538
1764434817.053573,-3.21986,1.3734,0.73248,0.95641845,-0.147887805,0.18725538
1764434817.0545857,-3.21986,1.3734,0.73248,0.95641845,-0.147887805,0.18725538
1764434817.0545857,-3.21986,1.3734,0.73248,0.95641845,-0.147887805,0.18725538
1764434817.0545857,-2.92992,1.3734,0.88508,0.95568603,-0.14721642,0.1879878
1764434817.0545857,-2.92992,1.3734,0.88508,0.95568603,-0.14721642,0.1879878
1764434817.0545857,-2.92992,1.3734,0.88508,0.95568603,-0.14721642,0.1879878
1764434817.0545857,-2.92992,1.3734,0.88508,0.95568603,-0.14721642,0.1879878
1764434817.0545857,-2.92992,1.3734,0.88508,0.95568603,-0.14721642,0.1879878
1764434817.0545857,-2.92992,1.3734,0.88508,0.95568603,-0.14721642,0.1879878
1764434817.0994308,-2.92992,1.3734,0.88508,0.95568603,-0.14721642,0.1879878
1764434817.0994308,-2.92992,1.3734,0.88508,0.95568603,-0.14721642,0.1879878
1764434817.0994308,-2.92992,1.3734,0.88508,0.95568603,-0.14721642,0.1879878
1764434817.0994308,-2.92992,1.3734,0.88508,0.95568603,-0.14721642,0.1879878
1764434817.0994308,-2.25848,1.1445,0.93086,0.95507568,-0.148376085,0.188537115
1764434817.0994308,-2.25848,1.1445,0.93086,0.95507568,-0.148376085,0.188537115
1764434817.0994308,-2.25848,1.1445,0.93086,0.95507568,-0.148376085,0.188537115
1764434817.0994308,-2.25848,1.1445,0.93086,0.95507568,-0.148376085,0.188537115
1764434817.0994308,-2.25848,1.1445,0.93086,0.95507568,-0.148376085,0.188537115
1764434817.0994308,-2.25848,1.1445,0.93086,0.95507568,-0.148376085,0.188537115
1764434817.0994308,-2.25848,1.1445,0.93086,0.95507568,-0.148376085,0.188537115
1764434817.0994308,-2.25848,1.1445,0.93086,0.95507568,-0.148376085,0.188537115
1764434817.0994308,-2.25848,1.1445,0.93086,0.95507568,-0.148376085,0.188537115
1764434817.1004407,-2.25848,1.1445,0.93086,0.95507568,-0.148376085,0.188537115
1764434817.1004407,-2.04484,1.1445,1.526,0.955014645,-0.148864365,0.18859815
1764434817.1004407,-2.04484,1.1445,1.526,0.955014645,-0.148864365,0.18859815
1764434817.1004407,-2.04484,1.1445,1.526,0.955014645,-0.148864365,0.18859815
1764434817.1004407,-2.04484,1.1445,1.526,0.955014645,-0.148864365,0.18859815
1764434817.1004407,-2.04484,1.1445,1.526,0.955014645,-0.148864365,0.18859815
1764434817.1004407,-2.04484,1.1445,1.526,0.955014645,-0.148864365,0.18859815
1764434817.1004407,-2.04484,1.1445,1.526,0.955014645,-0.148864365,0.18859815
1764434817.1004407,-2.04484,1.1445,1.526,0.955014645,-0.148864365,0.18859815
1764434817.1442523,-2.04484,1.1445,1.526,0.955014645,-0.148864365,0.18859815
1764434817.1442523,-2.04484,1.1445,1.526,0.955014645,-0.148864365,0.18859815
1764434817.1442523,-2.2127,0.3051999999999999,1.70912,0.954404295,-0.147765735,0.18859815
1764434817.1442523,-2.2127,0.3051999999999999,1.70912,0.954404295,-0.147765735,0.18859815
1764434817.1442523,-2.2127,0.3051999999999999,1.70912,0.954404295,-0.147765735,0.18859815
1764434817.1442523,-2.2127,0.3051999999999999,1.70912,0.954404295,-0.147765735,0.18859815
1764434817.1442523,-2.2127,0.3051999999999999,1.70912,0.954404295,-0.147765735,0.18859815
1764434817.1442523,-2.2127,0.3051999999999999,1.70912,0.954404295,-0.147765735,0.18859815
1764434817.1442523,-2.2127,0.3051999999999999,1.70912,0.954404295,-0.147765735,0.18859815
1764434817.1442523,-2.2127,0.3051999999999999,1.70912,0.954404295,-0.147765735,0.18859815
1764434817.1442523,-2.2127,0.3051999999999999,1.70912,0.954404295,-0.147765735,0.18859815
1764434817.1442523,-2.2127,0.3051999999999999,1.70912,0.954404295,-0.147765735,0.18859815
1764434817.1452577,-2.77732,0.28994,1.15976,0.954892575,-0.14709435,0.188292975
1764434817.1452577,-2.77732,0.28994,1.15976,0.954892575,-0.14709435,0.188292975
1764434817.1457758,-2.77732,0.28994,1.15976,0.954892575,-0.14709435,0.188292975
1764434817.1457758,-2.77732,0.28994,1.15976,0.954892575,-0.14709435,0.188292975
1764434817.1457758,-2.77732,0.28994,1.15976,0.954892575,-0.14709435,0.188292975
1764434817.1457758,-2.77732,0.28994,1.15976,0.954892575,-0.14709435,0.188292975
1764434817.1457758,-2.77732,0.28994,1.15976,0.954892575,-0.14709435,0.188292975
1764434817.1457758,-2.77732,0.28994,1.15976,0.954892575,-0.14709435,0.188292975
1764434817.1467886,-2.77732,0.28994,1.15976,0.954892575,-0.14709435,0.188292975
1764434817.1467886,-2.77732,0.28994,1.15976,0.954892575,-0.14709435,0.188292975
1764434817.1467886,-3.09778,1.48022,0.2289,0.95751708,-0.14636193,0.18810987
1764434817.1477892,-3.09778,1.48022,0.2289,0.95751708,-0.14636193,0.18810987
1764434817.1909328,-3.09778,1.48022,0.2289,0.95751708,-0.14636193,0.18810987
1764434817.1909328,-3.09778,1.48022,0.2289,0.95751708,-0.14636193,0.18810987
1764434817.1909328,-3.09778,1.48022,0.2289,0.95751708,-0.14636193,0.18810987
1764434817.1909328,-3.09778,1.48022,0.2289,0.95751708,-0.14636193,0.18810987
1764434817.1909328,-3.09778,1.48022,0.2289,0.95751708,-0.14636193,0.18810987
1764434817.191448,-3.09778,1.48022,0.2289,0.95751708,-0.14636193,0.18810987
1764434817.191448,-3.09778,1.48022,0.2289,0.95751708,-0.14636193,0.18810987
1764434817.191448,-3.09778,1.48022,0.2289,0.95751708,-0.14636193,0.18810987
1764434817.191448,-3.72344,1.55652,0.7019599999999999,0.956967765,-0.14611779,0.187682625
1764434817.191448,-3.72344,1.55652,0.7019599999999999,0.956967765,-0.14611779,0.187682625
1764434817.191448,-3.72344,1.55652,0.7019599999999999,0.956967765,-0.14611779,0.187682625
1764434817.192449,-3.72344,1.55652,0.7019599999999999,0.956967765,-0.14611779,0.187682625
1764434817.192449,-3.72344,1.55652,0.7019599999999999,0.956967765,-0.14611779,0.187682625
1764434817.192449,-3.72344,1.55652,0.7019599999999999,0.956967765,-0.14611779,0.187682625
1764434817.192449,-3.72344,1.55652,0.7019599999999999,0.956967765,-0.14611779,0.187682625
1764434817.192449,-3.72344,1.55652,0.7019599999999999,0.956967765,-0.14611779,0.187682625
1764434817.192449,-3.72344,1.55652,0.7019599999999999,0.956967765,-0.14611779,0.187682625
1764434817.192449,-3.72344,1.55652,0.7019599999999999,0.956967765,-0.14611779,0.187682625
1764434817.192449,-4.4254,1.7549,0.39676,0.95544189,-0.146300895,0.187438485
1764434817.192449,-4.4254,1.7549,0.39676,0.95544189,-0.146300895,0.187438485
1764434817.192449,-4.4254,1.7549,0.39676,0.95544189,-0.146300895,0.187438485
1764434817.192449,-4.4254,1.7549,0.39676,0.95544189,-0.146300895,0.187438485
1764434817.235452,-4.4254,1.7549,0.39676,0.95544189,-0.146300895,0.187438485
1764434817.235452,-4.4254,1.7549,0.39676,0.95544189,-0.146300895,0.187438485
1764434817.235452,-4.4254,1.7549,0.39676,0.95544189,-0.146300895,0.187438485
1764434817.235452,-4.4254,1.7549,0.39676,0.95544189,-0.146300895,0.187438485
1764434817.235452,-4.4254,1.7549,0.39676,0.95544189,-0.146300895,0.187438485
1764434817.235452,-4.4254,1.7549,0.39676,0.95544189,-0.146300895,0.187438485
1764434817.235452,-4.6543,1.0682,0.56462,0.95483154,-0.146178825,0.188170905
1764434817.235452,-4.6543,1.0682,0.56462,0.95483154,-0.146178825,0.188170905
1764434817.235452,-4.6543,1.0682,0.56462,0.95483154,-0.146178825,0.188170905
1764434817.236464,-4.6543,1.0682,0.56462,0.95483154,-0.146178825,0.188170905
1764434817.236464,-4.6543,1.0682,0.56462,0.95483154,-0.146178825,0.188170905
1764434817.236464,-4.6543,1.0682,0.56462,0.95483154,-0.146178825,0.188170905
1764434817.236464,-4.6543,1.0682,0.56462,0.95483154,-0.146178825,0.188170905
1764434817.236464,-4.6543,1.0682,0.56462,0.95483154,-0.146178825,0.188170905
1764434817.236464,-4.6543,1.0682,0.56462,0.95483154,-0.146178825,0.188170905
1764434817.236464,-4.6543,1.0682,0.56462,0.95483154,-0.146178825,0.188170905
1764434817.236464,-4.47118,1.31236,0.7019599999999999,0.95434326,-0.147521595,0.18872022
1764434817.236464,-4.47118,1.31236,0.7019599999999999,0.95434326,-0.147521595,0.18872022
1764434817.236464,-4.47118,1.31236,0.7019599999999999,0.95434326,-0.147521595,0.18872022
1764434817.2368698,-4.47118,1.31236,0.7019599999999999,0.95434326,-0.147521595,0.18872022
1764434817.2368698,-4.47118,1.31236,0.7019599999999999,0.95434326,-0.147521595,0.18872022
1764434817.2368698,-4.47118,1.31236,0.7019599999999999,0.95434326,-0.147521595,0.18872022
1764434817.2368698,-4.47118,1.31236,0.7019599999999999,0.95434326,-0.147521595,0.18872022
1764434817.2368698,-4.47118,1.31236,0.7019599999999999,0.95434326,-0.147521595,0.18872022
1764434817.283988,-4.47118,1.31236,0.7019599999999999,0.95434326,-0.147521595,0.18872022
1764434817.283988,-4.47118,1.31236,0.7019599999999999,0.95434326,-0.147521595,0.18872022
1764434817.283988,-3.69292,1.02242,1.0682,0.9545874,-0.148864365,0.18859815
1764434817.283988,-3.69292,1.02242,1.0682,0.9545874,-0.148864365,0.18859815
1764434817.283988,-3.69292,1.02242,1.0682,0.9545874,-0.148864365,0.18859815
1764434817.283988,-3.69292,1.02242,1.0682,0.9545874,-0.148864365,0.18859815
1764434817.285494,-3.69292,1.02242,1.0682,0.9545874,-0.148864365,0.18859815
1764434817.285494,-3.69292,1.02242,1.0682,0.9545874,-0.148864365,0.18859815
1764434817.285494,-3.69292,1.02242,1.0682,0.9545874,-0.148864365,0.18859815
1764434817.285494,-3.69292,1.02242,1.0682,0.9545874,-0.148864365,0.18859815
1764434817.28639,-3.69292,1.02242,1.0682,0.9545874,-0.148864365,0.18859815
1764434817.28639,-3.69292,1.02242,1.0682,0.9545874,-0.148864365,0.18859815
1764434817.28639,-3.38772,0.6714399999999999,1.48022,0.95470947,-0.14990196,0.189025395
1764434817.28639,-3.38772,0.6714399999999999,1.48022,0.95470947,-0.14990196,0.189025395
1764434817.2874067,-3.38772,0.6714399999999999,1.48022,0.95470947,-0.14990196,0.189025395
1764434817.2874067,-3.38772,0.6714399999999999,1.48022,0.95470947,-0.14990196,0.189025395
1764434817.2874067,-3.38772,0.6714399999999999,1.48022,0.95470947,-0.14990196,0.189025395
1764434817.2874067,-3.38772,0.6714399999999999,1.48022,0.95470947,-0.14990196,0.189025395
1764434817.2874067,-3.38772,0.6714399999999999,1.48022,0.95470947,-0.14990196,0.189025395
1764434817.2874067,-3.38772,0.6714399999999999,1.48022,0.95470947,-0.14990196,0.189025395
1764434817.2874067,-3.38772,0.6714399999999999,1.48022,0.95470947,-0.14990196,0.189025395
1764434817.2874067,-3.38772,0.6714399999999999,1.48022,0.95470947,-0.14990196,0.189025395
1764434817.3310757,-3.08252,0.74774,1.58704,0.9558081,-0.150085065,0.187804695
1764434817.3310757,-3.08252,0.74774,1.58704,0.9558081,-0.150085065,0.187804695
1764434817.3310757,-3.08252,0.74774,1.58704,0.9558081,-0.150085065,0.187804695
1764434817.3310757,-3.08252,0.74774,1.58704,0.9558081,-0.150085065,0.187804695
1764434817.3320782,-3.08252,0.74774,1.58704,0.9558081,-0.150085065,0.187804695
1764434817.3320782,-3.08252,0.74774,1.58704,0.9558081,-0.150085065,0.187804695
1764434817.3320782,-3.08252,0.74774,1.58704,0.9558081,-0.150085065,0.187804695
1764434817.3320782,-3.08252,0.74774,1.58704,0.9558081,-0.150085065,0.187804695
1764434817.3320782,-3.08252,0.74774,1.58704,0.9558081,-0.150085065,0.187804695
1764434817.3320782,-3.08252,0.74774,1.58704,0.9558081,-0.150085065,0.187804695
1764434817.3320782,-3.1283,0.8087799999999999,1.35814,0.956235345,-0.149230575,0.187682625
1764434817.3320782,-3.1283,0.8087799999999999,1.35814,0.956235345,-0.149230575,0.187682625
1764434817.3320782,-3.1283,0.8087799999999999,1.35814,0.956235345,-0.149230575,0.187682625
1764434817.3320782,-3.1283,0.8087799999999999,1.35814,0.956235345,-0.149230575,0.187682625
1764434817.3320782,-3.1283,0.8087799999999999,1.35814,0.956235345,-0.149230575,0.187682625
1764434817.3320782,-3.1283,0.8087799999999999,1.35814,0.956235345,-0.149230575,0.187682625
1764434817.3320782,-3.1283,0.8087799999999999,1.35814,0.956235345,-0.149230575,0.187682625
1764434817.3320782,-3.1283,0.8087799999999999,1.35814,0.956235345,-0.149230575,0.187682625
1764434817.3320782,-3.1283,0.8087799999999999,1.35814,0.956235345,-0.149230575,0.187682625
1764434817.3320782,-3.1283,0.8087799999999999,1.35814,0.956235345,-0.149230575,0.187682625
1764434817.333593,-3.55558,1.09872,1.6786,0.957211905,-0.14977989,0.187560555
1764434817.333593,-3.55558,1.09872,1.6786,0.957211905,-0.14977989,0.187560555
1764434817.3767183,-3.55558,1.09872,1.6786,0.957211905,-0.14977989,0.187560555
1764434817.3767183,-3.55558,1.09872,1.6786,0.957211905,-0.14977989,0.187560555
1764434817.3767183,-3.55558,1.09872,1.6786,0.957211905,-0.14977989,0.187560555
1764434817.3767183,-3.55558,1.09872,1.6786,0.957211905,-0.14977989,0.187560555
1764434817.3767183,-3.55558,1.09872,1.6786,0.957211905,-0.14977989,0.187560555
1764434817.3767183,-3.55558,1.09872,1.6786,0.957211905,-0.14977989,0.187560555
1764434817.3767183,-3.55558,1.09872,1.6786,0.957211905,-0.14977989,0.187560555
1764434817.3767183,-3.55558,1.09872,1.6786,0.957211905,-0.14977989,0.187560555
1764434817.3767183,-3.67766,1.17502,1.64808,0.956601555,-0.1501461,0.187926765
1764434817.3767183,-3.67766,1.17502,1.64808,0.956601555,-0.1501461,0.187926765
1764434817.3767183,-3.67766,1.17502,1.64808,0.956601555,-0.1501461,0.187926765
1764434817.3767183,-3.67766,1.17502,1.64808,0.956601555,-0.1501461,0.187926765
1764434817.3767183,-3.67766,1.17502,1.64808,0.956601555,-0.1501461,0.187926765
1764434817.3767183,-3.67766,1.17502,1.64808,0.956601555,-0.1501461,0.187926765
1764434817.3777428,-3.67766,1.17502,1.64808,0.956601555,-0.1501461,0.187926765
1764434817.3777428,-3.67766,1.17502,1.64808,0.956601555,-0.1501461,0.187926765
1764434817.3777428,-3.67766,1.17502,1.64808,0.956601555,-0.1501461,0.187926765
1764434817.3777428,-3.67766,1.17502,1.64808,0.956601555,-0.1501461,0.187926765
1764434817.3777428,-3.8913,0.62566,1.02242,0.954892575,-0.149962995,0.18762159
1764434817.3777428,-3.8913,0.62566,1.02242,0.954892575,-0.149962995,0.18762159
1764434817.3777428,-3.8913,0.62566,1.02242,0.954892575,-0.149962995,0.18762159
1764434817.3777428,-3.8913,0.62566,1.02242,0.954892575,-0.149962995,0.18762159
1764434817.3777428,-3.8913,0.62566,1.02242,0.954892575,-0.149962995,0.18762159
1764434817.3777428,-3.8913,0.62566,1.02242,0.954892575,-0.149962995,0.18762159
1764434817.4215674,-3.8913,0.62566,1.02242,0.954892575,-0.149962995,0.18762159
1764434817.4215674,-3.8913,0.62566,1.02242,0.954892575,-0.149962995,0.18762159
1764434817.4215674,-3.8913,0.62566,1.02242,0.954892575,-0.149962995,0.18762159
1764434817.4215674,-3.8913,0.62566,1.02242,0.954892575,-0.149962995,0.18762159
1764434817.4220994,-4.31858,0.7019599999999999,0.763,0.955624995,-0.15026817,0.18749952
1764434817.4220994,-4.31858,0.7019599999999999,0.763,0.955624995,-0.15026817,0.18749952
1764434817.4220994,-4.31858,0.7019599999999999,0.763,0.955624995,-0.15026817,0.18749952
1764434817.4220994,-4.31858,0.7019599999999999,0.763,0.955624995,-0.15026817,0.18749952
1764434817.4220994,-4.31858,0.7019599999999999,0.763,0.955624995,-0.15026817,0.18749952
1764434817.4220994,-4.31858,0.7019599999999999,0.763,0.955624995,-0.15026817,0.18749952
1764434817.4220994,-4.31858,0.7019599999999999,0.763,0.955624995,-0.15026817,0.18749952
1764434817.4220994,-4.31858,0.7019599999999999,0.763,0.955624995,-0.15026817,0.18749952
1764434817.4220994,-4.31858,0.7019599999999999,0.763,0.955624995,-0.15026817,0.18749952
1764434817.4220994,-4.31858,0.7019599999999999,0.763,0.955624995,-0.15026817,0.18749952
1764434817.4220994,-4.18124,0.6867,0.3509799999999999,0.95629638,-0.15087852,0.188170905
1764434817.4220994,-4.18124,0.6867,0.3509799999999999,0.95629638,-0.15087852,0.188170905
1764434817.4220994,-4.18124,0.6867,0.3509799999999999,0.95629638,-0.15087852,0.188170905
1764434817.4220994,-4.18124,0.6867,0.3509799999999999,0.95629638,-0.15087852,0.188170905
1764434817.4220994,-4.18124,0.6867,0.3509799999999999,0.95629638,-0.15087852,0.188170905
1764434817.4220994,-4.18124,0.6867,0.3509799999999999,0.95629638,-0.15087852,0.188170905
1764434817.4220994,-4.18124,0.6867,0.3509799999999999,0.95629638,-0.15087852,0.188170905
1764434817.4220994,-4.18124,0.6867,0.3509799999999999,0.95629638,-0.15087852,0.188170905
1764434817.4220994,-4.18124,0.6867,0.3509799999999999,0.95629638,-0.15087852,0.188170905
1764434817.4220994,-4.18124,0.6867,0.3509799999999999,0.95629638,-0.15087852,0.188170905
1764434817.469106,-3.84552,0.9003399999999999,0.6409199999999999,0.955258785,-0.15063438,0.187438485
1764434817.469106,-3.84552,0.9003399999999999,0.6409199999999999,0.955258785,-0.15063438,0.187438485
1764434817.470163,-3.84552,0.9003399999999999,0.6409199999999999,0.955258785,-0.15063438,0.187438485
1764434817.470163,-3.84552,0.9003399999999999,0.6409199999999999,0.955258785,-0.15063438,0.187438485
1764434817.470163,-3.84552,0.9003399999999999,0.6409199999999999,0.955258785,-0.15063438,0.187438485
1764434817.470163,-3.84552,0.9003399999999999,0.6409199999999999,0.955258785,-0.15063438,0.187438485
1764434817.470163,-3.84552,0.9003399999999999,0.6409199999999999,0.955258785,-0.15063438,0.187438485
1764434817.470163,-3.84552,0.9003399999999999,0.6409199999999999,0.955258785,-0.15063438,0.187438485
1764434817.470163,-3.84552,0.9003399999999999,0.6409199999999999,0.955258785,-0.15063438,0.187438485
1764434817.470163,-3.84552,0.9003399999999999,0.6409199999999999,0.955258785,-0.15063438,0.187438485
1764434817.470163,-4.3491,0.94612,0.6103999999999999,0.95507568,-0.14965782,0.18713331
1764434817.470163,-4.3491,0.94612,0.6103999999999999,0.95507568,-0.14965782,0.18713331
1764434817.470163,-4.3491,0.94612,0.6103999999999999,0.95507568,-0.14965782,0.18713331
1764434817.470163,-4.3491,0.94612,0.6103999999999999,0.95507568,-0.14965782,0.18713331
1764434817.470163,-4.3491,0.94612,0.6103999999999999,0.95507568,-0.14965782,0.18713331
1764434817.470163,-4.3491,0.94612,0.6103999999999999,0.95507568,-0.14965782,0.18713331
1764434817.470163,-4.3491,0.94612,0.6103999999999999,0.95507568,-0.14965782,0.18713331
1764434817.470163,-4.3491,0.94612,0.6103999999999999,0.95507568,-0.14965782,0.18713331
1764434817.470163,-4.3491,0.94612,0.6103999999999999,0.95507568,-0.14965782,0.18713331
1764434817.470163,-4.3491,0.94612,0.6103999999999999,0.95507568,-0.14965782,0.18713331
1764434817.470163,-4.21176,0.74774,0.1678599999999999,0.95483154,-0.14904747,0.18701124
1764434817.470163,-4.21176,0.74774,0.1678599999999999,0.95483154,-0.14904747,0.18701124
1764434817.470163,-4.21176,0.74774,0.1678599999999999,0.95483154,-0.14904747,0.18701124
1764434817.470163,-4.21176,0.74774,0.1678599999999999,0.95483154,-0.14904747,0.18701124
1764434817.516845,-4.21176,0.74774,0.1678599999999999,0.95483154,-0.14904747,0.18701124
1764434817.516845,-4.21176,0.74774,0.1678599999999999,0.95483154,-0.14904747,0.18701124
1764434817.516845,-4.21176,0.74774,0.1678599999999999,0.95483154,-0.14904747,0.18701124
1764434817.516845,-4.21176,0.74774,0.1678599999999999,0.95483154,-0.14904747,0.18701124
1764434817.516845,-4.21176,0.74774,0.1678599999999999,0.95483154,-0.14904747,0.18701124
1764434817.516845,-4.21176,0.74774,0.1678599999999999,0.95483154,-0.14904747,0.18701124
1764434817.516845,-4.4254,0.763,0.13734,0.954404295,-0.14868126,0.18664503
1764434817.516845,-4.4254,0.763,0.13734,0.954404295,-0.14868126,0.18664503
1764434817.516845,-4.4254,0.763,0.13734,0.954404295,-0.14868126,0.18664503
1764434817.516845,-4.4254,0.763,0.13734,0.954404295,-0.14868126,0.18664503
1764434817.516845,-4.4254,0.763,0.13734,0.954404295,-0.14868126,0.18664503
1764434817.516845,-4.4254,0.763,0.13734,0.954404295,-0.14868126,0.18664503
1764434817.516845,-4.4254,0.763,0.13734,0.954404295,-0.14868126,0.18664503
1764434817.516845,-4.4254,0.763,0.13734,0.954404295,-0.14868126,0.18664503
1764434817.5178657,-4.4254,0.763,0.13734,0.954404295,-0.14868126,0.18664503
1764434817.5178657,-4.4254,0.763,0.13734,0.954404295,-0.14868126,0.18664503
1764434817.5178657,-4.28806,0.77826,0.5341,0.95483154,-0.149108505,0.18701124
1764434817.5178657,-4.28806,0.77826,0.5341,0.95483154,-0.149108505,0.18701124
1764434817.5178657,-4.28806,0.77826,0.5341,0.95483154,-0.149108505,0.18701124
1764434817.5178657,-4.28806,0.77826,0.5341,0.95483154,-0.149108505,0.18701124
1764434817.5178657,-4.28806,0.77826,0.5341,0.95483154,-0.149108505,0.18701124
1764434817.5178657,-4.28806,0.77826,0.5341,0.95483154,-0.149108505,0.18701124
1764434817.5597188,-4.28806,0.77826,0.5341,0.95483154,-0.149108505,0.18701124
1764434817.5597188,-4.28806,0.77826,0.5341,0.95483154,-0.149108505,0.18701124
1764434817.5597188,-4.28806,0.77826,0.5341,0.95483154,-0.149108505,0.18701124
1764434817.5597188,-4.28806,0.77826,0.5341,0.95483154,-0.149108505,0.18701124
1764434817.5597188,-4.10494,0.56462,0.8392999999999999,0.9558081,-0.150329205,0.187560555
1764434817.5597188,-4.10494,0.56462,0.8392999999999999,0.9558081,-0.150329205,0.187560555
1764434817.5607383,-4.10494,0.56462,0.8392999999999999,0.9558081,-0.150329205,0.187560555
1764434817.5607383,-4.10494,0.56462,0.8392999999999999,0.9558081,-0.150329205,0.187560555
1764434817.5607383,-4.10494,0.56462,0.8392999999999999,0.9558081,-0.150329205,0.187560555
1764434817.5607383,-4.10494,0.56462,0.8392999999999999,0.9558081,-0.150329205,0.187560555
1764434817.5607383,-4.10494,0.56462,0.8392999999999999,0.9558081,-0.150329205,0.187560555
1764434817.5607383,-4.10494,0.56462,0.8392999999999999,0.9558081,-0.150329205,0.187560555
1764434817.5607383,-4.10494,0.56462,0.8392999999999999,0.9558081,-0.150329205,0.187560555
1764434817.5607383,-4.10494,0.56462,0.8392999999999999,0.9558081,-0.150329205,0.187560555
1764434817.5607383,-3.26564,0.47306,1.03768,0.9558081,-0.1501461,0.187316415
1764434817.5607383,-3.26564,0.47306,1.03768,0.9558081,-0.1501461,0.187316415
1764434817.5607383,-3.26564,0.47306,1.03768,0.9558081,-0.1501461,0.187316415
1764434817.5607383,-3.26564,0.47306,1.03768,0.9558081,-0.1501461,0.187316415
1764434817.5607383,-3.26564,0.47306,1.03768,0.9558081,-0.1501461,0.187316415
1764434817.561736,-3.26564,0.47306,1.03768,0.9558081,-0.1501461,0.187316415
1764434817.561736,-3.26564,0.47306,1.03768,0.9558081,-0.1501461,0.187316415
1764434817.561736,-3.26564,0.47306,1.03768,0.9558081,-0.1501461,0.187316415
1764434817.561736,-3.26564,0.47306,1.03768,0.9558081,-0.1501461,0.187316415
1764434817.561736,-3.26564,0.47306,1.03768,0.9558081,-0.1501461,0.187316415
1764434817.6091082,-3.79974,0.763,0.77826,0.956113275,-0.14977989,0.187072275
1764434817.6091082,-3.79974,0.763,0.77826,0.956113275,-0.14977989,0.187072275
1764434817.6091082,-3.79974,0.763,0.77826,0.956113275,-0.14977989,0.187072275
1764434817.6091082,-3.79974,0.763,0.77826,0.956113275,-0.14977989,0.187072275
1764434817.6091082,-3.79974,0.763,0.77826,0.956113275,-0.14977989,0.187072275
1764434817.6091082,-3.79974,0.763,0.77826,0.956113275,-0.14977989,0.187072275
1764434817.6091082,-3.79974,0.763,0.77826,0.956113275,-0.14977989,0.187072275
1764434817.6091082,-3.79974,0.763,0.77826,0.956113275,-0.14977989,0.187072275
1764434817.6091082,-3.79974,0.763,0.77826,0.956113275,-0.14977989,0.187072275
1764434817.6091082,-3.79974,0.763,0.77826,0.956113275,-0.14977989,0.187072275
1764434817.6091082,-3.815,0.8392999999999999,0.85456,0.956479485,-0.14977989,0.186706065
1764434817.6091082,-3.815,0.8392999999999999,0.85456,0.956479485,-0.14977989,0.186706065
1764434817.6106386,-3.815,0.8392999999999999,0.85456,0.956479485,-0.14977989,0.186706065
1764434817.6106386,-3.815,0.8392999999999999,0.85456,0.956479485,-0.14977989,0.186706065
1764434817.6106386,-3.815,0.8392999999999999,0.85456,0.956479485,-0.14977989,0.186706065
1764434817.6106386,-3.815,0.8392999999999999,0.85456,0.956479485,-0.14977989,0.186706065
1764434817.6106386,-3.815,0.8392999999999999,0.85456,0.956479485,-0.14977989,0.186706065
1764434817.6106386,-3.815,0.8392999999999999,0.85456,0.956479485,-0.14977989,0.186706065
1764434817.6106386,-3.815,0.8392999999999999,0.85456,0.956479485,-0.14977989,0.186706065
1764434817.6106386,-3.815,0.8392999999999999,0.85456,0.956479485,-0.14977989,0.186706065
1764434817.6106386,-3.76922,1.00716,0.65618,0.95629638,-0.149840925,0.186828135
1764434817.6106386,-3.76922,1.00716,0.65618,0.95629638,-0.149840925,0.186828135
1764434817.6106386,-3.76922,1.00716,0.65618,0.95629638,-0.149840925,0.186828135
1764434817.6106386,-3.76922,1.00716,0.65618,0.95629638,-0.149840925,0.186828135
1764434817.6579323,-3.76922,1.00716,0.65618,0.95629638,-0.149840925,0.186828135
1764434817.6592376,-3.76922,1.00716,0.65618,0.95629638,-0.149840925,0.186828135
1764434817.6592376,-3.76922,1.00716,0.65618,0.95629638,-0.149840925,0.186828135
1764434817.6592376,-3.76922,1.00716,0.65618,0.95629638,-0.149840925,0.186828135
1764434817.6592376,-3.76922,1.00716,0.65618,0.95629638,-0.149840925,0.186828135
1764434817.6592376,-3.76922,1.00716,0.65618,0.95629638,-0.149840925,0.186828135
1764434817.6592376,-3.52506,1.28184,0.3357199999999999,0.95629638,-0.150085065,0.18701124
1764434817.6592376,-3.52506,1.28184,0.3357199999999999,0.95629638,-0.150085065,0.18701124
1764434817.6592376,-3.52506,1.28184,0.3357199999999999,0.95629638,-0.150085065,0.18701124
1764434817.6592376,-3.52506,1.28184,0.3357199999999999,0.95629638,-0.150085065,0.18701124
1764434817.6592376,-3.52506,1.28184,0.3357199999999999,0.95629638,-0.150085065,0.18701124
1764434817.6592376,-3.52506,1.28184,0.3357199999999999,0.95629638,-0.150085065,0.18701124
1764434817.6592376,-3.52506,1.28184,0.3357199999999999,0.95629638,-0.150085065,0.18701124
1764434817.6592376,-3.52506,1.28184,0.3357199999999999,0.95629638,-0.150085065,0.18701124
1764434817.6592376,-3.52506,1.28184,0.3357199999999999,0.95629638,-0.150085065,0.18701124
1764434817.6592376,-3.52506,1.28184,0.3357199999999999,0.95629638,-0.150085065,0.18701124
1764434817.6592376,-3.47928,1.2055399999999998,1.02242,0.955747065,-0.15039024,0.186461925
1764434817.6592376,-3.47928,1.2055399999999998,1.02242,0.955747065,-0.15039024,0.186461925
1764434817.6592376,-3.47928,1.2055399999999998,1.02242,0.955747065,-0.15039024,0.186461925
1764434817.6592376,-3.47928,1.2055399999999998,1.02242,0.955747065,-0.15039024,0.186461925
1764434817.6592376,-3.47928,1.2055399999999998,1.02242,0.955747065,-0.15039024,0.186461925
1764434817.6592376,-3.47928,1.2055399999999998,1.02242,0.955747065,-0.15039024,0.186461925
1764434817.7038417,-3.47928,1.2055399999999998,1.02242,0.955747065,-0.15039024,0.186461925
1764434817.7038417,-3.47928,1.2055399999999998,1.02242,0.955747065,-0.15039024,0.186461925
1764434817.7038417,-3.47928,1.2055399999999998,1.02242,0.955747065,-0.15039024,0.186461925
1764434817.7038417,-3.47928,1.2055399999999998,1.02242,0.955747065,-0.15039024,0.186461925
1764434817.7038417,-3.52506,1.2055399999999998,1.0682,0.95544189,-0.14941368,0.1867671
1764434817.7038417,-3.52506,1.2055399999999998,1.0682,0.95544189,-0.14941368,0.1867671
1764434817.7038417,-3.52506,1.2055399999999998,1.0682,0.95544189,-0.14941368,0.1867671
1764434817.7038417,-3.52506,1.2055399999999998,1.0682,0.95544189,-0.14941368,0.1867671
1764434817.7048378,-3.52506,1.2055399999999998,1.0682,0.95544189,-0.14941368,0.1867671
1764434817.7048378,-3.52506,1.2055399999999998,1.0682,0.95544189,-0.14941368,0.1867671
1764434817.7048378,-3.52506,1.2055399999999998,1.0682,0.95544189,-0.14941368,0.1867671
1764434817.7048378,-3.52506,1.2055399999999998,1.0682,0.95544189,-0.14941368,0.1867671
1764434817.7048378,-3.52506,1.2055399999999998,1.0682,0.95544189,-0.14941368,0.1867671
1764434817.7048378,-3.52506,1.2055399999999998,1.0682,0.95544189,-0.14941368,0.1867671
1764434817.7048378,-3.17408,1.4039199999999998,1.46496,0.955502925,-0.150085065,0.187194345
1764434817.7048378,-3.17408,1.4039199999999998,1.46496,0.955502925,-0.150085065,0.187194345
1764434817.7048378,-3.17408,1.4039199999999998,1.46496,0.955502925,-0.150085065,0.187194345
1764434817.7048378,-3.17408,1.4039199999999998,1.46496,0.955502925,-0.150085065,0.187194345
1764434817.7048378,-3.17408,1.4039199999999998,1.46496,0.955502925,-0.150085065,0.187194345
1764434817.7048378,-3.17408,1.4039199999999998,1.46496,0.955502925,-0.150085065,0.187194345
1764434817.7048378,-3.17408,1.4039199999999998,1.46496,0.955502925,-0.150085065,0.187194345
1764434817.7048378,-3.17408,1.4039199999999998,1.46496,0.955502925,-0.150085065,0.187194345
1764434817.7048378,-3.17408,1.4039199999999998,1.46496,0.955502925,-0.150085065,0.187194345
1764434817.7048378,-3.17408,1.4039199999999998,1.46496,0.955502925,-0.150085065,0.187194345
1764434817.753692,-2.71628,1.63282,1.54126,0.955502925,-0.15051231,0.187682625
1764434817.753692,-2.71628,1.63282,1.54126,0.955502925,-0.15051231,0.187682625
1764434817.753692,-2.71628,1.63282,1.54126,0.955502925,-0.15051231,0.187682625
1764434817.753692,-2.71628,1.63282,1.54126,0.955502925,-0.15051231,0.187682625
1764434817.753692,-2.71628,1.63282,1.54126,0.955502925,-0.15051231,0.187682625
1764434817.753692,-2.71628,1.63282,1.54126,0.955502925,-0.15051231,0.187682625
1764434817.753692,-2.71628,1.63282,1.54126,0.955502925,-0.15051231,0.187682625
1764434817.753692,-2.71628,1.63282,1.54126,0.955502925,-0.15051231,0.187682625
1764434817.753692,-2.71628,1.63282,1.54126,0.955502925,-0.15051231,0.187682625
1764434817.753692,-2.71628,1.63282,1.54126,0.955502925,-0.15051231,0.187682625
1764434817.753692,-2.56368,1.2055399999999998,1.95328,0.95544189,-0.151549905,0.18835401
1764434817.753692,-2.56368,1.2055399999999998,1.95328,0.95544189,-0.151549905,0.18835401
1764434817.753692,-2.56368,1.2055399999999998,1.95328,0.95544189,-0.151549905,0.18835401
1764434817.753692,-2.56368,1.2055399999999998,1.95328,0.95544189,-0.151549905,0.18835401
1764434817.753692,-2.56368,1.2055399999999998,1.95328,0.95544189,-0.151549905,0.18835401
1764434817.753692,-2.56368,1.2055399999999998,1.95328,0.95544189,-0.151549905,0.18835401
1764434817.753692,-2.56368,1.2055399999999998,1.95328,0.95544189,-0.151549905,0.18835401
1764434817.753692,-2.56368,1.2055399999999998,1.95328,0.95544189,-0.151549905,0.18835401
1764434817.753692,-2.56368,1.2055399999999998,1.95328,0.95544189,-0.151549905,0.18835401
1764434817.7546914,-2.56368,1.2055399999999998,1.95328,0.95544189,-0.151549905,0.18835401
1764434817.7546914,-3.38772,0.39676,1.15976,0.95470947,-0.15002403,0.18725538
1764434817.7546914,-3.38772,0.39676,1.15976,0.95470947,-0.15002403,0.18725538
1764434817.7546914,-3.38772,0.39676,1.15976,0.95470947,-0.15002403,0.18725538
1764434817.7546914,-3.38772,0.39676,1.15976,0.95470947,-0.15002403,0.18725538
1764434817.7975414,-3.38772,0.39676,1.15976,0.95470947,-0.15002403,0.18725538
1764434817.7975414,-3.38772,0.39676,1.15976,0.95470947,-0.15002403,0.18725538
1764434817.7975414,-3.38772,0.39676,1.15976,0.95470947,-0.15002403,0.18725538
1764434817.7975414,-3.38772,0.39676,1.15976,0.95470947,-0.15002403,0.18725538
1764434817.7975414,-3.38772,0.39676,1.15976,0.95470947,-0.15002403,0.18725538
1764434817.7975414,-3.38772,0.39676,1.15976,0.95470947,-0.15002403,0.18725538
1764434817.7975414,-3.63188,0.50358,1.00716,0.95751708,-0.14977989,0.18749952
1764434817.7975414,-3.63188,0.50358,1.00716,0.95751708,-0.14977989,0.18749952
1764434817.7975414,-3.63188,0.50358,1.00716,0.95751708,-0.14977989,0.18749952
1764434817.7990754,-3.63188,0.50358,1.00716,0.95751708,-0.14977989,0.18749952
1764434817.7990754,-3.63188,0.50358,1.00716,0.95751708,-0.14977989,0.18749952
1764434817.7990754,-3.63188,0.50358,1.00716,0.95751708,-0.14977989,0.18749952
1764434817.7990754,-3.63188,0.50358,1.00716,0.95751708,-0.14977989,0.18749952
1764434817.7990754,-3.63188,0.50358,1.00716,0.95751708,-0.14977989,0.18749952
1764434817.7990754,-3.63188,0.50358,1.00716,0.95751708,-0.14977989,0.18749952
1764434817.7990754,-3.63188,0.50358,1.00716,0.95751708,-0.14977989,0.18749952
1764434817.7990754,-3.64714,1.32762,1.05294,0.95739501,-0.14977989,0.187804695
1764434817.7990754,-3.64714,1.32762,1.05294,0.95739501,-0.14977989,0.187804695
1764434817.7990754,-3.64714,1.32762,1.05294,0.95739501,-0.14977989,0.187804695
1764434817.7990754,-3.64714,1.32762,1.05294,0.95739501,-0.14977989,0.187804695
1764434817.7990754,-3.64714,1.32762,1.05294,0.95739501,-0.14977989,0.187804695
1764434817.7990754,-3.64714,1.32762,1.05294,0.95739501,-0.14977989,0.187804695
1764434817.8421848,-3.64714,1.32762,1.05294,0.95739501,-0.14977989,0.187804695
1764434817.8421848,-3.64714,1.32762,1.05294,0.95739501,-0.14977989,0.187804695
1764434817.8421848,-3.64714,1.32762,1.05294,0.95739501,-0.14977989,0.187804695
1764434817.8421848,-3.64714,1.32762,1.05294,0.95739501,-0.14977989,0.187804695
1764434817.8421848,-4.22702,1.64808,0.9003399999999999,0.95605224,-0.14977989,0.18823194
1764434817.8421848,-4.22702,1.64808,0.9003399999999999,0.95605224,-0.14977989,0.18823194
1764434817.8421848,-4.22702,1.64808,0.9003399999999999,0.95605224,-0.14977989,0.18823194
1764434817.8421848,-4.22702,1.64808,0.9003399999999999,0.95605224,-0.14977989,0.18823194
1764434817.8421848,-4.22702,1.64808,0.9003399999999999,0.95605224,-0.14977989,0.18823194
1764434817.8421848,-4.22702,1.64808,0.9003399999999999,0.95605224,-0.14977989,0.18823194
1764434817.8431957,-4.22702,1.64808,0.9003399999999999,0.95605224,-0.14977989,0.18823194
1764434817.8431957,-4.22702,1.64808,0.9003399999999999,0.95605224,-0.14977989,0.18823194
