Timestamp,GyroX,GyroY,GyroZ,AccX,AccY,AccZ
1764512284.600342,-2.65524,1.526,1.41918,0.97301997,0.096740475,0.100890855
1764512284.600342,-2.65524,1.526,1.41918,0.97301997,0.096740475,0.100890855
1764512284.600342,-2.65524,1.526,1.41918,0.97301997,0.096740475,0.100890855
1764512284.600342,-2.65524,1.526,1.41918,0.97301997,0.096740475,0.100890855
1764512284.600342,-2.65524,1.526,1.41918,0.97301997,0.096740475,0.100890855
1764512284.600342,-3.2809,2.27374,1.77016,0.97387446,0.097106685,0.10058568
1764512284.600342,-3.2809,2.27374,1.77016,0.97387446,0.097106685,0.10058568
1764512284.600342,-3.2809,2.27374,1.77016,0.97387446,0.097106685,0.10058568
1764512284.600342,-3.2809,2.27374,1.77016,0.97387446,0.097106685,0.10058568
1764512284.600342,-3.2809,2.27374,1.77016,0.97387446,0.097106685,0.10058568
1764512284.600342,-3.2809,2.27374,1.77016,0.97387446,0.097106685,0.10058568
1764512284.600342,-3.2809,2.27374,1.77016,0.97387446,0.097106685,0.10058568
1764512284.600342,-3.2809,2.27374,1.77016,0.97387446,0.097106685,0.10058568
1764512284.600342,-3.2809,2.27374,1.77016,0.97387446,0.097106685,0.10058568
1764512284.600342,-3.2809,2.27374,1.77016,0.97387446,0.097106685,0.10058568
1764512284.601354,-3.93708,1.8312,1.87698,0.97301997,0.096252195,0.100402575
1764512284.601354,-3.93708,1.8312,1.87698,0.97301997,0.096252195,0.100402575
1764512284.601354,-3.93708,1.8312,1.87698,0.97301997,0.096252195,0.100402575
1764512284.601354,-3.93708,1.8312,1.87698,0.97301997,0.096252195,0.100402575
1764512284.601354,-3.93708,1.8312,1.87698,0.97301997,0.096252195,0.100402575
1764512284.601354,-3.93708,1.8312,1.87698,0.97301997,0.096252195,0.100402575
1764512284.6438873,-3.93708,1.8312,1.87698,0.97301997,0.096252195,0.100402575
1764512284.6438873,-3.93708,1.8312,1.87698,0.97301997,0.096252195,0.100402575
1764512284.6438873,-3.93708,1.8312,1.87698,0.97301997,0.096252195,0.100402575
1764512284.6438873,-3.93708,1.8312,1.87698,0.97301997,0.096252195,0.100402575
1764512284.6438873,-3.70818,1.38866,0.9919,0.97314204,0.095153565,0.10021947
1764512284.6438873,-3.70818,1.38866,0.9919,0.97314204,0.095153565,0.10021947
1764512284.6438873,-3.70818,1.38866,0.9919,0.97314204,0.095153565,0.10021947
1764512284.6438873,-3.70818,1.38866,0.9919,0.97314204,0.095153565,0.10021947
1764512284.6438873,-3.70818,1.38866,0.9919,0.97314204,0.095153565,0.10021947
1764512284.6438873,-3.70818,1.38866,0.9919,0.97314204,0.095153565,0.10021947
1764512284.6438873,-3.70818,1.38866,0.9919,0.97314204,0.095153565,0.10021947
1764512284.6438873,-3.70818,1.38866,0.9919,0.97314204,0.095153565,0.10021947
1764512284.6438873,-3.70818,1.38866,0.9919,0.97314204,0.095153565,0.10021947
1764512284.6438873,-3.70818,1.38866,0.9919,0.97314204,0.095153565,0.10021947
1764512284.6438873,-3.06726,1.89224,0.5341,0.97338618,0.093200445,0.101623275
1764512284.6438873,-3.06726,1.89224,0.5341,0.97338618,0.093200445,0.101623275
1764512284.6438873,-3.06726,1.89224,0.5341,0.97338618,0.093200445,0.101623275
1764512284.6438873,-3.06726,1.89224,0.5341,0.97338618,0.093200445,0.101623275
1764512284.6438873,-3.06726,1.89224,0.5341,0.97338618,0.093200445,0.101623275
1764512284.6438873,-3.06726,1.89224,0.5341,0.97338618,0.093200445,0.101623275
1764512284.6438873,-3.06726,1.89224,0.5341,0.97338618,0.093200445,0.101623275
1764512284.6438873,-3.06726,1.89224,0.5341,0.97338618,0.093200445,0.101623275
1764512284.6926453,-3.06726,1.89224,0.5341,0.97338618,0.093200445,0.101623275
1764512284.6926453,-3.06726,1.89224,0.5341,0.97338618,0.093200445,0.101623275
1764512284.6926453,-2.5942,1.64808,1.08346,0.973325145,0.091857675,0.10241673
1764512284.6926453,-2.5942,1.64808,1.08346,0.973325145,0.091857675,0.10241673
1764512284.6926453,-2.5942,1.64808,1.08346,0.973325145,0.091857675,0.10241673
1764512284.6926453,-2.5942,1.64808,1.08346,0.973325145,0.091857675,0.10241673
1764512284.6926453,-2.5942,1.64808,1.08346,0.973325145,0.091857675,0.10241673
1764512284.6926453,-2.5942,1.64808,1.08346,0.973325145,0.091857675,0.10241673
1764512284.6926453,-2.5942,1.64808,1.08346,0.973325145,0.091857675,0.10241673
1764512284.6926453,-2.5942,1.64808,1.08346,0.973325145,0.091857675,0.10241673
1764512284.693684,-2.5942,1.64808,1.08346,0.973325145,0.091857675,0.10241673
1764512284.693684,-2.5942,1.64808,1.08346,0.973325145,0.091857675,0.10241673
1764512284.693684,-2.42634,1.34288,0.5341,0.972470655,0.092101815,0.10241673
1764512284.693684,-2.42634,1.34288,0.5341,0.972470655,0.092101815,0.10241673
1764512284.693684,-2.42634,1.34288,0.5341,0.972470655,0.092101815,0.10241673
1764512284.693684,-2.42634,1.34288,0.5341,0.972470655,0.092101815,0.10241673
1764512284.693684,-2.42634,1.34288,0.5341,0.972470655,0.092101815,0.10241673
1764512284.693684,-2.42634,1.34288,0.5341,0.972470655,0.092101815,0.10241673
1764512284.693684,-2.42634,1.34288,0.5341,0.972470655,0.092101815,0.10241673
1764512284.693684,-2.42634,1.34288,0.5341,0.972470655,0.092101815,0.10241673
1764512284.693684,-2.42634,1.34288,0.5341,0.972470655,0.092101815,0.10241673
1764512284.693684,-2.42634,1.34288,0.5341,0.972470655,0.092101815,0.10241673
1764512284.693684,-3.08252,1.11398,0.4578,0.972714795,0.092345955,0.102233625
1764512284.693684,-3.08252,1.11398,0.4578,0.972714795,0.092345955,0.102233625
1764512284.693684,-3.08252,1.11398,0.4578,0.972714795,0.092345955,0.102233625
1764512284.693684,-3.08252,1.11398,0.4578,0.972714795,0.092345955,0.102233625
1764512284.7379968,-3.08252,1.11398,0.4578,0.972714795,0.092345955,0.102233625
1764512284.7379968,-3.08252,1.11398,0.4578,0.972714795,0.092345955,0.102233625
1764512284.7379968,-3.08252,1.11398,0.4578,0.972714795,0.092345955,0.102233625
1764512284.7379968,-3.08252,1.11398,0.4578,0.972714795,0.092345955,0.102233625
1764512284.7379968,-3.08252,1.11398,0.4578,0.972714795,0.092345955,0.102233625
1764512284.7379968,-3.08252,1.11398,0.4578,0.972714795,0.092345955,0.102233625
1764512284.7379968,-3.55558,1.08346,-1.02242,0.973569285,0.09484839,0.10192845
1764512284.7379968,-3.55558,1.08346,-1.02242,0.973569285,0.09484839,0.10192845
1764512284.7379968,-3.55558,1.08346,-1.02242,0.973569285,0.09484839,0.10192845
1764512284.7379968,-3.55558,1.08346,-1.02242,0.973569285,0.09484839,0.10192845
1764512284.7379968,-3.55558,1.08346,-1.02242,0.973569285,0.09484839,0.10192845
1764512284.7379968,-3.55558,1.08346,-1.02242,0.973569285,0.09484839,0.10192845
1764512284.7379968,-3.55558,1.08346,-1.02242,0.973569285,0.09484839,0.10192845
1764512284.7390094,-3.55558,1.08346,-1.02242,0.973569285,0.09484839,0.10192845
1764512284.7390094,-3.55558,1.08346,-1.02242,0.973569285,0.09484839,0.10192845
1764512284.7390094,-3.55558,1.08346,-1.02242,0.973569285,0.09484839,0.10192845
1764512284.7390094,-4.10494,1.9838,-1.25132,0.97692621,0.09594702,0.101989485
1764512284.7390094,-4.10494,1.9838,-1.25132,0.97692621,0.09594702,0.101989485
1764512284.7390094,-4.10494,1.9838,-1.25132,0.97692621,0.09594702,0.101989485
1764512284.7390094,-4.10494,1.9838,-1.25132,0.97692621,0.09594702,0.101989485
1764512284.7390094,-4.10494,1.9838,-1.25132,0.97692621,0.09594702,0.101989485
1764512284.7390094,-4.10494,1.9838,-1.25132,0.97692621,0.09594702,0.101989485
1764512284.7390094,-4.10494,1.9838,-1.25132,0.97692621,0.09594702,0.101989485
1764512284.7390094,-4.10494,1.9838,-1.25132,0.97692621,0.09594702,0.101989485
1764512284.7864275,-4.10494,1.9838,-1.25132,0.97692621,0.09594702,0.101989485
1764512284.7864275,-4.10494,1.9838,-1.25132,0.97692621,0.09594702,0.101989485
1764512284.7864275,-4.37962,2.77732,-0.59514,0.97643793,0.095641845,0.10205052
1764512284.7864275,-4.37962,2.77732,-0.59514,0.97643793,0.095641845,0.10205052
1764512284.7864275,-4.37962,2.77732,-0.59514,0.97643793,0.095641845,0.10205052
1764512284.7864275,-4.37962,2.77732,-0.59514,0.97643793,0.095641845,0.10205052
1764512284.7864275,-4.37962,2.77732,-0.59514,0.97643793,0.095641845,0.10205052
1764512284.7864275,-4.37962,2.77732,-0.59514,0.97643793,0.095641845,0.10205052
1764512284.7864275,-4.37962,2.77732,-0.59514,0.97643793,0.095641845,0.10205052
1764512284.7864275,-4.37962,2.77732,-0.59514,0.97643793,0.095641845,0.10205052
1764512284.7864275,-4.37962,2.77732,-0.59514,0.97643793,0.095641845,0.10205052
1764512284.7864275,-4.37962,2.77732,-0.59514,0.97643793,0.095641845,0.10205052
1764512284.7874656,-3.98286,2.83836,0.3204599999999999,0.973447215,0.09497046,0.10229466
1764512284.7874656,-3.98286,2.83836,0.3204599999999999,0.973447215,0.09497046,0.10229466
1764512284.7874656,-3.98286,2.83836,0.3204599999999999,0.973447215,0.09497046,0.10229466
1764512284.7874656,-3.98286,2.83836,0.3204599999999999,0.973447215,0.09497046,0.10229466
1764512284.7874656,-3.98286,2.83836,0.3204599999999999,0.973447215,0.09497046,0.10229466
1764512284.7874656,-3.98286,2.83836,0.3204599999999999,0.973447215,0.09497046,0.10229466
1764512284.7874656,-3.98286,2.83836,0.3204599999999999,0.973447215,0.09497046,0.10229466
1764512284.7874656,-3.98286,2.83836,0.3204599999999999,0.973447215,0.09497046,0.10229466
1764512284.7874656,-3.98286,2.83836,0.3204599999999999,0.973447215,0.09497046,0.10229466
1764512284.7874656,-3.98286,2.83836,0.3204599999999999,0.973447215,0.09497046,0.10229466
1764512284.8317285,-3.02148,1.73964,0.9156,0.970639605,0.093322515,0.10278294
1764512284.8317285,-3.02148,1.73964,0.9156,0.970639605,0.093322515,0.10278294
1764512284.8317285,-3.02148,1.73964,0.9156,0.970639605,0.093322515,0.10278294
1764512284.8317285,-3.02148,1.73964,0.9156,0.970639605,0.093322515,0.10278294
1764512284.8317285,-3.02148,1.73964,0.9156,0.970639605,0.093322515,0.10278294
1764512284.832744,-3.02148,1.73964,0.9156,0.970639605,0.093322515,0.10278294
1764512284.832744,-3.02148,1.73964,0.9156,0.970639605,0.093322515,0.10278294
1764512284.832744,-3.02148,1.73964,0.9156,0.970639605,0.093322515,0.10278294
1764512284.832744,-3.02148,1.73964,0.9156,0.970639605,0.093322515,0.10278294
1764512284.832744,-3.02148,1.73964,0.9156,0.970639605,0.093322515,0.10278294
1764512284.832744,-2.12114,1.86172,1.55652,0.97057857,0.092468025,0.103820535
1764512284.832744,-2.12114,1.86172,1.55652,0.97057857,0.092468025,0.103820535
1764512284.832744,-2.12114,1.86172,1.55652,0.97057857,0.092468025,0.103820535
1764512284.832744,-2.12114,1.86172,1.55652,0.97057857,0.092468025,0.103820535
1764512284.832744,-2.12114,1.86172,1.55652,0.97057857,0.092468025,0.103820535
1764512284.832744,-2.12114,1.86172,1.55652,0.97057857,0.092468025,0.103820535
1764512284.832744,-2.12114,1.86172,1.55652,0.97057857,0.092468025,0.103820535
1764512284.832744,-2.12114,1.86172,1.55652,0.97057857,0.092468025,0.103820535
1764512284.832744,-2.12114,1.86172,1.55652,0.97057857,0.092468025,0.103820535
1764512284.832744,-2.12114,1.86172,1.55652,0.97057857,0.092468025,0.103820535
1764512284.832744,-1.81594,2.10588,1.6633399999999998,0.972348585,0.09265113,0.10534641
1764512284.832744,-1.81594,2.10588,1.6633399999999998,0.972348585,0.09265113,0.10534641
1764512284.8765645,-1.81594,2.10588,1.6633399999999998,0.972348585,0.09265113,0.10534641
1764512284.8765645,-1.81594,2.10588,1.6633399999999998,0.972348585,0.09265113,0.10534641
1764512284.8765645,-1.81594,2.10588,1.6633399999999998,0.972348585,0.09265113,0.10534641
1764512284.8765645,-1.81594,2.10588,1.6633399999999998,0.972348585,0.09265113,0.10534641
1764512284.8765645,-1.81594,2.10588,1.6633399999999998,0.972348585,0.09265113,0.10534641
1764512284.8765645,-1.81594,2.10588,1.6633399999999998,0.972348585,0.09265113,0.10534641
1764512284.8765645,-1.81594,2.10588,1.6633399999999998,0.972348585,0.09265113,0.10534641
1764512284.8765645,-1.81594,2.10588,1.6633399999999998,0.972348585,0.09265113,0.10534641
1764512284.8765645,-2.09062,1.87698,1.32762,0.97363032,0.094421145,0.105163305
1764512284.8765645,-2.09062,1.87698,1.32762,0.97363032,0.094421145,0.105163305
1764512284.8776028,-2.09062,1.87698,1.32762,0.97363032,0.094421145,0.105163305
1764512284.8776028,-2.09062,1.87698,1.32762,0.97363032,0.094421145,0.105163305
1764512284.8776028,-2.09062,1.87698,1.32762,0.97363032,0.094421145,0.105163305
1764512284.8776028,-2.09062,1.87698,1.32762,0.97363032,0.094421145,0.105163305
1764512284.8776028,-2.09062,1.87698,1.32762,0.97363032,0.094421145,0.105163305
1764512284.8776028,-2.09062,1.87698,1.32762,0.97363032,0.094421145,0.105163305
1764512284.8776028,-2.09062,1.87698,1.32762,0.97363032,0.094421145,0.105163305
1764512284.8776028,-2.09062,1.87698,1.32762,0.97363032,0.094421145,0.105163305
1764512284.8776028,-3.17408,1.6786,1.08346,0.9741186,0.09533667,0.105163305
1764512284.8776028,-3.17408,1.6786,1.08346,0.9741186,0.09533667,0.105163305
1764512284.8776028,-3.17408,1.6786,1.08346,0.9741186,0.09533667,0.105163305
1764512284.8776028,-3.17408,1.6786,1.08346,0.9741186,0.09533667,0.105163305
1764512284.8776028,-3.17408,1.6786,1.08346,0.9741186,0.09533667,0.105163305
1764512284.8776028,-3.17408,1.6786,1.08346,0.9741186,0.09533667,0.105163305
1764512284.925082,-3.17408,1.6786,1.08346,0.9741186,0.09533667,0.105163305
1764512284.925082,-3.17408,1.6786,1.08346,0.9741186,0.09533667,0.105163305
1764512284.9261038,-3.17408,1.6786,1.08346,0.9741186,0.09533667,0.105163305
1764512284.9261038,-3.17408,1.6786,1.08346,0.9741186,0.09533667,0.105163305
1764512284.9261038,-3.52506,1.2971,0.54936,0.97375239,0.09545874,0.10522434
1764512284.9261038,-3.52506,1.2971,0.54936,0.97375239,0.09545874,0.10522434
1764512284.9261038,-3.52506,1.2971,0.54936,0.97375239,0.09545874,0.10522434
1764512284.9261038,-3.52506,1.2971,0.54936,0.97375239,0.09545874,0.10522434
1764512284.9261038,-3.52506,1.2971,0.54936,0.97375239,0.09545874,0.10522434
1764512284.9261038,-3.52506,1.2971,0.54936,0.97375239,0.09545874,0.10522434
1764512284.9261038,-3.52506,1.2971,0.54936,0.97375239,0.09545874,0.10522434
1764512284.9261038,-3.52506,1.2971,0.54936,0.97375239,0.09545874,0.10522434
1764512284.9261038,-3.52506,1.2971,0.54936,0.97375239,0.09545874,0.10522434
1764512284.9261038,-3.52506,1.2971,0.54936,0.97375239,0.09545874,0.10522434
1764512284.9261038,-4.01338,1.23606,0.48832,0.97277583,0.09619116,0.105285375
1764512284.9261038,-4.01338,1.23606,0.48832,0.97277583,0.09619116,0.105285375
1764512284.9261038,-4.01338,1.23606,0.48832,0.97277583,0.09619116,0.105285375
1764512284.9261038,-4.01338,1.23606,0.48832,0.97277583,0.09619116,0.105285375
1764512284.9261038,-4.01338,1.23606,0.48832,0.97277583,0.09619116,0.105285375
1764512284.9261038,-4.01338,1.23606,0.48832,0.97277583,0.09619116,0.105285375
1764512284.9261038,-4.01338,1.23606,0.48832,0.97277583,0.09619116,0.105285375
1764512284.9261038,-4.01338,1.23606,0.48832,0.97277583,0.09619116,0.105285375
1764512284.9719417,-4.01338,1.23606,0.48832,0.97277583,0.09619116,0.105285375
1764512284.9719417,-4.01338,1.23606,0.48832,0.97277583,0.09619116,0.105285375
1764512284.9719417,-4.5017,1.6022999999999998,1.12924,0.97301997,0.09436011,0.10583469
1764512284.9719417,-4.5017,1.6022999999999998,1.12924,0.97301997,0.09436011,0.10583469
1764512284.9719417,-4.5017,1.6022999999999998,1.12924,0.97301997,0.09436011,0.10583469
1764512284.9719417,-4.5017,1.6022999999999998,1.12924,0.97301997,0.09436011,0.10583469
1764512284.9719417,-4.5017,1.6022999999999998,1.12924,0.97301997,0.09436011,0.10583469
1764512284.9719417,-4.5017,1.6022999999999998,1.12924,0.97301997,0.09436011,0.10583469
1764512284.9719417,-4.5017,1.6022999999999998,1.12924,0.97301997,0.09436011,0.10583469
1764512284.9719417,-4.5017,1.6022999999999998,1.12924,0.97301997,0.09436011,0.10583469
1764512284.9719417,-4.5017,1.6022999999999998,1.12924,0.97301997,0.09436011,0.10583469
1764512284.9719417,-4.5017,1.6022999999999998,1.12924,0.97301997,0.09436011,0.10583469
1764512284.9719417,-3.98286,0.19838,0.763,0.97057857,0.093200445,0.10485813
1764512284.9719417,-3.98286,0.19838,0.763,0.97057857,0.093200445,0.10485813
1764512284.9719417,-3.98286,0.19838,0.763,0.97057857,0.093200445,0.10485813
1764512284.9719417,-3.98286,0.19838,0.763,0.97057857,0.093200445,0.10485813
1764512284.9719417,-3.98286,0.19838,0.763,0.97057857,0.093200445,0.10485813
1764512284.9719417,-3.98286,0.19838,0.763,0.97057857,0.093200445,0.10485813
1764512284.9729614,-3.98286,0.19838,0.763,0.97057857,0.093200445,0.10485813
1764512284.9729614,-3.98286,0.19838,0.763,0.97057857,0.093200445,0.10485813
1764512284.9729614,-3.98286,0.19838,0.763,0.97057857,0.093200445,0.10485813
1764512284.9729614,-3.98286,0.19838,0.763,0.97057857,0.093200445,0.10485813
1764512284.9729614,-3.44876,-0.2289,0.5341,0.97070064,0.093688725,0.1037595
1764512284.9739816,-3.44876,-0.2289,0.5341,0.97070064,0.093688725,0.1037595
1764512285.0178158,-3.44876,-0.2289,0.5341,0.97070064,0.093688725,0.1037595
1764512285.0178158,-3.44876,-0.2289,0.5341,0.97070064,0.093688725,0.1037595
1764512285.0178158,-3.44876,-0.2289,0.5341,0.97070064,0.093688725,0.1037595
1764512285.0178158,-3.44876,-0.2289,0.5341,0.97070064,0.093688725,0.1037595
1764512285.0178158,-3.44876,-0.2289,0.5341,0.97070064,0.093688725,0.1037595
1764512285.0178158,-3.44876,-0.2289,0.5341,0.97070064,0.093688725,0.1037595
1764512285.0178158,-3.44876,-0.2289,0.5341,0.97070064,0.093688725,0.1037595
1764512285.0178158,-3.44876,-0.2289,0.5341,0.97070064,0.093688725,0.1037595
1764512285.0178158,-3.52506,0.50358,0.57988,0.97375239,0.09313941,0.104064675
1764512285.0178158,-3.52506,0.50358,0.57988,0.97375239,0.09313941,0.104064675
1764512285.0178158,-3.52506,0.50358,0.57988,0.97375239,0.09313941,0.104064675
1764512285.0178158,-3.52506,0.50358,0.57988,0.97375239,0.09313941,0.104064675
1764512285.0178158,-3.52506,0.50358,0.57988,0.97375239,0.09313941,0.104064675
1764512285.0178158,-3.52506,0.50358,0.57988,0.97375239,0.09313941,0.104064675
1764512285.0178158,-3.52506,0.50358,0.57988,0.97375239,0.09313941,0.104064675
1764512285.0178158,-3.52506,0.50358,0.57988,0.97375239,0.09313941,0.104064675
1764512285.0178158,-3.52506,0.50358,0.57988,0.97375239,0.09313941,0.104064675
1764512285.0178158,-3.52506,0.50358,0.57988,0.97375239,0.09313941,0.104064675
1764512285.0178158,-3.46402,0.3509799999999999,0.62566,0.97558344,0.093200445,0.10363743
1764512285.0178158,-3.46402,0.3509799999999999,0.62566,0.97558344,0.093200445,0.10363743
1764512285.0188458,-3.46402,0.3509799999999999,0.62566,0.97558344,0.093200445,0.10363743
1764512285.0188458,-3.46402,0.3509799999999999,0.62566,0.97558344,0.093200445,0.10363743
1764512285.0188458,-3.46402,0.3509799999999999,0.62566,0.97558344,0.093200445,0.10363743
1764512285.0188458,-3.46402,0.3509799999999999,0.62566,0.97558344,0.093200445,0.10363743
1764512285.0650735,-3.46402,0.3509799999999999,0.62566,0.97558344,0.093200445,0.10363743
1764512285.0650735,-3.46402,0.3509799999999999,0.62566,0.97558344,0.093200445,0.10363743
1764512285.0650735,-3.46402,0.3509799999999999,0.62566,0.97558344,0.093200445,0.10363743
1764512285.0650735,-3.46402,0.3509799999999999,0.62566,0.97558344,0.093200445,0.10363743
1764512285.0650735,-3.64714,0.77826,0.6867,0.974423775,0.094054935,0.103576395
1764512285.0650735,-3.64714,0.77826,0.6867,0.974423775,0.094054935,0.103576395
1764512285.0650735,-3.64714,0.77826,0.6867,0.974423775,0.094054935,0.103576395
1764512285.0650735,-3.64714,0.77826,0.6867,0.974423775,0.094054935,0.103576395
1764512285.0650735,-3.64714,0.77826,0.6867,0.974423775,0.094054935,0.103576395
1764512285.0650735,-3.64714,0.77826,0.6867,0.974423775,0.094054935,0.103576395
1764512285.0650735,-3.64714,0.77826,0.6867,0.974423775,0.094054935,0.103576395
1764512285.0650735,-3.64714,0.77826,0.6867,0.974423775,0.094054935,0.103576395
1764512285.0650735,-3.64714,0.77826,0.6867,0.974423775,0.094054935,0.103576395
1764512285.0650735,-3.64714,0.77826,0.6867,0.974423775,0.094054935,0.103576395
1764512285.0650735,-3.93708,0.44254,0.41202,0.97216548,0.094299075,0.102966045
1764512285.0650735,-3.93708,0.44254,0.41202,0.97216548,0.094299075,0.102966045
1764512285.0650735,-3.93708,0.44254,0.41202,0.97216548,0.094299075,0.102966045
1764512285.0650735,-3.93708,0.44254,0.41202,0.97216548,0.094299075,0.102966045
1764512285.0650735,-3.93708,0.44254,0.41202,0.97216548,0.094299075,0.102966045
1764512285.0661027,-3.93708,0.44254,0.41202,0.97216548,0.094299075,0.102966045
1764512285.0661027,-3.93708,0.44254,0.41202,0.97216548,0.094299075,0.102966045
1764512285.0661027,-3.93708,0.44254,0.41202,0.97216548,0.094299075,0.102966045
1764512285.1092663,-3.93708,0.44254,0.41202,0.97216548,0.094299075,0.102966045
1764512285.1092663,-3.93708,0.44254,0.41202,0.97216548,0.094299075,0.102966045
1764512285.1092663,-4.37962,-0.1678599999999999,0.41202,0.97118892,0.095397705,0.102355695
1764512285.1092663,-4.37962,-0.1678599999999999,0.41202,0.97118892,0.095397705,0.102355695
1764512285.1092663,-4.37962,-0.1678599999999999,0.41202,0.97118892,0.095397705,0.102355695
1764512285.1092663,-4.37962,-0.1678599999999999,0.41202,0.97118892,0.095397705,0.102355695
1764512285.1092663,-4.37962,-0.1678599999999999,0.41202,0.97118892,0.095397705,0.102355695
1764512285.1092663,-4.37962,-0.1678599999999999,0.41202,0.97118892,0.095397705,0.102355695
1764512285.1092663,-4.37962,-0.1678599999999999,0.41202,0.97118892,0.095397705,0.102355695
1764512285.1092663,-4.37962,-0.1678599999999999,0.41202,0.97118892,0.095397705,0.102355695
1764512285.1092663,-4.37962,-0.1678599999999999,0.41202,0.97118892,0.095397705,0.102355695
1764512285.1092663,-4.37962,-0.1678599999999999,0.41202,0.97118892,0.095397705,0.102355695
1764512285.1092663,-4.13546,-0.47306,0.65618,0.971249955,0.09533667,0.101989485
1764512285.1092663,-4.13546,-0.47306,0.65618,0.971249955,0.09533667,0.101989485
1764512285.1092663,-4.13546,-0.47306,0.65618,0.971249955,0.09533667,0.101989485
1764512285.1102962,-4.13546,-0.47306,0.65618,0.971249955,0.09533667,0.101989485
1764512285.1102962,-4.13546,-0.47306,0.65618,0.971249955,0.09533667,0.101989485
1764512285.1102962,-4.13546,-0.47306,0.65618,0.971249955,0.09533667,0.101989485
1764512285.1102962,-4.13546,-0.47306,0.65618,0.971249955,0.09533667,0.101989485
1764512285.1102962,-4.13546,-0.47306,0.65618,0.971249955,0.09533667,0.101989485
1764512285.1102962,-4.13546,-0.47306,0.65618,0.971249955,0.09533667,0.101989485
1764512285.1102962,-4.13546,-0.47306,0.65618,0.971249955,0.09533667,0.101989485
1764512285.1102962,-4.440659999999999,-0.13734,0.57988,0.97314204,0.094909425,0.101257065
1764512285.1102962,-4.440659999999999,-0.13734,0.57988,0.97314204,0.094909425,0.101257065
1764512285.157109,-4.440659999999999,-0.13734,0.57988,0.97314204,0.094909425,0.101257065
1764512285.157109,-4.440659999999999,-0.13734,0.57988,0.97314204,0.094909425,0.101257065
1764512285.157109,-4.440659999999999,-0.13734,0.57988,0.97314204,0.094909425,0.101257065
1764512285.157109,-4.440659999999999,-0.13734,0.57988,0.97314204,0.094909425,0.101257065
1764512285.157109,-4.440659999999999,-0.13734,0.57988,0.97314204,0.094909425,0.101257065
1764512285.157109,-4.440659999999999,-0.13734,0.57988,0.97314204,0.094909425,0.101257065
1764512285.157109,-4.440659999999999,-0.13734,0.57988,0.97314204,0.094909425,0.101257065
1764512285.157109,-4.440659999999999,-0.13734,0.57988,0.97314204,0.094909425,0.101257065
1764512285.157109,-4.59326,-0.3815,0.88508,0.973813425,0.095275635,0.10046361
1764512285.157109,-4.59326,-0.3815,0.88508,0.973813425,0.095275635,0.10046361
1764512285.157109,-4.59326,-0.3815,0.88508,0.973813425,0.095275635,0.10046361
1764512285.157109,-4.59326,-0.3815,0.88508,0.973813425,0.095275635,0.10046361
1764512285.157109,-4.59326,-0.3815,0.88508,0.973813425,0.095275635,0.10046361
1764512285.157109,-4.59326,-0.3815,0.88508,0.973813425,0.095275635,0.10046361
1764512285.157109,-4.59326,-0.3815,0.88508,0.973813425,0.095275635,0.10046361
1764512285.1581297,-4.59326,-0.3815,0.88508,0.973813425,0.095275635,0.10046361
1764512285.1581297,-4.59326,-0.3815,0.88508,0.973813425,0.095275635,0.10046361
1764512285.1581297,-4.59326,-0.3815,0.88508,0.973813425,0.095275635,0.10046361
1764512285.1581297,-4.577999999999999,0.3815,0.82404,0.97436274,0.09423804,0.1000974
1764512285.1581297,-4.577999999999999,0.3815,0.82404,0.97436274,0.09423804,0.1000974
1764512285.1581297,-4.577999999999999,0.3815,0.82404,0.97436274,0.09423804,0.1000974
1764512285.1581297,-4.577999999999999,0.3815,0.82404,0.97436274,0.09423804,0.1000974
1764512285.1581297,-4.577999999999999,0.3815,0.82404,0.97436274,0.09423804,0.1000974
1764512285.1581297,-4.577999999999999,0.3815,0.82404,0.97436274,0.09423804,0.1000974
1764512285.2047682,-4.577999999999999,0.3815,0.82404,0.97436274,0.09423804,0.1000974
1764512285.2047682,-4.577999999999999,0.3815,0.82404,0.97436274,0.09423804,0.1000974
1764512285.2047682,-4.577999999999999,0.3815,0.82404,0.97436274,0.09423804,0.1000974
1764512285.2047682,-4.577999999999999,0.3815,0.82404,0.97436274,0.09423804,0.1000974
1764512285.2047682,-4.31858,0.8392999999999999,0.47306,0.9753393,0.093078375,0.10070775
1764512285.2047682,-4.31858,0.8392999999999999,0.47306,0.9753393,0.093078375,0.10070775
1764512285.2047682,-4.31858,0.8392999999999999,0.47306,0.9753393,0.093078375,0.10070775
1764512285.2047682,-4.31858,0.8392999999999999,0.47306,0.9753393,0.093078375,0.10070775
1764512285.2047682,-4.31858,0.8392999999999999,0.47306,0.9753393,0.093078375,0.10070775
1764512285.2058058,-4.31858,0.8392999999999999,0.47306,0.9753393,0.093078375,0.10070775
1764512285.2058058,-4.31858,0.8392999999999999,0.47306,0.9753393,0.093078375,0.10070775
1764512285.2058058,-4.31858,0.8392999999999999,0.47306,0.9753393,0.093078375,0.10070775
1764512285.2058058,-4.31858,0.8392999999999999,0.47306,0.9753393,0.093078375,0.10070775
1764512285.2058058,-4.31858,0.8392999999999999,0.47306,0.9753393,0.093078375,0.10070775
1764512285.2058058,-3.78448,1.15976,0.48832,0.974789985,0.09313941,0.10095189
1764512285.2058058,-3.78448,1.15976,0.48832,0.974789985,0.09313941,0.10095189
1764512285.2058058,-3.78448,1.15976,0.48832,0.974789985,0.09313941,0.10095189
1764512285.2058058,-3.78448,1.15976,0.48832,0.974789985,0.09313941,0.10095189
1764512285.2058058,-3.78448,1.15976,0.48832,0.974789985,0.09313941,0.10095189
1764512285.2058058,-3.78448,1.15976,0.48832,0.974789985,0.09313941,0.10095189
1764512285.2058058,-3.78448,1.15976,0.48832,0.974789985,0.09313941,0.10095189
1764512285.2058058,-3.78448,1.15976,0.48832,0.974789985,0.09313941,0.10095189
1764512285.2058058,-3.78448,1.15976,0.48832,0.974789985,0.09313941,0.10095189
1764512285.2058058,-3.78448,1.15976,0.48832,0.974789985,0.09313941,0.10095189
1764512285.2491095,-3.40298,1.11398,0.74774,0.97460688,0.09326148,0.10095189
1764512285.2491095,-3.40298,1.11398,0.74774,0.97460688,0.09326148,0.10095189
1764512285.2491095,-3.40298,1.11398,0.74774,0.97460688,0.09326148,0.10095189
1764512285.2491095,-3.40298,1.11398,0.74774,0.97460688,0.09326148,0.10095189
1764512285.2491095,-3.40298,1.11398,0.74774,0.97460688,0.09326148,0.10095189
1764512285.2491095,-3.40298,1.11398,0.74774,0.97460688,0.09326148,0.10095189
1764512285.2491095,-3.40298,1.11398,0.74774,0.97460688,0.09326148,0.10095189
1764512285.2491095,-3.40298,1.11398,0.74774,0.97460688,0.09326148,0.10095189
1764512285.2491095,-3.40298,1.11398,0.74774,0.97460688,0.09326148,0.10095189
1764512285.2491095,-3.40298,1.11398,0.74774,0.97460688,0.09326148,0.10095189
1764512285.2491095,-3.14356,1.2208,0.39676,0.974423775,0.09350562,0.10058568
1764512285.2501533,-3.14356,1.2208,0.39676,0.974423775,0.09350562,0.10058568
1764512285.2501533,-3.14356,1.2208,0.39676,0.974423775,0.09350562,0.10058568
1764512285.2501533,-3.14356,1.2208,0.39676,0.974423775,0.09350562,0.10058568
1764512285.2501533,-3.14356,1.2208,0.39676,0.974423775,0.09350562,0.10058568
1764512285.2501533,-3.14356,1.2208,0.39676,0.974423775,0.09350562,0.10058568
1764512285.2501533,-3.14356,1.2208,0.39676,0.974423775,0.09350562,0.10058568
1764512285.2501533,-3.14356,1.2208,0.39676,0.974423775,0.09350562,0.10058568
1764512285.2501533,-3.14356,1.2208,0.39676,0.974423775,0.09350562,0.10058568
1764512285.2501533,-3.14356,1.2208,0.39676,0.974423775,0.09350562,0.10058568
1764512285.2501533,-3.052,1.19028,1.08346,0.97338618,0.093444585,0.101012925
1764512285.2501533,-3.052,1.19028,1.08346,0.97338618,0.093444585,0.101012925
1764512285.2977571,-3.052,1.19028,1.08346,0.97338618,0.093444585,0.101012925
1764512285.2977571,-3.052,1.19028,1.08346,0.97338618,0.093444585,0.101012925
1764512285.2977571,-3.052,1.19028,1.08346,0.97338618,0.093444585,0.101012925
1764512285.2977571,-3.052,1.19028,1.08346,0.97338618,0.093444585,0.101012925
1764512285.2977571,-3.052,1.19028,1.08346,0.97338618,0.093444585,0.101012925
1764512285.2977571,-3.052,1.19028,1.08346,0.97338618,0.093444585,0.101012925
1764512285.2977571,-3.052,1.19028,1.08346,0.97338618,0.093444585,0.101012925
1764512285.2977571,-3.052,1.19028,1.08346,0.97338618,0.093444585,0.101012925
1764512285.2977571,-3.32668,1.15976,0.9156,0.97301997,0.09436011,0.10070775
1764512285.2977571,-3.32668,1.15976,0.9156,0.97301997,0.09436011,0.10070775
1764512285.2977571,-3.32668,1.15976,0.9156,0.97301997,0.09436011,0.10070775
1764512285.2977571,-3.32668,1.15976,0.9156,0.97301997,0.09436011,0.10070775
1764512285.2977571,-3.32668,1.15976,0.9156,0.97301997,0.09436011,0.10070775
1764512285.2989328,-3.32668,1.15976,0.9156,0.97301997,0.09436011,0.10070775
1764512285.2989328,-3.32668,1.15976,0.9156,0.97301997,0.09436011,0.10070775
1764512285.2989328,-3.32668,1.15976,0.9156,0.97301997,0.09436011,0.10070775
1764512285.2989328,-3.32668,1.15976,0.9156,0.97301997,0.09436011,0.10070775
1764512285.2989328,-3.32668,1.15976,0.9156,0.97301997,0.09436011,0.10070775
1764512285.2989328,-3.5098,1.23606,0.8087799999999999,0.97448481,0.09582495,0.10070775
1764512285.2989328,-3.5098,1.23606,0.8087799999999999,0.97448481,0.09582495,0.10070775
1764512285.2989328,-3.5098,1.23606,0.8087799999999999,0.97448481,0.09582495,0.10070775
1764512285.2989328,-3.5098,1.23606,0.8087799999999999,0.97448481,0.09582495,0.10070775
1764512285.2989328,-3.5098,1.23606,0.8087799999999999,0.97448481,0.09582495,0.10070775
1764512285.2989328,-3.5098,1.23606,0.8087799999999999,0.97448481,0.09582495,0.10070775
1764512285.346165,-3.5098,1.23606,0.8087799999999999,0.97448481,0.09582495,0.10070775
1764512285.346165,-3.5098,1.23606,0.8087799999999999,0.97448481,0.09582495,0.10070775
1764512285.346165,-3.5098,1.23606,0.8087799999999999,0.97448481,0.09582495,0.10070775
1764512285.346165,-3.5098,1.23606,0.8087799999999999,0.97448481,0.09582495,0.10070775
1764512285.346165,-3.8913,0.8698199999999999,0.9919,0.973569285,0.096374265,0.1000974
1764512285.346165,-3.8913,0.8698199999999999,0.9919,0.973569285,0.096374265,0.1000974
1764512285.346165,-3.8913,0.8698199999999999,0.9919,0.973569285,0.096374265,0.1000974
1764512285.3472066,-3.8913,0.8698199999999999,0.9919,0.973569285,0.096374265,0.1000974
1764512285.3472066,-3.8913,0.8698199999999999,0.9919,0.973569285,0.096374265,0.1000974
1764512285.3472066,-3.8913,0.8698199999999999,0.9919,0.973569285,0.096374265,0.1000974
1764512285.3472066,-3.8913,0.8698199999999999,0.9919,0.973569285,0.096374265,0.1000974
1764512285.3472066,-3.8913,0.8698199999999999,0.9919,0.973569285,0.096374265,0.1000974
1764512285.3472066,-3.8913,0.8698199999999999,0.9919,0.973569285,0.096374265,0.1000974
1764512285.3472066,-3.8913,0.8698199999999999,0.9919,0.973569285,0.096374265,0.1000974
1764512285.3472066,-4.24228,1.2971,0.93086,0.973813425,0.09619116,0.10070775
1764512285.3472066,-4.24228,1.2971,0.93086,0.973813425,0.09619116,0.10070775
1764512285.3472066,-4.24228,1.2971,0.93086,0.973813425,0.09619116,0.10070775
1764512285.3472066,-4.24228,1.2971,0.93086,0.973813425,0.09619116,0.10070775
1764512285.3472066,-4.24228,1.2971,0.93086,0.973813425,0.09619116,0.10070775
1764512285.3472066,-4.24228,1.2971,0.93086,0.973813425,0.09619116,0.10070775
1764512285.3927572,-4.24228,1.2971,0.93086,0.973813425,0.09619116,0.10070775
1764512285.3927572,-4.24228,1.2971,0.93086,0.973813425,0.09619116,0.10070775
1764512285.3927572,-4.24228,1.2971,0.93086,0.973813425,0.09619116,0.10070775
1764512285.3927572,-4.24228,1.2971,0.93086,0.973813425,0.09619116,0.10070775
1764512285.3927572,-4.2728,1.51074,1.12924,0.97448481,0.09472632,0.101623275
1764512285.3927572,-4.2728,1.51074,1.12924,0.97448481,0.09472632,0.101623275
1764512285.3927572,-4.2728,1.51074,1.12924,0.97448481,0.09472632,0.101623275
1764512285.3927572,-4.2728,1.51074,1.12924,0.97448481,0.09472632,0.101623275
1764512285.3927572,-4.2728,1.51074,1.12924,0.97448481,0.09472632,0.101623275
1764512285.3927572,-4.2728,1.51074,1.12924,0.97448481,0.09472632,0.101623275
1764512285.3927572,-4.2728,1.51074,1.12924,0.97448481,0.09472632,0.101623275
1764512285.3927572,-4.2728,1.51074,1.12924,0.97448481,0.09472632,0.101623275
1764512285.3927572,-4.2728,1.51074,1.12924,0.97448481,0.09472632,0.101623275
1764512285.3927572,-4.2728,1.51074,1.12924,0.97448481,0.09472632,0.101623275
1764512285.3927572,-4.07442,1.26658,1.34288,0.973325145,0.093078375,0.10217259
1764512285.3927572,-4.07442,1.26658,1.34288,0.973325145,0.093078375,0.10217259
1764512285.3927572,-4.07442,1.26658,1.34288,0.973325145,0.093078375,0.10217259
1764512285.3927572,-4.07442,1.26658,1.34288,0.973325145,0.093078375,0.10217259
1764512285.3927572,-4.07442,1.26658,1.34288,0.973325145,0.093078375,0.10217259
1764512285.3927572,-4.07442,1.26658,1.34288,0.973325145,0.093078375,0.10217259
1764512285.3927572,-4.07442,1.26658,1.34288,0.973325145,0.093078375,0.10217259
1764512285.3927572,-4.07442,1.26658,1.34288,0.973325145,0.093078375,0.10217259
1764512285.3927572,-4.07442,1.26658,1.34288,0.973325145,0.093078375,0.10217259
1764512285.3927572,-4.07442,1.26658,1.34288,0.973325145,0.093078375,0.10217259
1764512285.3927572,-3.4335,1.02242,0.9156,0.972958935,0.09240699,0.102355695
1764512285.3927572,-3.4335,1.02242,0.9156,0.972958935,0.09240699,0.102355695
1764512285.439771,-3.4335,1.02242,0.9156,0.972958935,0.09240699,0.102355695
1764512285.439771,-3.4335,1.02242,0.9156,0.972958935,0.09240699,0.102355695
1764512285.439771,-3.4335,1.02242,0.9156,0.972958935,0.09240699,0.102355695
1764512285.439771,-3.4335,1.02242,0.9156,0.972958935,0.09240699,0.102355695
1764512285.439771,-3.4335,1.02242,0.9156,0.972958935,0.09240699,0.102355695
1764512285.439771,-3.4335,1.02242,0.9156,0.972958935,0.09240699,0.102355695
1764512285.439771,-3.4335,1.02242,0.9156,0.972958935,0.09240699,0.102355695
1764512285.439771,-3.4335,1.02242,0.9156,0.972958935,0.09240699,0.102355695
1764512285.439771,-3.1283,0.93086,0.41202,0.97375239,0.09204078,0.102477765
1764512285.439771,-3.1283,0.93086,0.41202,0.97375239,0.09204078,0.102477765
1764512285.439771,-3.1283,0.93086,0.41202,0.97375239,0.09204078,0.102477765
1764512285.439771,-3.1283,0.93086,0.41202,0.97375239,0.09204078,0.102477765
1764512285.439771,-3.1283,0.93086,0.41202,0.97375239,0.09204078,0.102477765
1764512285.439771,-3.1283,0.93086,0.41202,0.97375239,0.09204078,0.102477765
1764512285.439771,-3.1283,0.93086,0.41202,0.97375239,0.09204078,0.102477765
1764512285.439771,-3.1283,0.93086,0.41202,0.97375239,0.09204078,0.102477765
1764512285.439771,-3.1283,0.93086,0.41202,0.97375239,0.09204078,0.102477765
1764512285.439771,-3.1283,0.93086,0.41202,0.97375239,0.09204078,0.102477765
1764512285.439771,-2.77732,0.88508,-0.59514,0.974301705,0.09289527,0.10290501
1764512285.439771,-2.77732,0.88508,-0.59514,0.974301705,0.09289527,0.10290501
1764512285.439771,-2.77732,0.88508,-0.59514,0.974301705,0.09289527,0.10290501
1764512285.439771,-2.77732,0.88508,-0.59514,0.974301705,0.09289527,0.10290501
1764512285.439771,-2.77732,0.88508,-0.59514,0.974301705,0.09289527,0.10290501
1764512285.439771,-2.77732,0.88508,-0.59514,0.974301705,0.09289527,0.10290501
1764512285.483859,-2.77732,0.88508,-0.59514,0.974301705,0.09289527,0.10290501
1764512285.483859,-2.77732,0.88508,-0.59514,0.974301705,0.09289527,0.10290501
1764512285.483859,-2.77732,0.88508,-0.59514,0.974301705,0.09289527,0.10290501
1764512285.483859,-2.77732,0.88508,-0.59514,0.974301705,0.09289527,0.10290501
1764512285.483859,-3.57084,1.02242,-0.97664,0.976498965,0.094177005,0.102477765
1764512285.483859,-3.57084,1.02242,-0.97664,0.976498965,0.094177005,0.102477765
1764512285.483859,-3.57084,1.02242,-0.97664,0.976498965,0.094177005,0.102477765
1764512285.483859,-3.57084,1.02242,-0.97664,0.976498965,0.094177005,0.102477765
1764512285.483859,-3.57084,1.02242,-0.97664,0.976498965,0.094177005,0.102477765
1764512285.483859,-3.57084,1.02242,-0.97664,0.976498965,0.094177005,0.102477765
1764512285.483859,-3.57084,1.02242,-0.97664,0.976498965,0.094177005,0.102477765
1764512285.483859,-3.57084,1.02242,-0.97664,0.976498965,0.094177005,0.102477765
1764512285.483859,-3.57084,1.02242,-0.97664,0.976498965,0.094177005,0.102477765
1764512285.483859,-3.57084,1.02242,-0.97664,0.976498965,0.094177005,0.102477765
1764512285.483859,-3.79974,1.6022999999999998,-0.44254,0.975766545,0.09570288,0.10192845
1764512285.483859,-3.79974,1.6022999999999998,-0.44254,0.975766545,0.09570288,0.10192845
1764512285.483859,-3.79974,1.6022999999999998,-0.44254,0.975766545,0.09570288,0.10192845
1764512285.483859,-3.79974,1.6022999999999998,-0.44254,0.975766545,0.09570288,0.10192845
1764512285.483859,-3.79974,1.6022999999999998,-0.44254,0.975766545,0.09570288,0.10192845
1764512285.483859,-3.79974,1.6022999999999998,-0.44254,0.975766545,0.09570288,0.10192845
1764512285.483859,-3.79974,1.6022999999999998,-0.44254,0.975766545,0.09570288,0.10192845
1764512285.483859,-3.79974,1.6022999999999998,-0.44254,0.975766545,0.09570288,0.10192845
1764512285.483859,-3.79974,1.6022999999999998,-0.44254,0.975766545,0.09570288,0.10192845
1764512285.483859,-3.79974,1.6022999999999998,-0.44254,0.975766545,0.09570288,0.10192845
1764512285.5318477,-3.75396,1.25132,0.59514,0.972470655,0.096130125,0.102111555
1764512285.5318477,-3.75396,1.25132,0.59514,0.972470655,0.096130125,0.102111555
1764512285.5318477,-3.75396,1.25132,0.59514,0.972470655,0.096130125,0.102111555
1764512285.5318477,-3.75396,1.25132,0.59514,0.972470655,0.096130125,0.102111555
1764512285.5318477,-3.75396,1.25132,0.59514,0.972470655,0.096130125,0.102111555
1764512285.5318477,-3.75396,1.25132,0.59514,0.972470655,0.096130125,0.102111555
1764512285.5318477,-3.75396,1.25132,0.59514,0.972470655,0.096130125,0.102111555
1764512285.5318477,-3.75396,1.25132,0.59514,0.972470655,0.096130125,0.102111555
1764512285.53287,-3.75396,1.25132,0.59514,0.972470655,0.096130125,0.102111555
1764512285.53287,-3.75396,1.25132,0.59514,0.972470655,0.096130125,0.102111555
1764512285.53287,-3.8913,1.49548,1.28184,0.970761675,0.09570288,0.10180638
1764512285.53287,-3.8913,1.49548,1.28184,0.970761675,0.09570288,0.10180638
1764512285.53287,-3.8913,1.49548,1.28184,0.970761675,0.09570288,0.10180638
1764512285.53287,-3.8913,1.49548,1.28184,0.970761675,0.09570288,0.10180638
1764512285.53287,-3.8913,1.49548,1.28184,0.970761675,0.09570288,0.10180638
1764512285.53287,-3.8913,1.49548,1.28184,0.970761675,0.09570288,0.10180638
1764512285.53287,-3.8913,1.49548,1.28184,0.970761675,0.09570288,0.10180638
1764512285.53287,-3.8913,1.49548,1.28184,0.970761675,0.09570288,0.10180638
1764512285.53287,-3.8913,1.49548,1.28184,0.970761675,0.09570288,0.10180638
1764512285.53287,-3.8913,1.49548,1.28184,0.970761675,0.09570288,0.10180638
1764512285.53287,-3.72344,1.34288,1.2971,0.972348585,0.095031495,0.102355695
1764512285.53287,-3.72344,1.34288,1.2971,0.972348585,0.095031495,0.102355695
1764512285.576408,-3.72344,1.34288,1.2971,0.972348585,0.095031495,0.102355695
1764512285.576408,-3.72344,1.34288,1.2971,0.972348585,0.095031495,0.102355695
1764512285.576408,-3.72344,1.34288,1.2971,0.972348585,0.095031495,0.102355695
1764512285.576408,-3.72344,1.34288,1.2971,0.972348585,0.095031495,0.102355695
1764512285.576408,-3.72344,1.34288,1.2971,0.972348585,0.095031495,0.102355695
1764512285.576408,-3.72344,1.34288,1.2971,0.972348585,0.095031495,0.102355695
1764512285.576408,-3.72344,1.34288,1.2971,0.972348585,0.095031495,0.102355695
1764512285.576408,-3.72344,1.34288,1.2971,0.972348585,0.095031495,0.102355695
1764512285.576408,-3.25038,1.48022,1.58704,0.97350825,0.09350562,0.103454325
1764512285.576408,-3.25038,1.48022,1.58704,0.97350825,0.09350562,0.103454325
1764512285.576408,-3.25038,1.48022,1.58704,0.97350825,0.09350562,0.103454325
1764512285.576408,-3.25038,1.48022,1.58704,0.97350825,0.09350562,0.103454325
1764512285.576408,-3.25038,1.48022,1.58704,0.97350825,0.09350562,0.103454325
1764512285.5774465,-3.25038,1.48022,1.58704,0.97350825,0.09350562,0.103454325
1764512285.5774465,-3.25038,1.48022,1.58704,0.97350825,0.09350562,0.103454325
1764512285.5774465,-3.25038,1.48022,1.58704,0.97350825,0.09350562,0.103454325
1764512285.5774465,-3.25038,1.48022,1.58704,0.97350825,0.09350562,0.103454325
1764512285.5774465,-3.25038,1.48022,1.58704,0.97350825,0.09350562,0.103454325
1764512285.5774465,-2.77732,1.4039199999999998,1.4497,0.974301705,0.092956305,0.103088115
1764512285.5774465,-2.77732,1.4039199999999998,1.4497,0.974301705,0.092956305,0.103088115
1764512285.5774465,-2.77732,1.4039199999999998,1.4497,0.974301705,0.092956305,0.103088115
1764512285.5774465,-2.77732,1.4039199999999998,1.4497,0.974301705,0.092956305,0.103088115
1764512285.5774465,-2.77732,1.4039199999999998,1.4497,0.974301705,0.092956305,0.103088115
1764512285.5774465,-2.77732,1.4039199999999998,1.4497,0.974301705,0.092956305,0.103088115
1764512285.6242,-2.77732,1.4039199999999998,1.4497,0.974301705,0.092956305,0.103088115
1764512285.6242,-2.77732,1.4039199999999998,1.4497,0.974301705,0.092956305,0.103088115
1764512285.6242,-2.77732,1.4039199999999998,1.4497,0.974301705,0.092956305,0.103088115
1764512285.6242,-2.77732,1.4039199999999998,1.4497,0.974301705,0.092956305,0.103088115
1764512285.6242,-2.86888,1.35814,1.26658,0.97448481,0.093444585,0.101867415
1764512285.6242,-2.86888,1.35814,1.26658,0.97448481,0.093444585,0.101867415
1764512285.6242,-2.86888,1.35814,1.26658,0.97448481,0.093444585,0.101867415
1764512285.6242,-2.86888,1.35814,1.26658,0.97448481,0.093444585,0.101867415
1764512285.6242,-2.86888,1.35814,1.26658,0.97448481,0.093444585,0.101867415
1764512285.6242,-2.86888,1.35814,1.26658,0.97448481,0.093444585,0.101867415
1764512285.6242,-2.86888,1.35814,1.26658,0.97448481,0.093444585,0.101867415
1764512285.6242,-2.86888,1.35814,1.26658,0.97448481,0.093444585,0.101867415
1764512285.6242,-2.86888,1.35814,1.26658,0.97448481,0.093444585,0.101867415
1764512285.6242,-2.86888,1.35814,1.26658,0.97448481,0.093444585,0.101867415
1764512285.6242,-3.15882,0.94612,1.48022,0.975034125,0.094421145,0.101257065
1764512285.6242,-3.15882,0.94612,1.48022,0.975034125,0.094421145,0.101257065
1764512285.6242,-3.15882,0.94612,1.48022,0.975034125,0.094421145,0.101257065
1764512285.6242,-3.15882,0.94612,1.48022,0.975034125,0.094421145,0.101257065
1764512285.6242,-3.15882,0.94612,1.48022,0.975034125,0.094421145,0.101257065
1764512285.6242,-3.15882,0.94612,1.48022,0.975034125,0.094421145,0.101257065
1764512285.6242,-3.15882,0.94612,1.48022,0.975034125,0.094421145,0.101257065
1764512285.6242,-3.15882,0.94612,1.48022,0.975034125,0.094421145,0.101257065
1764512285.6242,-3.15882,0.94612,1.48022,0.975034125,0.094421145,0.101257065
1764512285.6242,-3.15882,0.94612,1.48022,0.975034125,0.094421145,0.101257065
1764512285.671803,-3.93708,1.25132,1.2208,0.97375239,0.0952146,0.10058568
1764512285.671803,-3.93708,1.25132,1.2208,0.97375239,0.0952146,0.10058568
1764512285.671803,-3.93708,1.25132,1.2208,0.97375239,0.0952146,0.10058568
1764512285.671803,-3.93708,1.25132,1.2208,0.97375239,0.0952146,0.10058568
1764512285.671803,-3.93708,1.25132,1.2208,0.97375239,0.0952146,0.10058568
1764512285.671803,-3.93708,1.25132,1.2208,0.97375239,0.0952146,0.10058568
1764512285.671803,-3.93708,1.25132,1.2208,0.97375239,0.0952146,0.10058568
1764512285.671803,-3.93708,1.25132,1.2208,0.97375239,0.0952146,0.10058568
1764512285.671803,-3.93708,1.25132,1.2208,0.97375239,0.0952146,0.10058568
1764512285.671803,-3.93708,1.25132,1.2208,0.97375239,0.0952146,0.10058568
1764512285.672816,-4.28806,2.289,1.9075,0.97424067,0.09301734,0.10205052
1764512285.672816,-4.28806,2.289,1.9075,0.97424067,0.09301734,0.10205052
1764512285.672816,-4.28806,2.289,1.9075,0.97424067,0.09301734,0.10205052
1764512285.672816,-4.28806,2.289,1.9075,0.97424067,0.09301734,0.10205052
1764512285.672816,-4.28806,2.289,1.9075,0.97424067,0.09301734,0.10205052
1764512285.672816,-4.28806,2.289,1.9075,0.97424067,0.09301734,0.10205052
1764512285.672816,-4.28806,2.289,1.9075,0.97424067,0.09301734,0.10205052
1764512285.672816,-4.28806,2.289,1.9075,0.97424067,0.09301734,0.10205052
1764512285.672816,-4.28806,2.289,1.9075,0.97424067,0.09301734,0.10205052
1764512285.672816,-4.28806,2.289,1.9075,0.97424067,0.09301734,0.10205052
1764512285.672816,-3.60136,1.12924,0.82404,0.972104445,0.09289527,0.10192845
1764512285.672816,-3.60136,1.12924,0.82404,0.972104445,0.09289527,0.10192845
1764512285.7174196,-3.60136,1.12924,0.82404,0.972104445,0.09289527,0.10192845
1764512285.7174196,-3.60136,1.12924,0.82404,0.972104445,0.09289527,0.10192845
1764512285.7174196,-3.60136,1.12924,0.82404,0.972104445,0.09289527,0.10192845
1764512285.7174196,-3.60136,1.12924,0.82404,0.972104445,0.09289527,0.10192845
1764512285.7174196,-3.60136,1.12924,0.82404,0.972104445,0.09289527,0.10192845
1764512285.7174196,-3.60136,1.12924,0.82404,0.972104445,0.09289527,0.10192845
1764512285.7174196,-3.60136,1.12924,0.82404,0.972104445,0.09289527,0.10192845
1764512285.7174196,-3.60136,1.12924,0.82404,0.972104445,0.09289527,0.10192845
1764512285.7174196,-3.4335,0.44254,0.4578,0.9716772,0.092223885,0.10217259
1764512285.7174196,-3.4335,0.44254,0.4578,0.9716772,0.092223885,0.10217259
1764512285.7174196,-3.4335,0.44254,0.4578,0.9716772,0.092223885,0.10217259
1764512285.7174196,-3.4335,0.44254,0.4578,0.9716772,0.092223885,0.10217259
1764512285.7174196,-3.4335,0.44254,0.4578,0.9716772,0.092223885,0.10217259
1764512285.7174196,-3.4335,0.44254,0.4578,0.9716772,0.092223885,0.10217259
1764512285.7174196,-3.4335,0.44254,0.4578,0.9716772,0.092223885,0.10217259
1764512285.7174196,-3.4335,0.44254,0.4578,0.9716772,0.092223885,0.10217259
1764512285.7174196,-3.4335,0.44254,0.4578,0.9716772,0.092223885,0.10217259
1764512285.7174196,-3.4335,0.44254,0.4578,0.9716772,0.092223885,0.10217259
1764512285.7174196,-3.17408,0.6103999999999999,0.3204599999999999,0.973813425,0.09143043,0.10302708
1764512285.7174196,-3.17408,0.6103999999999999,0.3204599999999999,0.973813425,0.09143043,0.10302708
1764512285.7174196,-3.17408,0.6103999999999999,0.3204599999999999,0.973813425,0.09143043,0.10302708
1764512285.7174196,-3.17408,0.6103999999999999,0.3204599999999999,0.973813425,0.09143043,0.10302708
1764512285.7174196,-3.17408,0.6103999999999999,0.3204599999999999,0.973813425,0.09143043,0.10302708
1764512285.7174196,-3.17408,0.6103999999999999,0.3204599999999999,0.973813425,0.09143043,0.10302708
1764512285.7656271,-3.17408,0.6103999999999999,0.3204599999999999,0.973813425,0.09143043,0.10302708
1764512285.7656271,-3.17408,0.6103999999999999,0.3204599999999999,0.973813425,0.09143043,0.10302708
1764512285.7656271,-3.17408,0.6103999999999999,0.3204599999999999,0.973813425,0.09143043,0.10302708
1764512285.7656271,-3.17408,0.6103999999999999,0.3204599999999999,0.973813425,0.09143043,0.10302708
1764512285.7656271,-3.09778,0.85456,0.41202,0.97472895,0.092712165,0.102966045
1764512285.7656271,-3.09778,0.85456,0.41202,0.97472895,0.092712165,0.102966045
1764512285.7656271,-3.09778,0.85456,0.41202,0.97472895,0.092712165,0.102966045
1764512285.7656271,-3.09778,0.85456,0.41202,0.97472895,0.092712165,0.102966045
1764512285.7656271,-3.09778,0.85456,0.41202,0.97472895,0.092712165,0.102966045
1764512285.7656271,-3.09778,0.85456,0.41202,0.97472895,0.092712165,0.102966045
1764512285.7656271,-3.09778,0.85456,0.41202,0.97472895,0.092712165,0.102966045
1764512285.7656271,-3.09778,0.85456,0.41202,0.97472895,0.092712165,0.102966045
1764512285.7656271,-3.09778,0.85456,0.41202,0.97472895,0.092712165,0.102966045
1764512285.7656271,-3.09778,0.85456,0.41202,0.97472895,0.092712165,0.102966045
1764512285.7656271,-3.93708,0.6409199999999999,0.3509799999999999,0.973081005,0.09374976,0.10229466
1764512285.7656271,-3.93708,0.6409199999999999,0.3509799999999999,0.973081005,0.09374976,0.10229466
1764512285.7656271,-3.93708,0.6409199999999999,0.3509799999999999,0.973081005,0.09374976,0.10229466
1764512285.7666433,-3.93708,0.6409199999999999,0.3509799999999999,0.973081005,0.09374976,0.10229466
1764512285.7666433,-3.93708,0.6409199999999999,0.3509799999999999,0.973081005,0.09374976,0.10229466
1764512285.7666433,-3.93708,0.6409199999999999,0.3509799999999999,0.973081005,0.09374976,0.10229466
1764512285.7666433,-3.93708,0.6409199999999999,0.3509799999999999,0.973081005,0.09374976,0.10229466
1764512285.7666433,-3.93708,0.6409199999999999,0.3509799999999999,0.973081005,0.09374976,0.10229466
1764512285.809145,-3.93708,0.6409199999999999,0.3509799999999999,0.973081005,0.09374976,0.10229466
1764512285.809145,-3.93708,0.6409199999999999,0.3509799999999999,0.973081005,0.09374976,0.10229466
1764512285.809145,-4.1965,0.12208,0.13734,0.971372025,0.09533667,0.10229466
1764512285.809145,-4.1965,0.12208,0.13734,0.971372025,0.09533667,0.10229466
1764512285.809145,-4.1965,0.12208,0.13734,0.971372025,0.09533667,0.10229466
1764512285.809145,-4.1965,0.12208,0.13734,0.971372025,0.09533667,0.10229466
1764512285.809145,-4.1965,0.12208,0.13734,0.971372025,0.09533667,0.10229466
1764512285.809145,-4.1965,0.12208,0.13734,0.971372025,0.09533667,0.10229466
1764512285.809145,-4.1965,0.12208,0.13734,0.971372025,0.09533667,0.10229466
1764512285.809145,-4.1965,0.12208,0.13734,0.971372025,0.09533667,0.10229466
1764512285.809145,-4.1965,0.12208,0.13734,0.971372025,0.09533667,0.10229466
1764512285.809145,-4.1965,0.12208,0.13734,0.971372025,0.09533667,0.10229466
1764512285.809145,-4.63904,0.27468,0.03052,0.9716772,0.094787355,0.10229466
1764512285.8101823,-4.63904,0.27468,0.03052,0.9716772,0.094787355,0.10229466
1764512285.8101823,-4.63904,0.27468,0.03052,0.9716772,0.094787355,0.10229466
1764512285.8101823,-4.63904,0.27468,0.03052,0.9716772,0.094787355,0.10229466
1764512285.8101823,-4.63904,0.27468,0.03052,0.9716772,0.094787355,0.10229466
1764512285.8101823,-4.63904,0.27468,0.03052,0.9716772,0.094787355,0.10229466
1764512285.8101823,-4.63904,0.27468,0.03052,0.9716772,0.094787355,0.10229466
1764512285.8101823,-4.63904,0.27468,0.03052,0.9716772,0.094787355,0.10229466
1764512285.8101823,-4.63904,0.27468,0.03052,0.9716772,0.094787355,0.10229466
1764512285.8101823,-4.63904,0.27468,0.03052,0.9716772,0.094787355,0.10229466
1764512285.8101823,-4.62378,-0.01526,0.13734,0.972226515,0.093810795,0.101623275
1764512285.8101823,-4.62378,-0.01526,0.13734,0.972226515,0.093810795,0.101623275
1764512285.853973,-4.62378,-0.01526,0.13734,0.972226515,0.093810795,0.101623275
1764512285.853973,-4.62378,-0.01526,0.13734,0.972226515,0.093810795,0.101623275
1764512285.853973,-4.62378,-0.01526,0.13734,0.972226515,0.093810795,0.101623275
1764512285.853973,-4.62378,-0.01526,0.13734,0.972226515,0.093810795,0.101623275
1764512285.853973,-4.62378,-0.01526,0.13734,0.972226515,0.093810795,0.101623275
1764512285.853973,-4.62378,-0.01526,0.13734,0.972226515,0.093810795,0.101623275
1764512285.853973,-4.62378,-0.01526,0.13734,0.972226515,0.093810795,0.101623275
1764512285.853973,-4.62378,-0.01526,0.13734,0.972226515,0.093810795,0.101623275
1764512285.853973,-4.440659999999999,0.10682,0.44254,0.97375239,0.094543215,0.10119603
1764512285.853973,-4.440659999999999,0.10682,0.44254,0.97375239,0.094543215,0.10119603
1764512285.853973,-4.440659999999999,0.10682,0.44254,0.97375239,0.094543215,0.10119603
1764512285.853973,-4.440659999999999,0.10682,0.44254,0.97375239,0.094543215,0.10119603
1764512285.853973,-4.440659999999999,0.10682,0.44254,0.97375239,0.094543215,0.10119603
1764512285.853973,-4.440659999999999,0.10682,0.44254,0.97375239,0.094543215,0.10119603
1764512285.853973,-4.440659999999999,0.10682,0.44254,0.97375239,0.094543215,0.10119603
1764512285.853973,-4.440659999999999,0.10682,0.44254,0.97375239,0.094543215,0.10119603
1764512285.8550026,-4.440659999999999,0.10682,0.44254,0.97375239,0.094543215,0.10119603
1764512285.8550026,-4.440659999999999,0.10682,0.44254,0.97375239,0.094543215,0.10119603
1764512285.9018505,-4.59326,-0.03052,0.56462,0.97375239,0.09436011,0.10058568
1764512285.9018505,-4.59326,-0.03052,0.56462,0.97375239,0.09436011,0.10058568
1764512285.9018505,-4.59326,-0.03052,0.56462,0.97375239,0.09436011,0.10058568
1764512285.9018505,-4.59326,-0.03052,0.56462,0.97375239,0.09436011,0.10058568
1764512285.9018505,-4.59326,-0.03052,0.56462,0.97375239,0.09436011,0.10058568
1764512285.9018505,-4.59326,-0.03052,0.56462,0.97375239,0.09436011,0.10058568
1764512285.9018505,-4.59326,-0.03052,0.56462,0.97375239,0.09436011,0.10058568
1764512285.9018505,-4.59326,-0.03052,0.56462,0.97375239,0.09436011,0.10058568
1764512285.9018505,-4.59326,-0.03052,0.56462,0.97375239,0.09436011,0.10058568
1764512285.9018505,-4.59326,-0.03052,0.56462,0.97375239,0.09436011,0.10058568
1764512285.9018505,-4.24228,0.18312,0.54936,0.974545845,0.094787355,0.09985326
1764512285.9018505,-4.24228,0.18312,0.54936,0.974545845,0.094787355,0.09985326
1764512285.9018505,-4.24228,0.18312,0.54936,0.974545845,0.094787355,0.09985326
1764512285.9018505,-4.24228,0.18312,0.54936,0.974545845,0.094787355,0.09985326
1764512285.9018505,-4.24228,0.18312,0.54936,0.974545845,0.094787355,0.09985326
1764512285.9018505,-4.24228,0.18312,0.54936,0.974545845,0.094787355,0.09985326
1764512285.9018505,-4.24228,0.18312,0.54936,0.974545845,0.094787355,0.09985326
1764512285.9018505,-4.24228,0.18312,0.54936,0.974545845,0.094787355,0.09985326
1764512285.9018505,-4.24228,0.18312,0.54936,0.974545845,0.094787355,0.09985326
1764512285.9018505,-4.24228,0.18312,0.54936,0.974545845,0.094787355,0.09985326
1764512285.9018505,-4.15072,0.94612,0.3815,0.975278265,0.094299075,0.1000974
1764512285.9018505,-4.15072,0.94612,0.3815,0.975278265,0.094299075,0.1000974
1764512285.9018505,-4.15072,0.94612,0.3815,0.975278265,0.094299075,0.1000974
1764512285.9018505,-4.15072,0.94612,0.3815,0.975278265,0.094299075,0.1000974
1764512285.9018505,-4.15072,0.94612,0.3815,0.975278265,0.094299075,0.1000974
1764512285.9018505,-4.15072,0.94612,0.3815,0.975278265,0.094299075,0.1000974
1764512285.9460945,-4.15072,0.94612,0.3815,0.975278265,0.094299075,0.1000974
1764512285.946602,-4.15072,0.94612,0.3815,0.975278265,0.094299075,0.1000974
1764512285.946602,-4.15072,0.94612,0.3815,0.975278265,0.094299075,0.1000974
1764512285.946602,-4.15072,0.94612,0.3815,0.975278265,0.094299075,0.1000974
1764512285.946602,-3.95234,1.35814,0.54936,0.9753393,0.094177005,0.099914295
1764512285.946602,-3.95234,1.35814,0.54936,0.9753393,0.094177005,0.099914295
1764512285.946602,-3.95234,1.35814,0.54936,0.9753393,0.094177005,0.099914295
1764512285.946602,-3.95234,1.35814,0.54936,0.9753393,0.094177005,0.099914295
1764512285.946602,-3.95234,1.35814,0.54936,0.9753393,0.094177005,0.099914295
1764512285.946602,-3.95234,1.35814,0.54936,0.9753393,0.094177005,0.099914295
1764512285.946602,-3.95234,1.35814,0.54936,0.9753393,0.094177005,0.099914295
1764512285.946602,-3.95234,1.35814,0.54936,0.9753393,0.094177005,0.099914295
1764512285.946602,-3.95234,1.35814,0.54936,0.9753393,0.094177005,0.099914295
1764512285.946602,-3.95234,1.35814,0.54936,0.9753393,0.094177005,0.099914295
1764512285.946602,-3.84552,1.32762,0.6409199999999999,0.974423775,0.09472632,0.100036365
1764512285.946602,-3.84552,1.32762,0.6409199999999999,0.974423775,0.09472632,0.100036365
1764512285.946602,-3.84552,1.32762,0.6409199999999999,0.974423775,0.09472632,0.100036365
1764512285.946602,-3.84552,1.32762,0.6409199999999999,0.974423775,0.09472632,0.100036365
1764512285.946602,-3.84552,1.32762,0.6409199999999999,0.974423775,0.09472632,0.100036365
1764512285.947611,-3.84552,1.32762,0.6409199999999999,0.974423775,0.09472632,0.100036365
1764512285.947611,-3.84552,1.32762,0.6409199999999999,0.974423775,0.09472632,0.100036365
1764512285.947611,-3.84552,1.32762,0.6409199999999999,0.974423775,0.09472632,0.100036365
1764512285.947611,-3.84552,1.32762,0.6409199999999999,0.974423775,0.09472632,0.100036365
1764512285.947611,-3.84552,1.32762,0.6409199999999999,0.974423775,0.09472632,0.100036365
1764512285.9952726,-3.38772,0.9919,0.7019599999999999,0.97399653,0.09497046,0.099914295
1764512285.9952726,-3.38772,0.9919,0.7019599999999999,0.97399653,0.09497046,0.099914295
1764512285.9952726,-3.38772,0.9919,0.7019599999999999,0.97399653,0.09497046,0.099914295
1764512285.9952726,-3.38772,0.9919,0.7019599999999999,0.97399653,0.09497046,0.099914295
1764512285.9952726,-3.38772,0.9919,0.7019599999999999,0.97399653,0.09497046,0.099914295
1764512285.9952726,-3.38772,0.9919,0.7019599999999999,0.97399653,0.09497046,0.099914295
1764512285.9952726,-3.38772,0.9919,0.7019599999999999,0.97399653,0.09497046,0.099914295
1764512285.9952726,-3.38772,0.9919,0.7019599999999999,0.97399653,0.09497046,0.099914295
1764512285.9952726,-3.38772,0.9919,0.7019599999999999,0.97399653,0.09497046,0.099914295
1764512285.9952726,-3.38772,0.9919,0.7019599999999999,0.97399653,0.09497046,0.099914295
1764512285.9952726,-3.14356,1.12924,1.00716,0.97314204,0.095275635,0.100036365
1764512285.9952726,-3.14356,1.12924,1.00716,0.97314204,0.095275635,0.100036365
1764512285.9952726,-3.14356,1.12924,1.00716,0.97314204,0.095275635,0.100036365
1764512285.9952726,-3.14356,1.12924,1.00716,0.97314204,0.095275635,0.100036365
1764512285.9952726,-3.14356,1.12924,1.00716,0.97314204,0.095275635,0.100036365
1764512285.9952726,-3.14356,1.12924,1.00716,0.97314204,0.095275635,0.100036365
1764512285.9952726,-3.14356,1.12924,1.00716,0.97314204,0.095275635,0.100036365
1764512285.9952726,-3.14356,1.12924,1.00716,0.97314204,0.095275635,0.100036365
1764512285.9952726,-3.14356,1.12924,1.00716,0.97314204,0.095275635,0.100036365
1764512285.9952726,-3.14356,1.12924,1.00716,0.97314204,0.095275635,0.100036365
1764512285.9952726,-3.37246,1.34288,1.12924,0.973691355,0.095641845,0.09973119
1764512285.9952726,-3.37246,1.34288,1.12924,0.973691355,0.095641845,0.09973119
1764512285.9952726,-3.37246,1.34288,1.12924,0.973691355,0.095641845,0.09973119
1764512285.9952726,-3.37246,1.34288,1.12924,0.973691355,0.095641845,0.09973119
1764512286.045488,-3.37246,1.34288,1.12924,0.973691355,0.095641845,0.09973119
1764512286.045488,-3.37246,1.34288,1.12924,0.973691355,0.095641845,0.09973119
1764512286.045488,-3.37246,1.34288,1.12924,0.973691355,0.095641845,0.09973119
1764512286.045488,-3.37246,1.34288,1.12924,0.973691355,0.095641845,0.09973119
1764512286.045488,-3.37246,1.34288,1.12924,0.973691355,0.095641845,0.09973119
1764512286.045488,-3.37246,1.34288,1.12924,0.973691355,0.095641845,0.09973119
1764512286.045488,-3.64714,0.8087799999999999,0.8087799999999999,0.97424067,0.096130125,0.099670155
1764512286.045488,-3.64714,0.8087799999999999,0.8087799999999999,0.97424067,0.096130125,0.099670155
1764512286.045488,-3.64714,0.8087799999999999,0.8087799999999999,0.97424067,0.096130125,0.099670155
1764512286.045488,-3.64714,0.8087799999999999,0.8087799999999999,0.97424067,0.096130125,0.099670155
1764512286.045488,-3.64714,0.8087799999999999,0.8087799999999999,0.97424067,0.096130125,0.099670155
1764512286.045488,-3.64714,0.8087799999999999,0.8087799999999999,0.97424067,0.096130125,0.099670155
1764512286.045488,-3.64714,0.8087799999999999,0.8087799999999999,0.97424067,0.096130125,0.099670155
1764512286.045488,-3.64714,0.8087799999999999,0.8087799999999999,0.97424067,0.096130125,0.099670155
1764512286.045488,-3.64714,0.8087799999999999,0.8087799999999999,0.97424067,0.096130125,0.099670155
1764512286.045488,-3.64714,0.8087799999999999,0.8087799999999999,0.97424067,0.096130125,0.099670155
1764512286.045488,-3.72344,1.08346,0.77826,0.97338618,0.09606909,0.099303945
1764512286.045488,-3.72344,1.08346,0.77826,0.97338618,0.09606909,0.099303945
1764512286.045488,-3.72344,1.08346,0.77826,0.97338618,0.09606909,0.099303945
1764512286.045488,-3.72344,1.08346,0.77826,0.97338618,0.09606909,0.099303945
1764512286.045488,-3.72344,1.08346,0.77826,0.97338618,0.09606909,0.099303945
1764512286.045488,-3.72344,1.08346,0.77826,0.97338618,0.09606909,0.099303945
1764512286.045488,-3.72344,1.08346,0.77826,0.97338618,0.09606909,0.099303945
1764512286.045488,-3.72344,1.08346,0.77826,0.97338618,0.09606909,0.099303945
1764512286.0895827,-3.72344,1.08346,0.77826,0.97338618,0.09606909,0.099303945
1764512286.0895827,-3.72344,1.08346,0.77826,0.97338618,0.09606909,0.099303945
1764512286.0895827,-3.7387,1.0682,0.3815,0.97350825,0.096008055,0.09973119
1764512286.0895827,-3.7387,1.0682,0.3815,0.97350825,0.096008055,0.09973119
1764512286.0895827,-3.7387,1.0682,0.3815,0.97350825,0.096008055,0.09973119
1764512286.0895827,-3.7387,1.0682,0.3815,0.97350825,0.096008055,0.09973119
1764512286.0895827,-3.7387,1.0682,0.3815,0.97350825,0.096008055,0.09973119
1764512286.0895827,-3.7387,1.0682,0.3815,0.97350825,0.096008055,0.09973119
1764512286.0895827,-3.7387,1.0682,0.3815,0.97350825,0.096008055,0.09973119
1764512286.0895827,-3.7387,1.0682,0.3815,0.97350825,0.096008055,0.09973119
1764512286.0895827,-3.7387,1.0682,0.3815,0.97350825,0.096008055,0.09973119
1764512286.0895827,-3.7387,1.0682,0.3815,0.97350825,0.096008055,0.09973119
1764512286.0895827,-3.72344,1.61756,0.8392999999999999,0.974057565,0.095153565,0.100524645
1764512286.090604,-3.72344,1.61756,0.8392999999999999,0.974057565,0.095153565,0.100524645
1764512286.090604,-3.72344,1.61756,0.8392999999999999,0.974057565,0.095153565,0.100524645
1764512286.090604,-3.72344,1.61756,0.8392999999999999,0.974057565,0.095153565,0.100524645
1764512286.090604,-3.72344,1.61756,0.8392999999999999,0.974057565,0.095153565,0.100524645
1764512286.090604,-3.72344,1.61756,0.8392999999999999,0.974057565,0.095153565,0.100524645
1764512286.0911222,-3.72344,1.61756,0.8392999999999999,0.974057565,0.095153565,0.100524645
1764512286.0911222,-3.72344,1.61756,0.8392999999999999,0.974057565,0.095153565,0.100524645
1764512286.0911222,-3.72344,1.61756,0.8392999999999999,0.974057565,0.095153565,0.100524645
1764512286.0911222,-3.72344,1.61756,0.8392999999999999,0.974057565,0.095153565,0.100524645
1764512286.0911222,-4.24228,1.11398,0.93086,0.97338618,0.0939939,0.10095189
1764512286.0911222,-4.24228,1.11398,0.93086,0.97338618,0.0939939,0.10095189
1764512286.138424,-4.24228,1.11398,0.93086,0.97338618,0.0939939,0.10095189
1764512286.138424,-4.24228,1.11398,0.93086,0.97338618,0.0939939,0.10095189
1764512286.138424,-4.24228,1.11398,0.93086,0.97338618,0.0939939,0.10095189
1764512286.138424,-4.24228,1.11398,0.93086,0.97338618,0.0939939,0.10095189
1764512286.138424,-4.24228,1.11398,0.93086,0.97338618,0.0939939,0.10095189
1764512286.138424,-4.24228,1.11398,0.93086,0.97338618,0.0939939,0.10095189
1764512286.138424,-4.24228,1.11398,0.93086,0.97338618,0.0939939,0.10095189
1764512286.138424,-4.24228,1.11398,0.93086,0.97338618,0.0939939,0.10095189
1764512286.138424,-3.86078,1.08346,0.8698199999999999,0.973203075,0.093444585,0.10046361
1764512286.138424,-3.86078,1.08346,0.8698199999999999,0.973203075,0.093444585,0.10046361
1764512286.138424,-3.86078,1.08346,0.8698199999999999,0.973203075,0.093444585,0.10046361
1764512286.138424,-3.86078,1.08346,0.8698199999999999,0.973203075,0.093444585,0.10046361
1764512286.138424,-3.86078,1.08346,0.8698199999999999,0.973203075,0.093444585,0.10046361
1764512286.138424,-3.86078,1.08346,0.8698199999999999,0.973203075,0.093444585,0.10046361
1764512286.138424,-3.86078,1.08346,0.8698199999999999,0.973203075,0.093444585,0.10046361
1764512286.138424,-3.86078,1.08346,0.8698199999999999,0.973203075,0.093444585,0.10046361
1764512286.138424,-3.86078,1.08346,0.8698199999999999,0.973203075,0.093444585,0.10046361
1764512286.138424,-3.86078,1.08346,0.8698199999999999,0.973203075,0.093444585,0.10046361
1764512286.138424,-3.93708,0.2289,0.09156,0.973447215,0.09350562,0.100524645
1764512286.138424,-3.93708,0.2289,0.09156,0.973447215,0.09350562,0.100524645
1764512286.138424,-3.93708,0.2289,0.09156,0.973447215,0.09350562,0.100524645
1764512286.138424,-3.93708,0.2289,0.09156,0.973447215,0.09350562,0.100524645
1764512286.1818795,-3.93708,0.2289,0.09156,0.973447215,0.09350562,0.100524645
1764512286.1818795,-3.93708,0.2289,0.09156,0.973447215,0.09350562,0.100524645
1764512286.182901,-3.93708,0.2289,0.09156,0.973447215,0.09350562,0.100524645
1764512286.182901,-3.93708,0.2289,0.09156,0.973447215,0.09350562,0.100524645
1764512286.182901,-3.93708,0.2289,0.09156,0.973447215,0.09350562,0.100524645
1764512286.182901,-3.93708,0.2289,0.09156,0.973447215,0.09350562,0.100524645
1764512286.182901,-3.54032,0.12208,-0.73248,0.9741186,0.094177005,0.10107396
1764512286.182901,-3.54032,0.12208,-0.73248,0.9741186,0.094177005,0.10107396
1764512286.182901,-3.54032,0.12208,-0.73248,0.9741186,0.094177005,0.10107396
1764512286.182901,-3.54032,0.12208,-0.73248,0.9741186,0.094177005,0.10107396
1764512286.182901,-3.54032,0.12208,-0.73248,0.9741186,0.094177005,0.10107396
1764512286.182901,-3.54032,0.12208,-0.73248,0.9741186,0.094177005,0.10107396
1764512286.1839025,-3.54032,0.12208,-0.73248,0.9741186,0.094177005,0.10107396
1764512286.1839025,-3.54032,0.12208,-0.73248,0.9741186,0.094177005,0.10107396
1764512286.1839025,-3.54032,0.12208,-0.73248,0.9741186,0.094177005,0.10107396
1764512286.1839025,-3.54032,0.12208,-0.73248,0.9741186,0.094177005,0.10107396
1764512286.1839025,-4.01338,1.03768,-0.763,0.97692621,0.095885985,0.10058568
1764512286.1839025,-4.01338,1.03768,-0.763,0.97692621,0.095885985,0.10058568
1764512286.1839025,-4.01338,1.03768,-0.763,0.97692621,0.095885985,0.10058568
1764512286.1839025,-4.01338,1.03768,-0.763,0.97692621,0.095885985,0.10058568
1764512286.1839025,-4.01338,1.03768,-0.763,0.97692621,0.095885985,0.10058568
1764512286.1839025,-4.01338,1.03768,-0.763,0.97692621,0.095885985,0.10058568
1764512286.1839025,-4.01338,1.03768,-0.763,0.97692621,0.095885985,0.10058568
1764512286.1839025,-4.01338,1.03768,-0.763,0.97692621,0.095885985,0.10058568
1764512286.2313051,-4.01338,1.03768,-0.763,0.97692621,0.095885985,0.10058568
1764512286.2313051,-4.01338,1.03768,-0.763,0.97692621,0.095885985,0.10058568
1764512286.2313051,-4.3491,2.01432,-0.74774,0.97680414,0.096740475,0.100402575
1764512286.2313051,-4.3491,2.01432,-0.74774,0.97680414,0.096740475,0.100402575
1764512286.2313051,-4.3491,2.01432,-0.74774,0.97680414,0.096740475,0.100402575
1764512286.2313051,-4.3491,2.01432,-0.74774,0.97680414,0.096740475,0.100402575
1764512286.2313051,-4.3491,2.01432,-0.74774,0.97680414,0.096740475,0.100402575
1764512286.2313051,-4.3491,2.01432,-0.74774,0.97680414,0.096740475,0.100402575
1764512286.2313051,-4.3491,2.01432,-0.74774,0.97680414,0.096740475,0.100402575
1764512286.2313051,-4.3491,2.01432,-0.74774,0.97680414,0.096740475,0.100402575
1764512286.2313051,-4.3491,2.01432,-0.74774,0.97680414,0.096740475,0.100402575
1764512286.2313051,-4.3491,2.01432,-0.74774,0.97680414,0.096740475,0.100402575
1764512286.2313051,-4.10494,1.77016,0.04578,0.97472895,0.09631323,0.099426015
1764512286.2313051,-4.10494,1.77016,0.04578,0.97472895,0.09631323,0.099426015
1764512286.2313051,-4.10494,1.77016,0.04578,0.97472895,0.09631323,0.099426015
1764512286.2313051,-4.10494,1.77016,0.04578,0.97472895,0.09631323,0.099426015
1764512286.2313051,-4.10494,1.77016,0.04578,0.97472895,0.09631323,0.099426015
1764512286.2313051,-4.10494,1.77016,0.04578,0.97472895,0.09631323,0.099426015
1764512286.2313051,-4.10494,1.77016,0.04578,0.97472895,0.09631323,0.099426015
1764512286.2313051,-4.10494,1.77016,0.04578,0.97472895,0.09631323,0.099426015
1764512286.2313051,-4.10494,1.77016,0.04578,0.97472895,0.09631323,0.099426015
1764512286.2313051,-4.10494,1.77016,0.04578,0.97472895,0.09631323,0.099426015
1764512286.2313051,-3.86078,1.96854,0.73248,0.972836865,0.095275635,0.1000974
1764512286.2313051,-3.86078,1.96854,0.73248,0.972836865,0.095275635,0.1000974
1764512286.2753751,-3.86078,1.96854,0.73248,0.972836865,0.095275635,0.1000974
1764512286.2753751,-3.86078,1.96854,0.73248,0.972836865,0.095275635,0.1000974
1764512286.2753751,-3.86078,1.96854,0.73248,0.972836865,0.095275635,0.1000974
1764512286.2753751,-3.86078,1.96854,0.73248,0.972836865,0.095275635,0.1000974
1764512286.2753751,-3.86078,1.96854,0.73248,0.972836865,0.095275635,0.1000974
1764512286.2753751,-3.86078,1.96854,0.73248,0.972836865,0.095275635,0.1000974
1764512286.2753751,-3.86078,1.96854,0.73248,0.972836865,0.095275635,0.1000974
1764512286.2753751,-3.86078,1.96854,0.73248,0.972836865,0.095275635,0.1000974
1764512286.2753751,-3.31142,1.72438,1.4039199999999998,0.97301997,0.09374976,0.10107396
1764512286.2753751,-3.31142,1.72438,1.4039199999999998,0.97301997,0.09374976,0.10107396
1764512286.2753751,-3.31142,1.72438,1.4039199999999998,0.97301997,0.09374976,0.10107396
1764512286.2753751,-3.31142,1.72438,1.4039199999999998,0.97301997,0.09374976,0.10107396
1764512286.2753751,-3.31142,1.72438,1.4039199999999998,0.97301997,0.09374976,0.10107396
1764512286.2753751,-3.31142,1.72438,1.4039199999999998,0.97301997,0.09374976,0.10107396
1764512286.27641,-3.31142,1.72438,1.4039199999999998,0.97301997,0.09374976,0.10107396
1764512286.27641,-3.31142,1.72438,1.4039199999999998,0.97301997,0.09374976,0.10107396
1764512286.27641,-3.31142,1.72438,1.4039199999999998,0.97301997,0.09374976,0.10107396
1764512286.27641,-3.31142,1.72438,1.4039199999999998,0.97301997,0.09374976,0.10107396
1764512286.27641,-2.30426,2.09062,1.6022999999999998,0.97363032,0.092834235,0.10217259
1764512286.27641,-2.30426,2.09062,1.6022999999999998,0.97363032,0.092834235,0.10217259
1764512286.27641,-2.30426,2.09062,1.6022999999999998,0.97363032,0.092834235,0.10217259
1764512286.27641,-2.30426,2.09062,1.6022999999999998,0.97363032,0.092834235,0.10217259
1764512286.27641,-2.30426,2.09062,1.6022999999999998,0.97363032,0.092834235,0.10217259
1764512286.27641,-2.30426,2.09062,1.6022999999999998,0.97363032,0.092834235,0.10217259
1764512286.3247716,-2.30426,2.09062,1.6022999999999998,0.97363032,0.092834235,0.10217259
1764512286.3247716,-2.30426,2.09062,1.6022999999999998,0.97363032,0.092834235,0.10217259
1764512286.3247716,-2.30426,2.09062,1.6022999999999998,0.97363032,0.092834235,0.10217259
1764512286.3247716,-2.30426,2.09062,1.6022999999999998,0.97363032,0.092834235,0.10217259
1764512286.3247716,-2.6705,1.81594,1.6633399999999998,0.97350825,0.094054935,0.102111555
1764512286.3247716,-2.6705,1.81594,1.6633399999999998,0.97350825,0.094054935,0.102111555
1764512286.3247716,-2.6705,1.81594,1.6633399999999998,0.97350825,0.094054935,0.102111555
1764512286.3247716,-2.6705,1.81594,1.6633399999999998,0.97350825,0.094054935,0.102111555
1764512286.3247716,-2.6705,1.81594,1.6633399999999998,0.97350825,0.094054935,0.102111555
1764512286.3247716,-2.6705,1.81594,1.6633399999999998,0.97350825,0.094054935,0.102111555
1764512286.3247716,-2.6705,1.81594,1.6633399999999998,0.97350825,0.094054935,0.102111555
1764512286.3247716,-2.6705,1.81594,1.6633399999999998,0.97350825,0.094054935,0.102111555
1764512286.3247716,-2.6705,1.81594,1.6633399999999998,0.97350825,0.094054935,0.102111555
1764512286.3247716,-2.6705,1.81594,1.6633399999999998,0.97350825,0.094054935,0.102111555
1764512286.3247716,-3.15882,1.35814,1.6633399999999998,0.97350825,0.0964353,0.101379135
1764512286.3247716,-3.15882,1.35814,1.6633399999999998,0.97350825,0.0964353,0.101379135
1764512286.3247716,-3.15882,1.35814,1.6633399999999998,0.97350825,0.0964353,0.101379135
1764512286.3247716,-3.15882,1.35814,1.6633399999999998,0.97350825,0.0964353,0.101379135
1764512286.3247716,-3.15882,1.35814,1.6633399999999998,0.97350825,0.0964353,0.101379135
1764512286.3247716,-3.15882,1.35814,1.6633399999999998,0.97350825,0.0964353,0.101379135
1764512286.3247716,-3.15882,1.35814,1.6633399999999998,0.97350825,0.0964353,0.101379135
1764512286.3247716,-3.15882,1.35814,1.6633399999999998,0.97350825,0.0964353,0.101379135
1764512286.3683825,-3.15882,1.35814,1.6633399999999998,0.97350825,0.0964353,0.101379135
1764512286.3683825,-3.15882,1.35814,1.6633399999999998,0.97350825,0.0964353,0.101379135
1764512286.3683825,-4.059159999999999,1.3734,0.94612,0.974912055,0.096862545,0.101379135
1764512286.3683825,-4.059159999999999,1.3734,0.94612,0.974912055,0.096862545,0.101379135
1764512286.3688934,-4.059159999999999,1.3734,0.94612,0.974912055,0.096862545,0.101379135
1764512286.3688934,-4.059159999999999,1.3734,0.94612,0.974912055,0.096862545,0.101379135
1764512286.3688934,-4.059159999999999,1.3734,0.94612,0.974912055,0.096862545,0.101379135
1764512286.3688934,-4.059159999999999,1.3734,0.94612,0.974912055,0.096862545,0.101379135
1764512286.3688934,-4.059159999999999,1.3734,0.94612,0.974912055,0.096862545,0.101379135
1764512286.3688934,-4.059159999999999,1.3734,0.94612,0.974912055,0.096862545,0.101379135
1764512286.3688934,-4.059159999999999,1.3734,0.94612,0.974912055,0.096862545,0.101379135
1764512286.3688934,-4.059159999999999,1.3734,0.94612,0.974912055,0.096862545,0.101379135
1764512286.3688934,-4.89846,1.2055399999999998,0.73248,0.97387446,0.09716772,0.10144017
1764512286.3688934,-4.89846,1.2055399999999998,0.73248,0.97387446,0.09716772,0.10144017
1764512286.3688934,-4.89846,1.2055399999999998,0.73248,0.97387446,0.09716772,0.10144017
1764512286.3688934,-4.89846,1.2055399999999998,0.73248,0.97387446,0.09716772,0.10144017
1764512286.3688934,-4.89846,1.2055399999999998,0.73248,0.97387446,0.09716772,0.10144017
1764512286.3699102,-4.89846,1.2055399999999998,0.73248,0.97387446,0.09716772,0.10144017
1764512286.3699102,-4.89846,1.2055399999999998,0.73248,0.97387446,0.09716772,0.10144017
1764512286.3699102,-4.89846,1.2055399999999998,0.73248,0.97387446,0.09716772,0.10144017
1764512286.3699102,-4.89846,1.2055399999999998,0.73248,0.97387446,0.09716772,0.10144017
1764512286.3699102,-4.89846,1.2055399999999998,0.73248,0.97387446,0.09716772,0.10144017
1764512286.3699102,-4.303319999999999,1.70912,1.1445,0.974179635,0.09472632,0.10168431
1764512286.3699102,-4.303319999999999,1.70912,1.1445,0.974179635,0.09472632,0.10168431
1764512286.4166374,-4.303319999999999,1.70912,1.1445,0.974179635,0.09472632,0.10168431
1764512286.4166374,-4.303319999999999,1.70912,1.1445,0.974179635,0.09472632,0.10168431
1764512286.4166374,-4.303319999999999,1.70912,1.1445,0.974179635,0.09472632,0.10168431
1764512286.4166374,-4.303319999999999,1.70912,1.1445,0.974179635,0.09472632,0.10168431
1764512286.4166374,-4.303319999999999,1.70912,1.1445,0.974179635,0.09472632,0.10168431
1764512286.4166374,-4.303319999999999,1.70912,1.1445,0.974179635,0.09472632,0.10168431
1764512286.4166374,-4.303319999999999,1.70912,1.1445,0.974179635,0.09472632,0.10168431
1764512286.4166374,-4.303319999999999,1.70912,1.1445,0.974179635,0.09472632,0.10168431
1764512286.4166374,-3.83026,1.19028,1.08346,0.971616165,0.09326148,0.101867415
1764512286.4166374,-3.83026,1.19028,1.08346,0.971616165,0.09326148,0.101867415
1764512286.4166374,-3.83026,1.19028,1.08346,0.971616165,0.09326148,0.101867415
1764512286.4166374,-3.83026,1.19028,1.08346,0.971616165,0.09326148,0.101867415
1764512286.4166374,-3.83026,1.19028,1.08346,0.971616165,0.09326148,0.101867415
1764512286.4166374,-3.83026,1.19028,1.08346,0.971616165,0.09326148,0.101867415
1764512286.4166374,-3.83026,1.19028,1.08346,0.971616165,0.09326148,0.101867415
1764512286.4166374,-3.83026,1.19028,1.08346,0.971616165,0.09326148,0.101867415
1764512286.4166374,-3.83026,1.19028,1.08346,0.971616165,0.09326148,0.101867415
1764512286.4166374,-3.83026,1.19028,1.08346,0.971616165,0.09326148,0.101867415
1764512286.4166374,-3.5861,0.41202,0.97664,0.97265376,0.092956305,0.10144017
1764512286.4166374,-3.5861,0.41202,0.97664,0.97265376,0.092956305,0.10144017
1764512286.4166374,-3.5861,0.41202,0.97664,0.97265376,0.092956305,0.10144017
1764512286.4166374,-3.5861,0.41202,0.97664,0.97265376,0.092956305,0.10144017
1764512286.463648,-3.5861,0.41202,0.97664,0.97265376,0.092956305,0.10144017
1764512286.463648,-3.5861,0.41202,0.97664,0.97265376,0.092956305,0.10144017
1764512286.463648,-3.5861,0.41202,0.97664,0.97265376,0.092956305,0.10144017
1764512286.464159,-3.5861,0.41202,0.97664,0.97265376,0.092956305,0.10144017
1764512286.464159,-3.5861,0.41202,0.97664,0.97265376,0.092956305,0.10144017
1764512286.464159,-3.5861,0.41202,0.97664,0.97265376,0.092956305,0.10144017
1764512286.464159,-3.54032,1.38866,0.6714399999999999,0.974912055,0.092834235,0.101745345
1764512286.464159,-3.54032,1.38866,0.6714399999999999,0.974912055,0.092834235,0.101745345
1764512286.464159,-3.54032,1.38866,0.6714399999999999,0.974912055,0.092834235,0.101745345
1764512286.464159,-3.54032,1.38866,0.6714399999999999,0.974912055,0.092834235,0.101745345
1764512286.464159,-3.54032,1.38866,0.6714399999999999,0.974912055,0.092834235,0.101745345
1764512286.464159,-3.54032,1.38866,0.6714399999999999,0.974912055,0.092834235,0.101745345
1764512286.464159,-3.54032,1.38866,0.6714399999999999,0.974912055,0.092834235,0.101745345
1764512286.464159,-3.54032,1.38866,0.6714399999999999,0.974912055,0.092834235,0.101745345
1764512286.464159,-3.54032,1.38866,0.6714399999999999,0.974912055,0.092834235,0.101745345
1764512286.464159,-3.54032,1.38866,0.6714399999999999,0.974912055,0.092834235,0.101745345
1764512286.464159,-3.55558,1.54126,0.85456,0.97570551,0.09338355,0.10168431
1764512286.464159,-3.55558,1.54126,0.85456,0.97570551,0.09338355,0.10168431
1764512286.464159,-3.55558,1.54126,0.85456,0.97570551,0.09338355,0.10168431
1764512286.464159,-3.55558,1.54126,0.85456,0.97570551,0.09338355,0.10168431
1764512286.464159,-3.55558,1.54126,0.85456,0.97570551,0.09338355,0.10168431
1764512286.464159,-3.55558,1.54126,0.85456,0.97570551,0.09338355,0.10168431
1764512286.508607,-3.55558,1.54126,0.85456,0.97570551,0.09338355,0.10168431
1764512286.508607,-3.55558,1.54126,0.85456,0.97570551,0.09338355,0.10168431
1764512286.508607,-3.55558,1.54126,0.85456,0.97570551,0.09338355,0.10168431
1764512286.508607,-3.55558,1.54126,0.85456,0.97570551,0.09338355,0.10168431
1764512286.508607,-3.99812,1.6786,0.42728,0.9741186,0.094054935,0.10058568
1764512286.508607,-3.99812,1.6786,0.42728,0.9741186,0.094054935,0.10058568
1764512286.508607,-3.99812,1.6786,0.42728,0.9741186,0.094054935,0.10058568
1764512286.508607,-3.99812,1.6786,0.42728,0.9741186,0.094054935,0.10058568
1764512286.508607,-3.99812,1.6786,0.42728,0.9741186,0.094054935,0.10058568
1764512286.508607,-3.99812,1.6786,0.42728,0.9741186,0.094054935,0.10058568
1764512286.5096018,-3.99812,1.6786,0.42728,0.9741186,0.094054935,0.10058568
1764512286.5096018,-3.99812,1.6786,0.42728,0.9741186,0.094054935,0.10058568
1764512286.5096018,-3.99812,1.6786,0.42728,0.9741186,0.094054935,0.10058568
1764512286.5096018,-3.99812,1.6786,0.42728,0.9741186,0.094054935,0.10058568
1764512286.5096018,-3.86078,0.96138,0.36624,0.972714795,0.0939939,0.101012925
1764512286.5096018,-3.86078,0.96138,0.36624,0.972714795,0.0939939,0.101012925
1764512286.5096018,-3.86078,0.96138,0.36624,0.972714795,0.0939939,0.101012925
1764512286.5096018,-3.86078,0.96138,0.36624,0.972714795,0.0939939,0.101012925
1764512286.5096018,-3.86078,0.96138,0.36624,0.972714795,0.0939939,0.101012925
1764512286.5096018,-3.86078,0.96138,0.36624,0.972714795,0.0939939,0.101012925
1764512286.5096018,-3.86078,0.96138,0.36624,0.972714795,0.0939939,0.101012925
1764512286.5096018,-3.86078,0.96138,0.36624,0.972714795,0.0939939,0.101012925
1764512286.5096018,-3.86078,0.96138,0.36624,0.972714795,0.0939939,0.101012925
1764512286.5096018,-3.86078,0.96138,0.36624,0.972714795,0.0939939,0.101012925
1764512286.5096018,-4.0439,0.8392999999999999,0.39676,0.97131099,0.09387183,0.102355695
1764512286.5096018,-4.0439,0.8392999999999999,0.39676,0.97131099,0.09387183,0.102355695
1764512286.5576837,-4.0439,0.8392999999999999,0.39676,0.97131099,0.09387183,0.102355695
1764512286.5576837,-4.0439,0.8392999999999999,0.39676,0.97131099,0.09387183,0.102355695
1764512286.5576837,-4.0439,0.8392999999999999,0.39676,0.97131099,0.09387183,0.102355695
1764512286.5576837,-4.0439,0.8392999999999999,0.39676,0.97131099,0.09387183,0.102355695
1764512286.5576837,-4.0439,0.8392999999999999,0.39676,0.97131099,0.09387183,0.102355695
1764512286.5576837,-4.0439,0.8392999999999999,0.39676,0.97131099,0.09387183,0.102355695
1764512286.5576837,-4.0439,0.8392999999999999,0.39676,0.97131099,0.09387183,0.102355695
1764512286.5576837,-4.0439,0.8392999999999999,0.39676,0.97131099,0.09387183,0.102355695
1764512286.5576837,-3.86078,0.42728,0.97664,0.971494095,0.09301734,0.10156224
1764512286.5576837,-3.86078,0.42728,0.97664,0.971494095,0.09301734,0.10156224
1764512286.5576837,-3.86078,0.42728,0.97664,0.971494095,0.09301734,0.10156224
1764512286.5576837,-3.86078,0.42728,0.97664,0.971494095,0.09301734,0.10156224
1764512286.5576837,-3.86078,0.42728,0.97664,0.971494095,0.09301734,0.10156224
1764512286.5576837,-3.86078,0.42728,0.97664,0.971494095,0.09301734,0.10156224
1764512286.5576837,-3.86078,0.42728,0.97664,0.971494095,0.09301734,0.10156224
1764512286.5576837,-3.86078,0.42728,0.97664,0.971494095,0.09301734,0.10156224
1764512286.5576837,-3.86078,0.42728,0.97664,0.971494095,0.09301734,0.10156224
1764512286.5576837,-3.86078,0.42728,0.97664,0.971494095,0.09301734,0.10156224
1764512286.5576837,-3.815,0.59514,1.03768,0.97228755,0.093688725,0.101379135
1764512286.5586684,-3.815,0.59514,1.03768,0.97228755,0.093688725,0.101379135
1764512286.5586684,-3.815,0.59514,1.03768,0.97228755,0.093688725,0.101379135
1764512286.5586684,-3.815,0.59514,1.03768,0.97228755,0.093688725,0.101379135
1764512286.601704,-3.815,0.59514,1.03768,0.97228755,0.093688725,0.101379135
1764512286.601704,-3.815,0.59514,1.03768,0.97228755,0.093688725,0.101379135
1764512286.601704,-3.815,0.59514,1.03768,0.97228755,0.093688725,0.101379135
1764512286.601704,-3.815,0.59514,1.03768,0.97228755,0.093688725,0.101379135
1764512286.601704,-3.815,0.59514,1.03768,0.97228755,0.093688725,0.101379135
1764512286.601704,-3.815,0.59514,1.03768,0.97228755,0.093688725,0.101379135
1764512286.601704,-4.2728,0.59514,0.73248,0.97326411,0.094909425,0.100890855
1764512286.601704,-4.2728,0.59514,0.73248,0.97326411,0.094909425,0.100890855
1764512286.601704,-4.2728,0.59514,0.73248,0.97326411,0.094909425,0.100890855
1764512286.601704,-4.2728,0.59514,0.73248,0.97326411,0.094909425,0.100890855
1764512286.601704,-4.2728,0.59514,0.73248,0.97326411,0.094909425,0.100890855
1764512286.6027148,-4.2728,0.59514,0.73248,0.97326411,0.094909425,0.100890855
1764512286.6027148,-4.2728,0.59514,0.73248,0.97326411,0.094909425,0.100890855
1764512286.6027148,-4.2728,0.59514,0.73248,0.97326411,0.094909425,0.100890855
1764512286.6027148,-4.2728,0.59514,0.73248,0.97326411,0.094909425,0.100890855
1764512286.6027148,-4.2728,0.59514,0.73248,0.97326411,0.094909425,0.100890855
1764512286.6027148,-4.25754,0.6714399999999999,0.4578,0.97436274,0.09558081,0.1000974
1764512286.6027148,-4.25754,0.6714399999999999,0.4578,0.97436274,0.09558081,0.1000974
1764512286.6027148,-4.25754,0.6714399999999999,0.4578,0.97436274,0.09558081,0.1000974
1764512286.6027148,-4.25754,0.6714399999999999,0.4578,0.97436274,0.09558081,0.1000974
1764512286.6027148,-4.25754,0.6714399999999999,0.4578,0.97436274,0.09558081,0.1000974
1764512286.6027148,-4.25754,0.6714399999999999,0.4578,0.97436274,0.09558081,0.1000974
1764512286.6027148,-4.25754,0.6714399999999999,0.4578,0.97436274,0.09558081,0.1000974
1764512286.6027148,-4.25754,0.6714399999999999,0.4578,0.97436274,0.09558081,0.1000974
1764512286.6496384,-4.25754,0.6714399999999999,0.4578,0.97436274,0.09558081,0.1000974
1764512286.6496384,-4.25754,0.6714399999999999,0.4578,0.97436274,0.09558081,0.1000974
1764512286.6496384,-4.76112,1.1445,0.36624,0.97460688,0.09619116,0.1000974
1764512286.6496384,-4.76112,1.1445,0.36624,0.97460688,0.09619116,0.1000974
1764512286.6496384,-4.76112,1.1445,0.36624,0.97460688,0.09619116,0.1000974
1764512286.6496384,-4.76112,1.1445,0.36624,0.97460688,0.09619116,0.1000974
1764512286.6496384,-4.76112,1.1445,0.36624,0.97460688,0.09619116,0.1000974
1764512286.6496384,-4.76112,1.1445,0.36624,0.97460688,0.09619116,0.1000974
1764512286.6496384,-4.76112,1.1445,0.36624,0.97460688,0.09619116,0.1000974
1764512286.6496384,-4.76112,1.1445,0.36624,0.97460688,0.09619116,0.1000974
1764512286.6496384,-4.76112,1.1445,0.36624,0.97460688,0.09619116,0.1000974
1764512286.6496384,-4.76112,1.1445,0.36624,0.97460688,0.09619116,0.1000974
1764512286.6496384,-4.24228,1.63282,0.57988,0.97472895,0.095641845,0.100036365
1764512286.6496384,-4.24228,1.63282,0.57988,0.97472895,0.095641845,0.100036365
1764512286.6496384,-4.24228,1.63282,0.57988,0.97472895,0.095641845,0.100036365
1764512286.6496384,-4.24228,1.63282,0.57988,0.97472895,0.095641845,0.100036365
1764512286.6496384,-4.24228,1.63282,0.57988,0.97472895,0.095641845,0.100036365
1764512286.6496384,-4.24228,1.63282,0.57988,0.97472895,0.095641845,0.100036365
1764512286.6496384,-4.24228,1.63282,0.57988,0.97472895,0.095641845,0.100036365
1764512286.6496384,-4.24228,1.63282,0.57988,0.97472895,0.095641845,0.100036365
1764512286.650987,-4.24228,1.63282,0.57988,0.97472895,0.095641845,0.100036365
1764512286.650987,-4.24228,1.63282,0.57988,0.97472895,0.095641845,0.100036365
1764512286.6978545,-4.059159999999999,1.4497,1.11398,0.97424067,0.09484839,0.101012925
1764512286.6978545,-4.059159999999999,1.4497,1.11398,0.97424067,0.09484839,0.101012925
1764512286.6978545,-4.059159999999999,1.4497,1.11398,0.97424067,0.09484839,0.101012925
1764512286.6978545,-4.059159999999999,1.4497,1.11398,0.97424067,0.09484839,0.101012925
1764512286.6978545,-4.059159999999999,1.4497,1.11398,0.97424067,0.09484839,0.101012925
1764512286.6978545,-4.059159999999999,1.4497,1.11398,0.97424067,0.09484839,0.101012925
1764512286.6978545,-4.059159999999999,1.4497,1.11398,0.97424067,0.09484839,0.101012925
1764512286.6978545,-4.059159999999999,1.4497,1.11398,0.97424067,0.09484839,0.101012925
1764512286.6978545,-4.059159999999999,1.4497,1.11398,0.97424067,0.09484839,0.101012925
1764512286.6978545,-4.059159999999999,1.4497,1.11398,0.97424067,0.09484839,0.101012925
1764512286.6978545,-3.29616,1.35814,1.58704,0.97301997,0.094054935,0.10034154
1764512286.6978545,-3.29616,1.35814,1.58704,0.97301997,0.094054935,0.10034154
1764512286.6978545,-3.29616,1.35814,1.58704,0.97301997,0.094054935,0.10034154
1764512286.6978545,-3.29616,1.35814,1.58704,0.97301997,0.094054935,0.10034154
1764512286.6978545,-3.29616,1.35814,1.58704,0.97301997,0.094054935,0.10034154
1764512286.6978545,-3.29616,1.35814,1.58704,0.97301997,0.094054935,0.10034154
1764512286.6978545,-3.29616,1.35814,1.58704,0.97301997,0.094054935,0.10034154
1764512286.6978545,-3.29616,1.35814,1.58704,0.97301997,0.094054935,0.10034154
1764512286.6978545,-3.29616,1.35814,1.58704,0.97301997,0.094054935,0.10034154
1764512286.6978545,-3.29616,1.35814,1.58704,0.97301997,0.094054935,0.10034154
1764512286.6978545,-3.08252,1.4039199999999998,1.34288,0.972836865,0.09448218,0.10058568
1764512286.6978545,-3.08252,1.4039199999999998,1.34288,0.972836865,0.09448218,0.10058568
1764512286.6988685,-3.08252,1.4039199999999998,1.34288,0.972836865,0.09448218,0.10058568
1764512286.6988685,-3.08252,1.4039199999999998,1.34288,0.972836865,0.09448218,0.10058568
1764512286.7412555,-3.08252,1.4039199999999998,1.34288,0.972836865,0.09448218,0.10058568
1764512286.7412555,-3.08252,1.4039199999999998,1.34288,0.972836865,0.09448218,0.10058568
1764512286.7412555,-3.08252,1.4039199999999998,1.34288,0.972836865,0.09448218,0.10058568
1764512286.7412555,-3.08252,1.4039199999999998,1.34288,0.972836865,0.09448218,0.10058568
1764512286.7422743,-3.08252,1.4039199999999998,1.34288,0.972836865,0.09448218,0.10058568
1764512286.7422743,-3.08252,1.4039199999999998,1.34288,0.972836865,0.09448218,0.10058568
1764512286.7422743,-3.69292,1.32762,1.08346,0.97387446,0.09472632,0.100646715
1764512286.7422743,-3.69292,1.32762,1.08346,0.97387446,0.09472632,0.100646715
1764512286.7422743,-3.69292,1.32762,1.08346,0.97387446,0.09472632,0.100646715
1764512286.7422743,-3.69292,1.32762,1.08346,0.97387446,0.09472632,0.100646715
1764512286.7422743,-3.69292,1.32762,1.08346,0.97387446,0.09472632,0.100646715
1764512286.7422743,-3.69292,1.32762,1.08346,0.97387446,0.09472632,0.100646715
1764512286.7422743,-3.69292,1.32762,1.08346,0.97387446,0.09472632,0.100646715
1764512286.7422743,-3.69292,1.32762,1.08346,0.97387446,0.09472632,0.100646715
1764512286.7422743,-3.69292,1.32762,1.08346,0.97387446,0.09472632,0.100646715
1764512286.7432773,-3.69292,1.32762,1.08346,0.97387446,0.09472632,0.100646715
1764512286.7432773,-3.60136,1.41918,1.2208,0.974545845,0.095641845,0.100646715
1764512286.7432773,-3.60136,1.41918,1.2208,0.974545845,0.095641845,0.100646715
1764512286.7432773,-3.60136,1.41918,1.2208,0.974545845,0.095641845,0.100646715
1764512286.7432773,-3.60136,1.41918,1.2208,0.974545845,0.095641845,0.100646715
1764512286.7432773,-3.60136,1.41918,1.2208,0.974545845,0.095641845,0.100646715
1764512286.7432773,-3.60136,1.41918,1.2208,0.974545845,0.095641845,0.100646715
1764512286.7432773,-3.60136,1.41918,1.2208,0.974545845,0.095641845,0.100646715
1764512286.7432773,-3.60136,1.41918,1.2208,0.974545845,0.095641845,0.100646715
1764512286.7895188,-3.60136,1.41918,1.2208,0.974545845,0.095641845,0.100646715
1764512286.7895188,-3.60136,1.41918,1.2208,0.974545845,0.095641845,0.100646715
1764512286.7895188,-4.25754,1.6786,0.8698199999999999,0.97424067,0.096130125,0.10021947
1764512286.7895188,-4.25754,1.6786,0.8698199999999999,0.97424067,0.096130125,0.10021947
1764512286.7895188,-4.25754,1.6786,0.8698199999999999,0.97424067,0.096130125,0.10021947
1764512286.7895188,-4.25754,1.6786,0.8698199999999999,0.97424067,0.096130125,0.10021947
1764512286.7895188,-4.25754,1.6786,0.8698199999999999,0.97424067,0.096130125,0.10021947
1764512286.7895188,-4.25754,1.6786,0.8698199999999999,0.97424067,0.096130125,0.10021947
1764512286.7895188,-4.25754,1.6786,0.8698199999999999,0.97424067,0.096130125,0.10021947
1764512286.7895188,-4.25754,1.6786,0.8698199999999999,0.97424067,0.096130125,0.10021947
1764512286.7895188,-4.25754,1.6786,0.8698199999999999,0.97424067,0.096130125,0.10021947
1764512286.790558,-4.25754,1.6786,0.8698199999999999,0.97424067,0.096130125,0.10021947
1764512286.790558,-4.60852,1.35814,1.26658,0.973203075,0.09545874,0.100036365
1764512286.790558,-4.60852,1.35814,1.26658,0.973203075,0.09545874,0.100036365
1764512286.790558,-4.60852,1.35814,1.26658,0.973203075,0.09545874,0.100036365
1764512286.790558,-4.60852,1.35814,1.26658,0.973203075,0.09545874,0.100036365
1764512286.790558,-4.60852,1.35814,1.26658,0.973203075,0.09545874,0.100036365
1764512286.790558,-4.60852,1.35814,1.26658,0.973203075,0.09545874,0.100036365
1764512286.790558,-4.60852,1.35814,1.26658,0.973203075,0.09545874,0.100036365
1764512286.790558,-4.60852,1.35814,1.26658,0.973203075,0.09545874,0.100036365
1764512286.790558,-4.60852,1.35814,1.26658,0.973203075,0.09545874,0.100036365
1764512286.790558,-4.60852,1.35814,1.26658,0.973203075,0.09545874,0.100036365
1764512286.790558,-3.93708,1.2971,1.03768,0.97338618,0.094421145,0.10070775
1764512286.790558,-3.93708,1.2971,1.03768,0.97338618,0.094421145,0.10070775
1764512286.8384068,-3.93708,1.2971,1.03768,0.97338618,0.094421145,0.10070775
1764512286.8384068,-3.93708,1.2971,1.03768,0.97338618,0.094421145,0.10070775
1764512286.8384068,-3.93708,1.2971,1.03768,0.97338618,0.094421145,0.10070775
1764512286.8384068,-3.93708,1.2971,1.03768,0.97338618,0.094421145,0.10070775
1764512286.8384068,-3.93708,1.2971,1.03768,0.97338618,0.094421145,0.10070775
1764512286.8384068,-3.93708,1.2971,1.03768,0.97338618,0.094421145,0.10070775
1764512286.8384068,-3.93708,1.2971,1.03768,0.97338618,0.094421145,0.10070775
1764512286.8384068,-3.93708,1.2971,1.03768,0.97338618,0.094421145,0.10070775
1764512286.8384068,-3.98286,1.2971,1.49548,0.97399653,0.093322515,0.10058568
1764512286.8384068,-3.98286,1.2971,1.49548,0.97399653,0.093322515,0.10058568
1764512286.8384068,-3.98286,1.2971,1.49548,0.97399653,0.093322515,0.10058568
1764512286.8384068,-3.98286,1.2971,1.49548,0.97399653,0.093322515,0.10058568
1764512286.8384068,-3.98286,1.2971,1.49548,0.97399653,0.093322515,0.10058568
1764512286.8384068,-3.98286,1.2971,1.49548,0.97399653,0.093322515,0.10058568
1764512286.8384068,-3.98286,1.2971,1.49548,0.97399653,0.093322515,0.10058568
1764512286.8384068,-3.98286,1.2971,1.49548,0.97399653,0.093322515,0.10058568
1764512286.8384068,-3.98286,1.2971,1.49548,0.97399653,0.093322515,0.10058568
1764512286.8384068,-3.98286,1.2971,1.49548,0.97399653,0.093322515,0.10058568
1764512286.8384068,-3.41824,1.58704,1.28184,0.973935495,0.092712165,0.10107396
1764512286.8384068,-3.41824,1.58704,1.28184,0.973935495,0.092712165,0.10107396
1764512286.8384068,-3.41824,1.58704,1.28184,0.973935495,0.092712165,0.10107396
1764512286.8384068,-3.41824,1.58704,1.28184,0.973935495,0.092712165,0.10107396
1764512286.8384068,-3.41824,1.58704,1.28184,0.973935495,0.092712165,0.10107396
1764512286.8394375,-3.41824,1.58704,1.28184,0.973935495,0.092712165,0.10107396
1764512286.8869808,-3.41824,1.58704,1.28184,0.973935495,0.092712165,0.10107396
1764512286.8869808,-3.41824,1.58704,1.28184,0.973935495,0.092712165,0.10107396
1764512286.8869808,-3.41824,1.58704,1.28184,0.973935495,0.092712165,0.10107396
1764512286.8869808,-3.41824,1.58704,1.28184,0.973935495,0.092712165,0.10107396
1764512286.8869808,-3.5861,1.08346,0.79352,0.97314204,0.09252906,0.100646715
1764512286.8869808,-3.5861,1.08346,0.79352,0.97314204,0.09252906,0.100646715
1764512286.8869808,-3.5861,1.08346,0.79352,0.97314204,0.09252906,0.100646715
1764512286.8869808,-3.5861,1.08346,0.79352,0.97314204,0.09252906,0.100646715
1764512286.8869808,-3.5861,1.08346,0.79352,0.97314204,0.09252906,0.100646715
1764512286.8869808,-3.5861,1.08346,0.79352,0.97314204,0.09252906,0.100646715
1764512286.8869808,-3.5861,1.08346,0.79352,0.97314204,0.09252906,0.100646715
1764512286.8869808,-3.5861,1.08346,0.79352,0.97314204,0.09252906,0.100646715
1764512286.8869808,-3.5861,1.08346,0.79352,0.97314204,0.09252906,0.100646715
1764512286.8869808,-3.5861,1.08346,0.79352,0.97314204,0.09252906,0.100646715
1764512286.8869808,-3.52506,1.19028,0.42728,0.97338618,0.092468025,0.101257065
1764512286.8869808,-3.52506,1.19028,0.42728,0.97338618,0.092468025,0.101257065
1764512286.8869808,-3.52506,1.19028,0.42728,0.97338618,0.092468025,0.101257065
1764512286.8869808,-3.52506,1.19028,0.42728,0.97338618,0.092468025,0.101257065
1764512286.8869808,-3.52506,1.19028,0.42728,0.97338618,0.092468025,0.101257065
1764512286.8869808,-3.52506,1.19028,0.42728,0.97338618,0.092468025,0.101257065
1764512286.8869808,-3.52506,1.19028,0.42728,0.97338618,0.092468025,0.101257065
1764512286.8869808,-3.52506,1.19028,0.42728,0.97338618,0.092468025,0.101257065
1764512286.8869808,-3.52506,1.19028,0.42728,0.97338618,0.092468025,0.101257065
1764512286.8869808,-3.52506,1.19028,0.42728,0.97338618,0.092468025,0.101257065
1764512286.931258,-3.98286,0.18312,-0.77826,0.973081005,0.094177005,0.100768785
1764512286.931258,-3.98286,0.18312,-0.77826,0.973081005,0.094177005,0.100768785
1764512286.931258,-3.98286,0.18312,-0.77826,0.973081005,0.094177005,0.100768785
1764512286.931258,-3.98286,0.18312,-0.77826,0.973081005,0.094177005,0.100768785
1764512286.931258,-3.98286,0.18312,-0.77826,0.973081005,0.094177005,0.100768785
1764512286.931258,-3.98286,0.18312,-0.77826,0.973081005,0.094177005,0.100768785
1764512286.931258,-3.98286,0.18312,-0.77826,0.973081005,0.094177005,0.100768785
1764512286.931258,-3.98286,0.18312,-0.77826,0.973081005,0.094177005,0.100768785
1764512286.931258,-3.98286,0.18312,-0.77826,0.973081005,0.094177005,0.100768785
1764512286.9323013,-3.98286,0.18312,-0.77826,0.973081005,0.094177005,0.100768785
1764512286.9323013,-4.440659999999999,1.15976,-0.7019599999999999,0.97509516,0.094909425,0.101012925
1764512286.9323013,-4.440659999999999,1.15976,-0.7019599999999999,0.97509516,0.094909425,0.101012925
1764512286.9323013,-4.440659999999999,1.15976,-0.7019599999999999,0.97509516,0.094909425,0.101012925
1764512286.9323013,-4.440659999999999,1.15976,-0.7019599999999999,0.97509516,0.094909425,0.101012925
1764512286.9323013,-4.440659999999999,1.15976,-0.7019599999999999,0.97509516,0.094909425,0.101012925
1764512286.9323013,-4.440659999999999,1.15976,-0.7019599999999999,0.97509516,0.094909425,0.101012925
1764512286.9323013,-4.440659999999999,1.15976,-0.7019599999999999,0.97509516,0.094909425,0.101012925
1764512286.9323013,-4.440659999999999,1.15976,-0.7019599999999999,0.97509516,0.094909425,0.101012925
1764512286.9328864,-4.440659999999999,1.15976,-0.7019599999999999,0.97509516,0.094909425,0.101012925
1764512286.9328864,-4.440659999999999,1.15976,-0.7019599999999999,0.97509516,0.094909425,0.101012925
1764512286.9328864,-4.33384,1.78542,-0.51884,0.97607172,0.0952146,0.10058568
1764512286.9328864,-4.33384,1.78542,-0.51884,0.97607172,0.0952146,0.10058568
1764512286.9793308,-4.33384,1.78542,-0.51884,0.97607172,0.0952146,0.10058568
1764512286.9793308,-4.33384,1.78542,-0.51884,0.97607172,0.0952146,0.10058568
1764512286.9793308,-4.33384,1.78542,-0.51884,0.97607172,0.0952146,0.10058568
1764512286.9793308,-4.33384,1.78542,-0.51884,0.97607172,0.0952146,0.10058568
1764512286.9793308,-4.33384,1.78542,-0.51884,0.97607172,0.0952146,0.10058568
1764512286.9793308,-4.33384,1.78542,-0.51884,0.97607172,0.0952146,0.10058568
1764512286.9793308,-4.33384,1.78542,-0.51884,0.97607172,0.0952146,0.10058568
1764512286.9793308,-4.33384,1.78542,-0.51884,0.97607172,0.0952146,0.10058568
1764512286.9793308,-4.6543,2.18218,0.12208,0.97497309,0.09509253,0.101012925
1764512286.9793308,-4.6543,2.18218,0.12208,0.97497309,0.09509253,0.101012925
1764512286.9793308,-4.6543,2.18218,0.12208,0.97497309,0.09509253,0.101012925
1764512286.9793308,-4.6543,2.18218,0.12208,0.97497309,0.09509253,0.101012925
1764512286.9793308,-4.6543,2.18218,0.12208,0.97497309,0.09509253,0.101012925
1764512286.9793308,-4.6543,2.18218,0.12208,0.97497309,0.09509253,0.101012925
1764512286.9793308,-4.6543,2.18218,0.12208,0.97497309,0.09509253,0.101012925
1764512286.9793308,-4.6543,2.18218,0.12208,0.97497309,0.09509253,0.101012925
1764512286.9793308,-4.6543,2.18218,0.12208,0.97497309,0.09509253,0.101012925
1764512286.9793308,-4.6543,2.18218,0.12208,0.97497309,0.09509253,0.101012925
1764512287.0254683,-3.52506,2.09062,0.9919,0.97265376,0.093810795,0.100890855
1764512287.0254683,-3.52506,2.09062,0.9919,0.97265376,0.093810795,0.100890855
1764512287.0254683,-3.52506,2.09062,0.9919,0.97265376,0.093810795,0.100890855
1764512287.0254683,-3.52506,2.09062,0.9919,0.97265376,0.093810795,0.100890855
1764512287.0254683,-3.52506,2.09062,0.9919,0.97265376,0.093810795,0.100890855
1764512287.0254683,-3.52506,2.09062,0.9919,0.97265376,0.093810795,0.100890855
1764512287.0254683,-3.52506,2.09062,0.9919,0.97265376,0.093810795,0.100890855
1764512287.0254683,-3.52506,2.09062,0.9919,0.97265376,0.093810795,0.100890855
1764512287.0254683,-3.52506,2.09062,0.9919,0.97265376,0.093810795,0.100890855
1764512287.0254683,-3.52506,2.09062,0.9919,0.97265376,0.093810795,0.100890855
1764512287.0254683,-2.19744,1.89224,1.6022999999999998,0.972348585,0.092345955,0.102355695
1764512287.0254683,-2.19744,1.89224,1.6022999999999998,0.972348585,0.092345955,0.102355695
1764512287.0254683,-2.19744,1.89224,1.6022999999999998,0.972348585,0.092345955,0.102355695
1764512287.0254683,-2.19744,1.89224,1.6022999999999998,0.972348585,0.092345955,0.102355695
1764512287.0254683,-2.19744,1.89224,1.6022999999999998,0.972348585,0.092345955,0.102355695
1764512287.0254683,-2.19744,1.89224,1.6022999999999998,0.972348585,0.092345955,0.102355695
1764512287.0254683,-2.19744,1.89224,1.6022999999999998,0.972348585,0.092345955,0.102355695
1764512287.0254683,-2.19744,1.89224,1.6022999999999998,0.972348585,0.092345955,0.102355695
1764512287.0254683,-2.19744,1.89224,1.6022999999999998,0.972348585,0.092345955,0.102355695
1764512287.026507,-2.19744,1.89224,1.6022999999999998,0.972348585,0.092345955,0.102355695
1764512287.026507,-2.47212,1.57178,1.09872,0.973203075,0.092956305,0.103454325
1764512287.026507,-2.47212,1.57178,1.09872,0.973203075,0.092956305,0.103454325
1764512287.026507,-2.47212,1.57178,1.09872,0.973203075,0.092956305,0.103454325
1764512287.026507,-2.47212,1.57178,1.09872,0.973203075,0.092956305,0.103454325
1764512287.026507,-2.47212,1.57178,1.09872,0.973203075,0.092956305,0.103454325
1764512287.026507,-2.47212,1.57178,1.09872,0.973203075,0.092956305,0.103454325
1764512287.026507,-2.47212,1.57178,1.09872,0.973203075,0.092956305,0.103454325
1764512287.026507,-2.47212,1.57178,1.09872,0.973203075,0.092956305,0.103454325
1764512287.0726397,-2.47212,1.57178,1.09872,0.973203075,0.092956305,0.103454325
1764512287.0731475,-2.47212,1.57178,1.09872,0.973203075,0.092956305,0.103454325
1764512287.0731475,-2.19744,1.46496,1.23606,0.973935495,0.093932865,0.103454325
1764512287.0731475,-2.19744,1.46496,1.23606,0.973935495,0.093932865,0.103454325
1764512287.0731475,-2.19744,1.46496,1.23606,0.973935495,0.093932865,0.103454325
1764512287.0731475,-2.19744,1.46496,1.23606,0.973935495,0.093932865,0.103454325
1764512287.0731475,-2.19744,1.46496,1.23606,0.973935495,0.093932865,0.103454325
1764512287.0731475,-2.19744,1.46496,1.23606,0.973935495,0.093932865,0.103454325
1764512287.0731475,-2.19744,1.46496,1.23606,0.973935495,0.093932865,0.103454325
1764512287.0731475,-2.19744,1.46496,1.23606,0.973935495,0.093932865,0.103454325
1764512287.0731475,-2.19744,1.46496,1.23606,0.973935495,0.093932865,0.103454325
1764512287.0731475,-2.19744,1.46496,1.23606,0.973935495,0.093932865,0.103454325
1764512287.0731475,-3.03674,1.23606,0.4578,0.973691355,0.095519775,0.103210185
1764512287.0731475,-3.03674,1.23606,0.4578,0.973691355,0.095519775,0.103210185
1764512287.0731475,-3.03674,1.23606,0.4578,0.973691355,0.095519775,0.103210185
1764512287.0731475,-3.03674,1.23606,0.4578,0.973691355,0.095519775,0.103210185
1764512287.0731475,-3.03674,1.23606,0.4578,0.973691355,0.095519775,0.103210185
1764512287.0731475,-3.03674,1.23606,0.4578,0.973691355,0.095519775,0.103210185
1764512287.0731475,-3.03674,1.23606,0.4578,0.973691355,0.095519775,0.103210185
1764512287.0731475,-3.03674,1.23606,0.4578,0.973691355,0.095519775,0.103210185
1764512287.0731475,-3.03674,1.23606,0.4578,0.973691355,0.095519775,0.103210185
1764512287.0731475,-3.03674,1.23606,0.4578,0.973691355,0.095519775,0.103210185
1764512287.0731475,-4.303319999999999,1.12924,0.3509799999999999,0.97363032,0.096130125,0.102966045
1764512287.0731475,-4.303319999999999,1.12924,0.3509799999999999,0.97363032,0.096130125,0.102966045
1764512287.1199975,-4.303319999999999,1.12924,0.3509799999999999,0.97363032,0.096130125,0.102966045
1764512287.1199975,-4.303319999999999,1.12924,0.3509799999999999,0.97363032,0.096130125,0.102966045
1764512287.1199975,-4.303319999999999,1.12924,0.3509799999999999,0.97363032,0.096130125,0.102966045
1764512287.1199975,-4.303319999999999,1.12924,0.3509799999999999,0.97363032,0.096130125,0.102966045
1764512287.1199975,-4.303319999999999,1.12924,0.3509799999999999,0.97363032,0.096130125,0.102966045
1764512287.1199975,-4.303319999999999,1.12924,0.3509799999999999,0.97363032,0.096130125,0.102966045
1764512287.1199975,-4.303319999999999,1.12924,0.3509799999999999,0.97363032,0.096130125,0.102966045
1764512287.1199975,-4.303319999999999,1.12924,0.3509799999999999,0.97363032,0.096130125,0.102966045
1764512287.1199975,-5.24944,1.0682,0.4578,0.97314204,0.09594702,0.102477765
1764512287.1199975,-5.24944,1.0682,0.4578,0.97314204,0.09594702,0.102477765
1764512287.1199975,-5.24944,1.0682,0.4578,0.97314204,0.09594702,0.102477765
1764512287.1199975,-5.24944,1.0682,0.4578,0.97314204,0.09594702,0.102477765
1764512287.1199975,-5.24944,1.0682,0.4578,0.97314204,0.09594702,0.102477765
1764512287.1199975,-5.24944,1.0682,0.4578,0.97314204,0.09594702,0.102477765
1764512287.1199975,-5.24944,1.0682,0.4578,0.97314204,0.09594702,0.102477765
1764512287.1199975,-5.24944,1.0682,0.4578,0.97314204,0.09594702,0.102477765
1764512287.1199975,-5.24944,1.0682,0.4578,0.97314204,0.09594702,0.102477765
1764512287.1199975,-5.24944,1.0682,0.4578,0.97314204,0.09594702,0.102477765
1764512287.1199975,-4.852679999999999,1.2055399999999998,0.54936,0.97375239,0.09497046,0.1025388
1764512287.1199975,-4.852679999999999,1.2055399999999998,0.54936,0.97375239,0.09497046,0.1025388
1764512287.1199975,-4.852679999999999,1.2055399999999998,0.54936,0.97375239,0.09497046,0.1025388
1764512287.1199975,-4.852679999999999,1.2055399999999998,0.54936,0.97375239,0.09497046,0.1025388
1764512287.1199975,-4.852679999999999,1.2055399999999998,0.54936,0.97375239,0.09497046,0.1025388
1764512287.1199975,-4.852679999999999,1.2055399999999998,0.54936,0.97375239,0.09497046,0.1025388
1764512287.1677277,-4.852679999999999,1.2055399999999998,0.54936,0.97375239,0.09497046,0.1025388
1764512287.1677277,-4.852679999999999,1.2055399999999998,0.54936,0.97375239,0.09497046,0.1025388
1764512287.1677277,-4.852679999999999,1.2055399999999998,0.54936,0.97375239,0.09497046,0.1025388
1764512287.1677277,-4.852679999999999,1.2055399999999998,0.54936,0.97375239,0.09497046,0.1025388
1764512287.1677277,-4.36436,0.73248,0.21364,0.97216548,0.09326148,0.10302708
1764512287.1677277,-4.36436,0.73248,0.21364,0.97216548,0.09326148,0.10302708
1764512287.1677277,-4.36436,0.73248,0.21364,0.97216548,0.09326148,0.10302708
1764512287.1677277,-4.36436,0.73248,0.21364,0.97216548,0.09326148,0.10302708
1764512287.1677277,-4.36436,0.73248,0.21364,0.97216548,0.09326148,0.10302708
1764512287.1677277,-4.36436,0.73248,0.21364,0.97216548,0.09326148,0.10302708
1764512287.1677277,-4.36436,0.73248,0.21364,0.97216548,0.09326148,0.10302708
1764512287.1677277,-4.36436,0.73248,0.21364,0.97216548,0.09326148,0.10302708
1764512287.1677277,-4.36436,0.73248,0.21364,0.97216548,0.09326148,0.10302708
1764512287.1677277,-4.36436,0.73248,0.21364,0.97216548,0.09326148,0.10302708
1764512287.1677277,-3.75396,-0.06104,-0.36624,0.97192134,0.09204078,0.10278294
1764512287.1687498,-3.75396,-0.06104,-0.36624,0.97192134,0.09204078,0.10278294
1764512287.1687498,-3.75396,-0.06104,-0.36624,0.97192134,0.09204078,0.10278294
1764512287.1687498,-3.75396,-0.06104,-0.36624,0.97192134,0.09204078,0.10278294
1764512287.1687498,-3.75396,-0.06104,-0.36624,0.97192134,0.09204078,0.10278294
1764512287.1687498,-3.75396,-0.06104,-0.36624,0.97192134,0.09204078,0.10278294
1764512287.1687498,-3.75396,-0.06104,-0.36624,0.97192134,0.09204078,0.10278294
1764512287.1687498,-3.75396,-0.06104,-0.36624,0.97192134,0.09204078,0.10278294
1764512287.1687498,-3.75396,-0.06104,-0.36624,0.97192134,0.09204078,0.10278294
1764512287.1687498,-3.75396,-0.06104,-0.36624,0.97192134,0.09204078,0.10278294
1764512287.2149096,-3.2809,0.44254,-0.5341,0.973935495,0.0927732,0.10241673
1764512287.2149096,-3.2809,0.44254,-0.5341,0.973935495,0.0927732,0.10241673
1764512287.2149096,-3.2809,0.44254,-0.5341,0.973935495,0.0927732,0.10241673
1764512287.2149096,-3.2809,0.44254,-0.5341,0.973935495,0.0927732,0.10241673
1764512287.2149096,-3.2809,0.44254,-0.5341,0.973935495,0.0927732,0.10241673
1764512287.2149096,-3.2809,0.44254,-0.5341,0.973935495,0.0927732,0.10241673
1764512287.2149096,-3.2809,0.44254,-0.5341,0.973935495,0.0927732,0.10241673
1764512287.2149096,-3.2809,0.44254,-0.5341,0.973935495,0.0927732,0.10241673
1764512287.2149096,-3.2809,0.44254,-0.5341,0.973935495,0.0927732,0.10241673
1764512287.2149096,-3.2809,0.44254,-0.5341,0.973935495,0.0927732,0.10241673
1764512287.2149096,-3.32668,1.09872,-0.21364,0.97497309,0.093810795,0.102477765
1764512287.2149096,-3.32668,1.09872,-0.21364,0.97497309,0.093810795,0.102477765
1764512287.2149096,-3.32668,1.09872,-0.21364,0.97497309,0.093810795,0.102477765
1764512287.2159488,-3.32668,1.09872,-0.21364,0.97497309,0.093810795,0.102477765
1764512287.2159488,-3.32668,1.09872,-0.21364,0.97497309,0.093810795,0.102477765
1764512287.2159488,-3.32668,1.09872,-0.21364,0.97497309,0.093810795,0.102477765
1764512287.2159488,-3.32668,1.09872,-0.21364,0.97497309,0.093810795,0.102477765
1764512287.2159488,-3.32668,1.09872,-0.21364,0.97497309,0.093810795,0.102477765
1764512287.2159488,-3.32668,1.09872,-0.21364,0.97497309,0.093810795,0.102477765
1764512287.2159488,-3.32668,1.09872,-0.21364,0.97497309,0.093810795,0.102477765
1764512287.2159488,-3.9676,1.2055399999999998,0.04578,0.97460688,0.094787355,0.101745345
1764512287.2159488,-3.9676,1.2055399999999998,0.04578,0.97460688,0.094787355,0.101745345
1764512287.2591586,-3.9676,1.2055399999999998,0.04578,0.97460688,0.094787355,0.101745345
1764512287.2591586,-3.9676,1.2055399999999998,0.04578,0.97460688,0.094787355,0.101745345
1764512287.2591586,-3.9676,1.2055399999999998,0.04578,0.97460688,0.094787355,0.101745345
1764512287.2591586,-3.9676,1.2055399999999998,0.04578,0.97460688,0.094787355,0.101745345
1764512287.2591586,-3.9676,1.2055399999999998,0.04578,0.97460688,0.094787355,0.101745345
1764512287.2591586,-3.9676,1.2055399999999998,0.04578,0.97460688,0.094787355,0.101745345
1764512287.2591586,-3.9676,1.2055399999999998,0.04578,0.97460688,0.094787355,0.101745345
1764512287.2591586,-3.9676,1.2055399999999998,0.04578,0.97460688,0.094787355,0.101745345
1764512287.2591586,-3.70818,0.9156,-0.54936,0.97277583,0.096252195,0.10082982
1764512287.2591586,-3.70818,0.9156,-0.54936,0.97277583,0.096252195,0.10082982
1764512287.2591586,-3.70818,0.9156,-0.54936,0.97277583,0.096252195,0.10082982
1764512287.2591586,-3.70818,0.9156,-0.54936,0.97277583,0.096252195,0.10082982
1764512287.2591586,-3.70818,0.9156,-0.54936,0.97277583,0.096252195,0.10082982
1764512287.2591586,-3.70818,0.9156,-0.54936,0.97277583,0.096252195,0.10082982
1764512287.2591586,-3.70818,0.9156,-0.54936,0.97277583,0.096252195,0.10082982
1764512287.2591586,-3.70818,0.9156,-0.54936,0.97277583,0.096252195,0.10082982
1764512287.2591586,-3.70818,0.9156,-0.54936,0.97277583,0.096252195,0.10082982
1764512287.2591586,-3.70818,0.9156,-0.54936,0.97277583,0.096252195,0.10082982
1764512287.260173,-4.13546,0.01526,-0.3051999999999999,0.971127885,0.096740475,0.101379135
1764512287.260173,-4.13546,0.01526,-0.3051999999999999,0.971127885,0.096740475,0.101379135
1764512287.260173,-4.13546,0.01526,-0.3051999999999999,0.971127885,0.096740475,0.101379135
1764512287.260173,-4.13546,0.01526,-0.3051999999999999,0.971127885,0.096740475,0.101379135
1764512287.260173,-4.13546,0.01526,-0.3051999999999999,0.971127885,0.096740475,0.101379135
1764512287.260173,-4.13546,0.01526,-0.3051999999999999,0.971127885,0.096740475,0.101379135
1764512287.3060482,-4.13546,0.01526,-0.3051999999999999,0.971127885,0.096740475,0.101379135
1764512287.3065574,-4.13546,0.01526,-0.3051999999999999,0.971127885,0.096740475,0.101379135
1764512287.3065574,-4.13546,0.01526,-0.3051999999999999,0.971127885,0.096740475,0.101379135
1764512287.3065574,-4.13546,0.01526,-0.3051999999999999,0.971127885,0.096740475,0.101379135
1764512287.3065574,-4.1965,0.09156,0.04578,0.9716772,0.09667944,0.101257065
1764512287.3065574,-4.1965,0.09156,0.04578,0.9716772,0.09667944,0.101257065
1764512287.3065574,-4.1965,0.09156,0.04578,0.9716772,0.09667944,0.101257065
1764512287.3065574,-4.1965,0.09156,0.04578,0.9716772,0.09667944,0.101257065
1764512287.3065574,-4.1965,0.09156,0.04578,0.9716772,0.09667944,0.101257065
1764512287.3065574,-4.1965,0.09156,0.04578,0.9716772,0.09667944,0.101257065
1764512287.3065574,-4.1965,0.09156,0.04578,0.9716772,0.09667944,0.101257065
1764512287.3065574,-4.1965,0.09156,0.04578,0.9716772,0.09667944,0.101257065
1764512287.3065574,-4.1965,0.09156,0.04578,0.9716772,0.09667944,0.101257065
1764512287.3065574,-4.1965,0.09156,0.04578,0.9716772,0.09667944,0.101257065
1764512287.3065574,-4.22702,-0.3357199999999999,0.10682,0.972592725,0.09619116,0.100768785
1764512287.3065574,-4.22702,-0.3357199999999999,0.10682,0.972592725,0.09619116,0.100768785
1764512287.3065574,-4.22702,-0.3357199999999999,0.10682,0.972592725,0.09619116,0.100768785
1764512287.3065574,-4.22702,-0.3357199999999999,0.10682,0.972592725,0.09619116,0.100768785
1764512287.3065574,-4.22702,-0.3357199999999999,0.10682,0.972592725,0.09619116,0.100768785
1764512287.3065574,-4.22702,-0.3357199999999999,0.10682,0.972592725,0.09619116,0.100768785
1764512287.3065574,-4.22702,-0.3357199999999999,0.10682,0.972592725,0.09619116,0.100768785
1764512287.3065574,-4.22702,-0.3357199999999999,0.10682,0.972592725,0.09619116,0.100768785
1764512287.3532815,-4.22702,-0.3357199999999999,0.10682,0.972592725,0.09619116,0.100768785
1764512287.3532815,-4.22702,-0.3357199999999999,0.10682,0.972592725,0.09619116,0.100768785
1764512287.3532815,-4.76112,-0.1678599999999999,0.41202,0.974667915,0.09753393,0.100280505
1764512287.3532815,-4.76112,-0.1678599999999999,0.41202,0.974667915,0.09753393,0.100280505
1764512287.3532815,-4.76112,-0.1678599999999999,0.41202,0.974667915,0.09753393,0.100280505
1764512287.3532815,-4.76112,-0.1678599999999999,0.41202,0.974667915,0.09753393,0.100280505
1764512287.3532815,-4.76112,-0.1678599999999999,0.41202,0.974667915,0.09753393,0.100280505
1764512287.3532815,-4.76112,-0.1678599999999999,0.41202,0.974667915,0.09753393,0.100280505
1764512287.3532815,-4.76112,-0.1678599999999999,0.41202,0.974667915,0.09753393,0.100280505
1764512287.354309,-4.76112,-0.1678599999999999,0.41202,0.974667915,0.09753393,0.100280505
1764512287.354309,-4.76112,-0.1678599999999999,0.41202,0.974667915,0.09753393,0.100280505
1764512287.354309,-4.76112,-0.1678599999999999,0.41202,0.974667915,0.09753393,0.100280505
1764512287.354309,-5.52412,0.36624,0.13734,0.975888615,0.099181875,0.099792225
1764512287.354309,-5.52412,0.36624,0.13734,0.975888615,0.099181875,0.099792225
1764512287.354309,-5.52412,0.36624,0.13734,0.975888615,0.099181875,0.099792225
1764512287.354309,-5.52412,0.36624,0.13734,0.975888615,0.099181875,0.099792225
1764512287.354309,-5.52412,0.36624,0.13734,0.975888615,0.099181875,0.099792225
1764512287.354309,-5.52412,0.36624,0.13734,0.975888615,0.099181875,0.099792225
1764512287.354309,-5.52412,0.36624,0.13734,0.975888615,0.099181875,0.099792225
1764512287.354309,-5.52412,0.36624,0.13734,0.975888615,0.099181875,0.099792225
1764512287.354309,-5.52412,0.36624,0.13734,0.975888615,0.099181875,0.099792225
1764512287.354309,-5.52412,0.36624,0.13734,0.975888615,0.099181875,0.099792225
1764512287.354309,-5.58516,0.6867,0.6867,0.97521723,0.099426015,0.10034154
1764512287.354309,-5.58516,0.6867,0.6867,0.97521723,0.099426015,0.10034154
1764512287.354309,-5.58516,0.6867,0.6867,0.97521723,0.099426015,0.10034154
1764512287.354309,-5.58516,0.6867,0.6867,0.97521723,0.099426015,0.10034154
1764512287.397504,-5.58516,0.6867,0.6867,0.97521723,0.099426015,0.10034154
1764512287.397504,-5.58516,0.6867,0.6867,0.97521723,0.099426015,0.10034154
1764512287.397504,-5.58516,0.6867,0.6867,0.97521723,0.099426015,0.10034154
1764512287.397504,-5.58516,0.6867,0.6867,0.97521723,0.099426015,0.10034154
1764512287.397504,-5.58516,0.6867,0.6867,0.97521723,0.099426015,0.10034154
1764512287.397504,-5.58516,0.6867,0.6867,0.97521723,0.099426015,0.10034154
1764512287.397504,-5.1884,0.9919,0.3815,0.97399653,0.098815665,0.100036365
1764512287.397504,-5.1884,0.9919,0.3815,0.97399653,0.098815665,0.100036365
1764512287.397504,-5.1884,0.9919,0.3815,0.97399653,0.098815665,0.100036365
1764512287.397504,-5.1884,0.9919,0.3815,0.97399653,0.098815665,0.100036365
1764512287.397504,-5.1884,0.9919,0.3815,0.97399653,0.098815665,0.100036365
1764512287.397504,-5.1884,0.9919,0.3815,0.97399653,0.098815665,0.100036365
1764512287.397504,-5.1884,0.9919,0.3815,0.97399653,0.098815665,0.100036365
1764512287.397504,-5.1884,0.9919,0.3815,0.97399653,0.098815665,0.100036365
1764512287.397504,-5.1884,0.9919,0.3815,0.97399653,0.098815665,0.100036365
1764512287.3985186,-5.1884,0.9919,0.3815,0.97399653,0.098815665,0.100036365
1764512287.3985186,-4.715339999999999,0.94612,0.59514,0.973691355,0.097228755,0.10046361
1764512287.3985186,-4.715339999999999,0.94612,0.59514,0.973691355,0.097228755,0.10046361
1764512287.3985186,-4.715339999999999,0.94612,0.59514,0.973691355,0.097228755,0.10046361
1764512287.3985186,-4.715339999999999,0.94612,0.59514,0.973691355,0.097228755,0.10046361
1764512287.3985186,-4.715339999999999,0.94612,0.59514,0.973691355,0.097228755,0.10046361
1764512287.3985186,-4.715339999999999,0.94612,0.59514,0.973691355,0.097228755,0.10046361
1764512287.44424,-4.715339999999999,0.94612,0.59514,0.973691355,0.097228755,0.10046361
1764512287.44424,-4.715339999999999,0.94612,0.59514,0.973691355,0.097228755,0.10046361
1764512287.44424,-4.715339999999999,0.94612,0.59514,0.973691355,0.097228755,0.10046361
1764512287.44424,-4.715339999999999,0.94612,0.59514,0.973691355,0.097228755,0.10046361
1764512287.44424,-3.87604,0.6714399999999999,1.08346,0.97363032,0.095397705,0.10082982
1764512287.44424,-3.87604,0.6714399999999999,1.08346,0.97363032,0.095397705,0.10082982
1764512287.44424,-3.87604,0.6714399999999999,1.08346,0.97363032,0.095397705,0.10082982
1764512287.44424,-3.87604,0.6714399999999999,1.08346,0.97363032,0.095397705,0.10082982
1764512287.44424,-3.87604,0.6714399999999999,1.08346,0.97363032,0.095397705,0.10082982
1764512287.44424,-3.87604,0.6714399999999999,1.08346,0.97363032,0.095397705,0.10082982
1764512287.44424,-3.87604,0.6714399999999999,1.08346,0.97363032,0.095397705,0.10082982
1764512287.44424,-3.87604,0.6714399999999999,1.08346,0.97363032,0.095397705,0.10082982
1764512287.445253,-3.87604,0.6714399999999999,1.08346,0.97363032,0.095397705,0.10082982
1764512287.445253,-3.87604,0.6714399999999999,1.08346,0.97363032,0.095397705,0.10082982
1764512287.445253,-3.26564,0.48832,1.73964,0.972470655,0.09497046,0.10107396
1764512287.445253,-3.26564,0.48832,1.73964,0.972470655,0.09497046,0.10107396
1764512287.4457648,-3.26564,0.48832,1.73964,0.972470655,0.09497046,0.10107396
1764512287.4457648,-3.26564,0.48832,1.73964,0.972470655,0.09497046,0.10107396
1764512287.4457648,-3.26564,0.48832,1.73964,0.972470655,0.09497046,0.10107396
1764512287.4457648,-3.26564,0.48832,1.73964,0.972470655,0.09497046,0.10107396
1764512287.4457648,-3.26564,0.48832,1.73964,0.972470655,0.09497046,0.10107396
1764512287.4457648,-3.26564,0.48832,1.73964,0.972470655,0.09497046,0.10107396
1764512287.4915285,-3.26564,0.48832,1.73964,0.972470655,0.09497046,0.10107396
1764512287.4915285,-3.26564,0.48832,1.73964,0.972470655,0.09497046,0.10107396
1764512287.4915285,-2.8994,0.47306,2.04484,0.972470655,0.09472632,0.10082982
1764512287.4915285,-2.8994,0.47306,2.04484,0.972470655,0.09472632,0.10082982
1764512287.4915285,-2.8994,0.47306,2.04484,0.972470655,0.09472632,0.10082982
1764512287.4915285,-2.8994,0.47306,2.04484,0.972470655,0.09472632,0.10082982
1764512287.4915285,-2.8994,0.47306,2.04484,0.972470655,0.09472632,0.10082982
1764512287.4915285,-2.8994,0.47306,2.04484,0.972470655,0.09472632,0.10082982
1764512287.4915285,-2.8994,0.47306,2.04484,0.972470655,0.09472632,0.10082982
1764512287.4915285,-2.8994,0.47306,2.04484,0.972470655,0.09472632,0.10082982
1764512287.4915285,-2.8994,0.47306,2.04484,0.972470655,0.09472632,0.10082982
1764512287.4915285,-2.8994,0.47306,2.04484,0.972470655,0.09472632,0.10082982
1764512287.4915285,-3.17408,0.39676,2.30426,0.972836865,0.09558081,0.1000974
1764512287.4915285,-3.17408,0.39676,2.30426,0.972836865,0.09558081,0.1000974
1764512287.4915285,-3.17408,0.39676,2.30426,0.972836865,0.09558081,0.1000974
1764512287.4915285,-3.17408,0.39676,2.30426,0.972836865,0.09558081,0.1000974
1764512287.4915285,-3.17408,0.39676,2.30426,0.972836865,0.09558081,0.1000974
1764512287.4915285,-3.17408,0.39676,2.30426,0.972836865,0.09558081,0.1000974
1764512287.4915285,-3.17408,0.39676,2.30426,0.972836865,0.09558081,0.1000974
1764512287.4915285,-3.17408,0.39676,2.30426,0.972836865,0.09558081,0.1000974
1764512287.4915285,-3.17408,0.39676,2.30426,0.972836865,0.09558081,0.1000974
1764512287.4915285,-3.17408,0.39676,2.30426,0.972836865,0.09558081,0.1000974
1764512287.5390706,-3.5861,0.6867,2.41108,0.97301997,0.09582495,0.099670155
1764512287.5390706,-3.5861,0.6867,2.41108,0.97301997,0.09582495,0.099670155
1764512287.5390706,-3.5861,0.6867,2.41108,0.97301997,0.09582495,0.099670155
1764512287.5390706,-3.5861,0.6867,2.41108,0.97301997,0.09582495,0.099670155
1764512287.5390706,-3.5861,0.6867,2.41108,0.97301997,0.09582495,0.099670155
1764512287.5390706,-3.5861,0.6867,2.41108,0.97301997,0.09582495,0.099670155
1764512287.5390706,-3.5861,0.6867,2.41108,0.97301997,0.09582495,0.099670155
1764512287.5390706,-3.5861,0.6867,2.41108,0.97301997,0.09582495,0.099670155
1764512287.5390706,-3.5861,0.6867,2.41108,0.97301997,0.09582495,0.099670155
1764512287.5390706,-3.5861,0.6867,2.41108,0.97301997,0.09582495,0.099670155
1764512287.5390706,-3.87604,0.97664,1.9075,0.97338618,0.096008055,0.099303945
1764512287.5390706,-3.87604,0.97664,1.9075,0.97338618,0.096008055,0.099303945
1764512287.5390706,-3.87604,0.97664,1.9075,0.97338618,0.096008055,0.099303945
