Timestamp,GyroX,GyroY,GyroZ,AccX,AccY,AccZ
1764511347.5883584,-6.37868,1.00716,0.1525999999999999,-0.95007081,-0.27368094,-0.128844885
1764511347.58938,-7.034859999999999,0.85456,0.6867,-0.948544935,-0.27319266,-0.12866178
1764511347.58938,-7.034859999999999,0.85456,0.6867,-0.948544935,-0.27319266,-0.12866178
1764511347.58938,-7.034859999999999,0.85456,0.6867,-0.948544935,-0.27319266,-0.12866178
1764511347.58938,-7.034859999999999,0.85456,0.6867,-0.948544935,-0.27319266,-0.12866178
1764511347.58938,-7.034859999999999,0.85456,0.6867,-0.948544935,-0.27319266,-0.12866178
1764511347.58938,-7.034859999999999,0.85456,0.6867,-0.948544935,-0.27319266,-0.12866178
1764511347.58938,-7.034859999999999,0.85456,0.6867,-0.948544935,-0.27319266,-0.12866178
1764511347.58938,-7.034859999999999,0.85456,0.6867,-0.948544935,-0.27319266,-0.12866178
1764511347.58938,-7.034859999999999,0.85456,0.6867,-0.948544935,-0.27319266,-0.12866178
1764511347.58938,-7.034859999999999,0.85456,0.6867,-0.948544935,-0.27319266,-0.12866178
1764511347.58938,-5.1121,1.58704,0.19838,-0.947690445,-0.274474395,-0.128112465
1764511347.58938,-5.1121,1.58704,0.19838,-0.947690445,-0.274474395,-0.128112465
1764511347.58938,-5.1121,1.58704,0.19838,-0.947690445,-0.274474395,-0.128112465
1764511347.58938,-5.1121,1.58704,0.19838,-0.947690445,-0.274474395,-0.128112465
1764511347.58938,-5.1121,1.58704,0.19838,-0.947690445,-0.274474395,-0.128112465
1764511347.58938,-5.1121,1.58704,0.19838,-0.947690445,-0.274474395,-0.128112465
1764511347.58938,-5.1121,1.58704,0.19838,-0.947690445,-0.274474395,-0.128112465
1764511347.58938,-5.1121,1.58704,0.19838,-0.947690445,-0.274474395,-0.128112465
1764511347.58938,-5.1121,1.58704,0.19838,-0.947690445,-0.274474395,-0.128112465
1764511347.58938,-5.1121,1.58704,0.19838,-0.947690445,-0.274474395,-0.128112465
1764511347.58938,-3.61662,1.2055399999999998,0.50358,-0.94872804,-0.277037865,-0.127135905
1764511347.58938,-3.61662,1.2055399999999998,0.50358,-0.94872804,-0.277037865,-0.127135905
1764511347.6371036,-3.61662,1.2055399999999998,0.50358,-0.94872804,-0.277037865,-0.127135905
1764511347.638132,-3.61662,1.2055399999999998,0.50358,-0.94872804,-0.277037865,-0.127135905
1764511347.638132,-3.61662,1.2055399999999998,0.50358,-0.94872804,-0.277037865,-0.127135905
1764511347.638132,-3.61662,1.2055399999999998,0.50358,-0.94872804,-0.277037865,-0.127135905
1764511347.6391745,-3.61662,1.2055399999999998,0.50358,-0.94872804,-0.277037865,-0.127135905
1764511347.6391745,-3.61662,1.2055399999999998,0.50358,-0.94872804,-0.277037865,-0.127135905
1764511347.6391745,-3.61662,1.2055399999999998,0.50358,-0.94872804,-0.277037865,-0.127135905
1764511347.6391745,-3.61662,1.2055399999999998,0.50358,-0.94872804,-0.277037865,-0.127135905
1764511347.6391745,-4.47118,2.16692,0.8087799999999999,-0.94665285,-0.275450955,-0.1269528
1764511347.6401732,-4.47118,2.16692,0.8087799999999999,-0.94665285,-0.275450955,-0.1269528
1764511347.6401732,-4.47118,2.16692,0.8087799999999999,-0.94665285,-0.275450955,-0.1269528
1764511347.6401732,-4.47118,2.16692,0.8087799999999999,-0.94665285,-0.275450955,-0.1269528
1764511347.6401732,-4.47118,2.16692,0.8087799999999999,-0.94665285,-0.275450955,-0.1269528
1764511347.6411576,-4.47118,2.16692,0.8087799999999999,-0.94665285,-0.275450955,-0.1269528
1764511347.6411576,-4.47118,2.16692,0.8087799999999999,-0.94665285,-0.275450955,-0.1269528
1764511347.6411576,-4.47118,2.16692,0.8087799999999999,-0.94665285,-0.275450955,-0.1269528
1764511347.6411576,-4.47118,2.16692,0.8087799999999999,-0.94665285,-0.275450955,-0.1269528
1764511347.6411576,-4.47118,2.16692,0.8087799999999999,-0.94665285,-0.275450955,-0.1269528
1764511347.6411576,-5.9514,1.31236,0.19838,-0.94811769,-0.272155065,-0.12792936
1764511347.6411576,-5.9514,1.31236,0.19838,-0.94811769,-0.272155065,-0.12792936
1764511347.6411576,-5.9514,1.31236,0.19838,-0.94811769,-0.272155065,-0.12792936
1764511347.6411576,-5.9514,1.31236,0.19838,-0.94811769,-0.272155065,-0.12792936
1764511347.6411576,-5.9514,1.31236,0.19838,-0.94811769,-0.272155065,-0.12792936
1764511347.6411576,-5.9514,1.31236,0.19838,-0.94811769,-0.272155065,-0.12792936
1764511347.682778,-5.9514,1.31236,0.19838,-0.94811769,-0.272155065,-0.12792936
1764511347.682778,-5.9514,1.31236,0.19838,-0.94811769,-0.272155065,-0.12792936
1764511347.682778,-5.9514,1.31236,0.19838,-0.94811769,-0.272155065,-0.12792936
1764511347.682778,-5.9514,1.31236,0.19838,-0.94811769,-0.272155065,-0.12792936
1764511347.682778,-6.653359999999999,0.88508,-0.3051999999999999,-0.94933839,-0.272032995,-0.130920075
1764511347.6837938,-6.653359999999999,0.88508,-0.3051999999999999,-0.94933839,-0.272032995,-0.130920075
1764511347.6837938,-6.653359999999999,0.88508,-0.3051999999999999,-0.94933839,-0.272032995,-0.130920075
1764511347.6837938,-6.653359999999999,0.88508,-0.3051999999999999,-0.94933839,-0.272032995,-0.130920075
1764511347.6837938,-6.653359999999999,0.88508,-0.3051999999999999,-0.94933839,-0.272032995,-0.130920075
1764511347.6837938,-6.653359999999999,0.88508,-0.3051999999999999,-0.94933839,-0.272032995,-0.130920075
1764511347.6837938,-6.653359999999999,0.88508,-0.3051999999999999,-0.94933839,-0.272032995,-0.130920075
1764511347.6837938,-6.653359999999999,0.88508,-0.3051999999999999,-0.94933839,-0.272032995,-0.130920075
1764511347.6837938,-6.653359999999999,0.88508,-0.3051999999999999,-0.94933839,-0.272032995,-0.130920075
1764511347.6837938,-6.653359999999999,0.88508,-0.3051999999999999,-0.94933839,-0.272032995,-0.130920075
1764511347.6837938,-6.59232,1.12924,0.09156,-0.949033215,-0.2734368,-0.13146939
1764511347.6837938,-6.59232,1.12924,0.09156,-0.949033215,-0.2734368,-0.13146939
1764511347.6837938,-6.59232,1.12924,0.09156,-0.949033215,-0.2734368,-0.13146939
1764511347.6837938,-6.59232,1.12924,0.09156,-0.949033215,-0.2734368,-0.13146939
1764511347.68532,-6.59232,1.12924,0.09156,-0.949033215,-0.2734368,-0.13146939
1764511347.68532,-6.59232,1.12924,0.09156,-0.949033215,-0.2734368,-0.13146939
1764511347.68532,-6.59232,1.12924,0.09156,-0.949033215,-0.2734368,-0.13146939
1764511347.68532,-6.59232,1.12924,0.09156,-0.949033215,-0.2734368,-0.13146939
1764511347.7290454,-6.59232,1.12924,0.09156,-0.949033215,-0.2734368,-0.13146939
1764511347.7290454,-6.59232,1.12924,0.09156,-0.949033215,-0.2734368,-0.13146939
1764511347.7290454,-5.478339999999999,1.11398,0.36624,-0.948544935,-0.27502371,-0.13024869
1764511347.7290454,-5.478339999999999,1.11398,0.36624,-0.948544935,-0.27502371,-0.13024869
1764511347.7290454,-5.478339999999999,1.11398,0.36624,-0.948544935,-0.27502371,-0.13024869
1764511347.7290454,-5.478339999999999,1.11398,0.36624,-0.948544935,-0.27502371,-0.13024869
1764511347.7290454,-5.478339999999999,1.11398,0.36624,-0.948544935,-0.27502371,-0.13024869
1764511347.7290454,-5.478339999999999,1.11398,0.36624,-0.948544935,-0.27502371,-0.13024869
1764511347.7290454,-5.478339999999999,1.11398,0.36624,-0.948544935,-0.27502371,-0.13024869
1764511347.7305682,-5.478339999999999,1.11398,0.36624,-0.948544935,-0.27502371,-0.13024869
1764511347.7305682,-5.478339999999999,1.11398,0.36624,-0.948544935,-0.27502371,-0.13024869
1764511347.7305682,-5.478339999999999,1.11398,0.36624,-0.948544935,-0.27502371,-0.13024869
1764511347.7305682,-3.86078,2.1364,0.59514,-0.947568375,-0.27697683,-0.129211095
1764511347.7305682,-3.86078,2.1364,0.59514,-0.947568375,-0.27697683,-0.129211095
1764511347.7305682,-3.86078,2.1364,0.59514,-0.947568375,-0.27697683,-0.129211095
1764511347.7305682,-3.86078,2.1364,0.59514,-0.947568375,-0.27697683,-0.129211095
1764511347.732098,-3.86078,2.1364,0.59514,-0.947568375,-0.27697683,-0.129211095
1764511347.732098,-3.86078,2.1364,0.59514,-0.947568375,-0.27697683,-0.129211095
1764511347.732098,-3.86078,2.1364,0.59514,-0.947568375,-0.27697683,-0.129211095
1764511347.732098,-3.86078,2.1364,0.59514,-0.947568375,-0.27697683,-0.129211095
1764511347.7331018,-3.86078,2.1364,0.59514,-0.947568375,-0.27697683,-0.129211095
1764511347.7331018,-3.86078,2.1364,0.59514,-0.947568375,-0.27697683,-0.129211095
1764511347.7331018,-3.86078,1.28184,0.3509799999999999,-0.94836183,-0.27612234,-0.13000455
1764511347.7331018,-3.86078,1.28184,0.3509799999999999,-0.94836183,-0.27612234,-0.13000455
1764511347.7782006,-3.86078,1.28184,0.3509799999999999,-0.94836183,-0.27612234,-0.13000455
1764511347.7782006,-3.86078,1.28184,0.3509799999999999,-0.94836183,-0.27612234,-0.13000455
1764511347.7782006,-3.86078,1.28184,0.3509799999999999,-0.94836183,-0.27612234,-0.13000455
1764511347.7782006,-3.86078,1.28184,0.3509799999999999,-0.94836183,-0.27612234,-0.13000455
1764511347.7782006,-3.86078,1.28184,0.3509799999999999,-0.94836183,-0.27612234,-0.13000455
1764511347.7782006,-3.86078,1.28184,0.3509799999999999,-0.94836183,-0.27612234,-0.13000455
1764511347.7782006,-3.86078,1.28184,0.3509799999999999,-0.94836183,-0.27612234,-0.13000455
1764511347.7782006,-3.86078,1.28184,0.3509799999999999,-0.94836183,-0.27612234,-0.13000455
1764511347.7782006,-4.45592,1.00716,0.24416,-0.948667005,-0.273619905,-0.13049283
1764511347.7782006,-4.45592,1.00716,0.24416,-0.948667005,-0.273619905,-0.13049283
1764511347.7782006,-4.45592,1.00716,0.24416,-0.948667005,-0.273619905,-0.13049283
1764511347.7782006,-4.45592,1.00716,0.24416,-0.948667005,-0.273619905,-0.13049283
1764511347.7782006,-4.45592,1.00716,0.24416,-0.948667005,-0.273619905,-0.13049283
1764511347.7782006,-4.45592,1.00716,0.24416,-0.948667005,-0.273619905,-0.13049283
1764511347.7782006,-4.45592,1.00716,0.24416,-0.948667005,-0.273619905,-0.13049283
1764511347.7782006,-4.45592,1.00716,0.24416,-0.948667005,-0.273619905,-0.13049283
1764511347.7782006,-4.45592,1.00716,0.24416,-0.948667005,-0.273619905,-0.13049283
1764511347.7782006,-4.45592,1.00716,0.24416,-0.948667005,-0.273619905,-0.13049283
1764511347.7782006,-5.997179999999999,1.31236,0.5341,-0.94885011,-0.273009555,-0.130065585
1764511347.7782006,-5.997179999999999,1.31236,0.5341,-0.94885011,-0.273009555,-0.130065585
1764511347.7782006,-5.997179999999999,1.31236,0.5341,-0.94885011,-0.273009555,-0.130065585
1764511347.7791932,-5.997179999999999,1.31236,0.5341,-0.94885011,-0.273009555,-0.130065585
1764511347.8255053,-5.997179999999999,1.31236,0.5341,-0.94885011,-0.273009555,-0.130065585
1764511347.8255053,-5.997179999999999,1.31236,0.5341,-0.94885011,-0.273009555,-0.130065585
1764511347.8255053,-5.997179999999999,1.31236,0.5341,-0.94885011,-0.273009555,-0.130065585
1764511347.8255053,-5.997179999999999,1.31236,0.5341,-0.94885011,-0.273009555,-0.130065585
1764511347.8255053,-5.997179999999999,1.31236,0.5341,-0.94885011,-0.273009555,-0.130065585
1764511347.8255053,-5.997179999999999,1.31236,0.5341,-0.94885011,-0.273009555,-0.130065585
1764511347.8255053,-6.76018,1.72438,0.48832,-0.94836183,-0.273375765,-0.12902799
1764511347.8255053,-6.76018,1.72438,0.48832,-0.94836183,-0.273375765,-0.12902799
1764511347.8255053,-6.76018,1.72438,0.48832,-0.94836183,-0.273375765,-0.12902799
1764511347.8255053,-6.76018,1.72438,0.48832,-0.94836183,-0.273375765,-0.12902799
1764511347.8255053,-6.76018,1.72438,0.48832,-0.94836183,-0.273375765,-0.12902799
1764511347.8255053,-6.76018,1.72438,0.48832,-0.94836183,-0.273375765,-0.12902799
1764511347.8255053,-6.76018,1.72438,0.48832,-0.94836183,-0.273375765,-0.12902799
1764511347.8255053,-6.76018,1.72438,0.48832,-0.94836183,-0.273375765,-0.12902799
1764511347.8255053,-6.76018,1.72438,0.48832,-0.94836183,-0.273375765,-0.12902799
1764511347.8255053,-6.76018,1.72438,0.48832,-0.94836183,-0.273375765,-0.12902799
1764511347.8255053,-5.8751,1.77016,0.47306,-0.94762941,-0.27477957,-0.12902799
1764511347.8255053,-5.8751,1.77016,0.47306,-0.94762941,-0.27477957,-0.12902799
1764511347.8255053,-5.8751,1.77016,0.47306,-0.94762941,-0.27477957,-0.12902799
1764511347.8255053,-5.8751,1.77016,0.47306,-0.94762941,-0.27477957,-0.12902799
1764511347.8255053,-5.8751,1.77016,0.47306,-0.94762941,-0.27477957,-0.12902799
1764511347.8255053,-5.8751,1.77016,0.47306,-0.94762941,-0.27477957,-0.12902799
1764511347.8255053,-5.8751,1.77016,0.47306,-0.94762941,-0.27477957,-0.12902799
1764511347.8255053,-5.8751,1.77016,0.47306,-0.94762941,-0.27477957,-0.12902799
1764511347.87454,-5.8751,1.77016,0.47306,-0.94762941,-0.27477957,-0.12902799
1764511347.87454,-5.8751,1.77016,0.47306,-0.94762941,-0.27477957,-0.12902799
1764511347.87454,-4.70008,1.23606,-0.01526,-0.947934585,-0.27514578,-0.12902799
1764511347.87454,-4.70008,1.23606,-0.01526,-0.947934585,-0.27514578,-0.12902799
1764511347.87454,-4.70008,1.23606,-0.01526,-0.947934585,-0.27514578,-0.12902799
1764511347.87454,-4.70008,1.23606,-0.01526,-0.947934585,-0.27514578,-0.12902799
1764511347.87454,-4.70008,1.23606,-0.01526,-0.947934585,-0.27514578,-0.12902799
1764511347.87454,-4.70008,1.23606,-0.01526,-0.947934585,-0.27514578,-0.12902799
1764511347.87454,-4.70008,1.23606,-0.01526,-0.947934585,-0.27514578,-0.12902799
1764511347.87454,-4.70008,1.23606,-0.01526,-0.947934585,-0.27514578,-0.12902799
1764511347.87454,-4.70008,1.23606,-0.01526,-0.947934585,-0.27514578,-0.12902799
1764511347.87454,-4.70008,1.23606,-0.01526,-0.947934585,-0.27514578,-0.12902799
1764511347.87454,-3.55558,1.46496,0.3204599999999999,-0.94799562,-0.276549585,-0.12902799
1764511347.87454,-3.55558,1.46496,0.3204599999999999,-0.94799562,-0.276549585,-0.12902799
1764511347.87454,-3.55558,1.46496,0.3204599999999999,-0.94799562,-0.276549585,-0.12902799
1764511347.87454,-3.55558,1.46496,0.3204599999999999,-0.94799562,-0.276549585,-0.12902799
1764511347.87454,-3.55558,1.46496,0.3204599999999999,-0.94799562,-0.276549585,-0.12902799
1764511347.87454,-3.55558,1.46496,0.3204599999999999,-0.94799562,-0.276549585,-0.12902799
1764511347.87454,-3.55558,1.46496,0.3204599999999999,-0.94799562,-0.276549585,-0.12902799
1764511347.87454,-3.55558,1.46496,0.3204599999999999,-0.94799562,-0.276549585,-0.12902799
1764511347.87454,-3.55558,1.46496,0.3204599999999999,-0.94799562,-0.276549585,-0.12902799
1764511347.87454,-3.55558,1.46496,0.3204599999999999,-0.94799562,-0.276549585,-0.12902799
1764511347.87454,-4.63904,1.4497,1.2971,-0.94714113,-0.27502371,-0.128112465
1764511347.8755543,-4.63904,1.4497,1.2971,-0.94714113,-0.27502371,-0.128112465
1764511347.8755543,-4.63904,1.4497,1.2971,-0.94714113,-0.27502371,-0.128112465
1764511347.8755543,-4.63904,1.4497,1.2971,-0.94714113,-0.27502371,-0.128112465
1764511347.9201148,-4.63904,1.4497,1.2971,-0.94714113,-0.27502371,-0.128112465
1764511347.9211223,-4.63904,1.4497,1.2971,-0.94714113,-0.27502371,-0.128112465
1764511347.9211223,-4.63904,1.4497,1.2971,-0.94714113,-0.27502371,-0.128112465
1764511347.9211223,-4.63904,1.4497,1.2971,-0.94714113,-0.27502371,-0.128112465
1764511347.9211223,-4.63904,1.4497,1.2971,-0.94714113,-0.27502371,-0.128112465
1764511347.9211223,-4.63904,1.4497,1.2971,-0.94714113,-0.27502371,-0.128112465
1764511347.9211223,-5.753019999999999,1.17502,0.9156,-0.947690445,-0.2734368,-0.129089025
1764511347.9211223,-5.753019999999999,1.17502,0.9156,-0.947690445,-0.2734368,-0.129089025
1764511347.9211223,-5.753019999999999,1.17502,0.9156,-0.947690445,-0.2734368,-0.129089025
1764511347.9211223,-5.753019999999999,1.17502,0.9156,-0.947690445,-0.2734368,-0.129089025
1764511347.9211223,-5.753019999999999,1.17502,0.9156,-0.947690445,-0.2734368,-0.129089025
1764511347.9211223,-5.753019999999999,1.17502,0.9156,-0.947690445,-0.2734368,-0.129089025
1764511347.9211223,-5.753019999999999,1.17502,0.9156,-0.947690445,-0.2734368,-0.129089025
1764511347.9211223,-5.753019999999999,1.17502,0.9156,-0.947690445,-0.2734368,-0.129089025
1764511347.9211223,-5.753019999999999,1.17502,0.9156,-0.947690445,-0.2734368,-0.129089025
1764511347.9211223,-5.753019999999999,1.17502,0.9156,-0.947690445,-0.2734368,-0.129089025
1764511347.9211223,-6.165039999999999,1.26658,0.03052,-0.948911145,-0.27392508,-0.13073697
1764511347.9211223,-6.165039999999999,1.26658,0.03052,-0.948911145,-0.27392508,-0.13073697
1764511347.9211223,-6.165039999999999,1.26658,0.03052,-0.948911145,-0.27392508,-0.13073697
1764511347.9211223,-6.165039999999999,1.26658,0.03052,-0.948911145,-0.27392508,-0.13073697
1764511347.9211223,-6.165039999999999,1.26658,0.03052,-0.948911145,-0.27392508,-0.13073697
1764511347.9211223,-6.165039999999999,1.26658,0.03052,-0.948911145,-0.27392508,-0.13073697
1764511347.966615,-6.165039999999999,1.26658,0.03052,-0.948911145,-0.27392508,-0.13073697
1764511347.966615,-6.165039999999999,1.26658,0.03052,-0.948911145,-0.27392508,-0.13073697
1764511347.966615,-6.165039999999999,1.26658,0.03052,-0.948911145,-0.27392508,-0.13073697
1764511347.966615,-6.165039999999999,1.26658,0.03052,-0.948911145,-0.27392508,-0.13073697
1764511347.966615,-4.89846,1.64808,-0.3815,-0.94946046,-0.274840605,-0.13220181
1764511347.9676352,-4.89846,1.64808,-0.3815,-0.94946046,-0.274840605,-0.13220181
1764511347.9676352,-4.89846,1.64808,-0.3815,-0.94946046,-0.274840605,-0.13220181
1764511347.9676352,-4.89846,1.64808,-0.3815,-0.94946046,-0.274840605,-0.13220181
1764511347.9676352,-4.89846,1.64808,-0.3815,-0.94946046,-0.274840605,-0.13220181
1764511347.9686325,-4.89846,1.64808,-0.3815,-0.94946046,-0.274840605,-0.13220181
1764511347.9686325,-4.89846,1.64808,-0.3815,-0.94946046,-0.274840605,-0.13220181
1764511347.9691744,-4.89846,1.64808,-0.3815,-0.94946046,-0.274840605,-0.13220181
1764511347.9691744,-4.89846,1.64808,-0.3815,-0.94946046,-0.274840605,-0.13220181
1764511347.969632,-4.89846,1.64808,-0.3815,-0.94946046,-0.274840605,-0.13220181
1764511347.969632,-4.47118,1.25132,0.48832,-0.94823976,-0.27648855,-0.131408355
1764511347.969632,-4.47118,1.25132,0.48832,-0.94823976,-0.27648855,-0.131408355
1764511347.969632,-4.47118,1.25132,0.48832,-0.94823976,-0.27648855,-0.131408355
1764511347.969632,-4.47118,1.25132,0.48832,-0.94823976,-0.27648855,-0.131408355
1764511347.969632,-4.47118,1.25132,0.48832,-0.94823976,-0.27648855,-0.131408355
1764511347.9706345,-4.47118,1.25132,0.48832,-0.94823976,-0.27648855,-0.131408355
1764511347.9706345,-4.47118,1.25132,0.48832,-0.94823976,-0.27648855,-0.131408355
1764511347.9706345,-4.47118,1.25132,0.48832,-0.94823976,-0.27648855,-0.131408355
1764511347.9706345,-4.47118,1.25132,0.48832,-0.94823976,-0.27648855,-0.131408355
1764511347.9706345,-4.47118,1.25132,0.48832,-0.94823976,-0.27648855,-0.131408355
1764511348.0169454,-3.41824,1.526,1.23606,-0.946347675,-0.27844167,-0.1293942
1764511348.0169454,-3.41824,1.526,1.23606,-0.946347675,-0.27844167,-0.1293942
1764511348.0178876,-3.41824,1.526,1.23606,-0.946347675,-0.27844167,-0.1293942
1764511348.0178876,-3.41824,1.526,1.23606,-0.946347675,-0.27844167,-0.1293942
1764511348.0178876,-3.41824,1.526,1.23606,-0.946347675,-0.27844167,-0.1293942
1764511348.0178876,-3.41824,1.526,1.23606,-0.946347675,-0.27844167,-0.1293942
1764511348.0178876,-3.41824,1.526,1.23606,-0.946347675,-0.27844167,-0.1293942
1764511348.0178876,-3.41824,1.526,1.23606,-0.946347675,-0.27844167,-0.1293942
1764511348.0178876,-3.41824,1.526,1.23606,-0.946347675,-0.27844167,-0.1293942
1764511348.0178876,-3.41824,1.526,1.23606,-0.946347675,-0.27844167,-0.1293942
1764511348.0189471,-2.79258,0.94612,1.0682,-0.94677492,-0.276793725,-0.128112465
1764511348.0189471,-2.79258,0.94612,1.0682,-0.94677492,-0.276793725,-0.128112465
1764511348.0189471,-2.79258,0.94612,1.0682,-0.94677492,-0.276793725,-0.128112465
1764511348.0189471,-2.79258,0.94612,1.0682,-0.94677492,-0.276793725,-0.128112465
1764511348.019764,-2.79258,0.94612,1.0682,-0.94677492,-0.276793725,-0.128112465
1764511348.019764,-2.79258,0.94612,1.0682,-0.94677492,-0.276793725,-0.128112465
1764511348.019764,-2.79258,0.94612,1.0682,-0.94677492,-0.276793725,-0.128112465
1764511348.019764,-2.79258,0.94612,1.0682,-0.94677492,-0.276793725,-0.128112465
1764511348.019764,-2.79258,0.94612,1.0682,-0.94677492,-0.276793725,-0.128112465
1764511348.019764,-2.79258,0.94612,1.0682,-0.94677492,-0.276793725,-0.128112465
1764511348.019764,-3.08252,0.82404,0.8698199999999999,-0.94787355,-0.27294852,-0.12805143
1764511348.019764,-3.08252,0.82404,0.8698199999999999,-0.94787355,-0.27294852,-0.12805143
1764511348.019764,-3.08252,0.82404,0.8698199999999999,-0.94787355,-0.27294852,-0.12805143
1764511348.019764,-3.08252,0.82404,0.8698199999999999,-0.94787355,-0.27294852,-0.12805143
1764511348.06002,-3.08252,0.82404,0.8698199999999999,-0.94787355,-0.27294852,-0.12805143
1764511348.06002,-3.08252,0.82404,0.8698199999999999,-0.94787355,-0.27294852,-0.12805143
1764511348.06002,-3.08252,0.82404,0.8698199999999999,-0.94787355,-0.27294852,-0.12805143
1764511348.06002,-3.08252,0.82404,0.8698199999999999,-0.94787355,-0.27294852,-0.12805143
1764511348.06002,-3.08252,0.82404,0.8698199999999999,-0.94787355,-0.27294852,-0.12805143
1764511348.06002,-3.08252,0.82404,0.8698199999999999,-0.94787355,-0.27294852,-0.12805143
1764511348.0610352,-4.89846,0.06104,1.08346,-0.949155285,-0.271056435,-0.129333165
1764511348.0610352,-4.89846,0.06104,1.08346,-0.949155285,-0.271056435,-0.129333165
1764511348.0610352,-4.89846,0.06104,1.08346,-0.949155285,-0.271056435,-0.129333165
1764511348.0610352,-4.89846,0.06104,1.08346,-0.949155285,-0.271056435,-0.129333165
1764511348.0610352,-4.89846,0.06104,1.08346,-0.949155285,-0.271056435,-0.129333165
1764511348.0610352,-4.89846,0.06104,1.08346,-0.949155285,-0.271056435,-0.129333165
1764511348.0610352,-4.89846,0.06104,1.08346,-0.949155285,-0.271056435,-0.129333165
1764511348.0610352,-4.89846,0.06104,1.08346,-0.949155285,-0.271056435,-0.129333165
1764511348.0610352,-4.89846,0.06104,1.08346,-0.949155285,-0.271056435,-0.129333165
1764511348.0610352,-4.89846,0.06104,1.08346,-0.949155285,-0.271056435,-0.129333165
1764511348.0610352,-5.52412,0.56462,1.09872,-0.949155285,-0.27160575,-0.129821445
1764511348.0610352,-5.52412,0.56462,1.09872,-0.949155285,-0.27160575,-0.129821445
1764511348.0610352,-5.52412,0.56462,1.09872,-0.949155285,-0.27160575,-0.129821445
1764511348.0610352,-5.52412,0.56462,1.09872,-0.949155285,-0.27160575,-0.129821445
1764511348.0610352,-5.52412,0.56462,1.09872,-0.949155285,-0.27160575,-0.129821445
1764511348.0610352,-5.52412,0.56462,1.09872,-0.949155285,-0.27160575,-0.129821445
1764511348.109517,-5.52412,0.56462,1.09872,-0.949155285,-0.27160575,-0.129821445
1764511348.109517,-5.52412,0.56462,1.09872,-0.949155285,-0.27160575,-0.129821445
1764511348.109517,-5.52412,0.56462,1.09872,-0.949155285,-0.27160575,-0.129821445
1764511348.109517,-5.52412,0.56462,1.09872,-0.949155285,-0.27160575,-0.129821445
1764511348.109517,-5.24944,1.15976,0.77826,-0.949643565,-0.273253695,-0.130309725
1764511348.1105156,-5.24944,1.15976,0.77826,-0.949643565,-0.273253695,-0.130309725
1764511348.1105156,-5.24944,1.15976,0.77826,-0.949643565,-0.273253695,-0.130309725
1764511348.1105156,-5.24944,1.15976,0.77826,-0.949643565,-0.273253695,-0.130309725
1764511348.1105156,-5.24944,1.15976,0.77826,-0.949643565,-0.273253695,-0.130309725
1764511348.1105156,-5.24944,1.15976,0.77826,-0.949643565,-0.273253695,-0.130309725
1764511348.1115146,-5.24944,1.15976,0.77826,-0.949643565,-0.273253695,-0.130309725
1764511348.1115146,-5.24944,1.15976,0.77826,-0.949643565,-0.273253695,-0.130309725
1764511348.1115146,-5.24944,1.15976,0.77826,-0.949643565,-0.273253695,-0.130309725
1764511348.1115146,-5.24944,1.15976,0.77826,-0.949643565,-0.273253695,-0.130309725
1764511348.1115146,-4.1965,1.43444,0.24416,-0.94946046,-0.27490164,-0.13110318
1764511348.1115146,-4.1965,1.43444,0.24416,-0.94946046,-0.27490164,-0.13110318
1764511348.1115146,-4.1965,1.43444,0.24416,-0.94946046,-0.27490164,-0.13110318
1764511348.1115146,-4.1965,1.43444,0.24416,-0.94946046,-0.27490164,-0.13110318
1764511348.1115146,-4.1965,1.43444,0.24416,-0.94946046,-0.27490164,-0.13110318
1764511348.1115146,-4.1965,1.43444,0.24416,-0.94946046,-0.27490164,-0.13110318
1764511348.1130297,-4.1965,1.43444,0.24416,-0.94946046,-0.27490164,-0.13110318
1764511348.1130297,-4.1965,1.43444,0.24416,-0.94946046,-0.27490164,-0.13110318
1764511348.1130297,-4.1965,1.43444,0.24416,-0.94946046,-0.27490164,-0.13110318
1764511348.1130297,-4.1965,1.43444,0.24416,-0.94946046,-0.27490164,-0.13110318
1764511348.1994507,-3.25038,1.0682,0.71722,-0.94933839,-0.275939235,-0.13110318
1764511348.1994507,-3.25038,1.0682,0.71722,-0.94933839,-0.275939235,-0.13110318
1764511348.1994507,-3.25038,1.0682,0.71722,-0.94933839,-0.275939235,-0.13110318
1764511348.1994507,-3.25038,1.0682,0.71722,-0.94933839,-0.275939235,-0.13110318
1764511348.1994507,-3.25038,1.0682,0.71722,-0.94933839,-0.275939235,-0.13110318
1764511348.1994507,-3.25038,1.0682,0.71722,-0.94933839,-0.275939235,-0.13110318
1764511348.1994507,-3.25038,1.0682,0.71722,-0.94933839,-0.275939235,-0.13110318
1764511348.1994507,-3.25038,1.0682,0.71722,-0.94933839,-0.275939235,-0.13110318
1764511348.1994507,-3.25038,1.0682,0.71722,-0.94933839,-0.275939235,-0.13110318
1764511348.1994507,-3.25038,1.0682,0.71722,-0.94933839,-0.275939235,-0.13110318
1764511348.1994507,-2.60946,1.12924,0.94612,-0.948789075,-0.275328885,-0.13012662
1764511348.1994507,-2.60946,1.12924,0.94612,-0.948789075,-0.275328885,-0.13012662
1764511348.1994507,-2.60946,1.12924,0.94612,-0.948789075,-0.275328885,-0.13012662
1764511348.1994507,-2.60946,1.12924,0.94612,-0.948789075,-0.275328885,-0.13012662
1764511348.1994507,-2.60946,1.12924,0.94612,-0.948789075,-0.275328885,-0.13012662
1764511348.1994507,-2.60946,1.12924,0.94612,-0.948789075,-0.275328885,-0.13012662
1764511348.2004664,-2.60946,1.12924,0.94612,-0.948789075,-0.275328885,-0.13012662
1764511348.2004664,-2.60946,1.12924,0.94612,-0.948789075,-0.275328885,-0.13012662
1764511348.2004664,-2.60946,1.12924,0.94612,-0.948789075,-0.275328885,-0.13012662
1764511348.2004664,-2.60946,1.12924,0.94612,-0.948789075,-0.275328885,-0.13012662
1764511348.2004664,-3.41824,1.32762,1.1445,-0.948178725,-0.27368094,-0.12951627
1764511348.2004664,-3.41824,1.32762,1.1445,-0.948178725,-0.27368094,-0.12951627
1764511348.2004664,-3.41824,1.32762,1.1445,-0.948178725,-0.27368094,-0.12951627
1764511348.2004664,-3.41824,1.32762,1.1445,-0.948178725,-0.27368094,-0.12951627
1764511348.2004664,-3.41824,1.32762,1.1445,-0.948178725,-0.27368094,-0.12951627
1764511348.2004664,-3.41824,1.32762,1.1445,-0.948178725,-0.27368094,-0.12951627
1764511348.2004664,-3.41824,1.32762,1.1445,-0.948178725,-0.27368094,-0.12951627
1764511348.2004664,-3.41824,1.32762,1.1445,-0.948178725,-0.27368094,-0.12951627
1764511348.2004664,-3.41824,1.32762,1.1445,-0.948178725,-0.27368094,-0.12951627
1764511348.2004664,-3.41824,1.32762,1.1445,-0.948178725,-0.27368094,-0.12951627
1764511348.2004664,-4.1202,1.08346,0.763,-0.948911145,-0.272521275,-0.12927213
1764511348.2004664,-4.1202,1.08346,0.763,-0.948911145,-0.272521275,-0.12927213
1764511348.2004664,-4.1202,1.08346,0.763,-0.948911145,-0.272521275,-0.12927213
1764511348.2004664,-4.1202,1.08346,0.763,-0.948911145,-0.272521275,-0.12927213
1764511348.2004664,-4.1202,1.08346,0.763,-0.948911145,-0.272521275,-0.12927213
1764511348.2004664,-4.1202,1.08346,0.763,-0.948911145,-0.272521275,-0.12927213
1764511348.201465,-4.1202,1.08346,0.763,-0.948911145,-0.272521275,-0.12927213
1764511348.201465,-4.1202,1.08346,0.763,-0.948911145,-0.272521275,-0.12927213
1764511348.201465,-4.1202,1.08346,0.763,-0.948911145,-0.272521275,-0.12927213
1764511348.201465,-4.1202,1.08346,0.763,-0.948911145,-0.272521275,-0.12927213
1764511348.201465,-4.83742,0.5341,0.24416,-0.94958253,-0.272521275,-0.12902799
1764511348.201465,-4.83742,0.5341,0.24416,-0.94958253,-0.272521275,-0.12902799
1764511348.201465,-4.83742,0.5341,0.24416,-0.94958253,-0.272521275,-0.12902799
1764511348.201465,-4.83742,0.5341,0.24416,-0.94958253,-0.272521275,-0.12902799
1764511348.201465,-4.83742,0.5341,0.24416,-0.94958253,-0.272521275,-0.12902799
1764511348.201465,-4.83742,0.5341,0.24416,-0.94958253,-0.272521275,-0.12902799
1764511348.248479,-4.83742,0.5341,0.24416,-0.94958253,-0.272521275,-0.12902799
1764511348.248479,-4.83742,0.5341,0.24416,-0.94958253,-0.272521275,-0.12902799
1764511348.248479,-4.83742,0.5341,0.24416,-0.94958253,-0.272521275,-0.12902799
1764511348.248479,-4.83742,0.5341,0.24416,-0.94958253,-0.272521275,-0.12902799
1764511348.248479,-4.8069,0.9156,0.3509799999999999,-0.949765635,-0.274108185,-0.129211095
1764511348.248479,-4.8069,0.9156,0.3509799999999999,-0.949765635,-0.274108185,-0.129211095
1764511348.248479,-4.8069,0.9156,0.3509799999999999,-0.949765635,-0.274108185,-0.129211095
1764511348.248479,-4.8069,0.9156,0.3509799999999999,-0.949765635,-0.274108185,-0.129211095
1764511348.248479,-4.8069,0.9156,0.3509799999999999,-0.949765635,-0.274108185,-0.129211095
1764511348.248479,-4.8069,0.9156,0.3509799999999999,-0.949765635,-0.274108185,-0.129211095
1764511348.248479,-4.8069,0.9156,0.3509799999999999,-0.949765635,-0.274108185,-0.129211095
1764511348.248479,-4.8069,0.9156,0.3509799999999999,-0.949765635,-0.274108185,-0.129211095
1764511348.248479,-4.8069,0.9156,0.3509799999999999,-0.949765635,-0.274108185,-0.129211095
1764511348.248479,-4.8069,0.9156,0.3509799999999999,-0.949765635,-0.274108185,-0.129211095
1764511348.248479,-3.86078,1.03768,0.82404,-0.949155285,-0.27502371,-0.128966955
1764511348.248479,-3.86078,1.03768,0.82404,-0.949155285,-0.27502371,-0.128966955
1764511348.248479,-3.86078,1.03768,0.82404,-0.949155285,-0.27502371,-0.128966955
1764511348.248479,-3.86078,1.03768,0.82404,-0.949155285,-0.27502371,-0.128966955
1764511348.248479,-3.86078,1.03768,0.82404,-0.949155285,-0.27502371,-0.128966955
1764511348.248479,-3.86078,1.03768,0.82404,-0.949155285,-0.27502371,-0.128966955
1764511348.248479,-3.86078,1.03768,0.82404,-0.949155285,-0.27502371,-0.128966955
1764511348.2494974,-3.86078,1.03768,0.82404,-0.949155285,-0.27502371,-0.128966955
1764511348.2494974,-3.86078,1.03768,0.82404,-0.949155285,-0.27502371,-0.128966955
1764511348.2494974,-3.86078,1.03768,0.82404,-0.949155285,-0.27502371,-0.128966955
1764511348.2935393,-3.52506,1.15976,0.41202,-0.948789075,-0.2758782,-0.128966955
1764511348.2935393,-3.52506,1.15976,0.41202,-0.948789075,-0.2758782,-0.128966955
1764511348.2935393,-3.52506,1.15976,0.41202,-0.948789075,-0.2758782,-0.128966955
1764511348.2935393,-3.52506,1.15976,0.41202,-0.948789075,-0.2758782,-0.128966955
1764511348.2935393,-3.52506,1.15976,0.41202,-0.948789075,-0.2758782,-0.128966955
1764511348.2935393,-3.52506,1.15976,0.41202,-0.948789075,-0.2758782,-0.128966955
1764511348.2935393,-3.52506,1.15976,0.41202,-0.948789075,-0.2758782,-0.128966955
1764511348.2935393,-3.52506,1.15976,0.41202,-0.948789075,-0.2758782,-0.128966955
1764511348.2935393,-3.52506,1.15976,0.41202,-0.948789075,-0.2758782,-0.128966955
1764511348.2935393,-3.52506,1.15976,0.41202,-0.948789075,-0.2758782,-0.128966955
1764511348.2945588,-2.79258,1.23606,0.79352,-0.948422865,-0.27514578,-0.128356605
1764511348.2945588,-2.79258,1.23606,0.79352,-0.948422865,-0.27514578,-0.128356605
1764511348.2945588,-2.79258,1.23606,0.79352,-0.948422865,-0.27514578,-0.128356605
1764511348.2945588,-2.79258,1.23606,0.79352,-0.948422865,-0.27514578,-0.128356605
1764511348.2945588,-2.79258,1.23606,0.79352,-0.948422865,-0.27514578,-0.128356605
1764511348.2945588,-2.79258,1.23606,0.79352,-0.948422865,-0.27514578,-0.128356605
1764511348.2945588,-2.79258,1.23606,0.79352,-0.948422865,-0.27514578,-0.128356605
1764511348.2945588,-2.79258,1.23606,0.79352,-0.948422865,-0.27514578,-0.128356605
1764511348.2945588,-2.79258,1.23606,0.79352,-0.948422865,-0.27514578,-0.128356605
1764511348.2945588,-2.79258,1.23606,0.79352,-0.948422865,-0.27514578,-0.128356605
1764511348.2945588,-3.5098,1.28184,0.50358,-0.949765635,-0.27331473,-0.128966955
1764511348.2945588,-3.5098,1.28184,0.50358,-0.949765635,-0.27331473,-0.128966955
1764511348.2955627,-3.5098,1.28184,0.50358,-0.949765635,-0.27331473,-0.128966955
1764511348.296558,-3.5098,1.28184,0.50358,-0.949765635,-0.27331473,-0.128966955
1764511348.3394852,-3.5098,1.28184,0.50358,-0.949765635,-0.27331473,-0.128966955
1764511348.3394852,-3.5098,1.28184,0.50358,-0.949765635,-0.27331473,-0.128966955
1764511348.3399978,-3.5098,1.28184,0.50358,-0.949765635,-0.27331473,-0.128966955
1764511348.3399978,-3.5098,1.28184,0.50358,-0.949765635,-0.27331473,-0.128966955
1764511348.3399978,-3.5098,1.28184,0.50358,-0.949765635,-0.27331473,-0.128966955
1764511348.3399978,-3.5098,1.28184,0.50358,-0.949765635,-0.27331473,-0.128966955
1764511348.3399978,-5.31048,0.6409199999999999,0.77826,-0.948911145,-0.270812295,-0.129455235
1764511348.3399978,-5.31048,0.6409199999999999,0.77826,-0.948911145,-0.270812295,-0.129455235
1764511348.3399978,-5.31048,0.6409199999999999,0.77826,-0.948911145,-0.270812295,-0.129455235
1764511348.3399978,-5.31048,0.6409199999999999,0.77826,-0.948911145,-0.270812295,-0.129455235
1764511348.3399978,-5.31048,0.6409199999999999,0.77826,-0.948911145,-0.270812295,-0.129455235
1764511348.3399978,-5.31048,0.6409199999999999,0.77826,-0.948911145,-0.270812295,-0.129455235
1764511348.3399978,-5.31048,0.6409199999999999,0.77826,-0.948911145,-0.270812295,-0.129455235
1764511348.3399978,-5.31048,0.6409199999999999,0.77826,-0.948911145,-0.270812295,-0.129455235
1764511348.3399978,-5.31048,0.6409199999999999,0.77826,-0.948911145,-0.270812295,-0.129455235
1764511348.3399978,-5.31048,0.6409199999999999,0.77826,-0.948911145,-0.270812295,-0.129455235
1764511348.3399978,-3.72344,0.51884,1.15976,-0.947934585,-0.272032995,-0.127746255
1764511348.3399978,-3.72344,0.51884,1.15976,-0.947934585,-0.272032995,-0.127746255
1764511348.3399978,-3.72344,0.51884,1.15976,-0.947934585,-0.272032995,-0.127746255
1764511348.3399978,-3.72344,0.51884,1.15976,-0.947934585,-0.272032995,-0.127746255
1764511348.3399978,-3.72344,0.51884,1.15976,-0.947934585,-0.272032995,-0.127746255
1764511348.3399978,-3.72344,0.51884,1.15976,-0.947934585,-0.272032995,-0.127746255
1764511348.3885145,-3.72344,0.51884,1.15976,-0.947934585,-0.272032995,-0.127746255
1764511348.3885145,-3.72344,0.51884,1.15976,-0.947934585,-0.272032995,-0.127746255
1764511348.3885145,-3.72344,0.51884,1.15976,-0.947934585,-0.272032995,-0.127746255
1764511348.3885145,-3.72344,0.51884,1.15976,-0.947934585,-0.272032995,-0.127746255
1764511348.3885145,-2.16692,1.2055399999999998,0.93086,-0.949277355,-0.274474395,-0.12683073
1764511348.3895197,-2.16692,1.2055399999999998,0.93086,-0.949277355,-0.274474395,-0.12683073
1764511348.3895197,-2.16692,1.2055399999999998,0.93086,-0.949277355,-0.274474395,-0.12683073
1764511348.3895197,-2.16692,1.2055399999999998,0.93086,-0.949277355,-0.274474395,-0.12683073
1764511348.3895197,-2.16692,1.2055399999999998,0.93086,-0.949277355,-0.274474395,-0.12683073
1764511348.3895197,-2.16692,1.2055399999999998,0.93086,-0.949277355,-0.274474395,-0.12683073
1764511348.3895197,-2.16692,1.2055399999999998,0.93086,-0.949277355,-0.274474395,-0.12683073
1764511348.3895197,-2.16692,1.2055399999999998,0.93086,-0.949277355,-0.274474395,-0.12683073
1764511348.3895197,-2.16692,1.2055399999999998,0.93086,-0.949277355,-0.274474395,-0.12683073
1764511348.3895197,-2.16692,1.2055399999999998,0.93086,-0.949277355,-0.274474395,-0.12683073
1764511348.3895197,-2.22796,1.7549,0.763,-0.948056655,-0.27538992,-0.125671065
1764511348.3895197,-2.22796,1.7549,0.763,-0.948056655,-0.27538992,-0.125671065
1764511348.3895197,-2.22796,1.7549,0.763,-0.948056655,-0.27538992,-0.125671065
1764511348.3895197,-2.22796,1.7549,0.763,-0.948056655,-0.27538992,-0.125671065
1764511348.3895197,-2.22796,1.7549,0.763,-0.948056655,-0.27538992,-0.125671065
1764511348.3895197,-2.22796,1.7549,0.763,-0.948056655,-0.27538992,-0.125671065
1764511348.3895197,-2.22796,1.7549,0.763,-0.948056655,-0.27538992,-0.125671065
1764511348.3895197,-2.22796,1.7549,0.763,-0.948056655,-0.27538992,-0.125671065
1764511348.3895197,-2.22796,1.7549,0.763,-0.948056655,-0.27538992,-0.125671065
1764511348.3895197,-2.22796,1.7549,0.763,-0.948056655,-0.27538992,-0.125671065
1764511348.4346335,-3.15882,2.02958,0.6103999999999999,-0.94738527,-0.273375765,-0.125671065
1764511348.4346335,-3.15882,2.02958,0.6103999999999999,-0.94738527,-0.273375765,-0.125671065
1764511348.4346335,-3.15882,2.02958,0.6103999999999999,-0.94738527,-0.273375765,-0.125671065
1764511348.4346335,-3.15882,2.02958,0.6103999999999999,-0.94738527,-0.273375765,-0.125671065
1764511348.4346335,-3.15882,2.02958,0.6103999999999999,-0.94738527,-0.273375765,-0.125671065
1764511348.4346335,-3.15882,2.02958,0.6103999999999999,-0.94738527,-0.273375765,-0.125671065
1764511348.4346335,-3.15882,2.02958,0.6103999999999999,-0.94738527,-0.273375765,-0.125671065
1764511348.4346335,-3.15882,2.02958,0.6103999999999999,-0.94738527,-0.273375765,-0.125671065
1764511348.4346335,-3.15882,2.02958,0.6103999999999999,-0.94738527,-0.273375765,-0.125671065
1764511348.4346335,-3.15882,2.02958,0.6103999999999999,-0.94738527,-0.273375765,-0.125671065
1764511348.4346335,-4.0439,0.79352,-0.1525999999999999,-0.949765635,-0.27075126,-0.12792936
1764511348.4346335,-4.0439,0.79352,-0.1525999999999999,-0.949765635,-0.27075126,-0.12792936
1764511348.4346335,-4.0439,0.79352,-0.1525999999999999,-0.949765635,-0.27075126,-0.12792936
1764511348.4346335,-4.0439,0.79352,-0.1525999999999999,-0.949765635,-0.27075126,-0.12792936
1764511348.4354808,-4.0439,0.79352,-0.1525999999999999,-0.949765635,-0.27075126,-0.12792936
1764511348.4354808,-4.0439,0.79352,-0.1525999999999999,-0.949765635,-0.27075126,-0.12792936
1764511348.4354808,-4.0439,0.79352,-0.1525999999999999,-0.949765635,-0.27075126,-0.12792936
1764511348.4354808,-4.0439,0.79352,-0.1525999999999999,-0.949765635,-0.27075126,-0.12792936
1764511348.4354808,-4.0439,0.79352,-0.1525999999999999,-0.949765635,-0.27075126,-0.12792936
1764511348.4354808,-4.0439,0.79352,-0.1525999999999999,-0.949765635,-0.27075126,-0.12792936
1764511348.4354808,-5.1884,0.51884,0.39676,-0.950620125,-0.271300575,-0.13098111
1764511348.4354808,-5.1884,0.51884,0.39676,-0.950620125,-0.271300575,-0.13098111
1764511348.4783814,-5.1884,0.51884,0.39676,-0.950620125,-0.271300575,-0.13098111
1764511348.4783814,-5.1884,0.51884,0.39676,-0.950620125,-0.271300575,-0.13098111
1764511348.4783814,-5.1884,0.51884,0.39676,-0.950620125,-0.271300575,-0.13098111
1764511348.4783814,-5.1884,0.51884,0.39676,-0.950620125,-0.271300575,-0.13098111
1764511348.4783814,-5.1884,0.51884,0.39676,-0.950620125,-0.271300575,-0.13098111
1764511348.4783814,-5.1884,0.51884,0.39676,-0.950620125,-0.271300575,-0.13098111
1764511348.4783814,-5.1884,0.51884,0.39676,-0.950620125,-0.271300575,-0.13098111
1764511348.4783814,-5.1884,0.51884,0.39676,-0.950620125,-0.271300575,-0.13098111
1764511348.4783814,-4.66956,0.97664,0.73248,-0.949399425,-0.27355887,-0.12988248
1764511348.4794054,-4.66956,0.97664,0.73248,-0.949399425,-0.27355887,-0.12988248
1764511348.4794054,-4.66956,0.97664,0.73248,-0.949399425,-0.27355887,-0.12988248
1764511348.4794054,-4.66956,0.97664,0.73248,-0.949399425,-0.27355887,-0.12988248
1764511348.4794054,-4.66956,0.97664,0.73248,-0.949399425,-0.27355887,-0.12988248
1764511348.4794054,-4.66956,0.97664,0.73248,-0.949399425,-0.27355887,-0.12988248
1764511348.4794054,-4.66956,0.97664,0.73248,-0.949399425,-0.27355887,-0.12988248
1764511348.4794054,-4.66956,0.97664,0.73248,-0.949399425,-0.27355887,-0.12988248
1764511348.4794054,-4.66956,0.97664,0.73248,-0.949399425,-0.27355887,-0.12988248
1764511348.4794054,-4.66956,0.97664,0.73248,-0.949399425,-0.27355887,-0.12988248
1764511348.4794054,-2.65524,1.77016,1.15976,-0.948178725,-0.27551199,-0.128966955
1764511348.4803991,-2.65524,1.77016,1.15976,-0.948178725,-0.27551199,-0.128966955
1764511348.4803991,-2.65524,1.77016,1.15976,-0.948178725,-0.27551199,-0.128966955
1764511348.4803991,-2.65524,1.77016,1.15976,-0.948178725,-0.27551199,-0.128966955
1764511348.4803991,-2.65524,1.77016,1.15976,-0.948178725,-0.27551199,-0.128966955
1764511348.4803991,-2.65524,1.77016,1.15976,-0.948178725,-0.27551199,-0.128966955
1764511348.528227,-2.65524,1.77016,1.15976,-0.948178725,-0.27551199,-0.128966955
1764511348.528227,-2.65524,1.77016,1.15976,-0.948178725,-0.27551199,-0.128966955
1764511348.528227,-2.65524,1.77016,1.15976,-0.948178725,-0.27551199,-0.128966955
1764511348.528227,-2.65524,1.77016,1.15976,-0.948178725,-0.27551199,-0.128966955
1764511348.528227,-1.35814,1.77016,0.8698199999999999,-0.94799562,-0.277282005,-0.128844885
1764511348.528227,-1.35814,1.77016,0.8698199999999999,-0.94799562,-0.277282005,-0.128844885
1764511348.528227,-1.35814,1.77016,0.8698199999999999,-0.94799562,-0.277282005,-0.128844885
1764511348.528227,-1.35814,1.77016,0.8698199999999999,-0.94799562,-0.277282005,-0.128844885
1764511348.528227,-1.35814,1.77016,0.8698199999999999,-0.94799562,-0.277282005,-0.128844885
1764511348.528227,-1.35814,1.77016,0.8698199999999999,-0.94799562,-0.277282005,-0.128844885
1764511348.528227,-1.35814,1.77016,0.8698199999999999,-0.94799562,-0.277282005,-0.128844885
1764511348.528227,-1.35814,1.77016,0.8698199999999999,-0.94799562,-0.277282005,-0.128844885
1764511348.528227,-1.35814,1.77016,0.8698199999999999,-0.94799562,-0.277282005,-0.128844885
1764511348.528227,-1.35814,1.77016,0.8698199999999999,-0.94799562,-0.277282005,-0.128844885
1764511348.528227,-1.61756,1.69386,0.13734,-0.949277355,-0.27404715,-0.12878385
1764511348.528227,-1.61756,1.69386,0.13734,-0.949277355,-0.27404715,-0.12878385
1764511348.528227,-1.61756,1.69386,0.13734,-0.949277355,-0.27404715,-0.12878385
1764511348.528227,-1.61756,1.69386,0.13734,-0.949277355,-0.27404715,-0.12878385
1764511348.528227,-1.61756,1.69386,0.13734,-0.949277355,-0.27404715,-0.12878385
1764511348.528227,-1.61756,1.69386,0.13734,-0.949277355,-0.27404715,-0.12878385
1764511348.528227,-1.61756,1.69386,0.13734,-0.949277355,-0.27404715,-0.12878385
1764511348.528227,-1.61756,1.69386,0.13734,-0.949277355,-0.27404715,-0.12878385
1764511348.528227,-1.61756,1.69386,0.13734,-0.949277355,-0.27404715,-0.12878385
1764511348.5292418,-1.61756,1.69386,0.13734,-0.949277355,-0.27404715,-0.12878385
1764511348.5726397,-3.52506,0.93086,0.28994,-0.95080323,-0.270812295,-0.12890592
1764511348.5731506,-3.52506,0.93086,0.28994,-0.95080323,-0.270812295,-0.12890592
1764511348.5731506,-3.52506,0.93086,0.28994,-0.95080323,-0.270812295,-0.12890592
1764511348.5731506,-3.52506,0.93086,0.28994,-0.95080323,-0.270812295,-0.12890592
1764511348.5731506,-3.52506,0.93086,0.28994,-0.95080323,-0.270812295,-0.12890592
1764511348.5731506,-3.52506,0.93086,0.28994,-0.95080323,-0.270812295,-0.12890592
1764511348.5731506,-3.52506,0.93086,0.28994,-0.95080323,-0.270812295,-0.12890592
1764511348.5731506,-3.52506,0.93086,0.28994,-0.95080323,-0.270812295,-0.12890592
1764511348.5731506,-3.52506,0.93086,0.28994,-0.95080323,-0.270812295,-0.12890592
1764511348.5731506,-3.52506,0.93086,0.28994,-0.95080323,-0.270812295,-0.12890592
1764511348.5754886,-4.7306,1.2055399999999998,0.9003399999999999,-0.95116944,-0.271666785,-0.128600745
1764511348.5754886,-4.7306,1.2055399999999998,0.9003399999999999,-0.95116944,-0.271666785,-0.128600745
1764511348.5754886,-4.7306,1.2055399999999998,0.9003399999999999,-0.95116944,-0.271666785,-0.128600745
1764511348.5754886,-4.7306,1.2055399999999998,0.9003399999999999,-0.95116944,-0.271666785,-0.128600745
1764511348.6240778,-4.7306,1.2055399999999998,0.9003399999999999,-0.95116944,-0.271666785,-0.128600745
1764511348.6240778,-4.7306,1.2055399999999998,0.9003399999999999,-0.95116944,-0.271666785,-0.128600745
1764511348.6240778,-4.7306,1.2055399999999998,0.9003399999999999,-0.95116944,-0.271666785,-0.128600745
1764511348.6240778,-4.7306,1.2055399999999998,0.9003399999999999,-0.95116944,-0.271666785,-0.128600745
1764511348.6240778,-4.7306,1.2055399999999998,0.9003399999999999,-0.95116944,-0.271666785,-0.128600745
1764511348.6250803,-4.7306,1.2055399999999998,0.9003399999999999,-0.95116944,-0.271666785,-0.128600745
1764511348.6250803,-4.97476,1.2971,0.47306,-0.950742195,-0.273253695,-0.128356605
1764511348.6250803,-4.97476,1.2971,0.47306,-0.950742195,-0.273253695,-0.128356605
1764511348.6250803,-4.97476,1.2971,0.47306,-0.950742195,-0.273253695,-0.128356605
1764511348.6250803,-4.97476,1.2971,0.47306,-0.950742195,-0.273253695,-0.128356605
1764511348.6250803,-4.97476,1.2971,0.47306,-0.950742195,-0.273253695,-0.128356605
1764511348.6250803,-4.97476,1.2971,0.47306,-0.950742195,-0.273253695,-0.128356605
1764511348.6250803,-4.97476,1.2971,0.47306,-0.950742195,-0.273253695,-0.128356605
1764511348.6250803,-4.97476,1.2971,0.47306,-0.950742195,-0.273253695,-0.128356605
1764511348.6250803,-4.97476,1.2971,0.47306,-0.950742195,-0.273253695,-0.128356605
1764511348.6250803,-4.97476,1.2971,0.47306,-0.950742195,-0.273253695,-0.128356605
1764511348.6250803,-4.48644,1.54126,0.6103999999999999,-0.949033215,-0.273741975,-0.12805143
1764511348.6250803,-4.48644,1.54126,0.6103999999999999,-0.949033215,-0.273741975,-0.12805143
1764511348.6250803,-4.48644,1.54126,0.6103999999999999,-0.949033215,-0.273741975,-0.12805143
1764511348.6250803,-4.48644,1.54126,0.6103999999999999,-0.949033215,-0.273741975,-0.12805143
1764511348.6250803,-4.48644,1.54126,0.6103999999999999,-0.949033215,-0.273741975,-0.12805143
1764511348.6250803,-4.48644,1.54126,0.6103999999999999,-0.949033215,-0.273741975,-0.12805143
1764511348.6250803,-4.48644,1.54126,0.6103999999999999,-0.949033215,-0.273741975,-0.12805143
1764511348.6250803,-4.48644,1.54126,0.6103999999999999,-0.949033215,-0.273741975,-0.12805143
1764511348.6250803,-4.48644,1.54126,0.6103999999999999,-0.949033215,-0.273741975,-0.12805143
1764511348.6250803,-4.48644,1.54126,0.6103999999999999,-0.949033215,-0.273741975,-0.12805143
1764511348.6250803,-2.92992,0.9919,0.06104,-0.94946046,-0.274474395,-0.12780729
1764511348.6250803,-2.92992,0.9919,0.06104,-0.94946046,-0.274474395,-0.12780729
1764511348.6250803,-2.92992,0.9919,0.06104,-0.94946046,-0.274474395,-0.12780729
1764511348.6250803,-2.92992,0.9919,0.06104,-0.94946046,-0.274474395,-0.12780729
1764511348.626094,-2.92992,0.9919,0.06104,-0.94946046,-0.274474395,-0.12780729
1764511348.626094,-2.92992,0.9919,0.06104,-0.94946046,-0.274474395,-0.12780729
1764511348.6689444,-2.92992,0.9919,0.06104,-0.94946046,-0.274474395,-0.12780729
1764511348.6689444,-2.92992,0.9919,0.06104,-0.94946046,-0.274474395,-0.12780729
1764511348.6689444,-2.92992,0.9919,0.06104,-0.94946046,-0.274474395,-0.12780729
1764511348.6689444,-2.92992,0.9919,0.06104,-0.94946046,-0.274474395,-0.12780729
1764511348.6689444,-2.24322,0.97664,1.12924,-0.948300795,-0.27429129,-0.127135905
1764511348.6689444,-2.24322,0.97664,1.12924,-0.948300795,-0.27429129,-0.127135905
1764511348.6689444,-2.24322,0.97664,1.12924,-0.948300795,-0.27429129,-0.127135905
1764511348.6689444,-2.24322,0.97664,1.12924,-0.948300795,-0.27429129,-0.127135905
1764511348.6689444,-2.24322,0.97664,1.12924,-0.948300795,-0.27429129,-0.127135905
1764511348.6689444,-2.24322,0.97664,1.12924,-0.948300795,-0.27429129,-0.127135905
1764511348.6689444,-2.24322,0.97664,1.12924,-0.948300795,-0.27429129,-0.127135905
1764511348.6699576,-2.24322,0.97664,1.12924,-0.948300795,-0.27429129,-0.127135905
1764511348.6699576,-2.24322,0.97664,1.12924,-0.948300795,-0.27429129,-0.127135905
1764511348.6699576,-2.24322,0.97664,1.12924,-0.948300795,-0.27429129,-0.127135905
1764511348.6699576,-3.2046,1.43444,1.63282,-0.94787355,-0.27282645,-0.126525555
1764511348.6699576,-3.2046,1.43444,1.63282,-0.94787355,-0.27282645,-0.126525555
1764511348.6699576,-3.2046,1.43444,1.63282,-0.94787355,-0.27282645,-0.126525555
1764511348.6699576,-3.2046,1.43444,1.63282,-0.94787355,-0.27282645,-0.126525555
1764511348.6699576,-3.2046,1.43444,1.63282,-0.94787355,-0.27282645,-0.126525555
1764511348.6699576,-3.2046,1.43444,1.63282,-0.94787355,-0.27282645,-0.126525555
1764511348.6699576,-3.2046,1.43444,1.63282,-0.94787355,-0.27282645,-0.126525555
1764511348.6699576,-3.2046,1.43444,1.63282,-0.94787355,-0.27282645,-0.126525555
1764511348.6699576,-3.2046,1.43444,1.63282,-0.94787355,-0.27282645,-0.126525555
1764511348.6699576,-3.2046,1.43444,1.63282,-0.94787355,-0.27282645,-0.126525555
1764511348.7138867,-5.02054,1.02242,0.3204599999999999,-0.949765635,-0.27197196,-0.1269528
1764511348.7138867,-5.02054,1.02242,0.3204599999999999,-0.949765635,-0.27197196,-0.1269528
1764511348.7138867,-5.02054,1.02242,0.3204599999999999,-0.949765635,-0.27197196,-0.1269528
1764511348.7138867,-5.02054,1.02242,0.3204599999999999,-0.949765635,-0.27197196,-0.1269528
1764511348.7138867,-5.02054,1.02242,0.3204599999999999,-0.949765635,-0.27197196,-0.1269528
1764511348.7138867,-5.02054,1.02242,0.3204599999999999,-0.949765635,-0.27197196,-0.1269528
1764511348.7149975,-5.02054,1.02242,0.3204599999999999,-0.949765635,-0.27197196,-0.1269528
1764511348.7149975,-5.02054,1.02242,0.3204599999999999,-0.949765635,-0.27197196,-0.1269528
1764511348.7149975,-5.02054,1.02242,0.3204599999999999,-0.949765635,-0.27197196,-0.1269528
1764511348.7149975,-5.02054,1.02242,0.3204599999999999,-0.949765635,-0.27197196,-0.1269528
1764511348.7149975,-5.14262,0.62566,-0.9003399999999999,-0.951596685,-0.272155065,-0.12780729
1764511348.7149975,-5.14262,0.62566,-0.9003399999999999,-0.951596685,-0.272155065,-0.12780729
1764511348.7149975,-5.14262,0.62566,-0.9003399999999999,-0.951596685,-0.272155065,-0.12780729
1764511348.7149975,-5.14262,0.62566,-0.9003399999999999,-0.951596685,-0.272155065,-0.12780729
1764511348.7149975,-5.14262,0.62566,-0.9003399999999999,-0.951596685,-0.272155065,-0.12780729
1764511348.7149975,-5.14262,0.62566,-0.9003399999999999,-0.951596685,-0.272155065,-0.12780729
1764511348.7149975,-5.14262,0.62566,-0.9003399999999999,-0.951596685,-0.272155065,-0.12780729
1764511348.7149975,-5.14262,0.62566,-0.9003399999999999,-0.951596685,-0.272155065,-0.12780729
1764511348.7149975,-5.14262,0.62566,-0.9003399999999999,-0.951596685,-0.272155065,-0.12780729
1764511348.7149975,-5.14262,0.62566,-0.9003399999999999,-0.951596685,-0.272155065,-0.12780729
1764511348.7149975,-4.51696,1.43444,-0.8087799999999999,-0.950620125,-0.2734368,-0.128844885
1764511348.7149975,-4.51696,1.43444,-0.8087799999999999,-0.950620125,-0.2734368,-0.128844885
1764511348.7149975,-4.51696,1.43444,-0.8087799999999999,-0.950620125,-0.2734368,-0.128844885
1764511348.7149975,-4.51696,1.43444,-0.8087799999999999,-0.950620125,-0.2734368,-0.128844885
1764511348.764141,-4.51696,1.43444,-0.8087799999999999,-0.950620125,-0.2734368,-0.128844885
1764511348.764141,-4.51696,1.43444,-0.8087799999999999,-0.950620125,-0.2734368,-0.128844885
1764511348.764141,-4.51696,1.43444,-0.8087799999999999,-0.950620125,-0.2734368,-0.128844885
1764511348.764141,-4.51696,1.43444,-0.8087799999999999,-0.950620125,-0.2734368,-0.128844885
1764511348.764141,-4.51696,1.43444,-0.8087799999999999,-0.950620125,-0.2734368,-0.128844885
1764511348.764141,-4.51696,1.43444,-0.8087799999999999,-0.950620125,-0.2734368,-0.128844885
1764511348.764141,-3.72344,1.9075,0.39676,-0.948789075,-0.276793725,-0.12878385
1764511348.764141,-3.72344,1.9075,0.39676,-0.948789075,-0.276793725,-0.12878385
1764511348.764141,-3.72344,1.9075,0.39676,-0.948789075,-0.276793725,-0.12878385
1764511348.764141,-3.72344,1.9075,0.39676,-0.948789075,-0.276793725,-0.12878385
1764511348.764141,-3.72344,1.9075,0.39676,-0.948789075,-0.276793725,-0.12878385
1764511348.764141,-3.72344,1.9075,0.39676,-0.948789075,-0.276793725,-0.12878385
1764511348.764141,-3.72344,1.9075,0.39676,-0.948789075,-0.276793725,-0.12878385
1764511348.764141,-3.72344,1.9075,0.39676,-0.948789075,-0.276793725,-0.12878385
1764511348.7651432,-3.72344,1.9075,0.39676,-0.948789075,-0.276793725,-0.12878385
1764511348.7651432,-3.72344,1.9075,0.39676,-0.948789075,-0.276793725,-0.12878385
1764511348.7651432,-3.08252,2.02958,1.3734,-0.947934585,-0.2770989,-0.1269528
1764511348.7651432,-3.08252,2.02958,1.3734,-0.947934585,-0.2770989,-0.1269528
1764511348.7651432,-3.08252,2.02958,1.3734,-0.947934585,-0.2770989,-0.1269528
1764511348.7651432,-3.08252,2.02958,1.3734,-0.947934585,-0.2770989,-0.1269528
1764511348.7651432,-3.08252,2.02958,1.3734,-0.947934585,-0.2770989,-0.1269528
1764511348.7651432,-3.08252,2.02958,1.3734,-0.947934585,-0.2770989,-0.1269528
1764511348.8094237,-3.08252,2.02958,1.3734,-0.947934585,-0.2770989,-0.1269528
1764511348.8094237,-3.08252,2.02958,1.3734,-0.947934585,-0.2770989,-0.1269528
1764511348.8094237,-3.08252,2.02958,1.3734,-0.947934585,-0.2770989,-0.1269528
1764511348.8094237,-3.08252,2.02958,1.3734,-0.947934585,-0.2770989,-0.1269528
1764511348.8094237,-2.10588,1.32762,0.6103999999999999,-0.948911145,-0.274596465,-0.12609831
1764511348.8094237,-2.10588,1.32762,0.6103999999999999,-0.948911145,-0.274596465,-0.12609831
1764511348.8094237,-2.10588,1.32762,0.6103999999999999,-0.948911145,-0.274596465,-0.12609831
1764511348.8094237,-2.10588,1.32762,0.6103999999999999,-0.948911145,-0.274596465,-0.12609831
1764511348.8094237,-2.10588,1.32762,0.6103999999999999,-0.948911145,-0.274596465,-0.12609831
1764511348.8094237,-2.10588,1.32762,0.6103999999999999,-0.948911145,-0.274596465,-0.12609831
1764511348.8094237,-2.10588,1.32762,0.6103999999999999,-0.948911145,-0.274596465,-0.12609831
1764511348.8094237,-2.10588,1.32762,0.6103999999999999,-0.948911145,-0.274596465,-0.12609831
1764511348.8094237,-2.10588,1.32762,0.6103999999999999,-0.948911145,-0.274596465,-0.12609831
1764511348.8094237,-2.10588,1.32762,0.6103999999999999,-0.948911145,-0.274596465,-0.12609831
1764511348.8094237,-2.96044,0.8087799999999999,0.51884,-0.94921632,-0.271910925,-0.12646452
1764511348.8094237,-2.96044,0.8087799999999999,0.51884,-0.94921632,-0.271910925,-0.12646452
1764511348.8094237,-2.96044,0.8087799999999999,0.51884,-0.94921632,-0.271910925,-0.12646452
1764511348.8094237,-2.96044,0.8087799999999999,0.51884,-0.94921632,-0.271910925,-0.12646452
1764511348.8094237,-2.96044,0.8087799999999999,0.51884,-0.94921632,-0.271910925,-0.12646452
1764511348.8094237,-2.96044,0.8087799999999999,0.51884,-0.94921632,-0.271910925,-0.12646452
1764511348.8094237,-2.96044,0.8087799999999999,0.51884,-0.94921632,-0.271910925,-0.12646452
1764511348.8094237,-2.96044,0.8087799999999999,0.51884,-0.94921632,-0.271910925,-0.12646452
1764511348.857519,-2.96044,0.8087799999999999,0.51884,-0.94921632,-0.271910925,-0.12646452
1764511348.8585346,-2.96044,0.8087799999999999,0.51884,-0.94921632,-0.271910925,-0.12646452
1764511348.8585346,-4.959499999999999,1.17502,0.65618,-0.949277355,-0.27001884,-0.12683073
1764511348.859238,-4.959499999999999,1.17502,0.65618,-0.949277355,-0.27001884,-0.12683073
1764511348.859238,-4.959499999999999,1.17502,0.65618,-0.949277355,-0.27001884,-0.12683073
1764511348.859238,-4.959499999999999,1.17502,0.65618,-0.949277355,-0.27001884,-0.12683073
1764511348.859238,-4.959499999999999,1.17502,0.65618,-0.949277355,-0.27001884,-0.12683073
1764511348.859238,-4.959499999999999,1.17502,0.65618,-0.949277355,-0.27001884,-0.12683073
1764511348.860248,-4.959499999999999,1.17502,0.65618,-0.949277355,-0.27001884,-0.12683073
1764511348.860248,-4.959499999999999,1.17502,0.65618,-0.949277355,-0.27001884,-0.12683073
1764511348.860248,-4.959499999999999,1.17502,0.65618,-0.949277355,-0.27001884,-0.12683073
1764511348.860248,-4.959499999999999,1.17502,0.65618,-0.949277355,-0.27001884,-0.12683073
1764511348.860248,-5.60042,0.9919,0.03052,-0.9497046,-0.270690225,-0.12670866
1764511348.860248,-5.60042,0.9919,0.03052,-0.9497046,-0.270690225,-0.12670866
1764511348.860248,-5.60042,0.9919,0.03052,-0.9497046,-0.270690225,-0.12670866
1764511348.860248,-5.60042,0.9919,0.03052,-0.9497046,-0.270690225,-0.12670866
1764511348.860248,-5.60042,0.9919,0.03052,-0.9497046,-0.270690225,-0.12670866
1764511348.860248,-5.60042,0.9919,0.03052,-0.9497046,-0.270690225,-0.12670866
1764511348.860248,-5.60042,0.9919,0.03052,-0.9497046,-0.270690225,-0.12670866
1764511348.860248,-5.60042,0.9919,0.03052,-0.9497046,-0.270690225,-0.12670866
1764511348.860248,-5.60042,0.9919,0.03052,-0.9497046,-0.270690225,-0.12670866
1764511348.860248,-5.60042,0.9919,0.03052,-0.9497046,-0.270690225,-0.12670866
1764511348.860248,-5.1121,1.54126,-0.25942,-0.94982667,-0.271788855,-0.127135905
1764511348.860248,-5.1121,1.54126,-0.25942,-0.94982667,-0.271788855,-0.127135905
1764511348.860248,-5.1121,1.54126,-0.25942,-0.94982667,-0.271788855,-0.127135905
1764511348.860248,-5.1121,1.54126,-0.25942,-0.94982667,-0.271788855,-0.127135905
1764511348.903674,-5.1121,1.54126,-0.25942,-0.94982667,-0.271788855,-0.127135905
1764511348.903674,-5.1121,1.54126,-0.25942,-0.94982667,-0.271788855,-0.127135905
1764511348.903674,-5.1121,1.54126,-0.25942,-0.94982667,-0.271788855,-0.127135905
1764511348.903674,-5.1121,1.54126,-0.25942,-0.94982667,-0.271788855,-0.127135905
1764511348.903674,-5.1121,1.54126,-0.25942,-0.94982667,-0.271788855,-0.127135905
1764511348.903674,-5.1121,1.54126,-0.25942,-0.94982667,-0.271788855,-0.127135905
1764511348.903674,-4.22702,1.1445,-0.01526,-0.94958253,-0.273375765,-0.128112465
1764511348.903674,-4.22702,1.1445,-0.01526,-0.94958253,-0.273375765,-0.128112465
1764511348.903674,-4.22702,1.1445,-0.01526,-0.94958253,-0.273375765,-0.128112465
1764511348.903674,-4.22702,1.1445,-0.01526,-0.94958253,-0.273375765,-0.128112465
1764511348.9047046,-4.22702,1.1445,-0.01526,-0.94958253,-0.273375765,-0.128112465
1764511348.9047046,-4.22702,1.1445,-0.01526,-0.94958253,-0.273375765,-0.128112465
1764511348.9047046,-4.22702,1.1445,-0.01526,-0.94958253,-0.273375765,-0.128112465
1764511348.9047046,-4.22702,1.1445,-0.01526,-0.94958253,-0.273375765,-0.128112465
1764511348.9047046,-4.22702,1.1445,-0.01526,-0.94958253,-0.273375765,-0.128112465
1764511348.9047046,-4.22702,1.1445,-0.01526,-0.94958253,-0.273375765,-0.128112465
1764511348.9047046,-3.29616,1.49548,0.47306,-0.94946046,-0.27514578,-0.128600745
1764511348.9047046,-3.29616,1.49548,0.47306,-0.94946046,-0.27514578,-0.128600745
1764511348.9047046,-3.29616,1.49548,0.47306,-0.94946046,-0.27514578,-0.128600745
1764511348.9047046,-3.29616,1.49548,0.47306,-0.94946046,-0.27514578,-0.128600745
1764511348.9047046,-3.29616,1.49548,0.47306,-0.94946046,-0.27514578,-0.128600745
1764511348.9047046,-3.29616,1.49548,0.47306,-0.94946046,-0.27514578,-0.128600745
1764511348.9047046,-3.29616,1.49548,0.47306,-0.94946046,-0.27514578,-0.128600745
1764511348.9047046,-3.29616,1.49548,0.47306,-0.94946046,-0.27514578,-0.128600745
1764511348.9479568,-3.29616,1.49548,0.47306,-0.94946046,-0.27514578,-0.128600745
1764511348.9479568,-3.29616,1.49548,0.47306,-0.94946046,-0.27514578,-0.128600745
1764511348.9479568,-3.1283,1.15976,0.59514,-0.94897218,-0.27514578,-0.128112465
1764511348.9479568,-3.1283,1.15976,0.59514,-0.94897218,-0.27514578,-0.128112465
1764511348.9479568,-3.1283,1.15976,0.59514,-0.94897218,-0.27514578,-0.128112465
1764511348.9479568,-3.1283,1.15976,0.59514,-0.94897218,-0.27514578,-0.128112465
1764511348.9479568,-3.1283,1.15976,0.59514,-0.94897218,-0.27514578,-0.128112465
1764511348.9479568,-3.1283,1.15976,0.59514,-0.94897218,-0.27514578,-0.128112465
1764511348.9479568,-3.1283,1.15976,0.59514,-0.94897218,-0.27514578,-0.128112465
1764511348.9479568,-3.1283,1.15976,0.59514,-0.94897218,-0.27514578,-0.128112465
1764511348.9479568,-3.1283,1.15976,0.59514,-0.94897218,-0.27514578,-0.128112465
1764511348.9479568,-3.1283,1.15976,0.59514,-0.94897218,-0.27514578,-0.128112465
1764511348.9479568,-3.83026,1.11398,0.6714399999999999,-0.948911145,-0.27355887,-0.12731901
1764511348.949496,-3.83026,1.11398,0.6714399999999999,-0.948911145,-0.27355887,-0.12731901
1764511348.949496,-3.83026,1.11398,0.6714399999999999,-0.948911145,-0.27355887,-0.12731901
1764511348.949496,-3.83026,1.11398,0.6714399999999999,-0.948911145,-0.27355887,-0.12731901
1764511348.949496,-3.83026,1.11398,0.6714399999999999,-0.948911145,-0.27355887,-0.12731901
1764511348.949496,-3.83026,1.11398,0.6714399999999999,-0.948911145,-0.27355887,-0.12731901
1764511348.949496,-3.83026,1.11398,0.6714399999999999,-0.948911145,-0.27355887,-0.12731901
1764511348.949496,-3.83026,1.11398,0.6714399999999999,-0.948911145,-0.27355887,-0.12731901
1764511348.949496,-3.83026,1.11398,0.6714399999999999,-0.948911145,-0.27355887,-0.12731901
1764511348.9505105,-3.83026,1.11398,0.6714399999999999,-0.948911145,-0.27355887,-0.12731901
1764511348.9945283,-4.7306,0.82404,0.54936,-0.949277355,-0.27148368,-0.12707487
1764511348.9945283,-4.7306,0.82404,0.54936,-0.949277355,-0.27148368,-0.12707487
1764511348.995545,-4.7306,0.82404,0.54936,-0.949277355,-0.27148368,-0.12707487
1764511348.995545,-4.7306,0.82404,0.54936,-0.949277355,-0.27148368,-0.12707487
1764511348.995545,-4.7306,0.82404,0.54936,-0.949277355,-0.27148368,-0.12707487
1764511348.995545,-4.7306,0.82404,0.54936,-0.949277355,-0.27148368,-0.12707487
1764511348.995545,-4.7306,0.82404,0.54936,-0.949277355,-0.27148368,-0.12707487
1764511348.995545,-4.7306,0.82404,0.54936,-0.949277355,-0.27148368,-0.12707487
1764511348.995545,-4.7306,0.82404,0.54936,-0.949277355,-0.27148368,-0.12707487
1764511348.995545,-4.7306,0.82404,0.54936,-0.949277355,-0.27148368,-0.12707487
1764511348.995545,-5.646199999999999,0.8087799999999999,0.42728,-0.949277355,-0.271666785,-0.127257975
1764511348.995545,-5.646199999999999,0.8087799999999999,0.42728,-0.949277355,-0.271666785,-0.127257975
1764511348.995545,-5.646199999999999,0.8087799999999999,0.42728,-0.949277355,-0.271666785,-0.127257975
1764511348.995545,-5.646199999999999,0.8087799999999999,0.42728,-0.949277355,-0.271666785,-0.127257975
1764511348.995545,-5.646199999999999,0.8087799999999999,0.42728,-0.949277355,-0.271666785,-0.127257975
1764511348.9960537,-5.646199999999999,0.8087799999999999,0.42728,-0.949277355,-0.271666785,-0.127257975
1764511348.9960537,-5.646199999999999,0.8087799999999999,0.42728,-0.949277355,-0.271666785,-0.127257975
1764511348.9960537,-5.646199999999999,0.8087799999999999,0.42728,-0.949277355,-0.271666785,-0.127257975
1764511348.9960537,-5.646199999999999,0.8087799999999999,0.42728,-0.949277355,-0.271666785,-0.127257975
1764511348.9960537,-5.646199999999999,0.8087799999999999,0.42728,-0.949277355,-0.271666785,-0.127257975
1764511348.9970596,-5.08158,1.23606,0.6103999999999999,-0.949277355,-0.272887485,-0.12719694
1764511348.9970596,-5.08158,1.23606,0.6103999999999999,-0.949277355,-0.272887485,-0.12719694
1764511348.9970596,-5.08158,1.23606,0.6103999999999999,-0.949277355,-0.272887485,-0.12719694
1764511348.9970596,-5.08158,1.23606,0.6103999999999999,-0.949277355,-0.272887485,-0.12719694
1764511349.041475,-5.08158,1.23606,0.6103999999999999,-0.949277355,-0.272887485,-0.12719694
1764511349.041475,-5.08158,1.23606,0.6103999999999999,-0.949277355,-0.272887485,-0.12719694
1764511349.041475,-5.08158,1.23606,0.6103999999999999,-0.949277355,-0.272887485,-0.12719694
1764511349.041475,-5.08158,1.23606,0.6103999999999999,-0.949277355,-0.272887485,-0.12719694
1764511349.041475,-5.08158,1.23606,0.6103999999999999,-0.949277355,-0.272887485,-0.12719694
1764511349.041475,-5.08158,1.23606,0.6103999999999999,-0.949277355,-0.272887485,-0.12719694
1764511349.041475,-4.059159999999999,1.15976,0.79352,-0.949033215,-0.27514578,-0.12744108
1764511349.041475,-4.059159999999999,1.15976,0.79352,-0.949033215,-0.27514578,-0.12744108
1764511349.041475,-4.059159999999999,1.15976,0.79352,-0.949033215,-0.27514578,-0.12744108
1764511349.042489,-4.059159999999999,1.15976,0.79352,-0.949033215,-0.27514578,-0.12744108
1764511349.042489,-4.059159999999999,1.15976,0.79352,-0.949033215,-0.27514578,-0.12744108
1764511349.042489,-4.059159999999999,1.15976,0.79352,-0.949033215,-0.27514578,-0.12744108
1764511349.042489,-4.059159999999999,1.15976,0.79352,-0.949033215,-0.27514578,-0.12744108
1764511349.042489,-4.059159999999999,1.15976,0.79352,-0.949033215,-0.27514578,-0.12744108
1764511349.042489,-4.059159999999999,1.15976,0.79352,-0.949033215,-0.27514578,-0.12744108
1764511349.042489,-4.059159999999999,1.15976,0.79352,-0.949033215,-0.27514578,-0.12744108
1764511349.042489,-3.99812,1.2971,0.763,-0.94946046,-0.275328885,-0.12670866
1764511349.042489,-3.99812,1.2971,0.763,-0.94946046,-0.275328885,-0.12670866
1764511349.042489,-3.99812,1.2971,0.763,-0.94946046,-0.275328885,-0.12670866
1764511349.042489,-3.99812,1.2971,0.763,-0.94946046,-0.275328885,-0.12670866
1764511349.042489,-3.99812,1.2971,0.763,-0.94946046,-0.275328885,-0.12670866
1764511349.042489,-3.99812,1.2971,0.763,-0.94946046,-0.275328885,-0.12670866
1764511349.0430264,-3.99812,1.2971,0.763,-0.94946046,-0.275328885,-0.12670866
1764511349.0430264,-3.99812,1.2971,0.763,-0.94946046,-0.275328885,-0.12670866
1764511349.090919,-3.99812,1.2971,0.763,-0.94946046,-0.275328885,-0.12670866
1764511349.090919,-3.99812,1.2971,0.763,-0.94946046,-0.275328885,-0.12670866
1764511349.090919,-4.51696,1.2055399999999998,0.9156,-0.94921632,-0.27416922,-0.126647625
1764511349.090919,-4.51696,1.2055399999999998,0.9156,-0.94921632,-0.27416922,-0.126647625
1764511349.090919,-4.51696,1.2055399999999998,0.9156,-0.94921632,-0.27416922,-0.126647625
1764511349.090919,-4.51696,1.2055399999999998,0.9156,-0.94921632,-0.27416922,-0.126647625
1764511349.090919,-4.51696,1.2055399999999998,0.9156,-0.94921632,-0.27416922,-0.126647625
1764511349.090919,-4.51696,1.2055399999999998,0.9156,-0.94921632,-0.27416922,-0.126647625
1764511349.090919,-4.51696,1.2055399999999998,0.9156,-0.94921632,-0.27416922,-0.126647625
1764511349.090919,-4.51696,1.2055399999999998,0.9156,-0.94921632,-0.27416922,-0.126647625
1764511349.090919,-4.51696,1.2055399999999998,0.9156,-0.94921632,-0.27416922,-0.126647625
1764511349.090919,-4.51696,1.2055399999999998,0.9156,-0.94921632,-0.27416922,-0.126647625
1764511349.090919,-4.1202,1.34288,0.54936,-0.949399425,-0.272887485,-0.12683073
1764511349.090919,-4.1202,1.34288,0.54936,-0.949399425,-0.272887485,-0.12683073
1764511349.090919,-4.1202,1.34288,0.54936,-0.949399425,-0.272887485,-0.12683073
1764511349.090919,-4.1202,1.34288,0.54936,-0.949399425,-0.272887485,-0.12683073
1764511349.090919,-4.1202,1.34288,0.54936,-0.949399425,-0.272887485,-0.12683073
1764511349.090919,-4.1202,1.34288,0.54936,-0.949399425,-0.272887485,-0.12683073
1764511349.090919,-4.1202,1.34288,0.54936,-0.949399425,-0.272887485,-0.12683073
1764511349.090919,-4.1202,1.34288,0.54936,-0.949399425,-0.272887485,-0.12683073
1764511349.090919,-4.1202,1.34288,0.54936,-0.949399425,-0.272887485,-0.12683073
1764511349.090919,-4.1202,1.34288,0.54936,-0.949399425,-0.272887485,-0.12683073
1764511349.135859,-5.0358,1.31236,0.10682,-0.950742195,-0.27136161,-0.127624185
1764511349.135859,-5.0358,1.31236,0.10682,-0.950742195,-0.27136161,-0.127624185
1764511349.135859,-5.0358,1.31236,0.10682,-0.950742195,-0.27136161,-0.127624185
1764511349.135859,-5.0358,1.31236,0.10682,-0.950742195,-0.27136161,-0.127624185
1764511349.135859,-5.0358,1.31236,0.10682,-0.950742195,-0.27136161,-0.127624185
1764511349.135859,-5.0358,1.31236,0.10682,-0.950742195,-0.27136161,-0.127624185
1764511349.135859,-5.0358,1.31236,0.10682,-0.950742195,-0.27136161,-0.127624185
1764511349.135859,-5.0358,1.31236,0.10682,-0.950742195,-0.27136161,-0.127624185
1764511349.135859,-5.0358,1.31236,0.10682,-0.950742195,-0.27136161,-0.127624185
1764511349.1368723,-5.0358,1.31236,0.10682,-0.950742195,-0.27136161,-0.127624185
1764511349.1368723,-5.98192,1.1445,0.21364,-0.949765635,-0.27087333,-0.12780729
1764511349.1368723,-5.98192,1.1445,0.21364,-0.949765635,-0.27087333,-0.12780729
1764511349.1368723,-5.98192,1.1445,0.21364,-0.949765635,-0.27087333,-0.12780729
1764511349.1368723,-5.98192,1.1445,0.21364,-0.949765635,-0.27087333,-0.12780729
1764511349.1368723,-5.98192,1.1445,0.21364,-0.949765635,-0.27087333,-0.12780729
1764511349.1368723,-5.98192,1.1445,0.21364,-0.949765635,-0.27087333,-0.12780729
1764511349.137888,-5.98192,1.1445,0.21364,-0.949765635,-0.27087333,-0.12780729
1764511349.137888,-5.98192,1.1445,0.21364,-0.949765635,-0.27087333,-0.12780729
1764511349.137888,-5.98192,1.1445,0.21364,-0.949765635,-0.27087333,-0.12780729
1764511349.137888,-5.98192,1.1445,0.21364,-0.949765635,-0.27087333,-0.12780729
1764511349.137888,-3.815,0.9156,0.73248,-0.949155285,-0.272521275,-0.1269528
1764511349.1388876,-3.815,0.9156,0.73248,-0.949155285,-0.272521275,-0.1269528
1764511349.1388876,-3.815,0.9156,0.73248,-0.949155285,-0.272521275,-0.1269528
1764511349.1388876,-3.815,0.9156,0.73248,-0.949155285,-0.272521275,-0.1269528
1764511349.1804595,-3.815,0.9156,0.73248,-0.949155285,-0.272521275,-0.1269528
1764511349.1804595,-3.815,0.9156,0.73248,-0.949155285,-0.272521275,-0.1269528
1764511349.1804595,-3.815,0.9156,0.73248,-0.949155285,-0.272521275,-0.1269528
1764511349.1804595,-3.815,0.9156,0.73248,-0.949155285,-0.272521275,-0.1269528
1764511349.1814718,-3.815,0.9156,0.73248,-0.949155285,-0.272521275,-0.1269528
1764511349.1814718,-3.815,0.9156,0.73248,-0.949155285,-0.272521275,-0.1269528
1764511349.1814718,-2.35004,1.17502,0.28994,-0.949765635,-0.275328885,-0.126525555
1764511349.1814718,-2.35004,1.17502,0.28994,-0.949765635,-0.275328885,-0.126525555
1764511349.1814718,-2.35004,1.17502,0.28994,-0.949765635,-0.275328885,-0.126525555
1764511349.1814718,-2.35004,1.17502,0.28994,-0.949765635,-0.275328885,-0.126525555
1764511349.1830058,-2.35004,1.17502,0.28994,-0.949765635,-0.275328885,-0.126525555
1764511349.1830058,-2.35004,1.17502,0.28994,-0.949765635,-0.275328885,-0.126525555
1764511349.1850286,-2.35004,1.17502,0.28994,-0.949765635,-0.275328885,-0.126525555
1764511349.1850286,-2.35004,1.17502,0.28994,-0.949765635,-0.275328885,-0.126525555
1764511349.1850286,-2.35004,1.17502,0.28994,-0.949765635,-0.275328885,-0.126525555
1764511349.1850286,-2.35004,1.17502,0.28994,-0.949765635,-0.275328885,-0.126525555
1764511349.1850286,-3.00622,1.526,1.12924,-0.948911145,-0.275328885,-0.125793135
1764511349.1860478,-3.00622,1.526,1.12924,-0.948911145,-0.275328885,-0.125793135
1764511349.1860478,-3.00622,1.526,1.12924,-0.948911145,-0.275328885,-0.125793135
1764511349.1860478,-3.00622,1.526,1.12924,-0.948911145,-0.275328885,-0.125793135
1764511349.1860478,-3.00622,1.526,1.12924,-0.948911145,-0.275328885,-0.125793135
1764511349.1860478,-3.00622,1.526,1.12924,-0.948911145,-0.275328885,-0.125793135
1764511349.2313974,-3.00622,1.526,1.12924,-0.948911145,-0.275328885,-0.125793135
1764511349.2313974,-3.00622,1.526,1.12924,-0.948911145,-0.275328885,-0.125793135
1764511349.2313974,-3.00622,1.526,1.12924,-0.948911145,-0.275328885,-0.125793135
1764511349.2313974,-3.00622,1.526,1.12924,-0.948911145,-0.275328885,-0.125793135
1764511349.2313974,-4.36436,1.77016,0.56462,-0.948422865,-0.271422645,-0.12609831
1764511349.2313974,-4.36436,1.77016,0.56462,-0.948422865,-0.271422645,-0.12609831
1764511349.2313974,-4.36436,1.77016,0.56462,-0.948422865,-0.271422645,-0.12609831
1764511349.2313974,-4.36436,1.77016,0.56462,-0.948422865,-0.271422645,-0.12609831
1764511349.2313974,-4.36436,1.77016,0.56462,-0.948422865,-0.271422645,-0.12609831
1764511349.2313974,-4.36436,1.77016,0.56462,-0.948422865,-0.271422645,-0.12609831
1764511349.2313974,-4.36436,1.77016,0.56462,-0.948422865,-0.271422645,-0.12609831
1764511349.2313974,-4.36436,1.77016,0.56462,-0.948422865,-0.271422645,-0.12609831
1764511349.2313974,-4.36436,1.77016,0.56462,-0.948422865,-0.271422645,-0.12609831
1764511349.2313974,-4.36436,1.77016,0.56462,-0.948422865,-0.271422645,-0.12609831
1764511349.2313974,-4.8069,1.05294,-0.09156,-0.94994874,-0.269591595,-0.127746255
1764511349.2313974,-4.8069,1.05294,-0.09156,-0.94994874,-0.269591595,-0.127746255
1764511349.2313974,-4.8069,1.05294,-0.09156,-0.94994874,-0.269591595,-0.127746255
1764511349.2313974,-4.8069,1.05294,-0.09156,-0.94994874,-0.269591595,-0.127746255
1764511349.2323978,-4.8069,1.05294,-0.09156,-0.94994874,-0.269591595,-0.127746255
1764511349.2323978,-4.8069,1.05294,-0.09156,-0.94994874,-0.269591595,-0.127746255
1764511349.2323978,-4.8069,1.05294,-0.09156,-0.94994874,-0.269591595,-0.127746255
1764511349.2323978,-4.8069,1.05294,-0.09156,-0.94994874,-0.269591595,-0.127746255
1764511349.2323978,-4.8069,1.05294,-0.09156,-0.94994874,-0.269591595,-0.127746255
1764511349.2323978,-4.8069,1.05294,-0.09156,-0.94994874,-0.269591595,-0.127746255
1764511349.2766066,-4.76112,0.4578,-0.04578,-0.9509253,-0.270690225,-0.12951627
1764511349.2766066,-4.76112,0.4578,-0.04578,-0.9509253,-0.270690225,-0.12951627
1764511349.2766066,-4.76112,0.4578,-0.04578,-0.9509253,-0.270690225,-0.12951627
1764511349.2766066,-4.76112,0.4578,-0.04578,-0.9509253,-0.270690225,-0.12951627
1764511349.2766066,-4.76112,0.4578,-0.04578,-0.9509253,-0.270690225,-0.12951627
1764511349.2766066,-4.76112,0.4578,-0.04578,-0.9509253,-0.270690225,-0.12951627
1764511349.2766066,-4.76112,0.4578,-0.04578,-0.9509253,-0.270690225,-0.12951627
1764511349.2766066,-4.76112,0.4578,-0.04578,-0.9509253,-0.270690225,-0.12951627
1764511349.2766066,-4.76112,0.4578,-0.04578,-0.9509253,-0.270690225,-0.12951627
1764511349.2766066,-4.76112,0.4578,-0.04578,-0.9509253,-0.270690225,-0.12951627
1764511349.2766066,-4.3491,1.35814,0.3357199999999999,-0.94958253,-0.27307059,-0.129455235
1764511349.2766066,-4.3491,1.35814,0.3357199999999999,-0.94958253,-0.27307059,-0.129455235
1764511349.2766066,-4.3491,1.35814,0.3357199999999999,-0.94958253,-0.27307059,-0.129455235
1764511349.2766066,-4.3491,1.35814,0.3357199999999999,-0.94958253,-0.27307059,-0.129455235
1764511349.2776074,-4.3491,1.35814,0.3357199999999999,-0.94958253,-0.27307059,-0.129455235
1764511349.2776074,-4.3491,1.35814,0.3357199999999999,-0.94958253,-0.27307059,-0.129455235
1764511349.2776074,-4.3491,1.35814,0.3357199999999999,-0.94958253,-0.27307059,-0.129455235
1764511349.2776074,-4.3491,1.35814,0.3357199999999999,-0.94958253,-0.27307059,-0.129455235
1764511349.2776074,-4.3491,1.35814,0.3357199999999999,-0.94958253,-0.27307059,-0.129455235
1764511349.2776074,-4.3491,1.35814,0.3357199999999999,-0.94958253,-0.27307059,-0.129455235
1764511349.2776074,-3.2046,1.77016,1.19028,-0.94872804,-0.27477957,-0.12658659
1764511349.2776074,-3.2046,1.77016,1.19028,-0.94872804,-0.27477957,-0.12658659
1764511349.2776074,-3.2046,1.77016,1.19028,-0.94872804,-0.27477957,-0.12658659
1764511349.2776074,-3.2046,1.77016,1.19028,-0.94872804,-0.27477957,-0.12658659
1764511349.3244743,-3.2046,1.77016,1.19028,-0.94872804,-0.27477957,-0.12658659
1764511349.3244743,-3.2046,1.77016,1.19028,-0.94872804,-0.27477957,-0.12658659
1764511349.3244743,-3.2046,1.77016,1.19028,-0.94872804,-0.27477957,-0.12658659
1764511349.3249805,-3.2046,1.77016,1.19028,-0.94872804,-0.27477957,-0.12658659
1764511349.3249805,-3.2046,1.77016,1.19028,-0.94872804,-0.27477957,-0.12658659
1764511349.3249805,-3.2046,1.77016,1.19028,-0.94872804,-0.27477957,-0.12658659
1764511349.3249805,-2.4416,1.58704,0.93086,-0.94872804,-0.274962675,-0.126281415
1764511349.3249805,-2.4416,1.58704,0.93086,-0.94872804,-0.274962675,-0.126281415
1764511349.3249805,-2.4416,1.58704,0.93086,-0.94872804,-0.274962675,-0.126281415
1764511349.3249805,-2.4416,1.58704,0.93086,-0.94872804,-0.274962675,-0.126281415
1764511349.3249805,-2.4416,1.58704,0.93086,-0.94872804,-0.274962675,-0.126281415
1764511349.3249805,-2.4416,1.58704,0.93086,-0.94872804,-0.274962675,-0.126281415
1764511349.3249805,-2.4416,1.58704,0.93086,-0.94872804,-0.274962675,-0.126281415
1764511349.3249805,-2.4416,1.58704,0.93086,-0.94872804,-0.274962675,-0.126281415
1764511349.3249805,-2.4416,1.58704,0.93086,-0.94872804,-0.274962675,-0.126281415
1764511349.3249805,-2.4416,1.58704,0.93086,-0.94872804,-0.274962675,-0.126281415
1764511349.3249805,-3.18934,1.4039199999999998,0.36624,-0.9497046,-0.272887485,-0.127135905
1764511349.3249805,-3.18934,1.4039199999999998,0.36624,-0.9497046,-0.272887485,-0.127135905
1764511349.3249805,-3.18934,1.4039199999999998,0.36624,-0.9497046,-0.272887485,-0.127135905
1764511349.3249805,-3.18934,1.4039199999999998,0.36624,-0.9497046,-0.272887485,-0.127135905
1764511349.3690038,-3.18934,1.4039199999999998,0.36624,-0.9497046,-0.272887485,-0.127135905
1764511349.3690038,-3.18934,1.4039199999999998,0.36624,-0.9497046,-0.272887485,-0.127135905
1764511349.3690038,-3.18934,1.4039199999999998,0.36624,-0.9497046,-0.272887485,-0.127135905
1764511349.3695674,-3.18934,1.4039199999999998,0.36624,-0.9497046,-0.272887485,-0.127135905
1764511349.3695674,-3.18934,1.4039199999999998,0.36624,-0.9497046,-0.272887485,-0.127135905
1764511349.3695674,-3.18934,1.4039199999999998,0.36624,-0.9497046,-0.272887485,-0.127135905
1764511349.3695674,-4.3491,0.96138,0.04578,-0.95019288,-0.270934365,-0.12792936
1764511349.3695674,-4.3491,0.96138,0.04578,-0.95019288,-0.270934365,-0.12792936
1764511349.3695674,-4.3491,0.96138,0.04578,-0.95019288,-0.270934365,-0.12792936
1764511349.3695674,-4.3491,0.96138,0.04578,-0.95019288,-0.270934365,-0.12792936
1764511349.3695674,-4.3491,0.96138,0.04578,-0.95019288,-0.270934365,-0.12792936
1764511349.3695674,-4.3491,0.96138,0.04578,-0.95019288,-0.270934365,-0.12792936
1764511349.3695674,-4.3491,0.96138,0.04578,-0.95019288,-0.270934365,-0.12792936
1764511349.3695674,-4.3491,0.96138,0.04578,-0.95019288,-0.270934365,-0.12792936
1764511349.3695674,-4.3491,0.96138,0.04578,-0.95019288,-0.270934365,-0.12792936
1764511349.3695674,-4.3491,0.96138,0.04578,-0.95019288,-0.270934365,-0.12792936
1764511349.3695674,-5.340999999999999,1.35814,0.3204599999999999,-0.94982667,-0.271300575,-0.12756315
1764511349.3695674,-5.340999999999999,1.35814,0.3204599999999999,-0.94982667,-0.271300575,-0.12756315
1764511349.3695674,-5.340999999999999,1.35814,0.3204599999999999,-0.94982667,-0.271300575,-0.12756315
1764511349.3695674,-5.340999999999999,1.35814,0.3204599999999999,-0.94982667,-0.271300575,-0.12756315
1764511349.3695674,-5.340999999999999,1.35814,0.3204599999999999,-0.94982667,-0.271300575,-0.12756315
1764511349.3695674,-5.340999999999999,1.35814,0.3204599999999999,-0.94982667,-0.271300575,-0.12756315
1764511349.3695674,-5.340999999999999,1.35814,0.3204599999999999,-0.94982667,-0.271300575,-0.12756315
1764511349.3695674,-5.340999999999999,1.35814,0.3204599999999999,-0.94982667,-0.271300575,-0.12756315
1764511349.3695674,-5.340999999999999,1.35814,0.3204599999999999,-0.94982667,-0.271300575,-0.12756315
1764511349.3695674,-5.340999999999999,1.35814,0.3204599999999999,-0.94982667,-0.271300575,-0.12756315
1764511349.4131246,-5.096839999999999,1.526,0.19838,-0.94958253,-0.272399205,-0.12658659
1764511349.4131246,-5.096839999999999,1.526,0.19838,-0.94958253,-0.272399205,-0.12658659
1764511349.4131246,-5.096839999999999,1.526,0.19838,-0.94958253,-0.272399205,-0.12658659
1764511349.413637,-5.096839999999999,1.526,0.19838,-0.94958253,-0.272399205,-0.12658659
1764511349.413637,-5.096839999999999,1.526,0.19838,-0.94958253,-0.272399205,-0.12658659
1764511349.413637,-5.096839999999999,1.526,0.19838,-0.94958253,-0.272399205,-0.12658659
1764511349.413637,-5.096839999999999,1.526,0.19838,-0.94958253,-0.272399205,-0.12658659
1764511349.413637,-5.096839999999999,1.526,0.19838,-0.94958253,-0.272399205,-0.12658659
1764511349.413637,-5.096839999999999,1.526,0.19838,-0.94958253,-0.272399205,-0.12658659
1764511349.413637,-5.096839999999999,1.526,0.19838,-0.94958253,-0.272399205,-0.12658659
1764511349.413637,-4.18124,1.43444,0.51884,-0.948911145,-0.27331473,-0.126891765
1764511349.413637,-4.18124,1.43444,0.51884,-0.948911145,-0.27331473,-0.126891765
1764511349.413637,-4.18124,1.43444,0.51884,-0.948911145,-0.27331473,-0.126891765
1764511349.413637,-4.18124,1.43444,0.51884,-0.948911145,-0.27331473,-0.126891765
1764511349.413637,-4.18124,1.43444,0.51884,-0.948911145,-0.27331473,-0.126891765
1764511349.413637,-4.18124,1.43444,0.51884,-0.948911145,-0.27331473,-0.126891765
1764511349.4146538,-4.18124,1.43444,0.51884,-0.948911145,-0.27331473,-0.126891765
1764511349.4146538,-4.18124,1.43444,0.51884,-0.948911145,-0.27331473,-0.126891765
1764511349.4146538,-4.18124,1.43444,0.51884,-0.948911145,-0.27331473,-0.126891765
1764511349.4146538,-4.18124,1.43444,0.51884,-0.948911145,-0.27331473,-0.126891765
1764511349.4146538,-3.41824,0.763,0.47306,-0.950009775,-0.27416922,-0.12719694
1764511349.4146538,-3.41824,0.763,0.47306,-0.950009775,-0.27416922,-0.12719694
1764511349.4623363,-3.41824,0.763,0.47306,-0.950009775,-0.27416922,-0.12719694
1764511349.4633503,-3.41824,0.763,0.47306,-0.950009775,-0.27416922,-0.12719694
1764511349.4633503,-3.41824,0.763,0.47306,-0.950009775,-0.27416922,-0.12719694
1764511349.463858,-3.41824,0.763,0.47306,-0.950009775,-0.27416922,-0.12719694
1764511349.463858,-3.41824,0.763,0.47306,-0.950009775,-0.27416922,-0.12719694
1764511349.463858,-3.41824,0.763,0.47306,-0.950009775,-0.27416922,-0.12719694
1764511349.463858,-3.41824,0.763,0.47306,-0.950009775,-0.27416922,-0.12719694
1764511349.464871,-3.41824,0.763,0.47306,-0.950009775,-0.27416922,-0.12719694
1764511349.464871,-2.79258,1.05294,0.79352,-0.949643565,-0.27441336,-0.12683073
1764511349.464871,-2.79258,1.05294,0.79352,-0.949643565,-0.27441336,-0.12683073
1764511349.464871,-2.79258,1.05294,0.79352,-0.949643565,-0.27441336,-0.12683073
1764511349.464871,-2.79258,1.05294,0.79352,-0.949643565,-0.27441336,-0.12683073
1764511349.4658792,-2.79258,1.05294,0.79352,-0.949643565,-0.27441336,-0.12683073
1764511349.4658792,-2.79258,1.05294,0.79352,-0.949643565,-0.27441336,-0.12683073
1764511349.4658792,-2.79258,1.05294,0.79352,-0.949643565,-0.27441336,-0.12683073
1764511349.4658792,-2.79258,1.05294,0.79352,-0.949643565,-0.27441336,-0.12683073
1764511349.4658792,-2.79258,1.05294,0.79352,-0.949643565,-0.27441336,-0.12683073
1764511349.4658792,-2.79258,1.05294,0.79352,-0.949643565,-0.27441336,-0.12683073
1764511349.4668715,-3.052,1.61756,0.9156,-0.9484839,-0.272399205,-0.125793135
1764511349.4668715,-3.052,1.61756,0.9156,-0.9484839,-0.272399205,-0.125793135
1764511349.4668715,-3.052,1.61756,0.9156,-0.9484839,-0.272399205,-0.125793135
1764511349.4668715,-3.052,1.61756,0.9156,-0.9484839,-0.272399205,-0.125793135
1764511349.4668715,-3.052,1.61756,0.9156,-0.9484839,-0.272399205,-0.125793135
1764511349.4668715,-3.052,1.61756,0.9156,-0.9484839,-0.272399205,-0.125793135
1764511349.5072317,-3.052,1.61756,0.9156,-0.9484839,-0.272399205,-0.125793135
1764511349.5072317,-3.052,1.61756,0.9156,-0.9484839,-0.272399205,-0.125793135
1764511349.5082626,-3.052,1.61756,0.9156,-0.9484839,-0.272399205,-0.125793135
1764511349.5082626,-3.052,1.61756,0.9156,-0.9484839,-0.272399205,-0.125793135
1764511349.5082626,-4.1202,2.01432,-0.41202,-0.94872804,-0.27160575,-0.126647625
1764511349.5082626,-4.1202,2.01432,-0.41202,-0.94872804,-0.27160575,-0.126647625
1764511349.5082626,-4.1202,2.01432,-0.41202,-0.94872804,-0.27160575,-0.126647625
1764511349.5082626,-4.1202,2.01432,-0.41202,-0.94872804,-0.27160575,-0.126647625
1764511349.5082626,-4.1202,2.01432,-0.41202,-0.94872804,-0.27160575,-0.126647625
1764511349.5082626,-4.1202,2.01432,-0.41202,-0.94872804,-0.27160575,-0.126647625
1764511349.5082626,-4.1202,2.01432,-0.41202,-0.94872804,-0.27160575,-0.126647625
1764511349.5082626,-4.1202,2.01432,-0.41202,-0.94872804,-0.27160575,-0.126647625
1764511349.5082626,-4.1202,2.01432,-0.41202,-0.94872804,-0.27160575,-0.126647625
1764511349.5082626,-4.1202,2.01432,-0.41202,-0.94872804,-0.27160575,-0.126647625
1764511349.5082626,-4.01338,1.32762,-0.97664,-0.95068116,-0.27136161,-0.127990395
1764511349.5082626,-4.01338,1.32762,-0.97664,-0.95068116,-0.27136161,-0.127990395
1764511349.5082626,-4.01338,1.32762,-0.97664,-0.95068116,-0.27136161,-0.127990395
1764511349.5082626,-4.01338,1.32762,-0.97664,-0.95068116,-0.27136161,-0.127990395
1764511349.5082626,-4.01338,1.32762,-0.97664,-0.95068116,-0.27136161,-0.127990395
1764511349.5082626,-4.01338,1.32762,-0.97664,-0.95068116,-0.27136161,-0.127990395
1764511349.5082626,-4.01338,1.32762,-0.97664,-0.95068116,-0.27136161,-0.127990395
1764511349.5082626,-4.01338,1.32762,-0.97664,-0.95068116,-0.27136161,-0.127990395
1764511349.508772,-4.01338,1.32762,-0.97664,-0.95068116,-0.27136161,-0.127990395
1764511349.508772,-4.01338,1.32762,-0.97664,-0.95068116,-0.27136161,-0.127990395
1764511349.551754,-3.90656,1.2208,-0.48832,-0.950253915,-0.271910925,-0.128844885
1764511349.551754,-3.90656,1.2208,-0.48832,-0.950253915,-0.271910925,-0.128844885
1764511349.551754,-3.90656,1.2208,-0.48832,-0.950253915,-0.271910925,-0.128844885
1764511349.551754,-3.90656,1.2208,-0.48832,-0.950253915,-0.271910925,-0.128844885
1764511349.551754,-3.90656,1.2208,-0.48832,-0.950253915,-0.271910925,-0.128844885
1764511349.551754,-3.90656,1.2208,-0.48832,-0.950253915,-0.271910925,-0.128844885
1764511349.551754,-3.90656,1.2208,-0.48832,-0.950253915,-0.271910925,-0.128844885
1764511349.551754,-3.90656,1.2208,-0.48832,-0.950253915,-0.271910925,-0.128844885
1764511349.551754,-3.90656,1.2208,-0.48832,-0.950253915,-0.271910925,-0.128844885
1764511349.551754,-3.90656,1.2208,-0.48832,-0.950253915,-0.271910925,-0.128844885
1764511349.551754,-3.93708,1.46496,0.7019599999999999,-0.948667005,-0.273986115,-0.128478675
1764511349.551754,-3.93708,1.46496,0.7019599999999999,-0.948667005,-0.273986115,-0.128478675
1764511349.551754,-3.93708,1.46496,0.7019599999999999,-0.948667005,-0.273986115,-0.128478675
1764511349.551754,-3.93708,1.46496,0.7019599999999999,-0.948667005,-0.273986115,-0.128478675
1764511349.551754,-3.93708,1.46496,0.7019599999999999,-0.948667005,-0.273986115,-0.128478675
1764511349.551754,-3.93708,1.46496,0.7019599999999999,-0.948667005,-0.273986115,-0.128478675
1764511349.551754,-3.93708,1.46496,0.7019599999999999,-0.948667005,-0.273986115,-0.128478675
1764511349.551754,-3.93708,1.46496,0.7019599999999999,-0.948667005,-0.273986115,-0.128478675
1764511349.551754,-3.93708,1.46496,0.7019599999999999,-0.948667005,-0.273986115,-0.128478675
1764511349.551754,-3.93708,1.46496,0.7019599999999999,-0.948667005,-0.273986115,-0.128478675
1764511349.551754,-3.8913,1.86172,1.34288,-0.94775148,-0.27563406,-0.127502115
1764511349.553431,-3.8913,1.86172,1.34288,-0.94775148,-0.27563406,-0.127502115
1764511349.6032968,-3.8913,1.86172,1.34288,-0.94775148,-0.27563406,-0.127502115
1764511349.6032968,-3.8913,1.86172,1.34288,-0.94775148,-0.27563406,-0.127502115
1764511349.6032968,-3.8913,1.86172,1.34288,-0.94775148,-0.27563406,-0.127502115
1764511349.6032968,-3.8913,1.86172,1.34288,-0.94775148,-0.27563406,-0.127502115
1764511349.6032968,-3.8913,1.86172,1.34288,-0.94775148,-0.27563406,-0.127502115
1764511349.6032968,-3.8913,1.86172,1.34288,-0.94775148,-0.27563406,-0.127502115
1764511349.6032968,-3.8913,1.86172,1.34288,-0.94775148,-0.27563406,-0.127502115
1764511349.6032968,-3.8913,1.86172,1.34288,-0.94775148,-0.27563406,-0.127502115
1764511349.6032968,-2.99096,1.61756,0.54936,-0.948300795,-0.27477957,-0.12597624
1764511349.6032968,-2.99096,1.61756,0.54936,-0.948300795,-0.27477957,-0.12597624
1764511349.6032968,-2.99096,1.61756,0.54936,-0.948300795,-0.27477957,-0.12597624
1764511349.6032968,-2.99096,1.61756,0.54936,-0.948300795,-0.27477957,-0.12597624
1764511349.6032968,-2.99096,1.61756,0.54936,-0.948300795,-0.27477957,-0.12597624
1764511349.6032968,-2.99096,1.61756,0.54936,-0.948300795,-0.27477957,-0.12597624
1764511349.6032968,-2.99096,1.61756,0.54936,-0.948300795,-0.27477957,-0.12597624
1764511349.6032968,-2.99096,1.61756,0.54936,-0.948300795,-0.27477957,-0.12597624
1764511349.6032968,-2.99096,1.61756,0.54936,-0.948300795,-0.27477957,-0.12597624
1764511349.6032968,-2.99096,1.61756,0.54936,-0.948300795,-0.27477957,-0.12597624
1764511349.6032968,-3.17408,1.69386,0.1525999999999999,-0.949399425,-0.273009555,-0.12609831
1764511349.6032968,-3.17408,1.69386,0.1525999999999999,-0.949399425,-0.273009555,-0.12609831
1764511349.6032968,-3.17408,1.69386,0.1525999999999999,-0.949399425,-0.273009555,-0.12609831
1764511349.6032968,-3.17408,1.69386,0.1525999999999999,-0.949399425,-0.273009555,-0.12609831
1764511349.6043136,-3.17408,1.69386,0.1525999999999999,-0.949399425,-0.273009555,-0.12609831
1764511349.6043136,-3.17408,1.69386,0.1525999999999999,-0.949399425,-0.273009555,-0.12609831
1764511349.648878,-3.17408,1.69386,0.1525999999999999,-0.949399425,-0.273009555,-0.12609831
1764511349.648878,-3.17408,1.69386,0.1525999999999999,-0.949399425,-0.273009555,-0.12609831
1764511349.648878,-3.17408,1.69386,0.1525999999999999,-0.949399425,-0.273009555,-0.12609831
1764511349.6498785,-3.17408,1.69386,0.1525999999999999,-0.949399425,-0.273009555,-0.12609831
1764511349.6498785,-4.86794,1.1445,0.3204599999999999,-0.95043702,-0.271178505,-0.12719694
1764511349.6498785,-4.86794,1.1445,0.3204599999999999,-0.95043702,-0.271178505,-0.12719694
1764511349.6498785,-4.86794,1.1445,0.3204599999999999,-0.95043702,-0.271178505,-0.12719694
1764511349.6508772,-4.86794,1.1445,0.3204599999999999,-0.95043702,-0.271178505,-0.12719694
1764511349.6508772,-4.86794,1.1445,0.3204599999999999,-0.95043702,-0.271178505,-0.12719694
1764511349.6508772,-4.86794,1.1445,0.3204599999999999,-0.95043702,-0.271178505,-0.12719694
1764511349.6508772,-4.86794,1.1445,0.3204599999999999,-0.95043702,-0.271178505,-0.12719694
1764511349.6508772,-4.86794,1.1445,0.3204599999999999,-0.95043702,-0.271178505,-0.12719694
1764511349.6508772,-4.86794,1.1445,0.3204599999999999,-0.95043702,-0.271178505,-0.12719694
1764511349.6508772,-4.86794,1.1445,0.3204599999999999,-0.95043702,-0.271178505,-0.12719694
1764511349.6518772,-5.63094,1.55652,0.36624,-0.95055909,-0.270934365,-0.127746255
1764511349.6518772,-5.63094,1.55652,0.36624,-0.95055909,-0.270934365,-0.127746255
1764511349.6518772,-5.63094,1.55652,0.36624,-0.95055909,-0.270934365,-0.127746255
1764511349.6518772,-5.63094,1.55652,0.36624,-0.95055909,-0.270934365,-0.127746255
1764511349.6518772,-5.63094,1.55652,0.36624,-0.95055909,-0.270934365,-0.127746255
1764511349.6518772,-5.63094,1.55652,0.36624,-0.95055909,-0.270934365,-0.127746255
1764511349.6518772,-5.63094,1.55652,0.36624,-0.95055909,-0.270934365,-0.127746255
1764511349.6518772,-5.63094,1.55652,0.36624,-0.95055909,-0.270934365,-0.127746255
1764511349.6959877,-5.63094,1.55652,0.36624,-0.95055909,-0.270934365,-0.127746255
1764511349.6959877,-5.63094,1.55652,0.36624,-0.95055909,-0.270934365,-0.127746255
1764511349.6965258,-5.234179999999999,1.6633399999999998,-0.01526,-0.95080323,-0.273009555,-0.127746255
1764511349.6965258,-5.234179999999999,1.6633399999999998,-0.01526,-0.95080323,-0.273009555,-0.127746255
1764511349.6965258,-5.234179999999999,1.6633399999999998,-0.01526,-0.95080323,-0.273009555,-0.127746255
1764511349.6965258,-5.234179999999999,1.6633399999999998,-0.01526,-0.95080323,-0.273009555,-0.127746255
1764511349.6965258,-5.234179999999999,1.6633399999999998,-0.01526,-0.95080323,-0.273009555,-0.127746255
1764511349.6965258,-5.234179999999999,1.6633399999999998,-0.01526,-0.95080323,-0.273009555,-0.127746255
1764511349.6965258,-5.234179999999999,1.6633399999999998,-0.01526,-0.95080323,-0.273009555,-0.127746255
1764511349.6965258,-5.234179999999999,1.6633399999999998,-0.01526,-0.95080323,-0.273009555,-0.127746255
1764511349.6965258,-5.234179999999999,1.6633399999999998,-0.01526,-0.95080323,-0.273009555,-0.127746255
1764511349.6965258,-5.234179999999999,1.6633399999999998,-0.01526,-0.95080323,-0.273009555,-0.127746255
1764511349.6965258,-4.6543,1.57178,0.1525999999999999,-0.95043702,-0.273619905,-0.127257975
1764511349.6965258,-4.6543,1.57178,0.1525999999999999,-0.95043702,-0.273619905,-0.127257975
1764511349.6965258,-4.6543,1.57178,0.1525999999999999,-0.95043702,-0.273619905,-0.127257975
1764511349.6965258,-4.6543,1.57178,0.1525999999999999,-0.95043702,-0.273619905,-0.127257975
1764511349.6965258,-4.6543,1.57178,0.1525999999999999,-0.95043702,-0.273619905,-0.127257975
1764511349.6965258,-4.6543,1.57178,0.1525999999999999,-0.95043702,-0.273619905,-0.127257975
1764511349.6965258,-4.6543,1.57178,0.1525999999999999,-0.95043702,-0.273619905,-0.127257975
1764511349.6965258,-4.6543,1.57178,0.1525999999999999,-0.95043702,-0.273619905,-0.127257975
1764511349.6965258,-4.6543,1.57178,0.1525999999999999,-0.95043702,-0.273619905,-0.127257975
1764511349.6965258,-4.6543,1.57178,0.1525999999999999,-0.95043702,-0.273619905,-0.127257975
1764511349.6965258,-3.47928,1.43444,0.1525999999999999,-0.948667005,-0.27441336,-0.127624185
1764511349.697544,-3.47928,1.43444,0.1525999999999999,-0.948667005,-0.27441336,-0.127624185
1764511349.7401454,-3.47928,1.43444,0.1525999999999999,-0.948667005,-0.27441336,-0.127624185
1764511349.7401454,-3.47928,1.43444,0.1525999999999999,-0.948667005,-0.27441336,-0.127624185
1764511349.7401454,-3.47928,1.43444,0.1525999999999999,-0.948667005,-0.27441336,-0.127624185
1764511349.7401454,-3.47928,1.43444,0.1525999999999999,-0.948667005,-0.27441336,-0.127624185
1764511349.7401454,-3.47928,1.43444,0.1525999999999999,-0.948667005,-0.27441336,-0.127624185
1764511349.7401454,-3.47928,1.43444,0.1525999999999999,-0.948667005,-0.27441336,-0.127624185
1764511349.7401454,-3.47928,1.43444,0.1525999999999999,-0.948667005,-0.27441336,-0.127624185
1764511349.7401454,-3.47928,1.43444,0.1525999999999999,-0.948667005,-0.27441336,-0.127624185
1764511349.7401454,-3.69292,1.26658,0.48832,-0.948789075,-0.27355887,-0.127257975
1764511349.7401454,-3.69292,1.26658,0.48832,-0.948789075,-0.27355887,-0.127257975
1764511349.7401454,-3.69292,1.26658,0.48832,-0.948789075,-0.27355887,-0.127257975
1764511349.7401454,-3.69292,1.26658,0.48832,-0.948789075,-0.27355887,-0.127257975
1764511349.7401454,-3.69292,1.26658,0.48832,-0.948789075,-0.27355887,-0.127257975
1764511349.7401454,-3.69292,1.26658,0.48832,-0.948789075,-0.27355887,-0.127257975
1764511349.7401454,-3.69292,1.26658,0.48832,-0.948789075,-0.27355887,-0.127257975
1764511349.7401454,-3.69292,1.26658,0.48832,-0.948789075,-0.27355887,-0.127257975
1764511349.7401454,-3.69292,1.26658,0.48832,-0.948789075,-0.27355887,-0.127257975
1764511349.7401454,-3.69292,1.26658,0.48832,-0.948789075,-0.27355887,-0.127257975
1764511349.7401454,-4.70008,1.19028,0.4578,-0.94823976,-0.2722161,-0.12756315
1764511349.7420237,-4.70008,1.19028,0.4578,-0.94823976,-0.2722161,-0.12756315
1764511349.7420237,-4.70008,1.19028,0.4578,-0.94823976,-0.2722161,-0.12756315
1764511349.7420237,-4.70008,1.19028,0.4578,-0.94823976,-0.2722161,-0.12756315
1764511349.7420237,-4.70008,1.19028,0.4578,-0.94823976,-0.2722161,-0.12756315
1764511349.7420237,-4.70008,1.19028,0.4578,-0.94823976,-0.2722161,-0.12756315
1764511349.7898114,-4.70008,1.19028,0.4578,-0.94823976,-0.2722161,-0.12756315
1764511349.7898114,-4.70008,1.19028,0.4578,-0.94823976,-0.2722161,-0.12756315
1764511349.7898114,-4.70008,1.19028,0.4578,-0.94823976,-0.2722161,-0.12756315
1764511349.790816,-4.70008,1.19028,0.4578,-0.94823976,-0.2722161,-0.12756315
1764511349.790816,-5.4173,1.23606,0.41202,-0.949033215,-0.27123954,-0.127257975
1764511349.790816,-5.4173,1.23606,0.41202,-0.949033215,-0.27123954,-0.127257975
1764511349.790816,-5.4173,1.23606,0.41202,-0.949033215,-0.27123954,-0.127257975
1764511349.790816,-5.4173,1.23606,0.41202,-0.949033215,-0.27123954,-0.127257975
1764511349.790816,-5.4173,1.23606,0.41202,-0.949033215,-0.27123954,-0.127257975
1764511349.790816,-5.4173,1.23606,0.41202,-0.949033215,-0.27123954,-0.127257975
1764511349.790816,-5.4173,1.23606,0.41202,-0.949033215,-0.27123954,-0.127257975
1764511349.790816,-5.4173,1.23606,0.41202,-0.949033215,-0.27123954,-0.127257975
1764511349.790816,-5.4173,1.23606,0.41202,-0.949033215,-0.27123954,-0.127257975
1764511349.790816,-5.4173,1.23606,0.41202,-0.949033215,-0.27123954,-0.127257975
1764511349.790816,-5.66146,0.8087799999999999,0.27468,-0.949155285,-0.27160575,-0.12792936
1764511349.7913294,-5.66146,0.8087799999999999,0.27468,-0.949155285,-0.27160575,-0.12792936
1764511349.7913294,-5.66146,0.8087799999999999,0.27468,-0.949155285,-0.27160575,-0.12792936
1764511349.7913294,-5.66146,0.8087799999999999,0.27468,-0.949155285,-0.27160575,-0.12792936
1764511349.7913294,-5.66146,0.8087799999999999,0.27468,-0.949155285,-0.27160575,-0.12792936
1764511349.7913294,-5.66146,0.8087799999999999,0.27468,-0.949155285,-0.27160575,-0.12792936
1764511349.7913294,-5.66146,0.8087799999999999,0.27468,-0.949155285,-0.27160575,-0.12792936
1764511349.7913294,-5.66146,0.8087799999999999,0.27468,-0.949155285,-0.27160575,-0.12792936
1764511349.7913294,-5.66146,0.8087799999999999,0.27468,-0.949155285,-0.27160575,-0.12792936
1764511349.7913294,-5.66146,0.8087799999999999,0.27468,-0.949155285,-0.27160575,-0.12792936
1764511349.8356397,-5.2647,1.26658,0.6867,-0.94885011,-0.273009555,-0.12853971
1764511349.8356397,-5.2647,1.26658,0.6867,-0.94885011,-0.273009555,-0.12853971
1764511349.8356397,-5.2647,1.26658,0.6867,-0.94885011,-0.273009555,-0.12853971
1764511349.836649,-5.2647,1.26658,0.6867,-0.94885011,-0.273009555,-0.12853971
1764511349.836649,-5.2647,1.26658,0.6867,-0.94885011,-0.273009555,-0.12853971
1764511349.836649,-5.2647,1.26658,0.6867,-0.94885011,-0.273009555,-0.12853971
1764511349.836649,-5.2647,1.26658,0.6867,-0.94885011,-0.273009555,-0.12853971
1764511349.836649,-5.2647,1.26658,0.6867,-0.94885011,-0.273009555,-0.12853971
1764511349.836649,-5.2647,1.26658,0.6867,-0.94885011,-0.273009555,-0.12853971
1764511349.836649,-5.2647,1.26658,0.6867,-0.94885011,-0.273009555,-0.12853971
1764511349.836649,-3.72344,1.3734,0.59514,-0.9484839,-0.27441336,-0.12805143
1764511349.8376482,-3.72344,1.3734,0.59514,-0.9484839,-0.27441336,-0.12805143
1764511349.8376482,-3.72344,1.3734,0.59514,-0.9484839,-0.27441336,-0.12805143
1764511349.8376482,-3.72344,1.3734,0.59514,-0.9484839,-0.27441336,-0.12805143
1764511349.8376482,-3.72344,1.3734,0.59514,-0.9484839,-0.27441336,-0.12805143
1764511349.8376482,-3.72344,1.3734,0.59514,-0.9484839,-0.27441336,-0.12805143
1764511349.8376482,-3.72344,1.3734,0.59514,-0.9484839,-0.27441336,-0.12805143
1764511349.8376482,-3.72344,1.3734,0.59514,-0.9484839,-0.27441336,-0.12805143
1764511349.8376482,-3.72344,1.3734,0.59514,-0.9484839,-0.27441336,-0.12805143
1764511349.8376482,-3.72344,1.3734,0.59514,-0.9484839,-0.27441336,-0.12805143
1764511349.8376482,-3.99812,1.23606,0.50358,-0.94860597,-0.274596465,-0.12756315
1764511349.8376482,-3.99812,1.23606,0.50358,-0.94860597,-0.274596465,-0.12756315
1764511349.8820288,-3.99812,1.23606,0.50358,-0.94860597,-0.274596465,-0.12756315
1764511349.8820288,-3.99812,1.23606,0.50358,-0.94860597,-0.274596465,-0.12756315
1764511349.8820288,-3.99812,1.23606,0.50358,-0.94860597,-0.274596465,-0.12756315
1764511349.8830304,-3.99812,1.23606,0.50358,-0.94860597,-0.274596465,-0.12756315
1764511349.8830304,-3.99812,1.23606,0.50358,-0.94860597,-0.274596465,-0.12756315
1764511349.8830304,-3.99812,1.23606,0.50358,-0.94860597,-0.274596465,-0.12756315
1764511349.8830304,-3.99812,1.23606,0.50358,-0.94860597,-0.274596465,-0.12756315
1764511349.8830304,-3.99812,1.23606,0.50358,-0.94860597,-0.274596465,-0.12756315
1764511349.8830304,-3.72344,1.72438,0.6714399999999999,-0.94885011,-0.273741975,-0.12670866
1764511349.8830304,-3.72344,1.72438,0.6714399999999999,-0.94885011,-0.273741975,-0.12670866
1764511349.8830304,-3.72344,1.72438,0.6714399999999999,-0.94885011,-0.273741975,-0.12670866
1764511349.8830304,-3.72344,1.72438,0.6714399999999999,-0.94885011,-0.273741975,-0.12670866
1764511349.8830304,-3.72344,1.72438,0.6714399999999999,-0.94885011,-0.273741975,-0.12670866
1764511349.8830304,-3.72344,1.72438,0.6714399999999999,-0.94885011,-0.273741975,-0.12670866
1764511349.8835402,-3.72344,1.72438,0.6714399999999999,-0.94885011,-0.273741975,-0.12670866
1764511349.8835402,-3.72344,1.72438,0.6714399999999999,-0.94885011,-0.273741975,-0.12670866
1764511349.8835402,-3.72344,1.72438,0.6714399999999999,-0.94885011,-0.273741975,-0.12670866
1764511349.8835402,-3.72344,1.72438,0.6714399999999999,-0.94885011,-0.273741975,-0.12670866
1764511349.8835402,-3.83026,1.2971,0.28994,-0.949521495,-0.272643345,-0.126525555
1764511349.8835402,-3.83026,1.2971,0.28994,-0.949521495,-0.272643345,-0.126525555
1764511349.8835402,-3.83026,1.2971,0.28994,-0.949521495,-0.272643345,-0.126525555
1764511349.8835402,-3.83026,1.2971,0.28994,-0.949521495,-0.272643345,-0.126525555
1764511349.9293678,-3.83026,1.2971,0.28994,-0.949521495,-0.272643345,-0.126525555
1764511349.9293678,-3.83026,1.2971,0.28994,-0.949521495,-0.272643345,-0.126525555
1764511349.9293678,-3.83026,1.2971,0.28994,-0.949521495,-0.272643345,-0.126525555
1764511349.9293678,-3.83026,1.2971,0.28994,-0.949521495,-0.272643345,-0.126525555
1764511349.9293678,-3.83026,1.2971,0.28994,-0.949521495,-0.272643345,-0.126525555
1764511349.9293678,-3.83026,1.2971,0.28994,-0.949521495,-0.272643345,-0.126525555
1764511349.9293678,-5.52412,1.09872,-0.19838,-0.95019288,-0.27123954,-0.126891765
1764511349.9293678,-5.52412,1.09872,-0.19838,-0.95019288,-0.27123954,-0.126891765
1764511349.9293678,-5.52412,1.09872,-0.19838,-0.95019288,-0.27123954,-0.126891765
1764511349.9293678,-5.52412,1.09872,-0.19838,-0.95019288,-0.27123954,-0.126891765
1764511349.9293678,-5.52412,1.09872,-0.19838,-0.95019288,-0.27123954,-0.126891765
1764511349.9293678,-5.52412,1.09872,-0.19838,-0.95019288,-0.27123954,-0.126891765
1764511349.9293678,-5.52412,1.09872,-0.19838,-0.95019288,-0.27123954,-0.126891765
1764511349.9293678,-5.52412,1.09872,-0.19838,-0.95019288,-0.27123954,-0.126891765
1764511349.9293678,-5.52412,1.09872,-0.19838,-0.95019288,-0.27123954,-0.126891765
1764511349.9293678,-5.52412,1.09872,-0.19838,-0.95019288,-0.27123954,-0.126891765
1764511349.9293678,-6.19556,1.49548,0.3204599999999999,-0.949033215,-0.270690225,-0.127746255
1764511349.9293678,-6.19556,1.49548,0.3204599999999999,-0.949033215,-0.270690225,-0.127746255
1764511349.9293678,-6.19556,1.49548,0.3204599999999999,-0.949033215,-0.270690225,-0.127746255
1764511349.9293678,-6.19556,1.49548,0.3204599999999999,-0.949033215,-0.270690225,-0.127746255
1764511349.9293678,-6.19556,1.49548,0.3204599999999999,-0.949033215,-0.270690225,-0.127746255
1764511349.9293678,-6.19556,1.49548,0.3204599999999999,-0.949033215,-0.270690225,-0.127746255
1764511349.9293678,-6.19556,1.49548,0.3204599999999999,-0.949033215,-0.270690225,-0.127746255
1764511349.930365,-6.19556,1.49548,0.3204599999999999,-0.949033215,-0.270690225,-0.127746255
1764511349.974339,-6.19556,1.49548,0.3204599999999999,-0.949033215,-0.270690225,-0.127746255
1764511349.974339,-6.19556,1.49548,0.3204599999999999,-0.949033215,-0.270690225,-0.127746255
1764511349.974339,-4.10494,1.55652,0.44254,-0.949277355,-0.273253695,-0.126769695
1764511349.974339,-4.10494,1.55652,0.44254,-0.949277355,-0.273253695,-0.126769695
1764511349.974339,-4.10494,1.55652,0.44254,-0.949277355,-0.273253695,-0.126769695
1764511349.9753618,-4.10494,1.55652,0.44254,-0.949277355,-0.273253695,-0.126769695
1764511349.9753618,-4.10494,1.55652,0.44254,-0.949277355,-0.273253695,-0.126769695
1764511349.9753618,-4.10494,1.55652,0.44254,-0.949277355,-0.273253695,-0.126769695
1764511349.9753618,-4.10494,1.55652,0.44254,-0.949277355,-0.273253695,-0.126769695
1764511349.9753618,-4.10494,1.55652,0.44254,-0.949277355,-0.273253695,-0.126769695
1764511349.9753618,-4.10494,1.55652,0.44254,-0.949277355,-0.273253695,-0.126769695
1764511349.9753618,-4.10494,1.55652,0.44254,-0.949277355,-0.273253695,-0.126769695
1764511349.9753618,-3.15882,1.8006799999999998,0.0762999999999999,-0.94921632,-0.275817165,-0.126281415
1764511349.9753618,-3.15882,1.8006799999999998,0.0762999999999999,-0.94921632,-0.275817165,-0.126281415
1764511349.9753618,-3.15882,1.8006799999999998,0.0762999999999999,-0.94921632,-0.275817165,-0.126281415
1764511349.9753618,-3.15882,1.8006799999999998,0.0762999999999999,-0.94921632,-0.275817165,-0.126281415
1764511349.9753618,-3.15882,1.8006799999999998,0.0762999999999999,-0.94921632,-0.275817165,-0.126281415
1764511349.9753618,-3.15882,1.8006799999999998,0.0762999999999999,-0.94921632,-0.275817165,-0.126281415
1764511349.9753618,-3.15882,1.8006799999999998,0.0762999999999999,-0.94921632,-0.275817165,-0.126281415
1764511349.9753618,-3.15882,1.8006799999999998,0.0762999999999999,-0.94921632,-0.275817165,-0.126281415
1764511349.9753618,-3.15882,1.8006799999999998,0.0762999999999999,-0.94921632,-0.275817165,-0.126281415
1764511349.9753618,-3.15882,1.8006799999999998,0.0762999999999999,-0.94921632,-0.275817165,-0.126281415
1764511349.9753618,-4.0439,1.92276,0.763,-0.94860597,-0.274718535,-0.12536589
1764511349.9753618,-4.0439,1.92276,0.763,-0.94860597,-0.274718535,-0.12536589
1764511350.0232348,-4.0439,1.92276,0.763,-0.94860597,-0.274718535,-0.12536589
1764511350.024248,-4.0439,1.92276,0.763,-0.94860597,-0.274718535,-0.12536589
1764511350.024248,-4.0439,1.92276,0.763,-0.94860597,-0.274718535,-0.12536589
1764511350.024248,-4.0439,1.92276,0.763,-0.94860597,-0.274718535,-0.12536589
1764511350.0252512,-4.0439,1.92276,0.763,-0.94860597,-0.274718535,-0.12536589
1764511350.0252512,-4.0439,1.92276,0.763,-0.94860597,-0.274718535,-0.12536589
1764511350.0252512,-4.0439,1.92276,0.763,-0.94860597,-0.274718535,-0.12536589
1764511350.0252512,-4.0439,1.92276,0.763,-0.94860597,-0.274718535,-0.12536589
1764511350.0262723,-5.646199999999999,1.32762,0.19838,-0.949643565,-0.27087333,-0.125671065
1764511350.0262723,-5.646199999999999,1.32762,0.19838,-0.949643565,-0.27087333,-0.125671065
1764511350.0271373,-5.646199999999999,1.32762,0.19838,-0.949643565,-0.27087333,-0.125671065
1764511350.0271373,-5.646199999999999,1.32762,0.19838,-0.949643565,-0.27087333,-0.125671065
1764511350.0271373,-5.646199999999999,1.32762,0.19838,-0.949643565,-0.27087333,-0.125671065
1764511350.0271373,-5.646199999999999,1.32762,0.19838,-0.949643565,-0.27087333,-0.125671065
1764511350.0271373,-5.646199999999999,1.32762,0.19838,-0.949643565,-0.27087333,-0.125671065
1764511350.0271373,-5.646199999999999,1.32762,0.19838,-0.949643565,-0.27087333,-0.125671065
1764511350.0271373,-5.646199999999999,1.32762,0.19838,-0.949643565,-0.27087333,-0.125671065
1764511350.0271373,-5.646199999999999,1.32762,0.19838,-0.949643565,-0.27087333,-0.125671065
1764511350.0271373,-6.28712,1.31236,-0.56462,-0.95116944,-0.27026298,-0.12829557
1764511350.0271373,-6.28712,1.31236,-0.56462,-0.95116944,-0.27026298,-0.12829557
1764511350.0271373,-6.28712,1.31236,-0.56462,-0.95116944,-0.27026298,-0.12829557
1764511350.0271373,-6.28712,1.31236,-0.56462,-0.95116944,-0.27026298,-0.12829557
1764511350.0271373,-6.28712,1.31236,-0.56462,-0.95116944,-0.27026298,-0.12829557
1764511350.0281537,-6.28712,1.31236,-0.56462,-0.95116944,-0.27026298,-0.12829557
1764511350.0682185,-6.28712,1.31236,-0.56462,-0.95116944,-0.27026298,-0.12829557
1764511350.0682185,-6.28712,1.31236,-0.56462,-0.95116944,-0.27026298,-0.12829557
1764511350.0682185,-6.28712,1.31236,-0.56462,-0.95116944,-0.27026298,-0.12829557
1764511350.0682185,-6.28712,1.31236,-0.56462,-0.95116944,-0.27026298,-0.12829557
1764511350.0682185,-6.01244,1.31236,-0.12208,-0.950620125,-0.272155065,-0.1293942
1764511350.0682185,-6.01244,1.31236,-0.12208,-0.950620125,-0.272155065,-0.1293942
1764511350.0682185,-6.01244,1.31236,-0.12208,-0.950620125,-0.272155065,-0.1293942
1764511350.0682185,-6.01244,1.31236,-0.12208,-0.950620125,-0.272155065,-0.1293942
1764511350.0682185,-6.01244,1.31236,-0.12208,-0.950620125,-0.272155065,-0.1293942
1764511350.0682185,-6.01244,1.31236,-0.12208,-0.950620125,-0.272155065,-0.1293942
1764511350.069258,-6.01244,1.31236,-0.12208,-0.950620125,-0.272155065,-0.1293942
1764511350.0712972,-6.01244,1.31236,-0.12208,-0.950620125,-0.272155065,-0.1293942
1764511350.0712972,-6.01244,1.31236,-0.12208,-0.950620125,-0.272155065,-0.1293942
1764511350.0712972,-6.01244,1.31236,-0.12208,-0.950620125,-0.272155065,-0.1293942
1764511350.0712972,-4.77638,1.48022,-0.12208,-0.94933839,-0.27429129,-0.12866178
1764511350.0712972,-4.77638,1.48022,-0.12208,-0.94933839,-0.27429129,-0.12866178
1764511350.0712972,-4.77638,1.48022,-0.12208,-0.94933839,-0.27429129,-0.12866178
1764511350.0712972,-4.77638,1.48022,-0.12208,-0.94933839,-0.27429129,-0.12866178
1764511350.0712972,-4.77638,1.48022,-0.12208,-0.94933839,-0.27429129,-0.12866178
1764511350.0712972,-4.77638,1.48022,-0.12208,-0.94933839,-0.27429129,-0.12866178
1764511350.0712972,-4.77638,1.48022,-0.12208,-0.94933839,-0.27429129,-0.12866178
1764511350.0712972,-4.77638,1.48022,-0.12208,-0.94933839,-0.27429129,-0.12866178
1764511350.0712972,-4.77638,1.48022,-0.12208,-0.94933839,-0.27429129,-0.12866178
1764511350.0712972,-4.77638,1.48022,-0.12208,-0.94933839,-0.27429129,-0.12866178
1764511350.117444,-3.14356,1.84646,0.88508,-0.948300795,-0.27648855,-0.127380045
1764511350.117444,-3.14356,1.84646,0.88508,-0.948300795,-0.27648855,-0.127380045
1764511350.117444,-3.14356,1.84646,0.88508,-0.948300795,-0.27648855,-0.127380045
1764511350.117444,-3.14356,1.84646,0.88508,-0.948300795,-0.27648855,-0.127380045
1764511350.117444,-3.14356,1.84646,0.88508,-0.948300795,-0.27648855,-0.127380045
1764511350.117444,-3.14356,1.84646,0.88508,-0.948300795,-0.27648855,-0.127380045
1764511350.117444,-3.14356,1.84646,0.88508,-0.948300795,-0.27648855,-0.127380045
1764511350.117444,-3.14356,1.84646,0.88508,-0.948300795,-0.27648855,-0.127380045
1764511350.117444,-3.14356,1.84646,0.88508,-0.948300795,-0.27648855,-0.127380045
1764511350.1184435,-3.14356,1.84646,0.88508,-0.948300795,-0.27648855,-0.127380045
1764511350.1184435,-3.31142,1.526,0.8698199999999999,-0.94823976,-0.27514578,-0.127380045
1764511350.1184435,-3.31142,1.526,0.8698199999999999,-0.94823976,-0.27514578,-0.127380045
1764511350.1184435,-3.31142,1.526,0.8698199999999999,-0.94823976,-0.27514578,-0.127380045
1764511350.1184435,-3.31142,1.526,0.8698199999999999,-0.94823976,-0.27514578,-0.127380045
1764511350.1184435,-3.31142,1.526,0.8698199999999999,-0.94823976,-0.27514578,-0.127380045
1764511350.1184435,-3.31142,1.526,0.8698199999999999,-0.94823976,-0.27514578,-0.127380045
1764511350.119443,-3.31142,1.526,0.8698199999999999,-0.94823976,-0.27514578,-0.127380045
1764511350.119443,-3.31142,1.526,0.8698199999999999,-0.94823976,-0.27514578,-0.127380045
1764511350.119443,-3.31142,1.526,0.8698199999999999,-0.94823976,-0.27514578,-0.127380045
1764511350.119443,-3.31142,1.526,0.8698199999999999,-0.94823976,-0.27514578,-0.127380045
1764511350.119443,-4.31858,1.00716,0.0,-0.949765635,-0.272277135,-0.12792936
1764511350.119443,-4.31858,1.00716,0.0,-0.949765635,-0.272277135,-0.12792936
1764511350.119443,-4.31858,1.00716,0.0,-0.949765635,-0.272277135,-0.12792936
1764511350.1204422,-4.31858,1.00716,0.0,-0.949765635,-0.272277135,-0.12792936
1764511350.164886,-4.31858,1.00716,0.0,-0.949765635,-0.272277135,-0.12792936
1764511350.164886,-4.31858,1.00716,0.0,-0.949765635,-0.272277135,-0.12792936
1764511350.164886,-4.31858,1.00716,0.0,-0.949765635,-0.272277135,-0.12792936
1764511350.164886,-4.31858,1.00716,0.0,-0.949765635,-0.272277135,-0.12792936
1764511350.1664004,-4.31858,1.00716,0.0,-0.949765635,-0.272277135,-0.12792936
1764511350.1664004,-4.31858,1.00716,0.0,-0.949765635,-0.272277135,-0.12792936
1764511350.1664004,-5.66146,0.96138,0.24416,-0.949887705,-0.27087333,-0.127868325
1764511350.1664004,-5.66146,0.96138,0.24416,-0.949887705,-0.27087333,-0.127868325
1764511350.1664004,-5.66146,0.96138,0.24416,-0.949887705,-0.27087333,-0.127868325
1764511350.1664004,-5.66146,0.96138,0.24416,-0.949887705,-0.27087333,-0.127868325
1764511350.1664004,-5.66146,0.96138,0.24416,-0.949887705,-0.27087333,-0.127868325
1764511350.1664004,-5.66146,0.96138,0.24416,-0.949887705,-0.27087333,-0.127868325
1764511350.1664004,-5.66146,0.96138,0.24416,-0.949887705,-0.27087333,-0.127868325
1764511350.1664004,-5.66146,0.96138,0.24416,-0.949887705,-0.27087333,-0.127868325
1764511350.1664004,-5.66146,0.96138,0.24416,-0.949887705,-0.27087333,-0.127868325
1764511350.1664004,-5.66146,0.96138,0.24416,-0.949887705,-0.27087333,-0.127868325
1764511350.1664004,-6.4855,1.92276,0.36624,-0.949643565,-0.27172782,-0.12731901
1764511350.1664004,-6.4855,1.92276,0.36624,-0.949643565,-0.27172782,-0.12731901
1764511350.1664004,-6.4855,1.92276,0.36624,-0.949643565,-0.27172782,-0.12731901
1764511350.1664004,-6.4855,1.92276,0.36624,-0.949643565,-0.27172782,-0.12731901
1764511350.1664004,-6.4855,1.92276,0.36624,-0.949643565,-0.27172782,-0.12731901
1764511350.1664004,-6.4855,1.92276,0.36624,-0.949643565,-0.27172782,-0.12731901
1764511350.2103918,-6.4855,1.92276,0.36624,-0.949643565,-0.27172782,-0.12731901
1764511350.2103918,-6.4855,1.92276,0.36624,-0.949643565,-0.27172782,-0.12731901
1764511350.2103918,-6.4855,1.92276,0.36624,-0.949643565,-0.27172782,-0.12731901
1764511350.2103918,-6.4855,1.92276,0.36624,-0.949643565,-0.27172782,-0.12731901
1764511350.2103918,-5.98192,1.64808,-0.03052,-0.94897218,-0.27355887,-0.12731901
1764511350.2103918,-5.98192,1.64808,-0.03052,-0.94897218,-0.27355887,-0.12731901
1764511350.2103918,-5.98192,1.64808,-0.03052,-0.94897218,-0.27355887,-0.12731901
1764511350.2103918,-5.98192,1.64808,-0.03052,-0.94897218,-0.27355887,-0.12731901
1764511350.2103918,-5.98192,1.64808,-0.03052,-0.94897218,-0.27355887,-0.12731901
1764511350.2103918,-5.98192,1.64808,-0.03052,-0.94897218,-0.27355887,-0.12731901
1764511350.2103918,-5.98192,1.64808,-0.03052,-0.94897218,-0.27355887,-0.12731901
1764511350.2103918,-5.98192,1.64808,-0.03052,-0.94897218,-0.27355887,-0.12731901
1764511350.2103918,-5.98192,1.64808,-0.03052,-0.94897218,-0.27355887,-0.12731901
1764511350.2103918,-5.98192,1.64808,-0.03052,-0.94897218,-0.27355887,-0.12731901
1764511350.2103918,-5.08158,2.02958,0.4578,-0.949155285,-0.274108185,-0.12780729
1764511350.2103918,-5.08158,2.02958,0.4578,-0.949155285,-0.274108185,-0.12780729
1764511350.2103918,-5.08158,2.02958,0.4578,-0.949155285,-0.274108185,-0.12780729
1764511350.2103918,-5.08158,2.02958,0.4578,-0.949155285,-0.274108185,-0.12780729
1764511350.2103918,-5.08158,2.02958,0.4578,-0.949155285,-0.274108185,-0.12780729
1764511350.2103918,-5.08158,2.02958,0.4578,-0.949155285,-0.274108185,-0.12780729
1764511350.2103918,-5.08158,2.02958,0.4578,-0.949155285,-0.274108185,-0.12780729
1764511350.2103918,-5.08158,2.02958,0.4578,-0.949155285,-0.274108185,-0.12780729
1764511350.255643,-5.08158,2.02958,0.4578,-0.949155285,-0.274108185,-0.12780729
1764511350.255643,-5.08158,2.02958,0.4578,-0.949155285,-0.274108185,-0.12780729
1764511350.255643,-3.75396,1.28184,-0.19838,-0.950253915,-0.275084745,-0.12829557
1764511350.255643,-3.75396,1.28184,-0.19838,-0.950253915,-0.275084745,-0.12829557
1764511350.255643,-3.75396,1.28184,-0.19838,-0.950253915,-0.275084745,-0.12829557
1764511350.255643,-3.75396,1.28184,-0.19838,-0.950253915,-0.275084745,-0.12829557
1764511350.255643,-3.75396,1.28184,-0.19838,-0.950253915,-0.275084745,-0.12829557
1764511350.255643,-3.75396,1.28184,-0.19838,-0.950253915,-0.275084745,-0.12829557
1764511350.255643,-3.75396,1.28184,-0.19838,-0.950253915,-0.275084745,-0.12829557
1764511350.255643,-3.75396,1.28184,-0.19838,-0.950253915,-0.275084745,-0.12829557
1764511350.255643,-3.75396,1.28184,-0.19838,-0.950253915,-0.275084745,-0.12829557
1764511350.257201,-3.75396,1.28184,-0.19838,-0.950253915,-0.275084745,-0.12829557
1764511350.257201,-3.54032,1.7549,0.54936,-0.94872804,-0.2746575,-0.127990395
1764511350.257201,-3.54032,1.7549,0.54936,-0.94872804,-0.2746575,-0.127990395
1764511350.2581952,-3.54032,1.7549,0.54936,-0.94872804,-0.2746575,-0.127990395
1764511350.2581952,-3.54032,1.7549,0.54936,-0.94872804,-0.2746575,-0.127990395
1764511350.259197,-3.54032,1.7549,0.54936,-0.94872804,-0.2746575,-0.127990395
1764511350.259197,-3.54032,1.7549,0.54936,-0.94872804,-0.2746575,-0.127990395
1764511350.259197,-3.54032,1.7549,0.54936,-0.94872804,-0.2746575,-0.127990395
1764511350.259197,-3.54032,1.7549,0.54936,-0.94872804,-0.2746575,-0.127990395
1764511350.259197,-3.54032,1.7549,0.54936,-0.94872804,-0.2746575,-0.127990395
1764511350.259197,-3.54032,1.7549,0.54936,-0.94872804,-0.2746575,-0.127990395
1764511350.2611952,-5.40204,1.77016,0.65618,-0.949521495,-0.272765415,-0.127257975
1764511350.2611952,-5.40204,1.77016,0.65618,-0.949521495,-0.272765415,-0.127257975
1764511350.2611952,-5.40204,1.77016,0.65618,-0.949521495,-0.272765415,-0.127257975
1764511350.2611952,-5.40204,1.77016,0.65618,-0.949521495,-0.272765415,-0.127257975
1764511350.3057098,-5.40204,1.77016,0.65618,-0.949521495,-0.272765415,-0.127257975
1764511350.3057098,-5.40204,1.77016,0.65618,-0.949521495,-0.272765415,-0.127257975
1764511350.3057098,-5.40204,1.77016,0.65618,-0.949521495,-0.272765415,-0.127257975
1764511350.3057098,-5.40204,1.77016,0.65618,-0.949521495,-0.272765415,-0.127257975
1764511350.3057098,-5.40204,1.77016,0.65618,-0.949521495,-0.272765415,-0.127257975
1764511350.3057098,-5.40204,1.77016,0.65618,-0.949521495,-0.272765415,-0.127257975
1764511350.3057098,-6.516019999999999,1.7549,-0.51884,-0.950253915,-0.27136161,-0.12853971
1764511350.3057098,-6.516019999999999,1.7549,-0.51884,-0.950253915,-0.27136161,-0.12853971
1764511350.3057098,-6.516019999999999,1.7549,-0.51884,-0.950253915,-0.27136161,-0.12853971
1764511350.3057098,-6.516019999999999,1.7549,-0.51884,-0.950253915,-0.27136161,-0.12853971
1764511350.3057098,-6.516019999999999,1.7549,-0.51884,-0.950253915,-0.27136161,-0.12853971
1764511350.3057098,-6.516019999999999,1.7549,-0.51884,-0.950253915,-0.27136161,-0.12853971
1764511350.3057098,-6.516019999999999,1.7549,-0.51884,-0.950253915,-0.27136161,-0.12853971
1764511350.3072214,-6.516019999999999,1.7549,-0.51884,-0.950253915,-0.27136161,-0.12853971
1764511350.3072214,-6.516019999999999,1.7549,-0.51884,-0.950253915,-0.27136161,-0.12853971
1764511350.3072214,-6.516019999999999,1.7549,-0.51884,-0.950253915,-0.27136161,-0.12853971
1764511350.3072214,-6.69914,1.46496,-0.97664,-0.95129151,-0.272032995,-0.12976041
1764511350.3072214,-6.69914,1.46496,-0.97664,-0.95129151,-0.272032995,-0.12976041
1764511350.3072214,-6.69914,1.46496,-0.97664,-0.95129151,-0.272032995,-0.12976041
1764511350.3072214,-6.69914,1.46496,-0.97664,-0.95129151,-0.272032995,-0.12976041
1764511350.3072214,-6.69914,1.46496,-0.97664,-0.95129151,-0.272032995,-0.12976041
1764511350.3072214,-6.69914,1.46496,-0.97664,-0.95129151,-0.272032995,-0.12976041
1764511350.350922,-6.69914,1.46496,-0.97664,-0.95129151,-0.272032995,-0.12976041
1764511350.350922,-6.69914,1.46496,-0.97664,-0.95129151,-0.272032995,-0.12976041
1764511350.350922,-6.69914,1.46496,-0.97664,-0.95129151,-0.272032995,-0.12976041
1764511350.350922,-6.69914,1.46496,-0.97664,-0.95129151,-0.272032995,-0.12976041
1764511350.350922,-5.9514,1.2971,-0.85456,-0.95043702,-0.274352325,-0.130553865
1764511350.350922,-5.9514,1.2971,-0.85456,-0.95043702,-0.274352325,-0.130553865
1764511350.350922,-5.9514,1.2971,-0.85456,-0.95043702,-0.274352325,-0.130553865
1764511350.350922,-5.9514,1.2971,-0.85456,-0.95043702,-0.274352325,-0.130553865
1764511350.350922,-5.9514,1.2971,-0.85456,-0.95043702,-0.274352325,-0.130553865
1764511350.350922,-5.9514,1.2971,-0.85456,-0.95043702,-0.274352325,-0.130553865
1764511350.350922,-5.9514,1.2971,-0.85456,-0.95043702,-0.274352325,-0.130553865
1764511350.350922,-5.9514,1.2971,-0.85456,-0.95043702,-0.274352325,-0.130553865
1764511350.350922,-5.9514,1.2971,-0.85456,-0.95043702,-0.274352325,-0.130553865
1764511350.350922,-5.9514,1.2971,-0.85456,-0.95043702,-0.274352325,-0.130553865
1764511350.350922,-5.35626,1.70912,0.4578,-0.94811769,-0.276183375,-0.12963834
1764511350.3519387,-5.35626,1.70912,0.4578,-0.94811769,-0.276183375,-0.12963834
1764511350.3519387,-5.35626,1.70912,0.4578,-0.94811769,-0.276183375,-0.12963834
1764511350.3519387,-5.35626,1.70912,0.4578,-0.94811769,-0.276183375,-0.12963834
1764511350.3519387,-5.35626,1.70912,0.4578,-0.94811769,-0.276183375,-0.12963834
1764511350.3519387,-5.35626,1.70912,0.4578,-0.94811769,-0.276183375,-0.12963834
1764511350.3519387,-5.35626,1.70912,0.4578,-0.94811769,-0.276183375,-0.12963834
1764511350.3519387,-5.35626,1.70912,0.4578,-0.94811769,-0.276183375,-0.12963834
1764511350.3519387,-5.35626,1.70912,0.4578,-0.94811769,-0.276183375,-0.12963834
1764511350.353463,-5.35626,1.70912,0.4578,-0.94811769,-0.276183375,-0.12963834
1764511350.4006298,-4.45592,2.50264,0.3204599999999999,-0.946713885,-0.27673269,-0.12805143
1764511350.4006298,-4.45592,2.50264,0.3204599999999999,-0.946713885,-0.27673269,-0.12805143
1764511350.4006298,-4.45592,2.50264,0.3204599999999999,-0.946713885,-0.27673269,-0.12805143
1764511350.4006298,-4.45592,2.50264,0.3204599999999999,-0.946713885,-0.27673269,-0.12805143
1764511350.4006298,-4.45592,2.50264,0.3204599999999999,-0.946713885,-0.27673269,-0.12805143
1764511350.401665,-4.45592,2.50264,0.3204599999999999,-0.946713885,-0.27673269,-0.12805143
1764511350.401665,-4.45592,2.50264,0.3204599999999999,-0.946713885,-0.27673269,-0.12805143
1764511350.401665,-4.45592,2.50264,0.3204599999999999,-0.946713885,-0.27673269,-0.12805143
1764511350.401665,-4.45592,2.50264,0.3204599999999999,-0.946713885,-0.27673269,-0.12805143
1764511350.401665,-4.45592,2.50264,0.3204599999999999,-0.946713885,-0.27673269,-0.12805143
1764511350.401665,-3.72344,1.69386,0.13734,-0.94738527,-0.274962675,-0.12780729
1764511350.401665,-3.72344,1.69386,0.13734,-0.94738527,-0.274962675,-0.12780729
1764511350.401665,-3.72344,1.69386,0.13734,-0.94738527,-0.274962675,-0.12780729
1764511350.401665,-3.72344,1.69386,0.13734,-0.94738527,-0.274962675,-0.12780729
1764511350.401665,-3.72344,1.69386,0.13734,-0.94738527,-0.274962675,-0.12780729
