Timestamp,GyroX,GyroY,GyroZ,AccX,AccY,AccZ
1764511816.1858895,-1.95328,4.02864,0.8392999999999999,0.372374535,0.813901725,-0.446471025
1764511816.1858895,-1.95328,4.02864,0.8392999999999999,0.372374535,0.813901725,-0.446471025
1764511816.1858895,-1.95328,4.02864,0.8392999999999999,0.372374535,0.813901725,-0.446471025
1764511816.1858895,-0.51884,4.18124,0.93086,0.37243557,0.811826535,-0.44506722
1764511816.1858895,-0.51884,4.18124,0.93086,0.37243557,0.811826535,-0.44506722
1764511816.1858895,-0.51884,4.18124,0.93086,0.37243557,0.811826535,-0.44506722
1764511816.1858895,-0.51884,4.18124,0.93086,0.37243557,0.811826535,-0.44506722
1764511816.1858895,-0.51884,4.18124,0.93086,0.37243557,0.811826535,-0.44506722
1764511816.1858895,-0.51884,4.18124,0.93086,0.37243557,0.811826535,-0.44506722
1764511816.1868813,-0.51884,4.18124,0.93086,0.37243557,0.811826535,-0.44506722
1764511816.1868813,-0.51884,4.18124,0.93086,0.37243557,0.811826535,-0.44506722
1764511816.1868813,-0.51884,4.18124,0.93086,0.37243557,0.811826535,-0.44506722
1764511816.1868813,-0.51884,4.18124,0.93086,0.37243557,0.811826535,-0.44506722
1764511816.1868813,0.2289,3.67766,0.25942,0.37219143,0.811460325,-0.444395835
1764511816.1868813,0.2289,3.67766,0.25942,0.37219143,0.811460325,-0.444395835
1764511816.1868813,0.2289,3.67766,0.25942,0.37219143,0.811460325,-0.444395835
1764511816.1868813,0.2289,3.67766,0.25942,0.37219143,0.811460325,-0.444395835
1764511816.1868813,0.2289,3.67766,0.25942,0.37219143,0.811460325,-0.444395835
1764511816.1868813,0.2289,3.67766,0.25942,0.37219143,0.811460325,-0.444395835
1764511816.1868813,0.2289,3.67766,0.25942,0.37219143,0.811460325,-0.444395835
1764511816.1868813,0.2289,3.67766,0.25942,0.37219143,0.811460325,-0.444395835
1764511816.1868813,0.2289,3.67766,0.25942,0.37219143,0.811460325,-0.444395835
1764511816.1868813,0.2289,3.67766,0.25942,0.37219143,0.811460325,-0.444395835
1764511816.226373,0.59514,3.61662,0.8392999999999999,0.37243557,0.81188757,-0.44506722
1764511816.226373,0.59514,3.61662,0.8392999999999999,0.37243557,0.81188757,-0.44506722
1764511816.226373,0.59514,3.61662,0.8392999999999999,0.37243557,0.81188757,-0.44506722
1764511816.226373,0.59514,3.61662,0.8392999999999999,0.37243557,0.81188757,-0.44506722
1764511816.226373,0.59514,3.61662,0.8392999999999999,0.37243557,0.81188757,-0.44506722
1764511816.226373,0.59514,3.61662,0.8392999999999999,0.37243557,0.81188757,-0.44506722
1764511816.227395,0.59514,3.61662,0.8392999999999999,0.37243557,0.81188757,-0.44506722
1764511816.227395,0.59514,3.61662,0.8392999999999999,0.37243557,0.81188757,-0.44506722
1764511816.227395,0.59514,3.61662,0.8392999999999999,0.37243557,0.81188757,-0.44506722
1764511816.227395,0.59514,3.61662,0.8392999999999999,0.37243557,0.81188757,-0.44506722
1764511816.227395,-0.06104,3.86078,0.42728,0.37219143,0.813291375,-0.447081375
1764511816.227395,-0.06104,3.86078,0.42728,0.37219143,0.813291375,-0.447081375
1764511816.227395,-0.06104,3.86078,0.42728,0.37219143,0.813291375,-0.447081375
1764511816.227395,-0.06104,3.86078,0.42728,0.37219143,0.813291375,-0.447081375
1764511816.227395,-0.06104,3.86078,0.42728,0.37219143,0.813291375,-0.447081375
1764511816.227395,-0.06104,3.86078,0.42728,0.37219143,0.813291375,-0.447081375
1764511816.227395,-0.06104,3.86078,0.42728,0.37219143,0.813291375,-0.447081375
1764511816.227395,-0.06104,3.86078,0.42728,0.37219143,0.813291375,-0.447081375
1764511816.227395,-0.06104,3.86078,0.42728,0.37219143,0.813291375,-0.447081375
1764511816.227395,-0.06104,3.86078,0.42728,0.37219143,0.813291375,-0.447081375
1764511816.227395,-0.763,4.10494,0.4578,0.370909695,0.814390005,-0.44738655
1764511816.227395,-0.763,4.10494,0.4578,0.370909695,0.814390005,-0.44738655
1764511816.2289124,-0.763,4.10494,0.4578,0.370909695,0.814390005,-0.44738655
1764511816.2289124,-0.763,4.10494,0.4578,0.370909695,0.814390005,-0.44738655
1764511816.2771602,-0.763,4.10494,0.4578,0.370909695,0.814390005,-0.44738655
1764511816.2771602,-0.763,4.10494,0.4578,0.370909695,0.814390005,-0.44738655
1764511816.2771602,-0.763,4.10494,0.4578,0.370909695,0.814390005,-0.44738655
1764511816.2771602,-0.763,4.10494,0.4578,0.370909695,0.814390005,-0.44738655
1764511816.2771602,-0.763,4.10494,0.4578,0.370909695,0.814390005,-0.44738655
1764511816.2771602,-0.763,4.10494,0.4578,0.370909695,0.814390005,-0.44738655
1764511816.2771602,-0.6409199999999999,3.31142,0.59514,0.36852933,0.81396276,-0.446348955
1764511816.2771602,-0.6409199999999999,3.31142,0.59514,0.36852933,0.81396276,-0.446348955
1764511816.2771602,-0.6409199999999999,3.31142,0.59514,0.36852933,0.81396276,-0.446348955
1764511816.2771602,-0.6409199999999999,3.31142,0.59514,0.36852933,0.81396276,-0.446348955
1764511816.2771602,-0.6409199999999999,3.31142,0.59514,0.36852933,0.81396276,-0.446348955
1764511816.2771602,-0.6409199999999999,3.31142,0.59514,0.36852933,0.81396276,-0.446348955
1764511816.2771602,-0.6409199999999999,3.31142,0.59514,0.36852933,0.81396276,-0.446348955
1764511816.2771602,-0.6409199999999999,3.31142,0.59514,0.36852933,0.81396276,-0.446348955
1764511816.2771602,-0.6409199999999999,3.31142,0.59514,0.36852933,0.81396276,-0.446348955
1764511816.2771602,-0.6409199999999999,3.31142,0.59514,0.36852933,0.81396276,-0.446348955
1764511816.2771602,-1.38866,3.90656,0.57988,0.37097073,0.81554967,-0.446226885
1764511816.2771602,-1.38866,3.90656,0.57988,0.37097073,0.81554967,-0.446226885
1764511816.2771602,-1.38866,3.90656,0.57988,0.37097073,0.81554967,-0.446226885
1764511816.2771602,-1.38866,3.90656,0.57988,0.37097073,0.81554967,-0.446226885
1764511816.2771602,-1.38866,3.90656,0.57988,0.37097073,0.81554967,-0.446226885
1764511816.2781572,-1.38866,3.90656,0.57988,0.37097073,0.81554967,-0.446226885
1764511816.3177843,-1.38866,3.90656,0.57988,0.37097073,0.81554967,-0.446226885
1764511816.3177843,-1.38866,3.90656,0.57988,0.37097073,0.81554967,-0.446226885
1764511816.3177843,-1.38866,3.90656,0.57988,0.37097073,0.81554967,-0.446226885
1764511816.3177843,-1.38866,3.90656,0.57988,0.37097073,0.81554967,-0.446226885
1764511816.3177843,-1.19028,4.10494,1.32762,0.37145901,0.815854845,-0.44372445
1764511816.3177843,-1.19028,4.10494,1.32762,0.37145901,0.815854845,-0.44372445
1764511816.3177843,-1.19028,4.10494,1.32762,0.37145901,0.815854845,-0.44372445
1764511816.3177843,-1.19028,4.10494,1.32762,0.37145901,0.815854845,-0.44372445
1764511816.3177843,-1.19028,4.10494,1.32762,0.37145901,0.815854845,-0.44372445
1764511816.3177843,-1.19028,4.10494,1.32762,0.37145901,0.815854845,-0.44372445
1764511816.3177843,-1.19028,4.10494,1.32762,0.37145901,0.815854845,-0.44372445
1764511816.3177843,-1.19028,4.10494,1.32762,0.37145901,0.815854845,-0.44372445
1764511816.3177843,-1.19028,4.10494,1.32762,0.37145901,0.815854845,-0.44372445
1764511816.3177843,-1.19028,4.10494,1.32762,0.37145901,0.815854845,-0.44372445
1764511816.3193288,-0.28994,3.5861,0.96138,0.3710928,0.8129862,-0.442930995
1764511816.3193288,-0.28994,3.5861,0.96138,0.3710928,0.8129862,-0.442930995
1764511816.3193288,-0.28994,3.5861,0.96138,0.3710928,0.8129862,-0.442930995
1764511816.3193288,-0.28994,3.5861,0.96138,0.3710928,0.8129862,-0.442930995
1764511816.3193288,-0.28994,3.5861,0.96138,0.3710928,0.8129862,-0.442930995
1764511816.3193288,-0.28994,3.5861,0.96138,0.3710928,0.8129862,-0.442930995
1764511816.3193288,-0.28994,3.5861,0.96138,0.3710928,0.8129862,-0.442930995
1764511816.3193288,-0.28994,3.5861,0.96138,0.3710928,0.8129862,-0.442930995
1764511816.3698149,-0.28994,3.5861,0.96138,0.3710928,0.8129862,-0.442930995
1764511816.3708143,-0.28994,3.5861,0.96138,0.3710928,0.8129862,-0.442930995
1764511816.3708143,0.7019599999999999,3.7387,0.41202,0.373229025,0.81188757,-0.44482308
1764511816.3708143,0.7019599999999999,3.7387,0.41202,0.373229025,0.81188757,-0.44482308
1764511816.3708143,0.7019599999999999,3.7387,0.41202,0.373229025,0.81188757,-0.44482308
1764511816.3708143,0.7019599999999999,3.7387,0.41202,0.373229025,0.81188757,-0.44482308
1764511816.3708143,0.7019599999999999,3.7387,0.41202,0.373229025,0.81188757,-0.44482308
1764511816.3708143,0.7019599999999999,3.7387,0.41202,0.373229025,0.81188757,-0.44482308
1764511816.3708143,0.7019599999999999,3.7387,0.41202,0.373229025,0.81188757,-0.44482308
1764511816.3708143,0.7019599999999999,3.7387,0.41202,0.373229025,0.81188757,-0.44482308
1764511816.3708143,0.7019599999999999,3.7387,0.41202,0.373229025,0.81188757,-0.44482308
1764511816.3708143,0.7019599999999999,3.7387,0.41202,0.373229025,0.81188757,-0.44482308
1764511816.3708143,-0.62566,4.24228,0.47306,0.372984885,0.81396276,-0.447813795
1764511816.3708143,-0.62566,4.24228,0.47306,0.372984885,0.81396276,-0.447813795
1764511816.3708143,-0.62566,4.24228,0.47306,0.372984885,0.81396276,-0.447813795
1764511816.3708143,-0.62566,4.24228,0.47306,0.372984885,0.81396276,-0.447813795
1764511816.3708143,-0.62566,4.24228,0.47306,0.372984885,0.81396276,-0.447813795
1764511816.3708143,-0.62566,4.24228,0.47306,0.372984885,0.81396276,-0.447813795
1764511816.3708143,-0.62566,4.24228,0.47306,0.372984885,0.81396276,-0.447813795
1764511816.3708143,-0.62566,4.24228,0.47306,0.372984885,0.81396276,-0.447813795
1764511816.3708143,-0.62566,4.24228,0.47306,0.372984885,0.81396276,-0.447813795
1764511816.3708143,-0.62566,4.24228,0.47306,0.372984885,0.81396276,-0.447813795
1764511816.4163618,-2.07536,3.6624,0.8392999999999999,0.370787625,0.814634145,-0.4492176
1764511816.4163618,-2.07536,3.6624,0.8392999999999999,0.370787625,0.814634145,-0.4492176
1764511816.4163618,-2.07536,3.6624,0.8392999999999999,0.370787625,0.814634145,-0.4492176
1764511816.4163618,-2.07536,3.6624,0.8392999999999999,0.370787625,0.814634145,-0.4492176
1764511816.4163618,-2.07536,3.6624,0.8392999999999999,0.370787625,0.814634145,-0.4492176
1764511816.4163618,-2.07536,3.6624,0.8392999999999999,0.370787625,0.814634145,-0.4492176
1764511816.4163618,-2.07536,3.6624,0.8392999999999999,0.370787625,0.814634145,-0.4492176
1764511816.4163618,-2.07536,3.6624,0.8392999999999999,0.370787625,0.814634145,-0.4492176
1764511816.4163618,-2.07536,3.6624,0.8392999999999999,0.370787625,0.814634145,-0.4492176
1764511816.4163618,-2.07536,3.6624,0.8392999999999999,0.370787625,0.814634145,-0.4492176
1764511816.4163618,-2.47212,3.63188,0.6867,0.36962796,0.812925165,-0.44897346
1764511816.4163618,-2.47212,3.63188,0.6867,0.36962796,0.812925165,-0.44897346
1764511816.4163618,-2.47212,3.63188,0.6867,0.36962796,0.812925165,-0.44897346
1764511816.417876,-2.47212,3.63188,0.6867,0.36962796,0.812925165,-0.44897346
1764511816.417876,-2.47212,3.63188,0.6867,0.36962796,0.812925165,-0.44897346
1764511816.417876,-2.47212,3.63188,0.6867,0.36962796,0.812925165,-0.44897346
1764511816.417876,-2.47212,3.63188,0.6867,0.36962796,0.812925165,-0.44897346
1764511816.417876,-2.47212,3.63188,0.6867,0.36962796,0.812925165,-0.44897346
1764511816.417876,-2.47212,3.63188,0.6867,0.36962796,0.812925165,-0.44897346
1764511816.417876,-2.47212,3.63188,0.6867,0.36962796,0.812925165,-0.44897346
1764511816.417876,-0.8698199999999999,4.059159999999999,0.74774,0.370421415,0.810605835,-0.44726448
1764511816.417876,-0.8698199999999999,4.059159999999999,0.74774,0.370421415,0.810605835,-0.44726448
1764511816.417876,-0.8698199999999999,4.059159999999999,0.74774,0.370421415,0.810605835,-0.44726448
1764511816.417876,-0.8698199999999999,4.059159999999999,0.74774,0.370421415,0.810605835,-0.44726448
1764511816.4188917,-0.8698199999999999,4.059159999999999,0.74774,0.370421415,0.810605835,-0.44726448
1764511816.4188917,-0.8698199999999999,4.059159999999999,0.74774,0.370421415,0.810605835,-0.44726448
1764511816.4581783,-0.8698199999999999,4.059159999999999,0.74774,0.370421415,0.810605835,-0.44726448
1764511816.4581783,-0.8698199999999999,4.059159999999999,0.74774,0.370421415,0.810605835,-0.44726448
1764511816.4581783,-0.8698199999999999,4.059159999999999,0.74774,0.370421415,0.810605835,-0.44726448
1764511816.4581783,-0.8698199999999999,4.059159999999999,0.74774,0.370421415,0.810605835,-0.44726448
1764511816.4581783,0.51884,4.2728,0.1525999999999999,0.372984885,0.81042273,-0.446715165
1764511816.4581783,0.51884,4.2728,0.1525999999999999,0.372984885,0.81042273,-0.446715165
1764511816.4581783,0.51884,4.2728,0.1525999999999999,0.372984885,0.81042273,-0.446715165
1764511816.4581783,0.51884,4.2728,0.1525999999999999,0.372984885,0.81042273,-0.446715165
1764511816.4581783,0.51884,4.2728,0.1525999999999999,0.372984885,0.81042273,-0.446715165
1764511816.4581783,0.51884,4.2728,0.1525999999999999,0.372984885,0.81042273,-0.446715165
1764511816.4581783,0.51884,4.2728,0.1525999999999999,0.372984885,0.81042273,-0.446715165
1764511816.4581783,0.51884,4.2728,0.1525999999999999,0.372984885,0.81042273,-0.446715165
1764511816.460187,0.51884,4.2728,0.1525999999999999,0.372984885,0.81042273,-0.446715165
1764511816.460187,0.51884,4.2728,0.1525999999999999,0.372984885,0.81042273,-0.446715165
1764511816.460187,0.48832,4.31858,0.19838,0.372374535,0.811826535,-0.44702034
1764511816.460187,0.48832,4.31858,0.19838,0.372374535,0.811826535,-0.44702034
1764511816.460187,0.48832,4.31858,0.19838,0.372374535,0.811826535,-0.44702034
1764511816.460187,0.48832,4.31858,0.19838,0.372374535,0.811826535,-0.44702034
1764511816.460187,0.48832,4.31858,0.19838,0.372374535,0.811826535,-0.44702034
1764511816.460187,0.48832,4.31858,0.19838,0.372374535,0.811826535,-0.44702034
1764511816.5085423,0.48832,4.31858,0.19838,0.372374535,0.811826535,-0.44702034
1764511816.5085423,0.48832,4.31858,0.19838,0.372374535,0.811826535,-0.44702034
1764511816.5085423,0.48832,4.31858,0.19838,0.372374535,0.811826535,-0.44702034
1764511816.5085423,0.48832,4.31858,0.19838,0.372374535,0.811826535,-0.44702034
1764511816.5085423,0.41202,4.08968,0.10682,0.37158108,0.81249792,-0.446471025
1764511816.5085423,0.41202,4.08968,0.10682,0.37158108,0.81249792,-0.446471025
1764511816.5085423,0.41202,4.08968,0.10682,0.37158108,0.81249792,-0.446471025
1764511816.5085423,0.41202,4.08968,0.10682,0.37158108,0.81249792,-0.446471025
1764511816.5085423,0.41202,4.08968,0.10682,0.37158108,0.81249792,-0.446471025
1764511816.5085423,0.41202,4.08968,0.10682,0.37158108,0.81249792,-0.446471025
1764511816.5085423,0.41202,4.08968,0.10682,0.37158108,0.81249792,-0.446471025
1764511816.5085423,0.41202,4.08968,0.10682,0.37158108,0.81249792,-0.446471025
1764511816.5085423,0.41202,4.08968,0.10682,0.37158108,0.81249792,-0.446471025
1764511816.5085423,0.41202,4.08968,0.10682,0.37158108,0.81249792,-0.446471025
1764511816.5095456,0.50358,3.8913,0.44254,0.370665555,0.812070675,-0.445616535
1764511816.5095456,0.50358,3.8913,0.44254,0.370665555,0.812070675,-0.445616535
1764511816.5095456,0.50358,3.8913,0.44254,0.370665555,0.812070675,-0.445616535
1764511816.5095456,0.50358,3.8913,0.44254,0.370665555,0.812070675,-0.445616535
1764511816.5095456,0.50358,3.8913,0.44254,0.370665555,0.812070675,-0.445616535
1764511816.5095456,0.50358,3.8913,0.44254,0.370665555,0.812070675,-0.445616535
1764511816.5095456,0.50358,3.8913,0.44254,0.370665555,0.812070675,-0.445616535
1764511816.5095456,0.50358,3.8913,0.44254,0.370665555,0.812070675,-0.445616535
1764511816.5095456,0.50358,3.8913,0.44254,0.370665555,0.812070675,-0.445616535
1764511816.5095456,0.50358,3.8913,0.44254,0.370665555,0.812070675,-0.445616535
1764511816.5095456,0.3204599999999999,3.92182,0.47306,0.37023831,0.812070675,-0.44604378
1764511816.5095456,0.3204599999999999,3.92182,0.47306,0.37023831,0.812070675,-0.44604378
1764511816.5535114,0.3204599999999999,3.92182,0.47306,0.37023831,0.812070675,-0.44604378
1764511816.5535114,0.3204599999999999,3.92182,0.47306,0.37023831,0.812070675,-0.44604378
1764511816.5535114,0.3204599999999999,3.92182,0.47306,0.37023831,0.812070675,-0.44604378
1764511816.5535114,0.3204599999999999,3.92182,0.47306,0.37023831,0.812070675,-0.44604378
1764511816.5535114,0.3204599999999999,3.92182,0.47306,0.37023831,0.812070675,-0.44604378
1764511816.5535114,0.3204599999999999,3.92182,0.47306,0.37023831,0.812070675,-0.44604378
1764511816.5535114,0.3204599999999999,3.92182,0.47306,0.37023831,0.812070675,-0.44604378
1764511816.5535114,0.3204599999999999,3.92182,0.47306,0.37023831,0.812070675,-0.44604378
1764511816.5535114,0.6103999999999999,3.9676,0.47306,0.37145901,0.814023795,-0.44628792
1764511816.5535114,0.6103999999999999,3.9676,0.47306,0.37145901,0.814023795,-0.44628792
1764511816.5535114,0.6103999999999999,3.9676,0.47306,0.37145901,0.814023795,-0.44628792
1764511816.5535114,0.6103999999999999,3.9676,0.47306,0.37145901,0.814023795,-0.44628792
1764511816.5535114,0.6103999999999999,3.9676,0.47306,0.37145901,0.814023795,-0.44628792
1764511816.5535114,0.6103999999999999,3.9676,0.47306,0.37145901,0.814023795,-0.44628792
1764511816.5535114,0.6103999999999999,3.9676,0.47306,0.37145901,0.814023795,-0.44628792
1764511816.5535114,0.6103999999999999,3.9676,0.47306,0.37145901,0.814023795,-0.44628792
1764511816.5535114,0.6103999999999999,3.9676,0.47306,0.37145901,0.814023795,-0.44628792
1764511816.5535114,0.6103999999999999,3.9676,0.47306,0.37145901,0.814023795,-0.44628792
1764511816.5535114,-0.3357199999999999,3.61662,0.51884,0.371031765,0.81310827,-0.446715165
1764511816.5545244,-0.3357199999999999,3.61662,0.51884,0.371031765,0.81310827,-0.446715165
1764511816.5545244,-0.3357199999999999,3.61662,0.51884,0.371031765,0.81310827,-0.446715165
1764511816.5545244,-0.3357199999999999,3.61662,0.51884,0.371031765,0.81310827,-0.446715165
1764511816.5975697,-0.3357199999999999,3.61662,0.51884,0.371031765,0.81310827,-0.446715165
1764511816.5975697,-0.3357199999999999,3.61662,0.51884,0.371031765,0.81310827,-0.446715165
1764511816.5975697,-0.3357199999999999,3.61662,0.51884,0.371031765,0.81310827,-0.446715165
1764511816.5975697,-0.3357199999999999,3.61662,0.51884,0.371031765,0.81310827,-0.446715165
1764511816.5975697,-0.3357199999999999,3.61662,0.51884,0.371031765,0.81310827,-0.446715165
1764511816.5975697,-0.3357199999999999,3.61662,0.51884,0.371031765,0.81310827,-0.446715165
1764511816.5975697,-0.18312,3.37246,0.25942,0.372008325,0.81286413,-0.44726448
1764511816.5985851,-0.18312,3.37246,0.25942,0.372008325,0.81286413,-0.44726448
1764511816.5985851,-0.18312,3.37246,0.25942,0.372008325,0.81286413,-0.44726448
1764511816.5985851,-0.18312,3.37246,0.25942,0.372008325,0.81286413,-0.44726448
1764511816.5985851,-0.18312,3.37246,0.25942,0.372008325,0.81286413,-0.44726448
1764511816.5985851,-0.18312,3.37246,0.25942,0.372008325,0.81286413,-0.44726448
1764511816.5985851,-0.18312,3.37246,0.25942,0.372008325,0.81286413,-0.44726448
1764511816.5985851,-0.18312,3.37246,0.25942,0.372008325,0.81286413,-0.44726448
1764511816.5995822,-0.18312,3.37246,0.25942,0.372008325,0.81286413,-0.44726448
1764511816.5995822,-0.18312,3.37246,0.25942,0.372008325,0.81286413,-0.44726448
1764511816.5995822,-0.48832,4.53222,0.4578,0.37280178,0.81457311,-0.448912425
1764511816.5995822,-0.48832,4.53222,0.4578,0.37280178,0.81457311,-0.448912425
1764511816.6007602,-0.48832,4.53222,0.4578,0.37280178,0.81457311,-0.448912425
1764511816.6007602,-0.48832,4.53222,0.4578,0.37280178,0.81457311,-0.448912425
1764511816.6007602,-0.48832,4.53222,0.4578,0.37280178,0.81457311,-0.448912425
1764511816.6007602,-0.48832,4.53222,0.4578,0.37280178,0.81457311,-0.448912425
1764511816.6007602,-0.48832,4.53222,0.4578,0.37280178,0.81457311,-0.448912425
1764511816.6007602,-0.48832,4.53222,0.4578,0.37280178,0.81457311,-0.448912425
1764511816.6459785,-0.48832,4.53222,0.4578,0.37280178,0.81457311,-0.448912425
1764511816.6459785,-0.48832,4.53222,0.4578,0.37280178,0.81457311,-0.448912425
1764511816.6459785,-1.23606,3.84552,0.62566,0.371642115,0.816465195,-0.44909553
1764511816.6459785,-1.23606,3.84552,0.62566,0.371642115,0.816465195,-0.44909553
1764511816.6470168,-1.23606,3.84552,0.62566,0.371642115,0.816465195,-0.44909553
1764511816.6470168,-1.23606,3.84552,0.62566,0.371642115,0.816465195,-0.44909553
1764511816.6470168,-1.23606,3.84552,0.62566,0.371642115,0.816465195,-0.44909553
1764511816.6470168,-1.23606,3.84552,0.62566,0.371642115,0.816465195,-0.44909553
1764511816.6480196,-1.23606,3.84552,0.62566,0.371642115,0.816465195,-0.44909553
1764511816.6480196,-1.23606,3.84552,0.62566,0.371642115,0.816465195,-0.44909553
1764511816.6480196,-1.23606,3.84552,0.62566,0.371642115,0.816465195,-0.44909553
1764511816.6480196,-1.23606,3.84552,0.62566,0.371642115,0.816465195,-0.44909553
1764511816.6480196,-1.86172,3.95234,0.79352,0.37097073,0.817075545,-0.44811897
1764511816.6480196,-1.86172,3.95234,0.79352,0.37097073,0.817075545,-0.44811897
1764511816.6480196,-1.86172,3.95234,0.79352,0.37097073,0.817075545,-0.44811897
1764511816.6480196,-1.86172,3.95234,0.79352,0.37097073,0.817075545,-0.44811897
1764511816.6480196,-1.86172,3.95234,0.79352,0.37097073,0.817075545,-0.44811897
1764511816.6490183,-1.86172,3.95234,0.79352,0.37097073,0.817075545,-0.44811897
1764511816.6490183,-1.86172,3.95234,0.79352,0.37097073,0.817075545,-0.44811897
1764511816.6490183,-1.86172,3.95234,0.79352,0.37097073,0.817075545,-0.44811897
1764511816.6490183,-1.86172,3.95234,0.79352,0.37097073,0.817075545,-0.44811897
1764511816.6490183,-1.86172,3.95234,0.79352,0.37097073,0.817075545,-0.44811897
1764511816.6490183,-2.1364,4.70008,1.09872,0.370787625,0.815244495,-0.446471025
1764511816.6490183,-2.1364,4.70008,1.09872,0.370787625,0.815244495,-0.446471025
1764511816.6894283,-2.1364,4.70008,1.09872,0.370787625,0.815244495,-0.446471025
1764511816.6894283,-2.1364,4.70008,1.09872,0.370787625,0.815244495,-0.446471025
1764511816.6894283,-2.1364,4.70008,1.09872,0.370787625,0.815244495,-0.446471025
1764511816.6894283,-2.1364,4.70008,1.09872,0.370787625,0.815244495,-0.446471025
1764511816.6894283,-2.1364,4.70008,1.09872,0.370787625,0.815244495,-0.446471025
1764511816.6894283,-2.1364,4.70008,1.09872,0.370787625,0.815244495,-0.446471025
1764511816.6894283,-2.1364,4.70008,1.09872,0.370787625,0.815244495,-0.446471025
1764511816.6894283,-2.1364,4.70008,1.09872,0.370787625,0.815244495,-0.446471025
1764511816.6894283,-0.71722,3.90656,0.6103999999999999,0.37036038,0.811704465,-0.44445687
1764511816.6894283,-0.71722,3.90656,0.6103999999999999,0.37036038,0.811704465,-0.44445687
1764511816.6894283,-0.71722,3.90656,0.6103999999999999,0.37036038,0.811704465,-0.44445687
1764511816.6894283,-0.71722,3.90656,0.6103999999999999,0.37036038,0.811704465,-0.44445687
1764511816.6894283,-0.71722,3.90656,0.6103999999999999,0.37036038,0.811704465,-0.44445687
1764511816.6899364,-0.71722,3.90656,0.6103999999999999,0.37036038,0.811704465,-0.44445687
1764511816.6904645,-0.71722,3.90656,0.6103999999999999,0.37036038,0.811704465,-0.44445687
1764511816.6904645,-0.71722,3.90656,0.6103999999999999,0.37036038,0.811704465,-0.44445687
1764511816.6904645,-0.71722,3.90656,0.6103999999999999,0.37036038,0.811704465,-0.44445687
1764511816.6904645,-0.71722,3.90656,0.6103999999999999,0.37036038,0.811704465,-0.44445687
1764511816.738508,0.10682,3.98286,1.09872,0.3710928,0.810727905,-0.44470101
1764511816.738508,0.10682,3.98286,1.09872,0.3710928,0.810727905,-0.44470101
1764511816.738508,0.10682,3.98286,1.09872,0.3710928,0.810727905,-0.44470101
1764511816.738508,0.10682,3.98286,1.09872,0.3710928,0.810727905,-0.44470101
1764511816.739602,0.10682,3.98286,1.09872,0.3710928,0.810727905,-0.44470101
1764511816.739602,0.10682,3.98286,1.09872,0.3710928,0.810727905,-0.44470101
1764511816.7405872,0.10682,3.98286,1.09872,0.3710928,0.810727905,-0.44470101
1764511816.7405872,0.10682,3.98286,1.09872,0.3710928,0.810727905,-0.44470101
1764511816.7405872,0.10682,3.98286,1.09872,0.3710928,0.810727905,-0.44470101
1764511816.7405872,0.10682,3.98286,1.09872,0.3710928,0.810727905,-0.44470101
1764511816.7405872,0.44254,3.75396,0.50358,0.371642115,0.811826535,-0.44506722
1764511816.7405872,0.44254,3.75396,0.50358,0.371642115,0.811826535,-0.44506722
1764511816.7405872,0.44254,3.75396,0.50358,0.371642115,0.811826535,-0.44506722
1764511816.7420986,0.44254,3.75396,0.50358,0.371642115,0.811826535,-0.44506722
1764511816.7420986,0.44254,3.75396,0.50358,0.371642115,0.811826535,-0.44506722
1764511816.7420986,0.44254,3.75396,0.50358,0.371642115,0.811826535,-0.44506722
1764511816.7427251,0.44254,3.75396,0.50358,0.371642115,0.811826535,-0.44506722
1764511816.7431097,0.44254,3.75396,0.50358,0.371642115,0.811826535,-0.44506722
1764511816.7431097,0.44254,3.75396,0.50358,0.371642115,0.811826535,-0.44506722
1764511816.7431097,0.44254,3.75396,0.50358,0.371642115,0.811826535,-0.44506722
1764511816.7431097,0.50358,3.61662,0.39676,0.371031765,0.8129862,-0.446104815
1764511816.7431097,0.50358,3.61662,0.39676,0.371031765,0.8129862,-0.446104815
1764511816.744115,0.50358,3.61662,0.39676,0.371031765,0.8129862,-0.446104815
1764511816.744115,0.50358,3.61662,0.39676,0.371031765,0.8129862,-0.446104815
1764511816.744115,0.50358,3.61662,0.39676,0.371031765,0.8129862,-0.446104815
1764511816.744115,0.50358,3.61662,0.39676,0.371031765,0.8129862,-0.446104815
1764511816.744115,0.50358,3.61662,0.39676,0.371031765,0.8129862,-0.446104815
1764511816.744115,0.50358,3.61662,0.39676,0.371031765,0.8129862,-0.446104815
1764511816.7847953,0.50358,3.61662,0.39676,0.371031765,0.8129862,-0.446104815
1764511816.7847953,0.50358,3.61662,0.39676,0.371031765,0.8129862,-0.446104815
1764511816.7847953,-0.3509799999999999,4.08968,0.57988,0.37145901,0.81347448,-0.44824104
1764511816.7847953,-0.3509799999999999,4.08968,0.57988,0.37145901,0.81347448,-0.44824104
1764511816.7847953,-0.3509799999999999,4.08968,0.57988,0.37145901,0.81347448,-0.44824104
1764511816.7847953,-0.3509799999999999,4.08968,0.57988,0.37145901,0.81347448,-0.44824104
1764511816.785776,-0.3509799999999999,4.08968,0.57988,0.37145901,0.81347448,-0.44824104
1764511816.785776,-0.3509799999999999,4.08968,0.57988,0.37145901,0.81347448,-0.44824104
1764511816.785776,-0.3509799999999999,4.08968,0.57988,0.37145901,0.81347448,-0.44824104
1764511816.785776,-0.3509799999999999,4.08968,0.57988,0.37145901,0.81347448,-0.44824104
1764511816.785776,-0.3509799999999999,4.08968,0.57988,0.37145901,0.81347448,-0.44824104
1764511816.785776,-0.3509799999999999,4.08968,0.57988,0.37145901,0.81347448,-0.44824104
1764511816.785776,-1.93802,4.02864,0.62566,0.37133694,0.814023795,-0.449888985
1764511816.785776,-1.93802,4.02864,0.62566,0.37133694,0.814023795,-0.449888985
1764511816.785776,-1.93802,4.02864,0.62566,0.37133694,0.814023795,-0.449888985
1764511816.785776,-1.93802,4.02864,0.62566,0.37133694,0.814023795,-0.449888985
1764511816.785776,-1.93802,4.02864,0.62566,0.37133694,0.814023795,-0.449888985
1764511816.785776,-1.93802,4.02864,0.62566,0.37133694,0.814023795,-0.449888985
1764511816.785776,-1.93802,4.02864,0.62566,0.37133694,0.814023795,-0.449888985
1764511816.786296,-1.93802,4.02864,0.62566,0.37133694,0.814023795,-0.449888985
1764511816.7872992,-1.93802,4.02864,0.62566,0.37133694,0.814023795,-0.449888985
1764511816.7872992,-1.93802,4.02864,0.62566,0.37133694,0.814023795,-0.449888985
1764511816.7872992,-1.93802,4.02864,0.77826,0.37133694,0.814023795,-0.450133125
1764511816.7872992,-1.93802,4.02864,0.77826,0.37133694,0.814023795,-0.450133125
1764511816.831985,-1.93802,4.02864,0.77826,0.37133694,0.814023795,-0.450133125
1764511816.831985,-1.93802,4.02864,0.77826,0.37133694,0.814023795,-0.450133125
1764511816.831985,-1.93802,4.02864,0.77826,0.37133694,0.814023795,-0.450133125
1764511816.831985,-1.93802,4.02864,0.77826,0.37133694,0.814023795,-0.450133125
1764511816.831985,-1.93802,4.02864,0.77826,0.37133694,0.814023795,-0.450133125
1764511816.831985,-1.93802,4.02864,0.77826,0.37133694,0.814023795,-0.450133125
1764511816.831985,-1.93802,4.02864,0.77826,0.37133694,0.814023795,-0.450133125
1764511816.831985,-1.93802,4.02864,0.77826,0.37133694,0.814023795,-0.450133125
1764511816.831985,-2.24322,4.1965,0.57988,0.372374535,0.81261999,-0.44848518
1764511816.831985,-2.24322,4.1965,0.57988,0.372374535,0.81261999,-0.44848518
1764511816.831985,-2.24322,4.1965,0.57988,0.372374535,0.81261999,-0.44848518
1764511816.831985,-2.24322,4.1965,0.57988,0.372374535,0.81261999,-0.44848518
1764511816.831985,-2.24322,4.1965,0.57988,0.372374535,0.81261999,-0.44848518
1764511816.8330216,-2.24322,4.1965,0.57988,0.372374535,0.81261999,-0.44848518
1764511816.8330216,-2.24322,4.1965,0.57988,0.372374535,0.81261999,-0.44848518
1764511816.8330216,-2.24322,4.1965,0.57988,0.372374535,0.81261999,-0.44848518
1764511816.8330216,-2.24322,4.1965,0.57988,0.372374535,0.81261999,-0.44848518
1764511816.8330216,-2.24322,4.1965,0.57988,0.372374535,0.81261999,-0.44848518
1764511816.8340049,-1.34288,3.7387,0.71722,0.372374535,0.81127722,-0.44653206
1764511816.8340049,-1.34288,3.7387,0.71722,0.372374535,0.81127722,-0.44653206
1764511816.8340049,-1.34288,3.7387,0.71722,0.372374535,0.81127722,-0.44653206
1764511816.8340049,-1.34288,3.7387,0.71722,0.372374535,0.81127722,-0.44653206
1764511816.8792062,-1.34288,3.7387,0.71722,0.372374535,0.81127722,-0.44653206
1764511816.8792062,-1.34288,3.7387,0.71722,0.372374535,0.81127722,-0.44653206
1764511816.8792062,-1.34288,3.7387,0.71722,0.372374535,0.81127722,-0.44653206
1764511816.8792062,-1.34288,3.7387,0.71722,0.372374535,0.81127722,-0.44653206
1764511816.8792062,-1.34288,3.7387,0.71722,0.372374535,0.81127722,-0.44653206
1764511816.8792062,-1.34288,3.7387,0.71722,0.372374535,0.81127722,-0.44653206
1764511816.8792062,-0.13734,4.22702,0.6714399999999999,0.372496605,0.810483765,-0.44640999
1764511816.8792062,-0.13734,4.22702,0.6714399999999999,0.372496605,0.810483765,-0.44640999
1764511816.8792062,-0.13734,4.22702,0.6714399999999999,0.372496605,0.810483765,-0.44640999
1764511816.8792062,-0.13734,4.22702,0.6714399999999999,0.372496605,0.810483765,-0.44640999
1764511816.8792062,-0.13734,4.22702,0.6714399999999999,0.372496605,0.810483765,-0.44640999
1764511816.8792062,-0.13734,4.22702,0.6714399999999999,0.372496605,0.810483765,-0.44640999
1764511816.8792062,-0.13734,4.22702,0.6714399999999999,0.372496605,0.810483765,-0.44640999
1764511816.8792062,-0.13734,4.22702,0.6714399999999999,0.372496605,0.810483765,-0.44640999
1764511816.8792062,-0.13734,4.22702,0.6714399999999999,0.372496605,0.810483765,-0.44640999
1764511816.8792062,-0.13734,4.22702,0.6714399999999999,0.372496605,0.810483765,-0.44640999
1764511816.880386,-0.18312,4.25754,0.47306,0.37182522,0.81200964,-0.44640999
1764511816.880386,-0.18312,4.25754,0.47306,0.37182522,0.81200964,-0.44640999
1764511816.880386,-0.18312,4.25754,0.47306,0.37182522,0.81200964,-0.44640999
1764511816.880386,-0.18312,4.25754,0.47306,0.37182522,0.81200964,-0.44640999
1764511816.880386,-0.18312,4.25754,0.47306,0.37182522,0.81200964,-0.44640999
1764511816.880386,-0.18312,4.25754,0.47306,0.37182522,0.81200964,-0.44640999
1764511816.880386,-0.18312,4.25754,0.47306,0.37182522,0.81200964,-0.44640999
1764511816.880386,-0.18312,4.25754,0.47306,0.37182522,0.81200964,-0.44640999
1764511816.924299,-0.18312,4.25754,0.47306,0.37182522,0.81200964,-0.44640999
1764511816.924299,-0.18312,4.25754,0.47306,0.37182522,0.81200964,-0.44640999
1764511816.924299,-0.03052,3.7387,0.48832,0.371520045,0.812803095,-0.44653206
1764511816.924299,-0.03052,3.7387,0.48832,0.371520045,0.812803095,-0.44653206
1764511816.924299,-0.03052,3.7387,0.48832,0.371520045,0.812803095,-0.44653206
1764511816.924299,-0.03052,3.7387,0.48832,0.371520045,0.812803095,-0.44653206
1764511816.924299,-0.03052,3.7387,0.48832,0.371520045,0.812803095,-0.44653206
1764511816.924299,-0.03052,3.7387,0.48832,0.371520045,0.812803095,-0.44653206
1764511816.924299,-0.03052,3.7387,0.48832,0.371520045,0.812803095,-0.44653206
1764511816.924299,-0.03052,3.7387,0.48832,0.371520045,0.812803095,-0.44653206
1764511816.924299,-0.03052,3.7387,0.48832,0.371520045,0.812803095,-0.44653206
1764511816.924299,-0.03052,3.7387,0.48832,0.371520045,0.812803095,-0.44653206
1764511816.924299,-0.18312,4.0439,0.50358,0.371397975,0.812803095,-0.44726448
1764511816.924299,-0.18312,4.0439,0.50358,0.371397975,0.812803095,-0.44726448
1764511816.924299,-0.18312,4.0439,0.50358,0.371397975,0.812803095,-0.44726448
1764511816.924299,-0.18312,4.0439,0.50358,0.371397975,0.812803095,-0.44726448
1764511816.9258492,-0.18312,4.0439,0.50358,0.371397975,0.812803095,-0.44726448
1764511816.9258492,-0.18312,4.0439,0.50358,0.371397975,0.812803095,-0.44726448
1764511816.9258492,-0.18312,4.0439,0.50358,0.371397975,0.812803095,-0.44726448
1764511816.9258492,-0.18312,4.0439,0.50358,0.371397975,0.812803095,-0.44726448
1764511816.9258492,-0.18312,4.0439,0.50358,0.371397975,0.812803095,-0.44726448
1764511816.9258492,-0.18312,4.0439,0.50358,0.371397975,0.812803095,-0.44726448
1764511816.9258492,-0.56462,4.22702,0.4578,0.371642115,0.812314815,-0.44726448
1764511816.9258492,-0.56462,4.22702,0.4578,0.371642115,0.812314815,-0.44726448
1764511816.9704664,-0.56462,4.22702,0.4578,0.371642115,0.812314815,-0.44726448
1764511816.9704664,-0.56462,4.22702,0.4578,0.371642115,0.812314815,-0.44726448
1764511816.9704664,-0.56462,4.22702,0.4578,0.371642115,0.812314815,-0.44726448
1764511816.9704664,-0.56462,4.22702,0.4578,0.371642115,0.812314815,-0.44726448
1764511816.9704664,-0.56462,4.22702,0.4578,0.371642115,0.812314815,-0.44726448
1764511816.9704664,-0.56462,4.22702,0.4578,0.371642115,0.812314815,-0.44726448
1764511816.9704664,-0.56462,4.22702,0.4578,0.371642115,0.812314815,-0.44726448
1764511816.9704664,-0.56462,4.22702,0.4578,0.371642115,0.812314815,-0.44726448
1764511816.9704664,-1.4039199999999998,3.99812,0.54936,0.37206936,0.814023795,-0.44787483
1764511816.9704664,-1.4039199999999998,3.99812,0.54936,0.37206936,0.814023795,-0.44787483
1764511816.9743323,-1.4039199999999998,3.99812,0.54936,0.37206936,0.814023795,-0.44787483
1764511816.974711,-1.4039199999999998,3.99812,0.54936,0.37206936,0.814023795,-0.44787483
1764511816.974711,-1.4039199999999998,3.99812,0.54936,0.37206936,0.814023795,-0.44787483
1764511816.974711,-1.4039199999999998,3.99812,0.54936,0.37206936,0.814023795,-0.44787483
1764511816.974711,-1.4039199999999998,3.99812,0.54936,0.37206936,0.814023795,-0.44787483
1764511816.9753163,-1.4039199999999998,3.99812,0.54936,0.37206936,0.814023795,-0.44787483
1764511816.9753163,-1.4039199999999998,3.99812,0.54936,0.37206936,0.814023795,-0.44787483
1764511816.9753163,-1.4039199999999998,3.99812,0.54936,0.37206936,0.814023795,-0.44787483
1764511816.9753163,-2.04484,3.76922,1.05294,0.370543485,0.81335241,-0.446593095
1764511816.9753163,-2.04484,3.76922,1.05294,0.370543485,0.81335241,-0.446593095
1764511817.020789,-2.04484,3.76922,1.05294,0.370543485,0.81335241,-0.446593095
1764511817.020789,-2.04484,3.76922,1.05294,0.370543485,0.81335241,-0.446593095
1764511817.020789,-2.04484,3.76922,1.05294,0.370543485,0.81335241,-0.446593095
1764511817.020789,-2.04484,3.76922,1.05294,0.370543485,0.81335241,-0.446593095
1764511817.020789,-2.04484,3.76922,1.05294,0.370543485,0.81335241,-0.446593095
1764511817.020789,-2.04484,3.76922,1.05294,0.370543485,0.81335241,-0.446593095
1764511817.020789,-2.04484,3.76922,1.05294,0.370543485,0.81335241,-0.446593095
1764511817.020789,-2.04484,3.76922,1.05294,0.370543485,0.81335241,-0.446593095
1764511817.020789,-1.49548,3.64714,0.6714399999999999,0.37182522,0.81359655,-0.446104815
1764511817.020789,-1.49548,3.64714,0.6714399999999999,0.37182522,0.81359655,-0.446104815
1764511817.020789,-1.49548,3.64714,0.6714399999999999,0.37182522,0.81359655,-0.446104815
1764511817.020789,-1.49548,3.64714,0.6714399999999999,0.37182522,0.81359655,-0.446104815
1764511817.020789,-1.49548,3.64714,0.6714399999999999,0.37182522,0.81359655,-0.446104815
1764511817.020789,-1.49548,3.64714,0.6714399999999999,0.37182522,0.81359655,-0.446104815
1764511817.020789,-1.49548,3.64714,0.6714399999999999,0.37182522,0.81359655,-0.446104815
1764511817.020789,-1.49548,3.64714,0.6714399999999999,0.37182522,0.81359655,-0.446104815
1764511817.020789,-1.49548,3.64714,0.6714399999999999,0.37182522,0.81359655,-0.446104815
1764511817.020789,-1.49548,3.64714,0.6714399999999999,0.37182522,0.81359655,-0.446104815
1764511817.020789,-1.51074,4.33384,0.9919,0.37341213,0.8147562150000001,-0.44470101
1764511817.020789,-1.51074,4.33384,0.9919,0.37341213,0.8147562150000001,-0.44470101
1764511817.020789,-1.51074,4.33384,0.9919,0.37341213,0.8147562150000001,-0.44470101
1764511817.020789,-1.51074,4.33384,0.9919,0.37341213,0.8147562150000001,-0.44470101
1764511817.020789,-1.51074,4.33384,0.9919,0.37341213,0.8147562150000001,-0.44470101
1764511817.020789,-1.51074,4.33384,0.9919,0.37341213,0.8147562150000001,-0.44470101
1764511817.020789,-1.51074,4.33384,0.9919,0.37341213,0.8147562150000001,-0.44470101
1764511817.020789,-1.51074,4.33384,0.9919,0.37341213,0.8147562150000001,-0.44470101
1764511817.0666645,-1.51074,4.33384,0.9919,0.37341213,0.8147562150000001,-0.44470101
1764511817.0666645,-1.51074,4.33384,0.9919,0.37341213,0.8147562150000001,-0.44470101
1764511817.0666645,0.41202,3.78448,0.79352,0.37194729,0.81225378,-0.44274789
1764511817.0666645,0.41202,3.78448,0.79352,0.37194729,0.81225378,-0.44274789
1764511817.0666645,0.41202,3.78448,0.79352,0.37194729,0.81225378,-0.44274789
1764511817.067664,0.41202,3.78448,0.79352,0.37194729,0.81225378,-0.44274789
1764511817.067664,0.41202,3.78448,0.79352,0.37194729,0.81225378,-0.44274789
1764511817.067664,0.41202,3.78448,0.79352,0.37194729,0.81225378,-0.44274789
1764511817.067664,0.41202,3.78448,0.79352,0.37194729,0.81225378,-0.44274789
1764511817.067664,0.41202,3.78448,0.79352,0.37194729,0.81225378,-0.44274789
1764511817.067664,0.41202,3.78448,0.79352,0.37194729,0.81225378,-0.44274789
1764511817.067664,0.41202,3.78448,0.79352,0.37194729,0.81225378,-0.44274789
1764511817.067664,1.9075,3.70818,-0.24416,0.372984885,0.81103308,-0.44445687
1764511817.0680857,1.9075,3.70818,-0.24416,0.372984885,0.81103308,-0.44445687
1764511817.0680857,1.9075,3.70818,-0.24416,0.372984885,0.81103308,-0.44445687
1764511817.0680857,1.9075,3.70818,-0.24416,0.372984885,0.81103308,-0.44445687
1764511817.0680857,1.9075,3.70818,-0.24416,0.372984885,0.81103308,-0.44445687
1764511817.0680857,1.9075,3.70818,-0.24416,0.372984885,0.81103308,-0.44445687
1764511817.0680857,1.9075,3.70818,-0.24416,0.372984885,0.81103308,-0.44445687
1764511817.0680857,1.9075,3.70818,-0.24416,0.372984885,0.81103308,-0.44445687
1764511817.0680857,1.9075,3.70818,-0.24416,0.372984885,0.81103308,-0.44445687
1764511817.0680857,1.9075,3.70818,-0.24416,0.372984885,0.81103308,-0.44445687
1764511817.1110764,-0.41202,4.21176,0.3357199999999999,0.37329006,0.81286413,-0.447081375
1764511817.1110764,-0.41202,4.21176,0.3357199999999999,0.37329006,0.81286413,-0.447081375
1764511817.1110764,-0.41202,4.21176,0.3357199999999999,0.37329006,0.81286413,-0.447081375
1764511817.1110764,-0.41202,4.21176,0.3357199999999999,0.37329006,0.81286413,-0.447081375
1764511817.1110764,-0.41202,4.21176,0.3357199999999999,0.37329006,0.81286413,-0.447081375
1764511817.1110764,-0.41202,4.21176,0.3357199999999999,0.37329006,0.81286413,-0.447081375
1764511817.1110764,-0.41202,4.21176,0.3357199999999999,0.37329006,0.81286413,-0.447081375
1764511817.1110764,-0.41202,4.21176,0.3357199999999999,0.37329006,0.81286413,-0.447081375
1764511817.1110764,-0.41202,4.21176,0.3357199999999999,0.37329006,0.81286413,-0.447081375
1764511817.1110764,-0.41202,4.21176,0.3357199999999999,0.37329006,0.81286413,-0.447081375
1764511817.1110764,-2.09062,3.75396,0.59514,0.370787625,0.814512075,-0.449400705
1764511817.1110764,-2.09062,3.75396,0.59514,0.370787625,0.814512075,-0.449400705
1764511817.1110764,-2.09062,3.75396,0.59514,0.370787625,0.814512075,-0.449400705
1764511817.1110764,-2.09062,3.75396,0.59514,0.370787625,0.814512075,-0.449400705
1764511817.1110764,-2.09062,3.75396,0.59514,0.370787625,0.814512075,-0.449400705
1764511817.1110764,-2.09062,3.75396,0.59514,0.370787625,0.814512075,-0.449400705
1764511817.1110764,-2.09062,3.75396,0.59514,0.370787625,0.814512075,-0.449400705
1764511817.1110764,-2.09062,3.75396,0.59514,0.370787625,0.814512075,-0.449400705
1764511817.1110764,-2.09062,3.75396,0.59514,0.370787625,0.814512075,-0.449400705
1764511817.1110764,-2.09062,3.75396,0.59514,0.370787625,0.814512075,-0.449400705
1764511817.1110764,-2.48738,3.79974,0.9156,0.36950589,0.81396276,-0.44946174
1764511817.1110764,-2.48738,3.79974,0.9156,0.36950589,0.81396276,-0.44946174
1764511817.1110764,-2.48738,3.79974,0.9156,0.36950589,0.81396276,-0.44946174
1764511817.1110764,-2.48738,3.79974,0.9156,0.36950589,0.81396276,-0.44946174
1764511817.1585913,-2.48738,3.79974,0.9156,0.36950589,0.81396276,-0.44946174
1764511817.1585913,-2.48738,3.79974,0.9156,0.36950589,0.81396276,-0.44946174
1764511817.1585913,-2.48738,3.79974,0.9156,0.36950589,0.81396276,-0.44946174
1764511817.1585913,-2.48738,3.79974,0.9156,0.36950589,0.81396276,-0.44946174
1764511817.1585913,-2.48738,3.79974,0.9156,0.36950589,0.81396276,-0.44946174
1764511817.1585913,-2.48738,3.79974,0.9156,0.36950589,0.81396276,-0.44946174
1764511817.1585913,-1.2055399999999998,4.45592,0.8087799999999999,0.370299345,0.81115515,-0.44763069
1764511817.1585913,-1.2055399999999998,4.45592,0.8087799999999999,0.370299345,0.81115515,-0.44763069
1764511817.1585913,-1.2055399999999998,4.45592,0.8087799999999999,0.370299345,0.81115515,-0.44763069
1764511817.1585913,-1.2055399999999998,4.45592,0.8087799999999999,0.370299345,0.81115515,-0.44763069
1764511817.1585913,-1.2055399999999998,4.45592,0.8087799999999999,0.370299345,0.81115515,-0.44763069
1764511817.1585913,-1.2055399999999998,4.45592,0.8087799999999999,0.370299345,0.81115515,-0.44763069
1764511817.1585913,-1.2055399999999998,4.45592,0.8087799999999999,0.370299345,0.81115515,-0.44763069
1764511817.1585913,-1.2055399999999998,4.45592,0.8087799999999999,0.370299345,0.81115515,-0.44763069
1764511817.1585913,-1.2055399999999998,4.45592,0.8087799999999999,0.370299345,0.81115515,-0.44763069
1764511817.1585913,-1.2055399999999998,4.45592,0.8087799999999999,0.370299345,0.81115515,-0.44763069
1764511817.1596224,0.44254,4.21176,0.04578,0.37194729,0.81066687,-0.4455555
1764511817.1596224,0.44254,4.21176,0.04578,0.37194729,0.81066687,-0.4455555
1764511817.1596224,0.44254,4.21176,0.04578,0.37194729,0.81066687,-0.4455555
1764511817.1596224,0.44254,4.21176,0.04578,0.37194729,0.81066687,-0.4455555
1764511817.1596224,0.44254,4.21176,0.04578,0.37194729,0.81066687,-0.4455555
1764511817.1596224,0.44254,4.21176,0.04578,0.37194729,0.81066687,-0.4455555
1764511817.1596224,0.44254,4.21176,0.04578,0.37194729,0.81066687,-0.4455555
1764511817.1596224,0.44254,4.21176,0.04578,0.37194729,0.81066687,-0.4455555
1764511817.2021732,0.44254,4.21176,0.04578,0.37194729,0.81066687,-0.4455555
1764511817.2021732,0.44254,4.21176,0.04578,0.37194729,0.81066687,-0.4455555
1764511817.2021732,0.7019599999999999,4.059159999999999,0.2289,0.37267971,0.812558955,-0.44579964
1764511817.2021732,0.7019599999999999,4.059159999999999,0.2289,0.37267971,0.812558955,-0.44579964
1764511817.2021732,0.7019599999999999,4.059159999999999,0.2289,0.37267971,0.812558955,-0.44579964
1764511817.2032254,0.7019599999999999,4.059159999999999,0.2289,0.37267971,0.812558955,-0.44579964
1764511817.2032254,0.7019599999999999,4.059159999999999,0.2289,0.37267971,0.812558955,-0.44579964
1764511817.2032254,0.7019599999999999,4.059159999999999,0.2289,0.37267971,0.812558955,-0.44579964
1764511817.2032254,0.7019599999999999,4.059159999999999,0.2289,0.37267971,0.812558955,-0.44579964
1764511817.2032254,0.7019599999999999,4.059159999999999,0.2289,0.37267971,0.812558955,-0.44579964
1764511817.2032254,0.7019599999999999,4.059159999999999,0.2289,0.37267971,0.812558955,-0.44579964
1764511817.2032254,0.7019599999999999,4.059159999999999,0.2289,0.37267971,0.812558955,-0.44579964
1764511817.2032254,0.0,3.64714,0.0,0.372130395,0.8142069000000001,-0.446348955
1764511817.2032254,0.0,3.64714,0.0,0.372130395,0.8142069000000001,-0.446348955
1764511817.2032254,0.0,3.64714,0.0,0.372130395,0.8142069000000001,-0.446348955
1764511817.2032254,0.0,3.64714,0.0,0.372130395,0.8142069000000001,-0.446348955
1764511817.2032254,0.0,3.64714,0.0,0.372130395,0.8142069000000001,-0.446348955
1764511817.2032254,0.0,3.64714,0.0,0.372130395,0.8142069000000001,-0.446348955
1764511817.2032254,0.0,3.64714,0.0,0.372130395,0.8142069000000001,-0.446348955
1764511817.2032254,0.0,3.64714,0.0,0.372130395,0.8142069000000001,-0.446348955
1764511817.2032254,0.0,3.64714,0.0,0.372130395,0.8142069000000001,-0.446348955
1764511817.2032254,0.0,3.64714,0.0,0.372130395,0.8142069000000001,-0.446348955
1764511817.2032254,-0.04578,4.31858,1.05294,0.37158108,0.81457311,-0.445250325
1764511817.2032254,-0.04578,4.31858,1.05294,0.37158108,0.81457311,-0.445250325
1764511817.2523818,-0.04578,4.31858,1.05294,0.37158108,0.81457311,-0.445250325
1764511817.2523818,-0.04578,4.31858,1.05294,0.37158108,0.81457311,-0.445250325
1764511817.2523818,-0.04578,4.31858,1.05294,0.37158108,0.81457311,-0.445250325
1764511817.2523818,-0.04578,4.31858,1.05294,0.37158108,0.81457311,-0.445250325
1764511817.2523818,-0.04578,4.31858,1.05294,0.37158108,0.81457311,-0.445250325
1764511817.2534044,-0.04578,4.31858,1.05294,0.37158108,0.81457311,-0.445250325
1764511817.2534044,-0.04578,4.31858,1.05294,0.37158108,0.81457311,-0.445250325
1764511817.2534044,-0.04578,4.31858,1.05294,0.37158108,0.81457311,-0.445250325
1764511817.2534044,-1.02242,3.46402,0.57988,0.371397975,0.814145865,-0.44579964
1764511817.2534044,-1.02242,3.46402,0.57988,0.371397975,0.814145865,-0.44579964
1764511817.2534044,-1.02242,3.46402,0.57988,0.371397975,0.814145865,-0.44579964
1764511817.2534044,-1.02242,3.46402,0.57988,0.371397975,0.814145865,-0.44579964
1764511817.2543952,-1.02242,3.46402,0.57988,0.371397975,0.814145865,-0.44579964
1764511817.2543952,-1.02242,3.46402,0.57988,0.371397975,0.814145865,-0.44579964
1764511817.2543952,-1.02242,3.46402,0.57988,0.371397975,0.814145865,-0.44579964
1764511817.2543952,-1.02242,3.46402,0.57988,0.371397975,0.814145865,-0.44579964
1764511817.2543952,-1.02242,3.46402,0.57988,0.371397975,0.814145865,-0.44579964
1764511817.2543952,-1.02242,3.46402,0.57988,0.371397975,0.814145865,-0.44579964
1764511817.2543952,-0.763,4.22702,0.97664,0.37243557,0.81554967,-0.4467762
1764511817.2543952,-0.763,4.22702,0.97664,0.37243557,0.81554967,-0.4467762
1764511817.2543952,-0.763,4.22702,0.97664,0.37243557,0.81554967,-0.4467762
1764511817.2543952,-0.763,4.22702,0.97664,0.37243557,0.81554967,-0.4467762
1764511817.2950494,-0.763,4.22702,0.97664,0.37243557,0.81554967,-0.4467762
1764511817.2950494,-0.763,4.22702,0.97664,0.37243557,0.81554967,-0.4467762
1764511817.2950494,-0.763,4.22702,0.97664,0.37243557,0.81554967,-0.4467762
1764511817.2950494,-0.763,4.22702,0.97664,0.37243557,0.81554967,-0.4467762
1764511817.2950494,-0.763,4.22702,0.97664,0.37243557,0.81554967,-0.4467762
1764511817.2950494,-0.763,4.22702,0.97664,0.37243557,0.81554967,-0.4467762
1764511817.296063,-1.6633399999999998,3.2809,0.763,0.372008325,0.814390005,-0.446593095
1764511817.296063,-1.6633399999999998,3.2809,0.763,0.372008325,0.814390005,-0.446593095
1764511817.296063,-1.6633399999999998,3.2809,0.763,0.372008325,0.814390005,-0.446593095
1764511817.296063,-1.6633399999999998,3.2809,0.763,0.372008325,0.814390005,-0.446593095
1764511817.296063,-1.6633399999999998,3.2809,0.763,0.372008325,0.814390005,-0.446593095
1764511817.296063,-1.6633399999999998,3.2809,0.763,0.372008325,0.814390005,-0.446593095
1764511817.296063,-1.6633399999999998,3.2809,0.763,0.372008325,0.814390005,-0.446593095
1764511817.296063,-1.6633399999999998,3.2809,0.763,0.372008325,0.814390005,-0.446593095
1764511817.296063,-1.6633399999999998,3.2809,0.763,0.372008325,0.814390005,-0.446593095
1764511817.296063,-1.6633399999999998,3.2809,0.763,0.372008325,0.814390005,-0.446593095
1764511817.296063,-0.77826,3.75396,0.88508,0.37194729,0.812192745,-0.446104815
1764511817.296063,-0.77826,3.75396,0.88508,0.37194729,0.812192745,-0.446104815
1764511817.296063,-0.77826,3.75396,0.88508,0.37194729,0.812192745,-0.446104815
1764511817.296063,-0.77826,3.75396,0.88508,0.37194729,0.812192745,-0.446104815
1764511817.296063,-0.77826,3.75396,0.88508,0.37194729,0.812192745,-0.446104815
1764511817.2970598,-0.77826,3.75396,0.88508,0.37194729,0.812192745,-0.446104815
1764511817.2970598,-0.77826,3.75396,0.88508,0.37194729,0.812192745,-0.446104815
1764511817.2970598,-0.77826,3.75396,0.88508,0.37194729,0.812192745,-0.446104815
1764511817.3447008,-0.77826,3.75396,0.88508,0.37194729,0.812192745,-0.446104815
1764511817.3447008,-0.77826,3.75396,0.88508,0.37194729,0.812192745,-0.446104815
1764511817.3447008,-1.1445,4.28806,0.6867,0.372252465,0.813901725,-0.44702034
1764511817.3447008,-1.1445,4.28806,0.6867,0.372252465,0.813901725,-0.44702034
1764511817.3447008,-1.1445,4.28806,0.6867,0.372252465,0.813901725,-0.44702034
1764511817.3447008,-1.1445,4.28806,0.6867,0.372252465,0.813901725,-0.44702034
1764511817.3447008,-1.1445,4.28806,0.6867,0.372252465,0.813901725,-0.44702034
1764511817.3447008,-1.1445,4.28806,0.6867,0.372252465,0.813901725,-0.44702034
1764511817.3447008,-1.1445,4.28806,0.6867,0.372252465,0.813901725,-0.44702034
1764511817.3447008,-1.1445,4.28806,0.6867,0.372252465,0.813901725,-0.44702034
1764511817.3447008,-1.1445,4.28806,0.6867,0.372252465,0.813901725,-0.44702034
1764511817.3447008,-1.1445,4.28806,0.6867,0.372252465,0.813901725,-0.44702034
1764511817.3447008,-1.49548,3.79974,0.73248,0.370543485,0.81652623,-0.447691725
1764511817.3447008,-1.49548,3.79974,0.73248,0.370543485,0.81652623,-0.447691725
1764511817.3447008,-1.49548,3.79974,0.73248,0.370543485,0.81652623,-0.447691725
1764511817.3447008,-1.49548,3.79974,0.73248,0.370543485,0.81652623,-0.447691725
1764511817.3447008,-1.49548,3.79974,0.73248,0.370543485,0.81652623,-0.447691725
1764511817.3447008,-1.49548,3.79974,0.73248,0.370543485,0.81652623,-0.447691725
1764511817.3447008,-1.49548,3.79974,0.73248,0.370543485,0.81652623,-0.447691725
1764511817.3447008,-1.49548,3.79974,0.73248,0.370543485,0.81652623,-0.447691725
1764511817.3447008,-1.49548,3.79974,0.73248,0.370543485,0.81652623,-0.447691725
1764511817.3447008,-1.49548,3.79974,0.73248,0.370543485,0.81652623,-0.447691725
1764511817.3899765,-2.01432,3.83026,1.1445,0.369322785,0.81628209,-0.446959305
1764511817.4003243,-2.01432,3.83026,1.1445,0.369322785,0.81628209,-0.446959305
1764511817.4003243,-2.01432,3.83026,1.1445,0.369322785,0.81628209,-0.446959305
1764511817.4003243,-2.01432,3.83026,1.1445,0.369322785,0.81628209,-0.446959305
1764511817.4003243,-2.01432,3.83026,1.1445,0.369322785,0.81628209,-0.446959305
1764511817.4003243,-2.01432,3.83026,1.1445,0.369322785,0.81628209,-0.446959305
1764511817.4003243,-2.01432,3.83026,1.1445,0.369322785,0.81628209,-0.446959305
1764511817.4018354,-2.01432,3.83026,1.1445,0.369322785,0.81628209,-0.446959305
1764511817.4018354,-2.01432,3.83026,1.1445,0.369322785,0.81628209,-0.446959305
1764511817.402383,-2.01432,3.83026,1.1445,0.369322785,0.81628209,-0.446959305
1764511817.402383,-2.16692,4.440659999999999,1.1445,0.36962796,0.81469518,-0.445860675
1764511817.402383,-2.16692,4.440659999999999,1.1445,0.36962796,0.81469518,-0.445860675
1764511817.4034016,-2.16692,4.440659999999999,1.1445,0.36962796,0.81469518,-0.445860675
1764511817.4034016,-2.16692,4.440659999999999,1.1445,0.36962796,0.81469518,-0.445860675
1764511817.4034016,-2.16692,4.440659999999999,1.1445,0.36962796,0.81469518,-0.445860675
1764511817.4034016,-2.16692,4.440659999999999,1.1445,0.36962796,0.81469518,-0.445860675
1764511817.4034016,-2.16692,4.440659999999999,1.1445,0.36962796,0.81469518,-0.445860675
1764511817.4034016,-2.16692,4.440659999999999,1.1445,0.36962796,0.81469518,-0.445860675
1764511817.4034016,-2.16692,4.440659999999999,1.1445,0.36962796,0.81469518,-0.445860675
1764511817.4034016,-2.16692,4.440659999999999,1.1445,0.36962796,0.81469518,-0.445860675
1764511817.4034016,-0.94612,3.75396,0.9156,0.37023831,0.81164343,-0.44482308
1764511817.4034016,-0.94612,3.75396,0.9156,0.37023831,0.81164343,-0.44482308
1764511817.4034016,-0.94612,3.75396,0.9156,0.37023831,0.81164343,-0.44482308
1764511817.4034016,-0.94612,3.75396,0.9156,0.37023831,0.81164343,-0.44482308
1764511817.4362712,-0.94612,3.75396,0.9156,0.37023831,0.81164343,-0.44482308
1764511817.4362712,-0.94612,3.75396,0.9156,0.37023831,0.81164343,-0.44482308
1764511817.4362712,-0.94612,3.75396,0.9156,0.37023831,0.81164343,-0.44482308
1764511817.4362712,-0.94612,3.75396,0.9156,0.37023831,0.81164343,-0.44482308
1764511817.4362712,-0.94612,3.75396,0.9156,0.37023831,0.81164343,-0.44482308
1764511817.4378698,-0.94612,3.75396,0.9156,0.37023831,0.81164343,-0.44482308
1764511817.4378698,-0.19838,3.78448,0.51884,0.371031765,0.81164343,-0.44494515
1764511817.4378698,-0.19838,3.78448,0.51884,0.371031765,0.81164343,-0.44494515
1764511817.4378698,-0.19838,3.78448,0.51884,0.371031765,0.81164343,-0.44494515
1764511817.4378698,-0.19838,3.78448,0.51884,0.371031765,0.81164343,-0.44494515
1764511817.4389088,-0.19838,3.78448,0.51884,0.371031765,0.81164343,-0.44494515
1764511817.4389088,-0.19838,3.78448,0.51884,0.371031765,0.81164343,-0.44494515
1764511817.4389088,-0.19838,3.78448,0.51884,0.371031765,0.81164343,-0.44494515
1764511817.4389088,-0.19838,3.78448,0.51884,0.371031765,0.81164343,-0.44494515
1764511817.4399092,-0.19838,3.78448,0.51884,0.371031765,0.81164343,-0.44494515
1764511817.4399092,-0.19838,3.78448,0.51884,0.371031765,0.81164343,-0.44494515
1764511817.4399092,-0.13734,3.84552,0.763,0.372008325,0.812803095,-0.4455555
1764511817.4399092,-0.13734,3.84552,0.763,0.372008325,0.812803095,-0.4455555
1764511817.4399092,-0.13734,3.84552,0.763,0.372008325,0.812803095,-0.4455555
1764511817.4409082,-0.13734,3.84552,0.763,0.372008325,0.812803095,-0.4455555
1764511817.4409082,-0.13734,3.84552,0.763,0.372008325,0.812803095,-0.4455555
1764511817.4409082,-0.13734,3.84552,0.763,0.372008325,0.812803095,-0.4455555
1764511817.4810266,-0.13734,3.84552,0.763,0.372008325,0.812803095,-0.4455555
1764511817.4810266,-0.13734,3.84552,0.763,0.372008325,0.812803095,-0.4455555
1764511817.4815369,-0.13734,3.84552,0.763,0.372008325,0.812803095,-0.4455555
1764511817.4815369,-0.13734,3.84552,0.763,0.372008325,0.812803095,-0.4455555
1764511817.4815369,-0.44254,4.01338,0.54936,0.37121487,0.813413445,-0.44604378
1764511817.4815369,-0.44254,4.01338,0.54936,0.37121487,0.813413445,-0.44604378
1764511817.4820716,-0.44254,4.01338,0.54936,0.37121487,0.813413445,-0.44604378
1764511817.4830835,-0.44254,4.01338,0.54936,0.37121487,0.813413445,-0.44604378
1764511817.483591,-0.44254,4.01338,0.54936,0.37121487,0.813413445,-0.44604378
1764511817.483591,-0.44254,4.01338,0.54936,0.37121487,0.813413445,-0.44604378
1764511817.483591,-0.44254,4.01338,0.54936,0.37121487,0.813413445,-0.44604378
1764511817.483591,-0.44254,4.01338,0.54936,0.37121487,0.813413445,-0.44604378
1764511817.484605,-0.44254,4.01338,0.54936,0.37121487,0.813413445,-0.44604378
1764511817.484605,-0.44254,4.01338,0.54936,0.37121487,0.813413445,-0.44604378
1764511817.4855986,-0.3204599999999999,4.10494,0.36624,0.372130395,0.81323034,-0.446593095
1764511817.4861093,-0.3204599999999999,4.10494,0.36624,0.372130395,0.81323034,-0.446593095
1764511817.48658,-0.3204599999999999,4.10494,0.36624,0.372130395,0.81323034,-0.446593095
1764511817.48658,-0.3204599999999999,4.10494,0.36624,0.372130395,0.81323034,-0.446593095
1764511817.48658,-0.3204599999999999,4.10494,0.36624,0.372130395,0.81323034,-0.446593095
1764511817.48658,-0.3204599999999999,4.10494,0.36624,0.372130395,0.81323034,-0.446593095
1764511817.53218,-0.3204599999999999,4.10494,0.36624,0.372130395,0.81323034,-0.446593095
1764511817.53218,-0.3204599999999999,4.10494,0.36624,0.372130395,0.81323034,-0.446593095
1764511817.53218,-0.3204599999999999,4.10494,0.36624,0.372130395,0.81323034,-0.446593095
1764511817.53218,-0.3204599999999999,4.10494,0.36624,0.372130395,0.81323034,-0.446593095
1764511817.5336406,-0.763,3.99812,0.25942,0.371275905,0.8142069000000001,-0.44763069
1764511817.5336406,-0.763,3.99812,0.25942,0.371275905,0.8142069000000001,-0.44763069
1764511817.5336406,-0.763,3.99812,0.25942,0.371275905,0.8142069000000001,-0.44763069
1764511817.5336406,-0.763,3.99812,0.25942,0.371275905,0.8142069000000001,-0.44763069
1764511817.5336406,-0.763,3.99812,0.25942,0.371275905,0.8142069000000001,-0.44763069
1764511817.5336406,-0.763,3.99812,0.25942,0.371275905,0.8142069000000001,-0.44763069
1764511817.5336406,-0.763,3.99812,0.25942,0.371275905,0.8142069000000001,-0.44763069
1764511817.5336406,-0.763,3.99812,0.25942,0.371275905,0.8142069000000001,-0.44763069
1764511817.5336406,-0.763,3.99812,0.25942,0.371275905,0.8142069000000001,-0.44763069
1764511817.5336406,-0.763,3.99812,0.25942,0.371275905,0.8142069000000001,-0.44763069
1764511817.5336406,-1.35814,3.75396,0.6103999999999999,0.371275905,0.815000355,-0.447569655
1764511817.5336406,-1.35814,3.75396,0.6103999999999999,0.371275905,0.815000355,-0.447569655
1764511817.5336406,-1.35814,3.75396,0.6103999999999999,0.371275905,0.815000355,-0.447569655
1764511817.5336406,-1.35814,3.75396,0.6103999999999999,0.371275905,0.815000355,-0.447569655
1764511817.5336406,-1.35814,3.75396,0.6103999999999999,0.371275905,0.815000355,-0.447569655
1764511817.5336406,-1.35814,3.75396,0.6103999999999999,0.371275905,0.815000355,-0.447569655
1764511817.5336406,-1.35814,3.75396,0.6103999999999999,0.371275905,0.815000355,-0.447569655
1764511817.5336406,-1.35814,3.75396,0.6103999999999999,0.371275905,0.815000355,-0.447569655
1764511817.534655,-1.35814,3.75396,0.6103999999999999,0.371275905,0.815000355,-0.447569655
1764511817.534655,-1.35814,3.75396,0.6103999999999999,0.371275905,0.815000355,-0.447569655
1764511817.5744936,-1.61756,3.98286,0.65618,0.371886255,0.81408483,-0.446348955
1764511817.5744936,-1.61756,3.98286,0.65618,0.371886255,0.81408483,-0.446348955
1764511817.5744936,-1.61756,3.98286,0.65618,0.371886255,0.81408483,-0.446348955
1764511817.5744936,-1.61756,3.98286,0.65618,0.371886255,0.81408483,-0.446348955
1764511817.5744936,-1.61756,3.98286,0.65618,0.371886255,0.81408483,-0.446348955
1764511817.5744936,-1.61756,3.98286,0.65618,0.371886255,0.81408483,-0.446348955
1764511817.5744936,-1.61756,3.98286,0.65618,0.371886255,0.81408483,-0.446348955
1764511817.5744936,-1.61756,3.98286,0.65618,0.371886255,0.81408483,-0.446348955
1764511817.5744936,-1.61756,3.98286,0.65618,0.371886255,0.81408483,-0.446348955
1764511817.5744936,-1.61756,3.98286,0.65618,0.371886255,0.81408483,-0.446348955
1764511817.576503,-0.6409199999999999,4.01338,1.03768,0.37267971,0.8126810250000001,-0.4455555
1764511817.576503,-0.6409199999999999,4.01338,1.03768,0.37267971,0.8126810250000001,-0.4455555
1764511817.576503,-0.6409199999999999,4.01338,1.03768,0.37267971,0.8126810250000001,-0.4455555
1764511817.576503,-0.6409199999999999,4.01338,1.03768,0.37267971,0.8126810250000001,-0.4455555
1764511817.576503,-0.6409199999999999,4.01338,1.03768,0.37267971,0.8126810250000001,-0.4455555
1764511817.576503,-0.6409199999999999,4.01338,1.03768,0.37267971,0.8126810250000001,-0.4455555
1764511817.576503,-0.6409199999999999,4.01338,1.03768,0.37267971,0.8126810250000001,-0.4455555
1764511817.576503,-0.6409199999999999,4.01338,1.03768,0.37267971,0.8126810250000001,-0.4455555
1764511817.5770097,-0.6409199999999999,4.01338,1.03768,0.37267971,0.8126810250000001,-0.4455555
1764511817.5770097,-0.6409199999999999,4.01338,1.03768,0.37267971,0.8126810250000001,-0.4455555
1764511817.5770097,-0.1678599999999999,4.16598,0.6103999999999999,0.37170315,0.81261999,-0.44494515
1764511817.5770097,-0.1678599999999999,4.16598,0.6103999999999999,0.37170315,0.81261999,-0.44494515
1764511817.5770097,-0.1678599999999999,4.16598,0.6103999999999999,0.37170315,0.81261999,-0.44494515
1764511817.5770097,-0.1678599999999999,4.16598,0.6103999999999999,0.37170315,0.81261999,-0.44494515
1764511817.5770097,-0.1678599999999999,4.16598,0.6103999999999999,0.37170315,0.81261999,-0.44494515
1764511817.5770097,-0.1678599999999999,4.16598,0.6103999999999999,0.37170315,0.81261999,-0.44494515
1764511817.6247852,-0.1678599999999999,4.16598,0.6103999999999999,0.37170315,0.81261999,-0.44494515
1764511817.6247852,-0.1678599999999999,4.16598,0.6103999999999999,0.37170315,0.81261999,-0.44494515
1764511817.6247852,-0.1678599999999999,4.16598,0.6103999999999999,0.37170315,0.81261999,-0.44494515
1764511817.6247852,-0.1678599999999999,4.16598,0.6103999999999999,0.37170315,0.81261999,-0.44494515
1764511817.6247852,0.28994,3.92182,0.6714399999999999,0.371520045,0.81310827,-0.446226885
1764511817.6247852,0.28994,3.92182,0.6714399999999999,0.371520045,0.81310827,-0.446226885
1764511817.6247852,0.28994,3.92182,0.6714399999999999,0.371520045,0.81310827,-0.446226885
1764511817.6247852,0.28994,3.92182,0.6714399999999999,0.371520045,0.81310827,-0.446226885
1764511817.6247852,0.28994,3.92182,0.6714399999999999,0.371520045,0.81310827,-0.446226885
1764511817.6247852,0.28994,3.92182,0.6714399999999999,0.371520045,0.81310827,-0.446226885
1764511817.6247852,0.28994,3.92182,0.6714399999999999,0.371520045,0.81310827,-0.446226885
1764511817.6247852,0.28994,3.92182,0.6714399999999999,0.371520045,0.81310827,-0.446226885
1764511817.6247852,0.28994,3.92182,0.6714399999999999,0.371520045,0.81310827,-0.446226885
1764511817.6247852,0.28994,3.92182,0.6714399999999999,0.371520045,0.81310827,-0.446226885
1764511817.6247852,-0.3051999999999999,3.86078,0.13734,0.371764185,0.814390005,-0.44640999
1764511817.6247852,-0.3051999999999999,3.86078,0.13734,0.371764185,0.814390005,-0.44640999
1764511817.6247852,-0.3051999999999999,3.86078,0.13734,0.371764185,0.814390005,-0.44640999
1764511817.6247852,-0.3051999999999999,3.86078,0.13734,0.371764185,0.814390005,-0.44640999
1764511817.6247852,-0.3051999999999999,3.86078,0.13734,0.371764185,0.814390005,-0.44640999
1764511817.6247852,-0.3051999999999999,3.86078,0.13734,0.371764185,0.814390005,-0.44640999
1764511817.6247852,-0.3051999999999999,3.86078,0.13734,0.371764185,0.814390005,-0.44640999
1764511817.6257756,-0.3051999999999999,3.86078,0.13734,0.371764185,0.814390005,-0.44640999
1764511817.6707804,-0.3051999999999999,3.86078,0.13734,0.371764185,0.814390005,-0.44640999
1764511817.6707804,-0.3051999999999999,3.86078,0.13734,0.371764185,0.814390005,-0.44640999
1764511817.6707804,-0.25942,3.75396,0.59514,0.37145901,0.81567174,-0.446471025
1764511817.6707804,-0.25942,3.75396,0.59514,0.37145901,0.81567174,-0.446471025
1764511817.6707804,-0.25942,3.75396,0.59514,0.37145901,0.81567174,-0.446471025
1764511817.6707804,-0.25942,3.75396,0.59514,0.37145901,0.81567174,-0.446471025
1764511817.6707804,-0.25942,3.75396,0.59514,0.37145901,0.81567174,-0.446471025
1764511817.6707804,-0.25942,3.75396,0.59514,0.37145901,0.81567174,-0.446471025
1764511817.6707804,-0.25942,3.75396,0.59514,0.37145901,0.81567174,-0.446471025
1764511817.6707804,-0.25942,3.75396,0.59514,0.37145901,0.81567174,-0.446471025
1764511817.6725352,-0.25942,3.75396,0.59514,0.37145901,0.81567174,-0.446471025
1764511817.6725352,-0.25942,3.75396,0.59514,0.37145901,0.81567174,-0.446471025
1764511817.6725352,-0.59514,3.60136,0.74774,0.37170315,0.81408483,-0.44653206
1764511817.6725352,-0.59514,3.60136,0.74774,0.37170315,0.81408483,-0.44653206
1764511817.6725352,-0.59514,3.60136,0.74774,0.37170315,0.81408483,-0.44653206
1764511817.6725352,-0.59514,3.60136,0.74774,0.37170315,0.81408483,-0.44653206
1764511817.6725352,-0.59514,3.60136,0.74774,0.37170315,0.81408483,-0.44653206
1764511817.6725352,-0.59514,3.60136,0.74774,0.37170315,0.81408483,-0.44653206
1764511817.6725352,-0.59514,3.60136,0.74774,0.37170315,0.81408483,-0.44653206
1764511817.6725352,-0.59514,3.60136,0.74774,0.37170315,0.81408483,-0.44653206
1764511817.6725352,-0.59514,3.60136,0.74774,0.37170315,0.81408483,-0.44653206
1764511817.6725352,-0.59514,3.60136,0.74774,0.37170315,0.81408483,-0.44653206
1764511817.6725352,-0.25942,3.69292,0.59514,0.371275905,0.81335241,-0.446715165
1764511817.6725352,-0.25942,3.69292,0.59514,0.371275905,0.81335241,-0.446715165
1764511817.7181718,-0.25942,3.69292,0.59514,0.371275905,0.81335241,-0.446715165
1764511817.7191772,-0.25942,3.69292,0.59514,0.371275905,0.81335241,-0.446715165
1764511817.7191772,-0.25942,3.69292,0.59514,0.371275905,0.81335241,-0.446715165
1764511817.7191772,-0.25942,3.69292,0.59514,0.371275905,0.81335241,-0.446715165
1764511817.7191772,-0.25942,3.69292,0.59514,0.371275905,0.81335241,-0.446715165
1764511817.7191772,-0.25942,3.69292,0.59514,0.371275905,0.81335241,-0.446715165
1764511817.720178,-0.25942,3.69292,0.59514,0.371275905,0.81335241,-0.446715165
1764511817.720178,-0.25942,3.69292,0.59514,0.371275905,0.81335241,-0.446715165
1764511817.720178,0.06104,4.0439,0.19838,0.371520045,0.81323034,-0.447325515
1764511817.720178,0.06104,4.0439,0.19838,0.371520045,0.81323034,-0.447325515
1764511817.72117,0.06104,4.0439,0.19838,0.371520045,0.81323034,-0.447325515
1764511817.72117,0.06104,4.0439,0.19838,0.371520045,0.81323034,-0.447325515
1764511817.72117,0.06104,4.0439,0.19838,0.371520045,0.81323034,-0.447325515
1764511817.72117,0.06104,4.0439,0.19838,0.371520045,0.81323034,-0.447325515
1764511817.72117,0.06104,4.0439,0.19838,0.371520045,0.81323034,-0.447325515
1764511817.7221725,0.06104,4.0439,0.19838,0.371520045,0.81323034,-0.447325515
1764511817.722682,0.06104,4.0439,0.19838,0.371520045,0.81323034,-0.447325515
1764511817.722682,0.06104,4.0439,0.19838,0.371520045,0.81323034,-0.447325515
1764511817.7232702,-1.12924,4.60852,0.6714399999999999,0.372740745,0.8147562150000001,-0.44787483
1764511817.7232702,-1.12924,4.60852,0.6714399999999999,0.372740745,0.8147562150000001,-0.44787483
1764511817.7232702,-1.12924,4.60852,0.6714399999999999,0.372740745,0.8147562150000001,-0.44787483
1764511817.7232702,-1.12924,4.60852,0.6714399999999999,0.372740745,0.8147562150000001,-0.44787483
1764511817.7232702,-1.12924,4.60852,0.6714399999999999,0.372740745,0.8147562150000001,-0.44787483
1764511817.7232702,-1.12924,4.60852,0.6714399999999999,0.372740745,0.8147562150000001,-0.44787483
1764511817.7655845,-1.12924,4.60852,0.6714399999999999,0.372740745,0.8147562150000001,-0.44787483
1764511817.7655845,-1.12924,4.60852,0.6714399999999999,0.372740745,0.8147562150000001,-0.44787483
1764511817.7655845,-1.12924,4.60852,0.6714399999999999,0.372740745,0.8147562150000001,-0.44787483
1764511817.7655845,-1.12924,4.60852,0.6714399999999999,0.372740745,0.8147562150000001,-0.44787483
1764511817.7655845,-1.2055399999999998,3.79974,0.62566,0.37084866,0.8142069000000001,-0.446715165
1764511817.7655845,-1.2055399999999998,3.79974,0.62566,0.37084866,0.8142069000000001,-0.446715165
1764511817.7655845,-1.2055399999999998,3.79974,0.62566,0.37084866,0.8142069000000001,-0.446715165
1764511817.7655845,-1.2055399999999998,3.79974,0.62566,0.37084866,0.8142069000000001,-0.446715165
1764511817.7655845,-1.2055399999999998,3.79974,0.62566,0.37084866,0.8142069000000001,-0.446715165
1764511817.7655845,-1.2055399999999998,3.79974,0.62566,0.37084866,0.8142069000000001,-0.446715165
1764511817.7655845,-1.2055399999999998,3.79974,0.62566,0.37084866,0.8142069000000001,-0.446715165
1764511817.7655845,-1.2055399999999998,3.79974,0.62566,0.37084866,0.8142069000000001,-0.446715165
1764511817.7655845,-1.2055399999999998,3.79974,0.62566,0.37084866,0.8142069000000001,-0.446715165
1764511817.7655845,-1.2055399999999998,3.79974,0.62566,0.37084866,0.8142069000000001,-0.446715165
1764511817.7655845,-0.77826,3.79974,0.73248,0.371275905,0.81432897,-0.44726448
1764511817.7655845,-0.77826,3.79974,0.73248,0.371275905,0.81432897,-0.44726448
1764511817.7655845,-0.77826,3.79974,0.73248,0.371275905,0.81432897,-0.44726448
1764511817.7655845,-0.77826,3.79974,0.73248,0.371275905,0.81432897,-0.44726448
1764511817.7655845,-0.77826,3.79974,0.73248,0.371275905,0.81432897,-0.44726448
1764511817.7655845,-0.77826,3.79974,0.73248,0.371275905,0.81432897,-0.44726448
1764511817.7655845,-0.77826,3.79974,0.73248,0.371275905,0.81432897,-0.44726448
1764511817.7655845,-0.77826,3.79974,0.73248,0.371275905,0.81432897,-0.44726448
1764511817.7655845,-0.77826,3.79974,0.73248,0.371275905,0.81432897,-0.44726448
1764511817.7655845,-0.77826,3.79974,0.73248,0.371275905,0.81432897,-0.44726448
1764511817.8102522,-0.74774,4.1965,1.03768,0.37280178,0.81469518,-0.445860675
1764511817.8102522,-0.74774,4.1965,1.03768,0.37280178,0.81469518,-0.445860675
1764511817.8102522,-0.74774,4.1965,1.03768,0.37280178,0.81469518,-0.445860675
1764511817.8102522,-0.74774,4.1965,1.03768,0.37280178,0.81469518,-0.445860675
1764511817.8102522,-0.74774,4.1965,1.03768,0.37280178,0.81469518,-0.445860675
1764511817.8102522,-0.74774,4.1965,1.03768,0.37280178,0.81469518,-0.445860675
1764511817.8102522,-0.74774,4.1965,1.03768,0.37280178,0.81469518,-0.445860675
1764511817.8102522,-0.74774,4.1965,1.03768,0.37280178,0.81469518,-0.445860675
1764511817.8102522,-0.74774,4.1965,1.03768,0.37280178,0.81469518,-0.445860675
1764511817.8102522,-0.74774,4.1965,1.03768,0.37280178,0.81469518,-0.445860675
1764511817.8102522,0.1525999999999999,3.63188,0.36624,0.37084866,0.81310827,-0.444395835
1764511817.8102522,0.1525999999999999,3.63188,0.36624,0.37084866,0.81310827,-0.444395835
1764511817.8102522,0.1525999999999999,3.63188,0.36624,0.37084866,0.81310827,-0.444395835
1764511817.8102522,0.1525999999999999,3.63188,0.36624,0.37084866,0.81310827,-0.444395835
1764511817.8102522,0.1525999999999999,3.63188,0.36624,0.37084866,0.81310827,-0.444395835
1764511817.8102522,0.1525999999999999,3.63188,0.36624,0.37084866,0.81310827,-0.444395835
1764511817.8102522,0.1525999999999999,3.63188,0.36624,0.37084866,0.81310827,-0.444395835
1764511817.8102522,0.1525999999999999,3.63188,0.36624,0.37084866,0.81310827,-0.444395835
1764511817.8102522,0.1525999999999999,3.63188,0.36624,0.37084866,0.81310827,-0.444395835
1764511817.8112285,0.1525999999999999,3.63188,0.36624,0.37084866,0.81310827,-0.444395835
1764511817.8112285,1.46496,3.67766,0.21364,0.37206936,0.811948605,-0.445616535
1764511817.8112285,1.46496,3.67766,0.21364,0.37206936,0.811948605,-0.445616535
1764511817.8112285,1.46496,3.67766,0.21364,0.37206936,0.811948605,-0.445616535
1764511817.8112285,1.46496,3.67766,0.21364,0.37206936,0.811948605,-0.445616535
1764511817.8564034,1.46496,3.67766,0.21364,0.37206936,0.811948605,-0.445616535
1764511817.8564034,1.46496,3.67766,0.21364,0.37206936,0.811948605,-0.445616535
1764511817.8564034,1.46496,3.67766,0.21364,0.37206936,0.811948605,-0.445616535
1764511817.8564034,1.46496,3.67766,0.21364,0.37206936,0.811948605,-0.445616535
1764511817.8564034,1.46496,3.67766,0.21364,0.37206936,0.811948605,-0.445616535
1764511817.8564034,1.46496,3.67766,0.21364,0.37206936,0.811948605,-0.445616535
1764511817.8564034,0.3051999999999999,4.0439,0.09156,0.372618675,0.81384069,-0.44836311
1764511817.8564034,0.3051999999999999,4.0439,0.09156,0.372618675,0.81384069,-0.44836311
1764511817.8564034,0.3051999999999999,4.0439,0.09156,0.372618675,0.81384069,-0.44836311
1764511817.8564034,0.3051999999999999,4.0439,0.09156,0.372618675,0.81384069,-0.44836311
1764511817.8564034,0.3051999999999999,4.0439,0.09156,0.372618675,0.81384069,-0.44836311
1764511817.8564034,0.3051999999999999,4.0439,0.09156,0.372618675,0.81384069,-0.44836311
1764511817.8564034,0.3051999999999999,4.0439,0.09156,0.372618675,0.81384069,-0.44836311
1764511817.8564034,0.3051999999999999,4.0439,0.09156,0.372618675,0.81384069,-0.44836311
1764511817.8564034,0.3051999999999999,4.0439,0.09156,0.372618675,0.81384069,-0.44836311
1764511817.8564034,0.3051999999999999,4.0439,0.09156,0.372618675,0.81384069,-0.44836311
1764511817.857409,-2.24322,3.87604,0.93086,0.37048245,0.817319685,-0.450499335
1764511817.857409,-2.24322,3.87604,0.93086,0.37048245,0.817319685,-0.450499335
1764511817.857409,-2.24322,3.87604,0.93086,0.37048245,0.817319685,-0.450499335
1764511817.857409,-2.24322,3.87604,0.93086,0.37048245,0.817319685,-0.450499335
1764511817.857409,-2.24322,3.87604,0.93086,0.37048245,0.817319685,-0.450499335
1764511817.857805,-2.24322,3.87604,0.93086,0.37048245,0.817319685,-0.450499335
1764511817.9034429,-2.24322,3.87604,0.93086,0.37048245,0.817319685,-0.450499335
1764511817.9034429,-2.24322,3.87604,0.93086,0.37048245,0.817319685,-0.450499335
1764511817.9034429,-2.24322,3.87604,0.93086,0.37048245,0.817319685,-0.450499335
1764511817.9034429,-2.24322,3.87604,0.93086,0.37048245,0.817319685,-0.450499335
1764511817.9034429,-3.55558,3.93708,0.96138,0.369688995,0.816098985,-0.450011055
1764511817.9034429,-3.55558,3.93708,0.96138,0.369688995,0.816098985,-0.450011055
1764511817.9034429,-3.55558,3.93708,0.96138,0.369688995,0.816098985,-0.450011055
1764511817.9034429,-3.55558,3.93708,0.96138,0.369688995,0.816098985,-0.450011055
1764511817.9034429,-3.55558,3.93708,0.96138,0.369688995,0.816098985,-0.450011055
1764511817.9034429,-3.55558,3.93708,0.96138,0.369688995,0.816098985,-0.450011055
1764511817.9034429,-3.55558,3.93708,0.96138,0.369688995,0.816098985,-0.450011055
1764511817.9034429,-3.55558,3.93708,0.96138,0.369688995,0.816098985,-0.450011055
1764511817.9049542,-3.55558,3.93708,0.96138,0.369688995,0.816098985,-0.450011055
1764511817.9049542,-3.55558,3.93708,0.96138,0.369688995,0.816098985,-0.450011055
1764511817.9049542,-1.9838,4.33384,0.9003399999999999,0.370421415,0.81323034,-0.448180005
1764511817.9049542,-1.9838,4.33384,0.9003399999999999,0.370421415,0.81323034,-0.448180005
1764511817.9049542,-1.9838,4.33384,0.9003399999999999,0.370421415,0.81323034,-0.448180005
1764511817.9049542,-1.9838,4.33384,0.9003399999999999,0.370421415,0.81323034,-0.448180005
1764511817.9049542,-1.9838,4.33384,0.9003399999999999,0.370421415,0.81323034,-0.448180005
1764511817.9049542,-1.9838,4.33384,0.9003399999999999,0.370421415,0.81323034,-0.448180005
1764511817.9049542,-1.9838,4.33384,0.9003399999999999,0.370421415,0.81323034,-0.448180005
1764511817.9049542,-1.9838,4.33384,0.9003399999999999,0.370421415,0.81323034,-0.448180005
1764511817.9049542,-1.9838,4.33384,0.9003399999999999,0.370421415,0.81323034,-0.448180005
1764511817.9049542,-1.9838,4.33384,0.9003399999999999,0.370421415,0.81323034,-0.448180005
1764511817.9505332,-0.03052,4.16598,0.2289,0.372008325,0.811216185,-0.44592171
1764511817.9505332,-0.03052,4.16598,0.2289,0.372008325,0.811216185,-0.44592171
1764511817.9505332,-0.03052,4.16598,0.2289,0.372008325,0.811216185,-0.44592171
1764511817.9505332,-0.03052,4.16598,0.2289,0.372008325,0.811216185,-0.44592171
1764511817.9505332,-0.03052,4.16598,0.2289,0.372008325,0.811216185,-0.44592171
1764511817.9505332,-0.03052,4.16598,0.2289,0.372008325,0.811216185,-0.44592171
1764511817.9505332,-0.03052,4.16598,0.2289,0.372008325,0.811216185,-0.44592171
1764511817.9505332,-0.03052,4.16598,0.2289,0.372008325,0.811216185,-0.44592171
1764511817.9505332,-0.03052,4.16598,0.2289,0.372008325,0.811216185,-0.44592171
1764511817.9505332,-0.03052,4.16598,0.2289,0.372008325,0.811216185,-0.44592171
1764511817.9515333,0.39676,4.60852,0.27468,0.373351095,0.811704465,-0.445860675
1764511817.9515333,0.39676,4.60852,0.27468,0.373351095,0.811704465,-0.445860675
1764511817.9515333,0.39676,4.60852,0.27468,0.373351095,0.811704465,-0.445860675
1764511817.9515333,0.39676,4.60852,0.27468,0.373351095,0.811704465,-0.445860675
1764511817.9515333,0.39676,4.60852,0.27468,0.373351095,0.811704465,-0.445860675
1764511817.9515333,0.39676,4.60852,0.27468,0.373351095,0.811704465,-0.445860675
1764511817.9525306,0.39676,4.60852,0.27468,0.373351095,0.811704465,-0.445860675
1764511817.9525306,0.39676,4.60852,0.27468,0.373351095,0.811704465,-0.445860675
1764511817.9530466,0.39676,4.60852,0.27468,0.373351095,0.811704465,-0.445860675
1764511817.9530466,0.39676,4.60852,0.27468,0.373351095,0.811704465,-0.445860675
1764511817.9530466,0.03052,4.28806,0.28994,0.372130395,0.813535515,-0.446226885
1764511817.9530466,0.03052,4.28806,0.28994,0.372130395,0.813535515,-0.446226885
1764511817.9934824,0.03052,4.28806,0.28994,0.372130395,0.813535515,-0.446226885
1764511817.994002,0.03052,4.28806,0.28994,0.372130395,0.813535515,-0.446226885
1764511817.994002,0.03052,4.28806,0.28994,0.372130395,0.813535515,-0.446226885
1764511817.994002,0.03052,4.28806,0.28994,0.372130395,0.813535515,-0.446226885
1764511817.994002,0.03052,4.28806,0.28994,0.372130395,0.813535515,-0.446226885
1764511817.994002,0.03052,4.28806,0.28994,0.372130395,0.813535515,-0.446226885
1764511817.994002,0.03052,4.28806,0.28994,0.372130395,0.813535515,-0.446226885
1764511817.994002,0.03052,4.28806,0.28994,0.372130395,0.813535515,-0.446226885
1764511817.994002,-0.48832,4.24228,0.6867,0.370787625,0.8153055300000001,-0.44714241
1764511817.994002,-0.48832,4.24228,0.6867,0.370787625,0.8153055300000001,-0.44714241
1764511817.994002,-0.48832,4.24228,0.6867,0.370787625,0.8153055300000001,-0.44714241
1764511817.994002,-0.48832,4.24228,0.6867,0.370787625,0.8153055300000001,-0.44714241
1764511817.994002,-0.48832,4.24228,0.6867,0.370787625,0.8153055300000001,-0.44714241
1764511817.994002,-0.48832,4.24228,0.6867,0.370787625,0.8153055300000001,-0.44714241
1764511817.994002,-0.48832,4.24228,0.6867,0.370787625,0.8153055300000001,-0.44714241
1764511817.9950185,-0.48832,4.24228,0.6867,0.370787625,0.8153055300000001,-0.44714241
1764511817.9950185,-0.48832,4.24228,0.6867,0.370787625,0.8153055300000001,-0.44714241
1764511817.9950185,-0.48832,4.24228,0.6867,0.370787625,0.8153055300000001,-0.44714241
1764511817.9950185,-0.77826,3.87604,0.59514,0.370909695,0.814145865,-0.44738655
1764511817.9950185,-0.77826,3.87604,0.59514,0.370909695,0.814145865,-0.44738655
1764511818.0415237,-0.77826,3.87604,0.59514,0.370909695,0.814145865,-0.44738655
1764511818.0415237,-0.77826,3.87604,0.59514,0.370909695,0.814145865,-0.44738655
1764511818.0415237,-0.77826,3.87604,0.59514,0.370909695,0.814145865,-0.44738655
1764511818.0415237,-0.77826,3.87604,0.59514,0.370909695,0.814145865,-0.44738655
1764511818.0415237,-0.77826,3.87604,0.59514,0.370909695,0.814145865,-0.44738655
1764511818.0415237,-0.77826,3.87604,0.59514,0.370909695,0.814145865,-0.44738655
1764511818.0415237,-0.77826,3.87604,0.59514,0.370909695,0.814145865,-0.44738655
1764511818.0415237,-0.77826,3.87604,0.59514,0.370909695,0.814145865,-0.44738655
1764511818.042523,-0.763,3.95234,0.6103999999999999,0.372008325,0.81481725,-0.4467762
1764511818.042523,-0.763,3.95234,0.6103999999999999,0.372008325,0.81481725,-0.4467762
1764511818.042523,-0.763,3.95234,0.6103999999999999,0.372008325,0.81481725,-0.4467762
1764511818.042523,-0.763,3.95234,0.6103999999999999,0.372008325,0.81481725,-0.4467762
1764511818.042523,-0.763,3.95234,0.6103999999999999,0.372008325,0.81481725,-0.4467762
1764511818.042523,-0.763,3.95234,0.6103999999999999,0.372008325,0.81481725,-0.4467762
1764511818.042523,-0.763,3.95234,0.6103999999999999,0.372008325,0.81481725,-0.4467762
1764511818.042523,-0.763,3.95234,0.6103999999999999,0.372008325,0.81481725,-0.4467762
1764511818.042523,-0.763,3.95234,0.6103999999999999,0.372008325,0.81481725,-0.4467762
1764511818.042523,-0.763,3.95234,0.6103999999999999,0.372008325,0.81481725,-0.4467762
1764511818.0450487,-1.41918,3.75396,0.9003399999999999,0.37194729,0.81432897,-0.4455555
1764511818.0450487,-1.41918,3.75396,0.9003399999999999,0.37194729,0.81432897,-0.4455555
1764511818.0450487,-1.41918,3.75396,0.9003399999999999,0.37194729,0.81432897,-0.4455555
1764511818.0450487,-1.41918,3.75396,0.9003399999999999,0.37194729,0.81432897,-0.4455555
1764511818.0450487,-1.41918,3.75396,0.9003399999999999,0.37194729,0.81432897,-0.4455555
1764511818.0450487,-1.41918,3.75396,0.9003399999999999,0.37194729,0.81432897,-0.4455555
1764511818.0450487,-1.41918,3.75396,0.9003399999999999,0.37194729,0.81432897,-0.4455555
1764511818.0450487,-1.41918,3.75396,0.9003399999999999,0.37194729,0.81432897,-0.4455555
1764511818.0902052,-1.41918,3.75396,0.9003399999999999,0.37194729,0.81432897,-0.4455555
1764511818.0902052,-1.41918,3.75396,0.9003399999999999,0.37194729,0.81432897,-0.4455555
1764511818.0902052,-0.5341,3.63188,0.96138,0.371764185,0.81200964,-0.44592171
1764511818.0902052,-0.5341,3.63188,0.96138,0.371764185,0.81200964,-0.44592171
1764511818.0902052,-0.5341,3.63188,0.96138,0.371764185,0.81200964,-0.44592171
1764511818.0902052,-0.5341,3.63188,0.96138,0.371764185,0.81200964,-0.44592171
1764511818.0902052,-0.5341,3.63188,0.96138,0.371764185,0.81200964,-0.44592171
1764511818.0902052,-0.5341,3.63188,0.96138,0.371764185,0.81200964,-0.44592171
1764511818.0912,-0.5341,3.63188,0.96138,0.371764185,0.81200964,-0.44592171
1764511818.0912,-0.5341,3.63188,0.96138,0.371764185,0.81200964,-0.44592171
1764511818.0912,-0.5341,3.63188,0.96138,0.371764185,0.81200964,-0.44592171
1764511818.0912,-0.5341,3.63188,0.96138,0.371764185,0.81200964,-0.44592171
1764511818.0912,-0.8392999999999999,4.13546,0.1525999999999999,0.372984885,0.813779655,-0.447569655
1764511818.0912,-0.8392999999999999,4.13546,0.1525999999999999,0.372984885,0.813779655,-0.447569655
1764511818.0912,-0.8392999999999999,4.13546,0.1525999999999999,0.372984885,0.813779655,-0.447569655
1764511818.0912,-0.8392999999999999,4.13546,0.1525999999999999,0.372984885,0.813779655,-0.447569655
1764511818.0912,-0.8392999999999999,4.13546,0.1525999999999999,0.372984885,0.813779655,-0.447569655
1764511818.0921984,-0.8392999999999999,4.13546,0.1525999999999999,0.372984885,0.813779655,-0.447569655
1764511818.0921984,-0.8392999999999999,4.13546,0.1525999999999999,0.372984885,0.813779655,-0.447569655
1764511818.0921984,-0.8392999999999999,4.13546,0.1525999999999999,0.372984885,0.813779655,-0.447569655
1764511818.0921984,-0.8392999999999999,4.13546,0.1525999999999999,0.372984885,0.813779655,-0.447569655
1764511818.0921984,-0.8392999999999999,4.13546,0.1525999999999999,0.372984885,0.813779655,-0.447569655
1764511818.13564,-1.25132,3.92182,0.74774,0.371153835,0.8163431250000001,-0.448546215
1764511818.13564,-1.25132,3.92182,0.74774,0.371153835,0.8163431250000001,-0.448546215
1764511818.13564,-1.25132,3.92182,0.74774,0.371153835,0.8163431250000001,-0.448546215
1764511818.13564,-1.25132,3.92182,0.74774,0.371153835,0.8163431250000001,-0.448546215
1764511818.13564,-1.25132,3.92182,0.74774,0.371153835,0.8163431250000001,-0.448546215
1764511818.13564,-1.25132,3.92182,0.74774,0.371153835,0.8163431250000001,-0.448546215
1764511818.13564,-1.25132,3.92182,0.74774,0.371153835,0.8163431250000001,-0.448546215
1764511818.13564,-1.25132,3.92182,0.74774,0.371153835,0.8163431250000001,-0.448546215
1764511818.13564,-1.25132,3.92182,0.74774,0.371153835,0.8163431250000001,-0.448546215
1764511818.13564,-1.25132,3.92182,0.74774,0.371153835,0.8163431250000001,-0.448546215
1764511818.13564,-2.16692,3.64714,0.54936,0.370055205,0.81689244,-0.447935865
1764511818.13564,-2.16692,3.64714,0.54936,0.370055205,0.81689244,-0.447935865
1764511818.13564,-2.16692,3.64714,0.54936,0.370055205,0.81689244,-0.447935865
1764511818.13564,-2.16692,3.64714,0.54936,0.370055205,0.81689244,-0.447935865
1764511818.13564,-2.16692,3.64714,0.54936,0.370055205,0.81689244,-0.447935865
1764511818.13564,-2.16692,3.64714,0.54936,0.370055205,0.81689244,-0.447935865
1764511818.13564,-2.16692,3.64714,0.54936,0.370055205,0.81689244,-0.447935865
1764511818.13564,-2.16692,3.64714,0.54936,0.370055205,0.81689244,-0.447935865
1764511818.13564,-2.16692,3.64714,0.54936,0.370055205,0.81689244,-0.447935865
1764511818.13564,-2.16692,3.64714,0.54936,0.370055205,0.81689244,-0.447935865
1764511818.13564,-2.30426,4.10494,1.11398,0.36999417,0.815366565,-0.44763069
1764511818.13667,-2.30426,4.10494,1.11398,0.36999417,0.815366565,-0.44763069
1764511818.13667,-2.30426,4.10494,1.11398,0.36999417,0.815366565,-0.44763069
1764511818.13667,-2.30426,4.10494,1.11398,0.36999417,0.815366565,-0.44763069
1764511818.13667,-2.30426,4.10494,1.11398,0.36999417,0.815366565,-0.44763069
1764511818.13667,-2.30426,4.10494,1.11398,0.36999417,0.815366565,-0.44763069
1764511818.1831906,-2.30426,4.10494,1.11398,0.36999417,0.815366565,-0.44763069
1764511818.1831906,-2.30426,4.10494,1.11398,0.36999417,0.815366565,-0.44763069
1764511818.1831906,-2.30426,4.10494,1.11398,0.36999417,0.815366565,-0.44763069
1764511818.1835997,-2.30426,4.10494,1.11398,0.36999417,0.815366565,-0.44763069
1764511818.1835997,-0.9919,4.0439,0.9156,0.36999417,0.81200964,-0.446226885
1764511818.1835997,-0.9919,4.0439,0.9156,0.36999417,0.81200964,-0.446226885
1764511818.1835997,-0.9919,4.0439,0.9156,0.36999417,0.81200964,-0.446226885
1764511818.1835997,-0.9919,4.0439,0.9156,0.36999417,0.81200964,-0.446226885
1764511818.1835997,-0.9919,4.0439,0.9156,0.36999417,0.81200964,-0.446226885
1764511818.1835997,-0.9919,4.0439,0.9156,0.36999417,0.81200964,-0.446226885
1764511818.1835997,-0.9919,4.0439,0.9156,0.36999417,0.81200964,-0.446226885
1764511818.1835997,-0.9919,4.0439,0.9156,0.36999417,0.81200964,-0.446226885
1764511818.1835997,-0.9919,4.0439,0.9156,0.36999417,0.81200964,-0.446226885
1764511818.1835997,-0.9919,4.0439,0.9156,0.36999417,0.81200964,-0.446226885
1764511818.1835997,0.03052,3.90656,0.3815,0.371397975,0.81030066,-0.445372395
1764511818.1835997,0.03052,3.90656,0.3815,0.371397975,0.81030066,-0.445372395
1764511818.1835997,0.03052,3.90656,0.3815,0.371397975,0.81030066,-0.445372395
1764511818.1835997,0.03052,3.90656,0.3815,0.371397975,0.81030066,-0.445372395
1764511818.1835997,0.03052,3.90656,0.3815,0.371397975,0.81030066,-0.445372395
1764511818.1835997,0.03052,3.90656,0.3815,0.371397975,0.81030066,-0.445372395
1764511818.1835997,0.03052,3.90656,0.3815,0.371397975,0.81030066,-0.445372395
1764511818.1835997,0.03052,3.90656,0.3815,0.371397975,0.81030066,-0.445372395
1764511818.232407,0.03052,3.90656,0.3815,0.371397975,0.81030066,-0.445372395
1764511818.232407,0.03052,3.90656,0.3815,0.371397975,0.81030066,-0.445372395
1764511818.232407,0.56462,4.01338,0.6103999999999999,0.37145901,0.81200964,-0.44543343
1764511818.232407,0.56462,4.01338,0.6103999999999999,0.37145901,0.81200964,-0.44543343
1764511818.232407,0.56462,4.01338,0.6103999999999999,0.37145901,0.81200964,-0.44543343
1764511818.232407,0.56462,4.01338,0.6103999999999999,0.37145901,0.81200964,-0.44543343
1764511818.232407,0.56462,4.01338,0.6103999999999999,0.37145901,0.81200964,-0.44543343
1764511818.23342,0.56462,4.01338,0.6103999999999999,0.37145901,0.81200964,-0.44543343
1764511818.23342,0.56462,4.01338,0.6103999999999999,0.37145901,0.81200964,-0.44543343
1764511818.23342,0.56462,4.01338,0.6103999999999999,0.37145901,0.81200964,-0.44543343
1764511818.23342,0.56462,4.01338,0.6103999999999999,0.37145901,0.81200964,-0.44543343
1764511818.23342,0.56462,4.01338,0.6103999999999999,0.37145901,0.81200964,-0.44543343
1764511818.23342,-0.06104,3.3572,-0.06104,0.371764185,0.813535515,-0.446226885
1764511818.23342,-0.06104,3.3572,-0.06104,0.371764185,0.813535515,-0.446226885
1764511818.23342,-0.06104,3.3572,-0.06104,0.371764185,0.813535515,-0.446226885
1764511818.23342,-0.06104,3.3572,-0.06104,0.371764185,0.813535515,-0.446226885
1764511818.23342,-0.06104,3.3572,-0.06104,0.371764185,0.813535515,-0.446226885
1764511818.23342,-0.06104,3.3572,-0.06104,0.371764185,0.813535515,-0.446226885
1764511818.23342,-0.06104,3.3572,-0.06104,0.371764185,0.813535515,-0.446226885
1764511818.23342,-0.06104,3.3572,-0.06104,0.371764185,0.813535515,-0.446226885
1764511818.23342,-0.06104,3.3572,-0.06104,0.371764185,0.813535515,-0.446226885
1764511818.23342,-0.06104,3.3572,-0.06104,0.371764185,0.813535515,-0.446226885
1764511818.23342,-0.4578,3.815,0.36624,0.37145901,0.81408483,-0.447447585
1764511818.23342,-0.4578,3.815,0.36624,0.37145901,0.81408483,-0.447447585
1764511818.23342,-0.4578,3.815,0.36624,0.37145901,0.81408483,-0.447447585
1764511818.23342,-0.4578,3.815,0.36624,0.37145901,0.81408483,-0.447447585
1764511818.278546,-0.4578,3.815,0.36624,0.37145901,0.81408483,-0.447447585
1764511818.278546,-0.4578,3.815,0.36624,0.37145901,0.81408483,-0.447447585
1764511818.278546,-0.4578,3.815,0.36624,0.37145901,0.81408483,-0.447447585
1764511818.278546,-0.4578,3.815,0.36624,0.37145901,0.81408483,-0.447447585
1764511818.278546,-0.4578,3.815,0.36624,0.37145901,0.81408483,-0.447447585
1764511818.278546,-0.4578,3.815,0.36624,0.37145901,0.81408483,-0.447447585
1764511818.278546,-1.43444,4.56274,0.6409199999999999,0.371397975,0.81493932,-0.44860725
1764511818.278546,-1.43444,4.56274,0.6409199999999999,0.371397975,0.81493932,-0.44860725
1764511818.278546,-1.43444,4.56274,0.6409199999999999,0.371397975,0.81493932,-0.44860725
1764511818.278546,-1.43444,4.56274,0.6409199999999999,0.371397975,0.81493932,-0.44860725
1764511818.278546,-1.43444,4.56274,0.6409199999999999,0.371397975,0.81493932,-0.44860725
1764511818.278546,-1.43444,4.56274,0.6409199999999999,0.371397975,0.81493932,-0.44860725
1764511818.278546,-1.43444,4.56274,0.6409199999999999,0.371397975,0.81493932,-0.44860725
1764511818.278546,-1.43444,4.56274,0.6409199999999999,0.371397975,0.81493932,-0.44860725
1764511818.278546,-1.43444,4.56274,0.6409199999999999,0.371397975,0.81493932,-0.44860725
1764511818.278546,-1.43444,4.56274,0.6409199999999999,0.371397975,0.81493932,-0.44860725
1764511818.278546,-2.12114,3.99812,0.9156,0.37097073,0.815244495,-0.44787483
1764511818.278546,-2.12114,3.99812,0.9156,0.37097073,0.815244495,-0.44787483
1764511818.278546,-2.12114,3.99812,0.9156,0.37097073,0.815244495,-0.44787483
1764511818.278546,-2.12114,3.99812,0.9156,0.37097073,0.815244495,-0.44787483
1764511818.278546,-2.12114,3.99812,0.9156,0.37097073,0.815244495,-0.44787483
1764511818.278546,-2.12114,3.99812,0.9156,0.37097073,0.815244495,-0.44787483
1764511818.3230274,-2.12114,3.99812,0.9156,0.37097073,0.815244495,-0.44787483
1764511818.3230274,-2.12114,3.99812,0.9156,0.37097073,0.815244495,-0.44787483
1764511818.3230274,-2.12114,3.99812,0.9156,0.37097073,0.815244495,-0.44787483
1764511818.3230274,-2.12114,3.99812,0.9156,0.37097073,0.815244495,-0.44787483
1764511818.3245714,-2.22796,4.22702,1.31236,0.371520045,0.815000355,-0.44726448
1764511818.3245714,-2.22796,4.22702,1.31236,0.371520045,0.815000355,-0.44726448
1764511818.3255854,-2.22796,4.22702,1.31236,0.371520045,0.815000355,-0.44726448
1764511818.3255854,-2.22796,4.22702,1.31236,0.371520045,0.815000355,-0.44726448
1764511818.3255854,-2.22796,4.22702,1.31236,0.371520045,0.815000355,-0.44726448
1764511818.3255854,-2.22796,4.22702,1.31236,0.371520045,0.815000355,-0.44726448
1764511818.3255854,-2.22796,4.22702,1.31236,0.371520045,0.815000355,-0.44726448
1764511818.3255854,-2.22796,4.22702,1.31236,0.371520045,0.815000355,-0.44726448
1764511818.3255854,-2.22796,4.22702,1.31236,0.371520045,0.815000355,-0.44726448
1764511818.3255854,-2.22796,4.22702,1.31236,0.371520045,0.815000355,-0.44726448
1764511818.3255854,-1.77016,3.41824,0.97664,0.37158108,0.812925165,-0.446348955
1764511818.3265865,-1.77016,3.41824,0.97664,0.37158108,0.812925165,-0.446348955
1764511818.3265865,-1.77016,3.41824,0.97664,0.37158108,0.812925165,-0.446348955
1764511818.3265865,-1.77016,3.41824,0.97664,0.37158108,0.812925165,-0.446348955
1764511818.3265865,-1.77016,3.41824,0.97664,0.37158108,0.812925165,-0.446348955
1764511818.3265865,-1.77016,3.41824,0.97664,0.37158108,0.812925165,-0.446348955
1764511818.3265865,-1.77016,3.41824,0.97664,0.37158108,0.812925165,-0.446348955
1764511818.3265865,-1.77016,3.41824,0.97664,0.37158108,0.812925165,-0.446348955
1764511818.3265865,-1.77016,3.41824,0.97664,0.37158108,0.812925165,-0.446348955
1764511818.3265865,-1.77016,3.41824,0.97664,0.37158108,0.812925165,-0.446348955
1764511818.3702607,-0.36624,4.56274,1.0682,0.372008325,0.811216185,-0.44592171
1764511818.3702607,-0.36624,4.56274,1.0682,0.372008325,0.811216185,-0.44592171
1764511818.3702607,-0.36624,4.56274,1.0682,0.372008325,0.811216185,-0.44592171
1764511818.3702607,-0.36624,4.56274,1.0682,0.372008325,0.811216185,-0.44592171
1764511818.370774,-0.36624,4.56274,1.0682,0.372008325,0.811216185,-0.44592171
1764511818.370774,-0.36624,4.56274,1.0682,0.372008325,0.811216185,-0.44592171
1764511818.370774,-0.36624,4.56274,1.0682,0.372008325,0.811216185,-0.44592171
1764511818.370774,-0.36624,4.56274,1.0682,0.372008325,0.811216185,-0.44592171
1764511818.370774,-0.36624,4.56274,1.0682,0.372008325,0.811216185,-0.44592171
1764511818.370774,-0.36624,4.56274,1.0682,0.372008325,0.811216185,-0.44592171
1764511818.370774,0.27468,4.01338,0.74774,0.371642115,0.812192745,-0.44665413
1764511818.370774,0.27468,4.01338,0.74774,0.371642115,0.812192745,-0.44665413
1764511818.370774,0.27468,4.01338,0.74774,0.371642115,0.812192745,-0.44665413
1764511818.370774,0.27468,4.01338,0.74774,0.371642115,0.812192745,-0.44665413
1764511818.370774,0.27468,4.01338,0.74774,0.371642115,0.812192745,-0.44665413
1764511818.370774,0.27468,4.01338,0.74774,0.371642115,0.812192745,-0.44665413
1764511818.370774,0.27468,4.01338,0.74774,0.371642115,0.812192745,-0.44665413
1764511818.370774,0.27468,4.01338,0.74774,0.371642115,0.812192745,-0.44665413
1764511818.370774,0.27468,4.01338,0.74774,0.371642115,0.812192745,-0.44665413
1764511818.370774,0.27468,4.01338,0.74774,0.371642115,0.812192745,-0.44665413
1764511818.4194734,-0.48832,4.22702,0.73248,0.371275905,0.81481725,-0.447691725
1764511818.4194734,-0.48832,4.22702,0.73248,0.371275905,0.81481725,-0.447691725
1764511818.4194734,-0.48832,4.22702,0.73248,0.371275905,0.81481725,-0.447691725
1764511818.4194734,-0.48832,4.22702,0.73248,0.371275905,0.81481725,-0.447691725
1764511818.4194734,-0.48832,4.22702,0.73248,0.371275905,0.81481725,-0.447691725
1764511818.4194734,-0.48832,4.22702,0.73248,0.371275905,0.81481725,-0.447691725
1764511818.4194734,-0.48832,4.22702,0.73248,0.371275905,0.81481725,-0.447691725
1764511818.4204712,-0.48832,4.22702,0.73248,0.371275905,0.81481725,-0.447691725
1764511818.4204712,-0.48832,4.22702,0.73248,0.371275905,0.81481725,-0.447691725
1764511818.4204712,-0.48832,4.22702,0.73248,0.371275905,0.81481725,-0.447691725
1764511818.4204712,-1.35814,3.67766,0.85456,0.37084866,0.816221055,-0.44775276
1764511818.4204712,-1.35814,3.67766,0.85456,0.37084866,0.816221055,-0.44775276
1764511818.4204712,-1.35814,3.67766,0.85456,0.37084866,0.816221055,-0.44775276
1764511818.4204712,-1.35814,3.67766,0.85456,0.37084866,0.816221055,-0.44775276
1764511818.4204712,-1.35814,3.67766,0.85456,0.37084866,0.816221055,-0.44775276
1764511818.4204712,-1.35814,3.67766,0.85456,0.37084866,0.816221055,-0.44775276
1764511818.4204712,-1.35814,3.67766,0.85456,0.37084866,0.816221055,-0.44775276
1764511818.4204712,-1.35814,3.67766,0.85456,0.37084866,0.816221055,-0.44775276
1764511818.4204712,-1.35814,3.67766,0.85456,0.37084866,0.816221055,-0.44775276
1764511818.4204712,-1.35814,3.67766,0.85456,0.37084866,0.816221055,-0.44775276
1764511818.4204712,-1.87698,3.815,0.93086,0.371275905,0.81640416,-0.4479969
1764511818.4204712,-1.87698,3.815,0.93086,0.371275905,0.81640416,-0.4479969
1764511818.4204712,-1.87698,3.815,0.93086,0.371275905,0.81640416,-0.4479969
1764511818.4204712,-1.87698,3.815,0.93086,0.371275905,0.81640416,-0.4479969
1764511818.4204712,-1.87698,3.815,0.93086,0.371275905,0.81640416,-0.4479969
1764511818.4204712,-1.87698,3.815,0.93086,0.371275905,0.81640416,-0.4479969
1764511818.4204712,-1.87698,3.815,0.93086,0.371275905,0.81640416,-0.4479969
1764511818.4204712,-1.87698,3.815,0.93086,0.371275905,0.81640416,-0.4479969
1764511818.4643393,-1.87698,3.815,0.93086,0.371275905,0.81640416,-0.4479969
1764511818.4643393,-1.87698,3.815,0.93086,0.371275905,0.81640416,-0.4479969
1764511818.4643393,-2.5942,3.815,1.2971,0.37121487,0.8166483,-0.447203445
1764511818.4643393,-2.5942,3.815,1.2971,0.37121487,0.8166483,-0.447203445
1764511818.4643393,-2.5942,3.815,1.2971,0.37121487,0.8166483,-0.447203445
1764511818.4643393,-2.5942,3.815,1.2971,0.37121487,0.8166483,-0.447203445
1764511818.4643393,-2.5942,3.815,1.2971,0.37121487,0.8166483,-0.447203445
1764511818.4643393,-2.5942,3.815,1.2971,0.37121487,0.8166483,-0.447203445
1764511818.4643393,-2.5942,3.815,1.2971,0.37121487,0.8166483,-0.447203445
1764511818.4643393,-2.5942,3.815,1.2971,0.37121487,0.8166483,-0.447203445
1764511818.4643393,-2.5942,3.815,1.2971,0.37121487,0.8166483,-0.447203445
1764511818.4643393,-2.5942,3.815,1.2971,0.37121487,0.8166483,-0.447203445
1764511818.4643393,-2.1364,3.72344,1.78542,0.37145901,0.8154276,-0.445738605
1764511818.4643393,-2.1364,3.72344,1.78542,0.37145901,0.8154276,-0.445738605
1764511818.4643393,-2.1364,3.72344,1.78542,0.37145901,0.8154276,-0.445738605
1764511818.4643393,-2.1364,3.72344,1.78542,0.37145901,0.8154276,-0.445738605
1764511818.4643393,-2.1364,3.72344,1.78542,0.37145901,0.8154276,-0.445738605
1764511818.4643393,-2.1364,3.72344,1.78542,0.37145901,0.8154276,-0.445738605
1764511818.4643393,-2.1364,3.72344,1.78542,0.37145901,0.8154276,-0.445738605
1764511818.4643393,-2.1364,3.72344,1.78542,0.37145901,0.8154276,-0.445738605
1764511818.4660382,-2.1364,3.72344,1.78542,0.37145901,0.8154276,-0.445738605
1764511818.4660382,-2.1364,3.72344,1.78542,0.37145901,0.8154276,-0.445738605
1764511818.514276,-1.8006799999999998,3.61662,1.3734,0.3723135,0.81457311,-0.445738605
1764511818.514276,-1.8006799999999998,3.61662,1.3734,0.3723135,0.81457311,-0.445738605
1764511818.514276,-1.8006799999999998,3.61662,1.3734,0.3723135,0.81457311,-0.445738605
1764511818.514276,-1.8006799999999998,3.61662,1.3734,0.3723135,0.81457311,-0.445738605
1764511818.514276,-1.8006799999999998,3.61662,1.3734,0.3723135,0.81457311,-0.445738605
1764511818.514276,-1.8006799999999998,3.61662,1.3734,0.3723135,0.81457311,-0.445738605
1764511818.514276,-1.8006799999999998,3.61662,1.3734,0.3723135,0.81457311,-0.445738605
1764511818.514276,-1.8006799999999998,3.61662,1.3734,0.3723135,0.81457311,-0.445738605
1764511818.514276,-1.8006799999999998,3.61662,1.3734,0.3723135,0.81457311,-0.445738605
1764511818.514276,-1.8006799999999998,3.61662,1.3734,0.3723135,0.81457311,-0.445738605
1764511818.5152652,-1.78542,4.3491,1.6633399999999998,0.37341213,0.81518346,-0.445982745
1764511818.5152652,-1.78542,4.3491,1.6633399999999998,0.37341213,0.81518346,-0.445982745
1764511818.5152652,-1.78542,4.3491,1.6633399999999998,0.37341213,0.81518346,-0.445982745
1764511818.5152652,-1.78542,4.3491,1.6633399999999998,0.37341213,0.81518346,-0.445982745
1764511818.5152652,-1.78542,4.3491,1.6633399999999998,0.37341213,0.81518346,-0.445982745
1764511818.5152652,-1.78542,4.3491,1.6633399999999998,0.37341213,0.81518346,-0.445982745
1764511818.5152652,-1.78542,4.3491,1.6633399999999998,0.37341213,0.81518346,-0.445982745
1764511818.5152652,-1.78542,4.3491,1.6633399999999998,0.37341213,0.81518346,-0.445982745
1764511818.5152652,-1.78542,4.3491,1.6633399999999998,0.37341213,0.81518346,-0.445982745
1764511818.5152652,-1.78542,4.3491,1.6633399999999998,0.37341213,0.81518346,-0.445982745
1764511818.559795,-2.70102,4.24228,1.70912,0.37329006,0.815366565,-0.446348955
1764511818.559795,-2.70102,4.24228,1.70912,0.37329006,0.815366565,-0.446348955
1764511818.559795,-2.70102,4.24228,1.70912,0.37329006,0.815366565,-0.446348955
1764511818.559795,-2.70102,4.24228,1.70912,0.37329006,0.815366565,-0.446348955
1764511818.5608163,-2.70102,4.24228,1.70912,0.37329006,0.815366565,-0.446348955
1764511818.5608163,-2.70102,4.24228,1.70912,0.37329006,0.815366565,-0.446348955
1764511818.5608163,-2.70102,4.24228,1.70912,0.37329006,0.815366565,-0.446348955
1764511818.5608163,-2.70102,4.24228,1.70912,0.37329006,0.815366565,-0.446348955
1764511818.5608163,-2.70102,4.24228,1.70912,0.37329006,0.815366565,-0.446348955
1764511818.5608163,-2.70102,4.24228,1.70912,0.37329006,0.815366565,-0.446348955
1764511818.5608163,-3.25038,3.09778,1.4497,0.370787625,0.81384069,-0.446471025
1764511818.5608163,-3.25038,3.09778,1.4497,0.370787625,0.81384069,-0.446471025
1764511818.5608163,-3.25038,3.09778,1.4497,0.370787625,0.81384069,-0.446471025
1764511818.5608163,-3.25038,3.09778,1.4497,0.370787625,0.81384069,-0.446471025
1764511818.5608163,-3.25038,3.09778,1.4497,0.370787625,0.81384069,-0.446471025
1764511818.5608163,-3.25038,3.09778,1.4497,0.370787625,0.81384069,-0.446471025
1764511818.5608163,-3.25038,3.09778,1.4497,0.370787625,0.81384069,-0.446471025
1764511818.5608163,-3.25038,3.09778,1.4497,0.370787625,0.81384069,-0.446471025
1764511818.5608163,-3.25038,3.09778,1.4497,0.370787625,0.81384069,-0.446471025
1764511818.5608163,-3.25038,3.09778,1.4497,0.370787625,0.81384069,-0.446471025
1764511818.5608163,-3.00622,4.33384,1.7549,0.37145901,0.81445104,-0.44714241
1764511818.5608163,-3.00622,4.33384,1.7549,0.37145901,0.81445104,-0.44714241
1764511818.5608163,-3.00622,4.33384,1.7549,0.37145901,0.81445104,-0.44714241
1764511818.5608163,-3.00622,4.33384,1.7549,0.37145901,0.81445104,-0.44714241
1764511818.5608163,-3.00622,4.33384,1.7549,0.37145901,0.81445104,-0.44714241
1764511818.5608163,-3.00622,4.33384,1.7549,0.37145901,0.81445104,-0.44714241
1764511818.5608163,-3.00622,4.33384,1.7549,0.37145901,0.81445104,-0.44714241
1764511818.5608163,-3.00622,4.33384,1.7549,0.37145901,0.81445104,-0.44714241
1764511818.6045964,-3.00622,4.33384,1.7549,0.37145901,0.81445104,-0.44714241
1764511818.6056156,-3.00622,4.33384,1.7549,0.37145901,0.81445104,-0.44714241
1764511818.6056156,-2.04484,4.08968,1.25132,0.371764185,0.81384069,-0.445128255
1764511818.6056156,-2.04484,4.08968,1.25132,0.371764185,0.81384069,-0.445128255
1764511818.6066158,-2.04484,4.08968,1.25132,0.371764185,0.81384069,-0.445128255
1764511818.6066158,-2.04484,4.08968,1.25132,0.371764185,0.81384069,-0.445128255
1764511818.6066158,-2.04484,4.08968,1.25132,0.371764185,0.81384069,-0.445128255
1764511818.6066158,-2.04484,4.08968,1.25132,0.371764185,0.81384069,-0.445128255
1764511818.6066158,-2.04484,4.08968,1.25132,0.371764185,0.81384069,-0.445128255
1764511818.6066158,-2.04484,4.08968,1.25132,0.371764185,0.81384069,-0.445128255
1764511818.6066158,-2.04484,4.08968,1.25132,0.371764185,0.81384069,-0.445128255
1764511818.6066158,-2.04484,4.08968,1.25132,0.371764185,0.81384069,-0.445128255
1764511818.6066158,-1.15976,4.22702,1.2055399999999998,0.37084866,0.812070675,-0.444029625
1764511818.6066158,-1.15976,4.22702,1.2055399999999998,0.37084866,0.812070675,-0.444029625
1764511818.6066158,-1.15976,4.22702,1.2055399999999998,0.37084866,0.812070675,-0.444029625
1764511818.6066158,-1.15976,4.22702,1.2055399999999998,0.37084866,0.812070675,-0.444029625
1764511818.6066158,-1.15976,4.22702,1.2055399999999998,0.37084866,0.812070675,-0.444029625
1764511818.6066158,-1.15976,4.22702,1.2055399999999998,0.37084866,0.812070675,-0.444029625
1764511818.6066158,-1.15976,4.22702,1.2055399999999998,0.37084866,0.812070675,-0.444029625
1764511818.6066158,-1.15976,4.22702,1.2055399999999998,0.37084866,0.812070675,-0.444029625
1764511818.607614,-1.15976,4.22702,1.2055399999999998,0.37084866,0.812070675,-0.444029625
1764511818.607614,-1.15976,4.22702,1.2055399999999998,0.37084866,0.812070675,-0.444029625
1764511818.6542034,0.57988,4.1965,0.97664,0.37267971,0.811826535,-0.44421273
1764511818.6542034,0.57988,4.1965,0.97664,0.37267971,0.811826535,-0.44421273
1764511818.6542034,0.57988,4.1965,0.97664,0.37267971,0.811826535,-0.44421273
1764511818.6542034,0.57988,4.1965,0.97664,0.37267971,0.811826535,-0.44421273
1764511818.6542034,0.57988,4.1965,0.97664,0.37267971,0.811826535,-0.44421273
1764511818.6542034,0.57988,4.1965,0.97664,0.37267971,0.811826535,-0.44421273
1764511818.6542034,0.57988,4.1965,0.97664,0.37267971,0.811826535,-0.44421273
1764511818.6542034,0.57988,4.1965,0.97664,0.37267971,0.811826535,-0.44421273
1764511818.6542034,0.57988,4.1965,0.97664,0.37267971,0.811826535,-0.44421273
1764511818.6542034,0.57988,4.1965,0.97664,0.37267971,0.811826535,-0.44421273
1764511818.6557164,-1.70912,4.25754,0.88508,0.37304592,0.81506139,-0.44592171
1764511818.6557164,-1.70912,4.25754,0.88508,0.37304592,0.81506139,-0.44592171
1764511818.6557164,-1.70912,4.25754,0.88508,0.37304592,0.81506139,-0.44592171
1764511818.6557164,-1.70912,4.25754,0.88508,0.37304592,0.81506139,-0.44592171
1764511818.6557164,-1.70912,4.25754,0.88508,0.37304592,0.81506139,-0.44592171
1764511818.6557164,-1.70912,4.25754,0.88508,0.37304592,0.81506139,-0.44592171
1764511818.6557164,-1.70912,4.25754,0.88508,0.37304592,0.81506139,-0.44592171
1764511818.6557164,-1.70912,4.25754,0.88508,0.37304592,0.81506139,-0.44592171
1764511818.6557164,-1.70912,4.25754,0.88508,0.37304592,0.81506139,-0.44592171
1764511818.6557164,-1.70912,4.25754,0.88508,0.37304592,0.81506139,-0.44592171
1764511818.6557164,-3.29616,3.92182,1.2055399999999998,0.372496605,0.81652623,-0.446837235
1764511818.6557164,-3.29616,3.92182,1.2055399999999998,0.372496605,0.81652623,-0.446837235
1764511818.6557164,-3.29616,3.92182,1.2055399999999998,0.372496605,0.81652623,-0.446837235
1764511818.6557164,-3.29616,3.92182,1.2055399999999998,0.372496605,0.81652623,-0.446837235
1764511818.6999438,-3.29616,3.92182,1.2055399999999998,0.372496605,0.81652623,-0.446837235
1764511818.6999438,-3.29616,3.92182,1.2055399999999998,0.372496605,0.81652623,-0.446837235
1764511818.6999438,-3.29616,3.92182,1.2055399999999998,0.372496605,0.81652623,-0.446837235
1764511818.6999438,-3.29616,3.92182,1.2055399999999998,0.372496605,0.81652623,-0.446837235
1764511818.6999438,-3.29616,3.92182,1.2055399999999998,0.372496605,0.81652623,-0.446837235
1764511818.6999438,-3.29616,3.92182,1.2055399999999998,0.372496605,0.81652623,-0.446837235
1764511818.6999438,-3.70818,3.8913,1.1445,0.37194729,0.81506139,-0.445860675
1764511818.6999438,-3.70818,3.8913,1.1445,0.37194729,0.81506139,-0.445860675
1764511818.6999438,-3.70818,3.8913,1.1445,0.37194729,0.81506139,-0.445860675
1764511818.6999438,-3.70818,3.8913,1.1445,0.37194729,0.81506139,-0.445860675
1764511818.7009718,-3.70818,3.8913,1.1445,0.37194729,0.81506139,-0.445860675
1764511818.7009718,-3.70818,3.8913,1.1445,0.37194729,0.81506139,-0.445860675
1764511818.7009718,-3.70818,3.8913,1.1445,0.37194729,0.81506139,-0.445860675
1764511818.7009718,-3.70818,3.8913,1.1445,0.37194729,0.81506139,-0.445860675
1764511818.7009718,-3.70818,3.8913,1.1445,0.37194729,0.81506139,-0.445860675
1764511818.7009718,-3.70818,3.8913,1.1445,0.37194729,0.81506139,-0.445860675
1764511818.7009718,-1.43444,0.01526,0.82404,0.37219143,0.8121317100000001,-0.443541345
1764511818.7009718,-1.43444,0.01526,0.82404,0.37219143,0.8121317100000001,-0.443541345
1764511818.7009718,-1.43444,0.01526,0.82404,0.37219143,0.8121317100000001,-0.443541345
1764511818.7009718,-1.43444,0.01526,0.82404,0.37219143,0.8121317100000001,-0.443541345
1764511818.7009718,-1.43444,0.01526,0.82404,0.37219143,0.8121317100000001,-0.443541345
1764511818.7009718,-1.43444,0.01526,0.82404,0.37219143,0.8121317100000001,-0.443541345
1764511818.7009718,-1.43444,0.01526,0.82404,0.37219143,0.8121317100000001,-0.443541345
1764511818.7009718,-1.43444,0.01526,0.82404,0.37219143,0.8121317100000001,-0.443541345
1764511818.747913,-1.43444,0.01526,0.82404,0.37219143,0.8121317100000001,-0.443541345
1764511818.75915,-1.43444,0.01526,0.82404,0.37219143,0.8121317100000001,-0.443541345
1764511818.75915,0.25942,4.08968,0.54936,0.37390041,0.811460325,-0.442930995
1764511818.75915,0.25942,4.08968,0.54936,0.37390041,0.811460325,-0.442930995
1764511818.75915,0.25942,4.08968,0.54936,0.37390041,0.811460325,-0.442930995
1764511818.760147,0.25942,4.08968,0.54936,0.37390041,0.811460325,-0.442930995
1764511818.760147,0.25942,4.08968,0.54936,0.37390041,0.811460325,-0.442930995
1764511818.760147,0.25942,4.08968,0.54936,0.37390041,0.811460325,-0.442930995
1764511818.760147,0.25942,4.08968,0.54936,0.37390041,0.811460325,-0.442930995
1764511818.760147,0.25942,4.08968,0.54936,0.37390041,0.811460325,-0.442930995
1764511818.761159,0.25942,4.08968,0.54936,0.37390041,0.811460325,-0.442930995
1764511818.761159,0.25942,4.08968,0.54936,0.37390041,0.811460325,-0.442930995
1764511818.761159,0.3204599999999999,4.24228,0.36624,0.373961445,0.81457311,-0.44335824
1764511818.761159,0.3204599999999999,4.24228,0.36624,0.373961445,0.81457311,-0.44335824
1764511818.761159,0.3204599999999999,4.24228,0.36624,0.373961445,0.81457311,-0.44335824
1764511818.762673,0.3204599999999999,4.24228,0.36624,0.373961445,0.81457311,-0.44335824
1764511818.762673,0.3204599999999999,4.24228,0.36624,0.373961445,0.81457311,-0.44335824
1764511818.762673,0.3204599999999999,4.24228,0.36624,0.373961445,0.81457311,-0.44335824
1764511818.7632434,0.3204599999999999,4.24228,0.36624,0.373961445,0.81457311,-0.44335824
1764511818.7632434,0.3204599999999999,4.24228,0.36624,0.373961445,0.81457311,-0.44335824
1764511818.7636862,0.3204599999999999,4.24228,0.36624,0.373961445,0.81457311,-0.44335824
1764511818.7636862,0.3204599999999999,4.24228,0.36624,0.373961445,0.81457311,-0.44335824
1764511818.7636862,-0.56462,4.13546,0.56462,0.37329006,0.815610705,-0.443663415
1764511818.7636862,-0.56462,4.13546,0.56462,0.37329006,0.815610705,-0.443663415
1764511818.7940316,-0.56462,4.13546,0.56462,0.37329006,0.815610705,-0.443663415
1764511818.7940316,-0.56462,4.13546,0.56462,0.37329006,0.815610705,-0.443663415
1764511818.7940316,-0.56462,4.13546,0.56462,0.37329006,0.815610705,-0.443663415
1764511818.7940316,-0.56462,4.13546,0.56462,0.37329006,0.815610705,-0.443663415
1764511818.7940316,-0.56462,4.13546,0.56462,0.37329006,0.815610705,-0.443663415
1764511818.7940316,-0.56462,4.13546,0.56462,0.37329006,0.815610705,-0.443663415
1764511818.7940316,-0.56462,4.13546,0.56462,0.37329006,0.815610705,-0.443663415
1764511818.7940316,-0.56462,4.13546,0.56462,0.37329006,0.815610705,-0.443663415
1764511818.7940316,-1.81594,3.98286,0.9003399999999999,0.37280178,0.816221055,-0.444151695
1764511818.7940316,-1.81594,3.98286,0.9003399999999999,0.37280178,0.816221055,-0.444151695
1764511818.7940316,-1.81594,3.98286,0.9003399999999999,0.37280178,0.816221055,-0.444151695
1764511818.7940316,-1.81594,3.98286,0.9003399999999999,0.37280178,0.816221055,-0.444151695
1764511818.795032,-1.81594,3.98286,0.9003399999999999,0.37280178,0.816221055,-0.444151695
1764511818.795032,-1.81594,3.98286,0.9003399999999999,0.37280178,0.816221055,-0.444151695
1764511818.796202,-1.81594,3.98286,0.9003399999999999,0.37280178,0.816221055,-0.444151695
1764511818.796202,-1.81594,3.98286,0.9003399999999999,0.37280178,0.816221055,-0.444151695
1764511818.796202,-1.81594,3.98286,0.9003399999999999,0.37280178,0.816221055,-0.444151695
1764511818.796202,-1.81594,3.98286,0.9003399999999999,0.37280178,0.816221055,-0.444151695
1764511818.796202,-1.9838,3.60136,1.05294,0.37219143,0.81554967,-0.444884115
1764511818.796202,-1.9838,3.60136,1.05294,0.37219143,0.81554967,-0.444884115
1764511818.796202,-1.9838,3.60136,1.05294,0.37219143,0.81554967,-0.444884115
1764511818.796202,-1.9838,3.60136,1.05294,0.37219143,0.81554967,-0.444884115
1764511818.8425612,-1.9838,3.60136,1.05294,0.37219143,0.81554967,-0.444884115
1764511818.8425612,-1.9838,3.60136,1.05294,0.37219143,0.81554967,-0.444884115
1764511818.8425612,-1.9838,3.60136,1.05294,0.37219143,0.81554967,-0.444884115
1764511818.8425612,-1.9838,3.60136,1.05294,0.37219143,0.81554967,-0.444884115
1764511818.843067,-1.9838,3.60136,1.05294,0.37219143,0.81554967,-0.444884115
1764511818.843067,-1.9838,3.60136,1.05294,0.37219143,0.81554967,-0.444884115
1764511818.843067,-1.6786,3.95234,1.02242,0.372618675,0.8153055300000001,-0.44360238
1764511818.843067,-1.6786,3.95234,1.02242,0.372618675,0.8153055300000001,-0.44360238
1764511818.843067,-1.6786,3.95234,1.02242,0.372618675,0.8153055300000001,-0.44360238
1764511818.843067,-1.6786,3.95234,1.02242,0.372618675,0.8153055300000001,-0.44360238
1764511818.843067,-1.6786,3.95234,1.02242,0.372618675,0.8153055300000001,-0.44360238
1764511818.843067,-1.6786,3.95234,1.02242,0.372618675,0.8153055300000001,-0.44360238
1764511818.843067,-1.6786,3.95234,1.02242,0.372618675,0.8153055300000001,-0.44360238
1764511818.843067,-1.6786,3.95234,1.02242,0.372618675,0.8153055300000001,-0.44360238
1764511818.8435774,-1.6786,3.95234,1.02242,0.372618675,0.8153055300000001,-0.44360238
1764511818.8435774,-1.6786,3.95234,1.02242,0.372618675,0.8153055300000001,-0.44360238
1764511818.8435774,-1.38866,3.57084,1.23606,0.37316799,0.81347448,-0.44140512
1764511818.8435774,-1.38866,3.57084,1.23606,0.37316799,0.81347448,-0.44140512
1764511818.8435774,-1.38866,3.57084,1.23606,0.37316799,0.81347448,-0.44140512
1764511818.8435774,-1.38866,3.57084,1.23606,0.37316799,0.81347448,-0.44140512
1764511818.8435774,-1.38866,3.57084,1.23606,0.37316799,0.81347448,-0.44140512
1764511818.8435774,-1.38866,3.57084,1.23606,0.37316799,0.81347448,-0.44140512
1764511818.8435774,-1.38866,3.57084,1.23606,0.37316799,0.81347448,-0.44140512
1764511818.8435774,-1.38866,3.57084,1.23606,0.37316799,0.81347448,-0.44140512
1764511818.8877466,-1.38866,3.57084,1.23606,0.37316799,0.81347448,-0.44140512
1764511818.8877466,-1.38866,3.57084,1.23606,0.37316799,0.81347448,-0.44140512
1764511818.8877466,0.25942,3.83026,1.02242,0.373473165,0.810972045,-0.4418934
1764511818.8877466,0.25942,3.83026,1.02242,0.373473165,0.810972045,-0.4418934
1764511818.8877466,0.25942,3.83026,1.02242,0.373473165,0.810972045,-0.4418934
1764511818.8877466,0.25942,3.83026,1.02242,0.373473165,0.810972045,-0.4418934
1764511818.8877466,0.25942,3.83026,1.02242,0.373473165,0.810972045,-0.4418934
1764511818.8877466,0.25942,3.83026,1.02242,0.373473165,0.810972045,-0.4418934
1764511818.8877466,0.25942,3.83026,1.02242,0.373473165,0.810972045,-0.4418934
1764511818.8877466,0.25942,3.83026,1.02242,0.373473165,0.810972045,-0.4418934
1764511818.8877466,0.25942,3.83026,1.02242,0.373473165,0.810972045,-0.4418934
1764511818.8877466,0.25942,3.83026,1.02242,0.373473165,0.810972045,-0.4418934
1764511818.8877466,0.97664,4.45592,0.59514,0.374083515,0.813901725,-0.44323617
1764511818.8877466,0.97664,4.45592,0.59514,0.374083515,0.813901725,-0.44323617
1764511818.8877466,0.97664,4.45592,0.59514,0.374083515,0.813901725,-0.44323617
1764511818.8877466,0.97664,4.45592,0.59514,0.374083515,0.813901725,-0.44323617
1764511818.8892765,0.97664,4.45592,0.59514,0.374083515,0.813901725,-0.44323617
1764511818.8903153,0.97664,4.45592,0.59514,0.374083515,0.813901725,-0.44323617
1764511818.8903153,0.97664,4.45592,0.59514,0.374083515,0.813901725,-0.44323617
1764511818.8903153,0.97664,4.45592,0.59514,0.374083515,0.813901725,-0.44323617
1764511818.8903153,0.97664,4.45592,0.59514,0.374083515,0.813901725,-0.44323617
1764511818.8903153,0.97664,4.45592,0.59514,0.374083515,0.813901725,-0.44323617
1764511818.8903153,-0.36624,3.84552,0.73248,0.373595235,0.81677037,-0.444639975
1764511818.8903153,-0.36624,3.84552,0.73248,0.373595235,0.81677037,-0.444639975
1764511818.933982,-0.36624,3.84552,0.73248,0.373595235,0.81677037,-0.444639975
1764511818.933982,-0.36624,3.84552,0.73248,0.373595235,0.81677037,-0.444639975
1764511818.933982,-0.36624,3.84552,0.73248,0.373595235,0.81677037,-0.444639975
1764511818.933982,-0.36624,3.84552,0.73248,0.373595235,0.81677037,-0.444639975
1764511818.933982,-0.36624,3.84552,0.73248,0.373595235,0.81677037,-0.444639975
1764511818.933982,-0.36624,3.84552,0.73248,0.373595235,0.81677037,-0.444639975
1764511818.933982,-0.36624,3.84552,0.73248,0.373595235,0.81677037,-0.444639975
1764511818.933982,-0.36624,3.84552,0.73248,0.373595235,0.81677037,-0.444639975
1764511818.933982,-1.54126,3.92182,0.74774,0.372618675,0.81762486,-0.444884115
1764511818.933982,-1.54126,3.92182,0.74774,0.372618675,0.81762486,-0.444884115
1764511818.9375472,-1.54126,3.92182,0.74774,0.372618675,0.81762486,-0.444884115
1764511818.9375472,-1.54126,3.92182,0.74774,0.372618675,0.81762486,-0.444884115
1764511818.9375472,-1.54126,3.92182,0.74774,0.372618675,0.81762486,-0.444884115
1764511818.9375472,-1.54126,3.92182,0.74774,0.372618675,0.81762486,-0.444884115
1764511818.9375472,-1.54126,3.92182,0.74774,0.372618675,0.81762486,-0.444884115
1764511818.9375472,-1.54126,3.92182,0.74774,0.372618675,0.81762486,-0.444884115
1764511818.9375472,-1.54126,3.92182,0.74774,0.372618675,0.81762486,-0.444884115
1764511818.9375472,-1.54126,3.92182,0.74774,0.372618675,0.81762486,-0.444884115
1764511818.9375472,-1.70912,4.08968,1.2055399999999998,0.37097073,0.8168314050000001,-0.443663415
1764511818.9375472,-1.70912,4.08968,1.2055399999999998,0.37097073,0.8168314050000001,-0.443663415
1764511818.9375472,-1.70912,4.08968,1.2055399999999998,0.37097073,0.8168314050000001,-0.443663415
1764511818.9375472,-1.70912,4.08968,1.2055399999999998,0.37097073,0.8168314050000001,-0.443663415
1764511818.938342,-1.70912,4.08968,1.2055399999999998,0.37097073,0.8168314050000001,-0.443663415
1764511818.938342,-1.70912,4.08968,1.2055399999999998,0.37097073,0.8168314050000001,-0.443663415
1764511818.9833772,-1.70912,4.08968,1.2055399999999998,0.37097073,0.8168314050000001,-0.443663415
1764511818.9833772,-1.70912,4.08968,1.2055399999999998,0.37097073,0.8168314050000001,-0.443663415
1764511818.9833772,-1.70912,4.08968,1.2055399999999998,0.37097073,0.8168314050000001,-0.443663415
1764511818.9833772,-1.70912,4.08968,1.2055399999999998,0.37097073,0.8168314050000001,-0.443663415
1764511818.9833772,-1.51074,3.8913,0.85456,0.371153835,0.813535515,-0.442686855
1764511818.9833772,-1.51074,3.8913,0.85456,0.371153835,0.813535515,-0.442686855
1764511818.9833772,-1.51074,3.8913,0.85456,0.371153835,0.813535515,-0.442686855
1764511818.9833772,-1.51074,3.8913,0.85456,0.371153835,0.813535515,-0.442686855
1764511818.9833772,-1.51074,3.8913,0.85456,0.371153835,0.813535515,-0.442686855
1764511818.9833772,-1.51074,3.8913,0.85456,0.371153835,0.813535515,-0.442686855
1764511818.9833772,-1.51074,3.8913,0.85456,0.371153835,0.813535515,-0.442686855
1764511818.9833772,-1.51074,3.8913,0.85456,0.371153835,0.813535515,-0.442686855
1764511818.9833772,-1.51074,3.8913,0.85456,0.371153835,0.813535515,-0.442686855
1764511818.9833772,-1.51074,3.8913,0.85456,0.371153835,0.813535515,-0.442686855
1764511818.9833772,0.12208,4.2728,0.44254,0.373595235,0.811948605,-0.44213754
1764511818.9833772,0.12208,4.2728,0.44254,0.373595235,0.811948605,-0.44213754
1764511818.9843934,0.12208,4.2728,0.44254,0.373595235,0.811948605,-0.44213754
1764511818.9843934,0.12208,4.2728,0.44254,0.373595235,0.811948605,-0.44213754
1764511818.9843934,0.12208,4.2728,0.44254,0.373595235,0.811948605,-0.44213754
1764511818.9843934,0.12208,4.2728,0.44254,0.373595235,0.811948605,-0.44213754
1764511818.9843934,0.12208,4.2728,0.44254,0.373595235,0.811948605,-0.44213754
1764511818.9843934,0.12208,4.2728,0.44254,0.373595235,0.811948605,-0.44213754
1764511819.028676,0.12208,4.2728,0.44254,0.373595235,0.811948605,-0.44213754
1764511819.028676,0.12208,4.2728,0.44254,0.373595235,0.811948605,-0.44213754
1764511819.028676,-0.4578,4.18124,0.62566,0.37451076,0.812925165,-0.44274789
1764511819.028676,-0.4578,4.18124,0.62566,0.37451076,0.812925165,-0.44274789
1764511819.028676,-0.4578,4.18124,0.62566,0.37451076,0.812925165,-0.44274789
1764511819.028676,-0.4578,4.18124,0.62566,0.37451076,0.812925165,-0.44274789
1764511819.028676,-0.4578,4.18124,0.62566,0.37451076,0.812925165,-0.44274789
1764511819.028676,-0.4578,4.18124,0.62566,0.37451076,0.812925165,-0.44274789
1764511819.028676,-0.4578,4.18124,0.62566,0.37451076,0.812925165,-0.44274789
1764511819.028676,-0.4578,4.18124,0.62566,0.37451076,0.812925165,-0.44274789
1764511819.028676,-0.4578,4.18124,0.62566,0.37451076,0.812925165,-0.44274789
1764511819.028676,-0.4578,4.18124,0.62566,0.37451076,0.812925165,-0.44274789
1764511819.028676,-0.28994,3.815,0.6714399999999999,0.37426662,0.81396276,-0.443663415
1764511819.028676,-0.28994,3.815,0.6714399999999999,0.37426662,0.81396276,-0.443663415
1764511819.0297067,-0.28994,3.815,0.6714399999999999,0.37426662,0.81396276,-0.443663415
1764511819.0297067,-0.28994,3.815,0.6714399999999999,0.37426662,0.81396276,-0.443663415
1764511819.0297067,-0.28994,3.815,0.6714399999999999,0.37426662,0.81396276,-0.443663415
1764511819.0297067,-0.28994,3.815,0.6714399999999999,0.37426662,0.81396276,-0.443663415
1764511819.030702,-0.28994,3.815,0.6714399999999999,0.37426662,0.81396276,-0.443663415
1764511819.030702,-0.28994,3.815,0.6714399999999999,0.37426662,0.81396276,-0.443663415
1764511819.030702,-0.28994,3.815,0.6714399999999999,0.37426662,0.81396276,-0.443663415
1764511819.030702,-0.28994,3.815,0.6714399999999999,0.37426662,0.81396276,-0.443663415
1764511819.030702,-0.6103999999999999,3.93708,0.3815,0.374449725,0.81445104,-0.44421273
1764511819.0316925,-0.6103999999999999,3.93708,0.3815,0.374449725,0.81445104,-0.44421273
1764511819.077395,-0.6103999999999999,3.93708,0.3815,0.374449725,0.81445104,-0.44421273
1764511819.077395,-0.6103999999999999,3.93708,0.3815,0.374449725,0.81445104,-0.44421273
1764511819.077395,-0.6103999999999999,3.93708,0.3815,0.374449725,0.81445104,-0.44421273
1764511819.077395,-0.6103999999999999,3.93708,0.3815,0.374449725,0.81445104,-0.44421273
1764511819.077395,-0.6103999999999999,3.93708,0.3815,0.374449725,0.81445104,-0.44421273
1764511819.077395,-0.6103999999999999,3.93708,0.3815,0.374449725,0.81445104,-0.44421273
1764511819.077395,-0.6103999999999999,3.93708,0.3815,0.374449725,0.81445104,-0.44421273
1764511819.077395,-0.6103999999999999,3.93708,0.3815,0.374449725,0.81445104,-0.44421273
1764511819.077395,-0.57988,3.9676,0.36624,0.373961445,0.81457311,-0.444273765
