Timestamp,GyroX,GyroY,GyroZ,AccX,AccY,AccZ
1764511894.075569,-4.16598,0.6103999999999999,0.51884,0.98010003,0.08203104,0.05688462
1764511894.075569,-4.16598,0.6103999999999999,0.51884,0.98010003,0.08203104,0.05688462
1764511894.075569,-4.4254,0.12208,0.8392999999999999,0.97961175,0.08203104,0.057189795
1764511894.075569,-4.4254,0.12208,0.8392999999999999,0.97961175,0.08203104,0.057189795
1764511894.075569,-4.4254,0.12208,0.8392999999999999,0.97961175,0.08203104,0.057189795
1764511894.075569,-4.4254,0.12208,0.8392999999999999,0.97961175,0.08203104,0.057189795
1764511894.0765831,-4.4254,0.12208,0.8392999999999999,0.97961175,0.08203104,0.057189795
1764511894.0765831,-4.4254,0.12208,0.8392999999999999,0.97961175,0.08203104,0.057189795
1764511894.0765831,-4.4254,0.12208,0.8392999999999999,0.97961175,0.08203104,0.057189795
1764511894.0765831,-4.4254,0.12208,0.8392999999999999,0.97961175,0.08203104,0.057189795
1764511894.0765831,-4.4254,0.12208,0.8392999999999999,0.97961175,0.08203104,0.057189795
1764511894.0765831,-4.4254,0.12208,0.8392999999999999,0.97961175,0.08203104,0.057189795
1764511894.0765831,-4.99002,0.47306,0.88508,0.98058831,0.080749305,0.05664048
1764511894.0765831,-4.99002,0.47306,0.88508,0.98058831,0.080749305,0.05664048
1764511894.0765831,-4.99002,0.47306,0.88508,0.98058831,0.080749305,0.05664048
1764511894.0765831,-4.99002,0.47306,0.88508,0.98058831,0.080749305,0.05664048
1764511894.0765831,-4.99002,0.47306,0.88508,0.98058831,0.080749305,0.05664048
1764511894.0765831,-4.99002,0.47306,0.88508,0.98058831,0.080749305,0.05664048
1764511894.0765831,-4.99002,0.47306,0.88508,0.98058831,0.080749305,0.05664048
1764511894.0765831,-4.99002,0.47306,0.88508,0.98058831,0.080749305,0.05664048
1764511894.0765831,-4.99002,0.47306,0.88508,0.98058831,0.080749305,0.05664048
1764511894.0765831,-4.99002,0.47306,0.88508,0.98058831,0.080749305,0.05664048
1764511894.0765831,-4.51696,0.56462,1.2971,0.981381765,0.0793455,0.056579445
1764511894.0765831,-4.51696,0.56462,1.2971,0.981381765,0.0793455,0.056579445
1764511894.1202817,-4.51696,0.56462,1.2971,0.981381765,0.0793455,0.056579445
1764511894.1202817,-4.51696,0.56462,1.2971,0.981381765,0.0793455,0.056579445
1764511894.1202817,-4.51696,0.56462,1.2971,0.981381765,0.0793455,0.056579445
1764511894.1202817,-4.51696,0.56462,1.2971,0.981381765,0.0793455,0.056579445
1764511894.1202817,-4.51696,0.56462,1.2971,0.981381765,0.0793455,0.056579445
1764511894.1202817,-4.51696,0.56462,1.2971,0.981381765,0.0793455,0.056579445
1764511894.1202817,-4.51696,0.56462,1.2971,0.981381765,0.0793455,0.056579445
1764511894.1202817,-4.51696,0.56462,1.2971,0.981381765,0.0793455,0.056579445
1764511894.1202817,-4.37962,0.54936,1.25132,0.981381765,0.07849101,0.055969095
1764511894.1202817,-4.37962,0.54936,1.25132,0.981381765,0.07849101,0.055969095
1764511894.1202817,-4.37962,0.54936,1.25132,0.981381765,0.07849101,0.055969095
1764511894.1202817,-4.37962,0.54936,1.25132,0.981381765,0.07849101,0.055969095
1764511894.1202817,-4.37962,0.54936,1.25132,0.981381765,0.07849101,0.055969095
1764511894.1202817,-4.37962,0.54936,1.25132,0.981381765,0.07849101,0.055969095
1764511894.1215217,-4.37962,0.54936,1.25132,0.981381765,0.07849101,0.055969095
1764511894.1215217,-4.37962,0.54936,1.25132,0.981381765,0.07849101,0.055969095
1764511894.1215217,-4.37962,0.54936,1.25132,0.981381765,0.07849101,0.055969095
1764511894.1215217,-4.37962,0.54936,1.25132,0.981381765,0.07849101,0.055969095
1764511894.1215217,-4.16598,0.65618,0.88508,0.98290764,0.07800273,0.05578599
1764511894.1215217,-4.16598,0.65618,0.88508,0.98290764,0.07800273,0.05578599
1764511894.1215217,-4.16598,0.65618,0.88508,0.98290764,0.07800273,0.05578599
1764511894.1235623,-4.16598,0.65618,0.88508,0.98290764,0.07800273,0.05578599
1764511894.1235623,-4.16598,0.65618,0.88508,0.98290764,0.07800273,0.05578599
1764511894.1235623,-4.16598,0.65618,0.88508,0.98290764,0.07800273,0.05578599
1764511894.1690934,-4.16598,0.65618,0.88508,0.98290764,0.07800273,0.05578599
1764511894.1690934,-4.16598,0.65618,0.88508,0.98290764,0.07800273,0.05578599
1764511894.1690934,-4.16598,0.65618,0.88508,0.98290764,0.07800273,0.05578599
1764511894.1690934,-4.16598,0.65618,0.88508,0.98290764,0.07800273,0.05578599
1764511894.1690934,-3.79974,1.64808,0.8087799999999999,0.98437248,0.077209275,0.055358745
1764511894.1690934,-3.79974,1.64808,0.8087799999999999,0.98437248,0.077209275,0.055358745
1764511894.1690934,-3.79974,1.64808,0.8087799999999999,0.98437248,0.077209275,0.055358745
1764511894.1690934,-3.79974,1.64808,0.8087799999999999,0.98437248,0.077209275,0.055358745
1764511894.1690934,-3.79974,1.64808,0.8087799999999999,0.98437248,0.077209275,0.055358745
1764511894.1690934,-3.79974,1.64808,0.8087799999999999,0.98437248,0.077209275,0.055358745
1764511894.1690934,-3.79974,1.64808,0.8087799999999999,0.98437248,0.077209275,0.055358745
1764511894.1701283,-3.79974,1.64808,0.8087799999999999,0.98437248,0.077209275,0.055358745
1764511894.1701283,-3.79974,1.64808,0.8087799999999999,0.98437248,0.077209275,0.055358745
1764511894.1701283,-3.79974,1.64808,0.8087799999999999,0.98437248,0.077209275,0.055358745
1764511894.1701283,-3.44876,1.72438,0.54936,0.983456955,0.07653789,0.05529771
1764511894.1701283,-3.44876,1.72438,0.54936,0.983456955,0.07653789,0.05529771
1764511894.1701283,-3.44876,1.72438,0.54936,0.983456955,0.07653789,0.05529771
1764511894.1701283,-3.44876,1.72438,0.54936,0.983456955,0.07653789,0.05529771
1764511894.1701283,-3.44876,1.72438,0.54936,0.983456955,0.07653789,0.05529771
1764511894.1701283,-3.44876,1.72438,0.54936,0.983456955,0.07653789,0.05529771
1764511894.1701283,-3.44876,1.72438,0.54936,0.983456955,0.07653789,0.05529771
1764511894.1701283,-3.44876,1.72438,0.54936,0.983456955,0.07653789,0.05529771
1764511894.1701283,-3.44876,1.72438,0.54936,0.983456955,0.07653789,0.05529771
1764511894.1701283,-3.44876,1.72438,0.54936,0.983456955,0.07653789,0.05529771
1764511894.2153077,-2.8231,1.84646,0.9919,0.9826635,0.076110645,0.05590806
1764511894.215826,-2.8231,1.84646,0.9919,0.9826635,0.076110645,0.05590806
1764511894.215826,-2.8231,1.84646,0.9919,0.9826635,0.076110645,0.05590806
1764511894.215826,-2.8231,1.84646,0.9919,0.9826635,0.076110645,0.05590806
1764511894.215826,-2.8231,1.84646,0.9919,0.9826635,0.076110645,0.05590806
1764511894.215826,-2.8231,1.84646,0.9919,0.9826635,0.076110645,0.05590806
1764511894.215826,-2.8231,1.84646,0.9919,0.9826635,0.076110645,0.05590806
1764511894.215826,-2.8231,1.84646,0.9919,0.9826635,0.076110645,0.05590806
1764511894.215826,-2.8231,1.84646,0.9919,0.9826635,0.076110645,0.05590806
1764511894.215826,-2.8231,1.84646,0.9919,0.9826635,0.076110645,0.05590806
1764511894.215826,-2.76206,2.0601,0.93086,0.981625905,0.076232715,0.05590806
1764511894.215826,-2.76206,2.0601,0.93086,0.981625905,0.076232715,0.05590806
1764511894.215826,-2.76206,2.0601,0.93086,0.981625905,0.076232715,0.05590806
1764511894.215826,-2.76206,2.0601,0.93086,0.981625905,0.076232715,0.05590806
1764511894.215826,-2.76206,2.0601,0.93086,0.981625905,0.076232715,0.05590806
1764511894.215826,-2.76206,2.0601,0.93086,0.981625905,0.076232715,0.05590806
1764511894.215826,-2.76206,2.0601,0.93086,0.981625905,0.076232715,0.05590806
1764511894.215826,-2.76206,2.0601,0.93086,0.981625905,0.076232715,0.05590806
1764511894.215826,-2.76206,2.0601,0.93086,0.981625905,0.076232715,0.05590806
1764511894.215826,-2.76206,2.0601,0.93086,0.981625905,0.076232715,0.05590806
1764511894.2599444,-3.31142,1.6786,0.94612,0.980771415,0.076598925,0.056091165
1764511894.2599444,-3.31142,1.6786,0.94612,0.980771415,0.076598925,0.056091165
1764511894.2599444,-3.31142,1.6786,0.94612,0.980771415,0.076598925,0.056091165
1764511894.2609727,-3.31142,1.6786,0.94612,0.980771415,0.076598925,0.056091165
1764511894.2609727,-3.31142,1.6786,0.94612,0.980771415,0.076598925,0.056091165
1764511894.2609727,-3.31142,1.6786,0.94612,0.980771415,0.076598925,0.056091165
1764511894.2609727,-3.31142,1.6786,0.94612,0.980771415,0.076598925,0.056091165
1764511894.2609727,-3.31142,1.6786,0.94612,0.980771415,0.076598925,0.056091165
1764511894.2609727,-3.31142,1.6786,0.94612,0.980771415,0.076598925,0.056091165
1764511894.2609727,-3.31142,1.6786,0.94612,0.980771415,0.076598925,0.056091165
1764511894.2619755,-2.96044,1.84646,0.88508,0.98180901,0.077819625,0.056457375
1764511894.2619755,-2.96044,1.84646,0.88508,0.98180901,0.077819625,0.056457375
1764511894.2619755,-2.96044,1.84646,0.88508,0.98180901,0.077819625,0.056457375
1764511894.2619755,-2.96044,1.84646,0.88508,0.98180901,0.077819625,0.056457375
1764511894.2629814,-2.96044,1.84646,0.88508,0.98180901,0.077819625,0.056457375
1764511894.2629814,-2.96044,1.84646,0.88508,0.98180901,0.077819625,0.056457375
1764511894.2629814,-2.96044,1.84646,0.88508,0.98180901,0.077819625,0.056457375
1764511894.2629814,-2.96044,1.84646,0.88508,0.98180901,0.077819625,0.056457375
1764511894.2629814,-2.96044,1.84646,0.88508,0.98180901,0.077819625,0.056457375
1764511894.2639835,-2.96044,1.84646,0.88508,0.98180901,0.077819625,0.056457375
1764511894.2639835,-3.5098,2.76206,0.6103999999999999,0.98229729,0.077697555,0.057311865
1764511894.2639835,-3.5098,2.76206,0.6103999999999999,0.98229729,0.077697555,0.057311865
1764511894.2639835,-3.5098,2.76206,0.6103999999999999,0.98229729,0.077697555,0.057311865
1764511894.2639835,-3.5098,2.76206,0.6103999999999999,0.98229729,0.077697555,0.057311865
1764511894.309976,-3.5098,2.76206,0.6103999999999999,0.98229729,0.077697555,0.057311865
1764511894.309976,-3.5098,2.76206,0.6103999999999999,0.98229729,0.077697555,0.057311865
1764511894.3109837,-3.5098,2.76206,0.6103999999999999,0.98229729,0.077697555,0.057311865
1764511894.3109837,-3.5098,2.76206,0.6103999999999999,0.98229729,0.077697555,0.057311865
1764511894.3109837,-3.5098,2.76206,0.6103999999999999,0.98229729,0.077697555,0.057311865
1764511894.3109837,-3.5098,2.76206,0.6103999999999999,0.98229729,0.077697555,0.057311865
1764511894.3109837,-3.64714,2.01432,0.73248,0.98046624,0.078185835,0.05688462
1764511894.3109837,-3.64714,2.01432,0.73248,0.98046624,0.078185835,0.05688462
1764511894.3119876,-3.64714,2.01432,0.73248,0.98046624,0.078185835,0.05688462
1764511894.3119876,-3.64714,2.01432,0.73248,0.98046624,0.078185835,0.05688462
1764511894.3119876,-3.64714,2.01432,0.73248,0.98046624,0.078185835,0.05688462
1764511894.3119876,-3.64714,2.01432,0.73248,0.98046624,0.078185835,0.05688462
1764511894.3129754,-3.64714,2.01432,0.73248,0.98046624,0.078185835,0.05688462
1764511894.3129754,-3.64714,2.01432,0.73248,0.98046624,0.078185835,0.05688462
1764511894.3129754,-3.64714,2.01432,0.73248,0.98046624,0.078185835,0.05688462
1764511894.3129754,-3.64714,2.01432,0.73248,0.98046624,0.078185835,0.05688462
1764511894.3129754,-4.15072,1.72438,0.47306,0.98046624,0.078429975,0.05664048
1764511894.3129754,-4.15072,1.72438,0.47306,0.98046624,0.078429975,0.05664048
1764511894.3129754,-4.15072,1.72438,0.47306,0.98046624,0.078429975,0.05664048
1764511894.3129754,-4.15072,1.72438,0.47306,0.98046624,0.078429975,0.05664048
1764511894.3129754,-4.15072,1.72438,0.47306,0.98046624,0.078429975,0.05664048
1764511894.3129754,-4.15072,1.72438,0.47306,0.98046624,0.078429975,0.05664048
1764511894.3129754,-4.15072,1.72438,0.47306,0.98046624,0.078429975,0.05664048
1764511894.3129754,-4.15072,1.72438,0.47306,0.98046624,0.078429975,0.05664048
1764511894.3528275,-4.15072,1.72438,0.47306,0.98046624,0.078429975,0.05664048
1764511894.3528275,-4.15072,1.72438,0.47306,0.98046624,0.078429975,0.05664048
1764511894.3528275,-4.02864,1.05294,-0.18312,0.980161065,0.077209275,0.05725083
1764511894.3528275,-4.02864,1.05294,-0.18312,0.980161065,0.077209275,0.05725083
1764511894.3528275,-4.02864,1.05294,-0.18312,0.980161065,0.077209275,0.05725083
1764511894.3528275,-4.02864,1.05294,-0.18312,0.980161065,0.077209275,0.05725083
1764511894.3528275,-4.02864,1.05294,-0.18312,0.980161065,0.077209275,0.05725083
1764511894.3528275,-4.02864,1.05294,-0.18312,0.980161065,0.077209275,0.05725083
1764511894.3544383,-4.02864,1.05294,-0.18312,0.980161065,0.077209275,0.05725083
1764511894.3544383,-4.02864,1.05294,-0.18312,0.980161065,0.077209275,0.05725083
1764511894.3544383,-4.02864,1.05294,-0.18312,0.980161065,0.077209275,0.05725083
1764511894.3544383,-4.02864,1.05294,-0.18312,0.980161065,0.077209275,0.05725083
1764511894.3544383,-3.95234,0.2289,-0.6409199999999999,0.98034417,0.078307905,0.058166355
1764511894.3544383,-3.95234,0.2289,-0.6409199999999999,0.98034417,0.078307905,0.058166355
1764511894.3544383,-3.95234,0.2289,-0.6409199999999999,0.98034417,0.078307905,0.058166355
1764511894.3544383,-3.95234,0.2289,-0.6409199999999999,0.98034417,0.078307905,0.058166355
1764511894.3544383,-3.95234,0.2289,-0.6409199999999999,0.98034417,0.078307905,0.058166355
1764511894.3554523,-3.95234,0.2289,-0.6409199999999999,0.98034417,0.078307905,0.058166355
1764511894.3554523,-3.95234,0.2289,-0.6409199999999999,0.98034417,0.078307905,0.058166355
1764511894.3554523,-3.95234,0.2289,-0.6409199999999999,0.98034417,0.078307905,0.058166355
1764511894.3554523,-3.95234,0.2289,-0.6409199999999999,0.98034417,0.078307905,0.058166355
1764511894.3554523,-3.95234,0.2289,-0.6409199999999999,0.98034417,0.078307905,0.058166355
1764511894.3554523,-3.44876,1.08346,-0.2289,0.98254143,0.07836894,0.059142915
1764511894.3554523,-3.44876,1.08346,-0.2289,0.98254143,0.07836894,0.059142915
1764511894.3983774,-3.44876,1.08346,-0.2289,0.98254143,0.07836894,0.059142915
1764511894.3983774,-3.44876,1.08346,-0.2289,0.98254143,0.07836894,0.059142915
1764511894.3983774,-3.44876,1.08346,-0.2289,0.98254143,0.07836894,0.059142915
1764511894.3983774,-3.44876,1.08346,-0.2289,0.98254143,0.07836894,0.059142915
1764511894.3983774,-3.44876,1.08346,-0.2289,0.98254143,0.07836894,0.059142915
1764511894.3983774,-3.44876,1.08346,-0.2289,0.98254143,0.07836894,0.059142915
1764511894.3983774,-3.44876,1.08346,-0.2289,0.98254143,0.07836894,0.059142915
1764511894.3983774,-3.44876,1.08346,-0.2289,0.98254143,0.07836894,0.059142915
1764511894.3983774,-3.26564,1.89224,-0.47306,0.98302971,0.077941695,0.058898775
1764511894.399398,-3.26564,1.89224,-0.47306,0.98302971,0.077941695,0.058898775
1764511894.399398,-3.26564,1.89224,-0.47306,0.98302971,0.077941695,0.058898775
1764511894.399398,-3.26564,1.89224,-0.47306,0.98302971,0.077941695,0.058898775
1764511894.399398,-3.26564,1.89224,-0.47306,0.98302971,0.077941695,0.058898775
1764511894.399398,-3.26564,1.89224,-0.47306,0.98302971,0.077941695,0.058898775
1764511894.399398,-3.26564,1.89224,-0.47306,0.98302971,0.077941695,0.058898775
1764511894.399398,-3.26564,1.89224,-0.47306,0.98302971,0.077941695,0.058898775
1764511894.399398,-3.26564,1.89224,-0.47306,0.98302971,0.077941695,0.058898775
1764511894.399398,-3.26564,1.89224,-0.47306,0.98302971,0.077941695,0.058898775
1764511894.399398,-2.92992,1.72438,0.04578,0.981015555,0.07910136,0.05895981
1764511894.399398,-2.92992,1.72438,0.04578,0.981015555,0.07910136,0.05895981
1764511894.399398,-2.92992,1.72438,0.04578,0.981015555,0.07910136,0.05895981
1764511894.399398,-2.92992,1.72438,0.04578,0.981015555,0.07910136,0.05895981
1764511894.399398,-2.92992,1.72438,0.04578,0.981015555,0.07910136,0.05895981
1764511894.399398,-2.92992,1.72438,0.04578,0.981015555,0.07910136,0.05895981
1764511894.4472702,-2.92992,1.72438,0.04578,0.981015555,0.07910136,0.05895981
1764511894.4472702,-2.92992,1.72438,0.04578,0.981015555,0.07910136,0.05895981
1764511894.4472702,-2.92992,1.72438,0.04578,0.981015555,0.07910136,0.05895981
1764511894.4472702,-2.92992,1.72438,0.04578,0.981015555,0.07910136,0.05895981
1764511894.4472702,-2.92992,1.95328,0.41202,0.979550715,0.08019999,0.05908188
1764511894.4472702,-2.92992,1.95328,0.41202,0.979550715,0.08019999,0.05908188
1764511894.4472702,-2.92992,1.95328,0.41202,0.979550715,0.08019999,0.05908188
1764511894.4472702,-2.92992,1.95328,0.41202,0.979550715,0.08019999,0.05908188
1764511894.4472702,-2.92992,1.95328,0.41202,0.979550715,0.08019999,0.05908188
1764511894.4472702,-2.92992,1.95328,0.41202,0.979550715,0.08019999,0.05908188
1764511894.4472702,-2.92992,1.95328,0.41202,0.979550715,0.08019999,0.05908188
1764511894.4472702,-2.92992,1.95328,0.41202,0.979550715,0.08019999,0.05908188
1764511894.4472702,-2.92992,1.95328,0.41202,0.979550715,0.08019999,0.05908188
1764511894.4472702,-2.92992,1.95328,0.41202,0.979550715,0.08019999,0.05908188
1764511894.4472702,-3.03674,1.25132,0.8698199999999999,0.97887933,0.07983378,0.0598143
1764511894.4472702,-3.03674,1.25132,0.8698199999999999,0.97887933,0.07983378,0.0598143
1764511894.4472702,-3.03674,1.25132,0.8698199999999999,0.97887933,0.07983378,0.0598143
1764511894.4472702,-3.03674,1.25132,0.8698199999999999,0.97887933,0.07983378,0.0598143
1764511894.4472702,-3.03674,1.25132,0.8698199999999999,0.97887933,0.07983378,0.0598143
1764511894.4472702,-3.03674,1.25132,0.8698199999999999,0.97887933,0.07983378,0.0598143
1764511894.4472702,-3.03674,1.25132,0.8698199999999999,0.97887933,0.07983378,0.0598143
1764511894.4472702,-3.03674,1.25132,0.8698199999999999,0.97887933,0.07983378,0.0598143
1764511894.4910114,-3.03674,1.25132,0.8698199999999999,0.97887933,0.07983378,0.0598143
1764511894.4910114,-3.03674,1.25132,0.8698199999999999,0.97887933,0.07983378,0.0598143
1764511894.49203,-2.91466,1.19028,1.2055399999999998,0.9802221,0.079406535,0.06005844
1764511894.49203,-2.91466,1.19028,1.2055399999999998,0.9802221,0.079406535,0.06005844
1764511894.49203,-2.91466,1.19028,1.2055399999999998,0.9802221,0.079406535,0.06005844
1764511894.493034,-2.91466,1.19028,1.2055399999999998,0.9802221,0.079406535,0.06005844
1764511894.493034,-2.91466,1.19028,1.2055399999999998,0.9802221,0.079406535,0.06005844
1764511894.493034,-2.91466,1.19028,1.2055399999999998,0.9802221,0.079406535,0.06005844
1764511894.493034,-2.91466,1.19028,1.2055399999999998,0.9802221,0.079406535,0.06005844
1764511894.493034,-2.91466,1.19028,1.2055399999999998,0.9802221,0.079406535,0.06005844
1764511894.493034,-2.91466,1.19028,1.2055399999999998,0.9802221,0.079406535,0.06005844
1764511894.493034,-2.91466,1.19028,1.2055399999999998,0.9802221,0.079406535,0.06005844
1764511894.493034,-3.08252,0.82404,1.46496,0.98010003,0.07946757,0.05944809
1764511894.493034,-3.08252,0.82404,1.46496,0.98010003,0.07946757,0.05944809
1764511894.493034,-3.08252,0.82404,1.46496,0.98010003,0.07946757,0.05944809
1764511894.493034,-3.08252,0.82404,1.46496,0.98010003,0.07946757,0.05944809
1764511894.4963014,-3.08252,0.82404,1.46496,0.98010003,0.07946757,0.05944809
1764511894.4963014,-3.08252,0.82404,1.46496,0.98010003,0.07946757,0.05944809
1764511894.4963014,-3.08252,0.82404,1.46496,0.98010003,0.07946757,0.05944809
1764511894.4963014,-3.08252,0.82404,1.46496,0.98010003,0.07946757,0.05944809
1764511894.4963014,-3.08252,0.82404,1.46496,0.98010003,0.07946757,0.05944809
1764511894.4963014,-3.08252,0.82404,1.46496,0.98010003,0.07946757,0.05944809
1764511894.5421133,-3.55558,0.96138,1.11398,0.97997796,0.08081034,0.058654635
1764511894.5421133,-3.55558,0.96138,1.11398,0.97997796,0.08081034,0.058654635
1764511894.5421133,-3.55558,0.96138,1.11398,0.97997796,0.08081034,0.058654635
1764511894.5421133,-3.55558,0.96138,1.11398,0.97997796,0.08081034,0.058654635
1764511894.5421133,-3.55558,0.96138,1.11398,0.97997796,0.08081034,0.058654635
1764511894.5421133,-3.55558,0.96138,1.11398,0.97997796,0.08081034,0.058654635
1764511894.5421133,-3.55558,0.96138,1.11398,0.97997796,0.08081034,0.058654635
1764511894.5421133,-3.55558,0.96138,1.11398,0.97997796,0.08081034,0.058654635
1764511894.5421133,-3.55558,0.96138,1.11398,0.97997796,0.08081034,0.058654635
1764511894.5421133,-3.55558,0.96138,1.11398,0.97997796,0.08081034,0.058654635
1764511894.5421133,-4.22702,0.74774,1.19028,0.98180901,0.081115515,0.058166355
1764511894.5421133,-4.22702,0.74774,1.19028,0.98180901,0.081115515,0.058166355
1764511894.5431209,-4.22702,0.74774,1.19028,0.98180901,0.081115515,0.058166355
1764511894.5431209,-4.22702,0.74774,1.19028,0.98180901,0.081115515,0.058166355
1764511894.5431209,-4.22702,0.74774,1.19028,0.98180901,0.081115515,0.058166355
1764511894.5431209,-4.22702,0.74774,1.19028,0.98180901,0.081115515,0.058166355
1764511894.5431209,-4.22702,0.74774,1.19028,0.98180901,0.081115515,0.058166355
1764511894.5431209,-4.22702,0.74774,1.19028,0.98180901,0.081115515,0.058166355
1764511894.5431209,-4.22702,0.74774,1.19028,0.98180901,0.081115515,0.058166355
1764511894.5431209,-4.22702,0.74774,1.19028,0.98180901,0.081115515,0.058166355
1764511894.5431209,-4.86794,1.15976,0.7019599999999999,0.982114185,0.08068827,0.058288425
1764511894.5431209,-4.86794,1.15976,0.7019599999999999,0.982114185,0.08068827,0.058288425
1764511894.5431209,-4.86794,1.15976,0.7019599999999999,0.982114185,0.08068827,0.058288425
1764511894.5431209,-4.86794,1.15976,0.7019599999999999,0.982114185,0.08068827,0.058288425
1764511894.589231,-4.86794,1.15976,0.7019599999999999,0.982114185,0.08068827,0.058288425
1764511894.589231,-4.86794,1.15976,0.7019599999999999,0.982114185,0.08068827,0.058288425
1764511894.589231,-4.86794,1.15976,0.7019599999999999,0.982114185,0.08068827,0.058288425
1764511894.589231,-4.86794,1.15976,0.7019599999999999,0.982114185,0.08068827,0.058288425
1764511894.589231,-4.86794,1.15976,0.7019599999999999,0.982114185,0.08068827,0.058288425
1764511894.589231,-4.86794,1.15976,0.7019599999999999,0.982114185,0.08068827,0.058288425
1764511894.590248,-4.3491,2.39582,1.6022999999999998,0.983456955,0.07763652,0.058532565
1764511894.590248,-4.3491,2.39582,1.6022999999999998,0.983456955,0.07763652,0.058532565
1764511894.590248,-4.3491,2.39582,1.6022999999999998,0.983456955,0.07763652,0.058532565
1764511894.590248,-4.3491,2.39582,1.6022999999999998,0.983456955,0.07763652,0.058532565
1764511894.590248,-4.3491,2.39582,1.6022999999999998,0.983456955,0.07763652,0.058532565
1764511894.590248,-4.3491,2.39582,1.6022999999999998,0.983456955,0.07763652,0.058532565
1764511894.590248,-4.3491,2.39582,1.6022999999999998,0.983456955,0.07763652,0.058532565
1764511894.590248,-4.3491,2.39582,1.6022999999999998,0.983456955,0.07763652,0.058532565
1764511894.590248,-4.3491,2.39582,1.6022999999999998,0.983456955,0.07763652,0.058532565
1764511894.590248,-4.3491,2.39582,1.6022999999999998,0.983456955,0.07763652,0.058532565
1764511894.590248,-3.67766,1.35814,0.85456,0.979794855,0.07580547,0.05798325
1764511894.590248,-3.67766,1.35814,0.85456,0.979794855,0.07580547,0.05798325
1764511894.590248,-3.67766,1.35814,0.85456,0.979794855,0.07580547,0.05798325
1764511894.5912485,-3.67766,1.35814,0.85456,0.979794855,0.07580547,0.05798325
1764511894.5912485,-3.67766,1.35814,0.85456,0.979794855,0.07580547,0.05798325
1764511894.5912485,-3.67766,1.35814,0.85456,0.979794855,0.07580547,0.05798325
1764511894.5912485,-3.67766,1.35814,0.85456,0.979794855,0.07580547,0.05798325
1764511894.5912485,-3.67766,1.35814,0.85456,0.979794855,0.07580547,0.05798325
1764511894.6318274,-3.67766,1.35814,0.85456,0.979794855,0.07580547,0.05798325
1764511894.6318274,-3.67766,1.35814,0.85456,0.979794855,0.07580547,0.05798325
1764511894.632842,-3.08252,0.6714399999999999,0.51884,0.979916925,0.07641582,0.05786118
1764511894.632842,-3.08252,0.6714399999999999,0.51884,0.979916925,0.07641582,0.05786118
1764511894.632842,-3.08252,0.6714399999999999,0.51884,0.979916925,0.07641582,0.05786118
1764511894.632842,-3.08252,0.6714399999999999,0.51884,0.979916925,0.07641582,0.05786118
1764511894.6338408,-3.08252,0.6714399999999999,0.51884,0.979916925,0.07641582,0.05786118
1764511894.6338408,-3.08252,0.6714399999999999,0.51884,0.979916925,0.07641582,0.05786118
1764511894.6338408,-3.08252,0.6714399999999999,0.51884,0.979916925,0.07641582,0.05786118
1764511894.6338408,-3.08252,0.6714399999999999,0.51884,0.979916925,0.07641582,0.05786118
1764511894.6338408,-3.08252,0.6714399999999999,0.51884,0.979916925,0.07641582,0.05786118
1764511894.6338408,-3.08252,0.6714399999999999,0.51884,0.979916925,0.07641582,0.05786118
1764511894.6338408,-2.8231,0.9156,0.6103999999999999,0.981870045,0.076476855,0.05761704
1764511894.6338408,-2.8231,0.9156,0.6103999999999999,0.981870045,0.076476855,0.05761704
1764511894.6353557,-2.8231,0.9156,0.6103999999999999,0.981870045,0.076476855,0.05761704
1764511894.6353557,-2.8231,0.9156,0.6103999999999999,0.981870045,0.076476855,0.05761704
1764511894.636366,-2.8231,0.9156,0.6103999999999999,0.981870045,0.076476855,0.05761704
1764511894.6368518,-2.8231,0.9156,0.6103999999999999,0.981870045,0.076476855,0.05761704
1764511894.6373763,-2.8231,0.9156,0.6103999999999999,0.981870045,0.076476855,0.05761704
1764511894.6373763,-2.8231,0.9156,0.6103999999999999,0.981870045,0.076476855,0.05761704
1764511894.6373763,-2.8231,0.9156,0.6103999999999999,0.981870045,0.076476855,0.05761704
1764511894.6373763,-2.8231,0.9156,0.6103999999999999,0.981870045,0.076476855,0.05761704
1764511894.6373763,-2.79258,1.4497,0.9919,0.983456955,0.077819625,0.057922215
1764511894.6373763,-2.79258,1.4497,0.9919,0.983456955,0.077819625,0.057922215
1764511894.6785643,-2.79258,1.4497,0.9919,0.983456955,0.077819625,0.057922215
1764511894.6785643,-2.79258,1.4497,0.9919,0.983456955,0.077819625,0.057922215
1764511894.6785643,-2.79258,1.4497,0.9919,0.983456955,0.077819625,0.057922215
1764511894.6785643,-2.79258,1.4497,0.9919,0.983456955,0.077819625,0.057922215
1764511894.6785643,-2.79258,1.4497,0.9919,0.983456955,0.077819625,0.057922215
1764511894.6785643,-2.79258,1.4497,0.9919,0.983456955,0.077819625,0.057922215
1764511894.6795683,-2.79258,1.4497,0.9919,0.983456955,0.077819625,0.057922215
1764511894.6795683,-2.79258,1.4497,0.9919,0.983456955,0.077819625,0.057922215
1764511894.6795683,-3.57084,1.526,0.51884,0.98180901,0.07983378,0.057800145
1764511894.6800928,-3.57084,1.526,0.51884,0.98180901,0.07983378,0.057800145
1764511894.6800928,-3.57084,1.526,0.51884,0.98180901,0.07983378,0.057800145
1764511894.6800928,-3.57084,1.526,0.51884,0.98180901,0.07983378,0.057800145
1764511894.6800928,-3.57084,1.526,0.51884,0.98180901,0.07983378,0.057800145
1764511894.6800928,-3.57084,1.526,0.51884,0.98180901,0.07983378,0.057800145
1764511894.6800928,-3.57084,1.526,0.51884,0.98180901,0.07983378,0.057800145
1764511894.6800928,-3.57084,1.526,0.51884,0.98180901,0.07983378,0.057800145
1764511894.6800928,-3.57084,1.526,0.51884,0.98180901,0.07983378,0.057800145
1764511894.6800928,-3.57084,1.526,0.51884,0.98180901,0.07983378,0.057800145
1764511894.6811128,-4.15072,1.2208,0.44254,0.980038995,0.08019999,0.05761704
1764511894.682123,-4.15072,1.2208,0.44254,0.980038995,0.08019999,0.05761704
1764511894.682123,-4.15072,1.2208,0.44254,0.980038995,0.08019999,0.05761704
1764511894.682123,-4.15072,1.2208,0.44254,0.980038995,0.08019999,0.05761704
1764511894.7276895,-4.15072,1.2208,0.44254,0.980038995,0.08019999,0.05761704
1764511894.7276895,-4.15072,1.2208,0.44254,0.980038995,0.08019999,0.05761704
1764511894.7276895,-4.15072,1.2208,0.44254,0.980038995,0.08019999,0.05761704
1764511894.7276895,-4.15072,1.2208,0.44254,0.980038995,0.08019999,0.05761704
1764511894.7276895,-4.15072,1.2208,0.44254,0.980038995,0.08019999,0.05761704
1764511894.7276895,-4.15072,1.2208,0.44254,0.980038995,0.08019999,0.05761704
1764511894.7276895,-4.3491,1.41918,0.19838,0.9802221,0.07971171,0.058044285
1764511894.7276895,-4.3491,1.41918,0.19838,0.9802221,0.07971171,0.058044285
1764511894.7276895,-4.3491,1.41918,0.19838,0.9802221,0.07971171,0.058044285
1764511894.7276895,-4.3491,1.41918,0.19838,0.9802221,0.07971171,0.058044285
1764511894.7276895,-4.3491,1.41918,0.19838,0.9802221,0.07971171,0.058044285
1764511894.7276895,-4.3491,1.41918,0.19838,0.9802221,0.07971171,0.058044285
1764511894.7276895,-4.3491,1.41918,0.19838,0.9802221,0.07971171,0.058044285
1764511894.7276895,-4.3491,1.41918,0.19838,0.9802221,0.07971171,0.058044285
1764511894.7287028,-4.3491,1.41918,0.19838,0.9802221,0.07971171,0.058044285
1764511894.7287028,-4.3491,1.41918,0.19838,0.9802221,0.07971171,0.058044285
1764511894.7287028,-4.15072,0.77826,0.3051999999999999,0.97948968,0.079162395,0.05871567
1764511894.7287028,-4.15072,0.77826,0.3051999999999999,0.97948968,0.079162395,0.05871567
1764511894.7287028,-4.15072,0.77826,0.3051999999999999,0.97948968,0.079162395,0.05871567
1764511894.7287028,-4.15072,0.77826,0.3051999999999999,0.97948968,0.079162395,0.05871567
1764511894.7287028,-4.15072,0.77826,0.3051999999999999,0.97948968,0.079162395,0.05871567
1764511894.7287028,-4.15072,0.77826,0.3051999999999999,0.97948968,0.079162395,0.05871567
1764511894.7704947,-4.15072,0.77826,0.3051999999999999,0.97948968,0.079162395,0.05871567
1764511894.7704947,-4.15072,0.77826,0.3051999999999999,0.97948968,0.079162395,0.05871567
1764511894.7704947,-4.15072,0.77826,0.3051999999999999,0.97948968,0.079162395,0.05871567
1764511894.7704947,-4.15072,0.77826,0.3051999999999999,0.97948968,0.079162395,0.05871567
1764511894.771519,-3.90656,0.0,0.7019599999999999,0.978818295,0.07897929,0.058898775
1764511894.771519,-3.90656,0.0,0.7019599999999999,0.978818295,0.07897929,0.058898775
1764511894.771519,-3.90656,0.0,0.7019599999999999,0.978818295,0.07897929,0.058898775
1764511894.771519,-3.90656,0.0,0.7019599999999999,0.978818295,0.07897929,0.058898775
1764511894.771519,-3.90656,0.0,0.7019599999999999,0.978818295,0.07897929,0.058898775
1764511894.771519,-3.90656,0.0,0.7019599999999999,0.978818295,0.07897929,0.058898775
1764511894.771519,-3.90656,0.0,0.7019599999999999,0.978818295,0.07897929,0.058898775
1764511894.771519,-3.90656,0.0,0.7019599999999999,0.978818295,0.07897929,0.058898775
1764511894.771519,-3.90656,0.0,0.7019599999999999,0.978818295,0.07897929,0.058898775
1764511894.771519,-3.90656,0.0,0.7019599999999999,0.978818295,0.07897929,0.058898775
1764511894.7725184,-4.07442,0.41202,0.59514,0.98010003,0.07983378,0.057067725
1764511894.7725184,-4.07442,0.41202,0.59514,0.98010003,0.07983378,0.057067725
1764511894.7725184,-4.07442,0.41202,0.59514,0.98010003,0.07983378,0.057067725
1764511894.7725184,-4.07442,0.41202,0.59514,0.98010003,0.07983378,0.057067725
1764511894.7725184,-4.07442,0.41202,0.59514,0.98010003,0.07983378,0.057067725
1764511894.7725184,-4.07442,0.41202,0.59514,0.98010003,0.07983378,0.057067725
1764511894.7725184,-4.07442,0.41202,0.59514,0.98010003,0.07983378,0.057067725
1764511894.7735133,-4.07442,0.41202,0.59514,0.98010003,0.07983378,0.057067725
1764511894.7735133,-4.07442,0.41202,0.59514,0.98010003,0.07983378,0.057067725
1764511894.7735133,-4.07442,0.41202,0.59514,0.98010003,0.07983378,0.057067725
1764511894.817717,-3.99812,1.03768,1.03768,0.981992115,0.0805662,0.05639634
1764511894.817717,-3.99812,1.03768,1.03768,0.981992115,0.0805662,0.05639634
1764511894.817717,-3.99812,1.03768,1.03768,0.981992115,0.0805662,0.05639634
1764511894.817717,-3.99812,1.03768,1.03768,0.981992115,0.0805662,0.05639634
1764511894.817717,-3.99812,1.03768,1.03768,0.981992115,0.0805662,0.05639634
1764511894.817717,-3.99812,1.03768,1.03768,0.981992115,0.0805662,0.05639634
1764511894.818227,-3.99812,1.03768,1.03768,0.981992115,0.0805662,0.05639634
1764511894.818227,-3.99812,1.03768,1.03768,0.981992115,0.0805662,0.05639634
1764511894.818227,-3.99812,1.03768,1.03768,0.981992115,0.0805662,0.05639634
1764511894.818227,-3.99812,1.03768,1.03768,0.981992115,0.0805662,0.05639634
1764511894.818227,-4.10494,1.3734,1.34288,0.9826635,0.08007792,0.055969095
1764511894.818227,-4.10494,1.3734,1.34288,0.9826635,0.08007792,0.055969095
1764511894.818227,-4.10494,1.3734,1.34288,0.9826635,0.08007792,0.055969095
1764511894.818227,-4.10494,1.3734,1.34288,0.9826635,0.08007792,0.055969095
1764511894.818227,-4.10494,1.3734,1.34288,0.9826635,0.08007792,0.055969095
1764511894.818227,-4.10494,1.3734,1.34288,0.9826635,0.08007792,0.055969095
1764511894.818227,-4.10494,1.3734,1.34288,0.9826635,0.08007792,0.055969095
1764511894.818227,-4.10494,1.3734,1.34288,0.9826635,0.08007792,0.055969095
1764511894.818227,-4.10494,1.3734,1.34288,0.9826635,0.08007792,0.055969095
1764511894.818227,-4.10494,1.3734,1.34288,0.9826635,0.08007792,0.055969095
1764511894.818227,-3.75396,1.9075,0.8698199999999999,0.98217522,0.07873515,0.056335305
1764511894.818227,-3.75396,1.9075,0.8698199999999999,0.98217522,0.07873515,0.056335305
1764511894.81924,-3.75396,1.9075,0.8698199999999999,0.98217522,0.07873515,0.056335305
1764511894.81924,-3.75396,1.9075,0.8698199999999999,0.98217522,0.07873515,0.056335305
1764511894.8636143,-3.75396,1.9075,0.8698199999999999,0.98217522,0.07873515,0.056335305
1764511894.8636143,-3.75396,1.9075,0.8698199999999999,0.98217522,0.07873515,0.056335305
1764511894.8636143,-3.75396,1.9075,0.8698199999999999,0.98217522,0.07873515,0.056335305
1764511894.8636143,-3.75396,1.9075,0.8698199999999999,0.98217522,0.07873515,0.056335305
1764511894.8636143,-3.75396,1.9075,0.8698199999999999,0.98217522,0.07873515,0.056335305
1764511894.8636143,-3.75396,1.9075,0.8698199999999999,0.98217522,0.07873515,0.056335305
1764511894.8636143,-3.52506,1.64808,0.8698199999999999,0.981503835,0.078429975,0.057067725
1764511894.8636143,-3.52506,1.64808,0.8698199999999999,0.981503835,0.078429975,0.057067725
1764511894.8636143,-3.52506,1.64808,0.8698199999999999,0.981503835,0.078429975,0.057067725
1764511894.8636143,-3.52506,1.64808,0.8698199999999999,0.981503835,0.078429975,0.057067725
1764511894.8636143,-3.52506,1.64808,0.8698199999999999,0.981503835,0.078429975,0.057067725
1764511894.8636143,-3.52506,1.64808,0.8698199999999999,0.981503835,0.078429975,0.057067725
1764511894.8636143,-3.52506,1.64808,0.8698199999999999,0.981503835,0.078429975,0.057067725
1764511894.8636143,-3.52506,1.64808,0.8698199999999999,0.981503835,0.078429975,0.057067725
1764511894.8667295,-3.52506,1.64808,0.8698199999999999,0.981503835,0.078429975,0.057067725
1764511894.8667295,-3.52506,1.64808,0.8698199999999999,0.981503835,0.078429975,0.057067725
1764511894.8667295,-2.88414,1.57178,1.03768,0.980771415,0.077575485,0.057922215
1764511894.8667295,-2.88414,1.57178,1.03768,0.980771415,0.077575485,0.057922215
1764511894.8667295,-2.88414,1.57178,1.03768,0.980771415,0.077575485,0.057922215
1764511894.8667295,-2.88414,1.57178,1.03768,0.980771415,0.077575485,0.057922215
1764511894.8667295,-2.88414,1.57178,1.03768,0.980771415,0.077575485,0.057922215
1764511894.8667295,-2.88414,1.57178,1.03768,0.980771415,0.077575485,0.057922215
1764511894.9103725,-2.88414,1.57178,1.03768,0.980771415,0.077575485,0.057922215
1764511894.9103725,-2.88414,1.57178,1.03768,0.980771415,0.077575485,0.057922215
1764511894.9103725,-2.88414,1.57178,1.03768,0.980771415,0.077575485,0.057922215
1764511894.9103725,-2.88414,1.57178,1.03768,0.980771415,0.077575485,0.057922215
1764511894.9103725,-3.06726,1.58704,1.05294,0.98034417,0.07849101,0.05834946
1764511894.9103725,-3.06726,1.58704,1.05294,0.98034417,0.07849101,0.05834946
1764511894.9113867,-3.06726,1.58704,1.05294,0.98034417,0.07849101,0.05834946
1764511894.9113867,-3.06726,1.58704,1.05294,0.98034417,0.07849101,0.05834946
1764511894.9113867,-3.06726,1.58704,1.05294,0.98034417,0.07849101,0.05834946
1764511894.9113867,-3.06726,1.58704,1.05294,0.98034417,0.07849101,0.05834946
1764511894.9113867,-3.06726,1.58704,1.05294,0.98034417,0.07849101,0.05834946
1764511894.9113867,-3.06726,1.58704,1.05294,0.98034417,0.07849101,0.05834946
1764511894.9113867,-3.06726,1.58704,1.05294,0.98034417,0.07849101,0.05834946
1764511894.9113867,-3.06726,1.58704,1.05294,0.98034417,0.07849101,0.05834946
1764511894.9113867,-3.03674,1.43444,1.43444,0.980161065,0.078674115,0.058288425
1764511894.9113867,-3.03674,1.43444,1.43444,0.980161065,0.078674115,0.058288425
1764511894.9113867,-3.03674,1.43444,1.43444,0.980161065,0.078674115,0.058288425
1764511894.9113867,-3.03674,1.43444,1.43444,0.980161065,0.078674115,0.058288425
1764511894.9113867,-3.03674,1.43444,1.43444,0.980161065,0.078674115,0.058288425
1764511894.9113867,-3.03674,1.43444,1.43444,0.980161065,0.078674115,0.058288425
1764511894.9113867,-3.03674,1.43444,1.43444,0.980161065,0.078674115,0.058288425
1764511894.9113867,-3.03674,1.43444,1.43444,0.980161065,0.078674115,0.058288425
1764511894.9113867,-3.03674,1.43444,1.43444,0.980161065,0.078674115,0.058288425
1764511894.9113867,-3.03674,1.43444,1.43444,0.980161065,0.078674115,0.058288425
1764511894.9597294,-3.64714,1.38866,1.4039199999999998,0.98132073,0.078674115,0.05725083
1764511894.9597294,-3.64714,1.38866,1.4039199999999998,0.98132073,0.078674115,0.05725083
1764511894.9597294,-3.64714,1.38866,1.4039199999999998,0.98132073,0.078674115,0.05725083
1764511894.9597294,-3.64714,1.38866,1.4039199999999998,0.98132073,0.078674115,0.05725083
1764511894.9597294,-3.64714,1.38866,1.4039199999999998,0.98132073,0.078674115,0.05725083
1764511894.9597294,-3.64714,1.38866,1.4039199999999998,0.98132073,0.078674115,0.05725083
1764511894.960732,-3.64714,1.38866,1.4039199999999998,0.98132073,0.078674115,0.05725083
1764511894.960732,-3.64714,1.38866,1.4039199999999998,0.98132073,0.078674115,0.05725083
1764511894.960732,-3.64714,1.38866,1.4039199999999998,0.98132073,0.078674115,0.05725083
1764511894.960732,-3.64714,1.38866,1.4039199999999998,0.98132073,0.078674115,0.05725083
1764511894.960732,-4.36436,1.70912,1.49548,0.982114185,0.078429975,0.05712876
1764511894.960732,-4.36436,1.70912,1.49548,0.982114185,0.078429975,0.05712876
1764511894.960732,-4.36436,1.70912,1.49548,0.982114185,0.078429975,0.05712876
1764511894.960732,-4.36436,1.70912,1.49548,0.982114185,0.078429975,0.05712876
1764511894.960732,-4.36436,1.70912,1.49548,0.982114185,0.078429975,0.05712876
1764511894.960732,-4.36436,1.70912,1.49548,0.982114185,0.078429975,0.05712876
1764511894.9637349,-4.36436,1.70912,1.49548,0.982114185,0.078429975,0.05712876
1764511894.9637349,-4.36436,1.70912,1.49548,0.982114185,0.078429975,0.05712876
1764511894.9637349,-4.36436,1.70912,1.49548,0.982114185,0.078429975,0.05712876
1764511894.9637349,-4.36436,1.70912,1.49548,0.982114185,0.078429975,0.05712876
1764511894.9637349,-4.303319999999999,1.93802,1.3734,0.98132073,0.077087205,0.05773911
1764511894.9637349,-4.303319999999999,1.93802,1.3734,0.98132073,0.077087205,0.05773911
1764511894.9637349,-4.303319999999999,1.93802,1.3734,0.98132073,0.077087205,0.05773911
1764511894.9637349,-4.303319999999999,1.93802,1.3734,0.98132073,0.077087205,0.05773911
1764511895.0036626,-4.303319999999999,1.93802,1.3734,0.98132073,0.077087205,0.05773911
1764511895.0036626,-4.303319999999999,1.93802,1.3734,0.98132073,0.077087205,0.05773911
1764511895.006237,-4.303319999999999,1.93802,1.3734,0.98132073,0.077087205,0.05773911
1764511895.006237,-4.303319999999999,1.93802,1.3734,0.98132073,0.077087205,0.05773911
1764511895.006237,-4.303319999999999,1.93802,1.3734,0.98132073,0.077087205,0.05773911
1764511895.006237,-4.303319999999999,1.93802,1.3734,0.98132073,0.077087205,0.05773911
1764511895.006237,-3.64714,1.95328,0.82404,0.9802221,0.076354785,0.05822739
1764511895.006237,-3.64714,1.95328,0.82404,0.9802221,0.076354785,0.05822739
1764511895.006237,-3.64714,1.95328,0.82404,0.9802221,0.076354785,0.05822739
1764511895.006237,-3.64714,1.95328,0.82404,0.9802221,0.076354785,0.05822739
1764511895.006237,-3.64714,1.95328,0.82404,0.9802221,0.076354785,0.05822739
1764511895.006237,-3.64714,1.95328,0.82404,0.9802221,0.076354785,0.05822739
1764511895.006237,-3.64714,1.95328,0.82404,0.9802221,0.076354785,0.05822739
1764511895.006237,-3.64714,1.95328,0.82404,0.9802221,0.076354785,0.05822739
1764511895.006237,-3.64714,1.95328,0.82404,0.9802221,0.076354785,0.05822739
1764511895.006237,-3.64714,1.95328,0.82404,0.9802221,0.076354785,0.05822739
1764511895.0072448,-3.25038,1.31236,0.36624,0.980283135,0.075012015,0.0585936
1764511895.0077648,-3.25038,1.31236,0.36624,0.980283135,0.075012015,0.0585936
1764511895.0077648,-3.25038,1.31236,0.36624,0.980283135,0.075012015,0.0585936
1764511895.0077648,-3.25038,1.31236,0.36624,0.980283135,0.075012015,0.0585936
1764511895.0077648,-3.25038,1.31236,0.36624,0.980283135,0.075012015,0.0585936
1764511895.008786,-3.25038,1.31236,0.36624,0.980283135,0.075012015,0.0585936
1764511895.051409,-3.25038,1.31236,0.36624,0.980283135,0.075012015,0.0585936
1764511895.051409,-3.25038,1.31236,0.36624,0.980283135,0.075012015,0.0585936
1764511895.051409,-3.25038,1.31236,0.36624,0.980283135,0.075012015,0.0585936
1764511895.051409,-3.25038,1.31236,0.36624,0.980283135,0.075012015,0.0585936
1764511895.051409,-2.88414,0.47306,-0.3509799999999999,0.98034417,0.07519512,0.05834946
1764511895.051409,-2.88414,0.47306,-0.3509799999999999,0.98034417,0.07519512,0.05834946
1764511895.051409,-2.88414,0.47306,-0.3509799999999999,0.98034417,0.07519512,0.05834946
1764511895.051409,-2.88414,0.47306,-0.3509799999999999,0.98034417,0.07519512,0.05834946
1764511895.051409,-2.88414,0.47306,-0.3509799999999999,0.98034417,0.07519512,0.05834946
1764511895.051409,-2.88414,0.47306,-0.3509799999999999,0.98034417,0.07519512,0.05834946
1764511895.051409,-2.88414,0.47306,-0.3509799999999999,0.98034417,0.07519512,0.05834946
1764511895.051409,-2.88414,0.47306,-0.3509799999999999,0.98034417,0.07519512,0.05834946
1764511895.0524256,-2.88414,0.47306,-0.3509799999999999,0.98034417,0.07519512,0.05834946
1764511895.0524256,-2.88414,0.47306,-0.3509799999999999,0.98034417,0.07519512,0.05834946
1764511895.0524256,-3.06726,0.8087799999999999,-0.48832,0.982602465,0.07604961,0.05847153
1764511895.0524256,-3.06726,0.8087799999999999,-0.48832,0.982602465,0.07604961,0.05847153
1764511895.0524256,-3.06726,0.8087799999999999,-0.48832,0.982602465,0.07604961,0.05847153
1764511895.0524256,-3.06726,0.8087799999999999,-0.48832,0.982602465,0.07604961,0.05847153
1764511895.0524256,-3.06726,0.8087799999999999,-0.48832,0.982602465,0.07604961,0.05847153
1764511895.0524256,-3.06726,0.8087799999999999,-0.48832,0.982602465,0.07604961,0.05847153
1764511895.0524256,-3.06726,0.8087799999999999,-0.48832,0.982602465,0.07604961,0.05847153
1764511895.0524256,-3.06726,0.8087799999999999,-0.48832,0.982602465,0.07604961,0.05847153
1764511895.0524256,-3.06726,0.8087799999999999,-0.48832,0.982602465,0.07604961,0.05847153
1764511895.0524256,-3.06726,0.8087799999999999,-0.48832,0.982602465,0.07604961,0.05847153
1764511895.1025774,-3.41824,2.18218,-0.0762999999999999,0.98376213,0.07751445,0.05834946
1764511895.1025774,-3.41824,2.18218,-0.0762999999999999,0.98376213,0.07751445,0.05834946
1764511895.1025774,-3.41824,2.18218,-0.0762999999999999,0.98376213,0.07751445,0.05834946
1764511895.1025774,-3.41824,2.18218,-0.0762999999999999,0.98376213,0.07751445,0.05834946
1764511895.1025774,-3.41824,2.18218,-0.0762999999999999,0.98376213,0.07751445,0.05834946
1764511895.103576,-3.41824,2.18218,-0.0762999999999999,0.98376213,0.07751445,0.05834946
1764511895.103576,-3.41824,2.18218,-0.0762999999999999,0.98376213,0.07751445,0.05834946
1764511895.103576,-3.41824,2.18218,-0.0762999999999999,0.98376213,0.07751445,0.05834946
1764511895.103576,-3.41824,2.18218,-0.0762999999999999,0.98376213,0.07751445,0.05834946
1764511895.103576,-3.41824,2.18218,-0.0762999999999999,0.98376213,0.07751445,0.05834946
1764511895.103576,-3.69292,2.76206,0.42728,0.98229729,0.07946757,0.05810532
1764511895.103576,-3.69292,2.76206,0.42728,0.98229729,0.07946757,0.05810532
1764511895.103576,-3.69292,2.76206,0.42728,0.98229729,0.07946757,0.05810532
1764511895.103576,-3.69292,2.76206,0.42728,0.98229729,0.07946757,0.05810532
1764511895.103576,-3.69292,2.76206,0.42728,0.98229729,0.07946757,0.05810532
1764511895.103576,-3.69292,2.76206,0.42728,0.98229729,0.07946757,0.05810532
1764511895.103576,-3.69292,2.76206,0.42728,0.98229729,0.07946757,0.05810532
1764511895.103576,-3.69292,2.76206,0.42728,0.98229729,0.07946757,0.05810532
1764511895.103576,-3.69292,2.76206,0.42728,0.98229729,0.07946757,0.05810532
1764511895.103576,-3.69292,2.76206,0.42728,0.98229729,0.07946757,0.05810532
1764511895.103576,-3.63188,2.30426,0.62566,0.97997796,0.07885722,0.058288425
1764511895.103576,-3.63188,2.30426,0.62566,0.97997796,0.07885722,0.058288425
1764511895.103576,-3.63188,2.30426,0.62566,0.97997796,0.07885722,0.058288425
1764511895.103576,-3.63188,2.30426,0.62566,0.97997796,0.07885722,0.058288425
1764511895.147837,-3.63188,2.30426,0.62566,0.97997796,0.07885722,0.058288425
1764511895.147837,-3.63188,2.30426,0.62566,0.97997796,0.07885722,0.058288425
1764511895.147837,-3.63188,2.30426,0.62566,0.97997796,0.07885722,0.058288425
1764511895.147837,-3.63188,2.30426,0.62566,0.97997796,0.07885722,0.058288425
1764511895.147837,-3.63188,2.30426,0.62566,0.97997796,0.07885722,0.058288425
1764511895.147837,-3.63188,2.30426,0.62566,0.97997796,0.07885722,0.058288425
1764511895.147837,-2.96044,1.93802,1.09872,0.979428645,0.07788066,0.059264985
1764511895.149034,-2.96044,1.93802,1.09872,0.979428645,0.07788066,0.059264985
1764511895.149034,-2.96044,1.93802,1.09872,0.979428645,0.07788066,0.059264985
1764511895.149034,-2.96044,1.93802,1.09872,0.979428645,0.07788066,0.059264985
1764511895.149034,-2.96044,1.93802,1.09872,0.979428645,0.07788066,0.059264985
1764511895.149034,-2.96044,1.93802,1.09872,0.979428645,0.07788066,0.059264985
1764511895.149034,-2.96044,1.93802,1.09872,0.979428645,0.07788066,0.059264985
1764511895.149034,-2.96044,1.93802,1.09872,0.979428645,0.07788066,0.059264985
1764511895.149034,-2.96044,1.93802,1.09872,0.979428645,0.07788066,0.059264985
1764511895.149034,-2.96044,1.93802,1.09872,0.979428645,0.07788066,0.059264985
1764511895.149034,-2.41108,1.69386,1.2055399999999998,0.979184505,0.07727031,0.060607755
1764511895.149034,-2.41108,1.69386,1.2055399999999998,0.979184505,0.07727031,0.060607755
1764511895.149034,-2.41108,1.69386,1.2055399999999998,0.979184505,0.07727031,0.060607755
1764511895.149034,-2.41108,1.69386,1.2055399999999998,0.979184505,0.07727031,0.060607755
1764511895.1505418,-2.41108,1.69386,1.2055399999999998,0.979184505,0.07727031,0.060607755
1764511895.1511009,-2.41108,1.69386,1.2055399999999998,0.979184505,0.07727031,0.060607755
1764511895.1511009,-2.41108,1.69386,1.2055399999999998,0.979184505,0.07727031,0.060607755
1764511895.1515553,-2.41108,1.69386,1.2055399999999998,0.979184505,0.07727031,0.060607755
1764511895.1911676,-2.41108,1.69386,1.2055399999999998,0.979184505,0.07727031,0.060607755
1764511895.1911676,-2.41108,1.69386,1.2055399999999998,0.979184505,0.07727031,0.060607755
1764511895.1931834,-2.47212,1.6786,1.8312,0.979306575,0.077941695,0.059997405
1764511895.1931834,-2.47212,1.6786,1.8312,0.979306575,0.077941695,0.059997405
1764511895.1931834,-2.47212,1.6786,1.8312,0.979306575,0.077941695,0.059997405
1764511895.1931834,-2.47212,1.6786,1.8312,0.979306575,0.077941695,0.059997405
1764511895.1931834,-2.47212,1.6786,1.8312,0.979306575,0.077941695,0.059997405
1764511895.1931834,-2.47212,1.6786,1.8312,0.979306575,0.077941695,0.059997405
1764511895.1931834,-2.47212,1.6786,1.8312,0.979306575,0.077941695,0.059997405
1764511895.1931834,-2.47212,1.6786,1.8312,0.979306575,0.077941695,0.059997405
1764511895.1931834,-2.47212,1.6786,1.8312,0.979306575,0.077941695,0.059997405
1764511895.1931834,-2.47212,1.6786,1.8312,0.979306575,0.077941695,0.059997405
1764511895.1931834,-3.25038,1.15976,1.17502,0.97973382,0.07885722,0.059631195
1764511895.194203,-3.25038,1.15976,1.17502,0.97973382,0.07885722,0.059631195
1764511895.194203,-3.25038,1.15976,1.17502,0.97973382,0.07885722,0.059631195
1764511895.194203,-3.25038,1.15976,1.17502,0.97973382,0.07885722,0.059631195
1764511895.194203,-3.25038,1.15976,1.17502,0.97973382,0.07885722,0.059631195
1764511895.194203,-3.25038,1.15976,1.17502,0.97973382,0.07885722,0.059631195
1764511895.194203,-3.25038,1.15976,1.17502,0.97973382,0.07885722,0.059631195
1764511895.194203,-3.25038,1.15976,1.17502,0.97973382,0.07885722,0.059631195
1764511895.194203,-3.25038,1.15976,1.17502,0.97973382,0.07885722,0.059631195
1764511895.194203,-3.25038,1.15976,1.17502,0.97973382,0.07885722,0.059631195
1764511895.194203,-4.2728,1.11398,0.85456,0.980527275,0.080383095,0.0598143
1764511895.194203,-4.2728,1.11398,0.85456,0.980527275,0.080383095,0.0598143
1764511895.2417717,-4.2728,1.11398,0.85456,0.980527275,0.080383095,0.0598143
1764511895.242313,-4.2728,1.11398,0.85456,0.980527275,0.080383095,0.0598143
1764511895.242313,-4.2728,1.11398,0.85456,0.980527275,0.080383095,0.0598143
1764511895.242313,-4.2728,1.11398,0.85456,0.980527275,0.080383095,0.0598143
1764511895.242313,-4.2728,1.11398,0.85456,0.980527275,0.080383095,0.0598143
1764511895.242313,-4.2728,1.11398,0.85456,0.980527275,0.080383095,0.0598143
1764511895.242313,-4.2728,1.11398,0.85456,0.980527275,0.080383095,0.0598143
1764511895.242313,-4.2728,1.11398,0.85456,0.980527275,0.080383095,0.0598143
1764511895.242313,-4.77638,1.25132,0.8392999999999999,0.981015555,0.080383095,0.059631195
1764511895.242313,-4.77638,1.25132,0.8392999999999999,0.981015555,0.080383095,0.059631195
1764511895.242313,-4.77638,1.25132,0.8392999999999999,0.981015555,0.080383095,0.059631195
1764511895.242313,-4.77638,1.25132,0.8392999999999999,0.981015555,0.080383095,0.059631195
1764511895.242313,-4.77638,1.25132,0.8392999999999999,0.981015555,0.080383095,0.059631195
1764511895.242313,-4.77638,1.25132,0.8392999999999999,0.981015555,0.080383095,0.059631195
1764511895.242313,-4.77638,1.25132,0.8392999999999999,0.981015555,0.080383095,0.059631195
1764511895.242313,-4.77638,1.25132,0.8392999999999999,0.981015555,0.080383095,0.059631195
1764511895.242313,-4.77638,1.25132,0.8392999999999999,0.981015555,0.080383095,0.059631195
1764511895.242313,-4.77638,1.25132,0.8392999999999999,0.981015555,0.080383095,0.059631195
1764511895.242313,-4.54748,2.38056,1.12924,0.982114185,0.078307905,0.060119475
1764511895.242313,-4.54748,2.38056,1.12924,0.982114185,0.078307905,0.060119475
1764511895.242313,-4.54748,2.38056,1.12924,0.982114185,0.078307905,0.060119475
1764511895.242313,-4.54748,2.38056,1.12924,0.982114185,0.078307905,0.060119475
1764511895.242313,-4.54748,2.38056,1.12924,0.982114185,0.078307905,0.060119475
1764511895.242313,-4.54748,2.38056,1.12924,0.982114185,0.078307905,0.060119475
1764511895.286607,-4.54748,2.38056,1.12924,0.982114185,0.078307905,0.060119475
1764511895.286607,-4.54748,2.38056,1.12924,0.982114185,0.078307905,0.060119475
1764511895.286607,-4.54748,2.38056,1.12924,0.982114185,0.078307905,0.060119475
1764511895.286607,-4.54748,2.38056,1.12924,0.982114185,0.078307905,0.060119475
1764511895.286607,-3.815,1.58704,0.74774,0.97912347,0.076110645,0.059753265
1764511895.286607,-3.815,1.58704,0.74774,0.97912347,0.076110645,0.059753265
1764511895.286607,-3.815,1.58704,0.74774,0.97912347,0.076110645,0.059753265
1764511895.286607,-3.815,1.58704,0.74774,0.97912347,0.076110645,0.059753265
1764511895.286607,-3.815,1.58704,0.74774,0.97912347,0.076110645,0.059753265
1764511895.286607,-3.815,1.58704,0.74774,0.97912347,0.076110645,0.059753265
1764511895.286607,-3.815,1.58704,0.74774,0.97912347,0.076110645,0.059753265
1764511895.286607,-3.815,1.58704,0.74774,0.97912347,0.076110645,0.059753265
1764511895.287628,-3.815,1.58704,0.74774,0.97912347,0.076110645,0.059753265
1764511895.287628,-3.815,1.58704,0.74774,0.97912347,0.076110645,0.059753265
1764511895.287628,-2.91466,0.8087799999999999,0.03052,0.979062435,0.075988575,0.0598143
1764511895.287628,-2.91466,0.8087799999999999,0.03052,0.979062435,0.075988575,0.0598143
1764511895.287628,-2.91466,0.8087799999999999,0.03052,0.979062435,0.075988575,0.0598143
1764511895.287628,-2.91466,0.8087799999999999,0.03052,0.979062435,0.075988575,0.0598143
1764511895.287628,-2.91466,0.8087799999999999,0.03052,0.979062435,0.075988575,0.0598143
1764511895.287628,-2.91466,0.8087799999999999,0.03052,0.979062435,0.075988575,0.0598143
1764511895.287628,-2.91466,0.8087799999999999,0.03052,0.979062435,0.075988575,0.0598143
1764511895.287628,-2.91466,0.8087799999999999,0.03052,0.979062435,0.075988575,0.0598143
1764511895.3358057,-2.91466,0.8087799999999999,0.03052,0.979062435,0.075988575,0.0598143
1764511895.3358057,-2.91466,0.8087799999999999,0.03052,0.979062435,0.075988575,0.0598143
1764511895.3358057,-3.052,1.19028,0.82404,0.98132073,0.075500295,0.06030258
1764511895.3368125,-3.052,1.19028,0.82404,0.98132073,0.075500295,0.06030258
1764511895.3368125,-3.052,1.19028,0.82404,0.98132073,0.075500295,0.06030258
1764511895.3368125,-3.052,1.19028,0.82404,0.98132073,0.075500295,0.06030258
1764511895.3368125,-3.052,1.19028,0.82404,0.98132073,0.075500295,0.06030258
1764511895.3368125,-3.052,1.19028,0.82404,0.98132073,0.075500295,0.06030258
1764511895.3368125,-3.052,1.19028,0.82404,0.98132073,0.075500295,0.06030258
1764511895.3368125,-3.052,1.19028,0.82404,0.98132073,0.075500295,0.06030258
1764511895.3368125,-3.052,1.19028,0.82404,0.98132073,0.075500295,0.06030258
1764511895.3368125,-3.052,1.19028,0.82404,0.98132073,0.075500295,0.06030258
1764511895.3368125,-2.57894,1.89224,0.71722,0.982846605,0.07702617,0.0598143
1764511895.3368125,-2.57894,1.89224,0.71722,0.982846605,0.07702617,0.0598143
1764511895.3368125,-2.57894,1.89224,0.71722,0.982846605,0.07702617,0.0598143
1764511895.3368125,-2.57894,1.89224,0.71722,0.982846605,0.07702617,0.0598143
1764511895.3368125,-2.57894,1.89224,0.71722,0.982846605,0.07702617,0.0598143
1764511895.3368125,-2.57894,1.89224,0.71722,0.982846605,0.07702617,0.0598143
1764511895.3368125,-2.57894,1.89224,0.71722,0.982846605,0.07702617,0.0598143
1764511895.3368125,-2.57894,1.89224,0.71722,0.982846605,0.07702617,0.0598143
1764511895.3368125,-2.57894,1.89224,0.71722,0.982846605,0.07702617,0.0598143
1764511895.3368125,-2.57894,1.89224,0.71722,0.982846605,0.07702617,0.0598143
1764511895.3368125,-3.69292,1.6786,0.71722,0.98205315,0.078552045,0.05944809
1764511895.3368125,-3.69292,1.6786,0.71722,0.98205315,0.078552045,0.05944809
1764511895.3825505,-3.69292,1.6786,0.71722,0.98205315,0.078552045,0.05944809
1764511895.3825505,-3.69292,1.6786,0.71722,0.98205315,0.078552045,0.05944809
1764511895.3825505,-3.69292,1.6786,0.71722,0.98205315,0.078552045,0.05944809
1764511895.3825505,-3.69292,1.6786,0.71722,0.98205315,0.078552045,0.05944809
1764511895.3825505,-3.69292,1.6786,0.71722,0.98205315,0.078552045,0.05944809
1764511895.3825505,-3.69292,1.6786,0.71722,0.98205315,0.078552045,0.05944809
1764511895.3825505,-3.69292,1.6786,0.71722,0.98205315,0.078552045,0.05944809
1764511895.3825505,-3.69292,1.6786,0.71722,0.98205315,0.078552045,0.05944809
1764511895.3825505,-3.78448,1.38866,0.65618,0.981259695,0.07995585,0.05895981
1764511895.3825505,-3.78448,1.38866,0.65618,0.981259695,0.07995585,0.05895981
1764511895.3825505,-3.78448,1.38866,0.65618,0.981259695,0.07995585,0.05895981
1764511895.3825505,-3.78448,1.38866,0.65618,0.981259695,0.07995585,0.05895981
1764511895.3835487,-3.78448,1.38866,0.65618,0.981259695,0.07995585,0.05895981
1764511895.3835487,-3.78448,1.38866,0.65618,0.981259695,0.07995585,0.05895981
1764511895.3835487,-3.78448,1.38866,0.65618,0.981259695,0.07995585,0.05895981
1764511895.3835487,-3.78448,1.38866,0.65618,0.981259695,0.07995585,0.05895981
1764511895.3835487,-3.78448,1.38866,0.65618,0.981259695,0.07995585,0.05895981
1764511895.3835487,-3.78448,1.38866,0.65618,0.981259695,0.07995585,0.05895981
1764511895.3835487,-3.815,1.00716,0.12208,0.97985589,0.079528605,0.05895981
1764511895.3835487,-3.815,1.00716,0.12208,0.97985589,0.079528605,0.05895981
1764511895.3835487,-3.815,1.00716,0.12208,0.97985589,0.079528605,0.05895981
1764511895.3835487,-3.815,1.00716,0.12208,0.97985589,0.079528605,0.05895981
1764511895.4266212,-3.815,1.00716,0.12208,0.97985589,0.079528605,0.05895981
1764511895.4266212,-3.815,1.00716,0.12208,0.97985589,0.079528605,0.05895981
1764511895.4266212,-3.815,1.00716,0.12208,0.97985589,0.079528605,0.05895981
1764511895.4266212,-3.815,1.00716,0.12208,0.97985589,0.079528605,0.05895981
1764511895.4266212,-3.815,1.00716,0.12208,0.97985589,0.079528605,0.05895981
1764511895.4266212,-3.815,1.00716,0.12208,0.97985589,0.079528605,0.05895981
1764511895.4276357,-4.15072,0.6867,0.59514,0.97973382,0.07836894,0.05944809
1764511895.4276357,-4.15072,0.6867,0.59514,0.97973382,0.07836894,0.05944809
1764511895.4276357,-4.15072,0.6867,0.59514,0.97973382,0.07836894,0.05944809
1764511895.4276357,-4.15072,0.6867,0.59514,0.97973382,0.07836894,0.05944809
1764511895.4276357,-4.15072,0.6867,0.59514,0.97973382,0.07836894,0.05944809
1764511895.4276357,-4.15072,0.6867,0.59514,0.97973382,0.07836894,0.05944809
1764511895.4276357,-4.15072,0.6867,0.59514,0.97973382,0.07836894,0.05944809
1764511895.4276357,-4.15072,0.6867,0.59514,0.97973382,0.07836894,0.05944809
1764511895.4276357,-4.15072,0.6867,0.59514,0.97973382,0.07836894,0.05944809
1764511895.4276357,-4.15072,0.6867,0.59514,0.97973382,0.07836894,0.05944809
1764511895.4276357,-3.49454,0.79352,0.88508,0.97997796,0.07824687,0.059020845
1764511895.4276357,-3.49454,0.79352,0.88508,0.97997796,0.07824687,0.059020845
1764511895.4276357,-3.49454,0.79352,0.88508,0.97997796,0.07824687,0.059020845
1764511895.4276357,-3.49454,0.79352,0.88508,0.97997796,0.07824687,0.059020845
1764511895.4276357,-3.49454,0.79352,0.88508,0.97997796,0.07824687,0.059020845
1764511895.4276357,-3.49454,0.79352,0.88508,0.97997796,0.07824687,0.059020845
1764511895.4276357,-3.49454,0.79352,0.88508,0.97997796,0.07824687,0.059020845
1764511895.429409,-3.49454,0.79352,0.88508,0.97997796,0.07824687,0.059020845
1764511895.4723892,-3.49454,0.79352,0.88508,0.97997796,0.07824687,0.059020845
1764511895.4723892,-3.49454,0.79352,0.88508,0.97997796,0.07824687,0.059020845
1764511895.473409,-4.059159999999999,0.6714399999999999,1.17502,0.98046624,0.078429975,0.058532565
1764511895.473409,-4.059159999999999,0.6714399999999999,1.17502,0.98046624,0.078429975,0.058532565
1764511895.473409,-4.059159999999999,0.6714399999999999,1.17502,0.98046624,0.078429975,0.058532565
1764511895.473409,-4.059159999999999,0.6714399999999999,1.17502,0.98046624,0.078429975,0.058532565
1764511895.473409,-4.059159999999999,0.6714399999999999,1.17502,0.98046624,0.078429975,0.058532565
1764511895.473409,-4.059159999999999,0.6714399999999999,1.17502,0.98046624,0.078429975,0.058532565
1764511895.473409,-4.059159999999999,0.6714399999999999,1.17502,0.98046624,0.078429975,0.058532565
1764511895.473409,-4.059159999999999,0.6714399999999999,1.17502,0.98046624,0.078429975,0.058532565
1764511895.473409,-4.059159999999999,0.6714399999999999,1.17502,0.98046624,0.078429975,0.058532565
1764511895.473409,-4.059159999999999,0.6714399999999999,1.17502,0.98046624,0.078429975,0.058532565
1764511895.473409,-4.10494,1.31236,0.8087799999999999,0.982724535,0.079284465,0.057678075
1764511895.473409,-4.10494,1.31236,0.8087799999999999,0.982724535,0.079284465,0.057678075
1764511895.473409,-4.10494,1.31236,0.8087799999999999,0.982724535,0.079284465,0.057678075
1764511895.473409,-4.10494,1.31236,0.8087799999999999,0.982724535,0.079284465,0.057678075
1764511895.473409,-4.10494,1.31236,0.8087799999999999,0.982724535,0.079284465,0.057678075
1764511895.473409,-4.10494,1.31236,0.8087799999999999,0.982724535,0.079284465,0.057678075
1764511895.473409,-4.10494,1.31236,0.8087799999999999,0.982724535,0.079284465,0.057678075
1764511895.473409,-4.10494,1.31236,0.8087799999999999,0.982724535,0.079284465,0.057678075
1764511895.473409,-4.10494,1.31236,0.8087799999999999,0.982724535,0.079284465,0.057678075
1764511895.473409,-4.10494,1.31236,0.8087799999999999,0.982724535,0.079284465,0.057678075
1764511895.4747777,-4.02864,1.8312,0.96138,0.983701095,0.0793455,0.05773911
1764511895.4747777,-4.02864,1.8312,0.96138,0.983701095,0.0793455,0.05773911
1764511895.51854,-4.02864,1.8312,0.96138,0.983701095,0.0793455,0.05773911
1764511895.5190897,-4.02864,1.8312,0.96138,0.983701095,0.0793455,0.05773911
1764511895.5190897,-4.02864,1.8312,0.96138,0.983701095,0.0793455,0.05773911
1764511895.5190897,-4.02864,1.8312,0.96138,0.983701095,0.0793455,0.05773911
1764511895.5190897,-4.02864,1.8312,0.96138,0.983701095,0.0793455,0.05773911
1764511895.5190897,-4.02864,1.8312,0.96138,0.983701095,0.0793455,0.05773911
1764511895.5190897,-4.02864,1.8312,0.96138,0.983701095,0.0793455,0.05773911
1764511895.5190897,-4.02864,1.8312,0.96138,0.983701095,0.0793455,0.05773911
1764511895.5190897,-3.92182,2.4416,0.8698199999999999,0.982846605,0.079040325,0.058410495
1764511895.5190897,-3.92182,2.4416,0.8698199999999999,0.982846605,0.079040325,0.058410495
1764511895.5190897,-3.92182,2.4416,0.8698199999999999,0.982846605,0.079040325,0.058410495
1764511895.5190897,-3.92182,2.4416,0.8698199999999999,0.982846605,0.079040325,0.058410495
1764511895.5190897,-3.92182,2.4416,0.8698199999999999,0.982846605,0.079040325,0.058410495
1764511895.5190897,-3.92182,2.4416,0.8698199999999999,0.982846605,0.079040325,0.058410495
1764511895.5190897,-3.92182,2.4416,0.8698199999999999,0.982846605,0.079040325,0.058410495
1764511895.5190897,-3.92182,2.4416,0.8698199999999999,0.982846605,0.079040325,0.058410495
1764511895.5190897,-3.92182,2.4416,0.8698199999999999,0.982846605,0.079040325,0.058410495
1764511895.5190897,-3.92182,2.4416,0.8698199999999999,0.982846605,0.079040325,0.058410495
1764511895.5213892,-3.2046,2.63998,0.8698199999999999,0.98156487,0.077697555,0.05957016
1764511895.5213892,-3.2046,2.63998,0.8698199999999999,0.98156487,0.077697555,0.05957016
1764511895.5226274,-3.2046,2.63998,0.8698199999999999,0.98156487,0.077697555,0.05957016
1764511895.5226274,-3.2046,2.63998,0.8698199999999999,0.98156487,0.077697555,0.05957016
1764511895.5670297,-3.2046,2.63998,0.8698199999999999,0.98156487,0.077697555,0.05957016
1764511895.5670297,-3.2046,2.63998,0.8698199999999999,0.98156487,0.077697555,0.05957016
1764511895.568051,-3.2046,2.63998,0.8698199999999999,0.98156487,0.077697555,0.05957016
1764511895.568051,-3.2046,2.63998,0.8698199999999999,0.98156487,0.077697555,0.05957016
1764511895.568051,-3.2046,2.63998,0.8698199999999999,0.98156487,0.077697555,0.05957016
1764511895.568051,-3.2046,2.63998,0.8698199999999999,0.98156487,0.077697555,0.05957016
1764511895.568051,-2.53316,1.9838,0.94612,0.98058831,0.076843065,0.05993637
1764511895.568051,-2.53316,1.9838,0.94612,0.98058831,0.076843065,0.05993637
1764511895.5690427,-2.53316,1.9838,0.94612,0.98058831,0.076843065,0.05993637
1764511895.5694475,-2.53316,1.9838,0.94612,0.98058831,0.076843065,0.05993637
1764511895.5694475,-2.53316,1.9838,0.94612,0.98058831,0.076843065,0.05993637
1764511895.5694475,-2.53316,1.9838,0.94612,0.98058831,0.076843065,0.05993637
1764511895.5694475,-2.53316,1.9838,0.94612,0.98058831,0.076843065,0.05993637
1764511895.5694475,-2.53316,1.9838,0.94612,0.98058831,0.076843065,0.05993637
1764511895.5694475,-2.53316,1.9838,0.94612,0.98058831,0.076843065,0.05993637
1764511895.5694475,-2.53316,1.9838,0.94612,0.98058831,0.076843065,0.05993637
1764511895.5694475,-2.4416,1.77016,1.05294,0.979550715,0.077453415,0.0598143
1764511895.5694475,-2.4416,1.77016,1.05294,0.979550715,0.077453415,0.0598143
1764511895.5694475,-2.4416,1.77016,1.05294,0.979550715,0.077453415,0.0598143
1764511895.5694475,-2.4416,1.77016,1.05294,0.979550715,0.077453415,0.0598143
1764511895.5694475,-2.4416,1.77016,1.05294,0.979550715,0.077453415,0.0598143
1764511895.5694475,-2.4416,1.77016,1.05294,0.979550715,0.077453415,0.0598143
1764511895.615269,-2.4416,1.77016,1.05294,0.979550715,0.077453415,0.0598143
1764511895.615269,-2.4416,1.77016,1.05294,0.979550715,0.077453415,0.0598143
1764511895.615269,-2.4416,1.77016,1.05294,0.979550715,0.077453415,0.0598143
1764511895.615269,-2.4416,1.77016,1.05294,0.979550715,0.077453415,0.0598143
1764511895.61629,-2.5179,1.81594,0.93086,0.97985589,0.078063765,0.059264985
1764511895.61629,-2.5179,1.81594,0.93086,0.97985589,0.078063765,0.059264985
1764511895.61629,-2.5179,1.81594,0.93086,0.97985589,0.078063765,0.059264985
1764511895.61629,-2.5179,1.81594,0.93086,0.97985589,0.078063765,0.059264985
1764511895.61629,-2.5179,1.81594,0.93086,0.97985589,0.078063765,0.059264985
1764511895.61629,-2.5179,1.81594,0.93086,0.97985589,0.078063765,0.059264985
1764511895.61629,-2.5179,1.81594,0.93086,0.97985589,0.078063765,0.059264985
1764511895.61629,-2.5179,1.81594,0.93086,0.97985589,0.078063765,0.059264985
1764511895.61629,-2.5179,1.81594,0.93086,0.97985589,0.078063765,0.059264985
1764511895.61629,-2.5179,1.81594,0.93086,0.97985589,0.078063765,0.059264985
1764511895.61629,-3.41824,1.61756,0.51884,0.980527275,0.079650675,0.059753265
1764511895.61629,-3.41824,1.61756,0.51884,0.980527275,0.079650675,0.059753265
1764511895.61629,-3.41824,1.61756,0.51884,0.980527275,0.079650675,0.059753265
1764511895.61629,-3.41824,1.61756,0.51884,0.980527275,0.079650675,0.059753265
1764511895.61629,-3.41824,1.61756,0.51884,0.980527275,0.079650675,0.059753265
1764511895.61629,-3.41824,1.61756,0.51884,0.980527275,0.079650675,0.059753265
1764511895.61629,-3.41824,1.61756,0.51884,0.980527275,0.079650675,0.059753265
1764511895.61629,-3.41824,1.61756,0.51884,0.980527275,0.079650675,0.059753265
1764511895.61629,-3.41824,1.61756,0.51884,0.980527275,0.079650675,0.059753265
1764511895.61629,-3.41824,1.61756,0.51884,0.980527275,0.079650675,0.059753265
1764511895.660596,-4.2728,1.92276,0.3357199999999999,0.980771415,0.080138955,0.06018051
1764511895.660596,-4.2728,1.92276,0.3357199999999999,0.980771415,0.080138955,0.06018051
1764511895.6618395,-4.2728,1.92276,0.3357199999999999,0.980771415,0.080138955,0.06018051
1764511895.6618395,-4.2728,1.92276,0.3357199999999999,0.980771415,0.080138955,0.06018051
1764511895.6618395,-4.2728,1.92276,0.3357199999999999,0.980771415,0.080138955,0.06018051
1764511895.6618395,-4.2728,1.92276,0.3357199999999999,0.980771415,0.080138955,0.06018051
1764511895.6618395,-4.2728,1.92276,0.3357199999999999,0.980771415,0.080138955,0.06018051
1764511895.6618395,-4.2728,1.92276,0.3357199999999999,0.980771415,0.080138955,0.06018051
1764511895.66284,-4.2728,1.92276,0.3357199999999999,0.980771415,0.080138955,0.06018051
1764511895.66284,-4.2728,1.92276,0.3357199999999999,0.980771415,0.080138955,0.06018051
1764511895.66284,-4.577999999999999,2.02958,0.82404,0.981503835,0.079162395,0.060363615
1764511895.66284,-4.577999999999999,2.02958,0.82404,0.981503835,0.079162395,0.060363615
1764511895.66284,-4.577999999999999,2.02958,0.82404,0.981503835,0.079162395,0.060363615
1764511895.66284,-4.577999999999999,2.02958,0.82404,0.981503835,0.079162395,0.060363615
1764511895.6638386,-4.577999999999999,2.02958,0.82404,0.981503835,0.079162395,0.060363615
1764511895.6638386,-4.577999999999999,2.02958,0.82404,0.981503835,0.079162395,0.060363615
1764511895.6638386,-4.577999999999999,2.02958,0.82404,0.981503835,0.079162395,0.060363615
1764511895.6638386,-4.577999999999999,2.02958,0.82404,0.981503835,0.079162395,0.060363615
1764511895.6638386,-4.577999999999999,2.02958,0.82404,0.981503835,0.079162395,0.060363615
1764511895.6638386,-4.577999999999999,2.02958,0.82404,0.981503835,0.079162395,0.060363615
1764511895.6638386,-3.95234,2.289,1.09872,0.981503835,0.07714824,0.061218105
1764511895.6638386,-3.95234,2.289,1.09872,0.981503835,0.07714824,0.061218105
1764511895.6638386,-3.95234,2.289,1.09872,0.981503835,0.07714824,0.061218105
1764511895.6638386,-3.95234,2.289,1.09872,0.981503835,0.07714824,0.061218105
1764511895.7070782,-3.95234,2.289,1.09872,0.981503835,0.07714824,0.061218105
1764511895.7070782,-3.95234,2.289,1.09872,0.981503835,0.07714824,0.061218105
1764511895.7070782,-3.95234,2.289,1.09872,0.981503835,0.07714824,0.061218105
1764511895.7070782,-3.95234,2.289,1.09872,0.981503835,0.07714824,0.061218105
1764511895.7070782,-3.95234,2.289,1.09872,0.981503835,0.07714824,0.061218105
1764511895.7070782,-3.95234,2.289,1.09872,0.981503835,0.07714824,0.061218105
1764511895.7070782,-3.47928,1.70912,0.7019599999999999,0.979062435,0.07665996,0.061340175
1764511895.7070782,-3.47928,1.70912,0.7019599999999999,0.979062435,0.07665996,0.061340175
1764511895.7070782,-3.47928,1.70912,0.7019599999999999,0.979062435,0.07665996,0.061340175
1764511895.7087038,-3.47928,1.70912,0.7019599999999999,0.979062435,0.07665996,0.061340175
1764511895.7087038,-3.47928,1.70912,0.7019599999999999,0.979062435,0.07665996,0.061340175
1764511895.7087038,-3.47928,1.70912,0.7019599999999999,0.979062435,0.07665996,0.061340175
1764511895.7087038,-3.47928,1.70912,0.7019599999999999,0.979062435,0.07665996,0.061340175
1764511895.7087038,-3.47928,1.70912,0.7019599999999999,0.979062435,0.07665996,0.061340175
1764511895.7087038,-3.47928,1.70912,0.7019599999999999,0.979062435,0.07665996,0.061340175
1764511895.7087038,-3.47928,1.70912,0.7019599999999999,0.979062435,0.07665996,0.061340175
1764511895.7087038,-3.32668,1.05294,0.54936,0.980038995,0.075866505,0.06237777
1764511895.7087038,-3.32668,1.05294,0.54936,0.980038995,0.075866505,0.06237777
1764511895.7087038,-3.32668,1.05294,0.54936,0.980038995,0.075866505,0.06237777
1764511895.7087038,-3.32668,1.05294,0.54936,0.980038995,0.075866505,0.06237777
1764511895.7103007,-3.32668,1.05294,0.54936,0.980038995,0.075866505,0.06237777
1764511895.7103007,-3.32668,1.05294,0.54936,0.980038995,0.075866505,0.06237777
1764511895.7103007,-3.32668,1.05294,0.54936,0.980038995,0.075866505,0.06237777
1764511895.7103007,-3.32668,1.05294,0.54936,0.980038995,0.075866505,0.06237777
1764511895.753215,-3.32668,1.05294,0.54936,0.980038995,0.075866505,0.06237777
1764511895.753215,-3.32668,1.05294,0.54936,0.980038995,0.075866505,0.06237777
1764511895.753215,-2.71628,0.2289,-0.28994,0.98046624,0.0769041,0.06164535
1764511895.753215,-2.71628,0.2289,-0.28994,0.98046624,0.0769041,0.06164535
1764511895.753215,-2.71628,0.2289,-0.28994,0.98046624,0.0769041,0.06164535
1764511895.753215,-2.71628,0.2289,-0.28994,0.98046624,0.0769041,0.06164535
1764511895.753215,-2.71628,0.2289,-0.28994,0.98046624,0.0769041,0.06164535
1764511895.753215,-2.71628,0.2289,-0.28994,0.98046624,0.0769041,0.06164535
1764511895.753215,-2.71628,0.2289,-0.28994,0.98046624,0.0769041,0.06164535
1764511895.753215,-2.71628,0.2289,-0.28994,0.98046624,0.0769041,0.06164535
1764511895.753215,-2.71628,0.2289,-0.28994,0.98046624,0.0769041,0.06164535
1764511895.753215,-2.71628,0.2289,-0.28994,0.98046624,0.0769041,0.06164535
1764511895.753215,-3.6624,0.36624,-0.6409199999999999,0.981992115,0.07897929,0.061584315
1764511895.753215,-3.6624,0.36624,-0.6409199999999999,0.981992115,0.07897929,0.061584315
1764511895.753215,-3.6624,0.36624,-0.6409199999999999,0.981992115,0.07897929,0.061584315
1764511895.753215,-3.6624,0.36624,-0.6409199999999999,0.981992115,0.07897929,0.061584315
1764511895.753215,-3.6624,0.36624,-0.6409199999999999,0.981992115,0.07897929,0.061584315
1764511895.753215,-3.6624,0.36624,-0.6409199999999999,0.981992115,0.07897929,0.061584315
1764511895.753215,-3.6624,0.36624,-0.6409199999999999,0.981992115,0.07897929,0.061584315
1764511895.753215,-3.6624,0.36624,-0.6409199999999999,0.981992115,0.07897929,0.061584315
1764511895.753215,-3.6624,0.36624,-0.6409199999999999,0.981992115,0.07897929,0.061584315
1764511895.754212,-3.6624,0.36624,-0.6409199999999999,0.981992115,0.07897929,0.061584315
1764511895.801331,-3.815,1.6633399999999998,-0.1678599999999999,0.983945235,0.080505165,0.06140121
1764511895.801331,-3.815,1.6633399999999998,-0.1678599999999999,0.983945235,0.080505165,0.06140121
1764511895.801331,-3.815,1.6633399999999998,-0.1678599999999999,0.983945235,0.080505165,0.06140121
1764511895.8028245,-3.815,1.6633399999999998,-0.1678599999999999,0.983945235,0.080505165,0.06140121
1764511895.8028245,-3.815,1.6633399999999998,-0.1678599999999999,0.983945235,0.080505165,0.06140121
1764511895.8028245,-3.815,1.6633399999999998,-0.1678599999999999,0.983945235,0.080505165,0.06140121
1764511895.803831,-3.815,1.6633399999999998,-0.1678599999999999,0.983945235,0.080505165,0.06140121
1764511895.803831,-3.815,1.6633399999999998,-0.1678599999999999,0.983945235,0.080505165,0.06140121
1764511895.803831,-3.815,1.6633399999999998,-0.1678599999999999,0.983945235,0.080505165,0.06140121
1764511895.803831,-3.815,1.6633399999999998,-0.1678599999999999,0.983945235,0.080505165,0.06140121
1764511895.803831,-4.1202,2.80784,0.5341,0.983579025,0.080749305,0.061035
1764511895.803831,-4.1202,2.80784,0.5341,0.983579025,0.080749305,0.061035
1764511895.803831,-4.1202,2.80784,0.5341,0.983579025,0.080749305,0.061035
1764511895.8054235,-4.1202,2.80784,0.5341,0.983579025,0.080749305,0.061035
1764511895.805845,-4.1202,2.80784,0.5341,0.983579025,0.080749305,0.061035
1764511895.805845,-4.1202,2.80784,0.5341,0.983579025,0.080749305,0.061035
1764511895.805845,-4.1202,2.80784,0.5341,0.983579025,0.080749305,0.061035
1764511895.8064392,-4.1202,2.80784,0.5341,0.983579025,0.080749305,0.061035
1764511895.8064392,-4.1202,2.80784,0.5341,0.983579025,0.080749305,0.061035
1764511895.8064392,-4.1202,2.80784,0.5341,0.983579025,0.080749305,0.061035
1764511895.8064392,-3.5861,2.289,1.03768,0.9802221,0.080993445,0.060363615
1764511895.8064392,-3.5861,2.289,1.03768,0.9802221,0.080993445,0.060363615
1764511895.8064392,-3.5861,2.289,1.03768,0.9802221,0.080993445,0.060363615
1764511895.8064392,-3.5861,2.289,1.03768,0.9802221,0.080993445,0.060363615
1764511895.8486693,-3.5861,2.289,1.03768,0.9802221,0.080993445,0.060363615
1764511895.849182,-3.5861,2.289,1.03768,0.9802221,0.080993445,0.060363615
1764511895.849182,-3.5861,2.289,1.03768,0.9802221,0.080993445,0.060363615
1764511895.849827,-3.5861,2.289,1.03768,0.9802221,0.080993445,0.060363615
1764511895.849827,-3.5861,2.289,1.03768,0.9802221,0.080993445,0.060363615
1764511895.850194,-3.5861,2.289,1.03768,0.9802221,0.080993445,0.060363615
1764511895.850194,-3.26564,1.6633399999999998,0.94612,0.97887933,0.079284465,0.061584315
1764511895.850194,-3.26564,1.6633399999999998,0.94612,0.97887933,0.079284465,0.061584315
1764511895.850194,-3.26564,1.6633399999999998,0.94612,0.97887933,0.079284465,0.061584315
1764511895.850194,-3.26564,1.6633399999999998,0.94612,0.97887933,0.079284465,0.061584315
1764511895.850194,-3.26564,1.6633399999999998,0.94612,0.97887933,0.079284465,0.061584315
1764511895.8511984,-3.26564,1.6633399999999998,0.94612,0.97887933,0.079284465,0.061584315
1764511895.8511984,-3.26564,1.6633399999999998,0.94612,0.97887933,0.079284465,0.061584315
1764511895.8511984,-3.26564,1.6633399999999998,0.94612,0.97887933,0.079284465,0.061584315
1764511895.8511984,-3.26564,1.6633399999999998,0.94612,0.97887933,0.079284465,0.061584315
1764511895.8511984,-3.26564,1.6633399999999998,0.94612,0.97887933,0.079284465,0.061584315
1764511895.8511984,-2.41108,1.8006799999999998,0.88508,0.97961175,0.078185835,0.062682945
1764511895.8511984,-2.41108,1.8006799999999998,0.88508,0.97961175,0.078185835,0.062682945
1764511895.8511984,-2.41108,1.8006799999999998,0.88508,0.97961175,0.078185835,0.062682945
1764511895.8511984,-2.41108,1.8006799999999998,0.88508,0.97961175,0.078185835,0.062682945
1764511895.8511984,-2.41108,1.8006799999999998,0.88508,0.97961175,0.078185835,0.062682945
1764511895.8521955,-2.41108,1.8006799999999998,0.88508,0.97961175,0.078185835,0.062682945
1764511895.8521955,-2.41108,1.8006799999999998,0.88508,0.97961175,0.078185835,0.062682945
1764511895.8521955,-2.41108,1.8006799999999998,0.88508,0.97961175,0.078185835,0.062682945
1764511895.8947043,-2.41108,1.8006799999999998,0.88508,0.97961175,0.078185835,0.062682945
1764511895.8947043,-2.41108,1.8006799999999998,0.88508,0.97961175,0.078185835,0.062682945
1764511895.8947043,-2.68576,1.6786,0.77826,0.98034417,0.07849101,0.06323226
1764511895.8947043,-2.68576,1.6786,0.77826,0.98034417,0.07849101,0.06323226
1764511895.8947043,-2.68576,1.6786,0.77826,0.98034417,0.07849101,0.06323226
1764511895.8947043,-2.68576,1.6786,0.77826,0.98034417,0.07849101,0.06323226
1764511895.8947043,-2.68576,1.6786,0.77826,0.98034417,0.07849101,0.06323226
1764511895.8947043,-2.68576,1.6786,0.77826,0.98034417,0.07849101,0.06323226
1764511895.8947043,-2.68576,1.6786,0.77826,0.98034417,0.07849101,0.06323226
1764511895.8947043,-2.68576,1.6786,0.77826,0.98034417,0.07849101,0.06323226
1764511895.8947043,-2.68576,1.6786,0.77826,0.98034417,0.07849101,0.06323226
1764511895.8947043,-2.68576,1.6786,0.77826,0.98034417,0.07849101,0.06323226
1764511895.8952186,-2.71628,1.4497,1.11398,0.980649345,0.080505165,0.06335433
1764511895.8952186,-2.71628,1.4497,1.11398,0.980649345,0.080505165,0.06335433
1764511895.8952186,-2.71628,1.4497,1.11398,0.980649345,0.080505165,0.06335433
1764511895.8952186,-2.71628,1.4497,1.11398,0.980649345,0.080505165,0.06335433
1764511895.8952186,-2.71628,1.4497,1.11398,0.980649345,0.080505165,0.06335433
1764511895.8952186,-2.71628,1.4497,1.11398,0.980649345,0.080505165,0.06335433
1764511895.8952186,-2.71628,1.4497,1.11398,0.980649345,0.080505165,0.06335433
1764511895.8952186,-2.71628,1.4497,1.11398,0.980649345,0.080505165,0.06335433
1764511895.8952186,-2.71628,1.4497,1.11398,0.980649345,0.080505165,0.06335433
1764511895.8952186,-2.71628,1.4497,1.11398,0.980649345,0.080505165,0.06335433
1764511895.9413772,-3.76922,0.9156,1.12924,0.97936761,0.08154276,0.06249984
1764511895.9413772,-3.76922,0.9156,1.12924,0.97936761,0.08154276,0.06249984
1764511895.9413772,-3.76922,0.9156,1.12924,0.97936761,0.08154276,0.06249984
1764511895.9413772,-3.76922,0.9156,1.12924,0.97936761,0.08154276,0.06249984
1764511895.9413772,-3.76922,0.9156,1.12924,0.97936761,0.08154276,0.06249984
1764511895.9413772,-3.76922,0.9156,1.12924,0.97936761,0.08154276,0.06249984
1764511895.9413772,-3.76922,0.9156,1.12924,0.97936761,0.08154276,0.06249984
1764511895.9413772,-3.76922,0.9156,1.12924,0.97936761,0.08154276,0.06249984
1764511895.9413772,-3.76922,0.9156,1.12924,0.97936761,0.08154276,0.06249984
1764511895.9413772,-3.76922,0.9156,1.12924,0.97936761,0.08154276,0.06249984
1764511895.9413772,-4.822159999999999,0.51884,0.6103999999999999,0.97961175,0.08239725,0.06176742
1764511895.9413772,-4.822159999999999,0.51884,0.6103999999999999,0.97961175,0.08239725,0.06176742
1764511895.9413772,-4.822159999999999,0.51884,0.6103999999999999,0.97961175,0.08239725,0.06176742
1764511895.9413772,-4.822159999999999,0.51884,0.6103999999999999,0.97961175,0.08239725,0.06176742
1764511895.9413772,-4.822159999999999,0.51884,0.6103999999999999,0.97961175,0.08239725,0.06176742
1764511895.9413772,-4.822159999999999,0.51884,0.6103999999999999,0.97961175,0.08239725,0.06176742
1764511895.9413772,-4.822159999999999,0.51884,0.6103999999999999,0.97961175,0.08239725,0.06176742
1764511895.9413772,-4.822159999999999,0.51884,0.6103999999999999,0.97961175,0.08239725,0.06176742
1764511895.942426,-4.822159999999999,0.51884,0.6103999999999999,0.97961175,0.08239725,0.06176742
1764511895.942426,-4.822159999999999,0.51884,0.6103999999999999,0.97961175,0.08239725,0.06176742
1764511895.942426,-4.60852,0.77826,1.43444,0.97948968,0.08081034,0.06176742
1764511895.942426,-4.60852,0.77826,1.43444,0.97948968,0.08081034,0.06176742
1764511895.942426,-4.60852,0.77826,1.43444,0.97948968,0.08081034,0.06176742
1764511895.942426,-4.60852,0.77826,1.43444,0.97948968,0.08081034,0.06176742
1764511895.9921994,-4.60852,0.77826,1.43444,0.97948968,0.08081034,0.06176742
1764511895.9921994,-4.60852,0.77826,1.43444,0.97948968,0.08081034,0.06176742
1764511895.9921994,-4.60852,0.77826,1.43444,0.97948968,0.08081034,0.06176742
1764511895.9921994,-4.60852,0.77826,1.43444,0.97948968,0.08081034,0.06176742
1764511895.9921994,-4.60852,0.77826,1.43444,0.97948968,0.08081034,0.06176742
1764511895.9921994,-4.60852,0.77826,1.43444,0.97948968,0.08081034,0.06176742
1764511895.9921994,-4.28806,0.79352,2.3653,0.978818295,0.07763652,0.062805015
1764511895.9921994,-4.28806,0.79352,2.3653,0.978818295,0.07763652,0.062805015
1764511895.9921994,-4.28806,0.79352,2.3653,0.978818295,0.07763652,0.062805015
1764511895.9921994,-4.28806,0.79352,2.3653,0.978818295,0.07763652,0.062805015
1764511895.9921994,-4.28806,0.79352,2.3653,0.978818295,0.07763652,0.062805015
1764511895.993204,-4.28806,0.79352,2.3653,0.978818295,0.07763652,0.062805015
1764511895.993204,-4.28806,0.79352,2.3653,0.978818295,0.07763652,0.062805015
1764511895.993204,-4.28806,0.79352,2.3653,0.978818295,0.07763652,0.062805015
1764511895.993204,-4.28806,0.79352,2.3653,0.978818295,0.07763652,0.062805015
1764511895.993204,-4.28806,0.79352,2.3653,0.978818295,0.07763652,0.062805015
1764511895.993204,-3.99812,-0.97664,1.84646,0.97692621,0.07702617,0.061462245
1764511895.993204,-3.99812,-0.97664,1.84646,0.97692621,0.07702617,0.061462245
1764511895.993204,-3.99812,-0.97664,1.84646,0.97692621,0.07702617,0.061462245
1764511895.993204,-3.99812,-0.97664,1.84646,0.97692621,0.07702617,0.061462245
1764511895.993204,-3.99812,-0.97664,1.84646,0.97692621,0.07702617,0.061462245
1764511895.993204,-3.99812,-0.97664,1.84646,0.97692621,0.07702617,0.061462245
1764511895.993204,-3.99812,-0.97664,1.84646,0.97692621,0.07702617,0.061462245
1764511895.993204,-3.99812,-0.97664,1.84646,0.97692621,0.07702617,0.061462245
1764511896.0380116,-3.99812,-0.97664,1.84646,0.97692621,0.07702617,0.061462245
1764511896.0380116,-3.99812,-0.97664,1.84646,0.97692621,0.07702617,0.061462245
1764511896.0380116,-3.76922,-0.6103999999999999,1.6022999999999998,0.979916925,0.07702617,0.061218105
1764511896.0380116,-3.76922,-0.6103999999999999,1.6022999999999998,0.979916925,0.07702617,0.061218105
1764511896.0380116,-3.76922,-0.6103999999999999,1.6022999999999998,0.979916925,0.07702617,0.061218105
1764511896.0380116,-3.76922,-0.6103999999999999,1.6022999999999998,0.979916925,0.07702617,0.061218105
1764511896.0380116,-3.76922,-0.6103999999999999,1.6022999999999998,0.979916925,0.07702617,0.061218105
1764511896.0380116,-3.76922,-0.6103999999999999,1.6022999999999998,0.979916925,0.07702617,0.061218105
1764511896.0380116,-3.76922,-0.6103999999999999,1.6022999999999998,0.979916925,0.07702617,0.061218105
1764511896.0380116,-3.76922,-0.6103999999999999,1.6022999999999998,0.979916925,0.07702617,0.061218105
1764511896.0380116,-3.76922,-0.6103999999999999,1.6022999999999998,0.979916925,0.07702617,0.061218105
1764511896.0380116,-3.76922,-0.6103999999999999,1.6022999999999998,0.979916925,0.07702617,0.061218105
1764511896.0380116,-4.059159999999999,-0.04578,1.35814,0.982846605,0.07604961,0.061096035
1764511896.0380116,-4.059159999999999,-0.04578,1.35814,0.982846605,0.07604961,0.061096035
1764511896.0380116,-4.059159999999999,-0.04578,1.35814,0.982846605,0.07604961,0.061096035
1764511896.0380116,-4.059159999999999,-0.04578,1.35814,0.982846605,0.07604961,0.061096035
1764511896.0380116,-4.059159999999999,-0.04578,1.35814,0.982846605,0.07604961,0.061096035
1764511896.0380116,-4.059159999999999,-0.04578,1.35814,0.982846605,0.07604961,0.061096035
1764511896.0380116,-4.059159999999999,-0.04578,1.35814,0.982846605,0.07604961,0.061096035
1764511896.0390244,-4.059159999999999,-0.04578,1.35814,0.982846605,0.07604961,0.061096035
1764511896.0390244,-4.059159999999999,-0.04578,1.35814,0.982846605,0.07604961,0.061096035
1764511896.0390244,-4.059159999999999,-0.04578,1.35814,0.982846605,0.07604961,0.061096035
1764511896.0390244,-4.47118,0.56462,1.0682,0.983334885,0.076354785,0.060119475
1764511896.0390244,-4.47118,0.56462,1.0682,0.983334885,0.076354785,0.060119475
1764511896.0390244,-4.47118,0.56462,1.0682,0.983334885,0.076354785,0.060119475
1764511896.0390244,-4.47118,0.56462,1.0682,0.983334885,0.076354785,0.060119475
1764511896.0860565,-4.47118,0.56462,1.0682,0.983334885,0.076354785,0.060119475
1764511896.0860565,-4.47118,0.56462,1.0682,0.983334885,0.076354785,0.060119475
1764511896.087084,-4.47118,0.56462,1.0682,0.983334885,0.076354785,0.060119475
1764511896.087084,-4.47118,0.56462,1.0682,0.983334885,0.076354785,0.060119475
1764511896.087084,-4.47118,0.56462,1.0682,0.983334885,0.076354785,0.060119475
1764511896.0880806,-4.47118,0.56462,1.0682,0.983334885,0.076354785,0.060119475
1764511896.0880806,-4.440659999999999,0.10682,0.62566,0.98107659,0.07665996,0.05908188
1764511896.0880806,-4.440659999999999,0.10682,0.62566,0.98107659,0.07665996,0.05908188
1764511896.0880806,-4.440659999999999,0.10682,0.62566,0.98107659,0.07665996,0.05908188
1764511896.0880806,-4.440659999999999,0.10682,0.62566,0.98107659,0.07665996,0.05908188
1764511896.0880806,-4.440659999999999,0.10682,0.62566,0.98107659,0.07665996,0.05908188
1764511896.089079,-4.440659999999999,0.10682,0.62566,0.98107659,0.07665996,0.05908188
1764511896.089079,-4.440659999999999,0.10682,0.62566,0.98107659,0.07665996,0.05908188
1764511896.089079,-4.440659999999999,0.10682,0.62566,0.98107659,0.07665996,0.05908188
1764511896.089079,-4.440659999999999,0.10682,0.62566,0.98107659,0.07665996,0.05908188
1764511896.089079,-4.440659999999999,0.10682,0.62566,0.98107659,0.07665996,0.05908188
1764511896.0900702,-4.56274,-0.09156,0.56462,0.97985589,0.076720995,0.05908188
1764511896.0900702,-4.56274,-0.09156,0.56462,0.97985589,0.076720995,0.05908188
1764511896.0900702,-4.56274,-0.09156,0.56462,0.97985589,0.076720995,0.05908188
1764511896.0900702,-4.56274,-0.09156,0.56462,0.97985589,0.076720995,0.05908188
1764511896.0910678,-4.56274,-0.09156,0.56462,0.97985589,0.076720995,0.05908188
1764511896.0910678,-4.56274,-0.09156,0.56462,0.97985589,0.076720995,0.05908188
1764511896.130635,-4.56274,-0.09156,0.56462,0.97985589,0.076720995,0.05908188
1764511896.130635,-4.56274,-0.09156,0.56462,0.97985589,0.076720995,0.05908188
1764511896.130635,-4.56274,-0.09156,0.56462,0.97985589,0.076720995,0.05908188
1764511896.1311457,-4.56274,-0.09156,0.56462,0.97985589,0.076720995,0.05908188
1764511896.1311457,-4.15072,0.1525999999999999,0.50358,0.979306575,0.07580547,0.059020845
1764511896.1311457,-4.15072,0.1525999999999999,0.50358,0.979306575,0.07580547,0.059020845
1764511896.1311457,-4.15072,0.1525999999999999,0.50358,0.979306575,0.07580547,0.059020845
1764511896.1311457,-4.15072,0.1525999999999999,0.50358,0.979306575,0.07580547,0.059020845
1764511896.1311457,-4.15072,0.1525999999999999,0.50358,0.979306575,0.07580547,0.059020845
1764511896.1311457,-4.15072,0.1525999999999999,0.50358,0.979306575,0.07580547,0.059020845
1764511896.1311457,-4.15072,0.1525999999999999,0.50358,0.979306575,0.07580547,0.059020845
1764511896.1311457,-4.15072,0.1525999999999999,0.50358,0.979306575,0.07580547,0.059020845
1764511896.1311457,-4.15072,0.1525999999999999,0.50358,0.979306575,0.07580547,0.059020845
1764511896.1311457,-4.15072,0.1525999999999999,0.50358,0.979306575,0.07580547,0.059020845
1764511896.1316824,-4.07442,0.3204599999999999,1.2208,0.979916925,0.075500295,0.05798325
1764511896.1316824,-4.07442,0.3204599999999999,1.2208,0.979916925,0.075500295,0.05798325
1764511896.1316824,-4.07442,0.3204599999999999,1.2208,0.979916925,0.075500295,0.05798325
1764511896.1316824,-4.07442,0.3204599999999999,1.2208,0.979916925,0.075500295,0.05798325
1764511896.1316824,-4.07442,0.3204599999999999,1.2208,0.979916925,0.075500295,0.05798325
1764511896.1337192,-4.07442,0.3204599999999999,1.2208,0.979916925,0.075500295,0.05798325
1764511896.1337192,-4.07442,0.3204599999999999,1.2208,0.979916925,0.075500295,0.05798325
1764511896.1337192,-4.07442,0.3204599999999999,1.2208,0.979916925,0.075500295,0.05798325
1764511896.1337192,-4.07442,0.3204599999999999,1.2208,0.979916925,0.075500295,0.05798325
1764511896.1337192,-4.07442,0.3204599999999999,1.2208,0.979916925,0.075500295,0.05798325
1764511896.1770885,-3.98286,-0.2289,1.03768,0.980527275,0.07641582,0.05676255
1764511896.177629,-3.98286,-0.2289,1.03768,0.980527275,0.07641582,0.05676255
1764511896.178663,-3.98286,-0.2289,1.03768,0.980527275,0.07641582,0.05676255
1764511896.178663,-3.98286,-0.2289,1.03768,0.980527275,0.07641582,0.05676255
1764511896.178663,-3.98286,-0.2289,1.03768,0.980527275,0.07641582,0.05676255
1764511896.178663,-3.98286,-0.2289,1.03768,0.980527275,0.07641582,0.05676255
1764511896.178663,-3.98286,-0.2289,1.03768,0.980527275,0.07641582,0.05676255
1764511896.178663,-3.98286,-0.2289,1.03768,0.980527275,0.07641582,0.05676255
1764511896.1816778,-3.98286,-0.2289,1.03768,0.980527275,0.07641582,0.05676255
1764511896.1816778,-3.98286,-0.2289,1.03768,0.980527275,0.07641582,0.05676255
1764511896.1816778,-3.99812,0.85456,0.9003399999999999,0.9826635,0.07702617,0.05627427
1764511896.1816778,-3.99812,0.85456,0.9003399999999999,0.9826635,0.07702617,0.05627427
1764511896.1816778,-3.99812,0.85456,0.9003399999999999,0.9826635,0.07702617,0.05627427
1764511896.182674,-3.99812,0.85456,0.9003399999999999,0.9826635,0.07702617,0.05627427
1764511896.182674,-3.99812,0.85456,0.9003399999999999,0.9826635,0.07702617,0.05627427
1764511896.182674,-3.99812,0.85456,0.9003399999999999,0.9826635,0.07702617,0.05627427
1764511896.182674,-3.99812,0.85456,0.9003399999999999,0.9826635,0.07702617,0.05627427
1764511896.182674,-3.99812,0.85456,0.9003399999999999,0.9826635,0.07702617,0.05627427
1764511896.182674,-3.99812,0.85456,0.9003399999999999,0.9826635,0.07702617,0.05627427
1764511896.182674,-3.99812,0.85456,0.9003399999999999,0.9826635,0.07702617,0.05627427
1764511896.182674,-4.02864,1.48022,0.56462,0.984189375,0.077453415,0.056091165
1764511896.182674,-4.02864,1.48022,0.56462,0.984189375,0.077453415,0.056091165
1764511896.182674,-4.02864,1.48022,0.56462,0.984189375,0.077453415,0.056091165
1764511896.182674,-4.02864,1.48022,0.56462,0.984189375,0.077453415,0.056091165
1764511896.2263875,-4.02864,1.48022,0.56462,0.984189375,0.077453415,0.056091165
1764511896.2263875,-4.02864,1.48022,0.56462,0.984189375,0.077453415,0.056091165
1764511896.2263875,-4.02864,1.48022,0.56462,0.984189375,0.077453415,0.056091165
1764511896.2263875,-4.02864,1.48022,0.56462,0.984189375,0.077453415,0.056091165
1764511896.2263875,-4.02864,1.48022,0.56462,0.984189375,0.077453415,0.056091165
1764511896.227404,-4.02864,1.48022,0.56462,0.984189375,0.077453415,0.056091165
1764511896.227404,-3.84552,2.60946,0.36624,0.984677655,0.07751445,0.056823585
1764511896.227404,-3.84552,2.60946,0.36624,0.984677655,0.07751445,0.056823585
1764511896.227404,-3.84552,2.60946,0.36624,0.984677655,0.07751445,0.056823585
1764511896.227404,-3.84552,2.60946,0.36624,0.984677655,0.07751445,0.056823585
1764511896.227404,-3.84552,2.60946,0.36624,0.984677655,0.07751445,0.056823585
1764511896.227404,-3.84552,2.60946,0.36624,0.984677655,0.07751445,0.056823585
1764511896.227404,-3.84552,2.60946,0.36624,0.984677655,0.07751445,0.056823585
1764511896.227404,-3.84552,2.60946,0.36624,0.984677655,0.07751445,0.056823585
1764511896.227404,-3.84552,2.60946,0.36624,0.984677655,0.07751445,0.056823585
1764511896.227404,-3.84552,2.60946,0.36624,0.984677655,0.07751445,0.056823585
1764511896.227404,-3.06726,3.11304,0.3815,0.984433515,0.07665996,0.05798325
1764511896.227404,-3.06726,3.11304,0.3815,0.984433515,0.07665996,0.05798325
1764511896.227404,-3.06726,3.11304,0.3815,0.984433515,0.07665996,0.05798325
1764511896.227404,-3.06726,3.11304,0.3815,0.984433515,0.07665996,0.05798325
1764511896.227404,-3.06726,3.11304,0.3815,0.984433515,0.07665996,0.05798325
1764511896.227404,-3.06726,3.11304,0.3815,0.984433515,0.07665996,0.05798325
1764511896.274129,-3.06726,3.11304,0.3815,0.984433515,0.07665996,0.05798325
1764511896.274129,-3.06726,3.11304,0.3815,0.984433515,0.07665996,0.05798325
1764511896.274129,-3.06726,3.11304,0.3815,0.984433515,0.07665996,0.05798325
1764511896.274129,-3.06726,3.11304,0.3815,0.984433515,0.07665996,0.05798325
1764511896.274129,-2.16692,2.77732,0.10682,0.98278557,0.075866505,0.058410495
1764511896.274129,-2.16692,2.77732,0.10682,0.98278557,0.075866505,0.058410495
1764511896.274129,-2.16692,2.77732,0.10682,0.98278557,0.075866505,0.058410495
1764511896.274129,-2.16692,2.77732,0.10682,0.98278557,0.075866505,0.058410495
1764511896.274129,-2.16692,2.77732,0.10682,0.98278557,0.075866505,0.058410495
1764511896.274129,-2.16692,2.77732,0.10682,0.98278557,0.075866505,0.058410495
1764511896.2756493,-2.16692,2.77732,0.10682,0.98278557,0.075866505,0.058410495
1764511896.2756493,-2.16692,2.77732,0.10682,0.98278557,0.075866505,0.058410495
1764511896.2756493,-2.16692,2.77732,0.10682,0.98278557,0.075866505,0.058410495
1764511896.2756493,-2.16692,2.77732,0.10682,0.98278557,0.075866505,0.058410495
1764511896.2756493,-2.31952,3.02148,0.82404,0.980771415,0.075988575,0.058654635
1764511896.2756493,-2.31952,3.02148,0.82404,0.980771415,0.075988575,0.058654635
1764511896.2756493,-2.31952,3.02148,0.82404,0.980771415,0.075988575,0.058654635
1764511896.2756493,-2.31952,3.02148,0.82404,0.980771415,0.075988575,0.058654635
1764511896.2756493,-2.31952,3.02148,0.82404,0.980771415,0.075988575,0.058654635
1764511896.2756493,-2.31952,3.02148,0.82404,0.980771415,0.075988575,0.058654635
1764511896.2756493,-2.31952,3.02148,0.82404,0.980771415,0.075988575,0.058654635
1764511896.2756493,-2.31952,3.02148,0.82404,0.980771415,0.075988575,0.058654635
1764511896.2756493,-2.31952,3.02148,0.82404,0.980771415,0.075988575,0.058654635
1764511896.2756493,-2.31952,3.02148,0.82404,0.980771415,0.075988575,0.058654635
1764511896.3197546,-2.01432,2.07536,0.24416,0.98071038,0.07714824,0.059264985
1764511896.3197546,-2.01432,2.07536,0.24416,0.98071038,0.07714824,0.059264985
1764511896.3197546,-2.01432,2.07536,0.24416,0.98071038,0.07714824,0.059264985
1764511896.3197546,-2.01432,2.07536,0.24416,0.98071038,0.07714824,0.059264985
1764511896.3197546,-2.01432,2.07536,0.24416,0.98071038,0.07714824,0.059264985
1764511896.3197546,-2.01432,2.07536,0.24416,0.98071038,0.07714824,0.059264985
1764511896.3197546,-2.01432,2.07536,0.24416,0.98071038,0.07714824,0.059264985
1764511896.3197546,-2.01432,2.07536,0.24416,0.98071038,0.07714824,0.059264985
1764511896.3197546,-2.01432,2.07536,0.24416,0.98071038,0.07714824,0.059264985
1764511896.3197546,-2.01432,2.07536,0.24416,0.98071038,0.07714824,0.059264985
1764511896.3197546,-2.88414,2.27374,0.4578,0.980527275,0.07910136,0.059509125
1764511896.3197546,-2.88414,2.27374,0.4578,0.980527275,0.07910136,0.059509125
1764511896.3197546,-2.88414,2.27374,0.4578,0.980527275,0.07910136,0.059509125
1764511896.3207788,-2.88414,2.27374,0.4578,0.980527275,0.07910136,0.059509125
1764511896.3207788,-2.88414,2.27374,0.4578,0.980527275,0.07910136,0.059509125
1764511896.3207788,-2.88414,2.27374,0.4578,0.980527275,0.07910136,0.059509125
1764511896.3207788,-2.88414,2.27374,0.4578,0.980527275,0.07910136,0.059509125
1764511896.3207788,-2.88414,2.27374,0.4578,0.980527275,0.07910136,0.059509125
1764511896.3207788,-2.88414,2.27374,0.4578,0.980527275,0.07910136,0.059509125
1764511896.3207788,-2.88414,2.27374,0.4578,0.980527275,0.07910136,0.059509125
1764511896.3207788,-3.5098,2.289,0.8392999999999999,0.98119866,0.080749305,0.059387055
1764511896.3207788,-3.5098,2.289,0.8392999999999999,0.98119866,0.080749305,0.059387055
1764511896.3639033,-3.5098,2.289,0.8392999999999999,0.98119866,0.080749305,0.059387055
1764511896.3639033,-3.5098,2.289,0.8392999999999999,0.98119866,0.080749305,0.059387055
1764511896.3639033,-3.5098,2.289,0.8392999999999999,0.98119866,0.080749305,0.059387055
1764511896.3639033,-3.5098,2.289,0.8392999999999999,0.98119866,0.080749305,0.059387055
1764511896.3639033,-3.5098,2.289,0.8392999999999999,0.98119866,0.080749305,0.059387055
1764511896.3639033,-3.5098,2.289,0.8392999999999999,0.98119866,0.080749305,0.059387055
1764511896.3639033,-3.5098,2.289,0.8392999999999999,0.98119866,0.080749305,0.059387055
1764511896.3639033,-3.5098,2.289,0.8392999999999999,0.98119866,0.080749305,0.059387055
1764511896.3639033,-4.0439,2.39582,0.8087799999999999,0.980405205,0.08068827,0.05920395
1764511896.3639033,-4.0439,2.39582,0.8087799999999999,0.980405205,0.08068827,0.05920395
1764511896.3639033,-4.0439,2.39582,0.8087799999999999,0.980405205,0.08068827,0.05920395
1764511896.3639033,-4.0439,2.39582,0.8087799999999999,0.980405205,0.08068827,0.05920395
1764511896.3639033,-4.0439,2.39582,0.8087799999999999,0.980405205,0.08068827,0.05920395
1764511896.3639033,-4.0439,2.39582,0.8087799999999999,0.980405205,0.08068827,0.05920395
1764511896.3639033,-4.0439,2.39582,0.8087799999999999,0.980405205,0.08068827,0.05920395
1764511896.3639033,-4.0439,2.39582,0.8087799999999999,0.980405205,0.08068827,0.05920395
1764511896.365445,-4.0439,2.39582,0.8087799999999999,0.980405205,0.08068827,0.05920395
1764511896.365445,-4.0439,2.39582,0.8087799999999999,0.980405205,0.08068827,0.05920395
1764511896.365445,-4.47118,2.2127,1.02242,0.98132073,0.079528605,0.060485685
1764511896.365445,-4.47118,2.2127,1.02242,0.98132073,0.079528605,0.060485685
1764511896.365987,-4.47118,2.2127,1.02242,0.98132073,0.079528605,0.060485685
1764511896.365987,-4.47118,2.2127,1.02242,0.98132073,0.079528605,0.060485685
1764511896.365987,-4.47118,2.2127,1.02242,0.98132073,0.079528605,0.060485685
1764511896.365987,-4.47118,2.2127,1.02242,0.98132073,0.079528605,0.060485685
1764511896.365987,-4.47118,2.2127,1.02242,0.98132073,0.079528605,0.060485685
1764511896.365987,-4.47118,2.2127,1.02242,0.98132073,0.079528605,0.060485685
1764511896.413675,-4.47118,2.2127,1.02242,0.98132073,0.079528605,0.060485685
1764511896.413675,-4.47118,2.2127,1.02242,0.98132073,0.079528605,0.060485685
1764511896.413675,-3.67766,2.57894,1.6786,0.98254143,0.078063765,0.061706385
1764511896.413675,-3.67766,2.57894,1.6786,0.98254143,0.078063765,0.061706385
1764511896.4146814,-3.67766,2.57894,1.6786,0.98254143,0.078063765,0.061706385
1764511896.4146814,-3.67766,2.57894,1.6786,0.98254143,0.078063765,0.061706385
1764511896.4146814,-3.67766,2.57894,1.6786,0.98254143,0.078063765,0.061706385
1764511896.4146814,-3.67766,2.57894,1.6786,0.98254143,0.078063765,0.061706385
1764511896.4146814,-3.67766,2.57894,1.6786,0.98254143,0.078063765,0.061706385
1764511896.4146814,-3.67766,2.57894,1.6786,0.98254143,0.078063765,0.061706385
1764511896.4156811,-3.67766,2.57894,1.6786,0.98254143,0.078063765,0.061706385
1764511896.4156811,-3.67766,2.57894,1.6786,0.98254143,0.078063765,0.061706385
1764511896.4156811,-2.73154,2.10588,1.38866,0.98058831,0.0769041,0.06213363
1764511896.4162023,-2.73154,2.10588,1.38866,0.98058831,0.0769041,0.06213363
1764511896.4162023,-2.73154,2.10588,1.38866,0.98058831,0.0769041,0.06213363
1764511896.4162023,-2.73154,2.10588,1.38866,0.98058831,0.0769041,0.06213363
1764511896.41723,-2.73154,2.10588,1.38866,0.98058831,0.0769041,0.06213363
1764511896.4177454,-2.73154,2.10588,1.38866,0.98058831,0.0769041,0.06213363
1764511896.4177454,-2.73154,2.10588,1.38866,0.98058831,0.0769041,0.06213363
1764511896.4177454,-2.73154,2.10588,1.38866,0.98058831,0.0769041,0.06213363
1764511896.4182122,-2.73154,2.10588,1.38866,0.98058831,0.0769041,0.06213363
1764511896.4182122,-2.73154,2.10588,1.38866,0.98058831,0.0769041,0.06213363
1764511896.4182122,-2.50264,1.81594,1.17502,0.979916925,0.0769041,0.063171225
1764511896.4182122,-2.50264,1.81594,1.17502,0.979916925,0.0769041,0.063171225
1764511896.4581733,-2.50264,1.81594,1.17502,0.979916925,0.0769041,0.063171225
1764511896.4581733,-2.50264,1.81594,1.17502,0.979916925,0.0769041,0.063171225
1764511896.4581733,-2.50264,1.81594,1.17502,0.979916925,0.0769041,0.063171225
1764511896.459784,-2.50264,1.81594,1.17502,0.979916925,0.0769041,0.063171225
1764511896.461352,-2.50264,1.81594,1.17502,0.979916925,0.0769041,0.063171225
1764511896.4691155,-2.50264,1.81594,1.17502,0.979916925,0.0769041,0.063171225
1764511896.4691155,-2.50264,1.81594,1.17502,0.979916925,0.0769041,0.063171225
1764511896.4701085,-2.50264,1.81594,1.17502,0.979916925,0.0769041,0.063171225
1764511896.4701085,-2.19744,0.94612,0.57988,0.980283135,0.07604961,0.0634764
1764511896.4701085,-2.19744,0.94612,0.57988,0.980283135,0.07604961,0.0634764
1764511896.4701085,-2.19744,0.94612,0.57988,0.980283135,0.07604961,0.0634764
1764511896.4701085,-2.19744,0.94612,0.57988,0.980283135,0.07604961,0.0634764
1764511896.4711156,-2.19744,0.94612,0.57988,0.980283135,0.07604961,0.0634764
1764511896.4711156,-2.19744,0.94612,0.57988,0.980283135,0.07604961,0.0634764
1764511896.4711156,-2.19744,0.94612,0.57988,0.980283135,0.07604961,0.0634764
1764511896.4721138,-2.19744,0.94612,0.57988,0.980283135,0.07604961,0.0634764
1764511896.4721138,-2.19744,0.94612,0.57988,0.980283135,0.07604961,0.0634764
1764511896.4721138,-2.19744,0.94612,0.57988,0.980283135,0.07604961,0.0634764
1764511896.4721138,-2.7468,0.5341,-0.12208,0.98107659,0.078307905,0.06286605
1764511896.4721138,-2.7468,0.5341,-0.12208,0.98107659,0.078307905,0.06286605
1764511896.5058584,-2.7468,0.5341,-0.12208,0.98107659,0.078307905,0.06286605
1764511896.5058584,-2.7468,0.5341,-0.12208,0.98107659,0.078307905,0.06286605
1764511896.5058584,-2.7468,0.5341,-0.12208,0.98107659,0.078307905,0.06286605
1764511896.5058584,-2.7468,0.5341,-0.12208,0.98107659,0.078307905,0.06286605
1764511896.5058584,-2.7468,0.5341,-0.12208,0.98107659,0.078307905,0.06286605
1764511896.5058584,-2.7468,0.5341,-0.12208,0.98107659,0.078307905,0.06286605
1764511896.5058584,-2.7468,0.5341,-0.12208,0.98107659,0.078307905,0.06286605
1764511896.5058584,-2.7468,0.5341,-0.12208,0.98107659,0.078307905,0.06286605
1764511896.5058584,-3.78448,1.49548,0.19838,0.98339592,0.079406535,0.06286605
1764511896.5058584,-3.78448,1.49548,0.19838,0.98339592,0.079406535,0.06286605
1764511896.5058584,-3.78448,1.49548,0.19838,0.98339592,0.079406535,0.06286605
1764511896.5058584,-3.78448,1.49548,0.19838,0.98339592,0.079406535,0.06286605
1764511896.5058584,-3.78448,1.49548,0.19838,0.98339592,0.079406535,0.06286605
1764511896.5058584,-3.78448,1.49548,0.19838,0.98339592,0.079406535,0.06286605
1764511896.5058584,-3.78448,1.49548,0.19838,0.98339592,0.079406535,0.06286605
1764511896.5058584,-3.78448,1.49548,0.19838,0.98339592,0.079406535,0.06286605
1764511896.5058584,-3.78448,1.49548,0.19838,0.98339592,0.079406535,0.06286605
1764511896.5058584,-3.78448,1.49548,0.19838,0.98339592,0.079406535,0.06286605
1764511896.5058584,-4.15072,2.47212,0.94612,0.984189375,0.07922343,0.062316735
1764511896.506875,-4.15072,2.47212,0.94612,0.984189375,0.07922343,0.062316735
1764511896.506875,-4.15072,2.47212,0.94612,0.984189375,0.07922343,0.062316735
1764511896.506875,-4.15072,2.47212,0.94612,0.984189375,0.07922343,0.062316735
1764511896.506875,-4.15072,2.47212,0.94612,0.984189375,0.07922343,0.062316735
1764511896.506875,-4.15072,2.47212,0.94612,0.984189375,0.07922343,0.062316735
1764511896.549793,-4.15072,2.47212,0.94612,0.984189375,0.07922343,0.062316735
1764511896.549793,-4.15072,2.47212,0.94612,0.984189375,0.07922343,0.062316735
1764511896.549793,-4.15072,2.47212,0.94612,0.984189375,0.07922343,0.062316735
1764511896.549793,-4.15072,2.47212,0.94612,0.984189375,0.07922343,0.062316735
1764511896.549793,-4.3491,2.53316,1.2971,0.981625905,0.07873515,0.06176742
1764511896.549793,-4.3491,2.53316,1.2971,0.981625905,0.07873515,0.06176742
1764511896.549793,-4.3491,2.53316,1.2971,0.981625905,0.07873515,0.06176742
1764511896.549793,-4.3491,2.53316,1.2971,0.981625905,0.07873515,0.06176742
1764511896.549793,-4.3491,2.53316,1.2971,0.981625905,0.07873515,0.06176742
1764511896.549793,-4.3491,2.53316,1.2971,0.981625905,0.07873515,0.06176742
1764511896.549793,-4.3491,2.53316,1.2971,0.981625905,0.07873515,0.06176742
1764511896.549793,-4.3491,2.53316,1.2971,0.981625905,0.07873515,0.06176742
1764511896.549793,-4.3491,2.53316,1.2971,0.981625905,0.07873515,0.06176742
1764511896.549793,-4.3491,2.53316,1.2971,0.981625905,0.07873515,0.06176742
1764511896.549793,-3.67766,2.10588,1.69386,0.978940365,0.077209275,0.06249984
1764511896.549793,-3.67766,2.10588,1.69386,0.978940365,0.077209275,0.06249984
1764511896.549793,-3.67766,2.10588,1.69386,0.978940365,0.077209275,0.06249984
1764511896.549793,-3.67766,2.10588,1.69386,0.978940365,0.077209275,0.06249984
1764511896.549793,-3.67766,2.10588,1.69386,0.978940365,0.077209275,0.06249984
1764511896.549793,-3.67766,2.10588,1.69386,0.978940365,0.077209275,0.06249984
1764511896.549793,-3.67766,2.10588,1.69386,0.978940365,0.077209275,0.06249984
1764511896.549793,-3.67766,2.10588,1.69386,0.978940365,0.077209275,0.06249984
1764511896.5983913,-3.67766,2.10588,1.69386,0.978940365,0.077209275,0.06249984
1764511896.5983913,-3.67766,2.10588,1.69386,0.978940365,0.077209275,0.06249984
1764511896.5983913,-2.63998,1.32762,1.95328,0.978696225,0.07507305,0.06323226
1764511896.5983913,-2.63998,1.32762,1.95328,0.978696225,0.07507305,0.06323226
1764511896.5983913,-2.63998,1.32762,1.95328,0.978696225,0.07507305,0.06323226
1764511896.5983913,-2.63998,1.32762,1.95328,0.978696225,0.07507305,0.06323226
1764511896.5983913,-2.63998,1.32762,1.95328,0.978696225,0.07507305,0.06323226
1764511896.5983913,-2.63998,1.32762,1.95328,0.978696225,0.07507305,0.06323226
1764511896.5983913,-2.63998,1.32762,1.95328,0.978696225,0.07507305,0.06323226
1764511896.5983913,-2.63998,1.32762,1.95328,0.978696225,0.07507305,0.06323226
1764511896.5983913,-2.63998,1.32762,1.95328,0.978696225,0.07507305,0.06323226
1764511896.5983913,-2.63998,1.32762,1.95328,0.978696225,0.07507305,0.06323226
1764511896.5983913,-2.07536,1.4039199999999998,1.64808,0.979306575,0.074889945,0.0634764
1764511896.5983913,-2.07536,1.4039199999999998,1.64808,0.979306575,0.074889945,0.0634764
1764511896.5983913,-2.07536,1.4039199999999998,1.64808,0.979306575,0.074889945,0.0634764
1764511896.5983913,-2.07536,1.4039199999999998,1.64808,0.979306575,0.074889945,0.0634764
1764511896.5983913,-2.07536,1.4039199999999998,1.64808,0.979306575,0.074889945,0.0634764
1764511896.5983913,-2.07536,1.4039199999999998,1.64808,0.979306575,0.074889945,0.0634764
1764511896.5983913,-2.07536,1.4039199999999998,1.64808,0.979306575,0.074889945,0.0634764
1764511896.5983913,-2.07536,1.4039199999999998,1.64808,0.979306575,0.074889945,0.0634764
1764511896.5983913,-2.07536,1.4039199999999998,1.64808,0.979306575,0.074889945,0.0634764
1764511896.5994074,-2.07536,1.4039199999999998,1.64808,0.979306575,0.074889945,0.0634764
1764511896.5994074,-2.41108,1.32762,1.526,0.980649345,0.07580547,0.06286605
1764511896.5994074,-2.41108,1.32762,1.526,0.980649345,0.07580547,0.06286605
1764511896.6454008,-2.41108,1.32762,1.526,0.980649345,0.07580547,0.06286605
1764511896.6459112,-2.41108,1.32762,1.526,0.980649345,0.07580547,0.06286605
1764511896.6459112,-2.41108,1.32762,1.526,0.980649345,0.07580547,0.06286605
1764511896.6459112,-2.41108,1.32762,1.526,0.980649345,0.07580547,0.06286605
1764511896.6459112,-2.41108,1.32762,1.526,0.980649345,0.07580547,0.06286605
1764511896.6459112,-2.41108,1.32762,1.526,0.980649345,0.07580547,0.06286605
1764511896.6459112,-2.41108,1.32762,1.526,0.980649345,0.07580547,0.06286605
1764511896.6459112,-2.41108,1.32762,1.526,0.980649345,0.07580547,0.06286605
1764511896.6459112,-3.34194,1.08346,1.4039199999999998,0.980893485,0.077209275,0.06249984
1764511896.6459112,-3.34194,1.08346,1.4039199999999998,0.980893485,0.077209275,0.06249984
1764511896.6459112,-3.34194,1.08346,1.4039199999999998,0.980893485,0.077209275,0.06249984
1764511896.6459112,-3.34194,1.08346,1.4039199999999998,0.980893485,0.077209275,0.06249984
1764511896.6459112,-3.34194,1.08346,1.4039199999999998,0.980893485,0.077209275,0.06249984
1764511896.6459112,-3.34194,1.08346,1.4039199999999998,0.980893485,0.077209275,0.06249984
1764511896.6459112,-3.34194,1.08346,1.4039199999999998,0.980893485,0.077209275,0.06249984
1764511896.6459112,-3.34194,1.08346,1.4039199999999998,0.980893485,0.077209275,0.06249984
1764511896.6459112,-3.34194,1.08346,1.4039199999999998,0.980893485,0.077209275,0.06249984
1764511896.6459112,-3.34194,1.08346,1.4039199999999998,0.980893485,0.077209275,0.06249984
1764511896.6459112,-4.01338,1.02242,0.88508,0.982480395,0.07824687,0.061828455
1764511896.6469283,-4.01338,1.02242,0.88508,0.982480395,0.07824687,0.061828455
1764511896.6469283,-4.01338,1.02242,0.88508,0.982480395,0.07824687,0.061828455
1764511896.6469283,-4.01338,1.02242,0.88508,0.982480395,0.07824687,0.061828455
1764511896.6469283,-4.01338,1.02242,0.88508,0.982480395,0.07824687,0.061828455
1764511896.6469283,-4.01338,1.02242,0.88508,0.982480395,0.07824687,0.061828455
1764511896.6914356,-4.01338,1.02242,0.88508,0.982480395,0.07824687,0.061828455
1764511896.6924422,-4.01338,1.02242,0.88508,0.982480395,0.07824687,0.061828455
1764511896.6924422,-4.01338,1.02242,0.88508,0.982480395,0.07824687,0.061828455
1764511896.6924422,-4.01338,1.02242,0.88508,0.982480395,0.07824687,0.061828455
1764511896.6934488,-4.59326,1.25132,0.4578,0.98119866,0.07763652,0.061828455
1764511896.6934488,-4.59326,1.25132,0.4578,0.98119866,0.07763652,0.061828455
1764511896.6934488,-4.59326,1.25132,0.4578,0.98119866,0.07763652,0.061828455
1764511896.6934488,-4.59326,1.25132,0.4578,0.98119866,0.07763652,0.061828455
1764511896.6934488,-4.59326,1.25132,0.4578,0.98119866,0.07763652,0.061828455
1764511896.694447,-4.59326,1.25132,0.4578,0.98119866,0.07763652,0.061828455
1764511896.694447,-4.59326,1.25132,0.4578,0.98119866,0.07763652,0.061828455
1764511896.694447,-4.59326,1.25132,0.4578,0.98119866,0.07763652,0.061828455
1764511896.694447,-4.59326,1.25132,0.4578,0.98119866,0.07763652,0.061828455
1764511896.694447,-4.59326,1.25132,0.4578,0.98119866,0.07763652,0.061828455
1764511896.6959589,-4.2728,2.19744,0.85456,0.982846605,0.075378225,0.063171225
1764511896.6959589,-4.2728,2.19744,0.85456,0.982846605,0.075378225,0.063171225
1764511896.6959589,-4.2728,2.19744,0.85456,0.982846605,0.075378225,0.063171225
1764511896.6959589,-4.2728,2.19744,0.85456,0.982846605,0.075378225,0.063171225
1764511896.6959589,-4.2728,2.19744,0.85456,0.982846605,0.075378225,0.063171225
1764511896.6959589,-4.2728,2.19744,0.85456,0.982846605,0.075378225,0.063171225
1764511896.6959589,-4.2728,2.19744,0.85456,0.982846605,0.075378225,0.063171225
1764511896.6959589,-4.2728,2.19744,0.85456,0.982846605,0.075378225,0.063171225
1764511896.7381442,-4.2728,2.19744,0.85456,0.982846605,0.075378225,0.063171225
1764511896.7381442,-4.2728,2.19744,0.85456,0.982846605,0.075378225,0.063171225
1764511896.7381442,-3.40298,1.28184,0.2289,0.97875726,0.073669245,0.06237777
1764511896.7381442,-3.40298,1.28184,0.2289,0.97875726,0.073669245,0.06237777
1764511896.7381442,-3.40298,1.28184,0.2289,0.97875726,0.073669245,0.06237777
1764511896.7381442,-3.40298,1.28184,0.2289,0.97875726,0.073669245,0.06237777
1764511896.7381442,-3.40298,1.28184,0.2289,0.97875726,0.073669245,0.06237777
1764511896.739138,-3.40298,1.28184,0.2289,0.97875726,0.073669245,0.06237777
1764511896.739138,-3.40298,1.28184,0.2289,0.97875726,0.073669245,0.06237777
1764511896.739138,-3.40298,1.28184,0.2289,0.97875726,0.073669245,0.06237777
1764511896.7401354,-3.40298,1.28184,0.2289,0.97875726,0.073669245,0.06237777
1764511896.7401354,-3.40298,1.28184,0.2289,0.97875726,0.073669245,0.06237777
1764511896.7401354,-3.26564,0.59514,0.0,0.979062435,0.07519512,0.062438805
1764511896.7411444,-3.26564,0.59514,0.0,0.979062435,0.07519512,0.062438805
1764511896.7411444,-3.26564,0.59514,0.0,0.979062435,0.07519512,0.062438805
1764511896.7411444,-3.26564,0.59514,0.0,0.979062435,0.07519512,0.062438805
1764511896.7411444,-3.26564,0.59514,0.0,0.979062435,0.07519512,0.062438805
1764511896.7411444,-3.26564,0.59514,0.0,0.979062435,0.07519512,0.062438805
1764511896.7421324,-3.26564,0.59514,0.0,0.979062435,0.07519512,0.062438805
1764511896.7421324,-3.26564,0.59514,0.0,0.979062435,0.07519512,0.062438805
1764511896.7421324,-3.26564,0.59514,0.0,0.979062435,0.07519512,0.062438805
1764511896.7421324,-3.26564,0.59514,0.0,0.979062435,0.07519512,0.062438805
1764511896.7431357,-2.92992,1.3734,0.12208,0.981870045,0.075622365,0.062927085
1764511896.7431357,-2.92992,1.3734,0.12208,0.981870045,0.075622365,0.062927085
1764511896.7879336,-2.92992,1.3734,0.12208,0.981870045,0.075622365,0.062927085
1764511896.7879336,-2.92992,1.3734,0.12208,0.981870045,0.075622365,0.062927085
1764511896.7879336,-2.92992,1.3734,0.12208,0.981870045,0.075622365,0.062927085
1764511896.7879336,-2.92992,1.3734,0.12208,0.981870045,0.075622365,0.062927085
1764511896.7879336,-2.92992,1.3734,0.12208,0.981870045,0.075622365,0.062927085
1764511896.7879336,-2.92992,1.3734,0.12208,0.981870045,0.075622365,0.062927085
1764511896.7879336,-2.92992,1.3734,0.12208,0.981870045,0.075622365,0.062927085
1764511896.7879336,-2.92992,1.3734,0.12208,0.981870045,0.075622365,0.062927085
1764511896.7879336,-3.5098,1.84646,0.2289,0.98278557,0.076843065,0.06311019
1764511896.7879336,-3.5098,1.84646,0.2289,0.98278557,0.076843065,0.06311019
1764511896.7879336,-3.5098,1.84646,0.2289,0.98278557,0.076843065,0.06311019
1764511896.7879336,-3.5098,1.84646,0.2289,0.98278557,0.076843065,0.06311019
1764511896.7879336,-3.5098,1.84646,0.2289,0.98278557,0.076843065,0.06311019
1764511896.788592,-3.5098,1.84646,0.2289,0.98278557,0.076843065,0.06311019
1764511896.788592,-3.5098,1.84646,0.2289,0.98278557,0.076843065,0.06311019
1764511896.788592,-3.5098,1.84646,0.2289,0.98278557,0.076843065,0.06311019
1764511896.788592,-3.5098,1.84646,0.2289,0.98278557,0.076843065,0.06311019
1764511896.788592,-3.5098,1.84646,0.2289,0.98278557,0.076843065,0.06311019
1764511896.788592,-4.01338,1.4497,-0.01526,0.981259695,0.078429975,0.06286605
1764511896.788592,-4.01338,1.4497,-0.01526,0.981259695,0.078429975,0.06286605
1764511896.788592,-4.01338,1.4497,-0.01526,0.981259695,0.078429975,0.06286605
1764511896.788592,-4.01338,1.4497,-0.01526,0.981259695,0.078429975,0.06286605
1764511896.788592,-4.01338,1.4497,-0.01526,0.981259695,0.078429975,0.06286605
1764511896.788592,-4.01338,1.4497,-0.01526,0.981259695,0.078429975,0.06286605
1764511896.8305218,-4.01338,1.4497,-0.01526,0.981259695,0.078429975,0.06286605
1764511896.8305218,-4.01338,1.4497,-0.01526,0.981259695,0.078429975,0.06286605
1764511896.8305218,-4.01338,1.4497,-0.01526,0.981259695,0.078429975,0.06286605
1764511896.8305218,-4.01338,1.4497,-0.01526,0.981259695,0.078429975,0.06286605
1764511896.8305218,-3.95234,1.41918,-0.41202,0.979184505,0.07910136,0.063171225
1764511896.8305218,-3.95234,1.41918,-0.41202,0.979184505,0.07910136,0.063171225
1764511896.8305218,-3.95234,1.41918,-0.41202,0.979184505,0.07910136,0.063171225
1764511896.8305218,-3.95234,1.41918,-0.41202,0.979184505,0.07910136,0.063171225
1764511896.8305218,-3.95234,1.41918,-0.41202,0.979184505,0.07910136,0.063171225
1764511896.8305218,-3.95234,1.41918,-0.41202,0.979184505,0.07910136,0.063171225
1764511896.8305218,-3.95234,1.41918,-0.41202,0.979184505,0.07910136,0.063171225
1764511896.8305218,-3.95234,1.41918,-0.41202,0.979184505,0.07910136,0.063171225
1764511896.8305218,-3.95234,1.41918,-0.41202,0.979184505,0.07910136,0.063171225
1764511896.831541,-3.95234,1.41918,-0.41202,0.979184505,0.07910136,0.063171225
1764511896.831541,-3.87604,1.19028,0.0,0.978818295,0.078552045,0.06372054
1764511896.831541,-3.87604,1.19028,0.0,0.978818295,0.078552045,0.06372054
1764511896.831541,-3.87604,1.19028,0.0,0.978818295,0.078552045,0.06372054
1764511896.832535,-3.87604,1.19028,0.0,0.978818295,0.078552045,0.06372054
1764511896.832535,-3.87604,1.19028,0.0,0.978818295,0.078552045,0.06372054
1764511896.832535,-3.87604,1.19028,0.0,0.978818295,0.078552045,0.06372054
1764511896.832535,-3.87604,1.19028,0.0,0.978818295,0.078552045,0.06372054
1764511896.832535,-3.87604,1.19028,0.0,0.978818295,0.078552045,0.06372054
1764511896.832535,-3.87604,1.19028,0.0,0.978818295,0.078552045,0.06372054
1764511896.832535,-3.87604,1.19028,0.0,0.978818295,0.078552045,0.06372054
1764511896.8790617,-3.54032,0.3204599999999999,0.2289,0.978940365,0.07763652,0.06384261
1764511896.8790617,-3.54032,0.3204599999999999,0.2289,0.978940365,0.07763652,0.06384261
1764511896.8790617,-3.54032,0.3204599999999999,0.2289,0.978940365,0.07763652,0.06384261
1764511896.8790617,-3.54032,0.3204599999999999,0.2289,0.978940365,0.07763652,0.06384261
1764511896.8790617,-3.54032,0.3204599999999999,0.2289,0.978940365,0.07763652,0.06384261
1764511896.8790617,-3.54032,0.3204599999999999,0.2289,0.978940365,0.07763652,0.06384261
1764511896.8790617,-3.54032,0.3204599999999999,0.2289,0.978940365,0.07763652,0.06384261
1764511896.8790617,-3.54032,0.3204599999999999,0.2289,0.978940365,0.07763652,0.06384261
1764511896.8790617,-3.54032,0.3204599999999999,0.2289,0.978940365,0.07763652,0.06384261
1764511896.8790617,-3.54032,0.3204599999999999,0.2289,0.978940365,0.07763652,0.06384261
1764511896.8790617,-3.5861,0.27468,0.74774,0.97924554,0.07800273,0.06359847
1764511896.8790617,-3.5861,0.27468,0.74774,0.97924554,0.07800273,0.06359847
1764511896.8790617,-3.5861,0.27468,0.74774,0.97924554,0.07800273,0.06359847
1764511896.8790617,-3.5861,0.27468,0.74774,0.97924554,0.07800273,0.06359847
1764511896.8790617,-3.5861,0.27468,0.74774,0.97924554,0.07800273,0.06359847
1764511896.8790617,-3.5861,0.27468,0.74774,0.97924554,0.07800273,0.06359847
1764511896.8790617,-3.5861,0.27468,0.74774,0.97924554,0.07800273,0.06359847
1764511896.8790617,-3.5861,0.27468,0.74774,0.97924554,0.07800273,0.06359847
1764511896.8800993,-3.5861,0.27468,0.74774,0.97924554,0.07800273,0.06359847
1764511896.8800993,-3.5861,0.27468,0.74774,0.97924554,0.07800273,0.06359847
1764511896.8800993,-3.67766,-0.03052,1.03768,0.97985589,0.07861308,0.0622557
1764511896.8800993,-3.67766,-0.03052,1.03768,0.97985589,0.07861308,0.0622557
1764511896.8800993,-3.67766,-0.03052,1.03768,0.97985589,0.07861308,0.0622557
1764511896.8800993,-3.67766,-0.03052,1.03768,0.97985589,0.07861308,0.0622557
1764511896.924831,-3.67766,-0.03052,1.03768,0.97985589,0.07861308,0.0622557
1764511896.924831,-3.67766,-0.03052,1.03768,0.97985589,0.07861308,0.0622557
1764511896.924831,-3.67766,-0.03052,1.03768,0.97985589,0.07861308,0.0622557
1764511896.924831,-3.67766,-0.03052,1.03768,0.97985589,0.07861308,0.0622557
1764511896.924831,-3.67766,-0.03052,1.03768,0.97985589,0.07861308,0.0622557
1764511896.924831,-3.67766,-0.03052,1.03768,0.97985589,0.07861308,0.0622557
1764511896.924831,-4.02864,0.50358,0.73248,0.9814428,0.07910136,0.061950525
1764511896.924831,-4.02864,0.50358,0.73248,0.9814428,0.07910136,0.061950525
1764511896.924831,-4.02864,0.50358,0.73248,0.9814428,0.07910136,0.061950525
1764511896.924831,-4.02864,0.50358,0.73248,0.9814428,0.07910136,0.061950525
1764511896.924831,-4.02864,0.50358,0.73248,0.9814428,0.07910136,0.061950525
1764511896.925819,-4.02864,0.50358,0.73248,0.9814428,0.07910136,0.061950525
1764511896.925819,-4.02864,0.50358,0.73248,0.9814428,0.07910136,0.061950525
1764511896.925819,-4.02864,0.50358,0.73248,0.9814428,0.07910136,0.061950525
1764511896.925819,-4.02864,0.50358,0.73248,0.9814428,0.07910136,0.061950525
1764511896.925819,-4.02864,0.50358,0.73248,0.9814428,0.07910136,0.061950525
1764511896.925819,-4.18124,0.8698199999999999,1.19028,0.98205315,0.07946757,0.06176742
1764511896.925819,-4.18124,0.8698199999999999,1.19028,0.98205315,0.07946757,0.06176742
1764511896.925819,-4.18124,0.8698199999999999,1.19028,0.98205315,0.07946757,0.06176742
1764511896.925819,-4.18124,0.8698199999999999,1.19028,0.98205315,0.07946757,0.06176742
1764511896.9706457,-4.18124,0.8698199999999999,1.19028,0.98205315,0.07946757,0.06176742
1764511896.9721603,-4.18124,0.8698199999999999,1.19028,0.98205315,0.07946757,0.06176742
1764511896.9721603,-4.18124,0.8698199999999999,1.19028,0.98205315,0.07946757,0.06176742
1764511896.9721603,-4.18124,0.8698199999999999,1.19028,0.98205315,0.07946757,0.06176742
1764511896.973179,-4.18124,0.8698199999999999,1.19028,0.98205315,0.07946757,0.06176742
1764511896.973179,-4.18124,0.8698199999999999,1.19028,0.98205315,0.07946757,0.06176742
1764511896.973179,-4.33384,0.96138,1.19028,0.982236255,0.07836894,0.06115707
1764511896.9741814,-4.33384,0.96138,1.19028,0.982236255,0.07836894,0.06115707
1764511896.9741814,-4.33384,0.96138,1.19028,0.982236255,0.07836894,0.06115707
1764511896.9741814,-4.33384,0.96138,1.19028,0.982236255,0.07836894,0.06115707
1764511896.9741814,-4.33384,0.96138,1.19028,0.982236255,0.07836894,0.06115707
1764511896.9741814,-4.33384,0.96138,1.19028,0.982236255,0.07836894,0.06115707
1764511896.9741814,-4.33384,0.96138,1.19028,0.982236255,0.07836894,0.06115707
1764511896.9741814,-4.33384,0.96138,1.19028,0.982236255,0.07836894,0.06115707
1764511896.9741814,-4.33384,0.96138,1.19028,0.982236255,0.07836894,0.06115707
1764511896.9741814,-4.33384,0.96138,1.19028,0.982236255,0.07836894,0.06115707
1764511896.9741814,-3.815,1.34288,1.08346,0.981870045,0.07678203,0.061096035
1764511896.9741814,-3.815,1.34288,1.08346,0.981870045,0.07678203,0.061096035
1764511896.9756916,-3.815,1.34288,1.08346,0.981870045,0.07678203,0.061096035
1764511896.9756916,-3.815,1.34288,1.08346,0.981870045,0.07678203,0.061096035
1764511896.9756916,-3.815,1.34288,1.08346,0.981870045,0.07678203,0.061096035
1764511896.9756916,-3.815,1.34288,1.08346,0.981870045,0.07678203,0.061096035
1764511896.9756916,-3.815,1.34288,1.08346,0.981870045,0.07678203,0.061096035
1764511896.9756916,-3.815,1.34288,1.08346,0.981870045,0.07678203,0.061096035
1764511897.0167947,-3.815,1.34288,1.08346,0.981870045,0.07678203,0.061096035
1764511897.0167947,-3.815,1.34288,1.08346,0.981870045,0.07678203,0.061096035
1764511897.0167947,-2.88414,1.09872,1.08346,0.981870045,0.07617168,0.06127914
1764511897.0167947,-2.88414,1.09872,1.08346,0.981870045,0.07617168,0.06127914
1764511897.0167947,-2.88414,1.09872,1.08346,0.981870045,0.07617168,0.06127914
1764511897.019163,-2.88414,1.09872,1.08346,0.981870045,0.07617168,0.06127914
1764511897.019163,-2.88414,1.09872,1.08346,0.981870045,0.07617168,0.06127914
1764511897.019163,-2.88414,1.09872,1.08346,0.981870045,0.07617168,0.06127914
