Timestamp,GyroX,GyroY,GyroZ,AccX,AccY,AccZ
1764510644.919728,-2.18218,3.06726,0.41202,0.42126357,0.801694725,-0.42407118
1764510644.919728,-2.18218,3.06726,0.41202,0.42126357,0.801694725,-0.42407118
1764510644.919728,-2.18218,3.06726,0.41202,0.42126357,0.801694725,-0.42407118
1764510644.919728,-2.18218,3.06726,0.41202,0.42126357,0.801694725,-0.42407118
1764510644.919728,-2.18218,3.06726,0.41202,0.42126357,0.801694725,-0.42407118
1764510644.919728,-2.18218,3.06726,0.41202,0.42126357,0.801694725,-0.42407118
1764510644.919728,-2.18218,3.06726,0.41202,0.42126357,0.801694725,-0.42407118
1764510644.919728,-1.95328,3.2809,0.6714399999999999,0.420714255,0.80016885,-0.423155655
1764510644.9212556,-1.95328,3.2809,0.6714399999999999,0.420714255,0.80016885,-0.423155655
1764510644.9212556,-1.95328,3.2809,0.6714399999999999,0.420714255,0.80016885,-0.423155655
1764510644.9212556,-1.95328,3.2809,0.6714399999999999,0.420714255,0.80016885,-0.423155655
1764510644.9212556,-1.95328,3.2809,0.6714399999999999,0.420714255,0.80016885,-0.423155655
1764510644.9212556,-1.95328,3.2809,0.6714399999999999,0.420714255,0.80016885,-0.423155655
1764510644.9212556,-1.95328,3.2809,0.6714399999999999,0.420714255,0.80016885,-0.423155655
1764510644.9212556,-1.95328,3.2809,0.6714399999999999,0.420714255,0.80016885,-0.423155655
1764510644.9212556,-1.95328,3.2809,0.6714399999999999,0.420714255,0.80016885,-0.423155655
1764510644.9212556,-1.95328,3.2809,0.6714399999999999,0.420714255,0.80016885,-0.423155655
1764510644.9222777,0.06104,3.95234,0.06104,0.42272841,0.79870401,-0.4223622
1764510644.9222777,0.06104,3.95234,0.06104,0.42272841,0.79870401,-0.4223622
1764510644.9222777,0.06104,3.95234,0.06104,0.42272841,0.79870401,-0.4223622
1764510644.9222777,0.06104,3.95234,0.06104,0.42272841,0.79870401,-0.4223622
1764510644.9651165,0.06104,3.95234,0.06104,0.42272841,0.79870401,-0.4223622
1764510644.9651165,0.06104,3.95234,0.06104,0.42272841,0.79870401,-0.4223622
1764510644.966774,0.06104,3.95234,0.06104,0.42272841,0.79870401,-0.4223622
1764510644.966774,0.06104,3.95234,0.06104,0.42272841,0.79870401,-0.4223622
1764510644.966774,0.06104,3.95234,0.06104,0.42272841,0.79870401,-0.4223622
1764510644.966774,0.06104,3.95234,0.06104,0.42272841,0.79870401,-0.4223622
1764510644.966774,1.05294,4.13546,-0.04578,0.423643935,0.79931436,-0.42150771
1764510644.966774,1.05294,4.13546,-0.04578,0.423643935,0.79931436,-0.42150771
1764510644.966774,1.05294,4.13546,-0.04578,0.423643935,0.79931436,-0.42150771
1764510644.966774,1.05294,4.13546,-0.04578,0.423643935,0.79931436,-0.42150771
1764510644.9709215,1.05294,4.13546,-0.04578,0.423643935,0.79931436,-0.42150771
1764510644.9709215,1.05294,4.13546,-0.04578,0.423643935,0.79931436,-0.42150771
1764510644.9709215,1.05294,4.13546,-0.04578,0.423643935,0.79931436,-0.42150771
1764510644.9709215,1.05294,4.13546,-0.04578,0.423643935,0.79931436,-0.42150771
1764510644.9709215,1.05294,4.13546,-0.04578,0.423643935,0.79931436,-0.42150771
1764510644.9709215,1.05294,4.13546,-0.04578,0.423643935,0.79931436,-0.42150771
1764510644.9709215,0.97664,3.5861,0.2289,0.423155655,0.8007792,-0.42187392
1764510644.9709215,0.97664,3.5861,0.2289,0.423155655,0.8007792,-0.42187392
1764510644.9709215,0.97664,3.5861,0.2289,0.423155655,0.8007792,-0.42187392
1764510644.9709215,0.97664,3.5861,0.2289,0.423155655,0.8007792,-0.42187392
1764510644.9709215,0.97664,3.5861,0.2289,0.423155655,0.8007792,-0.42187392
1764510644.9709215,0.97664,3.5861,0.2289,0.423155655,0.8007792,-0.42187392
1764510644.9709215,0.97664,3.5861,0.2289,0.423155655,0.8007792,-0.42187392
1764510644.9719102,0.97664,3.5861,0.2289,0.423155655,0.8007792,-0.42187392
1764510645.0147312,0.97664,3.5861,0.2289,0.423155655,0.8007792,-0.42187392
1764510645.0147312,0.97664,3.5861,0.2289,0.423155655,0.8007792,-0.42187392
1764510645.0147312,0.03052,3.95234,0.3815,0.42224013,0.8019999,-0.42175185
1764510645.0147312,0.03052,3.95234,0.3815,0.42224013,0.8019999,-0.42175185
1764510645.0147312,0.03052,3.95234,0.3815,0.42224013,0.8019999,-0.42175185
1764510645.0147312,0.03052,3.95234,0.3815,0.42224013,0.8019999,-0.42175185
1764510645.0147312,0.03052,3.95234,0.3815,0.42224013,0.8019999,-0.42175185
1764510645.0147312,0.03052,3.95234,0.3815,0.42224013,0.8019999,-0.42175185
1764510645.0147312,0.03052,3.95234,0.3815,0.42224013,0.8019999,-0.42175185
1764510645.0147312,0.03052,3.95234,0.3815,0.42224013,0.8019999,-0.42175185
1764510645.0147312,0.03052,3.95234,0.3815,0.42224013,0.8019999,-0.42175185
1764510645.0147312,0.03052,3.95234,0.3815,0.42224013,0.8019999,-0.42175185
1764510645.0147312,-0.36624,3.61662,0.54936,0.422545305,0.802915425,-0.42162978
1764510645.0147312,-0.36624,3.61662,0.54936,0.422545305,0.802915425,-0.42162978
1764510645.0147312,-0.36624,3.61662,0.54936,0.422545305,0.802915425,-0.42162978
1764510645.0147312,-0.36624,3.61662,0.54936,0.422545305,0.802915425,-0.42162978
1764510645.0147312,-0.36624,3.61662,0.54936,0.422545305,0.802915425,-0.42162978
1764510645.0162888,-0.36624,3.61662,0.54936,0.422545305,0.802915425,-0.42162978
1764510645.0162888,-0.36624,3.61662,0.54936,0.422545305,0.802915425,-0.42162978
1764510645.0162888,-0.36624,3.61662,0.54936,0.422545305,0.802915425,-0.42162978
1764510645.0162888,-0.36624,3.61662,0.54936,0.422545305,0.802915425,-0.42162978
1764510645.017823,-0.36624,3.61662,0.54936,0.422545305,0.802915425,-0.42162978
1764510645.0607593,-0.73248,3.18934,0.54936,0.422423235,0.800351955,-0.422179095
1764510645.0607593,-0.73248,3.18934,0.54936,0.422423235,0.800351955,-0.422179095
1764510645.061269,-0.73248,3.18934,0.54936,0.422423235,0.800351955,-0.422179095
1764510645.061269,-0.73248,3.18934,0.54936,0.422423235,0.800351955,-0.422179095
1764510645.061269,-0.73248,3.18934,0.54936,0.422423235,0.800351955,-0.422179095
1764510645.061269,-0.73248,3.18934,0.54936,0.422423235,0.800351955,-0.422179095
1764510645.061269,-0.73248,3.18934,0.54936,0.422423235,0.800351955,-0.422179095
1764510645.061269,-0.73248,3.18934,0.54936,0.422423235,0.800351955,-0.422179095
1764510645.061269,-0.73248,3.18934,0.54936,0.422423235,0.800351955,-0.422179095
1764510645.061269,-0.73248,3.18934,0.54936,0.422423235,0.800351955,-0.422179095
1764510645.061269,-0.65618,3.76922,1.09872,0.42419325,0.801328515,-0.421934955
1764510645.061269,-0.65618,3.76922,1.09872,0.42419325,0.801328515,-0.421934955
1764510645.061269,-0.65618,3.76922,1.09872,0.42419325,0.801328515,-0.421934955
1764510645.061269,-0.65618,3.76922,1.09872,0.42419325,0.801328515,-0.421934955
1764510645.061269,-0.65618,3.76922,1.09872,0.42419325,0.801328515,-0.421934955
1764510645.061269,-0.65618,3.76922,1.09872,0.42419325,0.801328515,-0.421934955
1764510645.061269,-0.65618,3.76922,1.09872,0.42419325,0.801328515,-0.421934955
1764510645.061269,-0.65618,3.76922,1.09872,0.42419325,0.801328515,-0.421934955
1764510645.061269,-0.65618,3.76922,1.09872,0.42419325,0.801328515,-0.421934955
1764510645.0622902,-0.65618,3.76922,1.09872,0.42419325,0.801328515,-0.421934955
1764510645.0622902,-0.97664,3.3572,0.1678599999999999,0.42346083,0.800107815,-0.42089736
1764510645.0622902,-0.97664,3.3572,0.1678599999999999,0.42346083,0.800107815,-0.42089736
1764510645.0622902,-0.97664,3.3572,0.1678599999999999,0.42346083,0.800107815,-0.42089736
1764510645.0622902,-0.97664,3.3572,0.1678599999999999,0.42346083,0.800107815,-0.42089736
1764510645.1123962,-0.97664,3.3572,0.1678599999999999,0.42346083,0.800107815,-0.42089736
1764510645.1123962,-0.97664,3.3572,0.1678599999999999,0.42346083,0.800107815,-0.42089736
1764510645.1123962,-0.97664,3.3572,0.1678599999999999,0.42346083,0.800107815,-0.42089736
1764510645.1123962,-0.97664,3.3572,0.1678599999999999,0.42346083,0.800107815,-0.42089736
1764510645.1123962,-0.97664,3.3572,0.1678599999999999,0.42346083,0.800107815,-0.42089736
1764510645.1123962,-0.97664,3.3572,0.1678599999999999,0.42346083,0.800107815,-0.42089736
1764510645.1123962,0.19838,3.63188,0.62566,0.42187392,0.79943643,-0.42162978
1764510645.1123962,0.19838,3.63188,0.62566,0.42187392,0.79943643,-0.42162978
1764510645.1123962,0.19838,3.63188,0.62566,0.42187392,0.79943643,-0.42162978
1764510645.1123962,0.19838,3.63188,0.62566,0.42187392,0.79943643,-0.42162978
1764510645.1123962,0.19838,3.63188,0.62566,0.42187392,0.79943643,-0.42162978
1764510645.1123962,0.19838,3.63188,0.62566,0.42187392,0.79943643,-0.42162978
1764510645.1123962,0.19838,3.63188,0.62566,0.42187392,0.79943643,-0.42162978
1764510645.1123962,0.19838,3.63188,0.62566,0.42187392,0.79943643,-0.42162978
1764510645.1123962,0.19838,3.63188,0.62566,0.42187392,0.79943643,-0.42162978
1764510645.1123962,0.19838,3.63188,0.62566,0.42187392,0.79943643,-0.42162978
1764510645.1133935,0.09156,4.16598,0.54936,0.422545305,0.800474025,-0.42224013
1764510645.1133935,0.09156,4.16598,0.54936,0.422545305,0.800474025,-0.42224013
1764510645.1133935,0.09156,4.16598,0.54936,0.422545305,0.800474025,-0.42224013
1764510645.1133935,0.09156,4.16598,0.54936,0.422545305,0.800474025,-0.42224013
1764510645.1133935,0.09156,4.16598,0.54936,0.422545305,0.800474025,-0.42224013
1764510645.1133935,0.09156,4.16598,0.54936,0.422545305,0.800474025,-0.42224013
1764510645.1133935,0.09156,4.16598,0.54936,0.422545305,0.800474025,-0.42224013
1764510645.1133935,0.09156,4.16598,0.54936,0.422545305,0.800474025,-0.42224013
1764510645.1546495,0.09156,4.16598,0.54936,0.422545305,0.800474025,-0.42224013
1764510645.1546495,0.09156,4.16598,0.54936,0.422545305,0.800474025,-0.42224013
1764510645.1546495,-0.82404,4.21176,-0.1525999999999999,0.422423235,0.802305075,-0.422423235
1764510645.1546495,-0.82404,4.21176,-0.1525999999999999,0.422423235,0.802305075,-0.422423235
1764510645.1546495,-0.82404,4.21176,-0.1525999999999999,0.422423235,0.802305075,-0.422423235
1764510645.1546495,-0.82404,4.21176,-0.1525999999999999,0.422423235,0.802305075,-0.422423235
1764510645.1556594,-0.82404,4.21176,-0.1525999999999999,0.422423235,0.802305075,-0.422423235
1764510645.1556594,-0.82404,4.21176,-0.1525999999999999,0.422423235,0.802305075,-0.422423235
1764510645.1556594,-0.82404,4.21176,-0.1525999999999999,0.422423235,0.802305075,-0.422423235
1764510645.1556594,-0.82404,4.21176,-0.1525999999999999,0.422423235,0.802305075,-0.422423235
1764510645.1556594,-0.82404,4.21176,-0.1525999999999999,0.422423235,0.802305075,-0.422423235
1764510645.1556594,-0.82404,4.21176,-0.1525999999999999,0.422423235,0.802305075,-0.422423235
1764510645.1556594,-0.73248,3.7387,0.7019599999999999,0.421568745,0.8026712850000001,-0.422423235
1764510645.1556594,-0.73248,3.7387,0.7019599999999999,0.421568745,0.8026712850000001,-0.422423235
1764510645.1566725,-0.73248,3.7387,0.7019599999999999,0.421568745,0.8026712850000001,-0.422423235
1764510645.1566725,-0.73248,3.7387,0.7019599999999999,0.421568745,0.8026712850000001,-0.422423235
1764510645.1566725,-0.73248,3.7387,0.7019599999999999,0.421568745,0.8026712850000001,-0.422423235
1764510645.1566725,-0.73248,3.7387,0.7019599999999999,0.421568745,0.8026712850000001,-0.422423235
1764510645.1566725,-0.73248,3.7387,0.7019599999999999,0.421568745,0.8026712850000001,-0.422423235
1764510645.1566725,-0.73248,3.7387,0.7019599999999999,0.421568745,0.8026712850000001,-0.422423235
1764510645.1566725,-0.73248,3.7387,0.7019599999999999,0.421568745,0.8026712850000001,-0.422423235
1764510645.1566725,-0.73248,3.7387,0.7019599999999999,0.421568745,0.8026712850000001,-0.422423235
1764510645.1993272,-1.70912,3.4335,1.00716,0.42065322,0.80138955,-0.4223622
1764510645.1993272,-1.70912,3.4335,1.00716,0.42065322,0.80138955,-0.4223622
1764510645.1993272,-1.70912,3.4335,1.00716,0.42065322,0.80138955,-0.4223622
1764510645.1993272,-1.70912,3.4335,1.00716,0.42065322,0.80138955,-0.4223622
1764510645.1993272,-1.70912,3.4335,1.00716,0.42065322,0.80138955,-0.4223622
1764510645.2005565,-1.70912,3.4335,1.00716,0.42065322,0.80138955,-0.4223622
1764510645.2005565,-1.70912,3.4335,1.00716,0.42065322,0.80138955,-0.4223622
1764510645.2005565,-1.70912,3.4335,1.00716,0.42065322,0.80138955,-0.4223622
1764510645.2005565,-1.70912,3.4335,1.00716,0.42065322,0.80138955,-0.4223622
1764510645.2005565,-1.70912,3.4335,1.00716,0.42065322,0.80138955,-0.4223622
1764510645.2005565,-1.02242,3.69292,0.74774,0.421690815,0.80041299,-0.4211415
1764510645.2005565,-1.02242,3.69292,0.74774,0.421690815,0.80041299,-0.4211415
1764510645.2005565,-1.02242,3.69292,0.74774,0.421690815,0.80041299,-0.4211415
1764510645.2005565,-1.02242,3.69292,0.74774,0.421690815,0.80041299,-0.4211415
1764510645.2005565,-1.02242,3.69292,0.74774,0.421690815,0.80041299,-0.4211415
1764510645.2005565,-1.02242,3.69292,0.74774,0.421690815,0.80041299,-0.4211415
1764510645.2005565,-1.02242,3.69292,0.74774,0.421690815,0.80041299,-0.4211415
1764510645.2005565,-1.02242,3.69292,0.74774,0.421690815,0.80041299,-0.4211415
1764510645.2005565,-1.02242,3.69292,0.74774,0.421690815,0.80041299,-0.4211415
1764510645.2005565,-1.02242,3.69292,0.74774,0.421690815,0.80041299,-0.4211415
1764510645.2005565,-0.24416,3.78448,0.82404,0.42272841,0.79980264,-0.420836325
1764510645.2005565,-0.24416,3.78448,0.82404,0.42272841,0.79980264,-0.420836325
1764510645.2005565,-0.24416,3.78448,0.82404,0.42272841,0.79980264,-0.420836325
1764510645.2005565,-0.24416,3.78448,0.82404,0.42272841,0.79980264,-0.420836325
1764510645.2478468,-0.24416,3.78448,0.82404,0.42272841,0.79980264,-0.420836325
1764510645.2478468,-0.24416,3.78448,0.82404,0.42272841,0.79980264,-0.420836325
1764510645.2478468,-0.24416,3.78448,0.82404,0.42272841,0.79980264,-0.420836325
1764510645.2478468,-0.24416,3.78448,0.82404,0.42272841,0.79980264,-0.420836325
1764510645.2478468,-0.24416,3.78448,0.82404,0.42272841,0.79980264,-0.420836325
1764510645.2478468,-0.24416,3.78448,0.82404,0.42272841,0.79980264,-0.420836325
1764510645.2478468,-0.3815,3.86078,0.0762999999999999,0.42321669,0.79907022,-0.421446675
1764510645.2478468,-0.3815,3.86078,0.0762999999999999,0.42321669,0.79907022,-0.421446675
1764510645.2478468,-0.3815,3.86078,0.0762999999999999,0.42321669,0.79907022,-0.421446675
1764510645.2503543,-0.3815,3.86078,0.0762999999999999,0.42321669,0.79907022,-0.421446675
1764510645.2503543,-0.3815,3.86078,0.0762999999999999,0.42321669,0.79907022,-0.421446675
1764510645.2503543,-0.3815,3.86078,0.0762999999999999,0.42321669,0.79907022,-0.421446675
1764510645.2503543,-0.3815,3.86078,0.0762999999999999,0.42321669,0.79907022,-0.421446675
1764510645.2503543,-0.3815,3.86078,0.0762999999999999,0.42321669,0.79907022,-0.421446675
1764510645.2503543,-0.3815,3.86078,0.0762999999999999,0.42321669,0.79907022,-0.421446675
1764510645.2503543,-0.3815,3.86078,0.0762999999999999,0.42321669,0.79907022,-0.421446675
1764510645.2503543,-0.1678599999999999,3.4335,0.19838,0.423521865,0.7985209050000001,-0.42150771
1764510645.2503543,-0.1678599999999999,3.4335,0.19838,0.423521865,0.7985209050000001,-0.42150771
1764510645.2503543,-0.1678599999999999,3.4335,0.19838,0.423521865,0.7985209050000001,-0.42150771
1764510645.2503543,-0.1678599999999999,3.4335,0.19838,0.423521865,0.7985209050000001,-0.42150771
1764510645.2503543,-0.1678599999999999,3.4335,0.19838,0.423521865,0.7985209050000001,-0.42150771
1764510645.2503543,-0.1678599999999999,3.4335,0.19838,0.423521865,0.7985209050000001,-0.42150771
1764510645.2503543,-0.1678599999999999,3.4335,0.19838,0.423521865,0.7985209050000001,-0.42150771
1764510645.2503543,-0.1678599999999999,3.4335,0.19838,0.423521865,0.7985209050000001,-0.42150771
1764510645.2965338,-0.1678599999999999,3.4335,0.19838,0.423521865,0.7985209050000001,-0.42150771
1764510645.2965338,-0.1678599999999999,3.4335,0.19838,0.423521865,0.7985209050000001,-0.42150771
1764510645.2965338,0.18312,3.72344,0.27468,0.42272841,0.79882608,-0.422545305
1764510645.2965338,0.18312,3.72344,0.27468,0.42272841,0.79882608,-0.422545305
1764510645.2965338,0.18312,3.72344,0.27468,0.42272841,0.79882608,-0.422545305
1764510645.2965338,0.18312,3.72344,0.27468,0.42272841,0.79882608,-0.422545305
1764510645.2965338,0.18312,3.72344,0.27468,0.42272841,0.79882608,-0.422545305
1764510645.2965338,0.18312,3.72344,0.27468,0.42272841,0.79882608,-0.422545305
1764510645.2965338,0.18312,3.72344,0.27468,0.42272841,0.79882608,-0.422545305
1764510645.2965338,0.18312,3.72344,0.27468,0.42272841,0.79882608,-0.422545305
1764510645.2980697,0.18312,3.72344,0.27468,0.42272841,0.79882608,-0.422545305
1764510645.2980697,0.18312,3.72344,0.27468,0.42272841,0.79882608,-0.422545305
1764510645.2980697,-0.6103999999999999,3.75396,0.8392999999999999,0.422301165,0.800107815,-0.42309462
1764510645.2980697,-0.6103999999999999,3.75396,0.8392999999999999,0.422301165,0.800107815,-0.42309462
1764510645.2980697,-0.6103999999999999,3.75396,0.8392999999999999,0.422301165,0.800107815,-0.42309462
1764510645.2980697,-0.6103999999999999,3.75396,0.8392999999999999,0.422301165,0.800107815,-0.42309462
1764510645.2980697,-0.6103999999999999,3.75396,0.8392999999999999,0.422301165,0.800107815,-0.42309462
1764510645.2980697,-0.6103999999999999,3.75396,0.8392999999999999,0.422301165,0.800107815,-0.42309462
1764510645.2980697,-0.6103999999999999,3.75396,0.8392999999999999,0.422301165,0.800107815,-0.42309462
1764510645.2980697,-0.6103999999999999,3.75396,0.8392999999999999,0.422301165,0.800107815,-0.42309462
1764510645.2980697,-0.6103999999999999,3.75396,0.8392999999999999,0.422301165,0.800107815,-0.42309462
1764510645.2980697,-0.6103999999999999,3.75396,0.8392999999999999,0.422301165,0.800107815,-0.42309462
1764510645.3452437,-1.6022999999999998,3.98286,0.8087799999999999,0.422301165,0.801450585,-0.42309462
1764510645.3452437,-1.6022999999999998,3.98286,0.8087799999999999,0.422301165,0.801450585,-0.42309462
1764510645.3452437,-1.6022999999999998,3.98286,0.8087799999999999,0.422301165,0.801450585,-0.42309462
1764510645.3452437,-1.6022999999999998,3.98286,0.8087799999999999,0.422301165,0.801450585,-0.42309462
1764510645.3452437,-1.6022999999999998,3.98286,0.8087799999999999,0.422301165,0.801450585,-0.42309462
1764510645.3452437,-1.6022999999999998,3.98286,0.8087799999999999,0.422301165,0.801450585,-0.42309462
1764510645.3462486,-1.6022999999999998,3.98286,0.8087799999999999,0.422301165,0.801450585,-0.42309462
1764510645.3462486,-1.6022999999999998,3.98286,0.8087799999999999,0.422301165,0.801450585,-0.42309462
1764510645.3462486,-1.6022999999999998,3.98286,0.8087799999999999,0.422301165,0.801450585,-0.42309462
1764510645.3462486,-1.6022999999999998,3.98286,0.8087799999999999,0.422301165,0.801450585,-0.42309462
1764510645.3462486,-1.7549,3.90656,0.65618,0.42248427,0.8011454100000001,-0.4235829
1764510645.3462486,-1.7549,3.90656,0.65618,0.42248427,0.8011454100000001,-0.4235829
1764510645.3462486,-1.7549,3.90656,0.65618,0.42248427,0.8011454100000001,-0.4235829
1764510645.3462486,-1.7549,3.90656,0.65618,0.42248427,0.8011454100000001,-0.4235829
1764510645.3462486,-1.7549,3.90656,0.65618,0.42248427,0.8011454100000001,-0.4235829
1764510645.3462486,-1.7549,3.90656,0.65618,0.42248427,0.8011454100000001,-0.4235829
1764510645.3462486,-1.7549,3.90656,0.65618,0.42248427,0.8011454100000001,-0.4235829
1764510645.3462486,-1.7549,3.90656,0.65618,0.42248427,0.8011454100000001,-0.4235829
1764510645.3462486,-1.7549,3.90656,0.65618,0.42248427,0.8011454100000001,-0.4235829
1764510645.3462486,-1.7549,3.90656,0.65618,0.42248427,0.8011454100000001,-0.4235829
1764510645.3462486,-1.526,3.76922,0.79352,0.42211806,0.799131255,-0.42248427
1764510645.3462486,-1.526,3.76922,0.79352,0.42211806,0.799131255,-0.42248427
1764510645.3462486,-1.526,3.76922,0.79352,0.42211806,0.799131255,-0.42248427
1764510645.3462486,-1.526,3.76922,0.79352,0.42211806,0.799131255,-0.42248427
1764510645.3893485,-1.526,3.76922,0.79352,0.42211806,0.799131255,-0.42248427
1764510645.3904476,-1.526,3.76922,0.79352,0.42211806,0.799131255,-0.42248427
1764510645.3904476,-1.526,3.76922,0.79352,0.42211806,0.799131255,-0.42248427
1764510645.391454,-1.526,3.76922,0.79352,0.42211806,0.799131255,-0.42248427
1764510645.391454,-1.526,3.76922,0.79352,0.42211806,0.799131255,-0.42248427
1764510645.391454,-1.526,3.76922,0.79352,0.42211806,0.799131255,-0.42248427
1764510645.391454,0.47306,3.70818,0.71722,0.42211806,0.79772745,-0.42089736
1764510645.3920815,0.47306,3.70818,0.71722,0.42211806,0.79772745,-0.42089736
1764510645.3920815,0.47306,3.70818,0.71722,0.42211806,0.79772745,-0.42089736
1764510645.3920815,0.47306,3.70818,0.71722,0.42211806,0.79772745,-0.42089736
1764510645.3920815,0.47306,3.70818,0.71722,0.42211806,0.79772745,-0.42089736
1764510645.3920815,0.47306,3.70818,0.71722,0.42211806,0.79772745,-0.42089736
1764510645.3920815,0.47306,3.70818,0.71722,0.42211806,0.79772745,-0.42089736
1764510645.3920815,0.47306,3.70818,0.71722,0.42211806,0.79772745,-0.42089736
1764510645.3920815,0.47306,3.70818,0.71722,0.42211806,0.79772745,-0.42089736
1764510645.3920815,0.47306,3.70818,0.71722,0.42211806,0.79772745,-0.42089736
1764510645.3920815,1.4039199999999998,4.1202,0.09156,0.422057025,0.79626261,-0.420103905
1764510645.3920815,1.4039199999999998,4.1202,0.09156,0.422057025,0.79626261,-0.420103905
1764510645.3920815,1.4039199999999998,4.1202,0.09156,0.422057025,0.79626261,-0.420103905
1764510645.3920815,1.4039199999999998,4.1202,0.09156,0.422057025,0.79626261,-0.420103905
1764510645.3920815,1.4039199999999998,4.1202,0.09156,0.422057025,0.79626261,-0.420103905
1764510645.3920815,1.4039199999999998,4.1202,0.09156,0.422057025,0.79626261,-0.420103905
1764510645.3920815,1.4039199999999998,4.1202,0.09156,0.422057025,0.79626261,-0.420103905
1764510645.3920815,1.4039199999999998,4.1202,0.09156,0.422057025,0.79626261,-0.420103905
1764510645.4380674,1.4039199999999998,4.1202,0.09156,0.422057025,0.79626261,-0.420103905
1764510645.4380674,1.4039199999999998,4.1202,0.09156,0.422057025,0.79626261,-0.420103905
1764510645.4380674,1.8006799999999998,3.84552,0.06104,0.422057025,0.797178135,-0.421446675
1764510645.4380674,1.8006799999999998,3.84552,0.06104,0.422057025,0.797178135,-0.421446675
1764510645.4380674,1.8006799999999998,3.84552,0.06104,0.422057025,0.797178135,-0.421446675
1764510645.4380674,1.8006799999999998,3.84552,0.06104,0.422057025,0.797178135,-0.421446675
1764510645.4380674,1.8006799999999998,3.84552,0.06104,0.422057025,0.797178135,-0.421446675
1764510645.4390728,1.8006799999999998,3.84552,0.06104,0.422057025,0.797178135,-0.421446675
1764510645.4390728,1.8006799999999998,3.84552,0.06104,0.422057025,0.797178135,-0.421446675
1764510645.4390728,1.8006799999999998,3.84552,0.06104,0.422057025,0.797178135,-0.421446675
1764510645.4390728,1.8006799999999998,3.84552,0.06104,0.422057025,0.797178135,-0.421446675
1764510645.4390728,1.8006799999999998,3.84552,0.06104,0.422057025,0.797178135,-0.421446675
1764510645.4390728,1.25132,3.34194,0.28994,0.421934955,0.799985745,-0.42285048
1764510645.4390728,1.25132,3.34194,0.28994,0.421934955,0.799985745,-0.42285048
1764510645.4390728,1.25132,3.34194,0.28994,0.421934955,0.799985745,-0.42285048
1764510645.4390728,1.25132,3.34194,0.28994,0.421934955,0.799985745,-0.42285048
1764510645.4405818,1.25132,3.34194,0.28994,0.421934955,0.799985745,-0.42285048
1764510645.4405818,1.25132,3.34194,0.28994,0.421934955,0.799985745,-0.42285048
1764510645.4405818,1.25132,3.34194,0.28994,0.421934955,0.799985745,-0.42285048
1764510645.4405818,1.25132,3.34194,0.28994,0.421934955,0.799985745,-0.42285048
1764510645.4405818,1.25132,3.34194,0.28994,0.421934955,0.799985745,-0.42285048
1764510645.4405818,1.25132,3.34194,0.28994,0.421934955,0.799985745,-0.42285048
1764510645.4405818,-0.85456,3.2046,0.1678599999999999,0.42126357,0.80175576,-0.4235829
1764510645.4405818,-0.85456,3.2046,0.1678599999999999,0.42126357,0.80175576,-0.4235829
1764510645.483363,-0.85456,3.2046,0.1678599999999999,0.42126357,0.80175576,-0.4235829
1764510645.483363,-0.85456,3.2046,0.1678599999999999,0.42126357,0.80175576,-0.4235829
1764510645.483363,-0.85456,3.2046,0.1678599999999999,0.42126357,0.80175576,-0.4235829
1764510645.483363,-0.85456,3.2046,0.1678599999999999,0.42126357,0.80175576,-0.4235829
1764510645.483363,-0.85456,3.2046,0.1678599999999999,0.42126357,0.80175576,-0.4235829
1764510645.483363,-0.85456,3.2046,0.1678599999999999,0.42126357,0.80175576,-0.4235829
1764510645.483363,-0.85456,3.2046,0.1678599999999999,0.42126357,0.80175576,-0.4235829
1764510645.4838722,-0.85456,3.2046,0.1678599999999999,0.42126357,0.80175576,-0.4235829
1764510645.4838722,-1.25132,3.95234,1.08346,0.422179095,0.803525775,-0.424010145
1764510645.4838722,-1.25132,3.95234,1.08346,0.422179095,0.803525775,-0.424010145
1764510645.4838722,-1.25132,3.95234,1.08346,0.422179095,0.803525775,-0.424010145
1764510645.4838722,-1.25132,3.95234,1.08346,0.422179095,0.803525775,-0.424010145
1764510645.4838722,-1.25132,3.95234,1.08346,0.422179095,0.803525775,-0.424010145
1764510645.4838722,-1.25132,3.95234,1.08346,0.422179095,0.803525775,-0.424010145
1764510645.4838722,-1.25132,3.95234,1.08346,0.422179095,0.803525775,-0.424010145
1764510645.4838722,-1.25132,3.95234,1.08346,0.422179095,0.803525775,-0.424010145
1764510645.4838722,-1.25132,3.95234,1.08346,0.422179095,0.803525775,-0.424010145
1764510645.4838722,-1.25132,3.95234,1.08346,0.422179095,0.803525775,-0.424010145
1764510645.4844046,-1.2055399999999998,3.34194,0.77826,0.42260634,0.8026712850000001,-0.42297255
1764510645.4844046,-1.2055399999999998,3.34194,0.77826,0.42260634,0.8026712850000001,-0.42297255
1764510645.4844046,-1.2055399999999998,3.34194,0.77826,0.42260634,0.8026712850000001,-0.42297255
1764510645.4844046,-1.2055399999999998,3.34194,0.77826,0.42260634,0.8026712850000001,-0.42297255
1764510645.5272777,-1.2055399999999998,3.34194,0.77826,0.42260634,0.8026712850000001,-0.42297255
1764510645.5272777,-1.2055399999999998,3.34194,0.77826,0.42260634,0.8026712850000001,-0.42297255
1764510645.5272777,-1.2055399999999998,3.34194,0.77826,0.42260634,0.8026712850000001,-0.42297255
1764510645.5272777,-1.2055399999999998,3.34194,0.77826,0.42260634,0.8026712850000001,-0.42297255
1764510645.5272777,-1.2055399999999998,3.34194,0.77826,0.42260634,0.8026712850000001,-0.42297255
1764510645.5272777,-1.2055399999999998,3.34194,0.77826,0.42260634,0.8026712850000001,-0.42297255
1764510645.5272777,0.01526,3.61662,0.19838,0.42272841,0.800718165,-0.422301165
1764510645.5272777,0.01526,3.61662,0.19838,0.42272841,0.800718165,-0.422301165
1764510645.5272777,0.01526,3.61662,0.19838,0.42272841,0.800718165,-0.422301165
1764510645.5272777,0.01526,3.61662,0.19838,0.42272841,0.800718165,-0.422301165
1764510645.5272777,0.01526,3.61662,0.19838,0.42272841,0.800718165,-0.422301165
1764510645.5272777,0.01526,3.61662,0.19838,0.42272841,0.800718165,-0.422301165
1764510645.527786,0.01526,3.61662,0.19838,0.42272841,0.800718165,-0.422301165
1764510645.527786,0.01526,3.61662,0.19838,0.42272841,0.800718165,-0.422301165
1764510645.5283215,0.01526,3.61662,0.19838,0.42272841,0.800718165,-0.422301165
1764510645.5283215,0.01526,3.61662,0.19838,0.42272841,0.800718165,-0.422301165
1764510645.5283215,-0.10682,4.0439,0.5341,0.423888075,0.800474025,-0.42260634
1764510645.5283215,-0.10682,4.0439,0.5341,0.423888075,0.800474025,-0.42260634
1764510645.5283215,-0.10682,4.0439,0.5341,0.423888075,0.800474025,-0.42260634
1764510645.5283215,-0.10682,4.0439,0.5341,0.423888075,0.800474025,-0.42260634
1764510645.5283215,-0.10682,4.0439,0.5341,0.423888075,0.800474025,-0.42260634
1764510645.5283215,-0.10682,4.0439,0.5341,0.423888075,0.800474025,-0.42260634
1764510645.5283215,-0.10682,4.0439,0.5341,0.423888075,0.800474025,-0.42260634
1764510645.5283215,-0.10682,4.0439,0.5341,0.423888075,0.800474025,-0.42260634
1764510645.577746,-0.10682,4.0439,0.5341,0.423888075,0.800474025,-0.42260634
1764510645.577746,-0.10682,4.0439,0.5341,0.423888075,0.800474025,-0.42260634
1764510645.577746,0.01526,4.15072,0.88508,0.42468153,0.80151162,-0.424010145
1764510645.577746,0.01526,4.15072,0.88508,0.42468153,0.80151162,-0.424010145
1764510645.577746,0.01526,4.15072,0.88508,0.42468153,0.80151162,-0.424010145
1764510645.577746,0.01526,4.15072,0.88508,0.42468153,0.80151162,-0.424010145
1764510645.577746,0.01526,4.15072,0.88508,0.42468153,0.80151162,-0.424010145
1764510645.577746,0.01526,4.15072,0.88508,0.42468153,0.80151162,-0.424010145
1764510645.577746,0.01526,4.15072,0.88508,0.42468153,0.80151162,-0.424010145
1764510645.577746,0.01526,4.15072,0.88508,0.42468153,0.80151162,-0.424010145
1764510645.577746,0.01526,4.15072,0.88508,0.42468153,0.80151162,-0.424010145
1764510645.577746,0.01526,4.15072,0.88508,0.42468153,0.80151162,-0.424010145
1764510645.577746,-1.11398,3.60136,0.24416,0.42211806,0.800351955,-0.42346083
1764510645.577746,-1.11398,3.60136,0.24416,0.42211806,0.800351955,-0.42346083
1764510645.577746,-1.11398,3.60136,0.24416,0.42211806,0.800351955,-0.42346083
1764510645.577746,-1.11398,3.60136,0.24416,0.42211806,0.800351955,-0.42346083
1764510645.577746,-1.11398,3.60136,0.24416,0.42211806,0.800351955,-0.42346083
1764510645.577746,-1.11398,3.60136,0.24416,0.42211806,0.800351955,-0.42346083
1764510645.577746,-1.11398,3.60136,0.24416,0.42211806,0.800351955,-0.42346083
1764510645.577746,-1.11398,3.60136,0.24416,0.42211806,0.800351955,-0.42346083
1764510645.5787714,-1.11398,3.60136,0.24416,0.42211806,0.800351955,-0.42346083
1764510645.5787714,-1.11398,3.60136,0.24416,0.42211806,0.800351955,-0.42346083
1764510645.6222198,-0.62566,3.052,0.88508,0.42065322,0.800229885,-0.424010145
1764510645.6227307,-0.62566,3.052,0.88508,0.42065322,0.800229885,-0.424010145
1764510645.6227307,-0.62566,3.052,0.88508,0.42065322,0.800229885,-0.424010145
1764510645.6227307,-0.62566,3.052,0.88508,0.42065322,0.800229885,-0.424010145
1764510645.6227307,-0.62566,3.052,0.88508,0.42065322,0.800229885,-0.424010145
1764510645.6227307,-0.62566,3.052,0.88508,0.42065322,0.800229885,-0.424010145
1764510645.6227307,-0.62566,3.052,0.88508,0.42065322,0.800229885,-0.424010145
1764510645.6227307,-0.62566,3.052,0.88508,0.42065322,0.800229885,-0.424010145
1764510645.6227307,-0.62566,3.052,0.88508,0.42065322,0.800229885,-0.424010145
1764510645.6227307,-0.62566,3.052,0.88508,0.42065322,0.800229885,-0.424010145
1764510645.6227307,-0.8392999999999999,3.99812,0.93086,0.423033585,0.80041299,-0.42333876
1764510645.6227307,-0.8392999999999999,3.99812,0.93086,0.423033585,0.80041299,-0.42333876
1764510645.6227307,-0.8392999999999999,3.99812,0.93086,0.423033585,0.80041299,-0.42333876
1764510645.6227307,-0.8392999999999999,3.99812,0.93086,0.423033585,0.80041299,-0.42333876
1764510645.6227307,-0.8392999999999999,3.99812,0.93086,0.423033585,0.80041299,-0.42333876
1764510645.6227307,-0.8392999999999999,3.99812,0.93086,0.423033585,0.80041299,-0.42333876
1764510645.6227307,-0.8392999999999999,3.99812,0.93086,0.423033585,0.80041299,-0.42333876
1764510645.6227307,-0.8392999999999999,3.99812,0.93086,0.423033585,0.80041299,-0.42333876
1764510645.6227307,-0.8392999999999999,3.99812,0.93086,0.423033585,0.80041299,-0.42333876
1764510645.6232622,-0.8392999999999999,3.99812,0.93086,0.423033585,0.80041299,-0.42333876
1764510645.6232622,-0.1678599999999999,3.72344,0.0762999999999999,0.42211806,0.7995585000000001,-0.42101943
1764510645.6232622,-0.1678599999999999,3.72344,0.0762999999999999,0.42211806,0.7995585000000001,-0.42101943
1764510645.6232622,-0.1678599999999999,3.72344,0.0762999999999999,0.42211806,0.7995585000000001,-0.42101943
1764510645.6232622,-0.1678599999999999,3.72344,0.0762999999999999,0.42211806,0.7995585000000001,-0.42101943
1764510645.6683493,-0.1678599999999999,3.72344,0.0762999999999999,0.42211806,0.7995585000000001,-0.42101943
1764510645.6683493,-0.1678599999999999,3.72344,0.0762999999999999,0.42211806,0.7995585000000001,-0.42101943
1764510645.6683493,-0.1678599999999999,3.72344,0.0762999999999999,0.42211806,0.7995585000000001,-0.42101943
1764510645.6683493,-0.1678599999999999,3.72344,0.0762999999999999,0.42211806,0.7995585000000001,-0.42101943
1764510645.6683493,-0.1678599999999999,3.72344,0.0762999999999999,0.42211806,0.7995585000000001,-0.42101943
1764510645.6683493,-0.1678599999999999,3.72344,0.0762999999999999,0.42211806,0.7995585000000001,-0.42101943
1764510645.6683493,1.8312,3.61662,0.9156,0.42187392,0.797056065,-0.421324605
1764510645.6683493,1.8312,3.61662,0.9156,0.42187392,0.797056065,-0.421324605
1764510645.6683493,1.8312,3.61662,0.9156,0.42187392,0.797056065,-0.421324605
1764510645.6683493,1.8312,3.61662,0.9156,0.42187392,0.797056065,-0.421324605
1764510645.6683493,1.8312,3.61662,0.9156,0.42187392,0.797056065,-0.421324605
1764510645.6683493,1.8312,3.61662,0.9156,0.42187392,0.797056065,-0.421324605
1764510645.6683493,1.8312,3.61662,0.9156,0.42187392,0.797056065,-0.421324605
1764510645.6683493,1.8312,3.61662,0.9156,0.42187392,0.797056065,-0.421324605
1764510645.6683493,1.8312,3.61662,0.9156,0.42187392,0.797056065,-0.421324605
1764510645.6683493,1.8312,3.61662,0.9156,0.42187392,0.797056065,-0.421324605
1764510645.6683493,1.55652,3.29616,0.24416,0.423888075,0.7983378,-0.4235829
1764510645.6683493,1.55652,3.29616,0.24416,0.423888075,0.7983378,-0.4235829
1764510645.6683493,1.55652,3.29616,0.24416,0.423888075,0.7983378,-0.4235829
1764510645.6683493,1.55652,3.29616,0.24416,0.423888075,0.7983378,-0.4235829
1764510645.6697986,1.55652,3.29616,0.24416,0.423888075,0.7983378,-0.4235829
1764510645.6697986,1.55652,3.29616,0.24416,0.423888075,0.7983378,-0.4235829
1764510645.6697986,1.55652,3.29616,0.24416,0.423888075,0.7983378,-0.4235829
1764510645.6697986,1.55652,3.29616,0.24416,0.423888075,0.7983378,-0.4235829
1764510645.7172933,1.55652,3.29616,0.24416,0.423888075,0.7983378,-0.4235829
1764510645.7172933,1.55652,3.29616,0.24416,0.423888075,0.7983378,-0.4235829
1764510645.7172933,-0.54936,3.23512,-0.47306,0.423521865,0.801450585,-0.426085335
1764510645.7172933,-0.54936,3.23512,-0.47306,0.423521865,0.801450585,-0.426085335
1764510645.7172933,-0.54936,3.23512,-0.47306,0.423521865,0.801450585,-0.426085335
1764510645.7172933,-0.54936,3.23512,-0.47306,0.423521865,0.801450585,-0.426085335
1764510645.7182856,-0.54936,3.23512,-0.47306,0.423521865,0.801450585,-0.426085335
1764510645.7182856,-0.54936,3.23512,-0.47306,0.423521865,0.801450585,-0.426085335
1764510645.7182856,-0.54936,3.23512,-0.47306,0.423521865,0.801450585,-0.426085335
1764510645.7182856,-0.54936,3.23512,-0.47306,0.423521865,0.801450585,-0.426085335
1764510645.7182856,-0.54936,3.23512,-0.47306,0.423521865,0.801450585,-0.426085335
1764510645.7182856,-0.54936,3.23512,-0.47306,0.423521865,0.801450585,-0.426085335
1764510645.7182856,-2.5942,3.79974,0.44254,0.422057025,0.802549215,-0.42590223
1764510645.7182856,-2.5942,3.79974,0.44254,0.422057025,0.802549215,-0.42590223
1764510645.7194068,-2.5942,3.79974,0.44254,0.422057025,0.802549215,-0.42590223
1764510645.7194068,-2.5942,3.79974,0.44254,0.422057025,0.802549215,-0.42590223
1764510645.7194068,-2.5942,3.79974,0.44254,0.422057025,0.802549215,-0.42590223
1764510645.7194068,-2.5942,3.79974,0.44254,0.422057025,0.802549215,-0.42590223
1764510645.7194068,-2.5942,3.79974,0.44254,0.422057025,0.802549215,-0.42590223
1764510645.7194068,-2.5942,3.79974,0.44254,0.422057025,0.802549215,-0.42590223
1764510645.7194068,-2.5942,3.79974,0.44254,0.422057025,0.802549215,-0.42590223
1764510645.7194068,-2.5942,3.79974,0.44254,0.422057025,0.802549215,-0.42590223
1764510645.75939,-2.6705,3.2809,1.31236,0.4211415,0.80090127,-0.42443739
1764510645.75939,-2.6705,3.2809,1.31236,0.4211415,0.80090127,-0.42443739
1764510645.7604074,-2.6705,3.2809,1.31236,0.4211415,0.80090127,-0.42443739
1764510645.7604074,-2.6705,3.2809,1.31236,0.4211415,0.80090127,-0.42443739
1764510645.7604074,-2.6705,3.2809,1.31236,0.4211415,0.80090127,-0.42443739
1764510645.7604074,-2.6705,3.2809,1.31236,0.4211415,0.80090127,-0.42443739
1764510645.7604074,-2.6705,3.2809,1.31236,0.4211415,0.80090127,-0.42443739
1764510645.7604074,-2.6705,3.2809,1.31236,0.4211415,0.80090127,-0.42443739
1764510645.7604074,-2.6705,3.2809,1.31236,0.4211415,0.80090127,-0.42443739
1764510645.7604074,-2.6705,3.2809,1.31236,0.4211415,0.80090127,-0.42443739
1764510645.7604074,-0.88508,3.40298,0.5341,0.42224013,0.798154695,-0.42297255
1764510645.7604074,-0.88508,3.40298,0.5341,0.42224013,0.798154695,-0.42297255
1764510645.7604074,-0.88508,3.40298,0.5341,0.42224013,0.798154695,-0.42297255
1764510645.7604074,-0.88508,3.40298,0.5341,0.42224013,0.798154695,-0.42297255
1764510645.7604074,-0.88508,3.40298,0.5341,0.42224013,0.798154695,-0.42297255
1764510645.7604074,-0.88508,3.40298,0.5341,0.42224013,0.798154695,-0.42297255
1764510645.7604074,-0.88508,3.40298,0.5341,0.42224013,0.798154695,-0.42297255
1764510645.7604074,-0.88508,3.40298,0.5341,0.42224013,0.798154695,-0.42297255
1764510645.7604074,-0.88508,3.40298,0.5341,0.42224013,0.798154695,-0.42297255
1764510645.7604074,-0.88508,3.40298,0.5341,0.42224013,0.798154695,-0.42297255
1764510645.7614045,0.54936,4.66956,0.39676,0.424620495,0.798154695,-0.42285048
1764510645.7614045,0.54936,4.66956,0.39676,0.424620495,0.798154695,-0.42285048
1764510645.7614045,0.54936,4.66956,0.39676,0.424620495,0.798154695,-0.42285048
1764510645.7614045,0.54936,4.66956,0.39676,0.424620495,0.798154695,-0.42285048
1764510645.811685,0.54936,4.66956,0.39676,0.424620495,0.798154695,-0.42285048
1764510645.811685,0.54936,4.66956,0.39676,0.424620495,0.798154695,-0.42285048
1764510645.811685,0.54936,4.66956,0.39676,0.424620495,0.798154695,-0.42285048
1764510645.811685,0.54936,4.66956,0.39676,0.424620495,0.798154695,-0.42285048
1764510645.811685,0.54936,4.66956,0.39676,0.424620495,0.798154695,-0.42285048
1764510645.811685,0.54936,4.66956,0.39676,0.424620495,0.798154695,-0.42285048
1764510645.811685,0.59514,4.53222,0.21364,0.423399795,0.799741605,-0.423033585
1764510645.811685,0.59514,4.53222,0.21364,0.423399795,0.799741605,-0.423033585
1764510645.811685,0.59514,4.53222,0.21364,0.423399795,0.799741605,-0.423033585
1764510645.811685,0.59514,4.53222,0.21364,0.423399795,0.799741605,-0.423033585
1764510645.811685,0.59514,4.53222,0.21364,0.423399795,0.799741605,-0.423033585
1764510645.811685,0.59514,4.53222,0.21364,0.423399795,0.799741605,-0.423033585
1764510645.8127034,0.59514,4.53222,0.21364,0.423399795,0.799741605,-0.423033585
1764510645.8127034,0.59514,4.53222,0.21364,0.423399795,0.799741605,-0.423033585
1764510645.8127034,0.59514,4.53222,0.21364,0.423399795,0.799741605,-0.423033585
1764510645.8127034,0.59514,4.53222,0.21364,0.423399795,0.799741605,-0.423033585
1764510645.8127034,-0.2289,3.83026,0.6867,0.421202535,0.80126748,-0.423643935
1764510645.8127034,-0.2289,3.83026,0.6867,0.421202535,0.80126748,-0.423643935
1764510645.8127034,-0.2289,3.83026,0.6867,0.421202535,0.80126748,-0.423643935
1764510645.8127034,-0.2289,3.83026,0.6867,0.421202535,0.80126748,-0.423643935
1764510645.8127034,-0.2289,3.83026,0.6867,0.421202535,0.80126748,-0.423643935
1764510645.8127034,-0.2289,3.83026,0.6867,0.421202535,0.80126748,-0.423643935
1764510645.8127034,-0.2289,3.83026,0.6867,0.421202535,0.80126748,-0.423643935
1764510645.8127034,-0.2289,3.83026,0.6867,0.421202535,0.80126748,-0.423643935
1764510645.8582065,-0.2289,3.83026,0.6867,0.421202535,0.80126748,-0.423643935
1764510645.8582065,-0.2289,3.83026,0.6867,0.421202535,0.80126748,-0.423643935
1764510645.8582065,-1.3734,3.5098,1.11398,0.421934955,0.801816795,-0.424498425
1764510645.8582065,-1.3734,3.5098,1.11398,0.421934955,0.801816795,-0.424498425
1764510645.8582065,-1.3734,3.5098,1.11398,0.421934955,0.801816795,-0.424498425
1764510645.8582065,-1.3734,3.5098,1.11398,0.421934955,0.801816795,-0.424498425
1764510645.8582065,-1.3734,3.5098,1.11398,0.421934955,0.801816795,-0.424498425
1764510645.8582065,-1.3734,3.5098,1.11398,0.421934955,0.801816795,-0.424498425
1764510645.8582065,-1.3734,3.5098,1.11398,0.421934955,0.801816795,-0.424498425
1764510645.8582065,-1.3734,3.5098,1.11398,0.421934955,0.801816795,-0.424498425
1764510645.8582065,-1.3734,3.5098,1.11398,0.421934955,0.801816795,-0.424498425
1764510645.8582065,-1.3734,3.5098,1.11398,0.421934955,0.801816795,-0.424498425
1764510645.8582065,-1.28184,3.3572,0.48832,0.422667375,0.799497465,-0.42321669
1764510645.8582065,-1.28184,3.3572,0.48832,0.422667375,0.799497465,-0.42321669
1764510645.8582065,-1.28184,3.3572,0.48832,0.422667375,0.799497465,-0.42321669
1764510645.8582065,-1.28184,3.3572,0.48832,0.422667375,0.799497465,-0.42321669
1764510645.8582065,-1.28184,3.3572,0.48832,0.422667375,0.799497465,-0.42321669
1764510645.8582065,-1.28184,3.3572,0.48832,0.422667375,0.799497465,-0.42321669
1764510645.8582065,-1.28184,3.3572,0.48832,0.422667375,0.799497465,-0.42321669
1764510645.8582065,-1.28184,3.3572,0.48832,0.422667375,0.799497465,-0.42321669
1764510645.8582065,-1.28184,3.3572,0.48832,0.422667375,0.799497465,-0.42321669
1764510645.8582065,-1.28184,3.3572,0.48832,0.422667375,0.799497465,-0.42321669
1764510645.901944,-0.3815,4.13546,0.9156,0.42419325,0.79894815,-0.42394911
1764510645.9024582,-0.3815,4.13546,0.9156,0.42419325,0.79894815,-0.42394911
1764510645.9024582,-0.3815,4.13546,0.9156,0.42419325,0.79894815,-0.42394911
1764510645.9024582,-0.3815,4.13546,0.9156,0.42419325,0.79894815,-0.42394911
1764510645.9024582,-0.3815,4.13546,0.9156,0.42419325,0.79894815,-0.42394911
1764510645.9024582,-0.3815,4.13546,0.9156,0.42419325,0.79894815,-0.42394911
1764510645.9024582,-0.3815,4.13546,0.9156,0.42419325,0.79894815,-0.42394911
1764510645.9024582,-0.3815,4.13546,0.9156,0.42419325,0.79894815,-0.42394911
1764510645.9024582,-0.3815,4.13546,0.9156,0.42419325,0.79894815,-0.42394911
1764510645.9024582,-0.3815,4.13546,0.9156,0.42419325,0.79894815,-0.42394911
1764510645.9024582,-0.24416,3.76922,-0.0762999999999999,0.424742565,0.79919229,-0.4223622
1764510645.9024582,-0.24416,3.76922,-0.0762999999999999,0.424742565,0.79919229,-0.4223622
1764510645.9024582,-0.24416,3.76922,-0.0762999999999999,0.424742565,0.79919229,-0.4223622
1764510645.9024582,-0.24416,3.76922,-0.0762999999999999,0.424742565,0.79919229,-0.4223622
1764510645.9024582,-0.24416,3.76922,-0.0762999999999999,0.424742565,0.79919229,-0.4223622
1764510645.9024582,-0.24416,3.76922,-0.0762999999999999,0.424742565,0.79919229,-0.4223622
1764510645.9024582,-0.24416,3.76922,-0.0762999999999999,0.424742565,0.79919229,-0.4223622
1764510645.9024582,-0.24416,3.76922,-0.0762999999999999,0.424742565,0.79919229,-0.4223622
1764510645.9024582,-0.24416,3.76922,-0.0762999999999999,0.424742565,0.79919229,-0.4223622
1764510645.9024582,-0.24416,3.76922,-0.0762999999999999,0.424742565,0.79919229,-0.4223622
1764510645.9024582,0.3051999999999999,3.75396,0.44254,0.422545305,0.797910555,-0.423033585
1764510645.9024582,0.3051999999999999,3.75396,0.44254,0.422545305,0.797910555,-0.423033585
1764510645.9024582,0.3051999999999999,3.75396,0.44254,0.422545305,0.797910555,-0.423033585
1764510645.9024582,0.3051999999999999,3.75396,0.44254,0.422545305,0.797910555,-0.423033585
1764510645.949086,0.3051999999999999,3.75396,0.44254,0.422545305,0.797910555,-0.423033585
1764510645.949086,0.3051999999999999,3.75396,0.44254,0.422545305,0.797910555,-0.423033585
1764510645.949086,0.3051999999999999,3.75396,0.44254,0.422545305,0.797910555,-0.423033585
1764510645.949086,0.3051999999999999,3.75396,0.44254,0.422545305,0.797910555,-0.423033585
1764510645.949086,0.3051999999999999,3.75396,0.44254,0.422545305,0.797910555,-0.423033585
1764510645.949086,0.3051999999999999,3.75396,0.44254,0.422545305,0.797910555,-0.423033585
1764510645.949086,0.18312,4.02864,0.74774,0.42297255,0.79943643,-0.42419325
1764510645.949086,0.18312,4.02864,0.74774,0.42297255,0.79943643,-0.42419325
1764510645.949086,0.18312,4.02864,0.74774,0.42297255,0.79943643,-0.42419325
1764510645.949086,0.18312,4.02864,0.74774,0.42297255,0.79943643,-0.42419325
1764510645.949086,0.18312,4.02864,0.74774,0.42297255,0.79943643,-0.42419325
1764510645.949086,0.18312,4.02864,0.74774,0.42297255,0.79943643,-0.42419325
1764510645.949086,0.18312,4.02864,0.74774,0.42297255,0.79943643,-0.42419325
1764510645.949086,0.18312,4.02864,0.74774,0.42297255,0.79943643,-0.42419325
1764510645.949086,0.18312,4.02864,0.74774,0.42297255,0.79943643,-0.42419325
1764510645.949086,0.18312,4.02864,0.74774,0.42297255,0.79943643,-0.42419325
1764510645.950101,-0.6103999999999999,4.60852,0.1525999999999999,0.42321669,0.801816795,-0.425474985
1764510645.950101,-0.6103999999999999,4.60852,0.1525999999999999,0.42321669,0.801816795,-0.425474985
1764510645.950101,-0.6103999999999999,4.60852,0.1525999999999999,0.42321669,0.801816795,-0.425474985
1764510645.950101,-0.6103999999999999,4.60852,0.1525999999999999,0.42321669,0.801816795,-0.425474985
1764510645.950101,-0.6103999999999999,4.60852,0.1525999999999999,0.42321669,0.801816795,-0.425474985
1764510645.950101,-0.6103999999999999,4.60852,0.1525999999999999,0.42321669,0.801816795,-0.425474985
1764510645.994577,-0.6103999999999999,4.60852,0.1525999999999999,0.42321669,0.801816795,-0.425474985
1764510645.994577,-0.6103999999999999,4.60852,0.1525999999999999,0.42321669,0.801816795,-0.425474985
1764510645.994577,-0.6103999999999999,4.60852,0.1525999999999999,0.42321669,0.801816795,-0.425474985
1764510645.994577,-0.6103999999999999,4.60852,0.1525999999999999,0.42321669,0.801816795,-0.425474985
1764510645.994577,-1.64808,3.75396,0.28994,0.422179095,0.802793355,-0.42565809
1764510645.994577,-1.64808,3.75396,0.28994,0.422179095,0.802793355,-0.42565809
1764510645.994577,-1.64808,3.75396,0.28994,0.422179095,0.802793355,-0.42565809
1764510645.994577,-1.64808,3.75396,0.28994,0.422179095,0.802793355,-0.42565809
1764510645.994577,-1.64808,3.75396,0.28994,0.422179095,0.802793355,-0.42565809
1764510645.9965937,-1.64808,3.75396,0.28994,0.422179095,0.802793355,-0.42565809
1764510645.9965937,-1.64808,3.75396,0.28994,0.422179095,0.802793355,-0.42565809
1764510645.9965937,-1.64808,3.75396,0.28994,0.422179095,0.802793355,-0.42565809
1764510645.9965937,-1.64808,3.75396,0.28994,0.422179095,0.802793355,-0.42565809
1764510645.9965937,-1.64808,3.75396,0.28994,0.422179095,0.802793355,-0.42565809
1764510645.998191,-1.41918,3.15882,0.74774,0.4211415,0.8019999,-0.424742565
1764510645.998191,-1.41918,3.15882,0.74774,0.4211415,0.8019999,-0.424742565
1764510645.998191,-1.41918,3.15882,0.74774,0.4211415,0.8019999,-0.424742565
1764510645.998191,-1.41918,3.15882,0.74774,0.4211415,0.8019999,-0.424742565
1764510645.998191,-1.41918,3.15882,0.74774,0.4211415,0.8019999,-0.424742565
1764510645.998191,-1.41918,3.15882,0.74774,0.4211415,0.8019999,-0.424742565
1764510645.998191,-1.41918,3.15882,0.74774,0.4211415,0.8019999,-0.424742565
1764510645.998191,-1.41918,3.15882,0.74774,0.4211415,0.8019999,-0.424742565
1764510646.0423462,-1.41918,3.15882,0.74774,0.4211415,0.8019999,-0.424742565
1764510646.0423462,-1.41918,3.15882,0.74774,0.4211415,0.8019999,-0.424742565
1764510646.0423462,-0.88508,3.63188,0.93086,0.421324605,0.79919229,-0.423033585
1764510646.0423462,-0.88508,3.63188,0.93086,0.421324605,0.79919229,-0.423033585
1764510646.0433786,-0.88508,3.63188,0.93086,0.421324605,0.79919229,-0.423033585
1764510646.0433786,-0.88508,3.63188,0.93086,0.421324605,0.79919229,-0.423033585
1764510646.0433786,-0.88508,3.63188,0.93086,0.421324605,0.79919229,-0.423033585
1764510646.0433786,-0.88508,3.63188,0.93086,0.421324605,0.79919229,-0.423033585
1764510646.0433786,-0.88508,3.63188,0.93086,0.421324605,0.79919229,-0.423033585
1764510646.0433786,-0.88508,3.63188,0.93086,0.421324605,0.79919229,-0.423033585
1764510646.0433786,-0.88508,3.63188,0.93086,0.421324605,0.79919229,-0.423033585
1764510646.0433786,-0.88508,3.63188,0.93086,0.421324605,0.79919229,-0.423033585
1764510646.0433786,-0.04578,3.815,0.9003399999999999,0.423155655,0.7985209050000001,-0.422545305
1764510646.0433786,-0.04578,3.815,0.9003399999999999,0.423155655,0.7985209050000001,-0.422545305
1764510646.0433786,-0.04578,3.815,0.9003399999999999,0.423155655,0.7985209050000001,-0.422545305
1764510646.0433786,-0.04578,3.815,0.9003399999999999,0.423155655,0.7985209050000001,-0.422545305
1764510646.0433786,-0.04578,3.815,0.9003399999999999,0.423155655,0.7985209050000001,-0.422545305
1764510646.0433786,-0.04578,3.815,0.9003399999999999,0.423155655,0.7985209050000001,-0.422545305
1764510646.0433786,-0.04578,3.815,0.9003399999999999,0.423155655,0.7985209050000001,-0.422545305
1764510646.044376,-0.04578,3.815,0.9003399999999999,0.423155655,0.7985209050000001,-0.422545305
1764510646.0448873,-0.04578,3.815,0.9003399999999999,0.423155655,0.7985209050000001,-0.422545305
1764510646.0448873,-0.04578,3.815,0.9003399999999999,0.423155655,0.7985209050000001,-0.422545305
1764510646.0448873,-0.41202,3.6624,0.4578,0.423277725,0.79968057,-0.42248427
1764510646.0448873,-0.41202,3.6624,0.4578,0.423277725,0.79968057,-0.42248427
1764510646.0448873,-0.41202,3.6624,0.4578,0.423277725,0.79968057,-0.42248427
1764510646.0448873,-0.41202,3.6624,0.4578,0.423277725,0.79968057,-0.42248427
1764510646.0897143,-0.41202,3.6624,0.4578,0.423277725,0.79968057,-0.42248427
1764510646.0897143,-0.41202,3.6624,0.4578,0.423277725,0.79968057,-0.42248427
1764510646.0897143,-0.41202,3.6624,0.4578,0.423277725,0.79968057,-0.42248427
1764510646.0897143,-0.41202,3.6624,0.4578,0.423277725,0.79968057,-0.42248427
1764510646.090725,-0.41202,3.6624,0.4578,0.423277725,0.79968057,-0.42248427
1764510646.0917466,-0.41202,3.6624,0.4578,0.423277725,0.79968057,-0.42248427
1764510646.0917466,-0.47306,3.87604,0.3051999999999999,0.422789445,0.799741605,-0.42285048
1764510646.0917466,-0.47306,3.87604,0.3051999999999999,0.422789445,0.799741605,-0.42285048
1764510646.0917466,-0.47306,3.87604,0.3051999999999999,0.422789445,0.799741605,-0.42285048
1764510646.0917466,-0.47306,3.87604,0.3051999999999999,0.422789445,0.799741605,-0.42285048
1764510646.0917466,-0.47306,3.87604,0.3051999999999999,0.422789445,0.799741605,-0.42285048
1764510646.0917466,-0.47306,3.87604,0.3051999999999999,0.422789445,0.799741605,-0.42285048
1764510646.0917466,-0.47306,3.87604,0.3051999999999999,0.422789445,0.799741605,-0.42285048
1764510646.0917466,-0.47306,3.87604,0.3051999999999999,0.422789445,0.799741605,-0.42285048
1764510646.0917466,-0.47306,3.87604,0.3051999999999999,0.422789445,0.799741605,-0.42285048
1764510646.0917466,-0.47306,3.87604,0.3051999999999999,0.422789445,0.799741605,-0.42285048
1764510646.0917466,-0.19838,3.37246,0.42728,0.42297255,0.7995585000000001,-0.423766005
1764510646.0917466,-0.19838,3.37246,0.42728,0.42297255,0.7995585000000001,-0.423766005
1764510646.0917466,-0.19838,3.37246,0.42728,0.42297255,0.7995585000000001,-0.423766005
1764510646.0917466,-0.19838,3.37246,0.42728,0.42297255,0.7995585000000001,-0.423766005
1764510646.0927331,-0.19838,3.37246,0.42728,0.42297255,0.7995585000000001,-0.423766005
1764510646.0927331,-0.19838,3.37246,0.42728,0.42297255,0.7995585000000001,-0.423766005
1764510646.0927331,-0.19838,3.37246,0.42728,0.42297255,0.7995585000000001,-0.423766005
1764510646.0927331,-0.19838,3.37246,0.42728,0.42297255,0.7995585000000001,-0.423766005
1764510646.1393952,-0.19838,3.37246,0.42728,0.42297255,0.7995585000000001,-0.423766005
1764510646.1393952,-0.19838,3.37246,0.42728,0.42297255,0.7995585000000001,-0.423766005
1764510646.1393952,-0.763,3.78448,0.5341,0.422667375,0.79919229,-0.424376355
1764510646.1393952,-0.763,3.78448,0.5341,0.422667375,0.79919229,-0.424376355
1764510646.1393952,-0.763,3.78448,0.5341,0.422667375,0.79919229,-0.424376355
1764510646.1402023,-0.763,3.78448,0.5341,0.422667375,0.79919229,-0.424376355
1764510646.1402023,-0.763,3.78448,0.5341,0.422667375,0.79919229,-0.424376355
1764510646.1402023,-0.763,3.78448,0.5341,0.422667375,0.79919229,-0.424376355
1764510646.1402023,-0.763,3.78448,0.5341,0.422667375,0.79919229,-0.424376355
1764510646.1402023,-0.763,3.78448,0.5341,0.422667375,0.79919229,-0.424376355
1764510646.1412172,-0.763,3.78448,0.5341,0.422667375,0.79919229,-0.424376355
1764510646.1412172,-0.763,3.78448,0.5341,0.422667375,0.79919229,-0.424376355
1764510646.1412172,-1.43444,3.46402,0.74774,0.421568745,0.8005960950000001,-0.424498425
1764510646.1412172,-1.43444,3.46402,0.74774,0.421568745,0.8005960950000001,-0.424498425
1764510646.1412172,-1.43444,3.46402,0.74774,0.421568745,0.8005960950000001,-0.424498425
1764510646.1412172,-1.43444,3.46402,0.74774,0.421568745,0.8005960950000001,-0.424498425
1764510646.1412172,-1.43444,3.46402,0.74774,0.421568745,0.8005960950000001,-0.424498425
1764510646.1412172,-1.43444,3.46402,0.74774,0.421568745,0.8005960950000001,-0.424498425
1764510646.1412172,-1.43444,3.46402,0.74774,0.421568745,0.8005960950000001,-0.424498425
1764510646.1412172,-1.43444,3.46402,0.74774,0.421568745,0.8005960950000001,-0.424498425
1764510646.1412172,-1.43444,3.46402,0.74774,0.421568745,0.8005960950000001,-0.424498425
1764510646.1412172,-1.43444,3.46402,0.74774,0.421568745,0.8005960950000001,-0.424498425
1764510646.1412172,-2.01432,3.63188,0.71722,0.421690815,0.799863675,-0.42455946
1764510646.1412172,-2.01432,3.63188,0.71722,0.421690815,0.799863675,-0.42455946
1764510646.183427,-2.01432,3.63188,0.71722,0.421690815,0.799863675,-0.42455946
1764510646.183427,-2.01432,3.63188,0.71722,0.421690815,0.799863675,-0.42455946
1764510646.183427,-2.01432,3.63188,0.71722,0.421690815,0.799863675,-0.42455946
1764510646.183427,-2.01432,3.63188,0.71722,0.421690815,0.799863675,-0.42455946
1764510646.183427,-2.01432,3.63188,0.71722,0.421690815,0.799863675,-0.42455946
1764510646.183427,-2.01432,3.63188,0.71722,0.421690815,0.799863675,-0.42455946
1764510646.183427,-2.01432,3.63188,0.71722,0.421690815,0.799863675,-0.42455946
1764510646.183427,-2.01432,3.63188,0.71722,0.421690815,0.799863675,-0.42455946
1764510646.183427,-1.23606,3.7387,0.25942,0.42199599,0.798398835,-0.423399795
1764510646.183427,-1.23606,3.7387,0.25942,0.42199599,0.798398835,-0.423399795
1764510646.1854515,-1.23606,3.7387,0.25942,0.42199599,0.798398835,-0.423399795
1764510646.1854515,-1.23606,3.7387,0.25942,0.42199599,0.798398835,-0.423399795
1764510646.1854515,-1.23606,3.7387,0.25942,0.42199599,0.798398835,-0.423399795
1764510646.1864536,-1.23606,3.7387,0.25942,0.42199599,0.798398835,-0.423399795
1764510646.1864536,-1.23606,3.7387,0.25942,0.42199599,0.798398835,-0.423399795
1764510646.1864536,-1.23606,3.7387,0.25942,0.42199599,0.798398835,-0.423399795
1764510646.1864536,-1.23606,3.7387,0.25942,0.42199599,0.798398835,-0.423399795
1764510646.1864536,-1.23606,3.7387,0.25942,0.42199599,0.798398835,-0.423399795
1764510646.1864536,-0.28994,3.64714,0.3357199999999999,0.422423235,0.7974833100000001,-0.42333876
1764510646.1864536,-0.28994,3.64714,0.3357199999999999,0.422423235,0.7974833100000001,-0.42333876
1764510646.1864536,-0.28994,3.64714,0.3357199999999999,0.422423235,0.7974833100000001,-0.42333876
1764510646.1864536,-0.28994,3.64714,0.3357199999999999,0.422423235,0.7974833100000001,-0.42333876
1764510646.1874497,-0.28994,3.64714,0.3357199999999999,0.422423235,0.7974833100000001,-0.42333876
1764510646.1874497,-0.28994,3.64714,0.3357199999999999,0.422423235,0.7974833100000001,-0.42333876
1764510646.2328384,-0.28994,3.64714,0.3357199999999999,0.422423235,0.7974833100000001,-0.42333876
1764510646.2328384,-0.28994,3.64714,0.3357199999999999,0.422423235,0.7974833100000001,-0.42333876
1764510646.2328384,-0.28994,3.64714,0.3357199999999999,0.422423235,0.7974833100000001,-0.42333876
1764510646.2328384,-0.28994,3.64714,0.3357199999999999,0.422423235,0.7974833100000001,-0.42333876
1764510646.2328384,0.6714399999999999,3.70818,0.47306,0.422667375,0.798154695,-0.423643935
1764510646.2328384,0.6714399999999999,3.70818,0.47306,0.422667375,0.798154695,-0.423643935
1764510646.2328384,0.6714399999999999,3.70818,0.47306,0.422667375,0.798154695,-0.423643935
1764510646.2328384,0.6714399999999999,3.70818,0.47306,0.422667375,0.798154695,-0.423643935
1764510646.2328384,0.6714399999999999,3.70818,0.47306,0.422667375,0.798154695,-0.423643935
1764510646.2328384,0.6714399999999999,3.70818,0.47306,0.422667375,0.798154695,-0.423643935
1764510646.2328384,0.6714399999999999,3.70818,0.47306,0.422667375,0.798154695,-0.423643935
1764510646.2328384,0.6714399999999999,3.70818,0.47306,0.422667375,0.798154695,-0.423643935
1764510646.2328384,0.6714399999999999,3.70818,0.47306,0.422667375,0.798154695,-0.423643935
1764510646.2328384,0.6714399999999999,3.70818,0.47306,0.422667375,0.798154695,-0.423643935
1764510646.233363,0.51884,3.57084,0.10682,0.422057025,0.79907022,-0.424498425
1764510646.233363,0.51884,3.57084,0.10682,0.422057025,0.79907022,-0.424498425
1764510646.233363,0.51884,3.57084,0.10682,0.422057025,0.79907022,-0.424498425
1764510646.233363,0.51884,3.57084,0.10682,0.422057025,0.79907022,-0.424498425
1764510646.233363,0.51884,3.57084,0.10682,0.422057025,0.79907022,-0.424498425
1764510646.233363,0.51884,3.57084,0.10682,0.422057025,0.79907022,-0.424498425
1764510646.2791562,0.51884,3.57084,0.10682,0.422057025,0.79907022,-0.424498425
1764510646.280172,0.51884,3.57084,0.10682,0.422057025,0.79907022,-0.424498425
1764510646.280172,0.51884,3.57084,0.10682,0.422057025,0.79907022,-0.424498425
1764510646.280172,0.51884,3.57084,0.10682,0.422057025,0.79907022,-0.424498425
1764510646.280172,-0.27468,3.83026,0.24416,0.42199599,0.799497465,-0.424620495
1764510646.280172,-0.27468,3.83026,0.24416,0.42199599,0.799497465,-0.424620495
1764510646.280172,-0.27468,3.83026,0.24416,0.42199599,0.799497465,-0.424620495
1764510646.280172,-0.27468,3.83026,0.24416,0.42199599,0.799497465,-0.424620495
1764510646.280172,-0.27468,3.83026,0.24416,0.42199599,0.799497465,-0.424620495
1764510646.281153,-0.27468,3.83026,0.24416,0.42199599,0.799497465,-0.424620495
1764510646.281153,-0.27468,3.83026,0.24416,0.42199599,0.799497465,-0.424620495
1764510646.281153,-0.27468,3.83026,0.24416,0.42199599,0.799497465,-0.424620495
1764510646.281153,-0.27468,3.83026,0.24416,0.42199599,0.799497465,-0.424620495
1764510646.281153,-0.27468,3.83026,0.24416,0.42199599,0.799497465,-0.424620495
1764510646.281153,-0.6103999999999999,3.6624,0.03052,0.421568745,0.79980264,-0.424498425
1764510646.281153,-0.6103999999999999,3.6624,0.03052,0.421568745,0.79980264,-0.424498425
1764510646.281153,-0.6103999999999999,3.6624,0.03052,0.421568745,0.79980264,-0.424498425
1764510646.281153,-0.6103999999999999,3.6624,0.03052,0.421568745,0.79980264,-0.424498425
1764510646.281153,-0.6103999999999999,3.6624,0.03052,0.421568745,0.79980264,-0.424498425
1764510646.281153,-0.6103999999999999,3.6624,0.03052,0.421568745,0.79980264,-0.424498425
1764510646.281153,-0.6103999999999999,3.6624,0.03052,0.421568745,0.79980264,-0.424498425
1764510646.281153,-0.6103999999999999,3.6624,0.03052,0.421568745,0.79980264,-0.424498425
1764510646.281153,-0.6103999999999999,3.6624,0.03052,0.421568745,0.79980264,-0.424498425
1764510646.281153,-0.6103999999999999,3.6624,0.03052,0.421568745,0.79980264,-0.424498425
1764510646.281153,-1.4039199999999998,3.70818,0.8087799999999999,0.421690815,0.800718165,-0.424498425
1764510646.281153,-1.4039199999999998,3.70818,0.8087799999999999,0.421690815,0.800718165,-0.424498425
1764510646.3254182,-1.4039199999999998,3.70818,0.8087799999999999,0.421690815,0.800718165,-0.424498425
1764510646.3254182,-1.4039199999999998,3.70818,0.8087799999999999,0.421690815,0.800718165,-0.424498425
1764510646.3254182,-1.4039199999999998,3.70818,0.8087799999999999,0.421690815,0.800718165,-0.424498425
1764510646.3254182,-1.4039199999999998,3.70818,0.8087799999999999,0.421690815,0.800718165,-0.424498425
1764510646.3254182,-1.4039199999999998,3.70818,0.8087799999999999,0.421690815,0.800718165,-0.424498425
1764510646.3264368,-1.4039199999999998,3.70818,0.8087799999999999,0.421690815,0.800718165,-0.424498425
1764510646.3264368,-1.4039199999999998,3.70818,0.8087799999999999,0.421690815,0.800718165,-0.424498425
1764510646.3264368,-1.4039199999999998,3.70818,0.8087799999999999,0.421690815,0.800718165,-0.424498425
1764510646.3264368,-1.35814,3.84552,0.57988,0.42224013,0.8007792,-0.424254285
1764510646.3264368,-1.35814,3.84552,0.57988,0.42224013,0.8007792,-0.424254285
1764510646.3264368,-1.35814,3.84552,0.57988,0.42224013,0.8007792,-0.424254285
1764510646.3264368,-1.35814,3.84552,0.57988,0.42224013,0.8007792,-0.424254285
1764510646.3274338,-1.35814,3.84552,0.57988,0.42224013,0.8007792,-0.424254285
1764510646.3274338,-1.35814,3.84552,0.57988,0.42224013,0.8007792,-0.424254285
1764510646.3274338,-1.35814,3.84552,0.57988,0.42224013,0.8007792,-0.424254285
1764510646.3274338,-1.35814,3.84552,0.57988,0.42224013,0.8007792,-0.424254285
1764510646.3274338,-1.35814,3.84552,0.57988,0.42224013,0.8007792,-0.424254285
1764510646.3274338,-1.35814,3.84552,0.57988,0.42224013,0.8007792,-0.424254285
1764510646.3274338,-0.763,3.87604,0.71722,0.422423235,0.800474025,-0.423033585
1764510646.3274338,-0.763,3.87604,0.71722,0.422423235,0.800474025,-0.423033585
1764510646.3284287,-0.763,3.87604,0.71722,0.422423235,0.800474025,-0.423033585
1764510646.3284287,-0.763,3.87604,0.71722,0.422423235,0.800474025,-0.423033585
1764510646.374727,-0.763,3.87604,0.71722,0.422423235,0.800474025,-0.423033585
1764510646.374727,-0.763,3.87604,0.71722,0.422423235,0.800474025,-0.423033585
1764510646.374727,-0.763,3.87604,0.71722,0.422423235,0.800474025,-0.423033585
1764510646.374727,-0.763,3.87604,0.71722,0.422423235,0.800474025,-0.423033585
1764510646.374727,-0.763,3.87604,0.71722,0.422423235,0.800474025,-0.423033585
1764510646.374727,-0.763,3.87604,0.71722,0.422423235,0.800474025,-0.423033585
1764510646.3772533,-0.74774,3.76922,0.56462,0.422301165,0.79980264,-0.42272841
1764510646.3772533,-0.74774,3.76922,0.56462,0.422301165,0.79980264,-0.42272841
1764510646.3772533,-0.74774,3.76922,0.56462,0.422301165,0.79980264,-0.42272841
1764510646.3772533,-0.74774,3.76922,0.56462,0.422301165,0.79980264,-0.42272841
1764510646.3772533,-0.74774,3.76922,0.56462,0.422301165,0.79980264,-0.42272841
1764510646.3772533,-0.74774,3.76922,0.56462,0.422301165,0.79980264,-0.42272841
1764510646.3772533,-0.74774,3.76922,0.56462,0.422301165,0.79980264,-0.42272841
1764510646.3772533,-0.74774,3.76922,0.56462,0.422301165,0.79980264,-0.42272841
1764510646.3772533,-0.74774,3.76922,0.56462,0.422301165,0.79980264,-0.42272841
1764510646.3772533,-0.74774,3.76922,0.56462,0.422301165,0.79980264,-0.42272841
1764510646.3772533,0.06104,3.76922,0.41202,0.42187392,0.79907022,-0.423033585
1764510646.3772533,0.06104,3.76922,0.41202,0.42187392,0.79907022,-0.423033585
1764510646.3772533,0.06104,3.76922,0.41202,0.42187392,0.79907022,-0.423033585
1764510646.3772533,0.06104,3.76922,0.41202,0.42187392,0.79907022,-0.423033585
1764510646.3772533,0.06104,3.76922,0.41202,0.42187392,0.79907022,-0.423033585
1764510646.3772533,0.06104,3.76922,0.41202,0.42187392,0.79907022,-0.423033585
1764510646.3772533,0.06104,3.76922,0.41202,0.42187392,0.79907022,-0.423033585
1764510646.3772533,0.06104,3.76922,0.41202,0.42187392,0.79907022,-0.423033585
1764510646.4199538,0.06104,3.76922,0.41202,0.42187392,0.79907022,-0.423033585
1764510646.4199538,0.06104,3.76922,0.41202,0.42187392,0.79907022,-0.423033585
1764510646.4199538,-0.10682,3.47928,0.6103999999999999,0.4223622,0.79943643,-0.42443739
1764510646.4199538,-0.10682,3.47928,0.6103999999999999,0.4223622,0.79943643,-0.42443739
1764510646.4199538,-0.10682,3.47928,0.6103999999999999,0.4223622,0.79943643,-0.42443739
1764510646.4199538,-0.10682,3.47928,0.6103999999999999,0.4223622,0.79943643,-0.42443739
1764510646.4199538,-0.10682,3.47928,0.6103999999999999,0.4223622,0.79943643,-0.42443739
1764510646.4199538,-0.10682,3.47928,0.6103999999999999,0.4223622,0.79943643,-0.42443739
1764510646.4199538,-0.10682,3.47928,0.6103999999999999,0.4223622,0.79943643,-0.42443739
1764510646.4199538,-0.10682,3.47928,0.6103999999999999,0.4223622,0.79943643,-0.42443739
1764510646.4199538,-0.10682,3.47928,0.6103999999999999,0.4223622,0.79943643,-0.42443739
1764510646.4199538,-0.10682,3.47928,0.6103999999999999,0.4223622,0.79943643,-0.42443739
1764510646.4199538,-0.93086,4.41014,0.3051999999999999,0.42285048,0.80004678,-0.425963265
1764510646.4199538,-0.93086,4.41014,0.3051999999999999,0.42285048,0.80004678,-0.425963265
1764510646.4199538,-0.93086,4.41014,0.3051999999999999,0.42285048,0.80004678,-0.425963265
1764510646.4199538,-0.93086,4.41014,0.3051999999999999,0.42285048,0.80004678,-0.425963265
1764510646.4199538,-0.93086,4.41014,0.3051999999999999,0.42285048,0.80004678,-0.425963265
1764510646.4199538,-0.93086,4.41014,0.3051999999999999,0.42285048,0.80004678,-0.425963265
1764510646.4199538,-0.93086,4.41014,0.3051999999999999,0.42285048,0.80004678,-0.425963265
1764510646.4199538,-0.93086,4.41014,0.3051999999999999,0.42285048,0.80004678,-0.425963265
1764510646.4199538,-0.93086,4.41014,0.3051999999999999,0.42285048,0.80004678,-0.425963265
1764510646.4199538,-0.93086,4.41014,0.3051999999999999,0.42285048,0.80004678,-0.425963265
1764510646.4199538,-1.0682,3.87604,0.44254,0.42101943,0.799619535,-0.42504774
1764510646.4199538,-1.0682,3.87604,0.44254,0.42101943,0.799619535,-0.42504774
1764510646.4671326,-1.0682,3.87604,0.44254,0.42101943,0.799619535,-0.42504774
1764510646.467644,-1.0682,3.87604,0.44254,0.42101943,0.799619535,-0.42504774
1764510646.467644,-1.0682,3.87604,0.44254,0.42101943,0.799619535,-0.42504774
1764510646.467644,-1.0682,3.87604,0.44254,0.42101943,0.799619535,-0.42504774
1764510646.467644,-1.0682,3.87604,0.44254,0.42101943,0.799619535,-0.42504774
1764510646.467644,-1.0682,3.87604,0.44254,0.42101943,0.799619535,-0.42504774
1764510646.467644,-1.0682,3.87604,0.44254,0.42101943,0.799619535,-0.42504774
1764510646.467644,-1.0682,3.87604,0.44254,0.42101943,0.799619535,-0.42504774
1764510646.467644,-1.17502,3.02148,0.82404,0.419493555,0.800107815,-0.42516981
1764510646.467644,-1.17502,3.02148,0.82404,0.419493555,0.800107815,-0.42516981
1764510646.467644,-1.17502,3.02148,0.82404,0.419493555,0.800107815,-0.42516981
1764510646.467644,-1.17502,3.02148,0.82404,0.419493555,0.800107815,-0.42516981
1764510646.467644,-1.17502,3.02148,0.82404,0.419493555,0.800107815,-0.42516981
1764510646.467644,-1.17502,3.02148,0.82404,0.419493555,0.800107815,-0.42516981
1764510646.467644,-1.17502,3.02148,0.82404,0.419493555,0.800107815,-0.42516981
1764510646.467644,-1.17502,3.02148,0.82404,0.419493555,0.800107815,-0.42516981
1764510646.467644,-1.17502,3.02148,0.82404,0.419493555,0.800107815,-0.42516981
1764510646.467644,-1.17502,3.02148,0.82404,0.419493555,0.800107815,-0.42516981
1764510646.467644,-1.26658,3.69292,0.8087799999999999,0.421812885,0.8011454100000001,-0.42321669
1764510646.467644,-1.26658,3.69292,0.8087799999999999,0.421812885,0.8011454100000001,-0.42321669
1764510646.467644,-1.26658,3.69292,0.8087799999999999,0.421812885,0.8011454100000001,-0.42321669
1764510646.467644,-1.26658,3.69292,0.8087799999999999,0.421812885,0.8011454100000001,-0.42321669
1764510646.467644,-1.26658,3.69292,0.8087799999999999,0.421812885,0.8011454100000001,-0.42321669
1764510646.467644,-1.26658,3.69292,0.8087799999999999,0.421812885,0.8011454100000001,-0.42321669
1764510646.5161788,-1.26658,3.69292,0.8087799999999999,0.421812885,0.8011454100000001,-0.42321669
1764510646.5161788,-1.26658,3.69292,0.8087799999999999,0.421812885,0.8011454100000001,-0.42321669
1764510646.5161788,-1.26658,3.69292,0.8087799999999999,0.421812885,0.8011454100000001,-0.42321669
1764510646.5161788,-1.26658,3.69292,0.8087799999999999,0.421812885,0.8011454100000001,-0.42321669
1764510646.5161788,-0.59514,3.55558,0.27468,0.422789445,0.7990091850000001,-0.421812885
1764510646.5161788,-0.59514,3.55558,0.27468,0.422789445,0.7990091850000001,-0.421812885
1764510646.517202,-0.59514,3.55558,0.27468,0.422789445,0.7990091850000001,-0.421812885
1764510646.517202,-0.59514,3.55558,0.27468,0.422789445,0.7990091850000001,-0.421812885
1764510646.517202,-0.59514,3.55558,0.27468,0.422789445,0.7990091850000001,-0.421812885
1764510646.517202,-0.59514,3.55558,0.27468,0.422789445,0.7990091850000001,-0.421812885
1764510646.517202,-0.59514,3.55558,0.27468,0.422789445,0.7990091850000001,-0.421812885
1764510646.517202,-0.59514,3.55558,0.27468,0.422789445,0.7990091850000001,-0.421812885
1764510646.517202,-0.59514,3.55558,0.27468,0.422789445,0.7990091850000001,-0.421812885
1764510646.517202,-0.59514,3.55558,0.27468,0.422789445,0.7990091850000001,-0.421812885
1764510646.517202,1.4039199999999998,3.72344,0.9919,0.42187392,0.7969339950000001,-0.42260634
1764510646.517202,1.4039199999999998,3.72344,0.9919,0.42187392,0.7969339950000001,-0.42260634
1764510646.517202,1.4039199999999998,3.72344,0.9919,0.42187392,0.7969339950000001,-0.42260634
1764510646.517202,1.4039199999999998,3.72344,0.9919,0.42187392,0.7969339950000001,-0.42260634
1764510646.517202,1.4039199999999998,3.72344,0.9919,0.42187392,0.7969339950000001,-0.42260634
1764510646.517202,1.4039199999999998,3.72344,0.9919,0.42187392,0.7969339950000001,-0.42260634
1764510646.517202,1.4039199999999998,3.72344,0.9919,0.42187392,0.7969339950000001,-0.42260634
1764510646.517202,1.4039199999999998,3.72344,0.9919,0.42187392,0.7969339950000001,-0.42260634
1764510646.517202,1.4039199999999998,3.72344,0.9919,0.42187392,0.7969339950000001,-0.42260634
1764510646.517202,1.4039199999999998,3.72344,0.9919,0.42187392,0.7969339950000001,-0.42260634
1764510646.5645912,0.8087799999999999,3.76922,0.21364,0.42346083,0.79809366,-0.424986705
1764510646.5645912,0.8087799999999999,3.76922,0.21364,0.42346083,0.79809366,-0.424986705
1764510646.5645912,0.8087799999999999,3.76922,0.21364,0.42346083,0.79809366,-0.424986705
1764510646.5645912,0.8087799999999999,3.76922,0.21364,0.42346083,0.79809366,-0.424986705
1764510646.5645912,0.8087799999999999,3.76922,0.21364,0.42346083,0.79809366,-0.424986705
1764510646.565785,0.8087799999999999,3.76922,0.21364,0.42346083,0.79809366,-0.424986705
1764510646.565785,0.8087799999999999,3.76922,0.21364,0.42346083,0.79809366,-0.424986705
1764510646.565785,0.8087799999999999,3.76922,0.21364,0.42346083,0.79809366,-0.424986705
1764510646.565785,0.8087799999999999,3.76922,0.21364,0.42346083,0.79809366,-0.424986705
1764510646.565785,0.8087799999999999,3.76922,0.21364,0.42346083,0.79809366,-0.424986705
1764510646.565785,-1.9838,4.37962,-0.04578,0.422423235,0.800840235,-0.42687879
1764510646.565785,-1.9838,4.37962,-0.04578,0.422423235,0.800840235,-0.42687879
1764510646.565785,-1.9838,4.37962,-0.04578,0.422423235,0.800840235,-0.42687879
1764510646.565785,-1.9838,4.37962,-0.04578,0.422423235,0.800840235,-0.42687879
1764510646.565785,-1.9838,4.37962,-0.04578,0.422423235,0.800840235,-0.42687879
1764510646.565785,-1.9838,4.37962,-0.04578,0.422423235,0.800840235,-0.42687879
1764510646.565785,-1.9838,4.37962,-0.04578,0.422423235,0.800840235,-0.42687879
1764510646.565785,-1.9838,4.37962,-0.04578,0.422423235,0.800840235,-0.42687879
1764510646.565785,-1.9838,4.37962,-0.04578,0.422423235,0.800840235,-0.42687879
1764510646.565785,-1.9838,4.37962,-0.04578,0.422423235,0.800840235,-0.42687879
1764510646.565785,-3.49454,3.44876,0.85456,0.419127345,0.801084375,-0.42590223
1764510646.565785,-3.49454,3.44876,0.85456,0.419127345,0.801084375,-0.42590223
1764510646.565785,-3.49454,3.44876,0.85456,0.419127345,0.801084375,-0.42590223
1764510646.565785,-3.49454,3.44876,0.85456,0.419127345,0.801084375,-0.42590223
1764510646.6108544,-3.49454,3.44876,0.85456,0.419127345,0.801084375,-0.42590223
1764510646.6108544,-3.49454,3.44876,0.85456,0.419127345,0.801084375,-0.42590223
1764510646.6108544,-3.49454,3.44876,0.85456,0.419127345,0.801084375,-0.42590223
1764510646.6108544,-3.49454,3.44876,0.85456,0.419127345,0.801084375,-0.42590223
1764510646.6108544,-3.49454,3.44876,0.85456,0.419127345,0.801084375,-0.42590223
1764510646.6108544,-3.49454,3.44876,0.85456,0.419127345,0.801084375,-0.42590223
1764510646.6108544,-2.30426,3.2046,1.23606,0.41906631,0.798642975,-0.424254285
1764510646.6108544,-2.30426,3.2046,1.23606,0.41906631,0.798642975,-0.424254285
1764510646.6108544,-2.30426,3.2046,1.23606,0.41906631,0.798642975,-0.424254285
1764510646.6108544,-2.30426,3.2046,1.23606,0.41906631,0.798642975,-0.424254285
1764510646.6108544,-2.30426,3.2046,1.23606,0.41906631,0.798642975,-0.424254285
1764510646.6118398,-2.30426,3.2046,1.23606,0.41906631,0.798642975,-0.424254285
1764510646.6118398,-2.30426,3.2046,1.23606,0.41906631,0.798642975,-0.424254285
1764510646.6118398,-2.30426,3.2046,1.23606,0.41906631,0.798642975,-0.424254285
1764510646.6118398,-2.30426,3.2046,1.23606,0.41906631,0.798642975,-0.424254285
1764510646.6118398,-2.30426,3.2046,1.23606,0.41906631,0.798642975,-0.424254285
1764510646.6118398,-0.4578,4.21176,0.51884,0.422667375,0.79650675,-0.423033585
1764510646.6118398,-0.4578,4.21176,0.51884,0.422667375,0.79650675,-0.423033585
1764510646.6118398,-0.4578,4.21176,0.51884,0.422667375,0.79650675,-0.423033585
1764510646.6118398,-0.4578,4.21176,0.51884,0.422667375,0.79650675,-0.423033585
1764510646.6118398,-0.4578,4.21176,0.51884,0.422667375,0.79650675,-0.423033585
1764510646.6118398,-0.4578,4.21176,0.51884,0.422667375,0.79650675,-0.423033585
1764510646.6118398,-0.4578,4.21176,0.51884,0.422667375,0.79650675,-0.423033585
1764510646.6118398,-0.4578,4.21176,0.51884,0.422667375,0.79650675,-0.423033585
1764510646.656229,-0.4578,4.21176,0.51884,0.422667375,0.79650675,-0.423033585
1764510646.656229,-0.4578,4.21176,0.51884,0.422667375,0.79650675,-0.423033585
1764510646.656229,1.31236,4.18124,-0.04578,0.42382704,0.7974833100000001,-0.422545305
1764510646.656229,1.31236,4.18124,-0.04578,0.42382704,0.7974833100000001,-0.422545305
1764510646.656229,1.31236,4.18124,-0.04578,0.42382704,0.7974833100000001,-0.422545305
1764510646.656229,1.31236,4.18124,-0.04578,0.42382704,0.7974833100000001,-0.422545305
1764510646.656229,1.31236,4.18124,-0.04578,0.42382704,0.7974833100000001,-0.422545305
1764510646.656229,1.31236,4.18124,-0.04578,0.42382704,0.7974833100000001,-0.422545305
1764510646.656229,1.31236,4.18124,-0.04578,0.42382704,0.7974833100000001,-0.422545305
1764510646.656229,1.31236,4.18124,-0.04578,0.42382704,0.7974833100000001,-0.422545305
1764510646.656229,1.31236,4.18124,-0.04578,0.42382704,0.7974833100000001,-0.422545305
1764510646.656229,1.31236,4.18124,-0.04578,0.42382704,0.7974833100000001,-0.422545305
1764510646.656229,0.3815,4.21176,0.03052,0.42224013,0.7995585000000001,-0.423888075
1764510646.656229,0.3815,4.21176,0.03052,0.42224013,0.7995585000000001,-0.423888075
1764510646.6577451,0.3815,4.21176,0.03052,0.42224013,0.7995585000000001,-0.423888075
1764510646.6577451,0.3815,4.21176,0.03052,0.42224013,0.7995585000000001,-0.423888075
1764510646.6587906,0.3815,4.21176,0.03052,0.42224013,0.7995585000000001,-0.423888075
1764510646.6587906,0.3815,4.21176,0.03052,0.42224013,0.7995585000000001,-0.423888075
1764510646.6587906,0.3815,4.21176,0.03052,0.42224013,0.7995585000000001,-0.423888075
1764510646.6587906,0.3815,4.21176,0.03052,0.42224013,0.7995585000000001,-0.423888075
1764510646.6587906,0.3815,4.21176,0.03052,0.42224013,0.7995585000000001,-0.423888075
1764510646.6587906,0.3815,4.21176,0.03052,0.42224013,0.7995585000000001,-0.423888075
1764510646.7034378,-0.3051999999999999,3.14356,0.47306,0.42040908,0.8011454100000001,-0.424864635
1764510646.7034378,-0.3051999999999999,3.14356,0.47306,0.42040908,0.8011454100000001,-0.424864635
1764510646.7034378,-0.3051999999999999,3.14356,0.47306,0.42040908,0.8011454100000001,-0.424864635
1764510646.7034378,-0.3051999999999999,3.14356,0.47306,0.42040908,0.8011454100000001,-0.424864635
1764510646.7034378,-0.3051999999999999,3.14356,0.47306,0.42040908,0.8011454100000001,-0.424864635
1764510646.7034378,-0.3051999999999999,3.14356,0.47306,0.42040908,0.8011454100000001,-0.424864635
1764510646.7034378,-0.3051999999999999,3.14356,0.47306,0.42040908,0.8011454100000001,-0.424864635
1764510646.7044358,-0.3051999999999999,3.14356,0.47306,0.42040908,0.8011454100000001,-0.424864635
1764510646.7044358,-0.3051999999999999,3.14356,0.47306,0.42040908,0.8011454100000001,-0.424864635
1764510646.7044358,-0.3051999999999999,3.14356,0.47306,0.42040908,0.8011454100000001,-0.424864635
1764510646.7044358,-1.17502,3.76922,0.65618,0.42053115,0.80053506,-0.42407118
1764510646.7044358,-1.17502,3.76922,0.65618,0.42053115,0.80053506,-0.42407118
1764510646.7044358,-1.17502,3.76922,0.65618,0.42053115,0.80053506,-0.42407118
1764510646.7044358,-1.17502,3.76922,0.65618,0.42053115,0.80053506,-0.42407118
1764510646.7044358,-1.17502,3.76922,0.65618,0.42053115,0.80053506,-0.42407118
1764510646.7044358,-1.17502,3.76922,0.65618,0.42053115,0.80053506,-0.42407118
1764510646.7044358,-1.17502,3.76922,0.65618,0.42053115,0.80053506,-0.42407118
1764510646.7056158,-1.17502,3.76922,0.65618,0.42053115,0.80053506,-0.42407118
1764510646.7056158,-1.17502,3.76922,0.65618,0.42053115,0.80053506,-0.42407118
1764510646.7056158,-1.17502,3.76922,0.65618,0.42053115,0.80053506,-0.42407118
1764510646.7056158,-0.8087799999999999,3.4335,0.6714399999999999,0.4211415,0.799131255,-0.42346083
1764510646.7056158,-0.8087799999999999,3.4335,0.6714399999999999,0.4211415,0.799131255,-0.42346083
1764510646.748239,-0.8087799999999999,3.4335,0.6714399999999999,0.4211415,0.799131255,-0.42346083
1764510646.749252,-0.8087799999999999,3.4335,0.6714399999999999,0.4211415,0.799131255,-0.42346083
1764510646.749252,-0.8087799999999999,3.4335,0.6714399999999999,0.4211415,0.799131255,-0.42346083
1764510646.749252,-0.8087799999999999,3.4335,0.6714399999999999,0.4211415,0.799131255,-0.42346083
1764510646.749252,-0.8087799999999999,3.4335,0.6714399999999999,0.4211415,0.799131255,-0.42346083
1764510646.749252,-0.8087799999999999,3.4335,0.6714399999999999,0.4211415,0.799131255,-0.42346083
1764510646.749252,-0.8087799999999999,3.4335,0.6714399999999999,0.4211415,0.799131255,-0.42346083
1764510646.749252,-0.8087799999999999,3.4335,0.6714399999999999,0.4211415,0.799131255,-0.42346083
1764510646.749252,-0.85456,4.10494,0.74774,0.423033585,0.80016885,-0.424620495
1764510646.749252,-0.85456,4.10494,0.74774,0.423033585,0.80016885,-0.424620495
1764510646.749252,-0.85456,4.10494,0.74774,0.423033585,0.80016885,-0.424620495
1764510646.749252,-0.85456,4.10494,0.74774,0.423033585,0.80016885,-0.424620495
1764510646.749252,-0.85456,4.10494,0.74774,0.423033585,0.80016885,-0.424620495
1764510646.749252,-0.85456,4.10494,0.74774,0.423033585,0.80016885,-0.424620495
1764510646.7502494,-0.85456,4.10494,0.74774,0.423033585,0.80016885,-0.424620495
1764510646.7502494,-0.85456,4.10494,0.74774,0.423033585,0.80016885,-0.424620495
1764510646.7502494,-0.85456,4.10494,0.74774,0.423033585,0.80016885,-0.424620495
1764510646.7502494,-0.85456,4.10494,0.74774,0.423033585,0.80016885,-0.424620495
1764510646.751252,-1.41918,3.63188,0.51884,0.422179095,0.800229885,-0.42346083
1764510646.751252,-1.41918,3.63188,0.51884,0.422179095,0.800229885,-0.42346083
1764510646.751252,-1.41918,3.63188,0.51884,0.422179095,0.800229885,-0.42346083
1764510646.751252,-1.41918,3.63188,0.51884,0.422179095,0.800229885,-0.42346083
1764510646.751252,-1.41918,3.63188,0.51884,0.422179095,0.800229885,-0.42346083
1764510646.751252,-1.41918,3.63188,0.51884,0.422179095,0.800229885,-0.42346083
1764510646.7981863,-1.41918,3.63188,0.51884,0.422179095,0.800229885,-0.42346083
1764510646.7981863,-1.41918,3.63188,0.51884,0.422179095,0.800229885,-0.42346083
1764510646.7981863,-1.41918,3.63188,0.51884,0.422179095,0.800229885,-0.42346083
1764510646.7981863,-1.41918,3.63188,0.51884,0.422179095,0.800229885,-0.42346083
1764510646.7981863,-0.25942,3.09778,0.8087799999999999,0.42101943,0.79858194,-0.4235829
1764510646.7981863,-0.25942,3.09778,0.8087799999999999,0.42101943,0.79858194,-0.4235829
1764510646.7981863,-0.25942,3.09778,0.8087799999999999,0.42101943,0.79858194,-0.4235829
1764510646.7981863,-0.25942,3.09778,0.8087799999999999,0.42101943,0.79858194,-0.4235829
1764510646.7981863,-0.25942,3.09778,0.8087799999999999,0.42101943,0.79858194,-0.4235829
1764510646.7981863,-0.25942,3.09778,0.8087799999999999,0.42101943,0.79858194,-0.4235829
1764510646.7981863,-0.25942,3.09778,0.8087799999999999,0.42101943,0.79858194,-0.4235829
1764510646.7981863,-0.25942,3.09778,0.8087799999999999,0.42101943,0.79858194,-0.4235829
1764510646.7981863,-0.25942,3.09778,0.8087799999999999,0.42101943,0.79858194,-0.4235829
1764510646.7981863,-0.25942,3.09778,0.8087799999999999,0.42101943,0.79858194,-0.4235829
1764510646.7981863,0.56462,3.98286,0.82404,0.42187392,0.799619535,-0.424498425
1764510646.7981863,0.56462,3.98286,0.82404,0.42187392,0.799619535,-0.424498425
1764510646.7981863,0.56462,3.98286,0.82404,0.42187392,0.799619535,-0.424498425
1764510646.7992003,0.56462,3.98286,0.82404,0.42187392,0.799619535,-0.424498425
1764510646.7992003,0.56462,3.98286,0.82404,0.42187392,0.799619535,-0.424498425
1764510646.7992003,0.56462,3.98286,0.82404,0.42187392,0.799619535,-0.424498425
1764510646.7992003,0.56462,3.98286,0.82404,0.42187392,0.799619535,-0.424498425
1764510646.7992003,0.56462,3.98286,0.82404,0.42187392,0.799619535,-0.424498425
1764510646.7992003,0.56462,3.98286,0.82404,0.42187392,0.799619535,-0.424498425
1764510646.7992003,0.56462,3.98286,0.82404,0.42187392,0.799619535,-0.424498425
1764510646.841242,-0.47306,4.51696,0.28994,0.42309462,0.802549215,-0.425719125
1764510646.841242,-0.47306,4.51696,0.28994,0.42309462,0.802549215,-0.425719125
1764510646.841242,-0.47306,4.51696,0.28994,0.42309462,0.802549215,-0.425719125
1764510646.842245,-0.47306,4.51696,0.28994,0.42309462,0.802549215,-0.425719125
1764510646.842245,-0.47306,4.51696,0.28994,0.42309462,0.802549215,-0.425719125
1764510646.842245,-0.47306,4.51696,0.28994,0.42309462,0.802549215,-0.425719125
1764510646.842245,-0.47306,4.51696,0.28994,0.42309462,0.802549215,-0.425719125
1764510646.842245,-0.47306,4.51696,0.28994,0.42309462,0.802549215,-0.425719125
1764510646.842245,-0.47306,4.51696,0.28994,0.42309462,0.802549215,-0.425719125
1764510646.842245,-0.47306,4.51696,0.28994,0.42309462,0.802549215,-0.425719125
1764510646.842245,-1.4039199999999998,4.02864,0.1678599999999999,0.421568745,0.80297646,-0.42553602
1764510646.842245,-1.4039199999999998,4.02864,0.1678599999999999,0.421568745,0.80297646,-0.42553602
1764510646.842245,-1.4039199999999998,4.02864,0.1678599999999999,0.421568745,0.80297646,-0.42553602
1764510646.842245,-1.4039199999999998,4.02864,0.1678599999999999,0.421568745,0.80297646,-0.42553602
1764510646.843758,-1.4039199999999998,4.02864,0.1678599999999999,0.421568745,0.80297646,-0.42553602
1764510646.843758,-1.4039199999999998,4.02864,0.1678599999999999,0.421568745,0.80297646,-0.42553602
1764510646.843758,-1.4039199999999998,4.02864,0.1678599999999999,0.421568745,0.80297646,-0.42553602
1764510646.843758,-1.4039199999999998,4.02864,0.1678599999999999,0.421568745,0.80297646,-0.42553602
1764510646.843758,-1.4039199999999998,4.02864,0.1678599999999999,0.421568745,0.80297646,-0.42553602
1764510646.8447733,-1.4039199999999998,4.02864,0.1678599999999999,0.421568745,0.80297646,-0.42553602
1764510646.8447733,-1.96854,3.55558,0.9003399999999999,0.41894424,0.8007792,-0.424986705
1764510646.8447733,-1.96854,3.55558,0.9003399999999999,0.41894424,0.8007792,-0.424986705
1764510646.8911898,-1.96854,3.55558,0.9003399999999999,0.41894424,0.8007792,-0.424986705
1764510646.8911898,-1.96854,3.55558,0.9003399999999999,0.41894424,0.8007792,-0.424986705
1764510646.8911898,-1.96854,3.55558,0.9003399999999999,0.41894424,0.8007792,-0.424986705
1764510646.8911898,-1.96854,3.55558,0.9003399999999999,0.41894424,0.8007792,-0.424986705
1764510646.8911898,-1.96854,3.55558,0.9003399999999999,0.41894424,0.8007792,-0.424986705
1764510646.8911898,-1.96854,3.55558,0.9003399999999999,0.41894424,0.8007792,-0.424986705
1764510646.8911898,-1.96854,3.55558,0.9003399999999999,0.41894424,0.8007792,-0.424986705
1764510646.8911898,-1.96854,3.55558,0.9003399999999999,0.41894424,0.8007792,-0.424986705
1764510646.8911898,-0.9003399999999999,3.55558,1.28184,0.41955459,0.797300205,-0.423399795
1764510646.8911898,-0.9003399999999999,3.55558,1.28184,0.41955459,0.797300205,-0.423399795
1764510646.8911898,-0.9003399999999999,3.55558,1.28184,0.41955459,0.797300205,-0.423399795
1764510646.8911898,-0.9003399999999999,3.55558,1.28184,0.41955459,0.797300205,-0.423399795
1764510646.892737,-0.9003399999999999,3.55558,1.28184,0.41955459,0.797300205,-0.423399795
1764510646.892737,-0.9003399999999999,3.55558,1.28184,0.41955459,0.797300205,-0.423399795
1764510646.892737,-0.9003399999999999,3.55558,1.28184,0.41955459,0.797300205,-0.423399795
1764510646.892737,-0.9003399999999999,3.55558,1.28184,0.41955459,0.797300205,-0.423399795
1764510646.892737,-0.9003399999999999,3.55558,1.28184,0.41955459,0.797300205,-0.423399795
1764510646.892737,-0.9003399999999999,3.55558,1.28184,0.41955459,0.797300205,-0.423399795
1764510646.892737,-0.04578,3.64714,0.74774,0.422545305,0.7969339950000001,-0.422423235
1764510646.892737,-0.04578,3.64714,0.74774,0.422545305,0.7969339950000001,-0.422423235
1764510646.892737,-0.04578,3.64714,0.74774,0.422545305,0.7969339950000001,-0.422423235
1764510646.892737,-0.04578,3.64714,0.74774,0.422545305,0.7969339950000001,-0.422423235
1764510646.892737,-0.04578,3.64714,0.74774,0.422545305,0.7969339950000001,-0.422423235
1764510646.892737,-0.04578,3.64714,0.74774,0.422545305,0.7969339950000001,-0.422423235
1764510646.9388676,-0.04578,3.64714,0.74774,0.422545305,0.7969339950000001,-0.422423235
1764510646.9388676,-0.04578,3.64714,0.74774,0.422545305,0.7969339950000001,-0.422423235
1764510646.9388676,-0.04578,3.64714,0.74774,0.422545305,0.7969339950000001,-0.422423235
1764510646.9388676,-0.04578,3.64714,0.74774,0.422545305,0.7969339950000001,-0.422423235
1764510646.9388676,0.5341,3.99812,0.06104,0.423643935,0.798887115,-0.42224013
1764510646.9388676,0.5341,3.99812,0.06104,0.423643935,0.798887115,-0.42224013
1764510646.9388676,0.5341,3.99812,0.06104,0.423643935,0.798887115,-0.42224013
1764510646.9388676,0.5341,3.99812,0.06104,0.423643935,0.798887115,-0.42224013
1764510646.9388676,0.5341,3.99812,0.06104,0.423643935,0.798887115,-0.42224013
1764510646.9388676,0.5341,3.99812,0.06104,0.423643935,0.798887115,-0.42224013
1764510646.9388676,0.5341,3.99812,0.06104,0.423643935,0.798887115,-0.42224013
1764510646.9388676,0.5341,3.99812,0.06104,0.423643935,0.798887115,-0.42224013
1764510646.9388676,0.5341,3.99812,0.06104,0.423643935,0.798887115,-0.42224013
1764510646.9388676,0.5341,3.99812,0.06104,0.423643935,0.798887115,-0.42224013
1764510646.9388676,-0.28994,3.34194,0.27468,0.423155655,0.799741605,-0.42370497
1764510646.9388676,-0.28994,3.34194,0.27468,0.423155655,0.799741605,-0.42370497
1764510646.9388676,-0.28994,3.34194,0.27468,0.423155655,0.799741605,-0.42370497
1764510646.9388676,-0.28994,3.34194,0.27468,0.423155655,0.799741605,-0.42370497
1764510646.9388676,-0.28994,3.34194,0.27468,0.423155655,0.799741605,-0.42370497
1764510646.9388676,-0.28994,3.34194,0.27468,0.423155655,0.799741605,-0.42370497
1764510646.9388676,-0.28994,3.34194,0.27468,0.423155655,0.799741605,-0.42370497
1764510646.9388676,-0.28994,3.34194,0.27468,0.423155655,0.799741605,-0.42370497
1764510646.9388676,-0.28994,3.34194,0.27468,0.423155655,0.799741605,-0.42370497
1764510646.9388676,-0.28994,3.34194,0.27468,0.423155655,0.799741605,-0.42370497
1764510646.9388676,-0.41202,3.34194,0.24416,0.42272841,0.8005960950000001,-0.4248036
1764510646.9388676,-0.41202,3.34194,0.24416,0.42272841,0.8005960950000001,-0.4248036
1764510646.9855692,-0.41202,3.34194,0.24416,0.42272841,0.8005960950000001,-0.4248036
1764510646.9865837,-0.41202,3.34194,0.24416,0.42272841,0.8005960950000001,-0.4248036
1764510646.9865837,-0.41202,3.34194,0.24416,0.42272841,0.8005960950000001,-0.4248036
1764510646.9865837,-0.41202,3.34194,0.24416,0.42272841,0.8005960950000001,-0.4248036
1764510646.9865837,-0.41202,3.34194,0.24416,0.42272841,0.8005960950000001,-0.4248036
1764510646.9874475,-0.41202,3.34194,0.24416,0.42272841,0.8005960950000001,-0.4248036
1764510646.9874475,-0.41202,3.34194,0.24416,0.42272841,0.8005960950000001,-0.4248036
1764510646.9874475,-0.41202,3.34194,0.24416,0.42272841,0.8005960950000001,-0.4248036
1764510646.9874475,-1.00716,3.5861,0.56462,0.42260634,0.800229885,-0.42492567
1764510646.9874475,-1.00716,3.5861,0.56462,0.42260634,0.800229885,-0.42492567
1764510646.9874475,-1.00716,3.5861,0.56462,0.42260634,0.800229885,-0.42492567
1764510646.9874475,-1.00716,3.5861,0.56462,0.42260634,0.800229885,-0.42492567
1764510646.9884627,-1.00716,3.5861,0.56462,0.42260634,0.800229885,-0.42492567
1764510646.9884627,-1.00716,3.5861,0.56462,0.42260634,0.800229885,-0.42492567
1764510646.9884627,-1.00716,3.5861,0.56462,0.42260634,0.800229885,-0.42492567
1764510646.9884627,-1.00716,3.5861,0.56462,0.42260634,0.800229885,-0.42492567
1764510646.9884627,-1.00716,3.5861,0.56462,0.42260634,0.800229885,-0.42492567
1764510646.9884627,-1.00716,3.5861,0.56462,0.42260634,0.800229885,-0.42492567
1764510646.9884627,-1.6633399999999998,3.8913,0.85456,0.422301165,0.80090127,-0.424986705
1764510646.9884627,-1.6633399999999998,3.8913,0.85456,0.422301165,0.80090127,-0.424986705
1764510646.9884627,-1.6633399999999998,3.8913,0.85456,0.422301165,0.80090127,-0.424986705
1764510646.9884627,-1.6633399999999998,3.8913,0.85456,0.422301165,0.80090127,-0.424986705
1764510647.0336993,-1.6633399999999998,3.8913,0.85456,0.422301165,0.80090127,-0.424986705
1764510647.0336993,-1.6633399999999998,3.8913,0.85456,0.422301165,0.80090127,-0.424986705
1764510647.0336993,-1.6633399999999998,3.8913,0.85456,0.422301165,0.80090127,-0.424986705
1764510647.0336993,-1.6633399999999998,3.8913,0.85456,0.422301165,0.80090127,-0.424986705
1764510647.0336993,-1.6633399999999998,3.8913,0.85456,0.422301165,0.80090127,-0.424986705
1764510647.0336993,-1.6633399999999998,3.8913,0.85456,0.422301165,0.80090127,-0.424986705
1764510647.0336993,-1.64808,3.78448,0.3357199999999999,0.422179095,0.79992471,-0.42419325
1764510647.0336993,-1.64808,3.78448,0.3357199999999999,0.422179095,0.79992471,-0.42419325
1764510647.0336993,-1.64808,3.78448,0.3357199999999999,0.422179095,0.79992471,-0.42419325
1764510647.0336993,-1.64808,3.78448,0.3357199999999999,0.422179095,0.79992471,-0.42419325
1764510647.0336993,-1.64808,3.78448,0.3357199999999999,0.422179095,0.79992471,-0.42419325
1764510647.0336993,-1.64808,3.78448,0.3357199999999999,0.422179095,0.79992471,-0.42419325
1764510647.0336993,-1.64808,3.78448,0.3357199999999999,0.422179095,0.79992471,-0.42419325
1764510647.0336993,-1.64808,3.78448,0.3357199999999999,0.422179095,0.79992471,-0.42419325
1764510647.0336993,-1.64808,3.78448,0.3357199999999999,0.422179095,0.79992471,-0.42419325
1764510647.0336993,-1.64808,3.78448,0.3357199999999999,0.422179095,0.79992471,-0.42419325
1764510647.0336993,-1.2208,3.92182,0.85456,0.42260634,0.79907022,-0.42394911
1764510647.0336993,-1.2208,3.92182,0.85456,0.42260634,0.79907022,-0.42394911
1764510647.0336993,-1.2208,3.92182,0.85456,0.42260634,0.79907022,-0.42394911
1764510647.0336993,-1.2208,3.92182,0.85456,0.42260634,0.79907022,-0.42394911
1764510647.0336993,-1.2208,3.92182,0.85456,0.42260634,0.79907022,-0.42394911
1764510647.0336993,-1.2208,3.92182,0.85456,0.42260634,0.79907022,-0.42394911
1764510647.077273,-1.2208,3.92182,0.85456,0.42260634,0.79907022,-0.42394911
1764510647.077273,-1.2208,3.92182,0.85456,0.42260634,0.79907022,-0.42394911
1764510647.077273,-1.2208,3.92182,0.85456,0.42260634,0.79907022,-0.42394911
1764510647.077273,-1.2208,3.92182,0.85456,0.42260634,0.79907022,-0.42394911
1764510647.077273,-0.03052,0.0,0.763,0.423155655,0.798154695,-0.423033585
1764510647.077273,-0.03052,0.0,0.763,0.423155655,0.798154695,-0.423033585
1764510647.077273,-0.03052,0.0,0.763,0.423155655,0.798154695,-0.423033585
1764510647.077273,-0.03052,0.0,0.763,0.423155655,0.798154695,-0.423033585
1764510647.077273,-0.03052,0.0,0.763,0.423155655,0.798154695,-0.423033585
1764510647.077273,-0.03052,0.0,0.763,0.423155655,0.798154695,-0.423033585
1764510647.077273,-0.03052,0.0,0.763,0.423155655,0.798154695,-0.423033585
1764510647.077273,-0.03052,0.0,0.763,0.423155655,0.798154695,-0.423033585
1764510647.077273,-0.03052,0.0,0.763,0.423155655,0.798154695,-0.423033585
1764510647.077273,-0.03052,0.0,0.763,0.423155655,0.798154695,-0.423033585
1764510647.0793395,0.57988,3.98286,0.3204599999999999,0.42272841,0.797910555,-0.423399795
1764510647.0797322,0.57988,3.98286,0.3204599999999999,0.42272841,0.797910555,-0.423399795
1764510647.0797322,0.57988,3.98286,0.3204599999999999,0.42272841,0.797910555,-0.423399795
1764510647.0797322,0.57988,3.98286,0.3204599999999999,0.42272841,0.797910555,-0.423399795
1764510647.0797322,0.57988,3.98286,0.3204599999999999,0.42272841,0.797910555,-0.423399795
1764510647.0797322,0.57988,3.98286,0.3204599999999999,0.42272841,0.797910555,-0.423399795
1764510647.0803,0.57988,3.98286,0.3204599999999999,0.42272841,0.797910555,-0.423399795
1764510647.0803,0.57988,3.98286,0.3204599999999999,0.42272841,0.797910555,-0.423399795
1764510647.0803,0.57988,3.98286,0.3204599999999999,0.42272841,0.797910555,-0.423399795
1764510647.0803,0.57988,3.98286,0.3204599999999999,0.42272841,0.797910555,-0.423399795
1764510647.124614,0.3204599999999999,3.78448,0.36624,0.42211806,0.79894815,-0.423888075
1764510647.124614,0.3204599999999999,3.78448,0.36624,0.42211806,0.79894815,-0.423888075
1764510647.124614,0.3204599999999999,3.78448,0.36624,0.42211806,0.79894815,-0.423888075
1764510647.124614,0.3204599999999999,3.78448,0.36624,0.42211806,0.79894815,-0.423888075
1764510647.124614,0.3204599999999999,3.78448,0.36624,0.42211806,0.79894815,-0.423888075
1764510647.124614,0.3204599999999999,3.78448,0.36624,0.42211806,0.79894815,-0.423888075
1764510647.124614,0.3204599999999999,3.78448,0.36624,0.42211806,0.79894815,-0.423888075
1764510647.124614,0.3204599999999999,3.78448,0.36624,0.42211806,0.79894815,-0.423888075
1764510647.124614,0.3204599999999999,3.78448,0.36624,0.42211806,0.79894815,-0.423888075
1764510647.124614,0.3204599999999999,3.78448,0.36624,0.42211806,0.79894815,-0.423888075
1764510647.124614,-0.13734,3.76922,-0.19838,0.420714255,0.799619535,-0.424376355
1764510647.124614,-0.13734,3.76922,-0.19838,0.420714255,0.799619535,-0.424376355
1764510647.124614,-0.13734,3.76922,-0.19838,0.420714255,0.799619535,-0.424376355
1764510647.124614,-0.13734,3.76922,-0.19838,0.420714255,0.799619535,-0.424376355
1764510647.124614,-0.13734,3.76922,-0.19838,0.420714255,0.799619535,-0.424376355
1764510647.124614,-0.13734,3.76922,-0.19838,0.420714255,0.799619535,-0.424376355
1764510647.124614,-0.13734,3.76922,-0.19838,0.420714255,0.799619535,-0.424376355
1764510647.124614,-0.13734,3.76922,-0.19838,0.420714255,0.799619535,-0.424376355
1764510647.124614,-0.13734,3.76922,-0.19838,0.420714255,0.799619535,-0.424376355
1764510647.124614,-0.13734,3.76922,-0.19838,0.420714255,0.799619535,-0.424376355
1764510647.124614,-0.5341,3.815,0.65618,0.420714255,0.80016885,-0.42443739
1764510647.124614,-0.5341,3.815,0.65618,0.420714255,0.80016885,-0.42443739
1764510647.1711907,-0.5341,3.815,0.65618,0.420714255,0.80016885,-0.42443739
1764510647.1711907,-0.5341,3.815,0.65618,0.420714255,0.80016885,-0.42443739
1764510647.1721995,-0.5341,3.815,0.65618,0.420714255,0.80016885,-0.42443739
1764510647.1721995,-0.5341,3.815,0.65618,0.420714255,0.80016885,-0.42443739
1764510647.1721995,-0.5341,3.815,0.65618,0.420714255,0.80016885,-0.42443739
1764510647.1721995,-0.5341,3.815,0.65618,0.420714255,0.80016885,-0.42443739
1764510647.1721995,-0.5341,3.815,0.65618,0.420714255,0.80016885,-0.42443739
1764510647.1721995,-0.5341,3.815,0.65618,0.420714255,0.80016885,-0.42443739
1764510647.1721995,-1.05294,3.52506,0.7019599999999999,0.421568745,0.799131255,-0.42382704
1764510647.1721995,-1.05294,3.52506,0.7019599999999999,0.421568745,0.799131255,-0.42382704
1764510647.1721995,-1.05294,3.52506,0.7019599999999999,0.421568745,0.799131255,-0.42382704
1764510647.1721995,-1.05294,3.52506,0.7019599999999999,0.421568745,0.799131255,-0.42382704
1764510647.1721995,-1.05294,3.52506,0.7019599999999999,0.421568745,0.799131255,-0.42382704
1764510647.1721995,-1.05294,3.52506,0.7019599999999999,0.421568745,0.799131255,-0.42382704
1764510647.1721995,-1.05294,3.52506,0.7019599999999999,0.421568745,0.799131255,-0.42382704
1764510647.1721995,-1.05294,3.52506,0.7019599999999999,0.421568745,0.799131255,-0.42382704
1764510647.1721995,-1.05294,3.52506,0.7019599999999999,0.421568745,0.799131255,-0.42382704
1764510647.1721995,-1.05294,3.52506,0.7019599999999999,0.421568745,0.799131255,-0.42382704
1764510647.1731987,-0.93086,3.67766,0.36624,0.422057025,0.7995585000000001,-0.42333876
1764510647.1731987,-0.93086,3.67766,0.36624,0.422057025,0.7995585000000001,-0.42333876
1764510647.1731987,-0.93086,3.67766,0.36624,0.422057025,0.7995585000000001,-0.42333876
1764510647.1731987,-0.93086,3.67766,0.36624,0.422057025,0.7995585000000001,-0.42333876
1764510647.1731987,-0.93086,3.67766,0.36624,0.422057025,0.7995585000000001,-0.42333876
1764510647.1731987,-0.93086,3.67766,0.36624,0.422057025,0.7995585000000001,-0.42333876
1764510647.2198014,-0.93086,3.67766,0.36624,0.422057025,0.7995585000000001,-0.42333876
1764510647.2198014,-0.93086,3.67766,0.36624,0.422057025,0.7995585000000001,-0.42333876
1764510647.2203965,-0.93086,3.67766,0.36624,0.422057025,0.7995585000000001,-0.42333876
1764510647.2204783,-0.93086,3.67766,0.36624,0.422057025,0.7995585000000001,-0.42333876
1764510647.2207007,-0.56462,3.52506,0.65618,0.42297255,0.800229885,-0.423643935
1764510647.2209084,-0.56462,3.52506,0.65618,0.42297255,0.800229885,-0.423643935
1764510647.2209084,-0.56462,3.52506,0.65618,0.42297255,0.800229885,-0.423643935
1764510647.2209084,-0.56462,3.52506,0.65618,0.42297255,0.800229885,-0.423643935
1764510647.2209084,-0.56462,3.52506,0.65618,0.42297255,0.800229885,-0.423643935
1764510647.221921,-0.56462,3.52506,0.65618,0.42297255,0.800229885,-0.423643935
1764510647.221921,-0.56462,3.52506,0.65618,0.42297255,0.800229885,-0.423643935
1764510647.221921,-0.56462,3.52506,0.65618,0.42297255,0.800229885,-0.423643935
1764510647.221921,-0.56462,3.52506,0.65618,0.42297255,0.800229885,-0.423643935
1764510647.221921,-0.56462,3.52506,0.65618,0.42297255,0.800229885,-0.423643935
1764510647.2229187,-0.59514,4.0439,0.77826,0.42321669,0.800229885,-0.42394911
1764510647.2229187,-0.59514,4.0439,0.77826,0.42321669,0.800229885,-0.42394911
1764510647.2229187,-0.59514,4.0439,0.77826,0.42321669,0.800229885,-0.42394911
1764510647.2229187,-0.59514,4.0439,0.77826,0.42321669,0.800229885,-0.42394911
1764510647.2229187,-0.59514,4.0439,0.77826,0.42321669,0.800229885,-0.42394911
1764510647.2229187,-0.59514,4.0439,0.77826,0.42321669,0.800229885,-0.42394911
1764510647.2229187,-0.59514,4.0439,0.77826,0.42321669,0.800229885,-0.42394911
1764510647.2239225,-0.59514,4.0439,0.77826,0.42321669,0.800229885,-0.42394911
1764510647.2239225,-0.59514,4.0439,0.77826,0.42321669,0.800229885,-0.42394911
1764510647.2239225,-0.59514,4.0439,0.77826,0.42321669,0.800229885,-0.42394911
1764510647.2678368,-0.3204599999999999,3.75396,0.6103999999999999,0.423399795,0.7995585000000001,-0.423888075
1764510647.2688484,-0.3204599999999999,3.75396,0.6103999999999999,0.423399795,0.7995585000000001,-0.423888075
1764510647.2691684,-0.3204599999999999,3.75396,0.6103999999999999,0.423399795,0.7995585000000001,-0.423888075
1764510647.2696033,-0.3204599999999999,3.75396,0.6103999999999999,0.423399795,0.7995585000000001,-0.423888075
1764510647.2696033,-0.3204599999999999,3.75396,0.6103999999999999,0.423399795,0.7995585000000001,-0.423888075
1764510647.2696033,-0.3204599999999999,3.75396,0.6103999999999999,0.423399795,0.7995585000000001,-0.423888075
1764510647.2696033,-0.3204599999999999,3.75396,0.6103999999999999,0.423399795,0.7995585000000001,-0.423888075
1764510647.2702134,-0.3204599999999999,3.75396,0.6103999999999999,0.423399795,0.7995585000000001,-0.423888075
1764510647.2702134,-0.3204599999999999,3.75396,0.6103999999999999,0.423399795,0.7995585000000001,-0.423888075
1764510647.2702134,-0.3204599999999999,3.75396,0.6103999999999999,0.423399795,0.7995585000000001,-0.423888075
1764510647.2702134,-0.10682,3.7387,0.8698199999999999,0.42248427,0.799253325,-0.42455946
1764510647.2702134,-0.10682,3.7387,0.8698199999999999,0.42248427,0.799253325,-0.42455946
1764510647.2702134,-0.10682,3.7387,0.8698199999999999,0.42248427,0.799253325,-0.42455946
1764510647.2702134,-0.10682,3.7387,0.8698199999999999,0.42248427,0.799253325,-0.42455946
1764510647.2702134,-0.10682,3.7387,0.8698199999999999,0.42248427,0.799253325,-0.42455946
1764510647.2702134,-0.10682,3.7387,0.8698199999999999,0.42248427,0.799253325,-0.42455946
1764510647.2712202,-0.10682,3.7387,0.8698199999999999,0.42248427,0.799253325,-0.42455946
1764510647.2712202,-0.10682,3.7387,0.8698199999999999,0.42248427,0.799253325,-0.42455946
1764510647.2712202,-0.10682,3.7387,0.8698199999999999,0.42248427,0.799253325,-0.42455946
1764510647.2712202,-0.10682,3.7387,0.8698199999999999,0.42248427,0.799253325,-0.42455946
1764510647.2712202,-0.18312,3.815,0.44254,0.422545305,0.79882608,-0.42492567
1764510647.2712202,-0.18312,3.815,0.44254,0.422545305,0.79882608,-0.42492567
1764510647.2712202,-0.18312,3.815,0.44254,0.422545305,0.79882608,-0.42492567
1764510647.2712202,-0.18312,3.815,0.44254,0.422545305,0.79882608,-0.42492567
1764510647.3130617,-0.18312,3.815,0.44254,0.422545305,0.79882608,-0.42492567
1764510647.3130617,-0.18312,3.815,0.44254,0.422545305,0.79882608,-0.42492567
1764510647.3130617,-0.18312,3.815,0.44254,0.422545305,0.79882608,-0.42492567
1764510647.3130617,-0.18312,3.815,0.44254,0.422545305,0.79882608,-0.42492567
1764510647.3130617,-0.18312,3.815,0.44254,0.422545305,0.79882608,-0.42492567
1764510647.3130617,-0.18312,3.815,0.44254,0.422545305,0.79882608,-0.42492567
1764510647.3130617,-1.12924,3.98286,0.7019599999999999,0.423033585,0.799863675,-0.42578016
1764510647.3130617,-1.12924,3.98286,0.7019599999999999,0.423033585,0.799863675,-0.42578016
1764510647.3130617,-1.12924,3.98286,0.7019599999999999,0.423033585,0.799863675,-0.42578016
1764510647.3130617,-1.12924,3.98286,0.7019599999999999,0.423033585,0.799863675,-0.42578016
1764510647.3130617,-1.12924,3.98286,0.7019599999999999,0.423033585,0.799863675,-0.42578016
1764510647.3130617,-1.12924,3.98286,0.7019599999999999,0.423033585,0.799863675,-0.42578016
1764510647.3130617,-1.12924,3.98286,0.7019599999999999,0.423033585,0.799863675,-0.42578016
1764510647.3130617,-1.12924,3.98286,0.7019599999999999,0.423033585,0.799863675,-0.42578016
1764510647.3130617,-1.12924,3.98286,0.7019599999999999,0.423033585,0.799863675,-0.42578016
1764510647.3130617,-1.12924,3.98286,0.7019599999999999,0.423033585,0.799863675,-0.42578016
1764510647.3130617,-1.1445,3.49454,0.1525999999999999,0.420592185,0.799863675,-0.425474985
1764510647.3130617,-1.1445,3.49454,0.1525999999999999,0.420592185,0.799863675,-0.425474985
1764510647.3130617,-1.1445,3.49454,0.1525999999999999,0.420592185,0.799863675,-0.425474985
1764510647.3130617,-1.1445,3.49454,0.1525999999999999,0.420592185,0.799863675,-0.425474985
1764510647.3130617,-1.1445,3.49454,0.1525999999999999,0.420592185,0.799863675,-0.425474985
1764510647.3130617,-1.1445,3.49454,0.1525999999999999,0.420592185,0.799863675,-0.425474985
1764510647.3130617,-1.1445,3.49454,0.1525999999999999,0.420592185,0.799863675,-0.425474985
1764510647.3130617,-1.1445,3.49454,0.1525999999999999,0.420592185,0.799863675,-0.425474985
1764510647.3602538,-1.1445,3.49454,0.1525999999999999,0.420592185,0.799863675,-0.425474985
1764510647.3602538,-1.1445,3.49454,0.1525999999999999,0.420592185,0.799863675,-0.425474985
1764510647.3602538,-1.12924,3.21986,1.54126,0.42028701,0.80004678,-0.42443739
1764510647.3602538,-1.12924,3.21986,1.54126,0.42028701,0.80004678,-0.42443739
1764510647.3612907,-1.12924,3.21986,1.54126,0.42028701,0.80004678,-0.42443739
1764510647.3612907,-1.12924,3.21986,1.54126,0.42028701,0.80004678,-0.42443739
1764510647.3612907,-1.12924,3.21986,1.54126,0.42028701,0.80004678,-0.42443739
1764510647.3612907,-1.12924,3.21986,1.54126,0.42028701,0.80004678,-0.42443739
1764510647.3612907,-1.12924,3.21986,1.54126,0.42028701,0.80004678,-0.42443739
1764510647.3612907,-1.12924,3.21986,1.54126,0.42028701,0.80004678,-0.42443739
1764510647.3612907,-1.12924,3.21986,1.54126,0.42028701,0.80004678,-0.42443739
1764510647.3612907,-1.12924,3.21986,1.54126,0.42028701,0.80004678,-0.42443739
1764510647.3612907,-0.79352,3.90656,0.88508,0.42285048,0.79980264,-0.423643935
1764510647.3612907,-0.79352,3.90656,0.88508,0.42285048,0.79980264,-0.423643935
1764510647.3612907,-0.79352,3.90656,0.88508,0.42285048,0.79980264,-0.423643935
1764510647.3612907,-0.79352,3.90656,0.88508,0.42285048,0.79980264,-0.423643935
1764510647.3612907,-0.79352,3.90656,0.88508,0.42285048,0.79980264,-0.423643935
1764510647.3612907,-0.79352,3.90656,0.88508,0.42285048,0.79980264,-0.423643935
1764510647.3612907,-0.79352,3.90656,0.88508,0.42285048,0.79980264,-0.423643935
1764510647.3612907,-0.79352,3.90656,0.88508,0.42285048,0.79980264,-0.423643935
1764510647.3612907,-0.79352,3.90656,0.88508,0.42285048,0.79980264,-0.423643935
1764510647.3612907,-0.79352,3.90656,0.88508,0.42285048,0.79980264,-0.423643935
1764510647.410698,0.24416,4.0439,0.57988,0.42346083,0.79882608,-0.421324605
1764510647.410698,0.24416,4.0439,0.57988,0.42346083,0.79882608,-0.421324605
1764510647.410698,0.24416,4.0439,0.57988,0.42346083,0.79882608,-0.421324605
1764510647.410698,0.24416,4.0439,0.57988,0.42346083,0.79882608,-0.421324605
1764510647.410698,0.24416,4.0439,0.57988,0.42346083,0.79882608,-0.421324605
1764510647.410698,0.24416,4.0439,0.57988,0.42346083,0.79882608,-0.421324605
1764510647.410698,0.24416,4.0439,0.57988,0.42346083,0.79882608,-0.421324605
1764510647.410698,0.24416,4.0439,0.57988,0.42346083,0.79882608,-0.421324605
1764510647.410698,0.24416,4.0439,0.57988,0.42346083,0.79882608,-0.421324605
1764510647.4110155,0.24416,4.0439,0.57988,0.42346083,0.79882608,-0.421324605
1764510647.4110155,2.02958,3.98286,0.73248,0.42309462,0.798154695,-0.42187392
1764510647.4110155,2.02958,3.98286,0.73248,0.42309462,0.798154695,-0.42187392
1764510647.4110155,2.02958,3.98286,0.73248,0.42309462,0.798154695,-0.42187392
1764510647.4110155,2.02958,3.98286,0.73248,0.42309462,0.798154695,-0.42187392
1764510647.4110155,2.02958,3.98286,0.73248,0.42309462,0.798154695,-0.42187392
1764510647.4110155,2.02958,3.98286,0.73248,0.42309462,0.798154695,-0.42187392
1764510647.4110155,2.02958,3.98286,0.73248,0.42309462,0.798154695,-0.42187392
1764510647.4110155,2.02958,3.98286,0.73248,0.42309462,0.798154695,-0.42187392
1764510647.4110155,2.02958,3.98286,0.73248,0.42309462,0.798154695,-0.42187392
1764510647.4110155,2.02958,3.98286,0.73248,0.42309462,0.798154695,-0.42187392
1764510647.4110155,0.3204599999999999,3.3572,0.51884,0.423766005,0.79980264,-0.42541395
1764510647.4110155,0.3204599999999999,3.3572,0.51884,0.423766005,0.79980264,-0.42541395
1764510647.4110155,0.3204599999999999,3.3572,0.51884,0.423766005,0.79980264,-0.42541395
1764510647.4110155,0.3204599999999999,3.3572,0.51884,0.423766005,0.79980264,-0.42541395
1764510647.4550238,0.3204599999999999,3.3572,0.51884,0.423766005,0.79980264,-0.42541395
1764510647.4550238,0.3204599999999999,3.3572,0.51884,0.423766005,0.79980264,-0.42541395
1764510647.4550238,0.3204599999999999,3.3572,0.51884,0.423766005,0.79980264,-0.42541395
1764510647.4550238,0.3204599999999999,3.3572,0.51884,0.423766005,0.79980264,-0.42541395
1764510647.4560387,0.3204599999999999,3.3572,0.51884,0.423766005,0.79980264,-0.42541395
1764510647.4560387,0.3204599999999999,3.3572,0.51884,0.423766005,0.79980264,-0.42541395
1764510647.4560387,-2.50264,4.18124,0.56462,0.42309462,0.802793355,-0.42761121
1764510647.4560387,-2.50264,4.18124,0.56462,0.42309462,0.802793355,-0.42761121
1764510647.4560387,-2.50264,4.18124,0.56462,0.42309462,0.802793355,-0.42761121
1764510647.4560387,-2.50264,4.18124,0.56462,0.42309462,0.802793355,-0.42761121
1764510647.4560387,-2.50264,4.18124,0.56462,0.42309462,0.802793355,-0.42761121
1764510647.4560387,-2.50264,4.18124,0.56462,0.42309462,0.802793355,-0.42761121
1764510647.4560387,-2.50264,4.18124,0.56462,0.42309462,0.802793355,-0.42761121
1764510647.4575496,-2.50264,4.18124,0.56462,0.42309462,0.802793355,-0.42761121
1764510647.4575496,-2.50264,4.18124,0.56462,0.42309462,0.802793355,-0.42761121
1764510647.4575496,-2.50264,4.18124,0.56462,0.42309462,0.802793355,-0.42761121
1764510647.4575496,-3.8913,3.11304,1.09872,0.420592185,0.802060935,-0.42700086
1764510647.4575496,-3.8913,3.11304,1.09872,0.420592185,0.802060935,-0.42700086
1764510647.458002,-3.8913,3.11304,1.09872,0.420592185,0.802060935,-0.42700086
1764510647.458002,-3.8913,3.11304,1.09872,0.420592185,0.802060935,-0.42700086
1764510647.458002,-3.8913,3.11304,1.09872,0.420592185,0.802060935,-0.42700086
1764510647.458002,-3.8913,3.11304,1.09872,0.420592185,0.802060935,-0.42700086
1764510647.4585602,-3.8913,3.11304,1.09872,0.420592185,0.802060935,-0.42700086
1764510647.4585602,-3.8913,3.11304,1.09872,0.420592185,0.802060935,-0.42700086
1764510647.5003994,-3.8913,3.11304,1.09872,0.420592185,0.802060935,-0.42700086
1764510647.5003994,-3.8913,3.11304,1.09872,0.420592185,0.802060935,-0.42700086
1764510647.5003994,-2.50264,3.44876,1.64808,0.420836325,0.7983378,-0.42431532
1764510647.5003994,-2.50264,3.44876,1.64808,0.420836325,0.7983378,-0.42431532
1764510647.5003994,-2.50264,3.44876,1.64808,0.420836325,0.7983378,-0.42431532
1764510647.5003994,-2.50264,3.44876,1.64808,0.420836325,0.7983378,-0.42431532
1764510647.5003994,-2.50264,3.44876,1.64808,0.420836325,0.7983378,-0.42431532
1764510647.5003994,-2.50264,3.44876,1.64808,0.420836325,0.7983378,-0.42431532
1764510647.5003994,-2.50264,3.44876,1.64808,0.420836325,0.7983378,-0.42431532
1764510647.5003994,-2.50264,3.44876,1.64808,0.420836325,0.7983378,-0.42431532
1764510647.5003994,-2.50264,3.44876,1.64808,0.420836325,0.7983378,-0.42431532
1764510647.5003994,-2.50264,3.44876,1.64808,0.420836325,0.7983378,-0.42431532
1764510647.5003994,-0.1525999999999999,4.51696,0.39676,0.42370497,0.79553019,-0.422789445
1764510647.5003994,-0.1525999999999999,4.51696,0.39676,0.42370497,0.79553019,-0.422789445
1764510647.5003994,-0.1525999999999999,4.51696,0.39676,0.42370497,0.79553019,-0.422789445
1764510647.5003994,-0.1525999999999999,4.51696,0.39676,0.42370497,0.79553019,-0.422789445
1764510647.5003994,-0.1525999999999999,4.51696,0.39676,0.42370497,0.79553019,-0.422789445
1764510647.5003994,-0.1525999999999999,4.51696,0.39676,0.42370497,0.79553019,-0.422789445
1764510647.5003994,-0.1525999999999999,4.51696,0.39676,0.42370497,0.79553019,-0.422789445
1764510647.5003994,-0.1525999999999999,4.51696,0.39676,0.42370497,0.79553019,-0.422789445
1764510647.5003994,-0.1525999999999999,4.51696,0.39676,0.42370497,0.79553019,-0.422789445
1764510647.5003994,-0.1525999999999999,4.51696,0.39676,0.42370497,0.79553019,-0.422789445
1764510647.5477717,0.9003399999999999,4.54748,-0.25942,0.42394911,0.79601847,-0.423643935
1764510647.5477717,0.9003399999999999,4.54748,-0.25942,0.42394911,0.79601847,-0.423643935
1764510647.5487728,0.9003399999999999,4.54748,-0.25942,0.42394911,0.79601847,-0.423643935
1764510647.5487728,0.9003399999999999,4.54748,-0.25942,0.42394911,0.79601847,-0.423643935
1764510647.5487728,0.9003399999999999,4.54748,-0.25942,0.42394911,0.79601847,-0.423643935
1764510647.5487728,0.9003399999999999,4.54748,-0.25942,0.42394911,0.79601847,-0.423643935
1764510647.5487728,0.9003399999999999,4.54748,-0.25942,0.42394911,0.79601847,-0.423643935
1764510647.5487728,0.9003399999999999,4.54748,-0.25942,0.42394911,0.79601847,-0.423643935
1764510647.5487728,0.9003399999999999,4.54748,-0.25942,0.42394911,0.79601847,-0.423643935
1764510647.5487728,0.9003399999999999,4.54748,-0.25942,0.42394911,0.79601847,-0.423643935
1764510647.5487728,0.71722,4.303319999999999,0.3204599999999999,0.420836325,0.799131255,-0.4235829
1764510647.5487728,0.71722,4.303319999999999,0.3204599999999999,0.420836325,0.799131255,-0.4235829
1764510647.5487728,0.71722,4.303319999999999,0.3204599999999999,0.420836325,0.799131255,-0.4235829
1764510647.5487728,0.71722,4.303319999999999,0.3204599999999999,0.420836325,0.799131255,-0.4235829
1764510647.5487728,0.71722,4.303319999999999,0.3204599999999999,0.420836325,0.799131255,-0.4235829
1764510647.5487728,0.71722,4.303319999999999,0.3204599999999999,0.420836325,0.799131255,-0.4235829
1764510647.5487728,0.71722,4.303319999999999,0.3204599999999999,0.420836325,0.799131255,-0.4235829
1764510647.5487728,0.71722,4.303319999999999,0.3204599999999999,0.420836325,0.799131255,-0.4235829
1764510647.5487728,0.71722,4.303319999999999,0.3204599999999999,0.420836325,0.799131255,-0.4235829
1764510647.5487728,0.71722,4.303319999999999,0.3204599999999999,0.420836325,0.799131255,-0.4235829
1764510647.5487728,-0.79352,3.2809,0.6867,0.418883205,0.80138955,-0.424132215
1764510647.5487728,-0.79352,3.2809,0.6867,0.418883205,0.80138955,-0.424132215
1764510647.5487728,-0.79352,3.2809,0.6867,0.418883205,0.80138955,-0.424132215
1764510647.5487728,-0.79352,3.2809,0.6867,0.418883205,0.80138955,-0.424132215
1764510647.5933485,-0.79352,3.2809,0.6867,0.418883205,0.80138955,-0.424132215
1764510647.5933485,-0.79352,3.2809,0.6867,0.418883205,0.80138955,-0.424132215
1764510647.5933485,-0.79352,3.2809,0.6867,0.418883205,0.80138955,-0.424132215
1764510647.5933485,-0.79352,3.2809,0.6867,0.418883205,0.80138955,-0.424132215
1764510647.5933485,-0.79352,3.2809,0.6867,0.418883205,0.80138955,-0.424132215
1764510647.5933485,-0.79352,3.2809,0.6867,0.418883205,0.80138955,-0.424132215
1764510647.5933485,-1.32762,3.60136,1.23606,0.42028701,0.801328515,-0.42382704
1764510647.5933485,-1.32762,3.60136,1.23606,0.42028701,0.801328515,-0.42382704
1764510647.5933485,-1.32762,3.60136,1.23606,0.42028701,0.801328515,-0.42382704
1764510647.5952709,-1.32762,3.60136,1.23606,0.42028701,0.801328515,-0.42382704
1764510647.5952709,-1.32762,3.60136,1.23606,0.42028701,0.801328515,-0.42382704
1764510647.5952709,-1.32762,3.60136,1.23606,0.42028701,0.801328515,-0.42382704
1764510647.5952709,-1.32762,3.60136,1.23606,0.42028701,0.801328515,-0.42382704
1764510647.5952709,-1.32762,3.60136,1.23606,0.42028701,0.801328515,-0.42382704
1764510647.5952709,-1.32762,3.60136,1.23606,0.42028701,0.801328515,-0.42382704
1764510647.5952709,-1.32762,3.60136,1.23606,0.42028701,0.801328515,-0.42382704
1764510647.5952709,-1.6786,3.7387,1.41918,0.422301165,0.7995585000000001,-0.42394911
1764510647.5952709,-1.6786,3.7387,1.41918,0.422301165,0.7995585000000001,-0.42394911
1764510647.5952709,-1.6786,3.7387,1.41918,0.422301165,0.7995585000000001,-0.42394911
1764510647.5952709,-1.6786,3.7387,1.41918,0.422301165,0.7995585000000001,-0.42394911
1764510647.5952709,-1.6786,3.7387,1.41918,0.422301165,0.7995585000000001,-0.42394911
1764510647.5952709,-1.6786,3.7387,1.41918,0.422301165,0.7995585000000001,-0.42394911
1764510647.5952709,-1.6786,3.7387,1.41918,0.422301165,0.7995585000000001,-0.42394911
1764510647.5952709,-1.6786,3.7387,1.41918,0.422301165,0.7995585000000001,-0.42394911
1764510647.6431067,-1.6786,3.7387,1.41918,0.422301165,0.7995585000000001,-0.42394911
1764510647.6431067,-1.6786,3.7387,1.41918,0.422301165,0.7995585000000001,-0.42394911
1764510647.6436164,-1.09872,3.5861,1.23606,0.42407118,0.799253325,-0.423277725
1764510647.6436164,-1.09872,3.5861,1.23606,0.42407118,0.799253325,-0.423277725
1764510647.6436164,-1.09872,3.5861,1.23606,0.42407118,0.799253325,-0.423277725
1764510647.6436164,-1.09872,3.5861,1.23606,0.42407118,0.799253325,-0.423277725
1764510647.6436164,-1.09872,3.5861,1.23606,0.42407118,0.799253325,-0.423277725
1764510647.6436164,-1.09872,3.5861,1.23606,0.42407118,0.799253325,-0.423277725
1764510647.6436164,-1.09872,3.5861,1.23606,0.42407118,0.799253325,-0.423277725
1764510647.6436164,-1.09872,3.5861,1.23606,0.42407118,0.799253325,-0.423277725
1764510647.6436164,-1.09872,3.5861,1.23606,0.42407118,0.799253325,-0.423277725
1764510647.6436164,-1.09872,3.5861,1.23606,0.42407118,0.799253325,-0.423277725
1764510647.6436164,-1.63282,4.303319999999999,0.7019599999999999,0.4248036,0.799985745,-0.42285048
1764510647.6436164,-1.63282,4.303319999999999,0.7019599999999999,0.4248036,0.799985745,-0.42285048
1764510647.6436164,-1.63282,4.303319999999999,0.7019599999999999,0.4248036,0.799985745,-0.42285048
1764510647.6436164,-1.63282,4.303319999999999,0.7019599999999999,0.4248036,0.799985745,-0.42285048
1764510647.6436164,-1.63282,4.303319999999999,0.7019599999999999,0.4248036,0.799985745,-0.42285048
1764510647.6436164,-1.63282,4.303319999999999,0.7019599999999999,0.4248036,0.799985745,-0.42285048
1764510647.6436164,-1.63282,4.303319999999999,0.7019599999999999,0.4248036,0.799985745,-0.42285048
1764510647.6436164,-1.63282,4.303319999999999,0.7019599999999999,0.4248036,0.799985745,-0.42285048
1764510647.6436164,-1.63282,4.303319999999999,0.7019599999999999,0.4248036,0.799985745,-0.42285048
1764510647.6436164,-1.63282,4.303319999999999,0.7019599999999999,0.4248036,0.799985745,-0.42285048
1764510647.689483,-0.763,3.98286,1.23606,0.42248427,0.7985209050000001,-0.422911515
1764510647.689483,-0.763,3.98286,1.23606,0.42248427,0.7985209050000001,-0.422911515
1764510647.689483,-0.763,3.98286,1.23606,0.42248427,0.7985209050000001,-0.422911515
1764510647.6900153,-0.763,3.98286,1.23606,0.42248427,0.7985209050000001,-0.422911515
1764510647.6900153,-0.763,3.98286,1.23606,0.42248427,0.7985209050000001,-0.422911515
1764510647.6900153,-0.763,3.98286,1.23606,0.42248427,0.7985209050000001,-0.422911515
1764510647.6900153,-0.763,3.98286,1.23606,0.42248427,0.7985209050000001,-0.422911515
1764510647.6900153,-0.763,3.98286,1.23606,0.42248427,0.7985209050000001,-0.422911515
1764510647.6910253,-0.763,3.98286,1.23606,0.42248427,0.7985209050000001,-0.422911515
1764510647.6910253,-0.763,3.98286,1.23606,0.42248427,0.7985209050000001,-0.422911515
1764510647.6910253,0.21364,3.32668,0.88508,0.421934955,0.797910555,-0.423277725
1764510647.6910253,0.21364,3.32668,0.88508,0.421934955,0.797910555,-0.423277725
1764510647.6920252,0.21364,3.32668,0.88508,0.421934955,0.797910555,-0.423277725
1764510647.6920252,0.21364,3.32668,0.88508,0.421934955,0.797910555,-0.423277725
1764510647.6920252,0.21364,3.32668,0.88508,0.421934955,0.797910555,-0.423277725
1764510647.6920252,0.21364,3.32668,0.88508,0.421934955,0.797910555,-0.423277725
1764510647.6920252,0.21364,3.32668,0.88508,0.421934955,0.797910555,-0.423277725
1764510647.6920252,0.21364,3.32668,0.88508,0.421934955,0.797910555,-0.423277725
1764510647.6920252,0.21364,3.32668,0.88508,0.421934955,0.797910555,-0.423277725
1764510647.6920252,0.21364,3.32668,0.88508,0.421934955,0.797910555,-0.423277725
1764510647.6920252,-0.06104,3.57084,1.00716,0.42346083,0.79943643,-0.42419325
1764510647.6920252,-0.06104,3.57084,1.00716,0.42346083,0.79943643,-0.42419325
1764510647.6920252,-0.06104,3.57084,1.00716,0.42346083,0.79943643,-0.42419325
1764510647.6920252,-0.06104,3.57084,1.00716,0.42346083,0.79943643,-0.42419325
1764510647.7334387,-0.06104,3.57084,1.00716,0.42346083,0.79943643,-0.42419325
1764510647.7334387,-0.06104,3.57084,1.00716,0.42346083,0.79943643,-0.42419325
1764510647.7334387,-0.06104,3.57084,1.00716,0.42346083,0.79943643,-0.42419325
1764510647.7334387,-0.06104,3.57084,1.00716,0.42346083,0.79943643,-0.42419325
1764510647.7334387,-0.06104,3.57084,1.00716,0.42346083,0.79943643,-0.42419325
1764510647.7334387,-0.06104,3.57084,1.00716,0.42346083,0.79943643,-0.42419325
1764510647.7334387,-1.31236,4.13546,1.02242,0.42321669,0.8011454100000001,-0.42529188
1764510647.7334387,-1.31236,4.13546,1.02242,0.42321669,0.8011454100000001,-0.42529188
1764510647.7334387,-1.31236,4.13546,1.02242,0.42321669,0.8011454100000001,-0.42529188
1764510647.7334387,-1.31236,4.13546,1.02242,0.42321669,0.8011454100000001,-0.42529188
1764510647.735662,-1.31236,4.13546,1.02242,0.42321669,0.8011454100000001,-0.42529188
1764510647.735662,-1.31236,4.13546,1.02242,0.42321669,0.8011454100000001,-0.42529188
1764510647.735662,-1.31236,4.13546,1.02242,0.42321669,0.8011454100000001,-0.42529188
1764510647.735662,-1.31236,4.13546,1.02242,0.42321669,0.8011454100000001,-0.42529188
1764510647.735662,-1.31236,4.13546,1.02242,0.42321669,0.8011454100000001,-0.42529188
1764510647.735662,-1.31236,4.13546,1.02242,0.42321669,0.8011454100000001,-0.42529188
1764510647.735662,-2.48738,3.78448,1.1445,0.421324605,0.80065713,-0.424864635
1764510647.735662,-2.48738,3.78448,1.1445,0.421324605,0.80065713,-0.424864635
1764510647.735662,-2.48738,3.78448,1.1445,0.421324605,0.80065713,-0.424864635
1764510647.735662,-2.48738,3.78448,1.1445,0.421324605,0.80065713,-0.424864635
1764510647.735662,-2.48738,3.78448,1.1445,0.421324605,0.80065713,-0.424864635
1764510647.735662,-2.48738,3.78448,1.1445,0.421324605,0.80065713,-0.424864635
1764510647.735662,-2.48738,3.78448,1.1445,0.421324605,0.80065713,-0.424864635
1764510647.735662,-2.48738,3.78448,1.1445,0.421324605,0.80065713,-0.424864635
1764510647.7799077,-2.48738,3.78448,1.1445,0.421324605,0.80065713,-0.424864635
1764510647.7799077,-2.48738,3.78448,1.1445,0.421324605,0.80065713,-0.424864635
1764510647.7799077,-1.89224,3.76922,1.31236,0.421446675,0.797788485,-0.4235829
