Timestamp,GyroX,GyroY,GyroZ,AccX,AccY,AccZ
1764511894.0765831,-5.615679999999999,0.3357199999999999,0.51884,-0.93713139,-0.292052475,-0.169738335
1764511894.0765831,-5.615679999999999,0.3357199999999999,0.51884,-0.93713139,-0.292052475,-0.169738335
1764511894.0765831,-5.615679999999999,0.3357199999999999,0.51884,-0.93713139,-0.292052475,-0.169738335
1764511894.0765831,-5.615679999999999,0.3357199999999999,0.51884,-0.93713139,-0.292052475,-0.169738335
1764511894.0765831,-5.00528,1.69386,1.4497,-0.935849655,-0.29675217,-0.169127985
1764511894.0765831,-5.00528,1.69386,1.4497,-0.935849655,-0.29675217,-0.169127985
1764511894.0765831,-5.00528,1.69386,1.4497,-0.935849655,-0.29675217,-0.169127985
1764511894.0765831,-5.00528,1.69386,1.4497,-0.935849655,-0.29675217,-0.169127985
1764511894.0765831,-5.00528,1.69386,1.4497,-0.935849655,-0.29675217,-0.169127985
1764511894.0765831,-5.00528,1.69386,1.4497,-0.935849655,-0.29675217,-0.169127985
1764511894.0765831,-5.00528,1.69386,1.4497,-0.935849655,-0.29675217,-0.169127985
1764511894.0765831,-5.00528,1.69386,1.4497,-0.935849655,-0.29675217,-0.169127985
1764511894.0765831,-5.00528,1.69386,1.4497,-0.935849655,-0.29675217,-0.169127985
1764511894.0765831,-5.00528,1.69386,1.4497,-0.935849655,-0.29675217,-0.169127985
1764511894.0765831,-2.47212,2.1364,0.79352,-0.935239305,-0.30041427,-0.16735797
1764511894.0765831,-2.47212,2.1364,0.79352,-0.935239305,-0.30041427,-0.16735797
1764511894.0765831,-2.47212,2.1364,0.79352,-0.935239305,-0.30041427,-0.16735797
1764511894.0765831,-2.47212,2.1364,0.79352,-0.935239305,-0.30041427,-0.16735797
1764511894.0765831,-2.47212,2.1364,0.79352,-0.935239305,-0.30041427,-0.16735797
1764511894.0765831,-2.47212,2.1364,0.79352,-0.935239305,-0.30041427,-0.16735797
1764511894.078117,-2.47212,2.1364,0.79352,-0.935239305,-0.30041427,-0.16735797
1764511894.078117,-2.47212,2.1364,0.79352,-0.935239305,-0.30041427,-0.16735797
1764511894.122564,-2.47212,2.1364,0.79352,-0.935239305,-0.30041427,-0.16735797
1764511894.122564,-2.47212,2.1364,0.79352,-0.935239305,-0.30041427,-0.16735797
1764511894.122564,-0.57988,1.9838,0.56462,-0.936704145,-0.299864955,-0.166808655
1764511894.122564,-0.57988,1.9838,0.56462,-0.936704145,-0.299864955,-0.166808655
1764511894.122564,-0.57988,1.9838,0.56462,-0.936704145,-0.299864955,-0.166808655
1764511894.122564,-0.57988,1.9838,0.56462,-0.936704145,-0.299864955,-0.166808655
1764511894.122564,-0.57988,1.9838,0.56462,-0.936704145,-0.299864955,-0.166808655
1764511894.122564,-0.57988,1.9838,0.56462,-0.936704145,-0.299864955,-0.166808655
1764511894.122564,-0.57988,1.9838,0.56462,-0.936704145,-0.299864955,-0.166808655
1764511894.122564,-0.57988,1.9838,0.56462,-0.936704145,-0.299864955,-0.166808655
1764511894.122564,-0.57988,1.9838,0.56462,-0.936704145,-0.299864955,-0.166808655
1764511894.122564,-0.57988,1.9838,0.56462,-0.936704145,-0.299864955,-0.166808655
1764511894.122564,-2.02958,1.64808,0.3051999999999999,-0.938046915,-0.29711838,-0.167052795
1764511894.122564,-2.02958,1.64808,0.3051999999999999,-0.938046915,-0.29711838,-0.167052795
1764511894.122564,-2.02958,1.64808,0.3051999999999999,-0.938046915,-0.29711838,-0.167052795
1764511894.122564,-2.02958,1.64808,0.3051999999999999,-0.938046915,-0.29711838,-0.167052795
1764511894.122564,-2.02958,1.64808,0.3051999999999999,-0.938046915,-0.29711838,-0.167052795
1764511894.122564,-2.02958,1.64808,0.3051999999999999,-0.938046915,-0.29711838,-0.167052795
1764511894.122564,-2.02958,1.64808,0.3051999999999999,-0.938046915,-0.29711838,-0.167052795
1764511894.122564,-2.02958,1.64808,0.3051999999999999,-0.938046915,-0.29711838,-0.167052795
1764511894.122564,-2.02958,1.64808,0.3051999999999999,-0.938046915,-0.29711838,-0.167052795
1764511894.122564,-2.02958,1.64808,0.3051999999999999,-0.938046915,-0.29711838,-0.167052795
1764511894.122564,-5.00528,1.38866,0.6103999999999999,-0.938291055,-0.294127665,-0.167296935
1764511894.122564,-5.00528,1.38866,0.6103999999999999,-0.938291055,-0.294127665,-0.167296935
1764511894.122564,-5.00528,1.38866,0.6103999999999999,-0.938291055,-0.294127665,-0.167296935
1764511894.122564,-5.00528,1.38866,0.6103999999999999,-0.938291055,-0.294127665,-0.167296935
1764511894.1672657,-5.00528,1.38866,0.6103999999999999,-0.938291055,-0.294127665,-0.167296935
1764511894.1672657,-5.00528,1.38866,0.6103999999999999,-0.938291055,-0.294127665,-0.167296935
1764511894.1672657,-5.00528,1.38866,0.6103999999999999,-0.938291055,-0.294127665,-0.167296935
1764511894.1672657,-5.00528,1.38866,0.6103999999999999,-0.938291055,-0.294127665,-0.167296935
1764511894.1672657,-5.00528,1.38866,0.6103999999999999,-0.938291055,-0.294127665,-0.167296935
1764511894.1672657,-5.00528,1.38866,0.6103999999999999,-0.938291055,-0.294127665,-0.167296935
1764511894.1672657,-6.134519999999999,0.93086,0.51884,-0.938046915,-0.29284593,-0.16821246
1764511894.1672657,-6.134519999999999,0.93086,0.51884,-0.938046915,-0.29284593,-0.16821246
1764511894.1672657,-6.134519999999999,0.93086,0.51884,-0.938046915,-0.29284593,-0.16821246
1764511894.1672657,-6.134519999999999,0.93086,0.51884,-0.938046915,-0.29284593,-0.16821246
1764511894.1672657,-6.134519999999999,0.93086,0.51884,-0.938046915,-0.29284593,-0.16821246
1764511894.1672657,-6.134519999999999,0.93086,0.51884,-0.938046915,-0.29284593,-0.16821246
1764511894.1672657,-6.134519999999999,0.93086,0.51884,-0.938046915,-0.29284593,-0.16821246
1764511894.168563,-6.134519999999999,0.93086,0.51884,-0.938046915,-0.29284593,-0.16821246
1764511894.168563,-6.134519999999999,0.93086,0.51884,-0.938046915,-0.29284593,-0.16821246
1764511894.168563,-6.134519999999999,0.93086,0.51884,-0.938046915,-0.29284593,-0.16821246
1764511894.168563,-5.4936,0.96138,-0.25942,-0.93798588,-0.293761455,-0.16882281
1764511894.168563,-5.4936,0.96138,-0.25942,-0.93798588,-0.293761455,-0.16882281
1764511894.168563,-5.4936,0.96138,-0.25942,-0.93798588,-0.293761455,-0.16882281
1764511894.168563,-5.4936,0.96138,-0.25942,-0.93798588,-0.293761455,-0.16882281
1764511894.168563,-5.4936,0.96138,-0.25942,-0.93798588,-0.293761455,-0.16882281
1764511894.168563,-5.4936,0.96138,-0.25942,-0.93798588,-0.293761455,-0.16882281
1764511894.2127168,-5.4936,0.96138,-0.25942,-0.93798588,-0.293761455,-0.16882281
1764511894.2132268,-5.4936,0.96138,-0.25942,-0.93798588,-0.293761455,-0.16882281
1764511894.2132268,-5.4936,0.96138,-0.25942,-0.93798588,-0.293761455,-0.16882281
1764511894.2132268,-5.4936,0.96138,-0.25942,-0.93798588,-0.293761455,-0.16882281
1764511894.2132268,-3.92182,0.9156,0.59514,-0.93725346,-0.296080785,-0.16894488
1764511894.2132268,-3.92182,0.9156,0.59514,-0.93725346,-0.296080785,-0.16894488
1764511894.2132268,-3.92182,0.9156,0.59514,-0.93725346,-0.296080785,-0.16894488
1764511894.2132268,-3.92182,0.9156,0.59514,-0.93725346,-0.296080785,-0.16894488
1764511894.2132268,-3.92182,0.9156,0.59514,-0.93725346,-0.296080785,-0.16894488
1764511894.2132268,-3.92182,0.9156,0.59514,-0.93725346,-0.296080785,-0.16894488
1764511894.2132268,-3.92182,0.9156,0.59514,-0.93725346,-0.296080785,-0.16894488
1764511894.2132268,-3.92182,0.9156,0.59514,-0.93725346,-0.296080785,-0.16894488
1764511894.2132268,-3.92182,0.9156,0.59514,-0.93725346,-0.296080785,-0.16894488
1764511894.2132268,-3.92182,0.9156,0.59514,-0.93725346,-0.296080785,-0.16894488
1764511894.2132268,-3.5098,1.63282,0.39676,-0.936704145,-0.29797287,-0.168151425
1764511894.2132268,-3.5098,1.63282,0.39676,-0.936704145,-0.29797287,-0.168151425
1764511894.2132268,-3.5098,1.63282,0.39676,-0.936704145,-0.29797287,-0.168151425
1764511894.2132268,-3.5098,1.63282,0.39676,-0.936704145,-0.29797287,-0.168151425
1764511894.2132268,-3.5098,1.63282,0.39676,-0.936704145,-0.29797287,-0.168151425
1764511894.2132268,-3.5098,1.63282,0.39676,-0.936704145,-0.29797287,-0.168151425
1764511894.2132268,-3.5098,1.63282,0.39676,-0.936704145,-0.29797287,-0.168151425
1764511894.2132268,-3.5098,1.63282,0.39676,-0.936704145,-0.29797287,-0.168151425
1764511894.2619755,-3.5098,1.63282,0.39676,-0.936704145,-0.29797287,-0.168151425
1764511894.2619755,-3.5098,1.63282,0.39676,-0.936704145,-0.29797287,-0.168151425
1764511894.2619755,-2.27374,1.99906,0.77826,-0.935849655,-0.29809494,-0.167907285
1764511894.2619755,-2.27374,1.99906,0.77826,-0.935849655,-0.29809494,-0.167907285
1764511894.2619755,-2.27374,1.99906,0.77826,-0.935849655,-0.29809494,-0.167907285
1764511894.2629814,-2.27374,1.99906,0.77826,-0.935849655,-0.29809494,-0.167907285
1764511894.2629814,-2.27374,1.99906,0.77826,-0.935849655,-0.29809494,-0.167907285
1764511894.2629814,-2.27374,1.99906,0.77826,-0.935849655,-0.29809494,-0.167907285
1764511894.2629814,-2.27374,1.99906,0.77826,-0.935849655,-0.29809494,-0.167907285
1764511894.2629814,-2.27374,1.99906,0.77826,-0.935849655,-0.29809494,-0.167907285
1764511894.2639835,-2.27374,1.99906,0.77826,-0.935849655,-0.29809494,-0.167907285
1764511894.2639835,-2.27374,1.99906,0.77826,-0.935849655,-0.29809494,-0.167907285
1764511894.2639835,-2.7468,1.99906,0.51884,-0.93652104,-0.296691135,-0.168029355
1764511894.2639835,-2.7468,1.99906,0.51884,-0.93652104,-0.296691135,-0.168029355
1764511894.2639835,-2.7468,1.99906,0.51884,-0.93652104,-0.296691135,-0.168029355
1764511894.2639835,-2.7468,1.99906,0.51884,-0.93652104,-0.296691135,-0.168029355
1764511894.2639835,-2.7468,1.99906,0.51884,-0.93652104,-0.296691135,-0.168029355
1764511894.2639835,-2.7468,1.99906,0.51884,-0.93652104,-0.296691135,-0.168029355
1764511894.2639835,-2.7468,1.99906,0.51884,-0.93652104,-0.296691135,-0.168029355
1764511894.2656374,-2.7468,1.99906,0.51884,-0.93652104,-0.296691135,-0.168029355
1764511894.2656374,-2.7468,1.99906,0.51884,-0.93652104,-0.296691135,-0.168029355
1764511894.2656374,-2.7468,1.99906,0.51884,-0.93652104,-0.296691135,-0.168029355
1764511894.2656374,-5.38678,0.6714399999999999,0.24416,-0.938779335,-0.29467698,-0.16906695
1764511894.2656374,-5.38678,0.6714399999999999,0.24416,-0.938779335,-0.29467698,-0.16906695
1764511894.3109837,-5.38678,0.6714399999999999,0.24416,-0.938779335,-0.29467698,-0.16906695
1764511894.3109837,-5.38678,0.6714399999999999,0.24416,-0.938779335,-0.29467698,-0.16906695
1764511894.3109837,-5.38678,0.6714399999999999,0.24416,-0.938779335,-0.29467698,-0.16906695
1764511894.3109837,-5.38678,0.6714399999999999,0.24416,-0.938779335,-0.29467698,-0.16906695
1764511894.3109837,-5.38678,0.6714399999999999,0.24416,-0.938779335,-0.29467698,-0.16906695
1764511894.3109837,-5.38678,0.6714399999999999,0.24416,-0.938779335,-0.29467698,-0.16906695
1764511894.3109837,-5.38678,0.6714399999999999,0.24416,-0.938779335,-0.29467698,-0.16906695
1764511894.3119876,-5.38678,0.6714399999999999,0.24416,-0.938779335,-0.29467698,-0.16906695
1764511894.3119876,-7.065379999999999,1.2055399999999998,1.19028,-0.9374976,-0.29406663,-0.168883845
1764511894.3119876,-7.065379999999999,1.2055399999999998,1.19028,-0.9374976,-0.29406663,-0.168883845
1764511894.3119876,-7.065379999999999,1.2055399999999998,1.19028,-0.9374976,-0.29406663,-0.168883845
1764511894.3119876,-7.065379999999999,1.2055399999999998,1.19028,-0.9374976,-0.29406663,-0.168883845
1764511894.3119876,-7.065379999999999,1.2055399999999998,1.19028,-0.9374976,-0.29406663,-0.168883845
1764511894.3119876,-7.065379999999999,1.2055399999999998,1.19028,-0.9374976,-0.29406663,-0.168883845
1764511894.3119876,-7.065379999999999,1.2055399999999998,1.19028,-0.9374976,-0.29406663,-0.168883845
1764511894.3119876,-7.065379999999999,1.2055399999999998,1.19028,-0.9374976,-0.29406663,-0.168883845
1764511894.3119876,-7.065379999999999,1.2055399999999998,1.19028,-0.9374976,-0.29406663,-0.168883845
1764511894.3129754,-7.065379999999999,1.2055399999999998,1.19028,-0.9374976,-0.29406663,-0.168883845
1764511894.3129754,-4.63904,1.77016,0.62566,-0.936093795,-0.2966301,-0.16809039
1764511894.3129754,-4.63904,1.77016,0.62566,-0.936093795,-0.2966301,-0.16809039
1764511894.3129754,-4.63904,1.77016,0.62566,-0.936093795,-0.2966301,-0.16809039
1764511894.3129754,-4.63904,1.77016,0.62566,-0.936093795,-0.2966301,-0.16809039
1764511894.3129754,-4.63904,1.77016,0.62566,-0.936093795,-0.2966301,-0.16809039
1764511894.3129754,-4.63904,1.77016,0.62566,-0.936093795,-0.2966301,-0.16809039
1764511894.3544383,-4.63904,1.77016,0.62566,-0.936093795,-0.2966301,-0.16809039
1764511894.3544383,-4.63904,1.77016,0.62566,-0.936093795,-0.2966301,-0.16809039
1764511894.3544383,-4.63904,1.77016,0.62566,-0.936093795,-0.2966301,-0.16809039
1764511894.3544383,-4.63904,1.77016,0.62566,-0.936093795,-0.2966301,-0.16809039
1764511894.3544383,-3.14356,0.8698199999999999,0.57988,-0.93786381,-0.30078048,-0.166686585
1764511894.3544383,-3.14356,0.8698199999999999,0.57988,-0.93786381,-0.30078048,-0.166686585
1764511894.3544383,-3.14356,0.8698199999999999,0.57988,-0.93786381,-0.30078048,-0.166686585
1764511894.3544383,-3.14356,0.8698199999999999,0.57988,-0.93786381,-0.30078048,-0.166686585
1764511894.3544383,-3.14356,0.8698199999999999,0.57988,-0.93786381,-0.30078048,-0.166686585
1764511894.3544383,-3.14356,0.8698199999999999,0.57988,-0.93786381,-0.30078048,-0.166686585
1764511894.3544383,-3.14356,0.8698199999999999,0.57988,-0.93786381,-0.30078048,-0.166686585
1764511894.3544383,-3.14356,0.8698199999999999,0.57988,-0.93786381,-0.30078048,-0.166686585
1764511894.355962,-3.14356,0.8698199999999999,0.57988,-0.93786381,-0.30078048,-0.166686585
1764511894.355962,-3.14356,0.8698199999999999,0.57988,-0.93786381,-0.30078048,-0.166686585
1764511894.355962,-2.289,1.55652,0.2289,-0.93652104,-0.30004806,-0.165954165
1764511894.355962,-2.289,1.55652,0.2289,-0.93652104,-0.30004806,-0.165954165
1764511894.355962,-2.289,1.55652,0.2289,-0.93652104,-0.30004806,-0.165954165
1764511894.355962,-2.289,1.55652,0.2289,-0.93652104,-0.30004806,-0.165954165
1764511894.355962,-2.289,1.55652,0.2289,-0.93652104,-0.30004806,-0.165954165
1764511894.355962,-2.289,1.55652,0.2289,-0.93652104,-0.30004806,-0.165954165
1764511894.3569784,-2.289,1.55652,0.2289,-0.93652104,-0.30004806,-0.165954165
1764511894.3569784,-2.289,1.55652,0.2289,-0.93652104,-0.30004806,-0.165954165
1764511894.3569784,-2.289,1.55652,0.2289,-0.93652104,-0.30004806,-0.165954165
1764511894.3569784,-2.289,1.55652,0.2289,-0.93652104,-0.30004806,-0.165954165
1764511894.4014666,-1.96854,2.85362,-0.6714399999999999,-0.93615483,-0.296813205,-0.166198305
1764511894.402479,-1.96854,2.85362,-0.6714399999999999,-0.93615483,-0.296813205,-0.166198305
1764511894.402479,-1.96854,2.85362,-0.6714399999999999,-0.93615483,-0.296813205,-0.166198305
1764511894.402479,-1.96854,2.85362,-0.6714399999999999,-0.93615483,-0.296813205,-0.166198305
1764511894.402479,-1.96854,2.85362,-0.6714399999999999,-0.93615483,-0.296813205,-0.166198305
1764511894.402479,-1.96854,2.85362,-0.6714399999999999,-0.93615483,-0.296813205,-0.166198305
1764511894.402479,-1.96854,2.85362,-0.6714399999999999,-0.93615483,-0.296813205,-0.166198305
1764511894.402479,-1.96854,2.85362,-0.6714399999999999,-0.93615483,-0.296813205,-0.166198305
1764511894.402479,-1.96854,2.85362,-0.6714399999999999,-0.93615483,-0.296813205,-0.166198305
1764511894.402479,-1.96854,2.85362,-0.6714399999999999,-0.93615483,-0.296813205,-0.166198305
1764511894.402479,-2.76206,1.70912,-0.39676,-0.938657265,-0.294615945,-0.1684566
1764511894.402479,-2.76206,1.70912,-0.39676,-0.938657265,-0.294615945,-0.1684566
1764511894.402479,-2.76206,1.70912,-0.39676,-0.938657265,-0.294615945,-0.1684566
1764511894.402479,-2.76206,1.70912,-0.39676,-0.938657265,-0.294615945,-0.1684566
1764511894.402479,-2.76206,1.70912,-0.39676,-0.938657265,-0.294615945,-0.1684566
1764511894.402479,-2.76206,1.70912,-0.39676,-0.938657265,-0.294615945,-0.1684566
1764511894.402479,-2.76206,1.70912,-0.39676,-0.938657265,-0.294615945,-0.1684566
1764511894.402479,-2.76206,1.70912,-0.39676,-0.938657265,-0.294615945,-0.1684566
1764511894.402479,-2.76206,1.70912,-0.39676,-0.938657265,-0.294615945,-0.1684566
1764511894.402479,-2.76206,1.70912,-0.39676,-0.938657265,-0.294615945,-0.1684566
1764511894.4462504,-4.3491,0.85456,0.2289,-0.940122105,-0.293517315,-0.17053179
1764511894.4462504,-4.3491,0.85456,0.2289,-0.940122105,-0.293517315,-0.17053179
1764511894.4462504,-4.3491,0.85456,0.2289,-0.940122105,-0.293517315,-0.17053179
1764511894.4462504,-4.3491,0.85456,0.2289,-0.940122105,-0.293517315,-0.17053179
1764511894.4462504,-4.3491,0.85456,0.2289,-0.940122105,-0.293517315,-0.17053179
1764511894.4462504,-4.3491,0.85456,0.2289,-0.940122105,-0.293517315,-0.17053179
1764511894.4462504,-4.3491,0.85456,0.2289,-0.940122105,-0.293517315,-0.17053179
1764511894.4462504,-4.3491,0.85456,0.2289,-0.940122105,-0.293517315,-0.17053179
1764511894.4472702,-4.3491,0.85456,0.2289,-0.940122105,-0.293517315,-0.17053179
1764511894.4472702,-4.3491,0.85456,0.2289,-0.940122105,-0.293517315,-0.17053179
1764511894.4472702,-4.47118,1.46496,0.1525999999999999,-0.938657265,-0.29492112,-0.169738335
1764511894.4472702,-4.47118,1.46496,0.1525999999999999,-0.938657265,-0.29492112,-0.169738335
1764511894.4472702,-4.47118,1.46496,0.1525999999999999,-0.938657265,-0.29492112,-0.169738335
1764511894.4472702,-4.47118,1.46496,0.1525999999999999,-0.938657265,-0.29492112,-0.169738335
1764511894.4472702,-4.47118,1.46496,0.1525999999999999,-0.938657265,-0.29492112,-0.169738335
1764511894.4472702,-4.47118,1.46496,0.1525999999999999,-0.938657265,-0.29492112,-0.169738335
1764511894.4472702,-4.47118,1.46496,0.1525999999999999,-0.938657265,-0.29492112,-0.169738335
1764511894.4472702,-4.47118,1.46496,0.1525999999999999,-0.938657265,-0.29492112,-0.169738335
1764511894.4472702,-4.47118,1.46496,0.1525999999999999,-0.938657265,-0.29492112,-0.169738335
1764511894.4472702,-4.47118,1.46496,0.1525999999999999,-0.938657265,-0.29492112,-0.169738335
1764511894.4472702,-3.815,1.8006799999999998,0.39676,-0.93700932,-0.29760666,-0.16821246
1764511894.4472702,-3.815,1.8006799999999998,0.39676,-0.93700932,-0.29760666,-0.16821246
1764511894.4472702,-3.815,1.8006799999999998,0.39676,-0.93700932,-0.29760666,-0.16821246
1764511894.4472702,-3.815,1.8006799999999998,0.39676,-0.93700932,-0.29760666,-0.16821246
1764511894.4910114,-3.815,1.8006799999999998,0.39676,-0.93700932,-0.29760666,-0.16821246
1764511894.49203,-3.815,1.8006799999999998,0.39676,-0.93700932,-0.29760666,-0.16821246
1764511894.49203,-3.815,1.8006799999999998,0.39676,-0.93700932,-0.29760666,-0.16821246
1764511894.49203,-3.815,1.8006799999999998,0.39676,-0.93700932,-0.29760666,-0.16821246
1764511894.49203,-3.815,1.8006799999999998,0.39676,-0.93700932,-0.29760666,-0.16821246
1764511894.493034,-3.815,1.8006799999999998,0.39676,-0.93700932,-0.29760666,-0.16821246
1764511894.493034,-3.09778,1.69386,0.3357199999999999,-0.936093795,-0.298400115,-0.167541075
1764511894.493034,-3.09778,1.69386,0.3357199999999999,-0.936093795,-0.298400115,-0.167541075
1764511894.493034,-3.09778,1.69386,0.3357199999999999,-0.936093795,-0.298400115,-0.167541075
1764511894.493034,-3.09778,1.69386,0.3357199999999999,-0.936093795,-0.298400115,-0.167541075
1764511894.493034,-3.09778,1.69386,0.3357199999999999,-0.936093795,-0.298400115,-0.167541075
1764511894.494027,-3.09778,1.69386,0.3357199999999999,-0.936093795,-0.298400115,-0.167541075
1764511894.494027,-3.09778,1.69386,0.3357199999999999,-0.936093795,-0.298400115,-0.167541075
1764511894.495289,-3.09778,1.69386,0.3357199999999999,-0.936093795,-0.298400115,-0.167541075
1764511894.495289,-3.09778,1.69386,0.3357199999999999,-0.936093795,-0.298400115,-0.167541075
1764511894.495289,-3.09778,1.69386,0.3357199999999999,-0.936093795,-0.298400115,-0.167541075
1764511894.495289,-3.21986,1.17502,0.09156,-0.936948285,-0.29699631,-0.16833453
1764511894.495289,-3.21986,1.17502,0.09156,-0.936948285,-0.29699631,-0.16833453
1764511894.495289,-3.21986,1.17502,0.09156,-0.936948285,-0.29699631,-0.16833453
1764511894.495289,-3.21986,1.17502,0.09156,-0.936948285,-0.29699631,-0.16833453
1764511894.495289,-3.21986,1.17502,0.09156,-0.936948285,-0.29699631,-0.16833453
1764511894.495289,-3.21986,1.17502,0.09156,-0.936948285,-0.29699631,-0.16833453
1764511894.495289,-3.21986,1.17502,0.09156,-0.936948285,-0.29699631,-0.16833453
1764511894.495289,-3.21986,1.17502,0.09156,-0.936948285,-0.29699631,-0.16833453
1764511894.541121,-3.21986,1.17502,0.09156,-0.936948285,-0.29699631,-0.16833453
1764511894.541121,-3.21986,1.17502,0.09156,-0.936948285,-0.29699631,-0.16833453
1764511894.541121,-3.60136,0.9003399999999999,0.3051999999999999,-0.93786381,-0.295104225,-0.168639705
1764511894.541121,-3.60136,0.9003399999999999,0.3051999999999999,-0.93786381,-0.295104225,-0.168639705
1764511894.541121,-3.60136,0.9003399999999999,0.3051999999999999,-0.93786381,-0.295104225,-0.168639705
1764511894.541121,-3.60136,0.9003399999999999,0.3051999999999999,-0.93786381,-0.295104225,-0.168639705
1764511894.541121,-3.60136,0.9003399999999999,0.3051999999999999,-0.93786381,-0.295104225,-0.168639705
1764511894.541121,-3.60136,0.9003399999999999,0.3051999999999999,-0.93786381,-0.295104225,-0.168639705
1764511894.541121,-3.60136,0.9003399999999999,0.3051999999999999,-0.93786381,-0.295104225,-0.168639705
1764511894.541121,-3.60136,0.9003399999999999,0.3051999999999999,-0.93786381,-0.295104225,-0.168639705
1764511894.541121,-3.60136,0.9003399999999999,0.3051999999999999,-0.93786381,-0.295104225,-0.168639705
1764511894.5421133,-3.60136,0.9003399999999999,0.3051999999999999,-0.93786381,-0.295104225,-0.168639705
1764511894.5421133,-5.27996,1.35814,0.5341,-0.938657265,-0.294982155,-0.169372125
1764511894.5421133,-5.27996,1.35814,0.5341,-0.938657265,-0.294982155,-0.169372125
1764511894.5421133,-5.27996,1.35814,0.5341,-0.938657265,-0.294982155,-0.169372125
1764511894.5421133,-5.27996,1.35814,0.5341,-0.938657265,-0.294982155,-0.169372125
1764511894.5421133,-5.27996,1.35814,0.5341,-0.938657265,-0.294982155,-0.169372125
1764511894.5421133,-5.27996,1.35814,0.5341,-0.938657265,-0.294982155,-0.169372125
1764511894.5421133,-5.27996,1.35814,0.5341,-0.938657265,-0.294982155,-0.169372125
1764511894.5421133,-5.27996,1.35814,0.5341,-0.938657265,-0.294982155,-0.169372125
1764511894.5421133,-5.27996,1.35814,0.5341,-0.938657265,-0.294982155,-0.169372125
1764511894.5421133,-5.27996,1.35814,0.5341,-0.938657265,-0.294982155,-0.169372125
1764511894.5421133,-5.52412,2.15166,0.97664,-0.938291055,-0.294860085,-0.16894488
1764511894.5421133,-5.52412,2.15166,0.97664,-0.938291055,-0.294860085,-0.16894488
1764511894.5877123,-5.52412,2.15166,0.97664,-0.938291055,-0.294860085,-0.16894488
1764511894.5877123,-5.52412,2.15166,0.97664,-0.938291055,-0.294860085,-0.16894488
1764511894.5877123,-5.52412,2.15166,0.97664,-0.938291055,-0.294860085,-0.16894488
1764511894.5877123,-5.52412,2.15166,0.97664,-0.938291055,-0.294860085,-0.16894488
1764511894.5877123,-5.52412,2.15166,0.97664,-0.938291055,-0.294860085,-0.16894488
1764511894.5877123,-5.52412,2.15166,0.97664,-0.938291055,-0.294860085,-0.16894488
1764511894.5877123,-5.52412,2.15166,0.97664,-0.938291055,-0.294860085,-0.16894488
1764511894.5877123,-5.52412,2.15166,0.97664,-0.938291055,-0.294860085,-0.16894488
1764511894.5877123,-4.02864,2.1364,-0.56462,-0.939023475,-0.295836645,-0.168395565
1764511894.589231,-4.02864,2.1364,-0.56462,-0.939023475,-0.295836645,-0.168395565
1764511894.589231,-4.02864,2.1364,-0.56462,-0.939023475,-0.295836645,-0.168395565
1764511894.589231,-4.02864,2.1364,-0.56462,-0.939023475,-0.295836645,-0.168395565
1764511894.589231,-4.02864,2.1364,-0.56462,-0.939023475,-0.295836645,-0.168395565
1764511894.589231,-4.02864,2.1364,-0.56462,-0.939023475,-0.295836645,-0.168395565
1764511894.589231,-4.02864,2.1364,-0.56462,-0.939023475,-0.295836645,-0.168395565
1764511894.590248,-4.02864,2.1364,-0.56462,-0.939023475,-0.295836645,-0.168395565
1764511894.590248,-4.02864,2.1364,-0.56462,-0.939023475,-0.295836645,-0.168395565
1764511894.590248,-4.02864,2.1364,-0.56462,-0.939023475,-0.295836645,-0.168395565
1764511894.590248,-2.6705,0.93086,0.47306,-0.9387183,-0.298278045,-0.167174865
1764511894.590248,-2.6705,0.93086,0.47306,-0.9387183,-0.298278045,-0.167174865
1764511894.590248,-2.6705,0.93086,0.47306,-0.9387183,-0.298278045,-0.167174865
1764511894.5912485,-2.6705,0.93086,0.47306,-0.9387183,-0.298278045,-0.167174865
1764511894.6318274,-2.6705,0.93086,0.47306,-0.9387183,-0.298278045,-0.167174865
1764511894.6318274,-2.6705,0.93086,0.47306,-0.9387183,-0.298278045,-0.167174865
1764511894.6318274,-2.6705,0.93086,0.47306,-0.9387183,-0.298278045,-0.167174865
1764511894.6318274,-2.6705,0.93086,0.47306,-0.9387183,-0.298278045,-0.167174865
1764511894.6318274,-2.6705,0.93086,0.47306,-0.9387183,-0.298278045,-0.167174865
1764511894.6318274,-2.6705,0.93086,0.47306,-0.9387183,-0.298278045,-0.167174865
1764511894.6318274,-3.40298,1.64808,0.88508,-0.93615483,-0.29846115,-0.16564899
1764511894.632842,-3.40298,1.64808,0.88508,-0.93615483,-0.29846115,-0.16564899
1764511894.632842,-3.40298,1.64808,0.88508,-0.93615483,-0.29846115,-0.16564899
1764511894.632842,-3.40298,1.64808,0.88508,-0.93615483,-0.29846115,-0.16564899
1764511894.632842,-3.40298,1.64808,0.88508,-0.93615483,-0.29846115,-0.16564899
1764511894.632842,-3.40298,1.64808,0.88508,-0.93615483,-0.29846115,-0.16564899
1764511894.6338408,-3.40298,1.64808,0.88508,-0.93615483,-0.29846115,-0.16564899
1764511894.6338408,-3.40298,1.64808,0.88508,-0.93615483,-0.29846115,-0.16564899
1764511894.6338408,-3.40298,1.64808,0.88508,-0.93615483,-0.29846115,-0.16564899
1764511894.6338408,-3.40298,1.64808,0.88508,-0.93615483,-0.29846115,-0.16564899
1764511894.6338408,-4.13546,1.61756,0.06104,-0.93688725,-0.297545625,-0.16577106
1764511894.6338408,-4.13546,1.61756,0.06104,-0.93688725,-0.297545625,-0.16577106
1764511894.6338408,-4.13546,1.61756,0.06104,-0.93688725,-0.297545625,-0.16577106
1764511894.6353557,-4.13546,1.61756,0.06104,-0.93688725,-0.297545625,-0.16577106
1764511894.6353557,-4.13546,1.61756,0.06104,-0.93688725,-0.297545625,-0.16577106
1764511894.6353557,-4.13546,1.61756,0.06104,-0.93688725,-0.297545625,-0.16577106
1764511894.6353557,-4.13546,1.61756,0.06104,-0.93688725,-0.297545625,-0.16577106
1764511894.6353557,-4.13546,1.61756,0.06104,-0.93688725,-0.297545625,-0.16577106
1764511894.6800928,-4.13546,1.61756,0.06104,-0.93688725,-0.297545625,-0.16577106
1764511894.6800928,-4.13546,1.61756,0.06104,-0.93688725,-0.297545625,-0.16577106
1764511894.6800928,-4.70008,1.1445,-0.39676,-0.93896244,-0.296202855,-0.166808655
1764511894.6800928,-4.70008,1.1445,-0.39676,-0.93896244,-0.296202855,-0.166808655
1764511894.6811128,-4.70008,1.1445,-0.39676,-0.93896244,-0.296202855,-0.166808655
1764511894.6811128,-4.70008,1.1445,-0.39676,-0.93896244,-0.296202855,-0.166808655
1764511894.6811128,-4.70008,1.1445,-0.39676,-0.93896244,-0.296202855,-0.166808655
1764511894.6811128,-4.70008,1.1445,-0.39676,-0.93896244,-0.296202855,-0.166808655
1764511894.6811128,-4.70008,1.1445,-0.39676,-0.93896244,-0.296202855,-0.166808655
1764511894.6811128,-4.70008,1.1445,-0.39676,-0.93896244,-0.296202855,-0.166808655
1764511894.6811128,-4.70008,1.1445,-0.39676,-0.93896244,-0.296202855,-0.166808655
1764511894.6811128,-4.70008,1.1445,-0.39676,-0.93896244,-0.296202855,-0.166808655
1764511894.6811128,-4.62378,1.05294,-0.57988,-0.938779335,-0.296569065,-0.16833453
1764511894.6811128,-4.62378,1.05294,-0.57988,-0.938779335,-0.296569065,-0.16833453
1764511894.6811128,-4.62378,1.05294,-0.57988,-0.938779335,-0.296569065,-0.16833453
1764511894.6811128,-4.62378,1.05294,-0.57988,-0.938779335,-0.296569065,-0.16833453
1764511894.6811128,-4.62378,1.05294,-0.57988,-0.938779335,-0.296569065,-0.16833453
1764511894.6811128,-4.62378,1.05294,-0.57988,-0.938779335,-0.296569065,-0.16833453
1764511894.6811128,-4.62378,1.05294,-0.57988,-0.938779335,-0.296569065,-0.16833453
1764511894.6811128,-4.62378,1.05294,-0.57988,-0.938779335,-0.296569065,-0.16833453
1764511894.6811128,-4.62378,1.05294,-0.57988,-0.938779335,-0.296569065,-0.16833453
1764511894.6811128,-4.62378,1.05294,-0.57988,-0.938779335,-0.296569065,-0.16833453
1764511894.7276895,-5.21892,1.35814,0.25942,-0.93761967,-0.29821701,-0.168395565
1764511894.7276895,-5.21892,1.35814,0.25942,-0.93761967,-0.29821701,-0.168395565
1764511894.7276895,-5.21892,1.35814,0.25942,-0.93761967,-0.29821701,-0.168395565
1764511894.7287028,-5.21892,1.35814,0.25942,-0.93761967,-0.29821701,-0.168395565
1764511894.7287028,-5.21892,1.35814,0.25942,-0.93761967,-0.29821701,-0.168395565
1764511894.7287028,-5.21892,1.35814,0.25942,-0.93761967,-0.29821701,-0.168395565
1764511894.7287028,-5.21892,1.35814,0.25942,-0.93761967,-0.29821701,-0.168395565
1764511894.7287028,-5.21892,1.35814,0.25942,-0.93761967,-0.29821701,-0.168395565
1764511894.7287028,-5.21892,1.35814,0.25942,-0.93761967,-0.29821701,-0.168395565
1764511894.7287028,-5.21892,1.35814,0.25942,-0.93761967,-0.29821701,-0.168395565
1764511894.729704,-4.1202,2.18218,0.3509799999999999,-0.934628955,-0.29919357,-0.167541075
1764511894.729704,-4.1202,2.18218,0.3509799999999999,-0.934628955,-0.29919357,-0.167541075
1764511894.729704,-4.1202,2.18218,0.3509799999999999,-0.934628955,-0.29919357,-0.167541075
1764511894.729704,-4.1202,2.18218,0.3509799999999999,-0.934628955,-0.29919357,-0.167541075
1764511894.729704,-4.1202,2.18218,0.3509799999999999,-0.934628955,-0.29919357,-0.167541075
1764511894.729704,-4.1202,2.18218,0.3509799999999999,-0.934628955,-0.29919357,-0.167541075
1764511894.729704,-4.1202,2.18218,0.3509799999999999,-0.934628955,-0.29919357,-0.167541075
1764511894.729704,-4.1202,2.18218,0.3509799999999999,-0.934628955,-0.29919357,-0.167541075
1764511894.729704,-4.1202,2.18218,0.3509799999999999,-0.934628955,-0.29919357,-0.167541075
1764511894.729704,-4.1202,2.18218,0.3509799999999999,-0.934628955,-0.29919357,-0.167541075
1764511894.729704,-2.96044,1.87698,0.3204599999999999,-0.93517827,-0.298155975,-0.16577106
1764511894.729704,-2.96044,1.87698,0.3204599999999999,-0.93517827,-0.298155975,-0.16577106
1764511894.729704,-2.96044,1.87698,0.3204599999999999,-0.93517827,-0.298155975,-0.16577106
1764511894.729704,-2.96044,1.87698,0.3204599999999999,-0.93517827,-0.298155975,-0.16577106
1764511894.7735133,-2.96044,1.87698,0.3204599999999999,-0.93517827,-0.298155975,-0.16577106
1764511894.7735133,-2.96044,1.87698,0.3204599999999999,-0.93517827,-0.298155975,-0.16577106
1764511894.7735133,-2.96044,1.87698,0.3204599999999999,-0.93517827,-0.298155975,-0.16577106
1764511894.7735133,-2.96044,1.87698,0.3204599999999999,-0.93517827,-0.298155975,-0.16577106
1764511894.7735133,-2.96044,1.87698,0.3204599999999999,-0.93517827,-0.298155975,-0.16577106
1764511894.7735133,-2.96044,1.87698,0.3204599999999999,-0.93517827,-0.298155975,-0.16577106
1764511894.7735133,-3.08252,1.32762,0.12208,-0.93713139,-0.296324925,-0.16503864
1764511894.7735133,-3.08252,1.32762,0.12208,-0.93713139,-0.296324925,-0.16503864
1764511894.7735133,-3.08252,1.32762,0.12208,-0.93713139,-0.296324925,-0.16503864
1764511894.7735133,-3.08252,1.32762,0.12208,-0.93713139,-0.296324925,-0.16503864
1764511894.7735133,-3.08252,1.32762,0.12208,-0.93713139,-0.296324925,-0.16503864
1764511894.7735133,-3.08252,1.32762,0.12208,-0.93713139,-0.296324925,-0.16503864
1764511894.7746396,-3.08252,1.32762,0.12208,-0.93713139,-0.296324925,-0.16503864
1764511894.7746396,-3.08252,1.32762,0.12208,-0.93713139,-0.296324925,-0.16503864
1764511894.7746396,-3.08252,1.32762,0.12208,-0.93713139,-0.296324925,-0.16503864
1764511894.7746396,-3.08252,1.32762,0.12208,-0.93713139,-0.296324925,-0.16503864
1764511894.7746396,-4.77638,0.73248,0.9919,-0.937192425,-0.294005595,-0.16650348
1764511894.7746396,-4.77638,0.73248,0.9919,-0.937192425,-0.294005595,-0.16650348
1764511894.7746396,-4.77638,0.73248,0.9919,-0.937192425,-0.294005595,-0.16650348
1764511894.7746396,-4.77638,0.73248,0.9919,-0.937192425,-0.294005595,-0.16650348
1764511894.7746396,-4.77638,0.73248,0.9919,-0.937192425,-0.294005595,-0.16650348
1764511894.7746396,-4.77638,0.73248,0.9919,-0.937192425,-0.294005595,-0.16650348
1764511894.7746396,-4.77638,0.73248,0.9919,-0.937192425,-0.294005595,-0.16650348
1764511894.7746396,-4.77638,0.73248,0.9919,-0.937192425,-0.294005595,-0.16650348
1764511894.8199286,-4.77638,0.73248,0.9919,-0.937192425,-0.294005595,-0.16650348
1764511894.8199286,-4.77638,0.73248,0.9919,-0.937192425,-0.294005595,-0.16650348
1764511894.8199286,-6.134519999999999,0.9156,0.6103999999999999,-0.93700932,-0.29467698,-0.16772418
1764511894.8199286,-6.134519999999999,0.9156,0.6103999999999999,-0.93700932,-0.29467698,-0.16772418
1764511894.8199286,-6.134519999999999,0.9156,0.6103999999999999,-0.93700932,-0.29467698,-0.16772418
1764511894.8199286,-6.134519999999999,0.9156,0.6103999999999999,-0.93700932,-0.29467698,-0.16772418
1764511894.8199286,-6.134519999999999,0.9156,0.6103999999999999,-0.93700932,-0.29467698,-0.16772418
1764511894.8199286,-6.134519999999999,0.9156,0.6103999999999999,-0.93700932,-0.29467698,-0.16772418
1764511894.8199286,-6.134519999999999,0.9156,0.6103999999999999,-0.93700932,-0.29467698,-0.16772418
1764511894.8199286,-6.134519999999999,0.9156,0.6103999999999999,-0.93700932,-0.29467698,-0.16772418
1764511894.8199286,-6.134519999999999,0.9156,0.6103999999999999,-0.93700932,-0.29467698,-0.16772418
1764511894.8199286,-6.134519999999999,0.9156,0.6103999999999999,-0.93700932,-0.29467698,-0.16772418
1764511894.8199286,-5.98192,1.54126,0.3509799999999999,-0.93652104,-0.296569065,-0.16821246
1764511894.8199286,-5.98192,1.54126,0.3509799999999999,-0.93652104,-0.296569065,-0.16821246
1764511894.8199286,-5.98192,1.54126,0.3509799999999999,-0.93652104,-0.296569065,-0.16821246
1764511894.8199286,-5.98192,1.54126,0.3509799999999999,-0.93652104,-0.296569065,-0.16821246
1764511894.8199286,-5.98192,1.54126,0.3509799999999999,-0.93652104,-0.296569065,-0.16821246
1764511894.8199286,-5.98192,1.54126,0.3509799999999999,-0.93652104,-0.296569065,-0.16821246
1764511894.8199286,-5.98192,1.54126,0.3509799999999999,-0.93652104,-0.296569065,-0.16821246
1764511894.8199286,-5.98192,1.54126,0.3509799999999999,-0.93652104,-0.296569065,-0.16821246
1764511894.8199286,-5.98192,1.54126,0.3509799999999999,-0.93652104,-0.296569065,-0.16821246
1764511894.8199286,-5.98192,1.54126,0.3509799999999999,-0.93652104,-0.296569065,-0.16821246
1764511894.8651564,-4.63904,1.78542,0.06104,-0.936826215,-0.29821701,-0.169250055
1764511894.8651564,-4.63904,1.78542,0.06104,-0.936826215,-0.29821701,-0.169250055
1764511894.8651564,-4.63904,1.78542,0.06104,-0.936826215,-0.29821701,-0.169250055
1764511894.8651564,-4.63904,1.78542,0.06104,-0.936826215,-0.29821701,-0.169250055
1764511894.8651564,-4.63904,1.78542,0.06104,-0.936826215,-0.29821701,-0.169250055
1764511894.8651564,-4.63904,1.78542,0.06104,-0.936826215,-0.29821701,-0.169250055
1764511894.8657064,-4.63904,1.78542,0.06104,-0.936826215,-0.29821701,-0.169250055
1764511894.8657064,-4.63904,1.78542,0.06104,-0.936826215,-0.29821701,-0.169250055
1764511894.8657064,-4.63904,1.78542,0.06104,-0.936826215,-0.29821701,-0.169250055
1764511894.8657064,-4.63904,1.78542,0.06104,-0.936826215,-0.29821701,-0.169250055
1764511894.8657064,-3.72344,1.6633399999999998,0.39676,-0.936826215,-0.299010465,-0.168639705
1764511894.8657064,-3.72344,1.6633399999999998,0.39676,-0.936826215,-0.299010465,-0.168639705
1764511894.8657064,-3.72344,1.6633399999999998,0.39676,-0.936826215,-0.299010465,-0.168639705
1764511894.8657064,-3.72344,1.6633399999999998,0.39676,-0.936826215,-0.299010465,-0.168639705
1764511894.8657064,-3.72344,1.6633399999999998,0.39676,-0.936826215,-0.299010465,-0.168639705
1764511894.8657064,-3.72344,1.6633399999999998,0.39676,-0.936826215,-0.299010465,-0.168639705
1764511894.8677216,-3.72344,1.6633399999999998,0.39676,-0.936826215,-0.299010465,-0.168639705
1764511894.8677216,-3.72344,1.6633399999999998,0.39676,-0.936826215,-0.299010465,-0.168639705
1764511894.8677216,-3.72344,1.6633399999999998,0.39676,-0.936826215,-0.299010465,-0.168639705
1764511894.8677216,-3.72344,1.6633399999999998,0.39676,-0.936826215,-0.299010465,-0.168639705
1764511894.8677216,-3.32668,1.86172,0.8698199999999999,-0.936948285,-0.298278045,-0.16809039
1764511894.8677216,-3.32668,1.86172,0.8698199999999999,-0.936948285,-0.298278045,-0.16809039
1764511894.9139185,-3.32668,1.86172,0.8698199999999999,-0.936948285,-0.298278045,-0.16809039
1764511894.9139185,-3.32668,1.86172,0.8698199999999999,-0.936948285,-0.298278045,-0.16809039
1764511894.9139185,-3.32668,1.86172,0.8698199999999999,-0.936948285,-0.298278045,-0.16809039
1764511894.9139185,-3.32668,1.86172,0.8698199999999999,-0.936948285,-0.298278045,-0.16809039
1764511894.9139185,-3.32668,1.86172,0.8698199999999999,-0.936948285,-0.298278045,-0.16809039
1764511894.9139185,-3.32668,1.86172,0.8698199999999999,-0.936948285,-0.298278045,-0.16809039
1764511894.9139185,-3.32668,1.86172,0.8698199999999999,-0.936948285,-0.298278045,-0.16809039
1764511894.9139185,-3.32668,1.86172,0.8698199999999999,-0.936948285,-0.298278045,-0.16809039
1764511894.9139185,-4.59326,1.78542,0.6409199999999999,-0.93652104,-0.296569065,-0.16686969
1764511894.9139185,-4.59326,1.78542,0.6409199999999999,-0.93652104,-0.296569065,-0.16686969
1764511894.9139185,-4.59326,1.78542,0.6409199999999999,-0.93652104,-0.296569065,-0.16686969
1764511894.9139185,-4.59326,1.78542,0.6409199999999999,-0.93652104,-0.296569065,-0.16686969
1764511894.9139185,-4.59326,1.78542,0.6409199999999999,-0.93652104,-0.296569065,-0.16686969
1764511894.9139185,-4.59326,1.78542,0.6409199999999999,-0.93652104,-0.296569065,-0.16686969
1764511894.9139185,-4.59326,1.78542,0.6409199999999999,-0.93652104,-0.296569065,-0.16686969
1764511894.9139185,-4.59326,1.78542,0.6409199999999999,-0.93652104,-0.296569065,-0.16686969
1764511894.9139185,-4.59326,1.78542,0.6409199999999999,-0.93652104,-0.296569065,-0.16686969
1764511894.9154303,-4.59326,1.78542,0.6409199999999999,-0.93652104,-0.296569065,-0.16686969
1764511894.9154303,-5.32574,1.49548,0.44254,-0.93652104,-0.294493875,-0.167052795
1764511894.9154303,-5.32574,1.49548,0.44254,-0.93652104,-0.294493875,-0.167052795
1764511894.9154303,-5.32574,1.49548,0.44254,-0.93652104,-0.294493875,-0.167052795
1764511894.9154303,-5.32574,1.49548,0.44254,-0.93652104,-0.294493875,-0.167052795
1764511894.958715,-5.32574,1.49548,0.44254,-0.93652104,-0.294493875,-0.167052795
1764511894.958715,-5.32574,1.49548,0.44254,-0.93652104,-0.294493875,-0.167052795
1764511894.958715,-5.32574,1.49548,0.44254,-0.93652104,-0.294493875,-0.167052795
1764511894.958715,-5.32574,1.49548,0.44254,-0.93652104,-0.294493875,-0.167052795
1764511894.958715,-5.32574,1.49548,0.44254,-0.93652104,-0.294493875,-0.167052795
1764511894.958715,-5.32574,1.49548,0.44254,-0.93652104,-0.294493875,-0.167052795
1764511894.958715,-5.84458,1.08346,-0.04578,-0.936826215,-0.294005595,-0.167785215
1764511894.958715,-5.84458,1.08346,-0.04578,-0.936826215,-0.294005595,-0.167785215
1764511894.958715,-5.84458,1.08346,-0.04578,-0.936826215,-0.294005595,-0.167785215
1764511894.958715,-5.84458,1.08346,-0.04578,-0.936826215,-0.294005595,-0.167785215
1764511894.958715,-5.84458,1.08346,-0.04578,-0.936826215,-0.294005595,-0.167785215
1764511894.958715,-5.84458,1.08346,-0.04578,-0.936826215,-0.294005595,-0.167785215
1764511894.958715,-5.84458,1.08346,-0.04578,-0.936826215,-0.294005595,-0.167785215
1764511894.9597294,-5.84458,1.08346,-0.04578,-0.936826215,-0.294005595,-0.167785215
1764511894.9597294,-5.84458,1.08346,-0.04578,-0.936826215,-0.294005595,-0.167785215
1764511894.9597294,-5.84458,1.08346,-0.04578,-0.936826215,-0.294005595,-0.167785215
1764511894.9597294,-6.683879999999999,0.85456,0.3357199999999999,-0.938413125,-0.29614182,-0.16931109
1764511894.9597294,-6.683879999999999,0.85456,0.3357199999999999,-0.938413125,-0.29614182,-0.16931109
1764511894.9597294,-6.683879999999999,0.85456,0.3357199999999999,-0.938413125,-0.29614182,-0.16931109
1764511894.9597294,-6.683879999999999,0.85456,0.3357199999999999,-0.938413125,-0.29614182,-0.16931109
1764511894.9627438,-6.683879999999999,0.85456,0.3357199999999999,-0.938413125,-0.29614182,-0.16931109
1764511894.9627438,-6.683879999999999,0.85456,0.3357199999999999,-0.938413125,-0.29614182,-0.16931109
1764511894.9627438,-6.683879999999999,0.85456,0.3357199999999999,-0.938413125,-0.29614182,-0.16931109
1764511894.9627438,-6.683879999999999,0.85456,0.3357199999999999,-0.938413125,-0.29614182,-0.16931109
1764511894.9627438,-6.683879999999999,0.85456,0.3357199999999999,-0.938413125,-0.29614182,-0.16931109
1764511894.9627438,-6.683879999999999,0.85456,0.3357199999999999,-0.938413125,-0.29614182,-0.16931109
1764511895.0036626,-6.37868,1.11398,1.57178,-0.93652104,-0.297057345,-0.169005915
1764511895.0052202,-6.37868,1.11398,1.57178,-0.93652104,-0.297057345,-0.169005915
1764511895.0052202,-6.37868,1.11398,1.57178,-0.93652104,-0.297057345,-0.169005915
1764511895.0052202,-6.37868,1.11398,1.57178,-0.93652104,-0.297057345,-0.169005915
1764511895.0052202,-6.37868,1.11398,1.57178,-0.93652104,-0.297057345,-0.169005915
1764511895.0052202,-6.37868,1.11398,1.57178,-0.93652104,-0.297057345,-0.169005915
1764511895.006237,-6.37868,1.11398,1.57178,-0.93652104,-0.297057345,-0.169005915
1764511895.006237,-6.37868,1.11398,1.57178,-0.93652104,-0.297057345,-0.169005915
1764511895.006237,-6.37868,1.11398,1.57178,-0.93652104,-0.297057345,-0.169005915
1764511895.006237,-6.37868,1.11398,1.57178,-0.93652104,-0.297057345,-0.169005915
1764511895.006237,-3.14356,2.41108,0.41202,-0.935239305,-0.29894943,-0.16735797
1764511895.006237,-3.14356,2.41108,0.41202,-0.935239305,-0.29894943,-0.16735797
1764511895.0072448,-3.14356,2.41108,0.41202,-0.935239305,-0.29894943,-0.16735797
1764511895.0077648,-3.14356,2.41108,0.41202,-0.935239305,-0.29894943,-0.16735797
1764511895.0077648,-3.14356,2.41108,0.41202,-0.935239305,-0.29894943,-0.16735797
1764511895.0077648,-3.14356,2.41108,0.41202,-0.935239305,-0.29894943,-0.16735797
1764511895.0077648,-3.14356,2.41108,0.41202,-0.935239305,-0.29894943,-0.16735797
1764511895.008786,-3.14356,2.41108,0.41202,-0.935239305,-0.29894943,-0.16735797
1764511895.008786,-3.14356,2.41108,0.41202,-0.935239305,-0.29894943,-0.16735797
1764511895.0091877,-3.14356,2.41108,0.41202,-0.935239305,-0.29894943,-0.16735797
1764511895.0091877,-1.34288,1.38866,0.1525999999999999,-0.93737553,-0.301329795,-0.16625934
1764511895.0091877,-1.34288,1.38866,0.1525999999999999,-0.93737553,-0.301329795,-0.16625934
1764511895.0091877,-1.34288,1.38866,0.1525999999999999,-0.93737553,-0.301329795,-0.16625934
1764511895.0097952,-1.34288,1.38866,0.1525999999999999,-0.93737553,-0.301329795,-0.16625934
1764511895.0554628,-1.34288,1.38866,0.1525999999999999,-0.93737553,-0.301329795,-0.16625934
1764511895.0554628,-1.34288,1.38866,0.1525999999999999,-0.93737553,-0.301329795,-0.16625934
1764511895.0554628,-1.34288,1.38866,0.1525999999999999,-0.93737553,-0.301329795,-0.16625934
1764511895.0554628,-1.34288,1.38866,0.1525999999999999,-0.93737553,-0.301329795,-0.16625934
1764511895.0554628,-1.34288,1.38866,0.1525999999999999,-0.93737553,-0.301329795,-0.16625934
1764511895.0554628,-1.34288,1.38866,0.1525999999999999,-0.93737553,-0.301329795,-0.16625934
1764511895.0554628,-2.19744,1.95328,0.3509799999999999,-0.936460005,-0.29980392,-0.16467243
1764511895.0554628,-2.19744,1.95328,0.3509799999999999,-0.936460005,-0.29980392,-0.16467243
1764511895.0554628,-2.19744,1.95328,0.3509799999999999,-0.936460005,-0.29980392,-0.16467243
1764511895.0554628,-2.19744,1.95328,0.3509799999999999,-0.936460005,-0.29980392,-0.16467243
1764511895.0554628,-2.19744,1.95328,0.3509799999999999,-0.936460005,-0.29980392,-0.16467243
1764511895.0554628,-2.19744,1.95328,0.3509799999999999,-0.936460005,-0.29980392,-0.16467243
1764511895.0554628,-2.19744,1.95328,0.3509799999999999,-0.936460005,-0.29980392,-0.16467243
1764511895.0554628,-2.19744,1.95328,0.3509799999999999,-0.936460005,-0.29980392,-0.16467243
1764511895.0554628,-2.19744,1.95328,0.3509799999999999,-0.936460005,-0.29980392,-0.16467243
1764511895.0554628,-2.19744,1.95328,0.3509799999999999,-0.936460005,-0.29980392,-0.16467243
1764511895.0554628,-4.2728,2.289,-0.21364,-0.937680705,-0.29516526,-0.16503864
1764511895.0554628,-4.2728,2.289,-0.21364,-0.937680705,-0.29516526,-0.16503864
1764511895.0554628,-4.2728,2.289,-0.21364,-0.937680705,-0.29516526,-0.16503864
1764511895.0554628,-4.2728,2.289,-0.21364,-0.937680705,-0.29516526,-0.16503864
1764511895.0554628,-4.2728,2.289,-0.21364,-0.937680705,-0.29516526,-0.16503864
1764511895.0554628,-4.2728,2.289,-0.21364,-0.937680705,-0.29516526,-0.16503864
1764511895.0554628,-4.2728,2.289,-0.21364,-0.937680705,-0.29516526,-0.16503864
1764511895.0554628,-4.2728,2.289,-0.21364,-0.937680705,-0.29516526,-0.16503864
1764511895.0994868,-4.2728,2.289,-0.21364,-0.937680705,-0.29516526,-0.16503864
1764511895.1000006,-4.2728,2.289,-0.21364,-0.937680705,-0.29516526,-0.16503864
1764511895.1000006,-4.7306,1.2055399999999998,-0.3815,-0.939877965,-0.292906965,-0.16760211
1764511895.1000006,-4.7306,1.2055399999999998,-0.3815,-0.939877965,-0.292906965,-0.16760211
1764511895.1000006,-4.7306,1.2055399999999998,-0.3815,-0.939877965,-0.292906965,-0.16760211
1764511895.1000006,-4.7306,1.2055399999999998,-0.3815,-0.939877965,-0.292906965,-0.16760211
1764511895.1000006,-4.7306,1.2055399999999998,-0.3815,-0.939877965,-0.292906965,-0.16760211
1764511895.1000006,-4.7306,1.2055399999999998,-0.3815,-0.939877965,-0.292906965,-0.16760211
1764511895.1000006,-4.7306,1.2055399999999998,-0.3815,-0.939877965,-0.292906965,-0.16760211
1764511895.1000006,-4.7306,1.2055399999999998,-0.3815,-0.939877965,-0.292906965,-0.16760211
1764511895.1000006,-4.7306,1.2055399999999998,-0.3815,-0.939877965,-0.292906965,-0.16760211
1764511895.1000006,-4.7306,1.2055399999999998,-0.3815,-0.939877965,-0.292906965,-0.16760211
1764511895.1000006,-5.92088,0.47306,0.03052,-0.93969486,-0.293517315,-0.17016558
1764511895.1000006,-5.92088,0.47306,0.03052,-0.93969486,-0.293517315,-0.17016558
1764511895.1000006,-5.92088,0.47306,0.03052,-0.93969486,-0.293517315,-0.17016558
1764511895.1000006,-5.92088,0.47306,0.03052,-0.93969486,-0.293517315,-0.17016558
1764511895.1000006,-5.92088,0.47306,0.03052,-0.93969486,-0.293517315,-0.17016558
1764511895.1000006,-5.92088,0.47306,0.03052,-0.93969486,-0.293517315,-0.17016558
1764511895.1000006,-5.92088,0.47306,0.03052,-0.93969486,-0.293517315,-0.17016558
1764511895.1000006,-5.92088,0.47306,0.03052,-0.93969486,-0.293517315,-0.17016558
1764511895.1000006,-5.92088,0.47306,0.03052,-0.93969486,-0.293517315,-0.17016558
1764511895.1000006,-5.92088,0.47306,0.03052,-0.93969486,-0.293517315,-0.17016558
1764511895.1000006,-4.822159999999999,1.15976,0.65618,-0.937192425,-0.295958715,-0.17040972
1764511895.1000006,-4.822159999999999,1.15976,0.65618,-0.937192425,-0.295958715,-0.17040972
1764511895.147837,-4.822159999999999,1.15976,0.65618,-0.937192425,-0.295958715,-0.17040972
1764511895.147837,-4.822159999999999,1.15976,0.65618,-0.937192425,-0.295958715,-0.17040972
1764511895.147837,-4.822159999999999,1.15976,0.65618,-0.937192425,-0.295958715,-0.17040972
1764511895.147837,-4.822159999999999,1.15976,0.65618,-0.937192425,-0.295958715,-0.17040972
1764511895.149034,-4.822159999999999,1.15976,0.65618,-0.937192425,-0.295958715,-0.17040972
1764511895.149034,-4.822159999999999,1.15976,0.65618,-0.937192425,-0.295958715,-0.17040972
1764511895.149034,-4.822159999999999,1.15976,0.65618,-0.937192425,-0.295958715,-0.17040972
1764511895.149034,-4.822159999999999,1.15976,0.65618,-0.937192425,-0.295958715,-0.17040972
1764511895.149034,-2.96044,2.02958,0.94612,-0.935605515,-0.29894943,-0.169372125
1764511895.149034,-2.96044,2.02958,0.94612,-0.935605515,-0.29894943,-0.169372125
1764511895.149034,-2.96044,2.02958,0.94612,-0.935605515,-0.29894943,-0.169372125
1764511895.149034,-2.96044,2.02958,0.94612,-0.935605515,-0.29894943,-0.169372125
1764511895.149034,-2.96044,2.02958,0.94612,-0.935605515,-0.29894943,-0.169372125
1764511895.149034,-2.96044,2.02958,0.94612,-0.935605515,-0.29894943,-0.169372125
1764511895.149034,-2.96044,2.02958,0.94612,-0.935605515,-0.29894943,-0.169372125
1764511895.149034,-2.96044,2.02958,0.94612,-0.935605515,-0.29894943,-0.169372125
1764511895.1505418,-2.96044,2.02958,0.94612,-0.935605515,-0.29894943,-0.169372125
1764511895.1505418,-2.96044,2.02958,0.94612,-0.935605515,-0.29894943,-0.169372125
1764511895.1511009,-2.33478,1.9838,0.85456,-0.93566655,-0.29980392,-0.16882281
1764511895.1511009,-2.33478,1.9838,0.85456,-0.93566655,-0.29980392,-0.16882281
1764511895.1515553,-2.33478,1.9838,0.85456,-0.93566655,-0.29980392,-0.16882281
1764511895.1515553,-2.33478,1.9838,0.85456,-0.93566655,-0.29980392,-0.16882281
1764511895.1515553,-2.33478,1.9838,0.85456,-0.93566655,-0.29980392,-0.16882281
1764511895.1515553,-2.33478,1.9838,0.85456,-0.93566655,-0.29980392,-0.16882281
1764511895.195619,-2.33478,1.9838,0.85456,-0.93566655,-0.29980392,-0.16882281
1764511895.195619,-2.33478,1.9838,0.85456,-0.93566655,-0.29980392,-0.16882281
1764511895.195619,-2.33478,1.9838,0.85456,-0.93566655,-0.29980392,-0.16882281
1764511895.195619,-2.33478,1.9838,0.85456,-0.93566655,-0.29980392,-0.16882281
1764511895.195619,-2.96044,1.63282,0.3204599999999999,-0.93737553,-0.2966301,-0.1684566
1764511895.195619,-2.96044,1.63282,0.3204599999999999,-0.93737553,-0.2966301,-0.1684566
1764511895.195619,-2.96044,1.63282,0.3204599999999999,-0.93737553,-0.2966301,-0.1684566
1764511895.195619,-2.96044,1.63282,0.3204599999999999,-0.93737553,-0.2966301,-0.1684566
1764511895.195619,-2.96044,1.63282,0.3204599999999999,-0.93737553,-0.2966301,-0.1684566
1764511895.195619,-2.96044,1.63282,0.3204599999999999,-0.93737553,-0.2966301,-0.1684566
1764511895.195619,-2.96044,1.63282,0.3204599999999999,-0.93737553,-0.2966301,-0.1684566
1764511895.195619,-2.96044,1.63282,0.3204599999999999,-0.93737553,-0.2966301,-0.1684566
1764511895.195619,-2.96044,1.63282,0.3204599999999999,-0.93737553,-0.2966301,-0.1684566
1764511895.195619,-2.96044,1.63282,0.3204599999999999,-0.93737553,-0.2966301,-0.1684566
1764511895.195619,-4.56274,1.2971,0.97664,-0.93859623,-0.29455491,-0.168273495
1764511895.195619,-4.56274,1.2971,0.97664,-0.93859623,-0.29455491,-0.168273495
1764511895.195619,-4.56274,1.2971,0.97664,-0.93859623,-0.29455491,-0.168273495
1764511895.195619,-4.56274,1.2971,0.97664,-0.93859623,-0.29455491,-0.168273495
1764511895.196637,-4.56274,1.2971,0.97664,-0.93859623,-0.29455491,-0.168273495
1764511895.196637,-4.56274,1.2971,0.97664,-0.93859623,-0.29455491,-0.168273495
1764511895.196637,-4.56274,1.2971,0.97664,-0.93859623,-0.29455491,-0.168273495
1764511895.196637,-4.56274,1.2971,0.97664,-0.93859623,-0.29455491,-0.168273495
1764511895.240234,-4.56274,1.2971,0.97664,-0.93859623,-0.29455491,-0.168273495
1764511895.240234,-4.56274,1.2971,0.97664,-0.93859623,-0.29455491,-0.168273495
1764511895.2407494,-6.76018,1.2055399999999998,0.59514,-0.938168985,-0.294860085,-0.168883845
1764511895.2407494,-6.76018,1.2055399999999998,0.59514,-0.938168985,-0.294860085,-0.168883845
1764511895.2407494,-6.76018,1.2055399999999998,0.59514,-0.938168985,-0.294860085,-0.168883845
1764511895.2407494,-6.76018,1.2055399999999998,0.59514,-0.938168985,-0.294860085,-0.168883845
1764511895.2407494,-6.76018,1.2055399999999998,0.59514,-0.938168985,-0.294860085,-0.168883845
1764511895.2407494,-6.76018,1.2055399999999998,0.59514,-0.938168985,-0.294860085,-0.168883845
1764511895.2407494,-6.76018,1.2055399999999998,0.59514,-0.938168985,-0.294860085,-0.168883845
1764511895.2407494,-6.76018,1.2055399999999998,0.59514,-0.938168985,-0.294860085,-0.168883845
1764511895.2407494,-6.76018,1.2055399999999998,0.59514,-0.938168985,-0.294860085,-0.168883845
1764511895.2407494,-6.76018,1.2055399999999998,0.59514,-0.938168985,-0.294860085,-0.168883845
1764511895.2407494,-6.19556,2.19744,0.5341,-0.936826215,-0.29577561,-0.169127985
1764511895.2407494,-6.19556,2.19744,0.5341,-0.936826215,-0.29577561,-0.169127985
1764511895.2407494,-6.19556,2.19744,0.5341,-0.936826215,-0.29577561,-0.169127985
1764511895.2407494,-6.19556,2.19744,0.5341,-0.936826215,-0.29577561,-0.169127985
1764511895.2407494,-6.19556,2.19744,0.5341,-0.936826215,-0.29577561,-0.169127985
1764511895.2407494,-6.19556,2.19744,0.5341,-0.936826215,-0.29577561,-0.169127985
1764511895.2407494,-6.19556,2.19744,0.5341,-0.936826215,-0.29577561,-0.169127985
1764511895.2407494,-6.19556,2.19744,0.5341,-0.936826215,-0.29577561,-0.169127985
1764511895.2407494,-6.19556,2.19744,0.5341,-0.936826215,-0.29577561,-0.169127985
1764511895.2407494,-6.19556,2.19744,0.5341,-0.936826215,-0.29577561,-0.169127985
1764511895.2407494,-4.31858,1.69386,-0.51884,-0.93761967,-0.29711838,-0.16894488
1764511895.2407494,-4.31858,1.69386,-0.51884,-0.93761967,-0.29711838,-0.16894488
1764511895.2899563,-4.31858,1.69386,-0.51884,-0.93761967,-0.29711838,-0.16894488
1764511895.2899563,-4.31858,1.69386,-0.51884,-0.93761967,-0.29711838,-0.16894488
1764511895.2899563,-4.31858,1.69386,-0.51884,-0.93761967,-0.29711838,-0.16894488
1764511895.2899563,-4.31858,1.69386,-0.51884,-0.93761967,-0.29711838,-0.16894488
1764511895.2899563,-4.31858,1.69386,-0.51884,-0.93761967,-0.29711838,-0.16894488
1764511895.2899563,-4.31858,1.69386,-0.51884,-0.93761967,-0.29711838,-0.16894488
1764511895.2899563,-4.31858,1.69386,-0.51884,-0.93761967,-0.29711838,-0.16894488
1764511895.2899563,-4.31858,1.69386,-0.51884,-0.93761967,-0.29711838,-0.16894488
1764511895.2899563,-2.33478,0.8698199999999999,0.65618,-0.937802775,-0.2990715,-0.16784625
1764511895.2899563,-2.33478,0.8698199999999999,0.65618,-0.937802775,-0.2990715,-0.16784625
1764511895.2899563,-2.33478,0.8698199999999999,0.65618,-0.937802775,-0.2990715,-0.16784625
1764511895.2899563,-2.33478,0.8698199999999999,0.65618,-0.937802775,-0.2990715,-0.16784625
1764511895.2899563,-2.33478,0.8698199999999999,0.65618,-0.937802775,-0.2990715,-0.16784625
1764511895.2899563,-2.33478,0.8698199999999999,0.65618,-0.937802775,-0.2990715,-0.16784625
1764511895.2899563,-2.33478,0.8698199999999999,0.65618,-0.937802775,-0.2990715,-0.16784625
1764511895.2899563,-2.33478,0.8698199999999999,0.65618,-0.937802775,-0.2990715,-0.16784625
1764511895.2899563,-2.33478,0.8698199999999999,0.65618,-0.937802775,-0.2990715,-0.16784625
1764511895.2899563,-2.33478,0.8698199999999999,0.65618,-0.937802775,-0.2990715,-0.16784625
1764511895.2899563,-3.41824,1.8006799999999998,1.15976,-0.935361375,-0.298155975,-0.16711383
1764511895.2899563,-3.41824,1.8006799999999998,1.15976,-0.935361375,-0.298155975,-0.16711383
1764511895.2899563,-3.41824,1.8006799999999998,1.15976,-0.935361375,-0.298155975,-0.16711383
1764511895.2899563,-3.41824,1.8006799999999998,1.15976,-0.935361375,-0.298155975,-0.16711383
1764511895.334264,-3.41824,1.8006799999999998,1.15976,-0.935361375,-0.298155975,-0.16711383
1764511895.334264,-3.41824,1.8006799999999998,1.15976,-0.935361375,-0.298155975,-0.16711383
1764511895.334264,-3.41824,1.8006799999999998,1.15976,-0.935361375,-0.298155975,-0.16711383
1764511895.334264,-3.41824,1.8006799999999998,1.15976,-0.935361375,-0.298155975,-0.16711383
1764511895.334264,-3.41824,1.8006799999999998,1.15976,-0.935361375,-0.298155975,-0.16711383
1764511895.334264,-3.41824,1.8006799999999998,1.15976,-0.935361375,-0.298155975,-0.16711383
1764511895.334264,-4.76112,1.87698,0.5341,-0.93688725,-0.29638596,-0.167296935
1764511895.334264,-4.76112,1.87698,0.5341,-0.93688725,-0.29638596,-0.167296935
1764511895.334264,-4.76112,1.87698,0.5341,-0.93688725,-0.29638596,-0.167296935
1764511895.3352811,-4.76112,1.87698,0.5341,-0.93688725,-0.29638596,-0.167296935
1764511895.3352811,-4.76112,1.87698,0.5341,-0.93688725,-0.29638596,-0.167296935
1764511895.3352811,-4.76112,1.87698,0.5341,-0.93688725,-0.29638596,-0.167296935
1764511895.3352811,-4.76112,1.87698,0.5341,-0.93688725,-0.29638596,-0.167296935
1764511895.3352811,-4.76112,1.87698,0.5341,-0.93688725,-0.29638596,-0.167296935
1764511895.3352811,-4.76112,1.87698,0.5341,-0.93688725,-0.29638596,-0.167296935
1764511895.3352811,-4.76112,1.87698,0.5341,-0.93688725,-0.29638596,-0.167296935
1764511895.3352811,-4.91372,1.46496,0.1678599999999999,-0.93981693,-0.29504319,-0.168517635
1764511895.3352811,-4.91372,1.46496,0.1678599999999999,-0.93981693,-0.29504319,-0.168517635
1764511895.3358057,-4.91372,1.46496,0.1678599999999999,-0.93981693,-0.29504319,-0.168517635
1764511895.3358057,-4.91372,1.46496,0.1678599999999999,-0.93981693,-0.29504319,-0.168517635
1764511895.3358057,-4.91372,1.46496,0.1678599999999999,-0.93981693,-0.29504319,-0.168517635
1764511895.3358057,-4.91372,1.46496,0.1678599999999999,-0.93981693,-0.29504319,-0.168517635
1764511895.3789923,-4.91372,1.46496,0.1678599999999999,-0.93981693,-0.29504319,-0.168517635
1764511895.3789923,-4.91372,1.46496,0.1678599999999999,-0.93981693,-0.29504319,-0.168517635
1764511895.3789923,-4.91372,1.46496,0.1678599999999999,-0.93981693,-0.29504319,-0.168517635
1764511895.3789923,-4.91372,1.46496,0.1678599999999999,-0.93981693,-0.29504319,-0.168517635
1764511895.3789923,-5.38678,0.88508,-0.39676,-0.93969486,-0.29614182,-0.169127985
1764511895.3789923,-5.38678,0.88508,-0.39676,-0.93969486,-0.29614182,-0.169127985
1764511895.3789923,-5.38678,0.88508,-0.39676,-0.93969486,-0.29614182,-0.169127985
1764511895.3789923,-5.38678,0.88508,-0.39676,-0.93969486,-0.29614182,-0.169127985
1764511895.3789923,-5.38678,0.88508,-0.39676,-0.93969486,-0.29614182,-0.169127985
1764511895.3789923,-5.38678,0.88508,-0.39676,-0.93969486,-0.29614182,-0.169127985
1764511895.3789923,-5.38678,0.88508,-0.39676,-0.93969486,-0.29614182,-0.169127985
1764511895.3789923,-5.38678,0.88508,-0.39676,-0.93969486,-0.29614182,-0.169127985
1764511895.3800108,-5.38678,0.88508,-0.39676,-0.93969486,-0.29614182,-0.169127985
1764511895.3800108,-5.38678,0.88508,-0.39676,-0.93969486,-0.29614182,-0.169127985
1764511895.3800108,-4.6543,1.4039199999999998,0.09156,-0.9374976,-0.298155975,-0.16894488
1764511895.3800108,-4.6543,1.4039199999999998,0.09156,-0.9374976,-0.298155975,-0.16894488
1764511895.3800108,-4.6543,1.4039199999999998,0.09156,-0.9374976,-0.298155975,-0.16894488
1764511895.3800108,-4.6543,1.4039199999999998,0.09156,-0.9374976,-0.298155975,-0.16894488
1764511895.3800108,-4.6543,1.4039199999999998,0.09156,-0.9374976,-0.298155975,-0.16894488
1764511895.3800108,-4.6543,1.4039199999999998,0.09156,-0.9374976,-0.298155975,-0.16894488
1764511895.3800108,-4.6543,1.4039199999999998,0.09156,-0.9374976,-0.298155975,-0.16894488
1764511895.3800108,-4.6543,1.4039199999999998,0.09156,-0.9374976,-0.298155975,-0.16894488
1764511895.3800108,-4.6543,1.4039199999999998,0.09156,-0.9374976,-0.298155975,-0.16894488
1764511895.3800108,-4.6543,1.4039199999999998,0.09156,-0.9374976,-0.298155975,-0.16894488
1764511895.3800108,-4.1965,2.10588,0.25942,-0.934506885,-0.300353235,-0.16735797
1764511895.381014,-4.1965,2.10588,0.25942,-0.934506885,-0.300353235,-0.16735797
1764511895.429409,-4.1965,2.10588,0.25942,-0.934506885,-0.300353235,-0.16735797
1764511895.429409,-4.1965,2.10588,0.25942,-0.934506885,-0.300353235,-0.16735797
1764511895.429409,-4.1965,2.10588,0.25942,-0.934506885,-0.300353235,-0.16735797
1764511895.429409,-4.1965,2.10588,0.25942,-0.934506885,-0.300353235,-0.16735797
1764511895.429409,-4.1965,2.10588,0.25942,-0.934506885,-0.300353235,-0.16735797
1764511895.429409,-4.1965,2.10588,0.25942,-0.934506885,-0.300353235,-0.16735797
1764511895.429409,-4.1965,2.10588,0.25942,-0.934506885,-0.300353235,-0.16735797
1764511895.429409,-4.1965,2.10588,0.25942,-0.934506885,-0.300353235,-0.16735797
1764511895.429409,-2.91466,1.92276,0.3509799999999999,-0.936093795,-0.299010465,-0.16564899
1764511895.429409,-2.91466,1.92276,0.3509799999999999,-0.936093795,-0.299010465,-0.16564899
1764511895.429409,-2.91466,1.92276,0.3509799999999999,-0.936093795,-0.299010465,-0.16564899
1764511895.429409,-2.91466,1.92276,0.3509799999999999,-0.936093795,-0.299010465,-0.16564899
1764511895.429409,-2.91466,1.92276,0.3509799999999999,-0.936093795,-0.299010465,-0.16564899
1764511895.429409,-2.91466,1.92276,0.3509799999999999,-0.936093795,-0.299010465,-0.16564899
1764511895.429409,-2.91466,1.92276,0.3509799999999999,-0.936093795,-0.299010465,-0.16564899
1764511895.429409,-2.91466,1.92276,0.3509799999999999,-0.936093795,-0.299010465,-0.16564899
1764511895.429409,-2.91466,1.92276,0.3509799999999999,-0.936093795,-0.299010465,-0.16564899
1764511895.429409,-2.91466,1.92276,0.3509799999999999,-0.936093795,-0.299010465,-0.16564899
1764511895.4304235,-2.7468,1.35814,0.3509799999999999,-0.93737553,-0.296202855,-0.166198305
1764511895.4304235,-2.7468,1.35814,0.3509799999999999,-0.93737553,-0.296202855,-0.166198305
1764511895.4304235,-2.7468,1.35814,0.3509799999999999,-0.93737553,-0.296202855,-0.166198305
1764511895.4304235,-2.7468,1.35814,0.3509799999999999,-0.93737553,-0.296202855,-0.166198305
1764511895.4304235,-2.7468,1.35814,0.3509799999999999,-0.93737553,-0.296202855,-0.166198305
1764511895.4304235,-2.7468,1.35814,0.3509799999999999,-0.93737553,-0.296202855,-0.166198305
1764511895.4747777,-2.7468,1.35814,0.3509799999999999,-0.93737553,-0.296202855,-0.166198305
1764511895.4747777,-2.7468,1.35814,0.3509799999999999,-0.93737553,-0.296202855,-0.166198305
1764511895.4747777,-2.7468,1.35814,0.3509799999999999,-0.93737553,-0.296202855,-0.166198305
1764511895.4747777,-2.7468,1.35814,0.3509799999999999,-0.93737553,-0.296202855,-0.166198305
1764511895.4747777,-5.06632,0.79352,0.6867,-0.938168985,-0.293273175,-0.167296935
1764511895.4747777,-5.06632,0.79352,0.6867,-0.938168985,-0.293273175,-0.167296935
1764511895.4747777,-5.06632,0.79352,0.6867,-0.938168985,-0.293273175,-0.167296935
1764511895.47529,-5.06632,0.79352,0.6867,-0.938168985,-0.293273175,-0.167296935
1764511895.47529,-5.06632,0.79352,0.6867,-0.938168985,-0.293273175,-0.167296935
1764511895.47529,-5.06632,0.79352,0.6867,-0.938168985,-0.293273175,-0.167296935
1764511895.47529,-5.06632,0.79352,0.6867,-0.938168985,-0.293273175,-0.167296935
1764511895.47529,-5.06632,0.79352,0.6867,-0.938168985,-0.293273175,-0.167296935
1764511895.47529,-5.06632,0.79352,0.6867,-0.938168985,-0.293273175,-0.167296935
1764511895.47529,-5.06632,0.79352,0.6867,-0.938168985,-0.293273175,-0.167296935
1764511895.47529,-6.59232,0.97664,0.59514,-0.938291055,-0.29284593,-0.168151425
1764511895.47529,-6.59232,0.97664,0.59514,-0.938291055,-0.29284593,-0.168151425
1764511895.475826,-6.59232,0.97664,0.59514,-0.938291055,-0.29284593,-0.168151425
1764511895.475826,-6.59232,0.97664,0.59514,-0.938291055,-0.29284593,-0.168151425
1764511895.475826,-6.59232,0.97664,0.59514,-0.938291055,-0.29284593,-0.168151425
1764511895.475826,-6.59232,0.97664,0.59514,-0.938291055,-0.29284593,-0.168151425
1764511895.475826,-6.59232,0.97664,0.59514,-0.938291055,-0.29284593,-0.168151425
1764511895.475826,-6.59232,0.97664,0.59514,-0.938291055,-0.29284593,-0.168151425
1764511895.5201046,-6.59232,0.97664,0.59514,-0.938291055,-0.29284593,-0.168151425
1764511895.5201046,-6.59232,0.97664,0.59514,-0.938291055,-0.29284593,-0.168151425
1764511895.5201046,-5.90562,1.25132,0.42728,-0.938046915,-0.29467698,-0.16931109
1764511895.5201046,-5.90562,1.25132,0.42728,-0.938046915,-0.29467698,-0.16931109
1764511895.5201046,-5.90562,1.25132,0.42728,-0.938046915,-0.29467698,-0.16931109
1764511895.5206313,-5.90562,1.25132,0.42728,-0.938046915,-0.29467698,-0.16931109
1764511895.5206313,-5.90562,1.25132,0.42728,-0.938046915,-0.29467698,-0.16931109
1764511895.5206313,-5.90562,1.25132,0.42728,-0.938046915,-0.29467698,-0.16931109
1764511895.5206313,-5.90562,1.25132,0.42728,-0.938046915,-0.29467698,-0.16931109
1764511895.5206313,-5.90562,1.25132,0.42728,-0.938046915,-0.29467698,-0.16931109
1764511895.5206313,-5.90562,1.25132,0.42728,-0.938046915,-0.29467698,-0.16931109
1764511895.5206313,-5.90562,1.25132,0.42728,-0.938046915,-0.29467698,-0.16931109
1764511895.5206313,-3.99812,1.64808,0.1678599999999999,-0.93835209,-0.296935275,-0.169372125
1764511895.5206313,-3.99812,1.64808,0.1678599999999999,-0.93835209,-0.296935275,-0.169372125
1764511895.5206313,-3.99812,1.64808,0.1678599999999999,-0.93835209,-0.296935275,-0.169372125
1764511895.5206313,-3.99812,1.64808,0.1678599999999999,-0.93835209,-0.296935275,-0.169372125
1764511895.5206313,-3.99812,1.64808,0.1678599999999999,-0.93835209,-0.296935275,-0.169372125
1764511895.5206313,-3.99812,1.64808,0.1678599999999999,-0.93835209,-0.296935275,-0.169372125
1764511895.5206313,-3.99812,1.64808,0.1678599999999999,-0.93835209,-0.296935275,-0.169372125
1764511895.5206313,-3.99812,1.64808,0.1678599999999999,-0.93835209,-0.296935275,-0.169372125
1764511895.5206313,-3.99812,1.64808,0.1678599999999999,-0.93835209,-0.296935275,-0.169372125
1764511895.5206313,-3.99812,1.64808,0.1678599999999999,-0.93835209,-0.296935275,-0.169372125
1764511895.563933,-3.63188,1.35814,0.96138,-0.93786381,-0.298278045,-0.16796832
1764511895.563933,-3.63188,1.35814,0.96138,-0.93786381,-0.298278045,-0.16796832
1764511895.563933,-3.63188,1.35814,0.96138,-0.93786381,-0.298278045,-0.16796832
1764511895.563933,-3.63188,1.35814,0.96138,-0.93786381,-0.298278045,-0.16796832
1764511895.563933,-3.63188,1.35814,0.96138,-0.93786381,-0.298278045,-0.16796832
1764511895.563933,-3.63188,1.35814,0.96138,-0.93786381,-0.298278045,-0.16796832
1764511895.563933,-3.63188,1.35814,0.96138,-0.93786381,-0.298278045,-0.16796832
1764511895.563933,-3.63188,1.35814,0.96138,-0.93786381,-0.298278045,-0.16796832
1764511895.563933,-3.63188,1.35814,0.96138,-0.93786381,-0.298278045,-0.16796832
1764511895.563933,-3.63188,1.35814,0.96138,-0.93786381,-0.298278045,-0.16796832
1764511895.563933,-2.9757,1.92276,0.97664,-0.937802775,-0.298155975,-0.167296935
1764511895.563933,-2.9757,1.92276,0.97664,-0.937802775,-0.298155975,-0.167296935
1764511895.563933,-2.9757,1.92276,0.97664,-0.937802775,-0.298155975,-0.167296935
1764511895.563933,-2.9757,1.92276,0.97664,-0.937802775,-0.298155975,-0.167296935
1764511895.563933,-2.9757,1.92276,0.97664,-0.937802775,-0.298155975,-0.167296935
1764511895.563933,-2.9757,1.92276,0.97664,-0.937802775,-0.298155975,-0.167296935
1764511895.563933,-2.9757,1.92276,0.97664,-0.937802775,-0.298155975,-0.167296935
1764511895.563933,-2.9757,1.92276,0.97664,-0.937802775,-0.298155975,-0.167296935
1764511895.563933,-2.9757,1.92276,0.97664,-0.937802775,-0.298155975,-0.167296935
1764511895.563933,-2.9757,1.92276,0.97664,-0.937802775,-0.298155975,-0.167296935
1764511895.5655005,-3.55558,1.89224,0.6103999999999999,-0.93823002,-0.296202855,-0.16589313
1764511895.5655005,-3.55558,1.89224,0.6103999999999999,-0.93823002,-0.296202855,-0.16589313
1764511895.5655005,-3.55558,1.89224,0.6103999999999999,-0.93823002,-0.296202855,-0.16589313
1764511895.5655005,-3.55558,1.89224,0.6103999999999999,-0.93823002,-0.296202855,-0.16589313
1764511895.6137223,-3.55558,1.89224,0.6103999999999999,-0.93823002,-0.296202855,-0.16589313
1764511895.6137223,-3.55558,1.89224,0.6103999999999999,-0.93823002,-0.296202855,-0.16589313
1764511895.6137223,-3.55558,1.89224,0.6103999999999999,-0.93823002,-0.296202855,-0.16589313
1764511895.6137223,-3.55558,1.89224,0.6103999999999999,-0.93823002,-0.296202855,-0.16589313
1764511895.6137223,-3.55558,1.89224,0.6103999999999999,-0.93823002,-0.296202855,-0.16589313
1764511895.6137223,-3.55558,1.89224,0.6103999999999999,-0.93823002,-0.296202855,-0.16589313
1764511895.6137223,-5.7988,1.63282,0.4578,-0.9374976,-0.294738015,-0.166198305
1764511895.6137223,-5.7988,1.63282,0.4578,-0.9374976,-0.294738015,-0.166198305
1764511895.6137223,-5.7988,1.63282,0.4578,-0.9374976,-0.294738015,-0.166198305
1764511895.6137223,-5.7988,1.63282,0.4578,-0.9374976,-0.294738015,-0.166198305
1764511895.6137223,-5.7988,1.63282,0.4578,-0.9374976,-0.294738015,-0.166198305
1764511895.6137223,-5.7988,1.63282,0.4578,-0.9374976,-0.294738015,-0.166198305
1764511895.6137223,-5.7988,1.63282,0.4578,-0.9374976,-0.294738015,-0.166198305
1764511895.6137223,-5.7988,1.63282,0.4578,-0.9374976,-0.294738015,-0.166198305
1764511895.6137223,-5.7988,1.63282,0.4578,-0.9374976,-0.294738015,-0.166198305
1764511895.6137223,-5.7988,1.63282,0.4578,-0.9374976,-0.294738015,-0.166198305
1764511895.6137223,-6.9433,1.3734,-0.3051999999999999,-0.93737553,-0.29394456,-0.167541075
1764511895.6137223,-6.9433,1.3734,-0.3051999999999999,-0.93737553,-0.29394456,-0.167541075
1764511895.6137223,-6.9433,1.3734,-0.3051999999999999,-0.93737553,-0.29394456,-0.167541075
1764511895.6137223,-6.9433,1.3734,-0.3051999999999999,-0.93737553,-0.29394456,-0.167541075
1764511895.6137223,-6.9433,1.3734,-0.3051999999999999,-0.93737553,-0.29394456,-0.167541075
1764511895.615269,-6.9433,1.3734,-0.3051999999999999,-0.93737553,-0.29394456,-0.167541075
1764511895.6595914,-6.9433,1.3734,-0.3051999999999999,-0.93737553,-0.29394456,-0.167541075
1764511895.6595914,-6.9433,1.3734,-0.3051999999999999,-0.93737553,-0.29394456,-0.167541075
1764511895.6595914,-6.9433,1.3734,-0.3051999999999999,-0.93737553,-0.29394456,-0.167541075
1764511895.660596,-6.9433,1.3734,-0.3051999999999999,-0.93737553,-0.29394456,-0.167541075
1764511895.660596,-6.07348,1.08346,0.62566,-0.937802775,-0.296202855,-0.16809039
1764511895.660596,-6.07348,1.08346,0.62566,-0.937802775,-0.296202855,-0.16809039
1764511895.660596,-6.07348,1.08346,0.62566,-0.937802775,-0.296202855,-0.16809039
1764511895.6618395,-6.07348,1.08346,0.62566,-0.937802775,-0.296202855,-0.16809039
1764511895.6618395,-6.07348,1.08346,0.62566,-0.937802775,-0.296202855,-0.16809039
1764511895.6618395,-6.07348,1.08346,0.62566,-0.937802775,-0.296202855,-0.16809039
1764511895.6618395,-6.07348,1.08346,0.62566,-0.937802775,-0.296202855,-0.16809039
1764511895.66284,-6.07348,1.08346,0.62566,-0.937802775,-0.296202855,-0.16809039
1764511895.66284,-6.07348,1.08346,0.62566,-0.937802775,-0.296202855,-0.16809039
1764511895.66284,-6.07348,1.08346,0.62566,-0.937802775,-0.296202855,-0.16809039
1764511895.66284,-4.91372,1.35814,0.18312,-0.938046915,-0.298278045,-0.168883845
1764511895.66284,-4.91372,1.35814,0.18312,-0.938046915,-0.298278045,-0.168883845
1764511895.66284,-4.91372,1.35814,0.18312,-0.938046915,-0.298278045,-0.168883845
1764511895.66284,-4.91372,1.35814,0.18312,-0.938046915,-0.298278045,-0.168883845
1764511895.66284,-4.91372,1.35814,0.18312,-0.938046915,-0.298278045,-0.168883845
1764511895.6638386,-4.91372,1.35814,0.18312,-0.938046915,-0.298278045,-0.168883845
1764511895.6638386,-4.91372,1.35814,0.18312,-0.938046915,-0.298278045,-0.168883845
1764511895.6638386,-4.91372,1.35814,0.18312,-0.938046915,-0.298278045,-0.168883845
1764511895.6638386,-4.91372,1.35814,0.18312,-0.938046915,-0.298278045,-0.168883845
1764511895.6638386,-4.91372,1.35814,0.18312,-0.938046915,-0.298278045,-0.168883845
1764511895.6638386,-5.17314,1.19028,1.2055399999999998,-0.93725346,-0.29833908,-0.169616265
1764511895.6638386,-5.17314,1.19028,1.2055399999999998,-0.93725346,-0.29833908,-0.169616265
1764511895.7050102,-5.17314,1.19028,1.2055399999999998,-0.93725346,-0.29833908,-0.169616265
1764511895.7050102,-5.17314,1.19028,1.2055399999999998,-0.93725346,-0.29833908,-0.169616265
1764511895.7050102,-5.17314,1.19028,1.2055399999999998,-0.93725346,-0.29833908,-0.169616265
1764511895.7050102,-5.17314,1.19028,1.2055399999999998,-0.93725346,-0.29833908,-0.169616265
1764511895.7050102,-5.17314,1.19028,1.2055399999999998,-0.93725346,-0.29833908,-0.169616265
1764511895.7050102,-5.17314,1.19028,1.2055399999999998,-0.93725346,-0.29833908,-0.169616265
1764511895.7050102,-5.17314,1.19028,1.2055399999999998,-0.93725346,-0.29833908,-0.169616265
1764511895.705544,-5.17314,1.19028,1.2055399999999998,-0.93725346,-0.29833908,-0.169616265
1764511895.705544,-3.32668,2.24322,1.2055399999999998,-0.935361375,-0.2978508,-0.16809039
1764511895.705544,-3.32668,2.24322,1.2055399999999998,-0.935361375,-0.2978508,-0.16809039
1764511895.705544,-3.32668,2.24322,1.2055399999999998,-0.935361375,-0.2978508,-0.16809039
1764511895.705544,-3.32668,2.24322,1.2055399999999998,-0.935361375,-0.2978508,-0.16809039
1764511895.7060597,-3.32668,2.24322,1.2055399999999998,-0.935361375,-0.2978508,-0.16809039
1764511895.7060597,-3.32668,2.24322,1.2055399999999998,-0.935361375,-0.2978508,-0.16809039
1764511895.7060597,-3.32668,2.24322,1.2055399999999998,-0.935361375,-0.2978508,-0.16809039
1764511895.7060597,-3.32668,2.24322,1.2055399999999998,-0.935361375,-0.2978508,-0.16809039
1764511895.7060597,-3.32668,2.24322,1.2055399999999998,-0.935361375,-0.2978508,-0.16809039
1764511895.7060597,-3.32668,2.24322,1.2055399999999998,-0.935361375,-0.2978508,-0.16809039
1764511895.7060597,-1.41918,2.04484,0.6409199999999999,-0.93737553,-0.299010465,-0.16674762
1764511895.7060597,-1.41918,2.04484,0.6409199999999999,-0.93737553,-0.299010465,-0.16674762
1764511895.7060597,-1.41918,2.04484,0.6409199999999999,-0.93737553,-0.299010465,-0.16674762
1764511895.7060597,-1.41918,2.04484,0.6409199999999999,-0.93737553,-0.299010465,-0.16674762
1764511895.7522123,-1.41918,2.04484,0.6409199999999999,-0.93737553,-0.299010465,-0.16674762
1764511895.7522123,-1.41918,2.04484,0.6409199999999999,-0.93737553,-0.299010465,-0.16674762
1764511895.7522123,-1.41918,2.04484,0.6409199999999999,-0.93737553,-0.299010465,-0.16674762
1764511895.7522123,-1.41918,2.04484,0.6409199999999999,-0.93737553,-0.299010465,-0.16674762
1764511895.7522123,-1.41918,2.04484,0.6409199999999999,-0.93737553,-0.299010465,-0.16674762
1764511895.7522123,-1.41918,2.04484,0.6409199999999999,-0.93737553,-0.299010465,-0.16674762
1764511895.7522123,-2.62472,1.4497,0.44254,-0.937558635,-0.298155975,-0.1647945
1764511895.7522123,-2.62472,1.4497,0.44254,-0.937558635,-0.298155975,-0.1647945
1764511895.7522123,-2.62472,1.4497,0.44254,-0.937558635,-0.298155975,-0.1647945
1764511895.7522123,-2.62472,1.4497,0.44254,-0.937558635,-0.298155975,-0.1647945
1764511895.7522123,-2.62472,1.4497,0.44254,-0.937558635,-0.298155975,-0.1647945
1764511895.7522123,-2.62472,1.4497,0.44254,-0.937558635,-0.298155975,-0.1647945
1764511895.7522123,-2.62472,1.4497,0.44254,-0.937558635,-0.298155975,-0.1647945
1764511895.7522123,-2.62472,1.4497,0.44254,-0.937558635,-0.298155975,-0.1647945
1764511895.7522123,-2.62472,1.4497,0.44254,-0.937558635,-0.298155975,-0.1647945
1764511895.7522123,-2.62472,1.4497,0.44254,-0.937558635,-0.298155975,-0.1647945
1764511895.7522123,-4.83742,2.30426,-0.3357199999999999,-0.936826215,-0.294371805,-0.16589313
1764511895.7522123,-4.83742,2.30426,-0.3357199999999999,-0.936826215,-0.294371805,-0.16589313
1764511895.7522123,-4.83742,2.30426,-0.3357199999999999,-0.936826215,-0.294371805,-0.16589313
1764511895.7522123,-4.83742,2.30426,-0.3357199999999999,-0.936826215,-0.294371805,-0.16589313
1764511895.7522123,-4.83742,2.30426,-0.3357199999999999,-0.936826215,-0.294371805,-0.16589313
1764511895.7522123,-4.83742,2.30426,-0.3357199999999999,-0.936826215,-0.294371805,-0.16589313
1764511895.8003347,-4.83742,2.30426,-0.3357199999999999,-0.936826215,-0.294371805,-0.16589313
1764511895.8003347,-4.83742,2.30426,-0.3357199999999999,-0.936826215,-0.294371805,-0.16589313
1764511895.8003347,-4.83742,2.30426,-0.3357199999999999,-0.936826215,-0.294371805,-0.16589313
1764511895.8003347,-4.83742,2.30426,-0.3357199999999999,-0.936826215,-0.294371805,-0.16589313
1764511895.8003347,-5.5699,1.3734,-0.13734,-0.938779335,-0.29345628,-0.167174865
1764511895.8003347,-5.5699,1.3734,-0.13734,-0.938779335,-0.29345628,-0.167174865
1764511895.801331,-5.5699,1.3734,-0.13734,-0.938779335,-0.29345628,-0.167174865
1764511895.801331,-5.5699,1.3734,-0.13734,-0.938779335,-0.29345628,-0.167174865
1764511895.801331,-5.5699,1.3734,-0.13734,-0.938779335,-0.29345628,-0.167174865
1764511895.801331,-5.5699,1.3734,-0.13734,-0.938779335,-0.29345628,-0.167174865
1764511895.801331,-5.5699,1.3734,-0.13734,-0.938779335,-0.29345628,-0.167174865
1764511895.801331,-5.5699,1.3734,-0.13734,-0.938779335,-0.29345628,-0.167174865
1764511895.801331,-5.5699,1.3734,-0.13734,-0.938779335,-0.29345628,-0.167174865
1764511895.801331,-5.5699,1.3734,-0.13734,-0.938779335,-0.29345628,-0.167174865
1764511895.8028245,-5.4936,0.5341,0.04578,-0.939755895,-0.294738015,-0.17065386
1764511895.8028245,-5.4936,0.5341,0.04578,-0.939755895,-0.294738015,-0.17065386
1764511895.8028245,-5.4936,0.5341,0.04578,-0.939755895,-0.294738015,-0.17065386
1764511895.8028245,-5.4936,0.5341,0.04578,-0.939755895,-0.294738015,-0.17065386
1764511895.803831,-5.4936,0.5341,0.04578,-0.939755895,-0.294738015,-0.17065386
1764511895.803831,-5.4936,0.5341,0.04578,-0.939755895,-0.294738015,-0.17065386
1764511895.803831,-5.4936,0.5341,0.04578,-0.939755895,-0.294738015,-0.17065386
1764511895.803831,-5.4936,0.5341,0.04578,-0.939755895,-0.294738015,-0.17065386
1764511895.803831,-5.4936,0.5341,0.04578,-0.939755895,-0.294738015,-0.17065386
1764511895.803831,-5.4936,0.5341,0.04578,-0.939755895,-0.294738015,-0.17065386
1764511895.849182,-4.94424,1.12924,0.28994,-0.93786381,-0.297301485,-0.170836965
1764511895.849827,-4.94424,1.12924,0.28994,-0.93786381,-0.297301485,-0.170836965
1764511895.849827,-4.94424,1.12924,0.28994,-0.93786381,-0.297301485,-0.170836965
1764511895.850194,-4.94424,1.12924,0.28994,-0.93786381,-0.297301485,-0.170836965
1764511895.850194,-4.94424,1.12924,0.28994,-0.93786381,-0.297301485,-0.170836965
1764511895.850194,-4.94424,1.12924,0.28994,-0.93786381,-0.297301485,-0.170836965
1764511895.850194,-4.94424,1.12924,0.28994,-0.93786381,-0.297301485,-0.170836965
1764511895.850194,-4.94424,1.12924,0.28994,-0.93786381,-0.297301485,-0.170836965
1764511895.850194,-4.94424,1.12924,0.28994,-0.93786381,-0.297301485,-0.170836965
1764511895.850194,-4.94424,1.12924,0.28994,-0.93786381,-0.297301485,-0.170836965
1764511895.850194,-2.45686,2.45686,0.57988,-0.93578862,-0.29980392,-0.16992144
1764511895.8511984,-2.45686,2.45686,0.57988,-0.93578862,-0.29980392,-0.16992144
1764511895.8511984,-2.45686,2.45686,0.57988,-0.93578862,-0.29980392,-0.16992144
1764511895.8511984,-2.45686,2.45686,0.57988,-0.93578862,-0.29980392,-0.16992144
1764511895.8511984,-2.45686,2.45686,0.57988,-0.93578862,-0.29980392,-0.16992144
1764511895.8511984,-2.45686,2.45686,0.57988,-0.93578862,-0.29980392,-0.16992144
1764511895.8511984,-2.45686,2.45686,0.57988,-0.93578862,-0.29980392,-0.16992144
1764511895.8521955,-2.45686,2.45686,0.57988,-0.93578862,-0.29980392,-0.16992144
1764511895.8521955,-2.45686,2.45686,0.57988,-0.93578862,-0.29980392,-0.16992144
1764511895.8521955,-2.45686,2.45686,0.57988,-0.93578862,-0.29980392,-0.16992144
1764511895.8521955,-0.79352,2.02958,0.10682,-0.936093795,-0.300719445,-0.169250055
1764511895.8521955,-0.79352,2.02958,0.10682,-0.936093795,-0.300719445,-0.169250055
1764511895.8521955,-0.79352,2.02958,0.10682,-0.936093795,-0.300719445,-0.169250055
1764511895.8521955,-0.79352,2.02958,0.10682,-0.936093795,-0.300719445,-0.169250055
1764511895.892102,-0.79352,2.02958,0.10682,-0.936093795,-0.300719445,-0.169250055
1764511895.892102,-0.79352,2.02958,0.10682,-0.936093795,-0.300719445,-0.169250055
1764511895.892102,-0.79352,2.02958,0.10682,-0.936093795,-0.300719445,-0.169250055
1764511895.892102,-0.79352,2.02958,0.10682,-0.936093795,-0.300719445,-0.169250055
1764511895.892102,-0.79352,2.02958,0.10682,-0.936093795,-0.300719445,-0.169250055
1764511895.892102,-0.79352,2.02958,0.10682,-0.936093795,-0.300719445,-0.169250055
1764511895.892102,-1.4497,1.93802,-0.6103999999999999,-0.937802775,-0.29821701,-0.168395565
1764511895.892102,-1.4497,1.93802,-0.6103999999999999,-0.937802775,-0.29821701,-0.168395565
1764511895.892102,-1.4497,1.93802,-0.6103999999999999,-0.937802775,-0.29821701,-0.168395565
1764511895.892102,-1.4497,1.93802,-0.6103999999999999,-0.937802775,-0.29821701,-0.168395565
1764511895.892102,-1.4497,1.93802,-0.6103999999999999,-0.937802775,-0.29821701,-0.168395565
1764511895.892102,-1.4497,1.93802,-0.6103999999999999,-0.937802775,-0.29821701,-0.168395565
1764511895.892102,-1.4497,1.93802,-0.6103999999999999,-0.937802775,-0.29821701,-0.168395565
1764511895.8957632,-1.4497,1.93802,-0.6103999999999999,-0.937802775,-0.29821701,-0.168395565
1764511895.896311,-1.4497,1.93802,-0.6103999999999999,-0.937802775,-0.29821701,-0.168395565
1764511895.896311,-1.4497,1.93802,-0.6103999999999999,-0.937802775,-0.29821701,-0.168395565
1764511895.896311,-3.87604,0.9919,-0.41202,-0.93920658,-0.295836645,-0.168029355
1764511895.896311,-3.87604,0.9919,-0.41202,-0.93920658,-0.295836645,-0.168029355
1764511895.896311,-3.87604,0.9919,-0.41202,-0.93920658,-0.295836645,-0.168029355
1764511895.896311,-3.87604,0.9919,-0.41202,-0.93920658,-0.295836645,-0.168029355
1764511895.896311,-3.87604,0.9919,-0.41202,-0.93920658,-0.295836645,-0.168029355
1764511895.896311,-3.87604,0.9919,-0.41202,-0.93920658,-0.295836645,-0.168029355
1764511895.896311,-3.87604,0.9919,-0.41202,-0.93920658,-0.295836645,-0.168029355
1764511895.896311,-3.87604,0.9919,-0.41202,-0.93920658,-0.295836645,-0.168029355
1764511895.9434218,-3.87604,0.9919,-0.41202,-0.93920658,-0.295836645,-0.168029355
1764511895.9434218,-3.87604,0.9919,-0.41202,-0.93920658,-0.295836645,-0.168029355
1764511895.9434218,-5.81406,1.9838,0.1525999999999999,-0.938779335,-0.295348365,-0.16735797
1764511895.9434218,-5.81406,1.9838,0.1525999999999999,-0.938779335,-0.295348365,-0.16735797
1764511895.9434218,-5.81406,1.9838,0.1525999999999999,-0.938779335,-0.295348365,-0.16735797
1764511895.9434218,-5.81406,1.9838,0.1525999999999999,-0.938779335,-0.295348365,-0.16735797
1764511895.9434218,-5.81406,1.9838,0.1525999999999999,-0.938779335,-0.295348365,-0.16735797
1764511895.9434218,-5.81406,1.9838,0.1525999999999999,-0.938779335,-0.295348365,-0.16735797
1764511895.9434218,-5.81406,1.9838,0.1525999999999999,-0.938779335,-0.295348365,-0.16735797
1764511895.9434218,-5.81406,1.9838,0.1525999999999999,-0.938779335,-0.295348365,-0.16735797
1764511895.9434218,-5.81406,1.9838,0.1525999999999999,-0.938779335,-0.295348365,-0.16735797
1764511895.9434218,-5.81406,1.9838,0.1525999999999999,-0.938779335,-0.295348365,-0.16735797
1764511895.9434218,-6.43972,2.18218,-0.41202,-0.93664311,-0.296080785,-0.167541075
1764511895.9434218,-6.43972,2.18218,-0.41202,-0.93664311,-0.296080785,-0.167541075
1764511895.9434218,-6.43972,2.18218,-0.41202,-0.93664311,-0.296080785,-0.167541075
1764511895.9434218,-6.43972,2.18218,-0.41202,-0.93664311,-0.296080785,-0.167541075
1764511895.9434218,-6.43972,2.18218,-0.41202,-0.93664311,-0.296080785,-0.167541075
1764511895.9434218,-6.43972,2.18218,-0.41202,-0.93664311,-0.296080785,-0.167541075
1764511895.9434218,-6.43972,2.18218,-0.41202,-0.93664311,-0.296080785,-0.167541075
1764511895.9444275,-6.43972,2.18218,-0.41202,-0.93664311,-0.296080785,-0.167541075
1764511895.9444275,-6.43972,2.18218,-0.41202,-0.93664311,-0.296080785,-0.167541075
1764511895.9444275,-6.43972,2.18218,-0.41202,-0.93664311,-0.296080785,-0.167541075
1764511895.9444275,-5.15788,1.81594,-0.85456,-0.936215865,-0.29626389,-0.167907285
1764511895.9444275,-5.15788,1.81594,-0.85456,-0.936215865,-0.29626389,-0.167907285
1764511895.9885988,-5.15788,1.81594,-0.85456,-0.936215865,-0.29626389,-0.167907285
1764511895.9885988,-5.15788,1.81594,-0.85456,-0.936215865,-0.29626389,-0.167907285
1764511895.9885988,-5.15788,1.81594,-0.85456,-0.936215865,-0.29626389,-0.167907285
1764511895.9885988,-5.15788,1.81594,-0.85456,-0.936215865,-0.29626389,-0.167907285
1764511895.9885988,-5.15788,1.81594,-0.85456,-0.936215865,-0.29626389,-0.167907285
1764511895.9885988,-5.15788,1.81594,-0.85456,-0.936215865,-0.29626389,-0.167907285
1764511895.989643,-5.15788,1.81594,-0.85456,-0.936215865,-0.29626389,-0.167907285
1764511895.989643,-5.15788,1.81594,-0.85456,-0.936215865,-0.29626389,-0.167907285
1764511895.989643,-2.70102,1.08346,-0.24416,-0.936948285,-0.296691135,-0.16772418
1764511895.989643,-2.70102,1.08346,-0.24416,-0.936948285,-0.296691135,-0.16772418
1764511895.989643,-2.70102,1.08346,-0.24416,-0.936948285,-0.296691135,-0.16772418
1764511895.989643,-2.70102,1.08346,-0.24416,-0.936948285,-0.296691135,-0.16772418
1764511895.989643,-2.70102,1.08346,-0.24416,-0.936948285,-0.296691135,-0.16772418
1764511895.989643,-2.70102,1.08346,-0.24416,-0.936948285,-0.296691135,-0.16772418
1764511895.989643,-2.70102,1.08346,-0.24416,-0.936948285,-0.296691135,-0.16772418
1764511895.989643,-2.70102,1.08346,-0.24416,-0.936948285,-0.296691135,-0.16772418
1764511895.9911668,-2.70102,1.08346,-0.24416,-0.936948285,-0.296691135,-0.16772418
1764511895.9911668,-2.70102,1.08346,-0.24416,-0.936948285,-0.296691135,-0.16772418
1764511895.9911668,-2.76206,1.09872,1.12924,-0.93603276,-0.297179415,-0.167419005
1764511895.9911668,-2.76206,1.09872,1.12924,-0.93603276,-0.297179415,-0.167419005
1764511895.9911668,-2.76206,1.09872,1.12924,-0.93603276,-0.297179415,-0.167419005
1764511895.9911668,-2.76206,1.09872,1.12924,-0.93603276,-0.297179415,-0.167419005
1764511895.9911668,-2.76206,1.09872,1.12924,-0.93603276,-0.297179415,-0.167419005
1764511895.9911668,-2.76206,1.09872,1.12924,-0.93603276,-0.297179415,-0.167419005
1764511896.0400577,-2.76206,1.09872,1.12924,-0.93603276,-0.297179415,-0.167419005
1764511896.0400577,-2.76206,1.09872,1.12924,-0.93603276,-0.297179415,-0.167419005
1764511896.0400577,-2.76206,1.09872,1.12924,-0.93603276,-0.297179415,-0.167419005
1764511896.0400577,-2.76206,1.09872,1.12924,-0.93603276,-0.297179415,-0.167419005
1764511896.0400577,-4.47118,1.99906,0.9003399999999999,-0.936215865,-0.296080785,-0.16711383
1764511896.0400577,-4.47118,1.99906,0.9003399999999999,-0.936215865,-0.296080785,-0.16711383
1764511896.0400577,-4.47118,1.99906,0.9003399999999999,-0.936215865,-0.296080785,-0.16711383
1764511896.0400577,-4.47118,1.99906,0.9003399999999999,-0.936215865,-0.296080785,-0.16711383
1764511896.0400577,-4.47118,1.99906,0.9003399999999999,-0.936215865,-0.296080785,-0.16711383
1764511896.0400577,-4.47118,1.99906,0.9003399999999999,-0.936215865,-0.296080785,-0.16711383
1764511896.0410614,-4.47118,1.99906,0.9003399999999999,-0.936215865,-0.296080785,-0.16711383
1764511896.0410614,-4.47118,1.99906,0.9003399999999999,-0.936215865,-0.296080785,-0.16711383
1764511896.0410614,-4.47118,1.99906,0.9003399999999999,-0.936215865,-0.296080785,-0.16711383
1764511896.0410614,-4.47118,1.99906,0.9003399999999999,-0.936215865,-0.296080785,-0.16711383
1764511896.0410614,-5.06632,1.32762,0.13734,-0.93786381,-0.295470435,-0.167663145
1764511896.0410614,-5.06632,1.32762,0.13734,-0.93786381,-0.295470435,-0.167663145
1764511896.0410614,-5.06632,1.32762,0.13734,-0.93786381,-0.295470435,-0.167663145
1764511896.0410614,-5.06632,1.32762,0.13734,-0.93786381,-0.295470435,-0.167663145
1764511896.0410614,-5.06632,1.32762,0.13734,-0.93786381,-0.295470435,-0.167663145
1764511896.0410614,-5.06632,1.32762,0.13734,-0.93786381,-0.295470435,-0.167663145
1764511896.0410614,-5.06632,1.32762,0.13734,-0.93786381,-0.295470435,-0.167663145
1764511896.0410614,-5.06632,1.32762,0.13734,-0.93786381,-0.295470435,-0.167663145
1764511896.0860565,-5.06632,1.32762,0.13734,-0.93786381,-0.295470435,-0.167663145
1764511896.087084,-5.06632,1.32762,0.13734,-0.93786381,-0.295470435,-0.167663145
1764511896.087084,-5.60042,1.32762,-0.77826,-0.93920658,-0.2954094,-0.168761775
1764511896.087084,-5.60042,1.32762,-0.77826,-0.93920658,-0.2954094,-0.168761775
1764511896.087084,-5.60042,1.32762,-0.77826,-0.93920658,-0.2954094,-0.168761775
1764511896.087084,-5.60042,1.32762,-0.77826,-0.93920658,-0.2954094,-0.168761775
1764511896.087084,-5.60042,1.32762,-0.77826,-0.93920658,-0.2954094,-0.168761775
1764511896.0880806,-5.60042,1.32762,-0.77826,-0.93920658,-0.2954094,-0.168761775
1764511896.0880806,-5.60042,1.32762,-0.77826,-0.93920658,-0.2954094,-0.168761775
1764511896.0880806,-5.60042,1.32762,-0.77826,-0.93920658,-0.2954094,-0.168761775
1764511896.0880806,-5.60042,1.32762,-0.77826,-0.93920658,-0.2954094,-0.168761775
1764511896.089079,-5.60042,1.32762,-0.77826,-0.93920658,-0.2954094,-0.168761775
1764511896.089079,-5.82932,0.9919,-0.27468,-0.93896244,-0.2966301,-0.168639705
1764511896.089079,-5.82932,0.9919,-0.27468,-0.93896244,-0.2966301,-0.168639705
1764511896.089079,-5.82932,0.9919,-0.27468,-0.93896244,-0.2966301,-0.168639705
1764511896.089079,-5.82932,0.9919,-0.27468,-0.93896244,-0.2966301,-0.168639705
1764511896.0900702,-5.82932,0.9919,-0.27468,-0.93896244,-0.2966301,-0.168639705
1764511896.0900702,-5.82932,0.9919,-0.27468,-0.93896244,-0.2966301,-0.168639705
1764511896.0900702,-5.82932,0.9919,-0.27468,-0.93896244,-0.2966301,-0.168639705
1764511896.0900702,-5.82932,0.9919,-0.27468,-0.93896244,-0.2966301,-0.168639705
1764511896.0910678,-5.82932,0.9919,-0.27468,-0.93896244,-0.2966301,-0.168639705
1764511896.0910678,-5.82932,0.9919,-0.27468,-0.93896244,-0.2966301,-0.168639705
1764511896.0910678,-4.97476,1.63282,0.71722,-0.935483445,-0.29980392,-0.168395565
1764511896.0917473,-4.97476,1.63282,0.71722,-0.935483445,-0.29980392,-0.168395565
1764511896.0917473,-4.97476,1.63282,0.71722,-0.935483445,-0.29980392,-0.168395565
1764511896.0917473,-4.97476,1.63282,0.71722,-0.935483445,-0.29980392,-0.168395565
1764511896.1316824,-4.97476,1.63282,0.71722,-0.935483445,-0.29980392,-0.168395565
1764511896.132728,-4.97476,1.63282,0.71722,-0.935483445,-0.29980392,-0.168395565
1764511896.132728,-4.97476,1.63282,0.71722,-0.935483445,-0.29980392,-0.168395565
1764511896.132728,-4.97476,1.63282,0.71722,-0.935483445,-0.29980392,-0.168395565
1764511896.132728,-4.97476,1.63282,0.71722,-0.935483445,-0.29980392,-0.168395565
1764511896.132728,-4.97476,1.63282,0.71722,-0.935483445,-0.29980392,-0.168395565
1764511896.132728,-3.52506,2.41108,0.3204599999999999,-0.933896535,-0.300231165,-0.16686969
1764511896.132728,-3.52506,2.41108,0.3204599999999999,-0.933896535,-0.300231165,-0.16686969
1764511896.132728,-3.52506,2.41108,0.3204599999999999,-0.933896535,-0.300231165,-0.16686969
1764511896.132728,-3.52506,2.41108,0.3204599999999999,-0.933896535,-0.300231165,-0.16686969
1764511896.132728,-3.52506,2.41108,0.3204599999999999,-0.933896535,-0.300231165,-0.16686969
1764511896.132728,-3.52506,2.41108,0.3204599999999999,-0.933896535,-0.300231165,-0.16686969
1764511896.132728,-3.52506,2.41108,0.3204599999999999,-0.933896535,-0.300231165,-0.16686969
1764511896.132728,-3.52506,2.41108,0.3204599999999999,-0.933896535,-0.300231165,-0.16686969
1764511896.132728,-3.52506,2.41108,0.3204599999999999,-0.933896535,-0.300231165,-0.16686969
1764511896.132728,-3.52506,2.41108,0.3204599999999999,-0.933896535,-0.300231165,-0.16686969
1764511896.132728,-2.80784,1.15976,0.0762999999999999,-0.935483445,-0.29797287,-0.166564515
1764511896.132728,-2.80784,1.15976,0.0762999999999999,-0.935483445,-0.29797287,-0.166564515
1764511896.132728,-2.80784,1.15976,0.0762999999999999,-0.935483445,-0.29797287,-0.166564515
1764511896.132728,-2.80784,1.15976,0.0762999999999999,-0.935483445,-0.29797287,-0.166564515
1764511896.132728,-2.80784,1.15976,0.0762999999999999,-0.935483445,-0.29797287,-0.166564515
1764511896.132728,-2.80784,1.15976,0.0762999999999999,-0.935483445,-0.29797287,-0.166564515
1764511896.132728,-2.80784,1.15976,0.0762999999999999,-0.935483445,-0.29797287,-0.166564515
1764511896.132728,-2.80784,1.15976,0.0762999999999999,-0.935483445,-0.29797287,-0.166564515
1764511896.178663,-2.80784,1.15976,0.0762999999999999,-0.935483445,-0.29797287,-0.166564515
1764511896.178663,-2.80784,1.15976,0.0762999999999999,-0.935483445,-0.29797287,-0.166564515
1764511896.178663,-4.08968,0.54936,1.05294,-0.93725346,-0.294860085,-0.16760211
1764511896.178663,-4.08968,0.54936,1.05294,-0.93725346,-0.294860085,-0.16760211
1764511896.178663,-4.08968,0.54936,1.05294,-0.93725346,-0.294860085,-0.16760211
1764511896.178663,-4.08968,0.54936,1.05294,-0.93725346,-0.294860085,-0.16760211
1764511896.178663,-4.08968,0.54936,1.05294,-0.93725346,-0.294860085,-0.16760211
1764511896.178663,-4.08968,0.54936,1.05294,-0.93725346,-0.294860085,-0.16760211
1764511896.178663,-4.08968,0.54936,1.05294,-0.93725346,-0.294860085,-0.16760211
1764511896.178663,-4.08968,0.54936,1.05294,-0.93725346,-0.294860085,-0.16760211
1764511896.1806786,-4.08968,0.54936,1.05294,-0.93725346,-0.294860085,-0.16760211
1764511896.1806786,-4.08968,0.54936,1.05294,-0.93725346,-0.294860085,-0.16760211
1764511896.1806786,-5.73776,0.56462,1.1445,-0.93700932,-0.294249735,-0.16931109
1764511896.1806786,-5.73776,0.56462,1.1445,-0.93700932,-0.294249735,-0.16931109
1764511896.1806786,-5.73776,0.56462,1.1445,-0.93700932,-0.294249735,-0.16931109
1764511896.1806786,-5.73776,0.56462,1.1445,-0.93700932,-0.294249735,-0.16931109
1764511896.1806786,-5.73776,0.56462,1.1445,-0.93700932,-0.294249735,-0.16931109
1764511896.1806786,-5.73776,0.56462,1.1445,-0.93700932,-0.294249735,-0.16931109
1764511896.1806786,-5.73776,0.56462,1.1445,-0.93700932,-0.294249735,-0.16931109
1764511896.1806786,-5.73776,0.56462,1.1445,-0.93700932,-0.294249735,-0.16931109
1764511896.1806786,-5.73776,0.56462,1.1445,-0.93700932,-0.294249735,-0.16931109
1764511896.1806786,-5.73776,0.56462,1.1445,-0.93700932,-0.294249735,-0.16931109
1764511896.2242465,-6.027699999999999,1.23606,0.73248,-0.93774174,-0.29516526,-0.170592825
1764511896.2242465,-6.027699999999999,1.23606,0.73248,-0.93774174,-0.29516526,-0.170592825
1764511896.2242465,-6.027699999999999,1.23606,0.73248,-0.93774174,-0.29516526,-0.170592825
1764511896.2242465,-6.027699999999999,1.23606,0.73248,-0.93774174,-0.29516526,-0.170592825
1764511896.2242465,-6.027699999999999,1.23606,0.73248,-0.93774174,-0.29516526,-0.170592825
1764511896.2242465,-6.027699999999999,1.23606,0.73248,-0.93774174,-0.29516526,-0.170592825
1764511896.2242465,-6.027699999999999,1.23606,0.73248,-0.93774174,-0.29516526,-0.170592825
1764511896.2242465,-6.027699999999999,1.23606,0.73248,-0.93774174,-0.29516526,-0.170592825
1764511896.2242465,-6.027699999999999,1.23606,0.73248,-0.93774174,-0.29516526,-0.170592825
1764511896.2242465,-6.027699999999999,1.23606,0.73248,-0.93774174,-0.29516526,-0.170592825
1764511896.2242465,-4.79164,1.4039199999999998,0.6409199999999999,-0.938046915,-0.296813205,-0.1696773
1764511896.2242465,-4.79164,1.4039199999999998,0.6409199999999999,-0.938046915,-0.296813205,-0.1696773
1764511896.2242465,-4.79164,1.4039199999999998,0.6409199999999999,-0.938046915,-0.296813205,-0.1696773
1764511896.2242465,-4.79164,1.4039199999999998,0.6409199999999999,-0.938046915,-0.296813205,-0.1696773
1764511896.2242465,-4.79164,1.4039199999999998,0.6409199999999999,-0.938046915,-0.296813205,-0.1696773
1764511896.2242465,-4.79164,1.4039199999999998,0.6409199999999999,-0.938046915,-0.296813205,-0.1696773
1764511896.2242465,-4.79164,1.4039199999999998,0.6409199999999999,-0.938046915,-0.296813205,-0.1696773
1764511896.2242465,-4.79164,1.4039199999999998,0.6409199999999999,-0.938046915,-0.296813205,-0.1696773
1764511896.2242465,-4.79164,1.4039199999999998,0.6409199999999999,-0.938046915,-0.296813205,-0.1696773
1764511896.2242465,-4.79164,1.4039199999999998,0.6409199999999999,-0.938046915,-0.296813205,-0.1696773
1764511896.2242465,-3.64714,1.49548,0.65618,-0.938046915,-0.29809494,-0.168517635
1764511896.2242465,-3.64714,1.49548,0.65618,-0.938046915,-0.29809494,-0.168517635
1764511896.2705653,-3.64714,1.49548,0.65618,-0.938046915,-0.29809494,-0.168517635
1764511896.2705653,-3.64714,1.49548,0.65618,-0.938046915,-0.29809494,-0.168517635
1764511896.2705653,-3.64714,1.49548,0.65618,-0.938046915,-0.29809494,-0.168517635
1764511896.2705653,-3.64714,1.49548,0.65618,-0.938046915,-0.29809494,-0.168517635
1764511896.2705653,-3.64714,1.49548,0.65618,-0.938046915,-0.29809494,-0.168517635
1764511896.2705653,-3.64714,1.49548,0.65618,-0.938046915,-0.29809494,-0.168517635
1764511896.2705653,-3.64714,1.49548,0.65618,-0.938046915,-0.29809494,-0.168517635
1764511896.2705653,-3.64714,1.49548,0.65618,-0.938046915,-0.29809494,-0.168517635
1764511896.2705653,-7.81312,1.6786,0.74774,-0.936826215,-0.298155975,-0.16760211
1764511896.271572,-7.81312,1.6786,0.74774,-0.936826215,-0.298155975,-0.16760211
1764511896.271572,-7.81312,1.6786,0.74774,-0.936826215,-0.298155975,-0.16760211
1764511896.271572,-7.81312,1.6786,0.74774,-0.936826215,-0.298155975,-0.16760211
1764511896.271572,-7.81312,1.6786,0.74774,-0.936826215,-0.298155975,-0.16760211
1764511896.271572,-7.81312,1.6786,0.74774,-0.936826215,-0.298155975,-0.16760211
1764511896.271572,-7.81312,1.6786,0.74774,-0.936826215,-0.298155975,-0.16760211
1764511896.271572,-7.81312,1.6786,0.74774,-0.936826215,-0.298155975,-0.16760211
1764511896.271572,-7.81312,1.6786,0.74774,-0.936826215,-0.298155975,-0.16760211
1764511896.271572,-7.81312,1.6786,0.74774,-0.936826215,-0.298155975,-0.16760211
1764511896.271572,-4.059159999999999,1.84646,1.02242,-0.93603276,-0.297301485,-0.166198305
1764511896.271572,-4.059159999999999,1.84646,1.02242,-0.93603276,-0.297301485,-0.166198305
1764511896.271572,-4.059159999999999,1.84646,1.02242,-0.93603276,-0.297301485,-0.166198305
1764511896.271572,-4.059159999999999,1.84646,1.02242,-0.93603276,-0.297301485,-0.166198305
1764511896.271572,-4.059159999999999,1.84646,1.02242,-0.93603276,-0.297301485,-0.166198305
1764511896.271572,-4.059159999999999,1.84646,1.02242,-0.93603276,-0.297301485,-0.166198305
1764511896.3207788,-4.059159999999999,1.84646,1.02242,-0.93603276,-0.297301485,-0.166198305
1764511896.3207788,-4.059159999999999,1.84646,1.02242,-0.93603276,-0.297301485,-0.166198305
1764511896.3207788,-4.059159999999999,1.84646,1.02242,-0.93603276,-0.297301485,-0.166198305
1764511896.3207788,-4.059159999999999,1.84646,1.02242,-0.93603276,-0.297301485,-0.166198305
1764511896.3207788,-5.35626,1.57178,1.00716,-0.936460005,-0.29589768,-0.16650348
1764511896.3207788,-5.35626,1.57178,1.00716,-0.936460005,-0.29589768,-0.16650348
1764511896.3207788,-5.35626,1.57178,1.00716,-0.936460005,-0.29589768,-0.16650348
1764511896.3207788,-5.35626,1.57178,1.00716,-0.936460005,-0.29589768,-0.16650348
1764511896.3207788,-5.35626,1.57178,1.00716,-0.936460005,-0.29589768,-0.16650348
1764511896.3217933,-5.35626,1.57178,1.00716,-0.936460005,-0.29589768,-0.16650348
1764511896.3217933,-5.35626,1.57178,1.00716,-0.936460005,-0.29589768,-0.16650348
1764511896.3217933,-5.35626,1.57178,1.00716,-0.936460005,-0.29589768,-0.16650348
1764511896.3217933,-5.35626,1.57178,1.00716,-0.936460005,-0.29589768,-0.16650348
1764511896.3217933,-5.35626,1.57178,1.00716,-0.936460005,-0.29589768,-0.16650348
1764511896.3217933,-6.19556,1.09872,0.71722,-0.936826215,-0.29553147,-0.167052795
1764511896.3217933,-6.19556,1.09872,0.71722,-0.936826215,-0.29553147,-0.167052795
1764511896.3217933,-6.19556,1.09872,0.71722,-0.936826215,-0.29553147,-0.167052795
1764511896.3217933,-6.19556,1.09872,0.71722,-0.936826215,-0.29553147,-0.167052795
1764511896.3217933,-6.19556,1.09872,0.71722,-0.936826215,-0.29553147,-0.167052795
1764511896.3217933,-6.19556,1.09872,0.71722,-0.936826215,-0.29553147,-0.167052795
1764511896.3217933,-6.19556,1.09872,0.71722,-0.936826215,-0.29553147,-0.167052795
1764511896.3217933,-6.19556,1.09872,0.71722,-0.936826215,-0.29553147,-0.167052795
1764511896.3217933,-6.19556,1.09872,0.71722,-0.936826215,-0.29553147,-0.167052795
1764511896.3217933,-6.19556,1.09872,0.71722,-0.936826215,-0.29553147,-0.167052795
1764511896.3675184,-7.27902,1.43444,0.12208,-0.936337935,-0.296324925,-0.16796832
1764511896.3675184,-7.27902,1.43444,0.12208,-0.936337935,-0.296324925,-0.16796832
1764511896.3675184,-7.27902,1.43444,0.12208,-0.936337935,-0.296324925,-0.16796832
1764511896.3685198,-7.27902,1.43444,0.12208,-0.936337935,-0.296324925,-0.16796832
1764511896.3685198,-7.27902,1.43444,0.12208,-0.936337935,-0.296324925,-0.16796832
1764511896.3685198,-7.27902,1.43444,0.12208,-0.936337935,-0.296324925,-0.16796832
1764511896.3685198,-7.27902,1.43444,0.12208,-0.936337935,-0.296324925,-0.16796832
1764511896.3685198,-7.27902,1.43444,0.12208,-0.936337935,-0.296324925,-0.16796832
1764511896.3685198,-7.27902,1.43444,0.12208,-0.936337935,-0.296324925,-0.16796832
1764511896.3685198,-7.27902,1.43444,0.12208,-0.936337935,-0.296324925,-0.16796832
1764511896.3685198,-5.4173,1.12924,0.74774,-0.93603276,-0.2978508,-0.168639705
1764511896.3685198,-5.4173,1.12924,0.74774,-0.93603276,-0.2978508,-0.168639705
1764511896.3685198,-5.4173,1.12924,0.74774,-0.93603276,-0.2978508,-0.168639705
1764511896.3685198,-5.4173,1.12924,0.74774,-0.93603276,-0.2978508,-0.168639705
1764511896.3685198,-5.4173,1.12924,0.74774,-0.93603276,-0.2978508,-0.168639705
1764511896.3685198,-5.4173,1.12924,0.74774,-0.93603276,-0.2978508,-0.168639705
1764511896.3685198,-5.4173,1.12924,0.74774,-0.93603276,-0.2978508,-0.168639705
1764511896.3685198,-5.4173,1.12924,0.74774,-0.93603276,-0.2978508,-0.168639705
1764511896.3685198,-5.4173,1.12924,0.74774,-0.93603276,-0.2978508,-0.168639705
1764511896.3685198,-5.4173,1.12924,0.74774,-0.93603276,-0.2978508,-0.168639705
1764511896.3685198,-3.46402,1.57178,0.57988,-0.93615483,-0.299864955,-0.169250055
1764511896.3685198,-3.46402,1.57178,0.57988,-0.93615483,-0.299864955,-0.169250055
1764511896.4126358,-3.46402,1.57178,0.57988,-0.93615483,-0.299864955,-0.169250055
1764511896.4126358,-3.46402,1.57178,0.57988,-0.93615483,-0.299864955,-0.169250055
1764511896.4126358,-3.46402,1.57178,0.57988,-0.93615483,-0.299864955,-0.169250055
1764511896.4126358,-3.46402,1.57178,0.57988,-0.93615483,-0.299864955,-0.169250055
1764511896.4126358,-3.46402,1.57178,0.57988,-0.93615483,-0.299864955,-0.169250055
1764511896.4126358,-3.46402,1.57178,0.57988,-0.93615483,-0.299864955,-0.169250055
1764511896.4126358,-3.46402,1.57178,0.57988,-0.93615483,-0.299864955,-0.169250055
1764511896.4126358,-3.46402,1.57178,0.57988,-0.93615483,-0.299864955,-0.169250055
1764511896.4126358,-4.33384,1.86172,0.8392999999999999,-0.93786381,-0.298766325,-0.169860405
1764511896.4126358,-4.33384,1.86172,0.8392999999999999,-0.93786381,-0.298766325,-0.169860405
1764511896.413675,-4.33384,1.86172,0.8392999999999999,-0.93786381,-0.298766325,-0.169860405
1764511896.413675,-4.33384,1.86172,0.8392999999999999,-0.93786381,-0.298766325,-0.169860405
1764511896.413675,-4.33384,1.86172,0.8392999999999999,-0.93786381,-0.298766325,-0.169860405
1764511896.413675,-4.33384,1.86172,0.8392999999999999,-0.93786381,-0.298766325,-0.169860405
1764511896.4146814,-4.33384,1.86172,0.8392999999999999,-0.93786381,-0.298766325,-0.169860405
1764511896.4146814,-4.33384,1.86172,0.8392999999999999,-0.93786381,-0.298766325,-0.169860405
1764511896.4146814,-4.33384,1.86172,0.8392999999999999,-0.93786381,-0.298766325,-0.169860405
1764511896.4146814,-4.33384,1.86172,0.8392999999999999,-0.93786381,-0.298766325,-0.169860405
1764511896.4156811,-4.47118,1.4497,0.97664,-0.937436565,-0.29638596,-0.16894488
1764511896.4156811,-4.47118,1.4497,0.97664,-0.937436565,-0.29638596,-0.16894488
1764511896.4162023,-4.47118,1.4497,0.97664,-0.937436565,-0.29638596,-0.16894488
1764511896.4162023,-4.47118,1.4497,0.97664,-0.937436565,-0.29638596,-0.16894488
1764511896.4162023,-4.47118,1.4497,0.97664,-0.937436565,-0.29638596,-0.16894488
1764511896.4162023,-4.47118,1.4497,0.97664,-0.937436565,-0.29638596,-0.16894488
1764511896.4581733,-4.47118,1.4497,0.97664,-0.937436565,-0.29638596,-0.16894488
1764511896.4581733,-4.47118,1.4497,0.97664,-0.937436565,-0.29638596,-0.16894488
1764511896.4581733,-4.47118,1.4497,0.97664,-0.937436565,-0.29638596,-0.16894488
1764511896.4581733,-4.47118,1.4497,0.97664,-0.937436565,-0.29638596,-0.16894488
1764511896.459784,-2.8994,2.39582,0.79352,-0.937924845,-0.296813205,-0.167174865
1764511896.459784,-2.8994,2.39582,0.79352,-0.937924845,-0.296813205,-0.167174865
1764511896.459784,-2.8994,2.39582,0.79352,-0.937924845,-0.296813205,-0.167174865
1764511896.459784,-2.8994,2.39582,0.79352,-0.937924845,-0.296813205,-0.167174865
1764511896.459784,-2.8994,2.39582,0.79352,-0.937924845,-0.296813205,-0.167174865
1764511896.4691155,-2.8994,2.39582,0.79352,-0.937924845,-0.296813205,-0.167174865
1764511896.4691155,-2.8994,2.39582,0.79352,-0.937924845,-0.296813205,-0.167174865
1764511896.4691155,-2.8994,2.39582,0.79352,-0.937924845,-0.296813205,-0.167174865
1764511896.4701085,-2.8994,2.39582,0.79352,-0.937924845,-0.296813205,-0.167174865
1764511896.4701085,-2.8994,2.39582,0.79352,-0.937924845,-0.296813205,-0.167174865
1764511896.4701085,-2.63998,1.73964,0.24416,-0.93969486,-0.29833908,-0.165832095
1764511896.4701085,-2.63998,1.73964,0.24416,-0.93969486,-0.29833908,-0.165832095
1764511896.4711156,-2.63998,1.73964,0.24416,-0.93969486,-0.29833908,-0.165832095
1764511896.4711156,-2.63998,1.73964,0.24416,-0.93969486,-0.29833908,-0.165832095
1764511896.4711156,-2.63998,1.73964,0.24416,-0.93969486,-0.29833908,-0.165832095
1764511896.4711156,-2.63998,1.73964,0.24416,-0.93969486,-0.29833908,-0.165832095
1764511896.4721138,-2.63998,1.73964,0.24416,-0.93969486,-0.29833908,-0.165832095
1764511896.4721138,-2.63998,1.73964,0.24416,-0.93969486,-0.29833908,-0.165832095
1764511896.508413,-2.63998,1.73964,0.24416,-0.93969486,-0.29833908,-0.165832095
1764511896.508413,-2.63998,1.73964,0.24416,-0.93969486,-0.29833908,-0.165832095
1764511896.508413,-4.41014,1.99906,0.25942,-0.937314495,-0.29638596,-0.16503864
1764511896.508413,-4.41014,1.99906,0.25942,-0.937314495,-0.29638596,-0.16503864
1764511896.508413,-4.41014,1.99906,0.25942,-0.937314495,-0.29638596,-0.16503864
1764511896.508413,-4.41014,1.99906,0.25942,-0.937314495,-0.29638596,-0.16503864
1764511896.508413,-4.41014,1.99906,0.25942,-0.937314495,-0.29638596,-0.16503864
1764511896.508413,-4.41014,1.99906,0.25942,-0.937314495,-0.29638596,-0.16503864
1764511896.508413,-4.41014,1.99906,0.25942,-0.937314495,-0.29638596,-0.16503864
1764511896.508413,-4.41014,1.99906,0.25942,-0.937314495,-0.29638596,-0.16503864
1764511896.508413,-4.41014,1.99906,0.25942,-0.937314495,-0.29638596,-0.16503864
1764511896.508413,-4.41014,1.99906,0.25942,-0.937314495,-0.29638596,-0.16503864
1764511896.508413,-5.14262,1.8006799999999998,-0.7019599999999999,-0.93774174,-0.293395245,-0.166808655
1764511896.508413,-5.14262,1.8006799999999998,-0.7019599999999999,-0.93774174,-0.293395245,-0.166808655
1764511896.508413,-5.14262,1.8006799999999998,-0.7019599999999999,-0.93774174,-0.293395245,-0.166808655
1764511896.508413,-5.14262,1.8006799999999998,-0.7019599999999999,-0.93774174,-0.293395245,-0.166808655
1764511896.508413,-5.14262,1.8006799999999998,-0.7019599999999999,-0.93774174,-0.293395245,-0.166808655
1764511896.508413,-5.14262,1.8006799999999998,-0.7019599999999999,-0.93774174,-0.293395245,-0.166808655
1764511896.508413,-5.14262,1.8006799999999998,-0.7019599999999999,-0.93774174,-0.293395245,-0.166808655
1764511896.508413,-5.14262,1.8006799999999998,-0.7019599999999999,-0.93774174,-0.293395245,-0.166808655
1764511896.508413,-5.14262,1.8006799999999998,-0.7019599999999999,-0.93774174,-0.293395245,-0.166808655
1764511896.508413,-5.14262,1.8006799999999998,-0.7019599999999999,-0.93774174,-0.293395245,-0.166808655
1764511896.508413,-5.24944,0.3204599999999999,0.01526,-0.939633825,-0.29321214,-0.17004351
1764511896.508413,-5.24944,0.3204599999999999,0.01526,-0.939633825,-0.29321214,-0.17004351
1764511896.508413,-5.24944,0.3204599999999999,0.01526,-0.939633825,-0.29321214,-0.17004351
1764511896.508413,-5.24944,0.3204599999999999,0.01526,-0.939633825,-0.29321214,-0.17004351
1764511896.5523484,-5.24944,0.3204599999999999,0.01526,-0.939633825,-0.29321214,-0.17004351
1764511896.5523484,-5.24944,0.3204599999999999,0.01526,-0.939633825,-0.29321214,-0.17004351
1764511896.5523484,-5.24944,0.3204599999999999,0.01526,-0.939633825,-0.29321214,-0.17004351
1764511896.5534284,-5.24944,0.3204599999999999,0.01526,-0.939633825,-0.29321214,-0.17004351
1764511896.5534284,-5.24944,0.3204599999999999,0.01526,-0.939633825,-0.29321214,-0.17004351
1764511896.5534284,-5.24944,0.3204599999999999,0.01526,-0.939633825,-0.29321214,-0.17004351
1764511896.5534284,-4.86794,0.36624,0.44254,-0.93884037,-0.295226295,-0.172179735
1764511896.5534284,-4.86794,0.36624,0.44254,-0.93884037,-0.295226295,-0.172179735
1764511896.5534284,-4.86794,0.36624,0.44254,-0.93884037,-0.295226295,-0.172179735
1764511896.5534284,-4.86794,0.36624,0.44254,-0.93884037,-0.295226295,-0.172179735
1764511896.5534284,-4.86794,0.36624,0.44254,-0.93884037,-0.295226295,-0.172179735
1764511896.5534284,-4.86794,0.36624,0.44254,-0.93884037,-0.295226295,-0.172179735
1764511896.5534284,-4.86794,0.36624,0.44254,-0.93884037,-0.295226295,-0.172179735
1764511896.5534284,-4.86794,0.36624,0.44254,-0.93884037,-0.295226295,-0.172179735
1764511896.5534284,-4.86794,0.36624,0.44254,-0.93884037,-0.295226295,-0.172179735
1764511896.5534284,-4.86794,0.36624,0.44254,-0.93884037,-0.295226295,-0.172179735
1764511896.5534284,-3.54032,1.8312,0.8392999999999999,-0.9362769,-0.298522185,-0.170348685
1764511896.5534284,-3.54032,1.8312,0.8392999999999999,-0.9362769,-0.298522185,-0.170348685
1764511896.5534284,-3.54032,1.8312,0.8392999999999999,-0.9362769,-0.298522185,-0.170348685
1764511896.5534284,-3.54032,1.8312,0.8392999999999999,-0.9362769,-0.298522185,-0.170348685
1764511896.5998693,-3.54032,1.8312,0.8392999999999999,-0.9362769,-0.298522185,-0.170348685
1764511896.5998693,-3.54032,1.8312,0.8392999999999999,-0.9362769,-0.298522185,-0.170348685
1764511896.5998693,-3.54032,1.8312,0.8392999999999999,-0.9362769,-0.298522185,-0.170348685
1764511896.5998693,-3.54032,1.8312,0.8392999999999999,-0.9362769,-0.298522185,-0.170348685
1764511896.5998693,-3.54032,1.8312,0.8392999999999999,-0.9362769,-0.298522185,-0.170348685
1764511896.5998693,-3.54032,1.8312,0.8392999999999999,-0.9362769,-0.298522185,-0.170348685
1764511896.5998693,-1.57178,2.56368,1.2055399999999998,-0.934873095,-0.300109095,-0.16870074
1764511896.5998693,-1.57178,2.56368,1.2055399999999998,-0.934873095,-0.300109095,-0.16870074
1764511896.5998693,-1.57178,2.56368,1.2055399999999998,-0.934873095,-0.300109095,-0.16870074
1764511896.5998693,-1.57178,2.56368,1.2055399999999998,-0.934873095,-0.300109095,-0.16870074
1764511896.5998693,-1.57178,2.56368,1.2055399999999998,-0.934873095,-0.300109095,-0.16870074
1764511896.6004217,-1.57178,2.56368,1.2055399999999998,-0.934873095,-0.300109095,-0.16870074
1764511896.6004217,-1.57178,2.56368,1.2055399999999998,-0.934873095,-0.300109095,-0.16870074
1764511896.6004217,-1.57178,2.56368,1.2055399999999998,-0.934873095,-0.300109095,-0.16870074
1764511896.6004217,-1.57178,2.56368,1.2055399999999998,-0.934873095,-0.300109095,-0.16870074
1764511896.6004217,-1.57178,2.56368,1.2055399999999998,-0.934873095,-0.300109095,-0.16870074
1764511896.6004217,-2.22796,2.16692,0.03052,-0.93517827,-0.298278045,-0.16760211
1764511896.6004217,-2.22796,2.16692,0.03052,-0.93517827,-0.298278045,-0.16760211
1764511896.6004217,-2.22796,2.16692,0.03052,-0.93517827,-0.298278045,-0.16760211
1764511896.6004217,-2.22796,2.16692,0.03052,-0.93517827,-0.298278045,-0.16760211
1764511896.6004217,-2.22796,2.16692,0.03052,-0.93517827,-0.298278045,-0.16760211
1764511896.6004217,-2.22796,2.16692,0.03052,-0.93517827,-0.298278045,-0.16760211
1764511896.6004217,-2.22796,2.16692,0.03052,-0.93517827,-0.298278045,-0.16760211
1764511896.6004217,-2.22796,2.16692,0.03052,-0.93517827,-0.298278045,-0.16760211
1764511896.6004217,-2.22796,2.16692,0.03052,-0.93517827,-0.298278045,-0.16760211
1764511896.6004217,-2.22796,2.16692,0.03052,-0.93517827,-0.298278045,-0.16760211
1764511896.6469283,-3.72344,1.08346,0.50358,-0.93859623,-0.295226295,-0.168151425
1764511896.6479282,-3.72344,1.08346,0.50358,-0.93859623,-0.295226295,-0.168151425
1764511896.6479282,-3.72344,1.08346,0.50358,-0.93859623,-0.295226295,-0.168151425
1764511896.6479282,-3.72344,1.08346,0.50358,-0.93859623,-0.295226295,-0.168151425
1764511896.6479282,-3.72344,1.08346,0.50358,-0.93859623,-0.295226295,-0.168151425
1764511896.6479282,-3.72344,1.08346,0.50358,-0.93859623,-0.295226295,-0.168151425
1764511896.6479282,-3.72344,1.08346,0.50358,-0.93859623,-0.295226295,-0.168151425
1764511896.6479282,-3.72344,1.08346,0.50358,-0.93859623,-0.295226295,-0.168151425
1764511896.6479282,-3.72344,1.08346,0.50358,-0.93859623,-0.295226295,-0.168151425
1764511896.6479282,-3.72344,1.08346,0.50358,-0.93859623,-0.295226295,-0.168151425
1764511896.6479282,-6.165039999999999,0.59514,0.65618,-0.93945072,-0.29406663,-0.1684566
1764511896.6479282,-6.165039999999999,0.59514,0.65618,-0.93945072,-0.29406663,-0.1684566
1764511896.6479282,-6.165039999999999,0.59514,0.65618,-0.93945072,-0.29406663,-0.1684566
1764511896.6479282,-6.165039999999999,0.59514,0.65618,-0.93945072,-0.29406663,-0.1684566
1764511896.6479282,-6.165039999999999,0.59514,0.65618,-0.93945072,-0.29406663,-0.1684566
1764511896.6479282,-6.165039999999999,0.59514,0.65618,-0.93945072,-0.29406663,-0.1684566
1764511896.6479282,-6.165039999999999,0.59514,0.65618,-0.93945072,-0.29406663,-0.1684566
1764511896.6489213,-6.165039999999999,0.59514,0.65618,-0.93945072,-0.29406663,-0.1684566
1764511896.6489213,-6.165039999999999,0.59514,0.65618,-0.93945072,-0.29406663,-0.1684566
1764511896.6489213,-6.165039999999999,0.59514,0.65618,-0.93945072,-0.29406663,-0.1684566
1764511896.6489213,-6.9433,1.11398,0.42728,-0.938901405,-0.2954094,-0.16906695
1764511896.6499295,-6.9433,1.11398,0.42728,-0.938901405,-0.2954094,-0.16906695
1764511896.690398,-6.9433,1.11398,0.42728,-0.938901405,-0.2954094,-0.16906695
1764511896.690398,-6.9433,1.11398,0.42728,-0.938901405,-0.2954094,-0.16906695
1764511896.6924422,-6.9433,1.11398,0.42728,-0.938901405,-0.2954094,-0.16906695
1764511896.6924422,-6.9433,1.11398,0.42728,-0.938901405,-0.2954094,-0.16906695
1764511896.6924422,-6.9433,1.11398,0.42728,-0.938901405,-0.2954094,-0.16906695
1764511896.6924422,-6.9433,1.11398,0.42728,-0.938901405,-0.2954094,-0.16906695
1764511896.6924422,-6.9433,1.11398,0.42728,-0.938901405,-0.2954094,-0.16906695
1764511896.6924422,-6.9433,1.11398,0.42728,-0.938901405,-0.2954094,-0.16906695
1764511896.6924422,-5.35626,1.81594,0.56462,-0.937314495,-0.29699631,-0.1684566
1764511896.6934488,-5.35626,1.81594,0.56462,-0.937314495,-0.29699631,-0.1684566
1764511896.6934488,-5.35626,1.81594,0.56462,-0.937314495,-0.29699631,-0.1684566
1764511896.6934488,-5.35626,1.81594,0.56462,-0.937314495,-0.29699631,-0.1684566
1764511896.6934488,-5.35626,1.81594,0.56462,-0.937314495,-0.29699631,-0.1684566
1764511896.6934488,-5.35626,1.81594,0.56462,-0.937314495,-0.29699631,-0.1684566
1764511896.6934488,-5.35626,1.81594,0.56462,-0.937314495,-0.29699631,-0.1684566
1764511896.6934488,-5.35626,1.81594,0.56462,-0.937314495,-0.29699631,-0.1684566
1764511896.6934488,-5.35626,1.81594,0.56462,-0.937314495,-0.29699631,-0.1684566
1764511896.694447,-5.35626,1.81594,0.56462,-0.937314495,-0.29699631,-0.1684566
1764511896.694447,-2.7468,1.73964,-0.21364,-0.93786381,-0.297789765,-0.168029355
1764511896.694447,-2.7468,1.73964,-0.21364,-0.93786381,-0.297789765,-0.168029355
1764511896.6959589,-2.7468,1.73964,-0.21364,-0.93786381,-0.297789765,-0.168029355
1764511896.6959589,-2.7468,1.73964,-0.21364,-0.93786381,-0.297789765,-0.168029355
1764511896.7381442,-2.7468,1.73964,-0.21364,-0.93786381,-0.297789765,-0.168029355
1764511896.7381442,-2.7468,1.73964,-0.21364,-0.93786381,-0.297789765,-0.168029355
1764511896.7381442,-2.7468,1.73964,-0.21364,-0.93786381,-0.297789765,-0.168029355
1764511896.7381442,-2.7468,1.73964,-0.21364,-0.93786381,-0.297789765,-0.168029355
1764511896.7381442,-2.7468,1.73964,-0.21364,-0.93786381,-0.297789765,-0.168029355
1764511896.7381442,-2.7468,1.73964,-0.21364,-0.93786381,-0.297789765,-0.168029355
1764511896.7381442,-1.6633399999999998,1.26658,0.79352,-0.937924845,-0.298033905,-0.16674762
1764511896.7381442,-1.6633399999999998,1.26658,0.79352,-0.937924845,-0.298033905,-0.16674762
1764511896.7381442,-1.6633399999999998,1.26658,0.79352,-0.937924845,-0.298033905,-0.16674762
1764511896.7381442,-1.6633399999999998,1.26658,0.79352,-0.937924845,-0.298033905,-0.16674762
1764511896.7381442,-1.6633399999999998,1.26658,0.79352,-0.937924845,-0.298033905,-0.16674762
1764511896.7381442,-1.6633399999999998,1.26658,0.79352,-0.937924845,-0.298033905,-0.16674762
1764511896.739138,-1.6633399999999998,1.26658,0.79352,-0.937924845,-0.298033905,-0.16674762
1764511896.7401354,-1.6633399999999998,1.26658,0.79352,-0.937924845,-0.298033905,-0.16674762
1764511896.7401354,-1.6633399999999998,1.26658,0.79352,-0.937924845,-0.298033905,-0.16674762
1764511896.7401354,-1.6633399999999998,1.26658,0.79352,-0.937924845,-0.298033905,-0.16674762
1764511896.7411444,-3.93708,1.93802,1.19028,-0.937436565,-0.29614182,-0.16662555
1764511896.7411444,-3.93708,1.93802,1.19028,-0.937436565,-0.29614182,-0.16662555
1764511896.7411444,-3.93708,1.93802,1.19028,-0.937436565,-0.29614182,-0.16662555
1764511896.7411444,-3.93708,1.93802,1.19028,-0.937436565,-0.29614182,-0.16662555
1764511896.7411444,-3.93708,1.93802,1.19028,-0.937436565,-0.29614182,-0.16662555
1764511896.7421324,-3.93708,1.93802,1.19028,-0.937436565,-0.29614182,-0.16662555
1764511896.7421324,-3.93708,1.93802,1.19028,-0.937436565,-0.29614182,-0.16662555
1764511896.7421324,-3.93708,1.93802,1.19028,-0.937436565,-0.29614182,-0.16662555
1764511896.786579,-3.93708,1.93802,1.19028,-0.937436565,-0.29614182,-0.16662555
1764511896.786579,-3.93708,1.93802,1.19028,-0.937436565,-0.29614182,-0.16662555
1764511896.786579,-5.63094,1.26658,0.48832,-0.93896244,-0.29455491,-0.166564515
1764511896.786579,-5.63094,1.26658,0.48832,-0.93896244,-0.29455491,-0.166564515
1764511896.786579,-5.63094,1.26658,0.48832,-0.93896244,-0.29455491,-0.166564515
1764511896.786579,-5.63094,1.26658,0.48832,-0.93896244,-0.29455491,-0.166564515
1764511896.786579,-5.63094,1.26658,0.48832,-0.93896244,-0.29455491,-0.166564515
1764511896.786579,-5.63094,1.26658,0.48832,-0.93896244,-0.29455491,-0.166564515
1764511896.786579,-5.63094,1.26658,0.48832,-0.93896244,-0.29455491,-0.166564515
1764511896.786579,-5.63094,1.26658,0.48832,-0.93896244,-0.29455491,-0.166564515
1764511896.786579,-5.63094,1.26658,0.48832,-0.93896244,-0.29455491,-0.166564515
1764511896.786579,-5.63094,1.26658,0.48832,-0.93896244,-0.29455491,-0.166564515
1764511896.786579,-6.08874,1.32762,-0.47306,-0.94042728,-0.29455491,-0.16821246
1764511896.786579,-6.08874,1.32762,-0.47306,-0.94042728,-0.29455491,-0.16821246
1764511896.786579,-6.08874,1.32762,-0.47306,-0.94042728,-0.29455491,-0.16821246
1764511896.786579,-6.08874,1.32762,-0.47306,-0.94042728,-0.29455491,-0.16821246
1764511896.786579,-6.08874,1.32762,-0.47306,-0.94042728,-0.29455491,-0.16821246
1764511896.786579,-6.08874,1.32762,-0.47306,-0.94042728,-0.29455491,-0.16821246
1764511896.786579,-6.08874,1.32762,-0.47306,-0.94042728,-0.29455491,-0.16821246
1764511896.786579,-6.08874,1.32762,-0.47306,-0.94042728,-0.29455491,-0.16821246
1764511896.786579,-6.08874,1.32762,-0.47306,-0.94042728,-0.29455491,-0.16821246
1764511896.7875955,-6.08874,1.32762,-0.47306,-0.94042728,-0.29455491,-0.16821246
1764511896.7875955,-5.753019999999999,0.65618,-0.6714399999999999,-0.93957279,-0.296080785,-0.169616265
1764511896.7875955,-5.753019999999999,0.65618,-0.6714399999999999,-0.93957279,-0.296080785,-0.169616265
1764511896.831541,-5.753019999999999,0.65618,-0.6714399999999999,-0.93957279,-0.296080785,-0.169616265
1764511896.832535,-5.753019999999999,0.65618,-0.6714399999999999,-0.93957279,-0.296080785,-0.169616265
1764511896.832535,-5.753019999999999,0.65618,-0.6714399999999999,-0.93957279,-0.296080785,-0.169616265
1764511896.832535,-5.753019999999999,0.65618,-0.6714399999999999,-0.93957279,-0.296080785,-0.169616265
1764511896.832535,-5.753019999999999,0.65618,-0.6714399999999999,-0.93957279,-0.296080785,-0.169616265
1764511896.833535,-5.753019999999999,0.65618,-0.6714399999999999,-0.93957279,-0.296080785,-0.169616265
1764511896.833535,-5.753019999999999,0.65618,-0.6714399999999999,-0.93957279,-0.296080785,-0.169616265
1764511896.833535,-5.753019999999999,0.65618,-0.6714399999999999,-0.93957279,-0.296080785,-0.169616265
1764511896.833535,-4.715339999999999,1.58704,0.28994,-0.936948285,-0.299620815,-0.169738335
1764511896.833535,-4.715339999999999,1.58704,0.28994,-0.936948285,-0.299620815,-0.169738335
1764511896.833535,-4.715339999999999,1.58704,0.28994,-0.936948285,-0.299620815,-0.169738335
1764511896.834534,-4.715339999999999,1.58704,0.28994,-0.936948285,-0.299620815,-0.169738335
1764511896.834534,-4.715339999999999,1.58704,0.28994,-0.936948285,-0.299620815,-0.169738335
1764511896.834534,-4.715339999999999,1.58704,0.28994,-0.936948285,-0.299620815,-0.169738335
1764511896.834534,-4.715339999999999,1.58704,0.28994,-0.936948285,-0.299620815,-0.169738335
1764511896.834534,-4.715339999999999,1.58704,0.28994,-0.936948285,-0.299620815,-0.169738335
1764511896.834534,-4.715339999999999,1.58704,0.28994,-0.936948285,-0.299620815,-0.169738335
1764511896.8355362,-4.715339999999999,1.58704,0.28994,-0.936948285,-0.299620815,-0.169738335
1764511896.8355362,-2.96044,3.14356,0.36624,-0.93395757,-0.30200118,-0.168517635
1764511896.8355362,-2.96044,3.14356,0.36624,-0.93395757,-0.30200118,-0.168517635
1764511896.8355362,-2.96044,3.14356,0.36624,-0.93395757,-0.30200118,-0.168517635
1764511896.8360476,-2.96044,3.14356,0.36624,-0.93395757,-0.30200118,-0.168517635
