Timestamp,GyroX,GyroY,GyroZ,AccX,AccY,AccZ
1764512674.804232,-3.09778,1.87698,1.00716,0.968442345,0.08996559,0.125304855
1764512674.804232,-3.09778,1.87698,1.00716,0.968442345,0.08996559,0.125304855
1764512674.804232,-3.09778,1.87698,1.00716,0.968442345,0.08996559,0.125304855
1764512674.804232,-3.09778,1.87698,1.00716,0.968442345,0.08996559,0.125304855
1764512674.804232,-3.09778,1.87698,1.00716,0.968442345,0.08996559,0.125304855
1764512674.804232,-2.3653,1.8006799999999998,1.34288,0.96911373,0.08996559,0.12634245
1764512674.804232,-2.3653,1.8006799999999998,1.34288,0.96911373,0.08996559,0.12634245
1764512674.804232,-2.3653,1.8006799999999998,1.34288,0.96911373,0.08996559,0.12634245
1764512674.804232,-2.3653,1.8006799999999998,1.34288,0.96911373,0.08996559,0.12634245
1764512674.804232,-2.3653,1.8006799999999998,1.34288,0.96911373,0.08996559,0.12634245
1764512674.804232,-2.3653,1.8006799999999998,1.34288,0.96911373,0.08996559,0.12634245
1764512674.804232,-2.3653,1.8006799999999998,1.34288,0.96911373,0.08996559,0.12634245
1764512674.804232,-2.3653,1.8006799999999998,1.34288,0.96911373,0.08996559,0.12634245
1764512674.804232,-2.3653,1.8006799999999998,1.34288,0.96911373,0.08996559,0.12634245
1764512674.804232,-2.3653,1.8006799999999998,1.34288,0.96911373,0.08996559,0.12634245
1764512674.804232,-3.06726,1.25132,1.1445,0.969174765,0.090759045,0.126647625
1764512674.804232,-3.06726,1.25132,1.1445,0.969174765,0.090759045,0.126647625
1764512674.804232,-3.06726,1.25132,1.1445,0.969174765,0.090759045,0.126647625
1764512674.804232,-3.06726,1.25132,1.1445,0.969174765,0.090759045,0.126647625
1764512674.804232,-3.06726,1.25132,1.1445,0.969174765,0.090759045,0.126647625
1764512674.804232,-3.06726,1.25132,1.1445,0.969174765,0.090759045,0.126647625
1764512674.804232,-3.06726,1.25132,1.1445,0.969174765,0.090759045,0.126647625
1764512674.804232,-3.06726,1.25132,1.1445,0.969174765,0.090759045,0.126647625
1764512674.848765,-3.06726,1.25132,1.1445,0.969174765,0.090759045,0.126647625
1764512674.848765,-3.06726,1.25132,1.1445,0.969174765,0.090759045,0.126647625
1764512674.848765,-2.79258,0.97664,1.1445,0.969663045,0.090759045,0.12670866
1764512674.848765,-2.79258,0.97664,1.1445,0.969663045,0.090759045,0.12670866
1764512674.848765,-2.79258,0.97664,1.1445,0.969663045,0.090759045,0.12670866
1764512674.848765,-2.79258,0.97664,1.1445,0.969663045,0.090759045,0.12670866
1764512674.849764,-2.79258,0.97664,1.1445,0.969663045,0.090759045,0.12670866
1764512674.849764,-2.79258,0.97664,1.1445,0.969663045,0.090759045,0.12670866
1764512674.849764,-2.79258,0.97664,1.1445,0.969663045,0.090759045,0.12670866
1764512674.849764,-2.79258,0.97664,1.1445,0.969663045,0.090759045,0.12670866
1764512674.849764,-2.79258,0.97664,1.1445,0.969663045,0.090759045,0.12670866
1764512674.849764,-2.79258,0.97664,1.1445,0.969663045,0.090759045,0.12670866
1764512674.849764,-3.72344,0.763,1.28184,0.970029255,0.091613535,0.1257321
1764512674.849764,-3.72344,0.763,1.28184,0.970029255,0.091613535,0.1257321
1764512674.849764,-3.72344,0.763,1.28184,0.970029255,0.091613535,0.1257321
1764512674.849764,-3.72344,0.763,1.28184,0.970029255,0.091613535,0.1257321
1764512674.849764,-3.72344,0.763,1.28184,0.970029255,0.091613535,0.1257321
1764512674.849764,-3.72344,0.763,1.28184,0.970029255,0.091613535,0.1257321
1764512674.849764,-3.72344,0.763,1.28184,0.970029255,0.091613535,0.1257321
1764512674.849764,-3.72344,0.763,1.28184,0.970029255,0.091613535,0.1257321
1764512674.849764,-3.72344,0.763,1.28184,0.970029255,0.091613535,0.1257321
1764512674.849764,-3.72344,0.763,1.28184,0.970029255,0.091613535,0.1257321
1764512674.849764,-4.059159999999999,1.02242,1.2208,0.970883745,0.09118629,0.12524382
1764512674.849764,-4.059159999999999,1.02242,1.2208,0.970883745,0.09118629,0.12524382
1764512674.897163,-4.059159999999999,1.02242,1.2208,0.970883745,0.09118629,0.12524382
1764512674.897163,-4.059159999999999,1.02242,1.2208,0.970883745,0.09118629,0.12524382
1764512674.897163,-4.059159999999999,1.02242,1.2208,0.970883745,0.09118629,0.12524382
1764512674.897163,-4.059159999999999,1.02242,1.2208,0.970883745,0.09118629,0.12524382
1764512674.897163,-4.059159999999999,1.02242,1.2208,0.970883745,0.09118629,0.12524382
1764512674.897163,-4.059159999999999,1.02242,1.2208,0.970883745,0.09118629,0.12524382
1764512674.897163,-4.059159999999999,1.02242,1.2208,0.970883745,0.09118629,0.12524382
1764512674.897163,-4.059159999999999,1.02242,1.2208,0.970883745,0.09118629,0.12524382
1764512674.897163,-4.33384,0.77826,1.2055399999999998,0.96996822,0.091125255,0.125304855
1764512674.897163,-4.33384,0.77826,1.2055399999999998,0.96996822,0.091125255,0.125304855
1764512674.897163,-4.33384,0.77826,1.2055399999999998,0.96996822,0.091125255,0.125304855
1764512674.897163,-4.33384,0.77826,1.2055399999999998,0.96996822,0.091125255,0.125304855
1764512674.897163,-4.33384,0.77826,1.2055399999999998,0.96996822,0.091125255,0.125304855
1764512674.897163,-4.33384,0.77826,1.2055399999999998,0.96996822,0.091125255,0.125304855
1764512674.897163,-4.33384,0.77826,1.2055399999999998,0.96996822,0.091125255,0.125304855
1764512674.897163,-4.33384,0.77826,1.2055399999999998,0.96996822,0.091125255,0.125304855
1764512674.897163,-4.33384,0.77826,1.2055399999999998,0.96996822,0.091125255,0.125304855
1764512674.897163,-4.33384,0.77826,1.2055399999999998,0.96996822,0.091125255,0.125304855
1764512674.897163,-4.45592,1.84646,2.3653,0.970395465,0.08898903,0.1257321
1764512674.897163,-4.45592,1.84646,2.3653,0.970395465,0.08898903,0.1257321
1764512674.8981793,-4.45592,1.84646,2.3653,0.970395465,0.08898903,0.1257321
1764512674.8981793,-4.45592,1.84646,2.3653,0.970395465,0.08898903,0.1257321
1764512674.9421313,-4.45592,1.84646,2.3653,0.970395465,0.08898903,0.1257321
1764512674.9421313,-4.45592,1.84646,2.3653,0.970395465,0.08898903,0.1257321
1764512674.9421313,-4.45592,1.84646,2.3653,0.970395465,0.08898903,0.1257321
1764512674.9421313,-4.45592,1.84646,2.3653,0.970395465,0.08898903,0.1257321
1764512674.9421313,-4.45592,1.84646,2.3653,0.970395465,0.08898903,0.1257321
1764512674.9421313,-4.45592,1.84646,2.3653,0.970395465,0.08898903,0.1257321
1764512674.9421313,-3.75396,1.00716,1.63282,0.968808555,0.087219015,0.12536589
1764512674.9421313,-3.75396,1.00716,1.63282,0.968808555,0.087219015,0.12536589
1764512674.9421313,-3.75396,1.00716,1.63282,0.968808555,0.087219015,0.12536589
1764512674.9421313,-3.75396,1.00716,1.63282,0.968808555,0.087219015,0.12536589
1764512674.94317,-3.75396,1.00716,1.63282,0.968808555,0.087219015,0.12536589
1764512674.94317,-3.75396,1.00716,1.63282,0.968808555,0.087219015,0.12536589
1764512674.94317,-3.75396,1.00716,1.63282,0.968808555,0.087219015,0.12536589
1764512674.94317,-3.75396,1.00716,1.63282,0.968808555,0.087219015,0.12536589
1764512674.94317,-3.75396,1.00716,1.63282,0.968808555,0.087219015,0.12536589
1764512674.94317,-3.75396,1.00716,1.63282,0.968808555,0.087219015,0.12536589
1764512674.94317,-3.1283,0.88508,1.25132,0.96911373,0.086608665,0.125060715
1764512674.94317,-3.1283,0.88508,1.25132,0.96911373,0.086608665,0.125060715
1764512674.94317,-3.1283,0.88508,1.25132,0.96911373,0.086608665,0.125060715
1764512674.94317,-3.1283,0.88508,1.25132,0.96911373,0.086608665,0.125060715
1764512674.94317,-3.1283,0.88508,1.25132,0.96911373,0.086608665,0.125060715
1764512674.94317,-3.1283,0.88508,1.25132,0.96911373,0.086608665,0.125060715
1764512674.986848,-3.1283,0.88508,1.25132,0.96911373,0.086608665,0.125060715
1764512674.986848,-3.1283,0.88508,1.25132,0.96911373,0.086608665,0.125060715
1764512674.986848,-3.1283,0.88508,1.25132,0.96911373,0.086608665,0.125060715
1764512674.986848,-3.1283,0.88508,1.25132,0.96911373,0.086608665,0.125060715
1764512674.986848,-3.08252,1.46496,1.09872,0.97118892,0.086120385,0.125548995
1764512674.986848,-3.08252,1.46496,1.09872,0.97118892,0.086120385,0.125548995
1764512674.986848,-3.08252,1.46496,1.09872,0.97118892,0.086120385,0.125548995
1764512674.9880064,-3.08252,1.46496,1.09872,0.97118892,0.086120385,0.125548995
1764512674.9880064,-3.08252,1.46496,1.09872,0.97118892,0.086120385,0.125548995
1764512674.9880064,-3.08252,1.46496,1.09872,0.97118892,0.086120385,0.125548995
1764512674.9880064,-3.08252,1.46496,1.09872,0.97118892,0.086120385,0.125548995
1764512674.9880064,-3.08252,1.46496,1.09872,0.97118892,0.086120385,0.125548995
1764512674.9880064,-3.08252,1.46496,1.09872,0.97118892,0.086120385,0.125548995
1764512674.9880064,-3.08252,1.46496,1.09872,0.97118892,0.086120385,0.125548995
1764512674.9885018,-2.88414,1.8312,0.9003399999999999,0.97192134,0.08752419,0.12536589
1764512674.9885018,-2.88414,1.8312,0.9003399999999999,0.97192134,0.08752419,0.12536589
1764512674.9885018,-2.88414,1.8312,0.9003399999999999,0.97192134,0.08752419,0.12536589
1764512674.9885018,-2.88414,1.8312,0.9003399999999999,0.97192134,0.08752419,0.12536589
1764512674.9885018,-2.88414,1.8312,0.9003399999999999,0.97192134,0.08752419,0.12536589
1764512674.9885018,-2.88414,1.8312,0.9003399999999999,0.97192134,0.08752419,0.12536589
1764512674.9885018,-2.88414,1.8312,0.9003399999999999,0.97192134,0.08752419,0.12536589
1764512674.9885018,-2.88414,1.8312,0.9003399999999999,0.97192134,0.08752419,0.12536589
1764512674.9885018,-2.88414,1.8312,0.9003399999999999,0.97192134,0.08752419,0.12536589
1764512674.9885018,-2.88414,1.8312,0.9003399999999999,0.97192134,0.08752419,0.12536589
1764512675.0351489,-3.52506,1.35814,0.44254,0.970883745,0.088195575,0.125182785
1764512675.0351489,-3.52506,1.35814,0.44254,0.970883745,0.088195575,0.125182785
1764512675.0351489,-3.52506,1.35814,0.44254,0.970883745,0.088195575,0.125182785
1764512675.0351489,-3.52506,1.35814,0.44254,0.970883745,0.088195575,0.125182785
1764512675.0351489,-3.52506,1.35814,0.44254,0.970883745,0.088195575,0.125182785
1764512675.0351489,-3.52506,1.35814,0.44254,0.970883745,0.088195575,0.125182785
1764512675.0351489,-3.52506,1.35814,0.44254,0.970883745,0.088195575,0.125182785
1764512675.0361874,-3.52506,1.35814,0.44254,0.970883745,0.088195575,0.125182785
1764512675.0361874,-3.52506,1.35814,0.44254,0.970883745,0.088195575,0.125182785
1764512675.0361874,-3.52506,1.35814,0.44254,0.970883745,0.088195575,0.125182785
1764512675.0361874,-3.75396,0.73248,0.3204599999999999,0.968564415,0.088439715,0.125426925
1764512675.0361874,-3.75396,0.73248,0.3204599999999999,0.968564415,0.088439715,0.125426925
1764512675.0361874,-3.75396,0.73248,0.3204599999999999,0.968564415,0.088439715,0.125426925
1764512675.0361874,-3.75396,0.73248,0.3204599999999999,0.968564415,0.088439715,0.125426925
1764512675.0361874,-3.75396,0.73248,0.3204599999999999,0.968564415,0.088439715,0.125426925
1764512675.0361874,-3.75396,0.73248,0.3204599999999999,0.968564415,0.088439715,0.125426925
1764512675.0361874,-3.75396,0.73248,0.3204599999999999,0.968564415,0.088439715,0.125426925
1764512675.0361874,-3.75396,0.73248,0.3204599999999999,0.968564415,0.088439715,0.125426925
1764512675.0361874,-3.75396,0.73248,0.3204599999999999,0.968564415,0.088439715,0.125426925
1764512675.0361874,-3.75396,0.73248,0.3204599999999999,0.968564415,0.088439715,0.125426925
1764512675.0361874,-4.059159999999999,0.42728,0.1678599999999999,0.968076135,0.08923317,0.125915205
1764512675.0361874,-4.059159999999999,0.42728,0.1678599999999999,0.968076135,0.08923317,0.125915205
1764512675.0834007,-4.059159999999999,0.42728,0.1678599999999999,0.968076135,0.08923317,0.125915205
1764512675.0834007,-4.059159999999999,0.42728,0.1678599999999999,0.968076135,0.08923317,0.125915205
1764512675.0834007,-4.059159999999999,0.42728,0.1678599999999999,0.968076135,0.08923317,0.125915205
1764512675.0834007,-4.059159999999999,0.42728,0.1678599999999999,0.968076135,0.08923317,0.125915205
1764512675.0834007,-4.059159999999999,0.42728,0.1678599999999999,0.968076135,0.08923317,0.125915205
1764512675.0834007,-4.059159999999999,0.42728,0.1678599999999999,0.968076135,0.08923317,0.125915205
1764512675.0834007,-4.059159999999999,0.42728,0.1678599999999999,0.968076135,0.08923317,0.125915205
1764512675.0834007,-4.059159999999999,0.42728,0.1678599999999999,0.968076135,0.08923317,0.125915205
1764512675.0834007,-4.3491,-0.06104,0.44254,0.96960201,0.08923317,0.12548796
1764512675.0834007,-4.3491,-0.06104,0.44254,0.96960201,0.08923317,0.12548796
1764512675.0834007,-4.3491,-0.06104,0.44254,0.96960201,0.08923317,0.12548796
1764512675.0834007,-4.3491,-0.06104,0.44254,0.96960201,0.08923317,0.12548796
1764512675.0834007,-4.3491,-0.06104,0.44254,0.96960201,0.08923317,0.12548796
1764512675.0834007,-4.3491,-0.06104,0.44254,0.96960201,0.08923317,0.12548796
1764512675.0834007,-4.3491,-0.06104,0.44254,0.96960201,0.08923317,0.12548796
1764512675.0834007,-4.3491,-0.06104,0.44254,0.96960201,0.08923317,0.12548796
1764512675.0834007,-4.3491,-0.06104,0.44254,0.96960201,0.08923317,0.12548796
1764512675.0834007,-4.3491,-0.06104,0.44254,0.96960201,0.08923317,0.12548796
1764512675.0834007,-4.0439,0.39676,-0.01526,0.970029255,0.08898903,0.1257321
1764512675.0834007,-4.0439,0.39676,-0.01526,0.970029255,0.08898903,0.1257321
1764512675.0834007,-4.0439,0.39676,-0.01526,0.970029255,0.08898903,0.1257321
1764512675.0834007,-4.0439,0.39676,-0.01526,0.970029255,0.08898903,0.1257321
1764512675.0834007,-4.0439,0.39676,-0.01526,0.970029255,0.08898903,0.1257321
1764512675.0834007,-4.0439,0.39676,-0.01526,0.970029255,0.08898903,0.1257321
1764512675.1286843,-4.0439,0.39676,-0.01526,0.970029255,0.08898903,0.1257321
1764512675.1286843,-4.0439,0.39676,-0.01526,0.970029255,0.08898903,0.1257321
1764512675.1286843,-4.0439,0.39676,-0.01526,0.970029255,0.08898903,0.1257321
1764512675.1286843,-4.0439,0.39676,-0.01526,0.970029255,0.08898903,0.1257321
1764512675.1286843,-4.0439,0.2289,0.27468,0.97033443,0.088805925,0.12499968
1764512675.1286843,-4.0439,0.2289,0.27468,0.97033443,0.088805925,0.12499968
1764512675.1286843,-4.0439,0.2289,0.27468,0.97033443,0.088805925,0.12499968
1764512675.1286843,-4.0439,0.2289,0.27468,0.97033443,0.088805925,0.12499968
1764512675.1286843,-4.0439,0.2289,0.27468,0.97033443,0.088805925,0.12499968
1764512675.1296782,-4.0439,0.2289,0.27468,0.97033443,0.088805925,0.12499968
1764512675.1296782,-4.0439,0.2289,0.27468,0.97033443,0.088805925,0.12499968
1764512675.1296782,-4.0439,0.2289,0.27468,0.97033443,0.088805925,0.12499968
1764512675.1296782,-4.0439,0.2289,0.27468,0.97033443,0.088805925,0.12499968
1764512675.1296782,-4.0439,0.2289,0.27468,0.97033443,0.088805925,0.12499968
1764512675.1296782,-4.01338,0.6409199999999999,0.04578,0.97057857,0.089538345,0.124328295
1764512675.1296782,-4.01338,0.6409199999999999,0.04578,0.97057857,0.089538345,0.124328295
1764512675.1296782,-4.01338,0.6409199999999999,0.04578,0.97057857,0.089538345,0.124328295
1764512675.1296782,-4.01338,0.6409199999999999,0.04578,0.97057857,0.089538345,0.124328295
1764512675.1296782,-4.01338,0.6409199999999999,0.04578,0.97057857,0.089538345,0.124328295
1764512675.1307037,-4.01338,0.6409199999999999,0.04578,0.97057857,0.089538345,0.124328295
1764512675.1307037,-4.01338,0.6409199999999999,0.04578,0.97057857,0.089538345,0.124328295
1764512675.1307037,-4.01338,0.6409199999999999,0.04578,0.97057857,0.089538345,0.124328295
1764512675.1307037,-4.01338,0.6409199999999999,0.04578,0.97057857,0.089538345,0.124328295
1764512675.1307037,-4.01338,0.6409199999999999,0.04578,0.97057857,0.089538345,0.124328295
1764512675.1782098,-3.78448,0.8698199999999999,0.03052,0.97094478,0.0903318,0.123595875
1764512675.1782098,-3.78448,0.8698199999999999,0.03052,0.97094478,0.0903318,0.123595875
1764512675.1785994,-3.78448,0.8698199999999999,0.03052,0.97094478,0.0903318,0.123595875
1764512675.1785994,-3.78448,0.8698199999999999,0.03052,0.97094478,0.0903318,0.123595875
1764512675.1785994,-3.78448,0.8698199999999999,0.03052,0.97094478,0.0903318,0.123595875
1764512675.1785994,-3.78448,0.8698199999999999,0.03052,0.97094478,0.0903318,0.123595875
1764512675.1785994,-3.78448,0.8698199999999999,0.03052,0.97094478,0.0903318,0.123595875
1764512675.1785994,-3.78448,0.8698199999999999,0.03052,0.97094478,0.0903318,0.123595875
1764512675.1785994,-3.78448,0.8698199999999999,0.03052,0.97094478,0.0903318,0.123595875
1764512675.1785994,-3.78448,0.8698199999999999,0.03052,0.97094478,0.0903318,0.123595875
1764512675.1785994,-3.61662,1.4039199999999998,0.3509799999999999,0.971127885,0.089050065,0.123962085
1764512675.1785994,-3.61662,1.4039199999999998,0.3509799999999999,0.971127885,0.089050065,0.123962085
1764512675.1785994,-3.61662,1.4039199999999998,0.3509799999999999,0.971127885,0.089050065,0.123962085
1764512675.1785994,-3.61662,1.4039199999999998,0.3509799999999999,0.971127885,0.089050065,0.123962085
1764512675.179248,-3.61662,1.4039199999999998,0.3509799999999999,0.971127885,0.089050065,0.123962085
1764512675.179248,-3.61662,1.4039199999999998,0.3509799999999999,0.971127885,0.089050065,0.123962085
1764512675.179248,-3.61662,1.4039199999999998,0.3509799999999999,0.971127885,0.089050065,0.123962085
1764512675.179248,-3.61662,1.4039199999999998,0.3509799999999999,0.971127885,0.089050065,0.123962085
1764512675.179248,-3.61662,1.4039199999999998,0.3509799999999999,0.971127885,0.089050065,0.123962085
1764512675.179248,-3.61662,1.4039199999999998,0.3509799999999999,0.971127885,0.089050065,0.123962085
1764512675.179248,-2.96044,1.92276,0.42728,0.97070064,0.08874489,0.12390105
1764512675.179248,-2.96044,1.92276,0.42728,0.97070064,0.08874489,0.12390105
1764512675.179248,-2.96044,1.92276,0.42728,0.97070064,0.08874489,0.12390105
1764512675.179248,-2.96044,1.92276,0.42728,0.97070064,0.08874489,0.12390105
1764512675.223475,-2.96044,1.92276,0.42728,0.97070064,0.08874489,0.12390105
1764512675.223475,-2.96044,1.92276,0.42728,0.97070064,0.08874489,0.12390105
1764512675.223475,-2.96044,1.92276,0.42728,0.97070064,0.08874489,0.12390105
1764512675.223475,-2.96044,1.92276,0.42728,0.97070064,0.08874489,0.12390105
1764512675.223475,-2.96044,1.92276,0.42728,0.97070064,0.08874489,0.12390105
1764512675.223475,-2.96044,1.92276,0.42728,0.97070064,0.08874489,0.12390105
1764512675.223475,-2.62472,1.23606,0.56462,0.96972408,0.08923317,0.12438933
1764512675.223475,-2.62472,1.23606,0.56462,0.96972408,0.08923317,0.12438933
1764512675.2244885,-2.62472,1.23606,0.56462,0.96972408,0.08923317,0.12438933
1764512675.2244885,-2.62472,1.23606,0.56462,0.96972408,0.08923317,0.12438933
1764512675.2244885,-2.62472,1.23606,0.56462,0.96972408,0.08923317,0.12438933
1764512675.2244885,-2.62472,1.23606,0.56462,0.96972408,0.08923317,0.12438933
1764512675.2244885,-2.62472,1.23606,0.56462,0.96972408,0.08923317,0.12438933
1764512675.2244885,-2.62472,1.23606,0.56462,0.96972408,0.08923317,0.12438933
1764512675.2244885,-2.62472,1.23606,0.56462,0.96972408,0.08923317,0.12438933
1764512675.2244885,-2.62472,1.23606,0.56462,0.96972408,0.08923317,0.12438933
1764512675.2244885,-2.47212,1.19028,1.12924,0.969785115,0.089782485,0.12548796
1764512675.2244885,-2.47212,1.19028,1.12924,0.969785115,0.089782485,0.12548796
1764512675.2244885,-2.47212,1.19028,1.12924,0.969785115,0.089782485,0.12548796
1764512675.2244885,-2.47212,1.19028,1.12924,0.969785115,0.089782485,0.12548796
1764512675.2244885,-2.47212,1.19028,1.12924,0.969785115,0.089782485,0.12548796
1764512675.2244885,-2.47212,1.19028,1.12924,0.969785115,0.089782485,0.12548796
1764512675.2244885,-2.47212,1.19028,1.12924,0.969785115,0.089782485,0.12548796
1764512675.2244885,-2.47212,1.19028,1.12924,0.969785115,0.089782485,0.12548796
1764512675.2711706,-2.47212,1.19028,1.12924,0.969785115,0.089782485,0.12548796
1764512675.2711706,-2.47212,1.19028,1.12924,0.969785115,0.089782485,0.12548796
1764512675.2711706,-3.02148,1.2208,1.00716,0.96972408,0.090636975,0.124206225
1764512675.2711706,-3.02148,1.2208,1.00716,0.96972408,0.090636975,0.124206225
1764512675.2711706,-3.02148,1.2208,1.00716,0.96972408,0.090636975,0.124206225
1764512675.2711706,-3.02148,1.2208,1.00716,0.96972408,0.090636975,0.124206225
1764512675.2711706,-3.02148,1.2208,1.00716,0.96972408,0.090636975,0.124206225
1764512675.2711706,-3.02148,1.2208,1.00716,0.96972408,0.090636975,0.124206225
1764512675.2711706,-3.02148,1.2208,1.00716,0.96972408,0.090636975,0.124206225
1764512675.2711706,-3.02148,1.2208,1.00716,0.96972408,0.090636975,0.124206225
1764512675.2711706,-3.02148,1.2208,1.00716,0.96972408,0.090636975,0.124206225
1764512675.2711706,-3.02148,1.2208,1.00716,0.96972408,0.090636975,0.124206225
1764512675.272186,-3.14356,1.35814,0.9003399999999999,0.970151325,0.092223885,0.124084155
1764512675.272186,-3.14356,1.35814,0.9003399999999999,0.970151325,0.092223885,0.124084155
1764512675.272186,-3.14356,1.35814,0.9003399999999999,0.970151325,0.092223885,0.124084155
1764512675.272186,-3.14356,1.35814,0.9003399999999999,0.970151325,0.092223885,0.124084155
1764512675.272186,-3.14356,1.35814,0.9003399999999999,0.970151325,0.092223885,0.124084155
1764512675.272186,-3.14356,1.35814,0.9003399999999999,0.970151325,0.092223885,0.124084155
1764512675.272186,-3.14356,1.35814,0.9003399999999999,0.970151325,0.092223885,0.124084155
1764512675.272186,-3.14356,1.35814,0.9003399999999999,0.970151325,0.092223885,0.124084155
1764512675.272186,-3.14356,1.35814,0.9003399999999999,0.970151325,0.092223885,0.124084155
1764512675.272186,-3.14356,1.35814,0.9003399999999999,0.970151325,0.092223885,0.124084155
1764512675.3160803,-3.92182,1.526,0.82404,0.970761675,0.092590095,0.12426726
1764512675.3160803,-3.92182,1.526,0.82404,0.970761675,0.092590095,0.12426726
1764512675.3160803,-3.92182,1.526,0.82404,0.970761675,0.092590095,0.12426726
1764512675.3160803,-3.92182,1.526,0.82404,0.970761675,0.092590095,0.12426726
1764512675.3160803,-3.92182,1.526,0.82404,0.970761675,0.092590095,0.12426726
1764512675.3160803,-3.92182,1.526,0.82404,0.970761675,0.092590095,0.12426726
1764512675.3160803,-3.92182,1.526,0.82404,0.970761675,0.092590095,0.12426726
1764512675.3160803,-3.92182,1.526,0.82404,0.970761675,0.092590095,0.12426726
1764512675.3160803,-3.92182,1.526,0.82404,0.970761675,0.092590095,0.12426726
1764512675.3160803,-3.92182,1.526,0.82404,0.970761675,0.092590095,0.12426726
1764512675.3160803,-3.75396,1.46496,0.5341,0.96972408,0.092712165,0.12414519
1764512675.3160803,-3.75396,1.46496,0.5341,0.96972408,0.092712165,0.12414519
1764512675.3160803,-3.75396,1.46496,0.5341,0.96972408,0.092712165,0.12414519
1764512675.3160803,-3.75396,1.46496,0.5341,0.96972408,0.092712165,0.12414519
1764512675.3160803,-3.75396,1.46496,0.5341,0.96972408,0.092712165,0.12414519
1764512675.3160803,-3.75396,1.46496,0.5341,0.96972408,0.092712165,0.12414519
1764512675.3160803,-3.75396,1.46496,0.5341,0.96972408,0.092712165,0.12414519
1764512675.3160803,-3.75396,1.46496,0.5341,0.96972408,0.092712165,0.12414519
1764512675.3160803,-3.75396,1.46496,0.5341,0.96972408,0.092712165,0.12414519
1764512675.3160803,-3.75396,1.46496,0.5341,0.96972408,0.092712165,0.12414519
1764512675.3160803,-3.79974,0.7019599999999999,1.19028,0.96874752,0.09179664,0.123962085
1764512675.3160803,-3.79974,0.7019599999999999,1.19028,0.96874752,0.09179664,0.123962085
1764512675.3160803,-3.79974,0.7019599999999999,1.19028,0.96874752,0.09179664,0.123962085
1764512675.3160803,-3.79974,0.7019599999999999,1.19028,0.96874752,0.09179664,0.123962085
1764512675.362367,-3.79974,0.7019599999999999,1.19028,0.96874752,0.09179664,0.123962085
1764512675.362367,-3.79974,0.7019599999999999,1.19028,0.96874752,0.09179664,0.123962085
1764512675.3628824,-3.79974,0.7019599999999999,1.19028,0.96874752,0.09179664,0.123962085
1764512675.3628824,-3.79974,0.7019599999999999,1.19028,0.96874752,0.09179664,0.123962085
1764512675.3628824,-3.79974,0.7019599999999999,1.19028,0.96874752,0.09179664,0.123962085
1764512675.3628824,-3.79974,0.7019599999999999,1.19028,0.96874752,0.09179664,0.123962085
1764512675.3628824,-3.83026,1.2055399999999998,0.9919,0.97082271,0.09094215,0.123473805
1764512675.3628824,-3.83026,1.2055399999999998,0.9919,0.97082271,0.09094215,0.123473805
1764512675.3628824,-3.83026,1.2055399999999998,0.9919,0.97082271,0.09094215,0.123473805
1764512675.3628824,-3.83026,1.2055399999999998,0.9919,0.97082271,0.09094215,0.123473805
1764512675.3628824,-3.83026,1.2055399999999998,0.9919,0.97082271,0.09094215,0.123473805
1764512675.3628824,-3.83026,1.2055399999999998,0.9919,0.97082271,0.09094215,0.123473805
1764512675.3628824,-3.83026,1.2055399999999998,0.9919,0.97082271,0.09094215,0.123473805
1764512675.3628824,-3.83026,1.2055399999999998,0.9919,0.97082271,0.09094215,0.123473805
1764512675.3628824,-3.83026,1.2055399999999998,0.9919,0.97082271,0.09094215,0.123473805
1764512675.3628824,-3.83026,1.2055399999999998,0.9919,0.97082271,0.09094215,0.123473805
1764512675.3628824,-3.72344,1.46496,1.03768,0.97192134,0.0903318,0.12377898
1764512675.3628824,-3.72344,1.46496,1.03768,0.97192134,0.0903318,0.12377898
1764512675.3628824,-3.72344,1.46496,1.03768,0.97192134,0.0903318,0.12377898
1764512675.3628824,-3.72344,1.46496,1.03768,0.97192134,0.0903318,0.12377898
1764512675.3628824,-3.72344,1.46496,1.03768,0.97192134,0.0903318,0.12377898
1764512675.3628824,-3.72344,1.46496,1.03768,0.97192134,0.0903318,0.12377898
1764512675.3628824,-3.72344,1.46496,1.03768,0.97192134,0.0903318,0.12377898
1764512675.363897,-3.72344,1.46496,1.03768,0.97192134,0.0903318,0.12377898
1764512675.4111805,-3.72344,1.46496,1.03768,0.97192134,0.0903318,0.12377898
1764512675.4111805,-3.72344,1.46496,1.03768,0.97192134,0.0903318,0.12377898
1764512675.4111805,-3.72344,1.64808,0.59514,0.970273395,0.089294205,0.12377898
1764512675.4111805,-3.72344,1.64808,0.59514,0.970273395,0.089294205,0.12377898
1764512675.4111805,-3.72344,1.64808,0.59514,0.970273395,0.089294205,0.12377898
1764512675.4111805,-3.72344,1.64808,0.59514,0.970273395,0.089294205,0.12377898
1764512675.4111805,-3.72344,1.64808,0.59514,0.970273395,0.089294205,0.12377898
1764512675.4111805,-3.72344,1.64808,0.59514,0.970273395,0.089294205,0.12377898
1764512675.4111805,-3.72344,1.64808,0.59514,0.970273395,0.089294205,0.12377898
1764512675.4111805,-3.72344,1.64808,0.59514,0.970273395,0.089294205,0.12377898
1764512675.4111805,-3.72344,1.64808,0.59514,0.970273395,0.089294205,0.12377898
1764512675.4111805,-3.72344,1.64808,0.59514,0.970273395,0.089294205,0.12377898
1764512675.4111805,-3.23512,1.51074,0.74774,0.96984615,0.08862282,0.12390105
1764512675.4111805,-3.23512,1.51074,0.74774,0.96984615,0.08862282,0.12390105
1764512675.4111805,-3.23512,1.51074,0.74774,0.96984615,0.08862282,0.12390105
1764512675.4111805,-3.23512,1.51074,0.74774,0.96984615,0.08862282,0.12390105
1764512675.4111805,-3.23512,1.51074,0.74774,0.96984615,0.08862282,0.12390105
1764512675.4111805,-3.23512,1.51074,0.74774,0.96984615,0.08862282,0.12390105
1764512675.4111805,-3.23512,1.51074,0.74774,0.96984615,0.08862282,0.12390105
1764512675.4111805,-3.23512,1.51074,0.74774,0.96984615,0.08862282,0.12390105
1764512675.4111805,-3.23512,1.51074,0.74774,0.96984615,0.08862282,0.12390105
1764512675.4111805,-3.23512,1.51074,0.74774,0.96984615,0.08862282,0.12390105
1764512675.4576914,-3.1283,1.03768,0.21364,0.969540975,0.08776833,0.12414519
1764512675.4576914,-3.1283,1.03768,0.21364,0.969540975,0.08776833,0.12414519
1764512675.4576914,-3.1283,1.03768,0.21364,0.969540975,0.08776833,0.12414519
1764512675.4576914,-3.1283,1.03768,0.21364,0.969540975,0.08776833,0.12414519
1764512675.4576914,-3.1283,1.03768,0.21364,0.969540975,0.08776833,0.12414519
1764512675.4576914,-3.1283,1.03768,0.21364,0.969540975,0.08776833,0.12414519
1764512675.4576914,-3.1283,1.03768,0.21364,0.969540975,0.08776833,0.12414519
1764512675.4576914,-3.1283,1.03768,0.21364,0.969540975,0.08776833,0.12414519
1764512675.4587104,-3.1283,1.03768,0.21364,0.969540975,0.08776833,0.12414519
1764512675.4587104,-3.1283,1.03768,0.21364,0.969540975,0.08776833,0.12414519
1764512675.4587104,-3.2809,1.12924,-0.6714399999999999,0.970029255,0.089050065,0.12402312
1764512675.4587104,-3.2809,1.12924,-0.6714399999999999,0.970029255,0.089050065,0.12402312
1764512675.4587104,-3.2809,1.12924,-0.6714399999999999,0.970029255,0.089050065,0.12402312
1764512675.4587104,-3.2809,1.12924,-0.6714399999999999,0.970029255,0.089050065,0.12402312
1764512675.4587104,-3.2809,1.12924,-0.6714399999999999,0.970029255,0.089050065,0.12402312
1764512675.4587104,-3.2809,1.12924,-0.6714399999999999,0.970029255,0.089050065,0.12402312
1764512675.4587104,-3.2809,1.12924,-0.6714399999999999,0.970029255,0.089050065,0.12402312
1764512675.4587104,-3.2809,1.12924,-0.6714399999999999,0.970029255,0.089050065,0.12402312
1764512675.4587104,-3.2809,1.12924,-0.6714399999999999,0.970029255,0.089050065,0.12402312
1764512675.4587104,-3.2809,1.12924,-0.6714399999999999,0.970029255,0.089050065,0.12402312
1764512675.5048811,-3.29616,2.16692,-0.3509799999999999,0.972348585,0.08947731,0.12414519
1764512675.5048811,-3.29616,2.16692,-0.3509799999999999,0.972348585,0.08947731,0.12414519
1764512675.5048811,-3.29616,2.16692,-0.3509799999999999,0.972348585,0.08947731,0.12414519
1764512675.5048811,-3.29616,2.16692,-0.3509799999999999,0.972348585,0.08947731,0.12414519
1764512675.5048811,-3.29616,2.16692,-0.3509799999999999,0.972348585,0.08947731,0.12414519
1764512675.5048811,-3.29616,2.16692,-0.3509799999999999,0.972348585,0.08947731,0.12414519
1764512675.5048811,-3.29616,2.16692,-0.3509799999999999,0.972348585,0.08947731,0.12414519
1764512675.5048811,-3.29616,2.16692,-0.3509799999999999,0.972348585,0.08947731,0.12414519
1764512675.5048811,-3.29616,2.16692,-0.3509799999999999,0.972348585,0.08947731,0.12414519
1764512675.5048811,-3.29616,2.16692,-0.3509799999999999,0.972348585,0.08947731,0.12414519
1764512675.5048811,-3.69292,2.65524,-0.47306,0.972104445,0.0903318,0.12414519
1764512675.50592,-3.69292,2.65524,-0.47306,0.972104445,0.0903318,0.12414519
1764512675.50592,-3.69292,2.65524,-0.47306,0.972104445,0.0903318,0.12414519
1764512675.50592,-3.69292,2.65524,-0.47306,0.972104445,0.0903318,0.12414519
1764512675.50592,-3.69292,2.65524,-0.47306,0.972104445,0.0903318,0.12414519
1764512675.50592,-3.69292,2.65524,-0.47306,0.972104445,0.0903318,0.12414519
1764512675.50592,-3.69292,2.65524,-0.47306,0.972104445,0.0903318,0.12414519
1764512675.50592,-3.69292,2.65524,-0.47306,0.972104445,0.0903318,0.12414519
1764512675.50592,-3.69292,2.65524,-0.47306,0.972104445,0.0903318,0.12414519
1764512675.50592,-3.69292,2.65524,-0.47306,0.972104445,0.0903318,0.12414519
1764512675.50592,-3.7387,2.30426,0.24416,0.969540975,0.091247325,0.12402312
1764512675.50592,-3.7387,2.30426,0.24416,0.969540975,0.091247325,0.12402312
1764512675.50592,-3.7387,2.30426,0.24416,0.969540975,0.091247325,0.12402312
1764512675.50592,-3.7387,2.30426,0.24416,0.969540975,0.091247325,0.12402312
1764512675.50592,-3.7387,2.30426,0.24416,0.969540975,0.091247325,0.12402312
1764512675.50592,-3.7387,2.30426,0.24416,0.969540975,0.091247325,0.12402312
1764512675.50592,-3.7387,2.30426,0.24416,0.969540975,0.091247325,0.12402312
1764512675.50592,-3.7387,2.30426,0.24416,0.969540975,0.091247325,0.12402312
1764512675.5489504,-3.7387,2.30426,0.24416,0.969540975,0.091247325,0.12402312
1764512675.5494587,-3.7387,2.30426,0.24416,0.969540975,0.091247325,0.12402312
1764512675.5494587,-3.72344,2.289,0.9919,0.968686485,0.09057594,0.1245114
1764512675.5494587,-3.72344,2.289,0.9919,0.968686485,0.09057594,0.1245114
1764512675.5494587,-3.72344,2.289,0.9919,0.968686485,0.09057594,0.1245114
1764512675.5494587,-3.72344,2.289,0.9919,0.968686485,0.09057594,0.1245114
1764512675.5494587,-3.72344,2.289,0.9919,0.968686485,0.09057594,0.1245114
1764512675.5494587,-3.72344,2.289,0.9919,0.968686485,0.09057594,0.1245114
1764512675.5494587,-3.72344,2.289,0.9919,0.968686485,0.09057594,0.1245114
1764512675.5494587,-3.72344,2.289,0.9919,0.968686485,0.09057594,0.1245114
1764512675.5494587,-3.72344,2.289,0.9919,0.968686485,0.09057594,0.1245114
1764512675.5494587,-3.72344,2.289,0.9919,0.968686485,0.09057594,0.1245114
1764512675.5494587,-2.96044,1.93802,1.61756,0.96886959,0.09045387,0.125304855
1764512675.5494587,-2.96044,1.93802,1.61756,0.96886959,0.09045387,0.125304855
1764512675.5494587,-2.96044,1.93802,1.61756,0.96886959,0.09045387,0.125304855
1764512675.5494587,-2.96044,1.93802,1.61756,0.96886959,0.09045387,0.125304855
1764512675.5494587,-2.96044,1.93802,1.61756,0.96886959,0.09045387,0.125304855
1764512675.5494587,-2.96044,1.93802,1.61756,0.96886959,0.09045387,0.125304855
1764512675.5494587,-2.96044,1.93802,1.61756,0.96886959,0.09045387,0.125304855
1764512675.5494587,-2.96044,1.93802,1.61756,0.96886959,0.09045387,0.125304855
1764512675.5494587,-2.96044,1.93802,1.61756,0.96886959,0.09045387,0.125304855
1764512675.5494587,-2.96044,1.93802,1.61756,0.96886959,0.09045387,0.125304855
1764512675.5962594,-2.77732,2.50264,1.81594,0.96947994,0.090636975,0.12609831
1764512675.5962594,-2.77732,2.50264,1.81594,0.96947994,0.090636975,0.12609831
1764512675.5962594,-2.77732,2.50264,1.81594,0.96947994,0.090636975,0.12609831
1764512675.5962594,-2.77732,2.50264,1.81594,0.96947994,0.090636975,0.12609831
1764512675.5962594,-2.77732,2.50264,1.81594,0.96947994,0.090636975,0.12609831
1764512675.5962594,-2.77732,2.50264,1.81594,0.96947994,0.090636975,0.12609831
1764512675.5962594,-2.77732,2.50264,1.81594,0.96947994,0.090636975,0.12609831
1764512675.5962594,-2.77732,2.50264,1.81594,0.96947994,0.090636975,0.12609831
1764512675.5962594,-2.77732,2.50264,1.81594,0.96947994,0.090636975,0.12609831
1764512675.5962594,-2.77732,2.50264,1.81594,0.96947994,0.090636975,0.12609831
1764512675.5962594,-2.41108,1.95328,1.95328,0.970151325,0.0903318,0.126647625
1764512675.5962594,-2.41108,1.95328,1.95328,0.970151325,0.0903318,0.126647625
1764512675.597291,-2.41108,1.95328,1.95328,0.970151325,0.0903318,0.126647625
1764512675.597291,-2.41108,1.95328,1.95328,0.970151325,0.0903318,0.126647625
1764512675.597291,-2.41108,1.95328,1.95328,0.970151325,0.0903318,0.126647625
1764512675.597291,-2.41108,1.95328,1.95328,0.970151325,0.0903318,0.126647625
1764512675.597291,-2.41108,1.95328,1.95328,0.970151325,0.0903318,0.126647625
1764512675.597291,-2.41108,1.95328,1.95328,0.970151325,0.0903318,0.126647625
1764512675.5978017,-2.41108,1.95328,1.95328,0.970151325,0.0903318,0.126647625
1764512675.5978017,-2.41108,1.95328,1.95328,0.970151325,0.0903318,0.126647625
1764512675.5978017,-2.68576,1.8312,1.69386,0.96984615,0.090514905,0.12658659
1764512675.5978017,-2.68576,1.8312,1.69386,0.96984615,0.090514905,0.12658659
1764512675.5978017,-2.68576,1.8312,1.69386,0.96984615,0.090514905,0.12658659
1764512675.5978017,-2.68576,1.8312,1.69386,0.96984615,0.090514905,0.12658659
1764512675.6448448,-2.68576,1.8312,1.69386,0.96984615,0.090514905,0.12658659
1764512675.6448448,-2.68576,1.8312,1.69386,0.96984615,0.090514905,0.12658659
1764512675.6448448,-2.68576,1.8312,1.69386,0.96984615,0.090514905,0.12658659
1764512675.6448448,-2.68576,1.8312,1.69386,0.96984615,0.090514905,0.12658659
1764512675.6448448,-2.68576,1.8312,1.69386,0.96984615,0.090514905,0.12658659
1764512675.6448448,-2.68576,1.8312,1.69386,0.96984615,0.090514905,0.12658659
1764512675.6448448,-2.91466,1.64808,1.70912,0.969663045,0.091369395,0.126525555
1764512675.6448448,-2.91466,1.64808,1.70912,0.969663045,0.091369395,0.126525555
1764512675.6448448,-2.91466,1.64808,1.70912,0.969663045,0.091369395,0.126525555
1764512675.6448448,-2.91466,1.64808,1.70912,0.969663045,0.091369395,0.126525555
1764512675.6448448,-2.91466,1.64808,1.70912,0.969663045,0.091369395,0.126525555
1764512675.6448448,-2.91466,1.64808,1.70912,0.969663045,0.091369395,0.126525555
1764512675.6448448,-2.91466,1.64808,1.70912,0.969663045,0.091369395,0.126525555
1764512675.6448448,-2.91466,1.64808,1.70912,0.969663045,0.091369395,0.126525555
1764512675.6448448,-2.91466,1.64808,1.70912,0.969663045,0.091369395,0.126525555
1764512675.6448448,-2.91466,1.64808,1.70912,0.969663045,0.091369395,0.126525555
1764512675.6448448,-3.60136,1.35814,0.88508,0.96935787,0.09143043,0.125915205
1764512675.6459682,-3.60136,1.35814,0.88508,0.96935787,0.09143043,0.125915205
1764512675.6459682,-3.60136,1.35814,0.88508,0.96935787,0.09143043,0.125915205
1764512675.6459682,-3.60136,1.35814,0.88508,0.96935787,0.09143043,0.125915205
1764512675.6459682,-3.60136,1.35814,0.88508,0.96935787,0.09143043,0.125915205
1764512675.6459682,-3.60136,1.35814,0.88508,0.96935787,0.09143043,0.125915205
1764512675.6459682,-3.60136,1.35814,0.88508,0.96935787,0.09143043,0.125915205
1764512675.6459682,-3.60136,1.35814,0.88508,0.96935787,0.09143043,0.125915205
1764512675.6890647,-3.60136,1.35814,0.88508,0.96935787,0.09143043,0.125915205
1764512675.6890647,-3.60136,1.35814,0.88508,0.96935787,0.09143043,0.125915205
1764512675.6890647,-3.69292,2.16692,1.526,0.970395465,0.090026625,0.127013835
1764512675.6890647,-3.69292,2.16692,1.526,0.970395465,0.090026625,0.127013835
1764512675.6890647,-3.69292,2.16692,1.526,0.970395465,0.090026625,0.127013835
1764512675.6890647,-3.69292,2.16692,1.526,0.970395465,0.090026625,0.127013835
1764512675.6890647,-3.69292,2.16692,1.526,0.970395465,0.090026625,0.127013835
1764512675.6890647,-3.69292,2.16692,1.526,0.970395465,0.090026625,0.127013835
1764512675.6890647,-3.69292,2.16692,1.526,0.970395465,0.090026625,0.127013835
1764512675.6890647,-3.69292,2.16692,1.526,0.970395465,0.090026625,0.127013835
1764512675.6890647,-3.69292,2.16692,1.526,0.970395465,0.090026625,0.127013835
1764512675.6902113,-3.69292,2.16692,1.526,0.970395465,0.090026625,0.127013835
1764512675.6902113,-3.46402,1.526,1.2971,0.96838131,0.088317645,0.12622038
1764512675.6902113,-3.46402,1.526,1.2971,0.96838131,0.088317645,0.12622038
1764512675.6902113,-3.46402,1.526,1.2971,0.96838131,0.088317645,0.12622038
1764512675.6902113,-3.46402,1.526,1.2971,0.96838131,0.088317645,0.12622038
1764512675.6902113,-3.46402,1.526,1.2971,0.96838131,0.088317645,0.12622038
1764512675.6902113,-3.46402,1.526,1.2971,0.96838131,0.088317645,0.12622038
1764512675.6902113,-3.46402,1.526,1.2971,0.96838131,0.088317645,0.12622038
1764512675.6902113,-3.46402,1.526,1.2971,0.96838131,0.088317645,0.12622038
1764512675.6902113,-3.46402,1.526,1.2971,0.96838131,0.088317645,0.12622038
1764512675.6902113,-3.46402,1.526,1.2971,0.96838131,0.088317645,0.12622038
1764512675.7376244,-3.69292,0.57988,1.11398,0.96777096,0.08825661,0.1257321
1764512675.7376244,-3.69292,0.57988,1.11398,0.96777096,0.08825661,0.1257321
1764512675.7376244,-3.69292,0.57988,1.11398,0.96777096,0.08825661,0.1257321
1764512675.7376244,-3.69292,0.57988,1.11398,0.96777096,0.08825661,0.1257321
1764512675.7376244,-3.69292,0.57988,1.11398,0.96777096,0.08825661,0.1257321
1764512675.7376244,-3.69292,0.57988,1.11398,0.96777096,0.08825661,0.1257321
1764512675.7376244,-3.69292,0.57988,1.11398,0.96777096,0.08825661,0.1257321
1764512675.7376244,-3.69292,0.57988,1.11398,0.96777096,0.08825661,0.1257321
1764512675.7376244,-3.69292,0.57988,1.11398,0.96777096,0.08825661,0.1257321
1764512675.7376244,-3.69292,0.57988,1.11398,0.96777096,0.08825661,0.1257321
1764512675.7376244,-3.79974,1.03768,0.47306,0.97021236,0.087951435,0.12609831
1764512675.7376244,-3.79974,1.03768,0.47306,0.97021236,0.087951435,0.12609831
1764512675.7376244,-3.79974,1.03768,0.47306,0.97021236,0.087951435,0.12609831
1764512675.7376244,-3.79974,1.03768,0.47306,0.97021236,0.087951435,0.12609831
1764512675.7376244,-3.79974,1.03768,0.47306,0.97021236,0.087951435,0.12609831
1764512675.7376244,-3.79974,1.03768,0.47306,0.97021236,0.087951435,0.12609831
1764512675.7376244,-3.79974,1.03768,0.47306,0.97021236,0.087951435,0.12609831
1764512675.7376244,-3.79974,1.03768,0.47306,0.97021236,0.087951435,0.12609831
1764512675.7376244,-3.79974,1.03768,0.47306,0.97021236,0.087951435,0.12609831
1764512675.7376244,-3.79974,1.03768,0.47306,0.97021236,0.087951435,0.12609831
1764512675.7376244,-3.99812,1.63282,0.8087799999999999,0.97216548,0.087707295,0.12670866
1764512675.7376244,-3.99812,1.63282,0.8087799999999999,0.97216548,0.087707295,0.12670866
1764512675.7376244,-3.99812,1.63282,0.8087799999999999,0.97216548,0.087707295,0.12670866
1764512675.7376244,-3.99812,1.63282,0.8087799999999999,0.97216548,0.087707295,0.12670866
1764512675.7810593,-3.99812,1.63282,0.8087799999999999,0.97216548,0.087707295,0.12670866
1764512675.7810593,-3.99812,1.63282,0.8087799999999999,0.97216548,0.087707295,0.12670866
1764512675.7810593,-3.99812,1.63282,0.8087799999999999,0.97216548,0.087707295,0.12670866
1764512675.7810593,-3.99812,1.63282,0.8087799999999999,0.97216548,0.087707295,0.12670866
1764512675.7810593,-3.99812,1.63282,0.8087799999999999,0.97216548,0.087707295,0.12670866
1764512675.7810593,-3.99812,1.63282,0.8087799999999999,0.97216548,0.087707295,0.12670866
1764512675.7810593,-3.7387,1.95328,0.62566,0.97082271,0.08776833,0.1269528
1764512675.7810593,-3.7387,1.95328,0.62566,0.97082271,0.08776833,0.1269528
1764512675.7810593,-3.7387,1.95328,0.62566,0.97082271,0.08776833,0.1269528
1764512675.7810593,-3.7387,1.95328,0.62566,0.97082271,0.08776833,0.1269528
1764512675.7810593,-3.7387,1.95328,0.62566,0.97082271,0.08776833,0.1269528
1764512675.7810593,-3.7387,1.95328,0.62566,0.97082271,0.08776833,0.1269528
1764512675.7810593,-3.7387,1.95328,0.62566,0.97082271,0.08776833,0.1269528
1764512675.7810593,-3.7387,1.95328,0.62566,0.97082271,0.08776833,0.1269528
1764512675.7810593,-3.7387,1.95328,0.62566,0.97082271,0.08776833,0.1269528
1764512675.7810593,-3.7387,1.95328,0.62566,0.97082271,0.08776833,0.1269528
1764512675.7810593,-3.46402,1.03768,0.5341,0.968686485,0.088439715,0.12683073
1764512675.782069,-3.46402,1.03768,0.5341,0.968686485,0.088439715,0.12683073
1764512675.782069,-3.46402,1.03768,0.5341,0.968686485,0.088439715,0.12683073
1764512675.782069,-3.46402,1.03768,0.5341,0.968686485,0.088439715,0.12683073
1764512675.782069,-3.46402,1.03768,0.5341,0.968686485,0.088439715,0.12683073
1764512675.782069,-3.46402,1.03768,0.5341,0.968686485,0.088439715,0.12683073
1764512675.8288765,-3.46402,1.03768,0.5341,0.968686485,0.088439715,0.12683073
1764512675.8288765,-3.46402,1.03768,0.5341,0.968686485,0.088439715,0.12683073
1764512675.8288765,-3.46402,1.03768,0.5341,0.968686485,0.088439715,0.12683073
1764512675.8288765,-3.46402,1.03768,0.5341,0.968686485,0.088439715,0.12683073
1764512675.8288765,-3.2809,0.88508,0.8392999999999999,0.96764889,0.08874489,0.126769695
1764512675.8288765,-3.2809,0.88508,0.8392999999999999,0.96764889,0.08874489,0.126769695
1764512675.8288765,-3.2809,0.88508,0.8392999999999999,0.96764889,0.08874489,0.126769695
1764512675.8288765,-3.2809,0.88508,0.8392999999999999,0.96764889,0.08874489,0.126769695
1764512675.8288765,-3.2809,0.88508,0.8392999999999999,0.96764889,0.08874489,0.126769695
1764512675.8288765,-3.2809,0.88508,0.8392999999999999,0.96764889,0.08874489,0.126769695
1764512675.8288765,-3.2809,0.88508,0.8392999999999999,0.96764889,0.08874489,0.126769695
1764512675.8288765,-3.2809,0.88508,0.8392999999999999,0.96764889,0.08874489,0.126769695
1764512675.8288765,-3.2809,0.88508,0.8392999999999999,0.96764889,0.08874489,0.126769695
1764512675.8288765,-3.2809,0.88508,0.8392999999999999,0.96764889,0.08874489,0.126769695
1764512675.8288765,-3.46402,1.00716,0.88508,0.96838131,0.089172135,0.12646452
1764512675.8288765,-3.46402,1.00716,0.88508,0.96838131,0.089172135,0.12646452
1764512675.8288765,-3.46402,1.00716,0.88508,0.96838131,0.089172135,0.12646452
1764512675.8288765,-3.46402,1.00716,0.88508,0.96838131,0.089172135,0.12646452
1764512675.8288765,-3.46402,1.00716,0.88508,0.96838131,0.089172135,0.12646452
1764512675.8288765,-3.46402,1.00716,0.88508,0.96838131,0.089172135,0.12646452
1764512675.8288765,-3.46402,1.00716,0.88508,0.96838131,0.089172135,0.12646452
1764512675.8288765,-3.46402,1.00716,0.88508,0.96838131,0.089172135,0.12646452
1764512675.8288765,-3.46402,1.00716,0.88508,0.96838131,0.089172135,0.12646452
1764512675.8288765,-3.46402,1.00716,0.88508,0.96838131,0.089172135,0.12646452
1764512675.8769343,-3.44876,0.73248,0.3204599999999999,0.969052695,0.089050065,0.12622038
1764512675.8769343,-3.44876,0.73248,0.3204599999999999,0.969052695,0.089050065,0.12622038
1764512675.8769343,-3.44876,0.73248,0.3204599999999999,0.969052695,0.089050065,0.12622038
1764512675.8769343,-3.44876,0.73248,0.3204599999999999,0.969052695,0.089050065,0.12622038
1764512675.8769343,-3.44876,0.73248,0.3204599999999999,0.969052695,0.089050065,0.12622038
1764512675.8769343,-3.44876,0.73248,0.3204599999999999,0.969052695,0.089050065,0.12622038
1764512675.8769343,-3.44876,0.73248,0.3204599999999999,0.969052695,0.089050065,0.12622038
1764512675.8769343,-3.44876,0.73248,0.3204599999999999,0.969052695,0.089050065,0.12622038
1764512675.8769343,-3.44876,0.73248,0.3204599999999999,0.969052695,0.089050065,0.12622038
1764512675.8769343,-3.44876,0.73248,0.3204599999999999,0.969052695,0.089050065,0.12622038
1764512675.8769343,-3.69292,0.59514,0.48832,0.96911373,0.09057594,0.125793135
1764512675.8769343,-3.69292,0.59514,0.48832,0.96911373,0.09057594,0.125793135
1764512675.8769343,-3.69292,0.59514,0.48832,0.96911373,0.09057594,0.125793135
1764512675.8769343,-3.69292,0.59514,0.48832,0.96911373,0.09057594,0.125793135
1764512675.8769343,-3.69292,0.59514,0.48832,0.96911373,0.09057594,0.125793135
1764512675.8769343,-3.69292,0.59514,0.48832,0.96911373,0.09057594,0.125793135
1764512675.8769343,-3.69292,0.59514,0.48832,0.96911373,0.09057594,0.125793135
1764512675.8769343,-3.69292,0.59514,0.48832,0.96911373,0.09057594,0.125793135
1764512675.877947,-3.69292,0.59514,0.48832,0.96911373,0.09057594,0.125793135
1764512675.877947,-3.69292,0.59514,0.48832,0.96911373,0.09057594,0.125793135
1764512675.877947,-4.01338,0.6103999999999999,0.18312,0.97021236,0.09057594,0.12548796
1764512675.877947,-4.01338,0.6103999999999999,0.18312,0.97021236,0.09057594,0.12548796
1764512675.9236414,-4.01338,0.6103999999999999,0.18312,0.97021236,0.09057594,0.12548796
1764512675.9241543,-4.01338,0.6103999999999999,0.18312,0.97021236,0.09057594,0.12548796
1764512675.9241543,-4.01338,0.6103999999999999,0.18312,0.97021236,0.09057594,0.12548796
1764512675.9241543,-4.01338,0.6103999999999999,0.18312,0.97021236,0.09057594,0.12548796
1764512675.9241543,-4.01338,0.6103999999999999,0.18312,0.97021236,0.09057594,0.12548796
1764512675.9241543,-4.01338,0.6103999999999999,0.18312,0.97021236,0.09057594,0.12548796
1764512675.9241543,-4.01338,0.6103999999999999,0.18312,0.97021236,0.09057594,0.12548796
1764512675.9241543,-4.01338,0.6103999999999999,0.18312,0.97021236,0.09057594,0.12548796
1764512675.9241543,-3.79974,1.2971,-0.04578,0.971005815,0.090148695,0.12585417
1764512675.9241543,-3.79974,1.2971,-0.04578,0.971005815,0.090148695,0.12585417
1764512675.9241543,-3.79974,1.2971,-0.04578,0.971005815,0.090148695,0.12585417
1764512675.9241543,-3.79974,1.2971,-0.04578,0.971005815,0.090148695,0.12585417
1764512675.9241543,-3.79974,1.2971,-0.04578,0.971005815,0.090148695,0.12585417
1764512675.9241543,-3.79974,1.2971,-0.04578,0.971005815,0.090148695,0.12585417
1764512675.9241543,-3.79974,1.2971,-0.04578,0.971005815,0.090148695,0.12585417
1764512675.9241543,-3.79974,1.2971,-0.04578,0.971005815,0.090148695,0.12585417
1764512675.9241543,-3.79974,1.2971,-0.04578,0.971005815,0.090148695,0.12585417
1764512675.9241543,-3.79974,1.2971,-0.04578,0.971005815,0.090148695,0.12585417
1764512675.9241543,-3.26564,1.6022999999999998,0.8087799999999999,0.97131099,0.08959938,0.126403485
1764512675.9241543,-3.26564,1.6022999999999998,0.8087799999999999,0.97131099,0.08959938,0.126403485
1764512675.9241543,-3.26564,1.6022999999999998,0.8087799999999999,0.97131099,0.08959938,0.126403485
1764512675.9241543,-3.26564,1.6022999999999998,0.8087799999999999,0.97131099,0.08959938,0.126403485
1764512675.9241543,-3.26564,1.6022999999999998,0.8087799999999999,0.97131099,0.08959938,0.126403485
1764512675.9251842,-3.26564,1.6022999999999998,0.8087799999999999,0.97131099,0.08959938,0.126403485
1764512675.9685445,-3.26564,1.6022999999999998,0.8087799999999999,0.97131099,0.08959938,0.126403485
1764512675.9685445,-3.26564,1.6022999999999998,0.8087799999999999,0.97131099,0.08959938,0.126403485
1764512675.9685445,-3.26564,1.6022999999999998,0.8087799999999999,0.97131099,0.08959938,0.126403485
1764512675.9685445,-3.26564,1.6022999999999998,0.8087799999999999,0.97131099,0.08959938,0.126403485
1764512675.9685445,-2.96044,1.78542,0.82404,0.971249955,0.089294205,0.126647625
1764512675.9685445,-2.96044,1.78542,0.82404,0.971249955,0.089294205,0.126647625
1764512675.9685445,-2.96044,1.78542,0.82404,0.971249955,0.089294205,0.126647625
1764512675.9685445,-2.96044,1.78542,0.82404,0.971249955,0.089294205,0.126647625
1764512675.9685445,-2.96044,1.78542,0.82404,0.971249955,0.089294205,0.126647625
1764512675.9685445,-2.96044,1.78542,0.82404,0.971249955,0.089294205,0.126647625
1764512675.9685445,-2.96044,1.78542,0.82404,0.971249955,0.089294205,0.126647625
1764512675.9685445,-2.96044,1.78542,0.82404,0.971249955,0.089294205,0.126647625
1764512675.9685445,-2.96044,1.78542,0.82404,0.971249955,0.089294205,0.126647625
1764512675.9685445,-2.96044,1.78542,0.82404,0.971249955,0.089294205,0.126647625
1764512675.9685445,-3.15882,1.64808,1.31236,0.97057857,0.089050065,0.12658659
1764512675.9685445,-3.15882,1.64808,1.31236,0.97057857,0.089050065,0.12658659
1764512675.9685445,-3.15882,1.64808,1.31236,0.97057857,0.089050065,0.12658659
1764512675.9685445,-3.15882,1.64808,1.31236,0.97057857,0.089050065,0.12658659
1764512675.9685445,-3.15882,1.64808,1.31236,0.97057857,0.089050065,0.12658659
1764512675.9685445,-3.15882,1.64808,1.31236,0.97057857,0.089050065,0.12658659
1764512675.9685445,-3.15882,1.64808,1.31236,0.97057857,0.089050065,0.12658659
1764512675.9685445,-3.15882,1.64808,1.31236,0.97057857,0.089050065,0.12658659
1764512676.0153482,-3.15882,1.64808,1.31236,0.97057857,0.089050065,0.12658659
1764512676.0153482,-3.15882,1.64808,1.31236,0.97057857,0.089050065,0.12658659
1764512676.0153482,-2.8231,1.54126,1.46496,0.97009029,0.088927995,0.127013835
1764512676.0153482,-2.8231,1.54126,1.46496,0.97009029,0.088927995,0.127013835
1764512676.0153482,-2.8231,1.54126,1.46496,0.97009029,0.088927995,0.127013835
1764512676.0153482,-2.8231,1.54126,1.46496,0.97009029,0.088927995,0.127013835
1764512676.0153482,-2.8231,1.54126,1.46496,0.97009029,0.088927995,0.127013835
1764512676.0153482,-2.8231,1.54126,1.46496,0.97009029,0.088927995,0.127013835
1764512676.0153482,-2.8231,1.54126,1.46496,0.97009029,0.088927995,0.127013835
1764512676.0153482,-2.8231,1.54126,1.46496,0.97009029,0.088927995,0.127013835
1764512676.0153482,-2.8231,1.54126,1.46496,0.97009029,0.088927995,0.127013835
1764512676.0153482,-2.8231,1.54126,1.46496,0.97009029,0.088927995,0.127013835
1764512676.0153482,-2.96044,1.43444,1.26658,0.969785115,0.090148695,0.127135905
1764512676.0153482,-2.96044,1.43444,1.26658,0.969785115,0.090148695,0.127135905
1764512676.0153482,-2.96044,1.43444,1.26658,0.969785115,0.090148695,0.127135905
1764512676.0153482,-2.96044,1.43444,1.26658,0.969785115,0.090148695,0.127135905
1764512676.0153482,-2.96044,1.43444,1.26658,0.969785115,0.090148695,0.127135905
1764512676.016361,-2.96044,1.43444,1.26658,0.969785115,0.090148695,0.127135905
1764512676.016361,-2.96044,1.43444,1.26658,0.969785115,0.090148695,0.127135905
1764512676.016361,-2.96044,1.43444,1.26658,0.969785115,0.090148695,0.127135905
1764512676.016361,-2.96044,1.43444,1.26658,0.969785115,0.090148695,0.127135905
1764512676.016361,-2.96044,1.43444,1.26658,0.969785115,0.090148695,0.127135905
1764512676.016361,-3.815,1.23606,1.49548,0.970273395,0.090881115,0.12744108
1764512676.016361,-3.815,1.23606,1.49548,0.970273395,0.090881115,0.12744108
1764512676.016361,-3.815,1.23606,1.49548,0.970273395,0.090881115,0.12744108
1764512676.016361,-3.815,1.23606,1.49548,0.970273395,0.090881115,0.12744108
1764512676.0621085,-3.815,1.23606,1.49548,0.970273395,0.090881115,0.12744108
1764512676.0621085,-3.815,1.23606,1.49548,0.970273395,0.090881115,0.12744108
1764512676.0621085,-3.815,1.23606,1.49548,0.970273395,0.090881115,0.12744108
1764512676.0621085,-3.815,1.23606,1.49548,0.970273395,0.090881115,0.12744108
1764512676.0621085,-3.815,1.23606,1.49548,0.970273395,0.090881115,0.12744108
1764512676.0621085,-3.815,1.23606,1.49548,0.970273395,0.090881115,0.12744108
1764512676.0621085,-4.92898,0.9003399999999999,1.1445,0.970029255,0.09069801,0.127868325
1764512676.0621085,-4.92898,0.9003399999999999,1.1445,0.970029255,0.09069801,0.127868325
1764512676.0621085,-4.92898,0.9003399999999999,1.1445,0.970029255,0.09069801,0.127868325
1764512676.0621085,-4.92898,0.9003399999999999,1.1445,0.970029255,0.09069801,0.127868325
1764512676.0621085,-4.92898,0.9003399999999999,1.1445,0.970029255,0.09069801,0.127868325
1764512676.0621085,-4.92898,0.9003399999999999,1.1445,0.970029255,0.09069801,0.127868325
1764512676.0621085,-4.92898,0.9003399999999999,1.1445,0.970029255,0.09069801,0.127868325
1764512676.0621085,-4.92898,0.9003399999999999,1.1445,0.970029255,0.09069801,0.127868325
1764512676.0621085,-4.92898,0.9003399999999999,1.1445,0.970029255,0.09069801,0.127868325
1764512676.0621085,-4.92898,0.9003399999999999,1.1445,0.970029255,0.09069801,0.127868325
1764512676.0621085,-4.7306,1.08346,0.59514,0.970273395,0.09045387,0.127502115
1764512676.0621085,-4.7306,1.08346,0.59514,0.970273395,0.09045387,0.127502115
1764512676.0631268,-4.7306,1.08346,0.59514,0.970273395,0.09045387,0.127502115
1764512676.0631268,-4.7306,1.08346,0.59514,0.970273395,0.09045387,0.127502115
1764512676.0631268,-4.7306,1.08346,0.59514,0.970273395,0.09045387,0.127502115
1764512676.0631268,-4.7306,1.08346,0.59514,0.970273395,0.09045387,0.127502115
1764512676.1089034,-4.7306,1.08346,0.59514,0.970273395,0.09045387,0.127502115
1764512676.1089034,-4.7306,1.08346,0.59514,0.970273395,0.09045387,0.127502115
1764512676.1089034,-4.7306,1.08346,0.59514,0.970273395,0.09045387,0.127502115
1764512676.1089034,-4.7306,1.08346,0.59514,0.970273395,0.09045387,0.127502115
1764512676.1089034,-4.41014,1.11398,0.41202,0.96960201,0.089050065,0.127380045
1764512676.1089034,-4.41014,1.11398,0.41202,0.96960201,0.089050065,0.127380045
1764512676.1089034,-4.41014,1.11398,0.41202,0.96960201,0.089050065,0.127380045
1764512676.1089034,-4.41014,1.11398,0.41202,0.96960201,0.089050065,0.127380045
1764512676.1089034,-4.41014,1.11398,0.41202,0.96960201,0.089050065,0.127380045
1764512676.1089034,-4.41014,1.11398,0.41202,0.96960201,0.089050065,0.127380045
1764512676.1089034,-4.41014,1.11398,0.41202,0.96960201,0.089050065,0.127380045
1764512676.10992,-4.41014,1.11398,0.41202,0.96960201,0.089050065,0.127380045
1764512676.10992,-4.41014,1.11398,0.41202,0.96960201,0.089050065,0.127380045
1764512676.10992,-4.41014,1.11398,0.41202,0.96960201,0.089050065,0.127380045
1764512676.10992,-4.01338,0.8392999999999999,0.71722,0.96947994,0.088561785,0.127257975
1764512676.10992,-4.01338,0.8392999999999999,0.71722,0.96947994,0.088561785,0.127257975
1764512676.10992,-4.01338,0.8392999999999999,0.71722,0.96947994,0.088561785,0.127257975
1764512676.10992,-4.01338,0.8392999999999999,0.71722,0.96947994,0.088561785,0.127257975
1764512676.10992,-4.01338,0.8392999999999999,0.71722,0.96947994,0.088561785,0.127257975
1764512676.10992,-4.01338,0.8392999999999999,0.71722,0.96947994,0.088561785,0.127257975
1764512676.10992,-4.01338,0.8392999999999999,0.71722,0.96947994,0.088561785,0.127257975
1764512676.10992,-4.01338,0.8392999999999999,0.71722,0.96947994,0.088561785,0.127257975
1764512676.10992,-4.01338,0.8392999999999999,0.71722,0.96947994,0.088561785,0.127257975
1764512676.10992,-4.01338,0.8392999999999999,0.71722,0.96947994,0.088561785,0.127257975
1764512676.1557891,-3.86078,1.0682,0.82404,0.97057857,0.08776833,0.12744108
1764512676.1557891,-3.86078,1.0682,0.82404,0.97057857,0.08776833,0.12744108
1764512676.1557891,-3.86078,1.0682,0.82404,0.97057857,0.08776833,0.12744108
1764512676.1557891,-3.86078,1.0682,0.82404,0.97057857,0.08776833,0.12744108
1764512676.1557891,-3.86078,1.0682,0.82404,0.97057857,0.08776833,0.12744108
1764512676.1557891,-3.86078,1.0682,0.82404,0.97057857,0.08776833,0.12744108
1764512676.1557891,-3.86078,1.0682,0.82404,0.97057857,0.08776833,0.12744108
1764512676.1557891,-3.86078,1.0682,0.82404,0.97057857,0.08776833,0.12744108
1764512676.1557891,-3.86078,1.0682,0.82404,0.97057857,0.08776833,0.12744108
1764512676.1557891,-3.86078,1.0682,0.82404,0.97057857,0.08776833,0.12744108
1764512676.1557891,-3.5861,1.7549,1.2208,0.971127885,0.0878904,0.126281415
1764512676.1557891,-3.5861,1.7549,1.2208,0.971127885,0.0878904,0.126281415
1764512676.1557891,-3.5861,1.7549,1.2208,0.971127885,0.0878904,0.126281415
1764512676.1557891,-3.5861,1.7549,1.2208,0.971127885,0.0878904,0.126281415
1764512676.1557891,-3.5861,1.7549,1.2208,0.971127885,0.0878904,0.126281415
1764512676.1557891,-3.5861,1.7549,1.2208,0.971127885,0.0878904,0.126281415
1764512676.1557891,-3.5861,1.7549,1.2208,0.971127885,0.0878904,0.126281415
1764512676.1557891,-3.5861,1.7549,1.2208,0.971127885,0.0878904,0.126281415
1764512676.1557891,-3.5861,1.7549,1.2208,0.971127885,0.0878904,0.126281415
1764512676.1557891,-3.5861,1.7549,1.2208,0.971127885,0.0878904,0.126281415
1764512676.1557891,-3.55558,1.57178,1.2055399999999998,0.96996822,0.088073505,0.12609831
1764512676.1557891,-3.55558,1.57178,1.2055399999999998,0.96996822,0.088073505,0.12609831
1764512676.2030542,-3.55558,1.57178,1.2055399999999998,0.96996822,0.088073505,0.12609831
1764512676.2030542,-3.55558,1.57178,1.2055399999999998,0.96996822,0.088073505,0.12609831
1764512676.2030542,-3.55558,1.57178,1.2055399999999998,0.96996822,0.088073505,0.12609831
1764512676.2030542,-3.55558,1.57178,1.2055399999999998,0.96996822,0.088073505,0.12609831
1764512676.2030542,-3.55558,1.57178,1.2055399999999998,0.96996822,0.088073505,0.12609831
1764512676.2030542,-3.55558,1.57178,1.2055399999999998,0.96996822,0.088073505,0.12609831
1764512676.2030542,-3.55558,1.57178,1.2055399999999998,0.96996822,0.088073505,0.12609831
1764512676.2030542,-3.55558,1.57178,1.2055399999999998,0.96996822,0.088073505,0.12609831
1764512676.2355506,-3.76922,1.0682,0.73248,0.970395465,0.08752419,0.126769695
1764512676.2355506,-3.76922,1.0682,0.73248,0.970395465,0.08752419,0.126769695
1764512676.2355506,-3.76922,1.0682,0.73248,0.970395465,0.08752419,0.126769695
1764512676.2355506,-3.76922,1.0682,0.73248,0.970395465,0.08752419,0.126769695
1764512676.2355506,-3.76922,1.0682,0.73248,0.970395465,0.08752419,0.126769695
1764512676.2355506,-3.76922,1.0682,0.73248,0.970395465,0.08752419,0.126769695
1764512676.2355506,-3.76922,1.0682,0.73248,0.970395465,0.08752419,0.126769695
1764512676.2355506,-3.76922,1.0682,0.73248,0.970395465,0.08752419,0.126769695
1764512676.2355506,-3.76922,1.0682,0.73248,0.970395465,0.08752419,0.126769695
1764512676.2355506,-3.76922,1.0682,0.73248,0.970395465,0.08752419,0.126769695
1764512676.2355506,-3.57084,0.4578,-0.44254,0.96947994,0.08764626,0.12585417
1764512676.2355506,-3.57084,0.4578,-0.44254,0.96947994,0.08764626,0.12585417
1764512676.2355506,-3.57084,0.4578,-0.44254,0.96947994,0.08764626,0.12585417
1764512676.2355506,-3.57084,0.4578,-0.44254,0.96947994,0.08764626,0.12585417
1764512676.2370658,-3.57084,0.4578,-0.44254,0.96947994,0.08764626,0.12585417
1764512676.2370658,-3.57084,0.4578,-0.44254,0.96947994,0.08764626,0.12585417
1764512676.2370658,-3.57084,0.4578,-0.44254,0.96947994,0.08764626,0.12585417
1764512676.2370658,-3.57084,0.4578,-0.44254,0.96947994,0.08764626,0.12585417
1764512676.2511835,-3.57084,0.4578,-0.44254,0.96947994,0.08764626,0.12585417
1764512676.2511835,-3.57084,0.4578,-0.44254,0.96947994,0.08764626,0.12585417
1764512676.2511835,-4.059159999999999,0.3509799999999999,-1.26658,0.970517535,0.088805925,0.1257321
1764512676.2511835,-4.059159999999999,0.3509799999999999,-1.26658,0.970517535,0.088805925,0.1257321
1764512676.2511835,-4.059159999999999,0.3509799999999999,-1.26658,0.970517535,0.088805925,0.1257321
1764512676.2511835,-4.059159999999999,0.3509799999999999,-1.26658,0.970517535,0.088805925,0.1257321
1764512676.2511835,-4.059159999999999,0.3509799999999999,-1.26658,0.970517535,0.088805925,0.1257321
1764512676.2511835,-4.059159999999999,0.3509799999999999,-1.26658,0.970517535,0.088805925,0.1257321
1764512676.2511835,-4.059159999999999,0.3509799999999999,-1.26658,0.970517535,0.088805925,0.1257321
1764512676.2522137,-4.059159999999999,0.3509799999999999,-1.26658,0.970517535,0.088805925,0.1257321
1764512676.2522137,-4.059159999999999,0.3509799999999999,-1.26658,0.970517535,0.088805925,0.1257321
1764512676.2522137,-4.059159999999999,0.3509799999999999,-1.26658,0.970517535,0.088805925,0.1257321
1764512676.2522137,-4.3491,1.1445,-0.9003399999999999,0.972104445,0.090392835,0.12585417
1764512676.2522137,-4.3491,1.1445,-0.9003399999999999,0.972104445,0.090392835,0.12585417
1764512676.2522137,-4.3491,1.1445,-0.9003399999999999,0.972104445,0.090392835,0.12585417
1764512676.2522137,-4.3491,1.1445,-0.9003399999999999,0.972104445,0.090392835,0.12585417
1764512676.2522137,-4.3491,1.1445,-0.9003399999999999,0.972104445,0.090392835,0.12585417
1764512676.2522137,-4.3491,1.1445,-0.9003399999999999,0.972104445,0.090392835,0.12585417
1764512676.2522137,-4.3491,1.1445,-0.9003399999999999,0.972104445,0.090392835,0.12585417
1764512676.2522137,-4.3491,1.1445,-0.9003399999999999,0.972104445,0.090392835,0.12585417
1764512676.2522137,-4.3491,1.1445,-0.9003399999999999,0.972104445,0.090392835,0.12585417
1764512676.2522137,-4.3491,1.1445,-0.9003399999999999,0.972104445,0.090392835,0.12585417
1764512676.2989995,-4.48644,2.02958,-0.88508,0.971372025,0.091247325,0.12609831
1764512676.2989995,-4.48644,2.02958,-0.88508,0.971372025,0.091247325,0.12609831
1764512676.2989995,-4.48644,2.02958,-0.88508,0.971372025,0.091247325,0.12609831
1764512676.2989995,-4.48644,2.02958,-0.88508,0.971372025,0.091247325,0.12609831
1764512676.2989995,-4.48644,2.02958,-0.88508,0.971372025,0.091247325,0.12609831
1764512676.2989995,-4.48644,2.02958,-0.88508,0.971372025,0.091247325,0.12609831
1764512676.2989995,-4.48644,2.02958,-0.88508,0.971372025,0.091247325,0.12609831
1764512676.2989995,-4.48644,2.02958,-0.88508,0.971372025,0.091247325,0.12609831
1764512676.2989995,-4.48644,2.02958,-0.88508,0.971372025,0.091247325,0.12609831
1764512676.300029,-4.48644,2.02958,-0.88508,0.971372025,0.091247325,0.12609831
1764512676.300029,-4.852679999999999,2.04484,0.06104,0.969663045,0.09118629,0.125793135
1764512676.300029,-4.852679999999999,2.04484,0.06104,0.969663045,0.09118629,0.125793135
1764512676.300029,-4.852679999999999,2.04484,0.06104,0.969663045,0.09118629,0.125793135
1764512676.300029,-4.852679999999999,2.04484,0.06104,0.969663045,0.09118629,0.125793135
1764512676.300029,-4.852679999999999,2.04484,0.06104,0.969663045,0.09118629,0.125793135
1764512676.300029,-4.852679999999999,2.04484,0.06104,0.969663045,0.09118629,0.125793135
1764512676.300029,-4.852679999999999,2.04484,0.06104,0.969663045,0.09118629,0.125793135
1764512676.300029,-4.852679999999999,2.04484,0.06104,0.969663045,0.09118629,0.125793135
1764512676.300029,-4.852679999999999,2.04484,0.06104,0.969663045,0.09118629,0.125793135
1764512676.300029,-4.852679999999999,2.04484,0.06104,0.969663045,0.09118629,0.125793135
1764512676.300029,-3.57084,1.38866,0.73248,0.96825924,0.09057594,0.126159345
1764512676.300029,-3.57084,1.38866,0.73248,0.96825924,0.09057594,0.126159345
1764512676.300029,-3.57084,1.38866,0.73248,0.96825924,0.09057594,0.126159345
1764512676.300029,-3.57084,1.38866,0.73248,0.96825924,0.09057594,0.126159345
1764512676.347401,-3.57084,1.38866,0.73248,0.96825924,0.09057594,0.126159345
1764512676.347401,-3.57084,1.38866,0.73248,0.96825924,0.09057594,0.126159345
1764512676.347401,-3.57084,1.38866,0.73248,0.96825924,0.09057594,0.126159345
1764512676.347401,-3.57084,1.38866,0.73248,0.96825924,0.09057594,0.126159345
1764512676.347401,-3.57084,1.38866,0.73248,0.96825924,0.09057594,0.126159345
1764512676.347401,-3.57084,1.38866,0.73248,0.96825924,0.09057594,0.126159345
1764512676.347401,-2.77732,1.46496,1.3734,0.96850338,0.089050065,0.127257975
1764512676.347401,-2.77732,1.46496,1.3734,0.96850338,0.089050065,0.127257975
1764512676.347401,-2.77732,1.46496,1.3734,0.96850338,0.089050065,0.127257975
1764512676.347401,-2.77732,1.46496,1.3734,0.96850338,0.089050065,0.127257975
1764512676.347401,-2.77732,1.46496,1.3734,0.96850338,0.089050065,0.127257975
1764512676.347401,-2.77732,1.46496,1.3734,0.96850338,0.089050065,0.127257975
1764512676.347401,-2.77732,1.46496,1.3734,0.96850338,0.089050065,0.127257975
1764512676.347401,-2.77732,1.46496,1.3734,0.96850338,0.089050065,0.127257975
1764512676.347401,-2.77732,1.46496,1.3734,0.96850338,0.089050065,0.127257975
1764512676.347401,-2.77732,1.46496,1.3734,0.96850338,0.089050065,0.127257975
1764512676.347401,-2.15166,1.3734,1.78542,0.96935787,0.089538345,0.1281735
1764512676.347401,-2.15166,1.3734,1.78542,0.96935787,0.089538345,0.1281735
1764512676.347401,-2.15166,1.3734,1.78542,0.96935787,0.089538345,0.1281735
1764512676.3484292,-2.15166,1.3734,1.78542,0.96935787,0.089538345,0.1281735
1764512676.3484292,-2.15166,1.3734,1.78542,0.96935787,0.089538345,0.1281735
1764512676.3484292,-2.15166,1.3734,1.78542,0.96935787,0.089538345,0.1281735
1764512676.3484292,-2.15166,1.3734,1.78542,0.96935787,0.089538345,0.1281735
1764512676.3484292,-2.15166,1.3734,1.78542,0.96935787,0.089538345,0.1281735
1764512676.394205,-2.15166,1.3734,1.78542,0.96935787,0.089538345,0.1281735
1764512676.394205,-2.15166,1.3734,1.78542,0.96935787,0.089538345,0.1281735
1764512676.394205,-2.73154,1.1445,1.78542,0.96996822,0.090759045,0.127868325
1764512676.394205,-2.73154,1.1445,1.78542,0.96996822,0.090759045,0.127868325
1764512676.394205,-2.73154,1.1445,1.78542,0.96996822,0.090759045,0.127868325
1764512676.394205,-2.73154,1.1445,1.78542,0.96996822,0.090759045,0.127868325
1764512676.394205,-2.73154,1.1445,1.78542,0.96996822,0.090759045,0.127868325
1764512676.394205,-2.73154,1.1445,1.78542,0.96996822,0.090759045,0.127868325
1764512676.394205,-2.73154,1.1445,1.78542,0.96996822,0.090759045,0.127868325
1764512676.394205,-2.73154,1.1445,1.78542,0.96996822,0.090759045,0.127868325
1764512676.394205,-2.73154,1.1445,1.78542,0.96996822,0.090759045,0.127868325
1764512676.394205,-2.73154,1.1445,1.78542,0.96996822,0.090759045,0.127868325
1764512676.394205,-3.2046,1.1445,1.6022999999999998,0.97070064,0.09167457,0.127746255
1764512676.394205,-3.2046,1.1445,1.6022999999999998,0.97070064,0.09167457,0.127746255
1764512676.394205,-3.2046,1.1445,1.6022999999999998,0.97070064,0.09167457,0.127746255
1764512676.394205,-3.2046,1.1445,1.6022999999999998,0.97070064,0.09167457,0.127746255
1764512676.394205,-3.2046,1.1445,1.6022999999999998,0.97070064,0.09167457,0.127746255
1764512676.394205,-3.2046,1.1445,1.6022999999999998,0.97070064,0.09167457,0.127746255
1764512676.394205,-3.2046,1.1445,1.6022999999999998,0.97070064,0.09167457,0.127746255
1764512676.394205,-3.2046,1.1445,1.6022999999999998,0.97070064,0.09167457,0.127746255
1764512676.3952205,-3.2046,1.1445,1.6022999999999998,0.97070064,0.09167457,0.127746255
1764512676.3952205,-3.2046,1.1445,1.6022999999999998,0.97070064,0.09167457,0.127746255
1764512676.3952205,-4.13546,1.09872,1.00716,0.970883745,0.09265113,0.12719694
1764512676.3952205,-4.13546,1.09872,1.00716,0.970883745,0.09265113,0.12719694
1764512676.438421,-4.13546,1.09872,1.00716,0.970883745,0.09265113,0.12719694
1764512676.438421,-4.13546,1.09872,1.00716,0.970883745,0.09265113,0.12719694
1764512676.438421,-4.13546,1.09872,1.00716,0.970883745,0.09265113,0.12719694
1764512676.438421,-4.13546,1.09872,1.00716,0.970883745,0.09265113,0.12719694
1764512676.438421,-4.13546,1.09872,1.00716,0.970883745,0.09265113,0.12719694
1764512676.438421,-4.13546,1.09872,1.00716,0.970883745,0.09265113,0.12719694
1764512676.438421,-4.13546,1.09872,1.00716,0.970883745,0.09265113,0.12719694
1764512676.438421,-4.13546,1.09872,1.00716,0.970883745,0.09265113,0.12719694
1764512676.438421,-4.51696,1.00716,0.54936,0.969663045,0.09216285,0.126891765
1764512676.438421,-4.51696,1.00716,0.54936,0.969663045,0.09216285,0.126891765
1764512676.438421,-4.51696,1.00716,0.54936,0.969663045,0.09216285,0.126891765
1764512676.4397063,-4.51696,1.00716,0.54936,0.969663045,0.09216285,0.126891765
1764512676.4397063,-4.51696,1.00716,0.54936,0.969663045,0.09216285,0.126891765
1764512676.4397063,-4.51696,1.00716,0.54936,0.969663045,0.09216285,0.126891765
1764512676.4397063,-4.51696,1.00716,0.54936,0.969663045,0.09216285,0.126891765
1764512676.4397063,-4.51696,1.00716,0.54936,0.969663045,0.09216285,0.126891765
1764512676.4397063,-4.51696,1.00716,0.54936,0.969663045,0.09216285,0.126891765
1764512676.4397063,-4.51696,1.00716,0.54936,0.969663045,0.09216285,0.126891765
1764512676.4397063,-4.56274,1.41918,1.54126,0.968930625,0.09020973,0.127502115
1764512676.4397063,-4.56274,1.41918,1.54126,0.968930625,0.09020973,0.127502115
1764512676.4397063,-4.56274,1.41918,1.54126,0.968930625,0.09020973,0.127502115
1764512676.4397063,-4.56274,1.41918,1.54126,0.968930625,0.09020973,0.127502115
1764512676.486196,-4.56274,1.41918,1.54126,0.968930625,0.09020973,0.127502115
1764512676.486196,-4.56274,1.41918,1.54126,0.968930625,0.09020973,0.127502115
1764512676.486196,-4.56274,1.41918,1.54126,0.968930625,0.09020973,0.127502115
1764512676.486196,-4.56274,1.41918,1.54126,0.968930625,0.09020973,0.127502115
1764512676.486196,-4.56274,1.41918,1.54126,0.968930625,0.09020973,0.127502115
1764512676.486196,-4.56274,1.41918,1.54126,0.968930625,0.09020973,0.127502115
1764512676.486196,-3.55558,1.02242,1.9075,0.967831995,0.08776833,0.12744108
1764512676.486196,-3.55558,1.02242,1.9075,0.967831995,0.08776833,0.12744108
1764512676.486196,-3.55558,1.02242,1.9075,0.967831995,0.08776833,0.12744108
1764512676.486196,-3.55558,1.02242,1.9075,0.967831995,0.08776833,0.12744108
1764512676.486196,-3.55558,1.02242,1.9075,0.967831995,0.08776833,0.12744108
1764512676.486196,-3.55558,1.02242,1.9075,0.967831995,0.08776833,0.12744108
1764512676.486196,-3.55558,1.02242,1.9075,0.967831995,0.08776833,0.12744108
1764512676.486196,-3.55558,1.02242,1.9075,0.967831995,0.08776833,0.12744108
1764512676.486196,-3.55558,1.02242,1.9075,0.967831995,0.08776833,0.12744108
1764512676.486196,-3.55558,1.02242,1.9075,0.967831995,0.08776833,0.12744108
1764512676.486196,-3.72344,0.13734,1.00716,0.96728268,0.08801247,0.126769695
1764512676.486196,-3.72344,0.13734,1.00716,0.96728268,0.08801247,0.126769695
1764512676.486196,-3.72344,0.13734,1.00716,0.96728268,0.08801247,0.126769695
1764512676.486196,-3.72344,0.13734,1.00716,0.96728268,0.08801247,0.126769695
1764512676.486196,-3.72344,0.13734,1.00716,0.96728268,0.08801247,0.126769695
1764512676.4872084,-3.72344,0.13734,1.00716,0.96728268,0.08801247,0.126769695
1764512676.4872084,-3.72344,0.13734,1.00716,0.96728268,0.08801247,0.126769695
1764512676.4872084,-3.72344,0.13734,1.00716,0.96728268,0.08801247,0.126769695
1764512676.533628,-3.72344,0.13734,1.00716,0.96728268,0.08801247,0.126769695
1764512676.533628,-3.72344,0.13734,1.00716,0.96728268,0.08801247,0.126769695
1764512676.533628,-3.70818,1.00716,0.9003399999999999,0.971005815,0.08776833,0.127380045
1764512676.533628,-3.70818,1.00716,0.9003399999999999,0.971005815,0.08776833,0.127380045
1764512676.533628,-3.70818,1.00716,0.9003399999999999,0.971005815,0.08776833,0.127380045
1764512676.533628,-3.70818,1.00716,0.9003399999999999,0.971005815,0.08776833,0.127380045
1764512676.533628,-3.70818,1.00716,0.9003399999999999,0.971005815,0.08776833,0.127380045
1764512676.533628,-3.70818,1.00716,0.9003399999999999,0.971005815,0.08776833,0.127380045
1764512676.533628,-3.70818,1.00716,0.9003399999999999,0.971005815,0.08776833,0.127380045
1764512676.533628,-3.70818,1.00716,0.9003399999999999,0.971005815,0.08776833,0.127380045
1764512676.534837,-3.70818,1.00716,0.9003399999999999,0.971005815,0.08776833,0.127380045
1764512676.534837,-3.70818,1.00716,0.9003399999999999,0.971005815,0.08776833,0.127380045
1764512676.534837,-3.70818,1.43444,0.51884,0.973325145,0.087829365,0.12744108
1764512676.534837,-3.70818,1.43444,0.51884,0.973325145,0.087829365,0.12744108
1764512676.534837,-3.70818,1.43444,0.51884,0.973325145,0.087829365,0.12744108
1764512676.534837,-3.70818,1.43444,0.51884,0.973325145,0.087829365,0.12744108
1764512676.534837,-3.70818,1.43444,0.51884,0.973325145,0.087829365,0.12744108
1764512676.534837,-3.70818,1.43444,0.51884,0.973325145,0.087829365,0.12744108
1764512676.534837,-3.70818,1.43444,0.51884,0.973325145,0.087829365,0.12744108
1764512676.534837,-3.70818,1.43444,0.51884,0.973325145,0.087829365,0.12744108
1764512676.534837,-3.70818,1.43444,0.51884,0.973325145,0.087829365,0.12744108
1764512676.534837,-3.70818,1.43444,0.51884,0.973325145,0.087829365,0.12744108
1764512676.534837,-4.01338,2.10588,0.41202,0.971860305,0.088195575,0.127624185
1764512676.534837,-4.01338,2.10588,0.41202,0.971860305,0.088195575,0.127624185
1764512676.5786583,-4.01338,2.10588,0.41202,0.971860305,0.088195575,0.127624185
1764512676.5786583,-4.01338,2.10588,0.41202,0.971860305,0.088195575,0.127624185
1764512676.5786583,-4.01338,2.10588,0.41202,0.971860305,0.088195575,0.127624185
1764512676.5786583,-4.01338,2.10588,0.41202,0.971860305,0.088195575,0.127624185
1764512676.5786583,-4.01338,2.10588,0.41202,0.971860305,0.088195575,0.127624185
1764512676.5786583,-4.01338,2.10588,0.41202,0.971860305,0.088195575,0.127624185
1764512676.5786583,-4.01338,2.10588,0.41202,0.971860305,0.088195575,0.127624185
1764512676.5786583,-4.01338,2.10588,0.41202,0.971860305,0.088195575,0.127624185
1764512676.5786583,-4.10494,1.25132,0.2289,0.96850338,0.088439715,0.12646452
1764512676.5786583,-4.10494,1.25132,0.2289,0.96850338,0.088439715,0.12646452
1764512676.5796735,-4.10494,1.25132,0.2289,0.96850338,0.088439715,0.12646452
1764512676.5796735,-4.10494,1.25132,0.2289,0.96850338,0.088439715,0.12646452
1764512676.5796735,-4.10494,1.25132,0.2289,0.96850338,0.088439715,0.12646452
1764512676.5796735,-4.10494,1.25132,0.2289,0.96850338,0.088439715,0.12646452
1764512676.5796735,-4.10494,1.25132,0.2289,0.96850338,0.088439715,0.12646452
1764512676.5796735,-4.10494,1.25132,0.2289,0.96850338,0.088439715,0.12646452
1764512676.5796735,-4.10494,1.25132,0.2289,0.96850338,0.088439715,0.12646452
1764512676.5796735,-4.10494,1.25132,0.2289,0.96850338,0.088439715,0.12646452
1764512676.5796735,-3.60136,0.82404,0.0,0.96703854,0.088317645,0.127013835
1764512676.5796735,-3.60136,0.82404,0.0,0.96703854,0.088317645,0.127013835
1764512676.5796735,-3.60136,0.82404,0.0,0.96703854,0.088317645,0.127013835
1764512676.5796735,-3.60136,0.82404,0.0,0.96703854,0.088317645,0.127013835
1764512676.6271217,-3.60136,0.82404,0.0,0.96703854,0.088317645,0.127013835
1764512676.6271217,-3.60136,0.82404,0.0,0.96703854,0.088317645,0.127013835
1764512676.6271217,-3.60136,0.82404,0.0,0.96703854,0.088317645,0.127013835
1764512676.6271217,-3.60136,0.82404,0.0,0.96703854,0.088317645,0.127013835
1764512676.6271217,-3.60136,0.82404,0.0,0.96703854,0.088317645,0.127013835
1764512676.6271217,-3.60136,0.82404,0.0,0.96703854,0.088317645,0.127013835
1764512676.6271217,-3.6624,0.28994,0.21364,0.96728268,0.088439715,0.127624185
1764512676.6271217,-3.6624,0.28994,0.21364,0.96728268,0.088439715,0.127624185
1764512676.6271217,-3.6624,0.28994,0.21364,0.96728268,0.088439715,0.127624185
1764512676.6271217,-3.6624,0.28994,0.21364,0.96728268,0.088439715,0.127624185
1764512676.6271217,-3.6624,0.28994,0.21364,0.96728268,0.088439715,0.127624185
1764512676.6271217,-3.6624,0.28994,0.21364,0.96728268,0.088439715,0.127624185
1764512676.6271217,-3.6624,0.28994,0.21364,0.96728268,0.088439715,0.127624185
1764512676.6271217,-3.6624,0.28994,0.21364,0.96728268,0.088439715,0.127624185
1764512676.6271217,-3.6624,0.28994,0.21364,0.96728268,0.088439715,0.127624185
1764512676.6271217,-3.6624,0.28994,0.21364,0.96728268,0.088439715,0.127624185
1764512676.6271217,-3.78448,0.24416,0.03052,0.9680151,0.088683855,0.12731901
1764512676.628138,-3.78448,0.24416,0.03052,0.9680151,0.088683855,0.12731901
1764512676.628138,-3.78448,0.24416,0.03052,0.9680151,0.088683855,0.12731901
1764512676.628138,-3.78448,0.24416,0.03052,0.9680151,0.088683855,0.12731901
1764512676.628138,-3.78448,0.24416,0.03052,0.9680151,0.088683855,0.12731901
1764512676.628138,-3.78448,0.24416,0.03052,0.9680151,0.088683855,0.12731901
1764512676.628138,-3.78448,0.24416,0.03052,0.9680151,0.088683855,0.12731901
1764512676.628138,-3.78448,0.24416,0.03052,0.9680151,0.088683855,0.12731901
1764512676.672585,-3.78448,0.24416,0.03052,0.9680151,0.088683855,0.12731901
1764512676.6735826,-3.78448,0.24416,0.03052,0.9680151,0.088683855,0.12731901
1764512676.6735826,-4.2728,0.1678599999999999,-0.01526,0.96899166,0.08972145,0.12658659
1764512676.6735826,-4.2728,0.1678599999999999,-0.01526,0.96899166,0.08972145,0.12658659
1764512676.6735826,-4.2728,0.1678599999999999,-0.01526,0.96899166,0.08972145,0.12658659
1764512676.6735826,-4.2728,0.1678599999999999,-0.01526,0.96899166,0.08972145,0.12658659
1764512676.6735826,-4.2728,0.1678599999999999,-0.01526,0.96899166,0.08972145,0.12658659
1764512676.6735826,-4.2728,0.1678599999999999,-0.01526,0.96899166,0.08972145,0.12658659
1764512676.6735826,-4.2728,0.1678599999999999,-0.01526,0.96899166,0.08972145,0.12658659
1764512676.6735826,-4.2728,0.1678599999999999,-0.01526,0.96899166,0.08972145,0.12658659
1764512676.6735826,-4.2728,0.1678599999999999,-0.01526,0.96899166,0.08972145,0.12658659
1764512676.6735826,-4.2728,0.1678599999999999,-0.01526,0.96899166,0.08972145,0.12658659
1764512676.6735826,-4.7306,0.3509799999999999,-0.3357199999999999,0.97009029,0.0903318,0.125915205
1764512676.6735826,-4.7306,0.3509799999999999,-0.3357199999999999,0.97009029,0.0903318,0.125915205
1764512676.6735826,-4.7306,0.3509799999999999,-0.3357199999999999,0.97009029,0.0903318,0.125915205
1764512676.6735826,-4.7306,0.3509799999999999,-0.3357199999999999,0.97009029,0.0903318,0.125915205
1764512676.6735826,-4.7306,0.3509799999999999,-0.3357199999999999,0.97009029,0.0903318,0.125915205
1764512676.6745791,-4.7306,0.3509799999999999,-0.3357199999999999,0.97009029,0.0903318,0.125915205
1764512676.6745791,-4.7306,0.3509799999999999,-0.3357199999999999,0.97009029,0.0903318,0.125915205
1764512676.6745791,-4.7306,0.3509799999999999,-0.3357199999999999,0.97009029,0.0903318,0.125915205
1764512676.6745791,-4.7306,0.3509799999999999,-0.3357199999999999,0.97009029,0.0903318,0.125915205
1764512676.6745791,-4.7306,0.3509799999999999,-0.3357199999999999,0.97009029,0.0903318,0.125915205
1764512676.6745791,-4.59326,1.43444,-0.27468,0.971738235,0.090026625,0.125915205
1764512676.6745791,-4.59326,1.43444,-0.27468,0.971738235,0.090026625,0.125915205
1764512676.7204392,-4.59326,1.43444,-0.27468,0.971738235,0.090026625,0.125915205
1764512676.7204392,-4.59326,1.43444,-0.27468,0.971738235,0.090026625,0.125915205
1764512676.7204392,-4.59326,1.43444,-0.27468,0.971738235,0.090026625,0.125915205
1764512676.7204392,-4.59326,1.43444,-0.27468,0.971738235,0.090026625,0.125915205
1764512676.7204392,-4.59326,1.43444,-0.27468,0.971738235,0.090026625,0.125915205
1764512676.7204392,-4.59326,1.43444,-0.27468,0.971738235,0.090026625,0.125915205
1764512676.7204392,-4.59326,1.43444,-0.27468,0.971738235,0.090026625,0.125915205
1764512676.7204392,-4.59326,1.43444,-0.27468,0.971738235,0.090026625,0.125915205
1764512676.7204392,-4.440659999999999,2.09062,-0.7019599999999999,0.971249955,0.089660415,0.12609831
1764512676.7204392,-4.440659999999999,2.09062,-0.7019599999999999,0.971249955,0.089660415,0.12609831
1764512676.7204392,-4.440659999999999,2.09062,-0.7019599999999999,0.971249955,0.089660415,0.12609831
1764512676.7204392,-4.440659999999999,2.09062,-0.7019599999999999,0.971249955,0.089660415,0.12609831
1764512676.7204392,-4.440659999999999,2.09062,-0.7019599999999999,0.971249955,0.089660415,0.12609831
1764512676.7204392,-4.440659999999999,2.09062,-0.7019599999999999,0.971249955,0.089660415,0.12609831
1764512676.7204392,-4.440659999999999,2.09062,-0.7019599999999999,0.971249955,0.089660415,0.12609831
1764512676.7204392,-4.440659999999999,2.09062,-0.7019599999999999,0.971249955,0.089660415,0.12609831
1764512676.721447,-4.440659999999999,2.09062,-0.7019599999999999,0.971249955,0.089660415,0.12609831
1764512676.721447,-4.440659999999999,2.09062,-0.7019599999999999,0.971249955,0.089660415,0.12609831
1764512676.721447,-3.93708,1.7549,-0.54936,0.9704565,0.08886696,0.126159345
1764512676.721447,-3.93708,1.7549,-0.54936,0.9704565,0.08886696,0.126159345
1764512676.721447,-3.93708,1.7549,-0.54936,0.9704565,0.08886696,0.126159345
1764512676.721447,-3.93708,1.7549,-0.54936,0.9704565,0.08886696,0.126159345
1764512676.7676816,-3.93708,1.7549,-0.54936,0.9704565,0.08886696,0.126159345
1764512676.7676816,-3.93708,1.7549,-0.54936,0.9704565,0.08886696,0.126159345
1764512676.7676816,-3.93708,1.7549,-0.54936,0.9704565,0.08886696,0.126159345
1764512676.7676816,-3.93708,1.7549,-0.54936,0.9704565,0.08886696,0.126159345
1764512676.7676816,-3.93708,1.7549,-0.54936,0.9704565,0.08886696,0.126159345
1764512676.7676816,-3.93708,1.7549,-0.54936,0.9704565,0.08886696,0.126159345
1764512676.7676816,-3.052,1.48022,0.13734,0.968808555,0.08874489,0.12670866
1764512676.7676816,-3.052,1.48022,0.13734,0.968808555,0.08874489,0.12670866
1764512676.7676816,-3.052,1.48022,0.13734,0.968808555,0.08874489,0.12670866
1764512676.7676816,-3.052,1.48022,0.13734,0.968808555,0.08874489,0.12670866
1764512676.7676816,-3.052,1.48022,0.13734,0.968808555,0.08874489,0.12670866
1764512676.7676816,-3.052,1.48022,0.13734,0.968808555,0.08874489,0.12670866
1764512676.7676816,-3.052,1.48022,0.13734,0.968808555,0.08874489,0.12670866
1764512676.7676816,-3.052,1.48022,0.13734,0.968808555,0.08874489,0.12670866
1764512676.7676816,-3.052,1.48022,0.13734,0.968808555,0.08874489,0.12670866
1764512676.7676816,-3.052,1.48022,0.13734,0.968808555,0.08874489,0.12670866
1764512676.768692,-3.052,0.94612,0.21364,0.968930625,0.08886696,0.12658659
1764512676.768692,-3.052,0.94612,0.21364,0.968930625,0.08886696,0.12658659
1764512676.768692,-3.052,0.94612,0.21364,0.968930625,0.08886696,0.12658659
1764512676.768692,-3.052,0.94612,0.21364,0.968930625,0.08886696,0.12658659
1764512676.768692,-3.052,0.94612,0.21364,0.968930625,0.08886696,0.12658659
1764512676.768692,-3.052,0.94612,0.21364,0.968930625,0.08886696,0.12658659
1764512676.768692,-3.052,0.94612,0.21364,0.968930625,0.08886696,0.12658659
1764512676.768692,-3.052,0.94612,0.21364,0.968930625,0.08886696,0.12658659
1764512676.8150325,-3.052,0.94612,0.21364,0.968930625,0.08886696,0.12658659
1764512676.8150325,-3.052,0.94612,0.21364,0.968930625,0.08886696,0.12658659
1764512676.8150325,-3.18934,0.9003399999999999,0.3051999999999999,0.969296835,0.089782485,0.12683073
1764512676.8150325,-3.18934,0.9003399999999999,0.3051999999999999,0.969296835,0.089782485,0.12683073
1764512676.8150325,-3.18934,0.9003399999999999,0.3051999999999999,0.969296835,0.089782485,0.12683073
1764512676.8150325,-3.18934,0.9003399999999999,0.3051999999999999,0.969296835,0.089782485,0.12683073
1764512676.8150325,-3.18934,0.9003399999999999,0.3051999999999999,0.969296835,0.089782485,0.12683073
1764512676.8150325,-3.18934,0.9003399999999999,0.3051999999999999,0.969296835,0.089782485,0.12683073
1764512676.8150325,-3.18934,0.9003399999999999,0.3051999999999999,0.969296835,0.089782485,0.12683073
1764512676.8150325,-3.18934,0.9003399999999999,0.3051999999999999,0.969296835,0.089782485,0.12683073
1764512676.8150325,-3.18934,0.9003399999999999,0.3051999999999999,0.969296835,0.089782485,0.12683073
1764512676.8150325,-3.18934,0.9003399999999999,0.3051999999999999,0.969296835,0.089782485,0.12683073
1764512676.8160474,-3.72344,1.09872,-0.0762999999999999,0.96960201,0.091613535,0.126647625
1764512676.8160474,-3.72344,1.09872,-0.0762999999999999,0.96960201,0.091613535,0.126647625
1764512676.8160474,-3.72344,1.09872,-0.0762999999999999,0.96960201,0.091613535,0.126647625
1764512676.8160474,-3.72344,1.09872,-0.0762999999999999,0.96960201,0.091613535,0.126647625
1764512676.8160474,-3.72344,1.09872,-0.0762999999999999,0.96960201,0.091613535,0.126647625
1764512676.8160474,-3.72344,1.09872,-0.0762999999999999,0.96960201,0.091613535,0.126647625
1764512676.8160474,-3.72344,1.09872,-0.0762999999999999,0.96960201,0.091613535,0.126647625
1764512676.8160474,-3.72344,1.09872,-0.0762999999999999,0.96960201,0.091613535,0.126647625
1764512676.8160474,-3.72344,1.09872,-0.0762999999999999,0.96960201,0.091613535,0.126647625
1764512676.8160474,-3.72344,1.09872,-0.0762999999999999,0.96960201,0.091613535,0.126647625
1764512676.8160474,-4.25754,1.12924,-0.79352,0.97021236,0.09252906,0.126891765
1764512676.8160474,-4.25754,1.12924,-0.79352,0.97021236,0.09252906,0.126891765
1764512676.859909,-4.25754,1.12924,-0.79352,0.97021236,0.09252906,0.126891765
1764512676.859909,-4.25754,1.12924,-0.79352,0.97021236,0.09252906,0.126891765
1764512676.859909,-4.25754,1.12924,-0.79352,0.97021236,0.09252906,0.126891765
1764512676.859909,-4.25754,1.12924,-0.79352,0.97021236,0.09252906,0.126891765
1764512676.859909,-4.25754,1.12924,-0.79352,0.97021236,0.09252906,0.126891765
1764512676.859909,-4.25754,1.12924,-0.79352,0.97021236,0.09252906,0.126891765
1764512676.859909,-4.25754,1.12924,-0.79352,0.97021236,0.09252906,0.126891765
1764512676.859909,-4.25754,1.12924,-0.79352,0.97021236,0.09252906,0.126891765
1764512676.859909,-4.53222,1.2055399999999998,-0.6867,0.97033443,0.09265113,0.12670866
1764512676.859909,-4.53222,1.2055399999999998,-0.6867,0.97033443,0.09265113,0.12670866
1764512676.859909,-4.53222,1.2055399999999998,-0.6867,0.97033443,0.09265113,0.12670866
1764512676.860929,-4.53222,1.2055399999999998,-0.6867,0.97033443,0.09265113,0.12670866
1764512676.860929,-4.53222,1.2055399999999998,-0.6867,0.97033443,0.09265113,0.12670866
1764512676.860929,-4.53222,1.2055399999999998,-0.6867,0.97033443,0.09265113,0.12670866
1764512676.860929,-4.53222,1.2055399999999998,-0.6867,0.97033443,0.09265113,0.12670866
1764512676.860929,-4.53222,1.2055399999999998,-0.6867,0.97033443,0.09265113,0.12670866
1764512676.860929,-4.53222,1.2055399999999998,-0.6867,0.97033443,0.09265113,0.12670866
1764512676.860929,-4.53222,1.2055399999999998,-0.6867,0.97033443,0.09265113,0.12670866
1764512676.860929,-4.39488,0.94612,-0.28994,0.969663045,0.09191871,0.12744108
1764512676.860929,-4.39488,0.94612,-0.28994,0.969663045,0.09191871,0.12744108
1764512676.860929,-4.39488,0.94612,-0.28994,0.969663045,0.09191871,0.12744108
1764512676.860929,-4.39488,0.94612,-0.28994,0.969663045,0.09191871,0.12744108
1764512676.9073467,-4.39488,0.94612,-0.28994,0.969663045,0.09191871,0.12744108
1764512676.9073467,-4.39488,0.94612,-0.28994,0.969663045,0.09191871,0.12744108
1764512676.9073467,-4.39488,0.94612,-0.28994,0.969663045,0.09191871,0.12744108
1764512676.9073467,-4.39488,0.94612,-0.28994,0.969663045,0.09191871,0.12744108
1764512676.9073467,-4.39488,0.94612,-0.28994,0.969663045,0.09191871,0.12744108
1764512676.9073467,-4.39488,0.94612,-0.28994,0.969663045,0.09191871,0.12744108
1764512676.9073467,-4.13546,0.77826,0.04578,0.96911373,0.091613535,0.127013835
1764512676.9073467,-4.13546,0.77826,0.04578,0.96911373,0.091613535,0.127013835
1764512676.9073467,-4.13546,0.77826,0.04578,0.96911373,0.091613535,0.127013835
1764512676.9073467,-4.13546,0.77826,0.04578,0.96911373,0.091613535,0.127013835
1764512676.9073467,-4.13546,0.77826,0.04578,0.96911373,0.091613535,0.127013835
1764512676.9073467,-4.13546,0.77826,0.04578,0.96911373,0.091613535,0.127013835
1764512676.9073467,-4.13546,0.77826,0.04578,0.96911373,0.091613535,0.127013835
1764512676.9073467,-4.13546,0.77826,0.04578,0.96911373,0.091613535,0.127013835
1764512676.9073467,-4.13546,0.77826,0.04578,0.96911373,0.091613535,0.127013835
1764512676.9073467,-4.13546,0.77826,0.04578,0.96911373,0.091613535,0.127013835
1764512676.9073467,-3.9676,1.02242,0.3815,0.970395465,0.09179664,0.127013835
1764512676.9073467,-3.9676,1.02242,0.3815,0.970395465,0.09179664,0.127013835
1764512676.9073467,-3.9676,1.02242,0.3815,0.970395465,0.09179664,0.127013835
1764512676.9073467,-3.9676,1.02242,0.3815,0.970395465,0.09179664,0.127013835
1764512676.9073467,-3.9676,1.02242,0.3815,0.970395465,0.09179664,0.127013835
1764512676.9073467,-3.9676,1.02242,0.3815,0.970395465,0.09179664,0.127013835
1764512676.9073467,-3.9676,1.02242,0.3815,0.970395465,0.09179664,0.127013835
1764512676.9073467,-3.9676,1.02242,0.3815,0.970395465,0.09179664,0.127013835
1764512676.9073467,-3.9676,1.02242,0.3815,0.970395465,0.09179664,0.127013835
1764512676.9073467,-3.9676,1.02242,0.3815,0.970395465,0.09179664,0.127013835
1764512676.9546547,-3.55558,1.25132,1.08346,0.970761675,0.09008766,0.12719694
1764512676.9546547,-3.55558,1.25132,1.08346,0.970761675,0.09008766,0.12719694
1764512676.9546547,-3.55558,1.25132,1.08346,0.970761675,0.09008766,0.12719694
1764512676.9546547,-3.55558,1.25132,1.08346,0.970761675,0.09008766,0.12719694
1764512676.9546547,-3.55558,1.25132,1.08346,0.970761675,0.09008766,0.12719694
1764512676.9546547,-3.55558,1.25132,1.08346,0.970761675,0.09008766,0.12719694
1764512676.9546547,-3.55558,1.25132,1.08346,0.970761675,0.09008766,0.12719694
1764512676.9546547,-3.55558,1.25132,1.08346,0.970761675,0.09008766,0.12719694
1764512676.9556792,-3.55558,1.25132,1.08346,0.970761675,0.09008766,0.12719694
1764512676.9556792,-3.55558,1.25132,1.08346,0.970761675,0.09008766,0.12719694
1764512676.9556792,-3.17408,1.12924,1.08346,0.96947994,0.09069801,0.127013835
1764512676.9556792,-3.17408,1.12924,1.08346,0.96947994,0.09069801,0.127013835
1764512676.9556792,-3.17408,1.12924,1.08346,0.96947994,0.09069801,0.127013835
1764512676.9556792,-3.17408,1.12924,1.08346,0.96947994,0.09069801,0.127013835
1764512676.9556792,-3.17408,1.12924,1.08346,0.96947994,0.09069801,0.127013835
1764512676.9556792,-3.17408,1.12924,1.08346,0.96947994,0.09069801,0.127013835
1764512676.9556792,-3.17408,1.12924,1.08346,0.96947994,0.09069801,0.127013835
1764512676.9556792,-3.17408,1.12924,1.08346,0.96947994,0.09069801,0.127013835
1764512676.9556792,-3.17408,1.12924,1.08346,0.96947994,0.09069801,0.127013835
1764512676.9556792,-3.17408,1.12924,1.08346,0.96947994,0.09069801,0.127013835
1764512676.9556792,-3.06726,0.62566,0.48832,0.96911373,0.091003185,0.127380045
1764512676.9556792,-3.06726,0.62566,0.48832,0.96911373,0.091003185,0.127380045
1764512676.9998534,-3.06726,0.62566,0.48832,0.96911373,0.091003185,0.127380045
1764512676.9998534,-3.06726,0.62566,0.48832,0.96911373,0.091003185,0.127380045
1764512676.9998534,-3.06726,0.62566,0.48832,0.96911373,0.091003185,0.127380045
1764512676.9998534,-3.06726,0.62566,0.48832,0.96911373,0.091003185,0.127380045
1764512676.9998534,-3.06726,0.62566,0.48832,0.96911373,0.091003185,0.127380045
1764512676.9998534,-3.06726,0.62566,0.48832,0.96911373,0.091003185,0.127380045
1764512676.9998534,-3.06726,0.62566,0.48832,0.96911373,0.091003185,0.127380045
1764512676.9998534,-3.06726,0.62566,0.48832,0.96911373,0.091003185,0.127380045
1764512676.9998534,-3.52506,0.82404,-0.1525999999999999,0.969540975,0.090514905,0.1269528
1764512676.9998534,-3.52506,0.82404,-0.1525999999999999,0.969540975,0.090514905,0.1269528
1764512676.9998534,-3.52506,0.82404,-0.1525999999999999,0.969540975,0.090514905,0.1269528
1764512676.9998534,-3.52506,0.82404,-0.1525999999999999,0.969540975,0.090514905,0.1269528
1764512676.9998534,-3.52506,0.82404,-0.1525999999999999,0.969540975,0.090514905,0.1269528
1764512677.0008848,-3.52506,0.82404,-0.1525999999999999,0.969540975,0.090514905,0.1269528
1764512677.0008848,-3.52506,0.82404,-0.1525999999999999,0.969540975,0.090514905,0.1269528
1764512677.0008848,-3.52506,0.82404,-0.1525999999999999,0.969540975,0.090514905,0.1269528
1764512677.0008848,-3.52506,0.82404,-0.1525999999999999,0.969540975,0.090514905,0.1269528
1764512677.0008848,-3.52506,0.82404,-0.1525999999999999,0.969540975,0.090514905,0.1269528
1764512677.0008848,-3.7387,0.24416,-0.79352,0.97033443,0.092223885,0.125915205
1764512677.0008848,-3.7387,0.24416,-0.79352,0.97033443,0.092223885,0.125915205
1764512677.0008848,-3.7387,0.24416,-0.79352,0.97033443,0.092223885,0.125915205
1764512677.0008848,-3.7387,0.24416,-0.79352,0.97033443,0.092223885,0.125915205
1764512677.0479095,-3.7387,0.24416,-0.79352,0.97033443,0.092223885,0.125915205
1764512677.0479095,-3.7387,0.24416,-0.79352,0.97033443,0.092223885,0.125915205
1764512677.0479095,-3.7387,0.24416,-0.79352,0.97033443,0.092223885,0.125915205
1764512677.0479095,-3.7387,0.24416,-0.79352,0.97033443,0.092223885,0.125915205
1764512677.0479095,-3.7387,0.24416,-0.79352,0.97033443,0.092223885,0.125915205
1764512677.0479095,-3.7387,0.24416,-0.79352,0.97033443,0.092223885,0.125915205
1764512677.0489235,-4.3491,0.7019599999999999,-0.6103999999999999,0.97179927,0.09350562,0.125915205
1764512677.0489235,-4.3491,0.7019599999999999,-0.6103999999999999,0.97179927,0.09350562,0.125915205
1764512677.0489235,-4.3491,0.7019599999999999,-0.6103999999999999,0.97179927,0.09350562,0.125915205
1764512677.0489235,-4.3491,0.7019599999999999,-0.6103999999999999,0.97179927,0.09350562,0.125915205
1764512677.0489235,-4.3491,0.7019599999999999,-0.6103999999999999,0.97179927,0.09350562,0.125915205
1764512677.0489235,-4.3491,0.7019599999999999,-0.6103999999999999,0.97179927,0.09350562,0.125915205
1764512677.0489235,-4.3491,0.7019599999999999,-0.6103999999999999,0.97179927,0.09350562,0.125915205
1764512677.0489235,-4.3491,0.7019599999999999,-0.6103999999999999,0.97179927,0.09350562,0.125915205
1764512677.0489235,-4.3491,0.7019599999999999,-0.6103999999999999,0.97179927,0.09350562,0.125915205
1764512677.0489235,-4.3491,0.7019599999999999,-0.6103999999999999,0.97179927,0.09350562,0.125915205
1764512677.0489235,-3.9676,1.35814,0.09156,0.971860305,0.093322515,0.1257321
1764512677.0489235,-3.9676,1.35814,0.09156,0.971860305,0.093322515,0.1257321
1764512677.0489235,-3.9676,1.35814,0.09156,0.971860305,0.093322515,0.1257321
1764512677.0489235,-3.9676,1.35814,0.09156,0.971860305,0.093322515,0.1257321
1764512677.0489235,-3.9676,1.35814,0.09156,0.971860305,0.093322515,0.1257321
1764512677.0489235,-3.9676,1.35814,0.09156,0.971860305,0.093322515,0.1257321
1764512677.0489235,-3.9676,1.35814,0.09156,0.971860305,0.093322515,0.1257321
1764512677.0489235,-3.9676,1.35814,0.09156,0.971860305,0.093322515,0.1257321
1764512677.0923483,-3.9676,1.35814,0.09156,0.971860305,0.093322515,0.1257321
1764512677.0923483,-3.9676,1.35814,0.09156,0.971860305,0.093322515,0.1257321
1764512677.0923483,-3.98286,1.78542,0.56462,0.96960201,0.093444585,0.1257321
1764512677.0923483,-3.98286,1.78542,0.56462,0.96960201,0.093444585,0.1257321
1764512677.0923483,-3.98286,1.78542,0.56462,0.96960201,0.093444585,0.1257321
1764512677.0923483,-3.98286,1.78542,0.56462,0.96960201,0.093444585,0.1257321
1764512677.0923483,-3.98286,1.78542,0.56462,0.96960201,0.093444585,0.1257321
1764512677.0923483,-3.98286,1.78542,0.56462,0.96960201,0.093444585,0.1257321
1764512677.0923483,-3.98286,1.78542,0.56462,0.96960201,0.093444585,0.1257321
1764512677.0923483,-3.98286,1.78542,0.56462,0.96960201,0.093444585,0.1257321
1764512677.0923483,-3.98286,1.78542,0.56462,0.96960201,0.093444585,0.1257321
1764512677.0923483,-3.98286,1.78542,0.56462,0.96960201,0.093444585,0.1257321
1764512677.0923483,-3.46402,1.2055399999999998,1.2208,0.967709925,0.092468025,0.125793135
1764512677.093367,-3.46402,1.2055399999999998,1.2208,0.967709925,0.092468025,0.125793135
1764512677.093367,-3.46402,1.2055399999999998,1.2208,0.967709925,0.092468025,0.125793135
1764512677.093367,-3.46402,1.2055399999999998,1.2208,0.967709925,0.092468025,0.125793135
1764512677.093367,-3.46402,1.2055399999999998,1.2208,0.967709925,0.092468025,0.125793135
1764512677.093367,-3.46402,1.2055399999999998,1.2208,0.967709925,0.092468025,0.125793135
1764512677.093367,-3.46402,1.2055399999999998,1.2208,0.967709925,0.092468025,0.125793135
1764512677.093367,-3.46402,1.2055399999999998,1.2208,0.967709925,0.092468025,0.125793135
1764512677.093367,-3.46402,1.2055399999999998,1.2208,0.967709925,0.092468025,0.125793135
1764512677.093367,-3.46402,1.2055399999999998,1.2208,0.967709925,0.092468025,0.125793135
1764512677.1400602,-2.62472,1.41918,1.2208,0.96764889,0.091735605,0.126281415
1764512677.1400602,-2.62472,1.41918,1.2208,0.96764889,0.091735605,0.126281415
1764512677.1400602,-2.62472,1.41918,1.2208,0.96764889,0.091735605,0.126281415
1764512677.1400602,-2.62472,1.41918,1.2208,0.96764889,0.091735605,0.126281415
1764512677.1400602,-2.62472,1.41918,1.2208,0.96764889,0.091735605,0.126281415
1764512677.1400602,-2.62472,1.41918,1.2208,0.96764889,0.091735605,0.126281415
1764512677.1400602,-2.62472,1.41918,1.2208,0.96764889,0.091735605,0.126281415
1764512677.1400602,-2.62472,1.41918,1.2208,0.96764889,0.091735605,0.126281415
1764512677.1400602,-2.62472,1.41918,1.2208,0.96764889,0.091735605,0.126281415
1764512677.1400602,-2.62472,1.41918,1.2208,0.96764889,0.091735605,0.126281415
1764512677.1400602,-2.16692,1.11398,1.55652,0.96911373,0.09106422,0.126281415
1764512677.1400602,-2.16692,1.11398,1.55652,0.96911373,0.09106422,0.126281415
1764512677.1400602,-2.16692,1.11398,1.55652,0.96911373,0.09106422,0.126281415
1764512677.1400602,-2.16692,1.11398,1.55652,0.96911373,0.09106422,0.126281415
1764512677.141074,-2.16692,1.11398,1.55652,0.96911373,0.09106422,0.126281415
1764512677.141074,-2.16692,1.11398,1.55652,0.96911373,0.09106422,0.126281415
1764512677.141074,-2.16692,1.11398,1.55652,0.96911373,0.09106422,0.126281415
1764512677.141074,-2.16692,1.11398,1.55652,0.96911373,0.09106422,0.126281415
1764512677.141074,-2.16692,1.11398,1.55652,0.96911373,0.09106422,0.126281415
1764512677.141074,-2.16692,1.11398,1.55652,0.96911373,0.09106422,0.126281415
1764512677.141074,-2.6705,1.2208,1.92276,0.970029255,0.09094215,0.12707487
1764512677.141074,-2.6705,1.2208,1.92276,0.970029255,0.09094215,0.12707487
1764512677.141074,-2.6705,1.2208,1.92276,0.970029255,0.09094215,0.12707487
1764512677.141074,-2.6705,1.2208,1.92276,0.970029255,0.09094215,0.12707487
1764512677.187235,-2.6705,1.2208,1.92276,0.970029255,0.09094215,0.12707487
1764512677.187745,-2.6705,1.2208,1.92276,0.970029255,0.09094215,0.12707487
1764512677.187745,-2.6705,1.2208,1.92276,0.970029255,0.09094215,0.12707487
1764512677.187745,-2.6705,1.2208,1.92276,0.970029255,0.09094215,0.12707487
1764512677.187745,-2.6705,1.2208,1.92276,0.970029255,0.09094215,0.12707487
1764512677.187745,-2.6705,1.2208,1.92276,0.970029255,0.09094215,0.12707487
1764512677.187745,-3.15882,1.02242,1.55652,0.969540975,0.092590095,0.126769695
1764512677.187745,-3.15882,1.02242,1.55652,0.969540975,0.092590095,0.126769695
1764512677.187745,-3.15882,1.02242,1.55652,0.969540975,0.092590095,0.126769695
1764512677.187745,-3.15882,1.02242,1.55652,0.969540975,0.092590095,0.126769695
1764512677.187745,-3.15882,1.02242,1.55652,0.969540975,0.092590095,0.126769695
1764512677.187745,-3.15882,1.02242,1.55652,0.969540975,0.092590095,0.126769695
1764512677.187745,-3.15882,1.02242,1.55652,0.969540975,0.092590095,0.126769695
1764512677.187745,-3.15882,1.02242,1.55652,0.969540975,0.092590095,0.126769695
1764512677.187745,-3.15882,1.02242,1.55652,0.969540975,0.092590095,0.126769695
1764512677.187745,-3.15882,1.02242,1.55652,0.969540975,0.092590095,0.126769695
1764512677.187745,-3.63188,1.12924,1.1445,0.96935787,0.09374976,0.12658659
1764512677.187745,-3.63188,1.12924,1.1445,0.96935787,0.09374976,0.12658659
1764512677.187745,-3.63188,1.12924,1.1445,0.96935787,0.09374976,0.12658659
1764512677.187745,-3.63188,1.12924,1.1445,0.96935787,0.09374976,0.12658659
1764512677.1886768,-3.63188,1.12924,1.1445,0.96935787,0.09374976,0.12658659
1764512677.1886768,-3.63188,1.12924,1.1445,0.96935787,0.09374976,0.12658659
1764512677.1886768,-3.63188,1.12924,1.1445,0.96935787,0.09374976,0.12658659
1764512677.1886768,-3.63188,1.12924,1.1445,0.96935787,0.09374976,0.12658659
1764512677.2369225,-3.63188,1.12924,1.1445,0.96935787,0.09374976,0.12658659
1764512677.2369225,-3.63188,1.12924,1.1445,0.96935787,0.09374976,0.12658659
1764512677.2369225,-4.36436,0.8087799999999999,0.74774,0.96960201,0.093688725,0.12597624
1764512677.2369225,-4.36436,0.8087799999999999,0.74774,0.96960201,0.093688725,0.12597624
1764512677.2369225,-4.36436,0.8087799999999999,0.74774,0.96960201,0.093688725,0.12597624
1764512677.2369225,-4.36436,0.8087799999999999,0.74774,0.96960201,0.093688725,0.12597624
1764512677.2369225,-4.36436,0.8087799999999999,0.74774,0.96960201,0.093688725,0.12597624
1764512677.2369225,-4.36436,0.8087799999999999,0.74774,0.96960201,0.093688725,0.12597624
1764512677.2369225,-4.36436,0.8087799999999999,0.74774,0.96960201,0.093688725,0.12597624
1764512677.2369225,-4.36436,0.8087799999999999,0.74774,0.96960201,0.093688725,0.12597624
1764512677.2369225,-4.36436,0.8087799999999999,0.74774,0.96960201,0.093688725,0.12597624
1764512677.2374315,-4.36436,0.8087799999999999,0.74774,0.96960201,0.093688725,0.12597624
1764512677.2374315,-4.41014,1.38866,0.9003399999999999,0.969540975,0.09240699,0.12646452
1764512677.2374315,-4.41014,1.38866,0.9003399999999999,0.969540975,0.09240699,0.12646452
1764512677.2374315,-4.41014,1.38866,0.9003399999999999,0.969540975,0.09240699,0.12646452
1764512677.2374315,-4.41014,1.38866,0.9003399999999999,0.969540975,0.09240699,0.12646452
1764512677.2374315,-4.41014,1.38866,0.9003399999999999,0.969540975,0.09240699,0.12646452
1764512677.2374315,-4.41014,1.38866,0.9003399999999999,0.969540975,0.09240699,0.12646452
1764512677.2374315,-4.41014,1.38866,0.9003399999999999,0.969540975,0.09240699,0.12646452
1764512677.2374315,-4.41014,1.38866,0.9003399999999999,0.969540975,0.09240699,0.12646452
1764512677.2374315,-4.41014,1.38866,0.9003399999999999,0.969540975,0.09240699,0.12646452
1764512677.2374315,-4.41014,1.38866,0.9003399999999999,0.969540975,0.09240699,0.12646452
1764512677.2374315,-4.22702,1.69386,1.02242,0.969052695,0.089904555,0.12707487
1764512677.2374315,-4.22702,1.69386,1.02242,0.969052695,0.089904555,0.12707487
1764512677.2802734,-4.22702,1.69386,1.02242,0.969052695,0.089904555,0.12707487
1764512677.280784,-4.22702,1.69386,1.02242,0.969052695,0.089904555,0.12707487
1764512677.280784,-4.22702,1.69386,1.02242,0.969052695,0.089904555,0.12707487
1764512677.280784,-4.22702,1.69386,1.02242,0.969052695,0.089904555,0.12707487
1764512677.280784,-4.22702,1.69386,1.02242,0.969052695,0.089904555,0.12707487
1764512677.280784,-4.22702,1.69386,1.02242,0.969052695,0.089904555,0.12707487
1764512677.280784,-4.22702,1.69386,1.02242,0.969052695,0.089904555,0.12707487
1764512677.280784,-4.22702,1.69386,1.02242,0.969052695,0.089904555,0.12707487
1764512677.280784,-3.87604,0.74774,0.1678599999999999,0.96825924,0.08935524,0.12609831
1764512677.280784,-3.87604,0.74774,0.1678599999999999,0.96825924,0.08935524,0.12609831
1764512677.280784,-3.87604,0.74774,0.1678599999999999,0.96825924,0.08935524,0.12609831
1764512677.280784,-3.87604,0.74774,0.1678599999999999,0.96825924,0.08935524,0.12609831
1764512677.280784,-3.87604,0.74774,0.1678599999999999,0.96825924,0.08935524,0.12609831
1764512677.280784,-3.87604,0.74774,0.1678599999999999,0.96825924,0.08935524,0.12609831
1764512677.280784,-3.87604,0.74774,0.1678599999999999,0.96825924,0.08935524,0.12609831
1764512677.280784,-3.87604,0.74774,0.1678599999999999,0.96825924,0.08935524,0.12609831
1764512677.280784,-3.87604,0.74774,0.1678599999999999,0.96825924,0.08935524,0.12609831
1764512677.280784,-3.87604,0.74774,0.1678599999999999,0.96825924,0.08935524,0.12609831
1764512677.280784,-3.15882,1.08346,0.6409199999999999,0.96996822,0.08862282,0.126037275
1764512677.280784,-3.15882,1.08346,0.6409199999999999,0.96996822,0.08862282,0.126037275
1764512677.280784,-3.15882,1.08346,0.6409199999999999,0.96996822,0.08862282,0.126037275
1764512677.280784,-3.15882,1.08346,0.6409199999999999,0.96996822,0.08862282,0.126037275
1764512677.2817972,-3.15882,1.08346,0.6409199999999999,0.96996822,0.08862282,0.126037275
1764512677.2817972,-3.15882,1.08346,0.6409199999999999,0.96996822,0.08862282,0.126037275
1764512677.3281622,-3.15882,1.08346,0.6409199999999999,0.96996822,0.08862282,0.126037275
1764512677.3281622,-3.15882,1.08346,0.6409199999999999,0.96996822,0.08862282,0.126037275
1764512677.3281622,-3.15882,1.08346,0.6409199999999999,0.96996822,0.08862282,0.126037275
1764512677.3281622,-3.15882,1.08346,0.6409199999999999,0.96996822,0.08862282,0.126037275
1764512677.3281622,-3.2046,1.57178,0.3815,0.97094478,0.08947731,0.126281415
1764512677.3281622,-3.2046,1.57178,0.3815,0.97094478,0.08947731,0.126281415
1764512677.3281622,-3.2046,1.57178,0.3815,0.97094478,0.08947731,0.126281415
1764512677.3281622,-3.2046,1.57178,0.3815,0.97094478,0.08947731,0.126281415
1764512677.3291793,-3.2046,1.57178,0.3815,0.97094478,0.08947731,0.126281415
1764512677.3291793,-3.2046,1.57178,0.3815,0.97094478,0.08947731,0.126281415
1764512677.3291793,-3.2046,1.57178,0.3815,0.97094478,0.08947731,0.126281415
1764512677.3291793,-3.2046,1.57178,0.3815,0.97094478,0.08947731,0.126281415
1764512677.3291793,-3.2046,1.57178,0.3815,0.97094478,0.08947731,0.126281415
1764512677.3291793,-3.2046,1.57178,0.3815,0.97094478,0.08947731,0.126281415
1764512677.3291793,-3.18934,1.70912,0.48832,0.97009029,0.0903318,0.126281415
1764512677.3291793,-3.18934,1.70912,0.48832,0.97009029,0.0903318,0.126281415
1764512677.3291793,-3.18934,1.70912,0.48832,0.97009029,0.0903318,0.126281415
1764512677.3291793,-3.18934,1.70912,0.48832,0.97009029,0.0903318,0.126281415
1764512677.3291793,-3.18934,1.70912,0.48832,0.97009029,0.0903318,0.126281415
1764512677.3291793,-3.18934,1.70912,0.48832,0.97009029,0.0903318,0.126281415
1764512677.3291793,-3.18934,1.70912,0.48832,0.97009029,0.0903318,0.126281415
1764512677.3291793,-3.18934,1.70912,0.48832,0.97009029,0.0903318,0.126281415
1764512677.3758333,-3.18934,1.70912,0.48832,0.97009029,0.0903318,0.126281415
1764512677.3758333,-3.18934,1.70912,0.48832,0.97009029,0.0903318,0.126281415
1764512677.3773746,-3.55558,1.15976,0.6714399999999999,0.96838131,0.091247325,0.126891765
1764512677.3773746,-3.55558,1.15976,0.6714399999999999,0.96838131,0.091247325,0.126891765
1764512677.3773746,-3.55558,1.15976,0.6714399999999999,0.96838131,0.091247325,0.126891765
1764512677.3773746,-3.55558,1.15976,0.6714399999999999,0.96838131,0.091247325,0.126891765
1764512677.3773746,-3.55558,1.15976,0.6714399999999999,0.96838131,0.091247325,0.126891765
1764512677.3773746,-3.55558,1.15976,0.6714399999999999,0.96838131,0.091247325,0.126891765
1764512677.3773746,-3.55558,1.15976,0.6714399999999999,0.96838131,0.091247325,0.126891765
1764512677.3773746,-3.55558,1.15976,0.6714399999999999,0.96838131,0.091247325,0.126891765
1764512677.3773746,-3.55558,1.15976,0.6714399999999999,0.96838131,0.091247325,0.126891765
1764512677.3773746,-3.55558,1.15976,0.6714399999999999,0.96838131,0.091247325,0.126891765
1764512677.3773746,-3.67766,0.8087799999999999,0.3509799999999999,0.967587855,0.09240699,0.12731901
1764512677.3773746,-3.67766,0.8087799999999999,0.3509799999999999,0.967587855,0.09240699,0.12731901
1764512677.3773746,-3.67766,0.8087799999999999,0.3509799999999999,0.967587855,0.09240699,0.12731901
1764512677.3773746,-3.67766,0.8087799999999999,0.3509799999999999,0.967587855,0.09240699,0.12731901
1764512677.3773746,-3.67766,0.8087799999999999,0.3509799999999999,0.967587855,0.09240699,0.12731901
1764512677.3773746,-3.67766,0.8087799999999999,0.3509799999999999,0.967587855,0.09240699,0.12731901
1764512677.3773746,-3.67766,0.8087799999999999,0.3509799999999999,0.967587855,0.09240699,0.12731901
1764512677.3773746,-3.67766,0.8087799999999999,0.3509799999999999,0.967587855,0.09240699,0.12731901
1764512677.3773746,-3.67766,0.8087799999999999,0.3509799999999999,0.967587855,0.09240699,0.12731901
1764512677.3773746,-3.67766,0.8087799999999999,0.3509799999999999,0.967587855,0.09240699,0.12731901
1764512677.3787558,-3.95234,0.54936,0.28994,0.9680151,0.092345955,0.12719694
1764512677.3787558,-3.95234,0.54936,0.28994,0.9680151,0.092345955,0.12719694
1764512677.4252486,-3.95234,0.54936,0.28994,0.9680151,0.092345955,0.12719694
1764512677.4252486,-3.95234,0.54936,0.28994,0.9680151,0.092345955,0.12719694
1764512677.4252486,-3.95234,0.54936,0.28994,0.9680151,0.092345955,0.12719694
1764512677.4252486,-3.95234,0.54936,0.28994,0.9680151,0.092345955,0.12719694
1764512677.4252486,-3.95234,0.54936,0.28994,0.9680151,0.092345955,0.12719694
1764512677.4252486,-3.95234,0.54936,0.28994,0.9680151,0.092345955,0.12719694
1764512677.4252486,-3.95234,0.54936,0.28994,0.9680151,0.092345955,0.12719694
1764512677.4252486,-3.95234,0.54936,0.28994,0.9680151,0.092345955,0.12719694
1764512677.4252486,-3.55558,0.39676,0.18312,0.968198205,0.092101815,0.127135905
1764512677.4252486,-3.55558,0.39676,0.18312,0.968198205,0.092101815,0.127135905
1764512677.4252486,-3.55558,0.39676,0.18312,0.968198205,0.092101815,0.127135905
1764512677.4252486,-3.55558,0.39676,0.18312,0.968198205,0.092101815,0.127135905
1764512677.4252486,-3.55558,0.39676,0.18312,0.968198205,0.092101815,0.127135905
1764512677.4252486,-3.55558,0.39676,0.18312,0.968198205,0.092101815,0.127135905
1764512677.4252486,-3.55558,0.39676,0.18312,0.968198205,0.092101815,0.127135905
1764512677.4252486,-3.55558,0.39676,0.18312,0.968198205,0.092101815,0.127135905
1764512677.4252486,-3.55558,0.39676,0.18312,0.968198205,0.092101815,0.127135905
1764512677.4252486,-3.55558,0.39676,0.18312,0.968198205,0.092101815,0.127135905
1764512677.4252486,-4.0439,0.6409199999999999,0.25942,0.968564415,0.09228492,0.12658659
1764512677.4252486,-4.0439,0.6409199999999999,0.25942,0.968564415,0.09228492,0.12658659
1764512677.4252486,-4.0439,0.6409199999999999,0.25942,0.968564415,0.09228492,0.12658659
1764512677.4252486,-4.0439,0.6409199999999999,0.25942,0.968564415,0.09228492,0.12658659
1764512677.4252486,-4.0439,0.6409199999999999,0.25942,0.968564415,0.09228492,0.12658659
1764512677.4252486,-4.0439,0.6409199999999999,0.25942,0.968564415,0.09228492,0.12658659
1764512677.469838,-4.0439,0.6409199999999999,0.25942,0.968564415,0.09228492,0.12658659
1764512677.469838,-4.0439,0.6409199999999999,0.25942,0.968564415,0.09228492,0.12658659
1764512677.469838,-4.0439,0.6409199999999999,0.25942,0.968564415,0.09228492,0.12658659
1764512677.469838,-4.0439,0.6409199999999999,0.25942,0.968564415,0.09228492,0.12658659
1764512677.469838,-4.33384,0.59514,0.44254,0.969174765,0.092590095,0.126403485
1764512677.469838,-4.33384,0.59514,0.44254,0.969174765,0.092590095,0.126403485
1764512677.469838,-4.33384,0.59514,0.44254,0.969174765,0.092590095,0.126403485
1764512677.469838,-4.33384,0.59514,0.44254,0.969174765,0.092590095,0.126403485
1764512677.469838,-4.33384,0.59514,0.44254,0.969174765,0.092590095,0.126403485
1764512677.469838,-4.33384,0.59514,0.44254,0.969174765,0.092590095,0.126403485
1764512677.469838,-4.33384,0.59514,0.44254,0.969174765,0.092590095,0.126403485
1764512677.469838,-4.33384,0.59514,0.44254,0.969174765,0.092590095,0.126403485
1764512677.469838,-4.33384,0.59514,0.44254,0.969174765,0.092590095,0.126403485
1764512677.469838,-4.33384,0.59514,0.44254,0.969174765,0.092590095,0.126403485
1764512677.469838,-4.3491,0.85456,0.96138,0.96972408,0.093322515,0.1257321
1764512677.469838,-4.3491,0.85456,0.96138,0.96972408,0.093322515,0.1257321
1764512677.469838,-4.3491,0.85456,0.96138,0.96972408,0.093322515,0.1257321
1764512677.469838,-4.3491,0.85456,0.96138,0.96972408,0.093322515,0.1257321
1764512677.469838,-4.3491,0.85456,0.96138,0.96972408,0.093322515,0.1257321
1764512677.469838,-4.3491,0.85456,0.96138,0.96972408,0.093322515,0.1257321
1764512677.469838,-4.3491,0.85456,0.96138,0.96972408,0.093322515,0.1257321
1764512677.469838,-4.3491,0.85456,0.96138,0.96972408,0.093322515,0.1257321
1764512677.469838,-4.3491,0.85456,0.96138,0.96972408,0.093322515,0.1257321
1764512677.47135,-4.3491,0.85456,0.96138,0.96972408,0.093322515,0.1257321
1764512677.517947,-3.86078,1.41918,0.8698199999999999,0.97033443,0.09289527,0.12548796
1764512677.517947,-3.86078,1.41918,0.8698199999999999,0.97033443,0.09289527,0.12548796
1764512677.517947,-3.86078,1.41918,0.8698199999999999,0.97033443,0.09289527,0.12548796
1764512677.517947,-3.86078,1.41918,0.8698199999999999,0.97033443,0.09289527,0.12548796
1764512677.517947,-3.86078,1.41918,0.8698199999999999,0.97033443,0.09289527,0.12548796
1764512677.517947,-3.86078,1.41918,0.8698199999999999,0.97033443,0.09289527,0.12548796
1764512677.517947,-3.86078,1.41918,0.8698199999999999,0.97033443,0.09289527,0.12548796
1764512677.517947,-3.86078,1.41918,0.8698199999999999,0.97033443,0.09289527,0.12548796
1764512677.517947,-3.86078,1.41918,0.8698199999999999,0.97033443,0.09289527,0.12548796
1764512677.517947,-3.86078,1.41918,0.8698199999999999,0.97033443,0.09289527,0.12548796
1764512677.517947,-3.26564,1.69386,1.05294,0.97009029,0.092101815,0.125915205
1764512677.517947,-3.26564,1.69386,1.05294,0.97009029,0.092101815,0.125915205
1764512677.517947,-3.26564,1.69386,1.05294,0.97009029,0.092101815,0.125915205
1764512677.517947,-3.26564,1.69386,1.05294,0.97009029,0.092101815,0.125915205
1764512677.517947,-3.26564,1.69386,1.05294,0.97009029,0.092101815,0.125915205
1764512677.517947,-3.26564,1.69386,1.05294,0.97009029,0.092101815,0.125915205
1764512677.517947,-3.26564,1.69386,1.05294,0.97009029,0.092101815,0.125915205
1764512677.517947,-3.26564,1.69386,1.05294,0.97009029,0.092101815,0.125915205
1764512677.517947,-3.26564,1.69386,1.05294,0.97009029,0.092101815,0.125915205
1764512677.517947,-3.26564,1.69386,1.05294,0.97009029,0.092101815,0.125915205
1764512677.5189526,-3.11304,1.58704,1.28184,0.969785115,0.09179664,0.12634245
1764512677.5189526,-3.11304,1.58704,1.28184,0.969785115,0.09179664,0.12634245
1764512677.565764,-3.11304,1.58704,1.28184,0.969785115,0.09179664,0.12634245
1764512677.565764,-3.11304,1.58704,1.28184,0.969785115,0.09179664,0.12634245
1764512677.565764,-3.11304,1.58704,1.28184,0.969785115,0.09179664,0.12634245
1764512677.565764,-3.11304,1.58704,1.28184,0.969785115,0.09179664,0.12634245
1764512677.565764,-3.11304,1.58704,1.28184,0.969785115,0.09179664,0.12634245
1764512677.565764,-3.11304,1.58704,1.28184,0.969785115,0.09179664,0.12634245
1764512677.565764,-3.11304,1.58704,1.28184,0.969785115,0.09179664,0.12634245
1764512677.565764,-3.11304,1.58704,1.28184,0.969785115,0.09179664,0.12634245
1764512677.565764,-2.9757,1.64808,1.3734,0.969174765,0.09167457,0.12622038
1764512677.565764,-2.9757,1.64808,1.3734,0.969174765,0.09167457,0.12622038
1764512677.565764,-2.9757,1.64808,1.3734,0.969174765,0.09167457,0.12622038
1764512677.565764,-2.9757,1.64808,1.3734,0.969174765,0.09167457,0.12622038
1764512677.565764,-2.9757,1.64808,1.3734,0.969174765,0.09167457,0.12622038
1764512677.565764,-2.9757,1.64808,1.3734,0.969174765,0.09167457,0.12622038
1764512677.565764,-2.9757,1.64808,1.3734,0.969174765,0.09167457,0.12622038
1764512677.565764,-2.9757,1.64808,1.3734,0.969174765,0.09167457,0.12622038
1764512677.565764,-2.9757,1.64808,1.3734,0.969174765,0.09167457,0.12622038
1764512677.565764,-2.9757,1.64808,1.3734,0.969174765,0.09167457,0.12622038
1764512677.565764,-2.8231,1.11398,1.72438,0.969296835,0.091613535,0.126159345
1764512677.565764,-2.8231,1.11398,1.72438,0.969296835,0.091613535,0.126159345
1764512677.565764,-2.8231,1.11398,1.72438,0.969296835,0.091613535,0.126159345
1764512677.565764,-2.8231,1.11398,1.72438,0.969296835,0.091613535,0.126159345
1764512677.565764,-2.8231,1.11398,1.72438,0.969296835,0.091613535,0.126159345
1764512677.565764,-2.8231,1.11398,1.72438,0.969296835,0.091613535,0.126159345
1764512677.6126213,-2.8231,1.11398,1.72438,0.969296835,0.091613535,0.126159345
1764512677.6126213,-2.8231,1.11398,1.72438,0.969296835,0.091613535,0.126159345
1764512677.6126213,-2.8231,1.11398,1.72438,0.969296835,0.091613535,0.126159345
1764512677.6126213,-2.8231,1.11398,1.72438,0.969296835,0.091613535,0.126159345
1764512677.6126213,-3.14356,0.97664,1.87698,0.970029255,0.09204078,0.126525555
1764512677.6126213,-3.14356,0.97664,1.87698,0.970029255,0.09204078,0.126525555
1764512677.6126213,-3.14356,0.97664,1.87698,0.970029255,0.09204078,0.126525555
1764512677.6126213,-3.14356,0.97664,1.87698,0.970029255,0.09204078,0.126525555
1764512677.6126213,-3.14356,0.97664,1.87698,0.970029255,0.09204078,0.126525555
1764512677.613662,-3.14356,0.97664,1.87698,0.970029255,0.09204078,0.126525555
1764512677.613662,-3.14356,0.97664,1.87698,0.970029255,0.09204078,0.126525555
1764512677.613662,-3.14356,0.97664,1.87698,0.970029255,0.09204078,0.126525555
1764512677.613662,-3.14356,0.97664,1.87698,0.970029255,0.09204078,0.126525555
1764512677.613662,-3.14356,0.97664,1.87698,0.970029255,0.09204078,0.126525555
1764512677.613662,-3.87604,1.55652,1.43444,0.969907185,0.09143043,0.126281415
1764512677.613662,-3.87604,1.55652,1.43444,0.969907185,0.09143043,0.126281415
1764512677.613662,-3.87604,1.55652,1.43444,0.969907185,0.09143043,0.126281415
1764512677.613662,-3.87604,1.55652,1.43444,0.969907185,0.09143043,0.126281415
1764512677.613662,-3.87604,1.55652,1.43444,0.969907185,0.09143043,0.126281415
1764512677.613662,-3.87604,1.55652,1.43444,0.969907185,0.09143043,0.126281415
1764512677.613662,-3.87604,1.55652,1.43444,0.969907185,0.09143043,0.126281415
1764512677.613662,-3.87604,1.55652,1.43444,0.969907185,0.09143043,0.126281415
1764512677.613662,-3.87604,1.55652,1.43444,0.969907185,0.09143043,0.126281415
1764512677.613662,-3.87604,1.55652,1.43444,0.969907185,0.09143043,0.126281415
1764512677.656681,-3.92182,0.96138,1.526,0.97009029,0.09106422,0.12548796
1764512677.656681,-3.92182,0.96138,1.526,0.97009029,0.09106422,0.12548796
1764512677.656681,-3.92182,0.96138,1.526,0.97009029,0.09106422,0.12548796
1764512677.656681,-3.92182,0.96138,1.526,0.97009029,0.09106422,0.12548796
1764512677.656681,-3.92182,0.96138,1.526,0.97009029,0.09106422,0.12548796
1764512677.656681,-3.92182,0.96138,1.526,0.97009029,0.09106422,0.12548796
1764512677.656681,-3.92182,0.96138,1.526,0.97009029,0.09106422,0.12548796
1764512677.656681,-3.92182,0.96138,1.526,0.97009029,0.09106422,0.12548796
1764512677.656681,-3.92182,0.96138,1.526,0.97009029,0.09106422,0.12548796
1764512677.656681,-3.92182,0.96138,1.526,0.97009029,0.09106422,0.12548796
1764512677.656681,-4.0439,1.54126,1.1445,0.97033443,0.089416275,0.12609831
1764512677.656681,-4.0439,1.54126,1.1445,0.97033443,0.089416275,0.12609831
1764512677.656681,-4.0439,1.54126,1.1445,0.97033443,0.089416275,0.12609831
1764512677.6580756,-4.0439,1.54126,1.1445,0.97033443,0.089416275,0.12609831
1764512677.6580756,-4.0439,1.54126,1.1445,0.97033443,0.089416275,0.12609831
1764512677.6580756,-4.0439,1.54126,1.1445,0.97033443,0.089416275,0.12609831
1764512677.6580756,-4.0439,1.54126,1.1445,0.97033443,0.089416275,0.12609831
1764512677.6580756,-4.0439,1.54126,1.1445,0.97033443,0.089416275,0.12609831
1764512677.6580756,-4.0439,1.54126,1.1445,0.97033443,0.089416275,0.12609831
1764512677.6580756,-4.0439,1.54126,1.1445,0.97033443,0.089416275,0.12609831
1764512677.6580756,-3.3572,1.0682,0.97664,0.969907185,0.08862282,0.126403485
1764512677.6580756,-3.3572,1.0682,0.97664,0.969907185,0.08862282,0.126403485
1764512677.7054882,-3.3572,1.0682,0.97664,0.969907185,0.08862282,0.126403485
1764512677.7054882,-3.3572,1.0682,0.97664,0.969907185,0.08862282,0.126403485
1764512677.7054882,-3.3572,1.0682,0.97664,0.969907185,0.08862282,0.126403485
1764512677.7054882,-3.3572,1.0682,0.97664,0.969907185,0.08862282,0.126403485
1764512677.7054882,-3.3572,1.0682,0.97664,0.969907185,0.08862282,0.126403485
1764512677.7054882,-3.3572,1.0682,0.97664,0.969907185,0.08862282,0.126403485
1764512677.7054882,-3.3572,1.0682,0.97664,0.969907185,0.08862282,0.126403485
1764512677.7054882,-3.3572,1.0682,0.97664,0.969907185,0.08862282,0.126403485
1764512677.7054882,-2.94518,1.0682,0.65618,0.96838131,0.088073505,0.12585417
1764512677.7054882,-2.94518,1.0682,0.65618,0.96838131,0.088073505,0.12585417
1764512677.706527,-2.94518,1.0682,0.65618,0.96838131,0.088073505,0.12585417
1764512677.706527,-2.94518,1.0682,0.65618,0.96838131,0.088073505,0.12585417
1764512677.706527,-2.94518,1.0682,0.65618,0.96838131,0.088073505,0.12585417
1764512677.706527,-2.94518,1.0682,0.65618,0.96838131,0.088073505,0.12585417
1764512677.706527,-2.94518,1.0682,0.65618,0.96838131,0.088073505,0.12585417
1764512677.706527,-2.94518,1.0682,0.65618,0.96838131,0.088073505,0.12585417
1764512677.706527,-2.94518,1.0682,0.65618,0.96838131,0.088073505,0.12585417
1764512677.706527,-2.94518,1.0682,0.65618,0.96838131,0.088073505,0.12585417
1764512677.706527,-3.21986,0.39676,0.28994,0.969052695,0.08850075,0.125915205
1764512677.706527,-3.21986,0.39676,0.28994,0.969052695,0.08850075,0.125915205
1764512677.706527,-3.21986,0.39676,0.28994,0.969052695,0.08850075,0.125915205
1764512677.706527,-3.21986,0.39676,0.28994,0.969052695,0.08850075,0.125915205
1764512677.706527,-3.21986,0.39676,0.28994,0.969052695,0.08850075,0.125915205
1764512677.706527,-3.21986,0.39676,0.28994,0.969052695,0.08850075,0.125915205
1764512677.750286,-3.21986,0.39676,0.28994,0.969052695,0.08850075,0.125915205
1764512677.750286,-3.21986,0.39676,0.28994,0.969052695,0.08850075,0.125915205
