Timestamp,GyroX,GyroY,GyroZ,AccX,AccY,AccZ
1764511659.9655414,-3.92182,0.59514,0.56462,-0.942441435,-0.300597375,-0.119933775
1764511659.9655414,-3.92182,0.59514,0.56462,-0.942441435,-0.300597375,-0.119933775
1764511659.9655414,-3.92182,0.59514,0.56462,-0.942441435,-0.300597375,-0.119933775
1764511659.9655414,-3.92182,0.59514,0.56462,-0.942441435,-0.300597375,-0.119933775
1764511659.9655414,-3.92182,0.59514,0.56462,-0.942441435,-0.300597375,-0.119933775
1764511659.9655414,-3.92182,0.59514,0.56462,-0.942441435,-0.300597375,-0.119933775
1764511659.9655414,-3.92182,0.59514,0.56462,-0.942441435,-0.300597375,-0.119933775
1764511659.9655414,-3.92182,0.59514,0.56462,-0.942441435,-0.300597375,-0.119933775
1764511659.9655414,-3.92182,0.59514,0.56462,-0.942441435,-0.300597375,-0.119933775
1764511659.9655414,-3.92182,0.59514,0.56462,-0.942441435,-0.300597375,-0.119933775
1764511659.9655414,-5.44782,1.70912,0.74774,-0.9423804,-0.300353235,-0.119811705
1764511659.9655414,-5.44782,1.70912,0.74774,-0.9423804,-0.300353235,-0.119811705
1764511659.9655414,-5.44782,1.70912,0.74774,-0.9423804,-0.300353235,-0.119811705
1764511659.9655414,-5.44782,1.70912,0.74774,-0.9423804,-0.300353235,-0.119811705
1764511659.9655414,-5.44782,1.70912,0.74774,-0.9423804,-0.300353235,-0.119811705
1764511659.9655414,-5.44782,1.70912,0.74774,-0.9423804,-0.300353235,-0.119811705
1764511659.9655414,-5.44782,1.70912,0.74774,-0.9423804,-0.300353235,-0.119811705
1764511659.9655414,-5.44782,1.70912,0.74774,-0.9423804,-0.300353235,-0.119811705
1764511659.9655414,-5.44782,1.70912,0.74774,-0.9423804,-0.300353235,-0.119811705
1764511659.9655414,-5.44782,1.70912,0.74774,-0.9423804,-0.300353235,-0.119811705
1764511660.0082903,-6.04296,1.61756,0.27468,-0.94201419,-0.301573935,-0.119567565
1764511660.0082903,-6.04296,1.61756,0.27468,-0.94201419,-0.301573935,-0.119567565
1764511660.0092974,-6.04296,1.61756,0.27468,-0.94201419,-0.301573935,-0.119567565
1764511660.0092974,-6.04296,1.61756,0.27468,-0.94201419,-0.301573935,-0.119567565
1764511660.0092974,-6.04296,1.61756,0.27468,-0.94201419,-0.301573935,-0.119567565
1764511660.0092974,-6.04296,1.61756,0.27468,-0.94201419,-0.301573935,-0.119567565
1764511660.0099924,-6.04296,1.61756,0.27468,-0.94201419,-0.301573935,-0.119567565
1764511660.0099924,-6.04296,1.61756,0.27468,-0.94201419,-0.301573935,-0.119567565
1764511660.0099924,-6.04296,1.61756,0.27468,-0.94201419,-0.301573935,-0.119567565
1764511660.0099924,-6.04296,1.61756,0.27468,-0.94201419,-0.301573935,-0.119567565
1764511660.0099924,-4.8069,1.31236,0.04578,-0.940366245,-0.30297774,-0.119689635
1764511660.0099924,-4.8069,1.31236,0.04578,-0.940366245,-0.30297774,-0.119689635
1764511660.0099924,-4.8069,1.31236,0.04578,-0.940366245,-0.30297774,-0.119689635
1764511660.0099924,-4.8069,1.31236,0.04578,-0.940366245,-0.30297774,-0.119689635
1764511660.0099924,-4.8069,1.31236,0.04578,-0.940366245,-0.30297774,-0.119689635
1764511660.011294,-4.8069,1.31236,0.04578,-0.940366245,-0.30297774,-0.119689635
1764511660.011294,-4.8069,1.31236,0.04578,-0.940366245,-0.30297774,-0.119689635
1764511660.011294,-4.8069,1.31236,0.04578,-0.940366245,-0.30297774,-0.119689635
1764511660.011294,-4.8069,1.31236,0.04578,-0.940366245,-0.30297774,-0.119689635
1764511660.011294,-4.8069,1.31236,0.04578,-0.940366245,-0.30297774,-0.119689635
1764511660.011294,-3.21986,0.97664,-0.21364,-0.94140384,-0.30480879,-0.12048309
1764511660.011294,-3.21986,0.97664,-0.21364,-0.94140384,-0.30480879,-0.12048309
1764511660.0123005,-3.21986,0.97664,-0.21364,-0.94140384,-0.30480879,-0.12048309
1764511660.0123005,-3.21986,0.97664,-0.21364,-0.94140384,-0.30480879,-0.12048309
1764511660.0123005,-3.21986,0.97664,-0.21364,-0.94140384,-0.30480879,-0.12048309
1764511660.0123005,-3.21986,0.97664,-0.21364,-0.94140384,-0.30480879,-0.12048309
1764511660.0543303,-3.21986,0.97664,-0.21364,-0.94140384,-0.30480879,-0.12048309
1764511660.0543303,-3.21986,0.97664,-0.21364,-0.94140384,-0.30480879,-0.12048309
1764511660.0543303,-3.21986,0.97664,-0.21364,-0.94140384,-0.30480879,-0.12048309
1764511660.0543303,-3.21986,0.97664,-0.21364,-0.94140384,-0.30480879,-0.12048309
1764511660.0543303,-2.45686,1.49548,1.05294,-0.940366245,-0.30493086,-0.1196286
1764511660.0543303,-2.45686,1.49548,1.05294,-0.940366245,-0.30493086,-0.1196286
1764511660.0543303,-2.45686,1.49548,1.05294,-0.940366245,-0.30493086,-0.1196286
1764511660.0543303,-2.45686,1.49548,1.05294,-0.940366245,-0.30493086,-0.1196286
1764511660.0543303,-2.45686,1.49548,1.05294,-0.940366245,-0.30493086,-0.1196286
1764511660.0543303,-2.45686,1.49548,1.05294,-0.940366245,-0.30493086,-0.1196286
1764511660.0543303,-2.45686,1.49548,1.05294,-0.940366245,-0.30493086,-0.1196286
1764511660.0543303,-2.45686,1.49548,1.05294,-0.940366245,-0.30493086,-0.1196286
1764511660.0543303,-2.45686,1.49548,1.05294,-0.940366245,-0.30493086,-0.1196286
1764511660.055864,-2.45686,1.49548,1.05294,-0.940366245,-0.30493086,-0.1196286
1764511660.055864,-3.37246,1.46496,1.1445,-0.940366245,-0.302794635,-0.11926239
1764511660.055864,-3.37246,1.46496,1.1445,-0.940366245,-0.302794635,-0.11926239
1764511660.055864,-3.37246,1.46496,1.1445,-0.940366245,-0.302794635,-0.11926239
1764511660.055864,-3.37246,1.46496,1.1445,-0.940366245,-0.302794635,-0.11926239
1764511660.055864,-3.37246,1.46496,1.1445,-0.940366245,-0.302794635,-0.11926239
1764511660.055864,-3.37246,1.46496,1.1445,-0.940366245,-0.302794635,-0.11926239
1764511660.055864,-3.37246,1.46496,1.1445,-0.940366245,-0.302794635,-0.11926239
1764511660.055864,-3.37246,1.46496,1.1445,-0.940366245,-0.302794635,-0.11926239
1764511660.055864,-3.37246,1.46496,1.1445,-0.940366245,-0.302794635,-0.11926239
1764511660.055864,-3.37246,1.46496,1.1445,-0.940366245,-0.302794635,-0.11926239
1764511660.1013377,-4.56274,1.57178,-0.27468,-0.941342805,-0.3015129,-0.12023895
1764511660.1013377,-4.56274,1.57178,-0.27468,-0.941342805,-0.3015129,-0.12023895
1764511660.1013377,-4.56274,1.57178,-0.27468,-0.941342805,-0.3015129,-0.12023895
1764511660.1013377,-4.56274,1.57178,-0.27468,-0.941342805,-0.3015129,-0.12023895
1764511660.1013377,-4.56274,1.57178,-0.27468,-0.941342805,-0.3015129,-0.12023895
1764511660.1013377,-4.56274,1.57178,-0.27468,-0.941342805,-0.3015129,-0.12023895
1764511660.1013377,-4.56274,1.57178,-0.27468,-0.941342805,-0.3015129,-0.12023895
1764511660.1013377,-4.56274,1.57178,-0.27468,-0.941342805,-0.3015129,-0.12023895
1764511660.1013377,-4.56274,1.57178,-0.27468,-0.941342805,-0.3015129,-0.12023895
1764511660.1013377,-4.56274,1.57178,-0.27468,-0.941342805,-0.3015129,-0.12023895
1764511660.1013377,-5.40204,1.03768,-0.59514,-0.942685575,-0.301329795,-0.121398615
1764511660.1013377,-5.40204,1.03768,-0.59514,-0.942685575,-0.301329795,-0.121398615
1764511660.1023457,-5.40204,1.03768,-0.59514,-0.942685575,-0.301329795,-0.121398615
1764511660.1023457,-5.40204,1.03768,-0.59514,-0.942685575,-0.301329795,-0.121398615
1764511660.1023457,-5.40204,1.03768,-0.59514,-0.942685575,-0.301329795,-0.121398615
1764511660.1023457,-5.40204,1.03768,-0.59514,-0.942685575,-0.301329795,-0.121398615
1764511660.1023457,-5.40204,1.03768,-0.59514,-0.942685575,-0.301329795,-0.121398615
1764511660.1023457,-5.40204,1.03768,-0.59514,-0.942685575,-0.301329795,-0.121398615
1764511660.1023457,-5.40204,1.03768,-0.59514,-0.942685575,-0.301329795,-0.121398615
1764511660.1023457,-5.40204,1.03768,-0.59514,-0.942685575,-0.301329795,-0.121398615
1764511660.1023457,-5.4173,1.6633399999999998,-0.65618,-0.94201419,-0.303160845,-0.122008965
1764511660.1023457,-5.4173,1.6633399999999998,-0.65618,-0.94201419,-0.303160845,-0.122008965
1764511660.1023457,-5.4173,1.6633399999999998,-0.65618,-0.94201419,-0.303160845,-0.122008965
1764511660.1023457,-5.4173,1.6633399999999998,-0.65618,-0.94201419,-0.303160845,-0.122008965
1764511660.1488936,-5.4173,1.6633399999999998,-0.65618,-0.94201419,-0.303160845,-0.122008965
1764511660.1488936,-5.4173,1.6633399999999998,-0.65618,-0.94201419,-0.303160845,-0.122008965
1764511660.1488936,-5.4173,1.6633399999999998,-0.65618,-0.94201419,-0.303160845,-0.122008965
1764511660.1488936,-5.4173,1.6633399999999998,-0.65618,-0.94201419,-0.303160845,-0.122008965
1764511660.1488936,-5.4173,1.6633399999999998,-0.65618,-0.94201419,-0.303160845,-0.122008965
1764511660.1488936,-5.4173,1.6633399999999998,-0.65618,-0.94201419,-0.303160845,-0.122008965
1764511660.1488936,-4.577999999999999,1.58704,0.59514,-0.94042728,-0.30529707,-0.12133758
1764511660.1488936,-4.577999999999999,1.58704,0.59514,-0.94042728,-0.30529707,-0.12133758
1764511660.1488936,-4.577999999999999,1.58704,0.59514,-0.94042728,-0.30529707,-0.12133758
1764511660.1488936,-4.577999999999999,1.58704,0.59514,-0.94042728,-0.30529707,-0.12133758
1764511660.1488936,-4.577999999999999,1.58704,0.59514,-0.94042728,-0.30529707,-0.12133758
1764511660.1488936,-4.577999999999999,1.58704,0.59514,-0.94042728,-0.30529707,-0.12133758
1764511660.1488936,-4.577999999999999,1.58704,0.59514,-0.94042728,-0.30529707,-0.12133758
1764511660.1488936,-4.577999999999999,1.58704,0.59514,-0.94042728,-0.30529707,-0.12133758
1764511660.1488936,-4.577999999999999,1.58704,0.59514,-0.94042728,-0.30529707,-0.12133758
1764511660.1488936,-4.577999999999999,1.58704,0.59514,-0.94042728,-0.30529707,-0.12133758
1764511660.1488936,-3.86078,2.16692,0.71722,-0.93945072,-0.306700875,-0.118835145
1764511660.1488936,-3.86078,2.16692,0.71722,-0.93945072,-0.306700875,-0.118835145
1764511660.1488936,-3.86078,2.16692,0.71722,-0.93945072,-0.306700875,-0.118835145
1764511660.1488936,-3.86078,2.16692,0.71722,-0.93945072,-0.306700875,-0.118835145
1764511660.1488936,-3.86078,2.16692,0.71722,-0.93945072,-0.306700875,-0.118835145
1764511660.1502986,-3.86078,2.16692,0.71722,-0.93945072,-0.306700875,-0.118835145
1764511660.1990018,-3.86078,2.16692,0.71722,-0.93945072,-0.306700875,-0.118835145
1764511660.1990018,-3.86078,2.16692,0.71722,-0.93945072,-0.306700875,-0.118835145
1764511660.1990018,-3.86078,2.16692,0.71722,-0.93945072,-0.306700875,-0.118835145
1764511660.1990018,-3.86078,2.16692,0.71722,-0.93945072,-0.306700875,-0.118835145
1764511660.1990018,-2.25848,1.93802,0.36624,-0.940244175,-0.305602245,-0.118468935
1764511660.1990018,-2.25848,1.93802,0.36624,-0.940244175,-0.305602245,-0.118468935
1764511660.2000046,-2.25848,1.93802,0.36624,-0.940244175,-0.305602245,-0.118468935
1764511660.2000046,-2.25848,1.93802,0.36624,-0.940244175,-0.305602245,-0.118468935
1764511660.2000046,-2.25848,1.93802,0.36624,-0.940244175,-0.305602245,-0.118468935
1764511660.2000046,-2.25848,1.93802,0.36624,-0.940244175,-0.305602245,-0.118468935
1764511660.2000046,-2.25848,1.93802,0.36624,-0.940244175,-0.305602245,-0.118468935
1764511660.2000046,-2.25848,1.93802,0.36624,-0.940244175,-0.305602245,-0.118468935
1764511660.2000046,-2.25848,1.93802,0.36624,-0.940244175,-0.305602245,-0.118468935
1764511660.2000046,-2.25848,1.93802,0.36624,-0.940244175,-0.305602245,-0.118468935
1764511660.2000046,-3.052,1.41918,0.4578,-0.941220735,-0.30175704,-0.11828583
1764511660.2000046,-3.052,1.41918,0.4578,-0.941220735,-0.30175704,-0.11828583
1764511660.2000046,-3.052,1.41918,0.4578,-0.941220735,-0.30175704,-0.11828583
1764511660.2000046,-3.052,1.41918,0.4578,-0.941220735,-0.30175704,-0.11828583
1764511660.2000046,-3.052,1.41918,0.4578,-0.941220735,-0.30175704,-0.11828583
1764511660.2009993,-3.052,1.41918,0.4578,-0.941220735,-0.30175704,-0.11828583
1764511660.2009993,-3.052,1.41918,0.4578,-0.941220735,-0.30175704,-0.11828583
1764511660.2009993,-3.052,1.41918,0.4578,-0.941220735,-0.30175704,-0.11828583
1764511660.2009993,-3.052,1.41918,0.4578,-0.941220735,-0.30175704,-0.11828583
1764511660.2009993,-3.052,1.41918,0.4578,-0.941220735,-0.30175704,-0.11828583
1764511660.24069,-5.340999999999999,1.02242,0.48832,-0.94152591,-0.299132535,-0.11987274
1764511660.2417216,-5.340999999999999,1.02242,0.48832,-0.94152591,-0.299132535,-0.11987274
1764511660.2417216,-5.340999999999999,1.02242,0.48832,-0.94152591,-0.299132535,-0.11987274
1764511660.2417216,-5.340999999999999,1.02242,0.48832,-0.94152591,-0.299132535,-0.11987274
1764511660.2417216,-5.340999999999999,1.02242,0.48832,-0.94152591,-0.299132535,-0.11987274
1764511660.2417216,-5.340999999999999,1.02242,0.48832,-0.94152591,-0.299132535,-0.11987274
1764511660.2432675,-5.340999999999999,1.02242,0.48832,-0.94152591,-0.299132535,-0.11987274
1764511660.2432675,-5.340999999999999,1.02242,0.48832,-0.94152591,-0.299132535,-0.11987274
1764511660.2432675,-5.340999999999999,1.02242,0.48832,-0.94152591,-0.299132535,-0.11987274
1764511660.2432675,-5.340999999999999,1.02242,0.48832,-0.94152591,-0.299132535,-0.11987274
1764511660.2432675,-6.790699999999999,1.09872,0.56462,-0.94152591,-0.298400115,-0.1208493
1764511660.2432675,-6.790699999999999,1.09872,0.56462,-0.94152591,-0.298400115,-0.1208493
1764511660.2432675,-6.790699999999999,1.09872,0.56462,-0.94152591,-0.298400115,-0.1208493
1764511660.2432675,-6.790699999999999,1.09872,0.56462,-0.94152591,-0.298400115,-0.1208493
1764511660.2432675,-6.790699999999999,1.09872,0.56462,-0.94152591,-0.298400115,-0.1208493
1764511660.2432675,-6.790699999999999,1.09872,0.56462,-0.94152591,-0.298400115,-0.1208493
1764511660.2432675,-6.790699999999999,1.09872,0.56462,-0.94152591,-0.298400115,-0.1208493
1764511660.2432675,-6.790699999999999,1.09872,0.56462,-0.94152591,-0.298400115,-0.1208493
1764511660.2432675,-6.790699999999999,1.09872,0.56462,-0.94152591,-0.298400115,-0.1208493
1764511660.2432675,-6.790699999999999,1.09872,0.56462,-0.94152591,-0.298400115,-0.1208493
1764511660.2442636,-5.98192,1.31236,-0.1678599999999999,-0.941220735,-0.301085655,-0.121764825
1764511660.2442636,-5.98192,1.31236,-0.1678599999999999,-0.941220735,-0.301085655,-0.121764825
1764511660.2442636,-5.98192,1.31236,-0.1678599999999999,-0.941220735,-0.301085655,-0.121764825
1764511660.2442636,-5.98192,1.31236,-0.1678599999999999,-0.941220735,-0.301085655,-0.121764825
1764511660.2886567,-5.98192,1.31236,-0.1678599999999999,-0.941220735,-0.301085655,-0.121764825
1764511660.2886567,-5.98192,1.31236,-0.1678599999999999,-0.941220735,-0.301085655,-0.121764825
1764511660.2886567,-5.98192,1.31236,-0.1678599999999999,-0.941220735,-0.301085655,-0.121764825
1764511660.2886567,-5.98192,1.31236,-0.1678599999999999,-0.941220735,-0.301085655,-0.121764825
1764511660.2886567,-5.98192,1.31236,-0.1678599999999999,-0.941220735,-0.301085655,-0.121764825
1764511660.2886567,-5.98192,1.31236,-0.1678599999999999,-0.941220735,-0.301085655,-0.121764825
1764511660.2886567,-4.440659999999999,1.43444,-0.0762999999999999,-0.940854525,-0.3039543,-0.12145965
1764511660.2886567,-4.440659999999999,1.43444,-0.0762999999999999,-0.940854525,-0.3039543,-0.12145965
1764511660.2886567,-4.440659999999999,1.43444,-0.0762999999999999,-0.940854525,-0.3039543,-0.12145965
1764511660.2886567,-4.440659999999999,1.43444,-0.0762999999999999,-0.940854525,-0.3039543,-0.12145965
1764511660.2886567,-4.440659999999999,1.43444,-0.0762999999999999,-0.940854525,-0.3039543,-0.12145965
1764511660.2886567,-4.440659999999999,1.43444,-0.0762999999999999,-0.940854525,-0.3039543,-0.12145965
1764511660.289696,-4.440659999999999,1.43444,-0.0762999999999999,-0.940854525,-0.3039543,-0.12145965
1764511660.289696,-4.440659999999999,1.43444,-0.0762999999999999,-0.940854525,-0.3039543,-0.12145965
1764511660.289696,-4.440659999999999,1.43444,-0.0762999999999999,-0.940854525,-0.3039543,-0.12145965
1764511660.289696,-4.440659999999999,1.43444,-0.0762999999999999,-0.940854525,-0.3039543,-0.12145965
1764511660.289696,-3.21986,2.09062,0.25942,-0.94079349,-0.304869825,-0.12048309
1764511660.289696,-3.21986,2.09062,0.25942,-0.94079349,-0.304869825,-0.12048309
1764511660.289696,-3.21986,2.09062,0.25942,-0.94079349,-0.304869825,-0.12048309
1764511660.289696,-3.21986,2.09062,0.25942,-0.94079349,-0.304869825,-0.12048309
1764511660.289696,-3.21986,2.09062,0.25942,-0.94079349,-0.304869825,-0.12048309
1764511660.289696,-3.21986,2.09062,0.25942,-0.94079349,-0.304869825,-0.12048309
1764511660.289696,-3.21986,2.09062,0.25942,-0.94079349,-0.304869825,-0.12048309
1764511660.289696,-3.21986,2.09062,0.25942,-0.94079349,-0.304869825,-0.12048309
1764511660.3378077,-3.21986,2.09062,0.25942,-0.94079349,-0.304869825,-0.12048309
1764511660.3378077,-3.21986,2.09062,0.25942,-0.94079349,-0.304869825,-0.12048309
1764511660.3378077,-2.70102,1.8006799999999998,0.6867,-0.940000035,-0.305480175,-0.11926239
1764511660.3378077,-2.70102,1.8006799999999998,0.6867,-0.940000035,-0.305480175,-0.11926239
1764511660.3378077,-2.70102,1.8006799999999998,0.6867,-0.940000035,-0.305480175,-0.11926239
1764511660.3393517,-2.70102,1.8006799999999998,0.6867,-0.940000035,-0.305480175,-0.11926239
1764511660.3393517,-2.70102,1.8006799999999998,0.6867,-0.940000035,-0.305480175,-0.11926239
1764511660.3393517,-2.70102,1.8006799999999998,0.6867,-0.940000035,-0.305480175,-0.11926239
1764511660.3393517,-2.70102,1.8006799999999998,0.6867,-0.940000035,-0.305480175,-0.11926239
1764511660.3393517,-2.70102,1.8006799999999998,0.6867,-0.940000035,-0.305480175,-0.11926239
1764511660.3393517,-2.70102,1.8006799999999998,0.6867,-0.940000035,-0.305480175,-0.11926239
1764511660.3393517,-2.70102,1.8006799999999998,0.6867,-0.940000035,-0.305480175,-0.11926239
1764511660.3403614,-3.7387,1.7549,0.57988,-0.94079349,-0.302916705,-0.11889618
1764511660.3403614,-3.7387,1.7549,0.57988,-0.94079349,-0.302916705,-0.11889618
1764511660.3403614,-3.7387,1.7549,0.57988,-0.94079349,-0.302916705,-0.11889618
1764511660.3408723,-3.7387,1.7549,0.57988,-0.94079349,-0.302916705,-0.11889618
1764511660.3408723,-3.7387,1.7549,0.57988,-0.94079349,-0.302916705,-0.11889618
1764511660.3408723,-3.7387,1.7549,0.57988,-0.94079349,-0.302916705,-0.11889618
1764511660.3408723,-3.7387,1.7549,0.57988,-0.94079349,-0.302916705,-0.11889618
1764511660.3408723,-3.7387,1.7549,0.57988,-0.94079349,-0.302916705,-0.11889618
1764511660.3408723,-3.7387,1.7549,0.57988,-0.94079349,-0.302916705,-0.11889618
1764511660.3408723,-3.7387,1.7549,0.57988,-0.94079349,-0.302916705,-0.11889618
1764511660.3408723,-5.90562,1.25132,-0.04578,-0.941098665,-0.3002922,-0.11914032
1764511660.3408723,-5.90562,1.25132,-0.04578,-0.941098665,-0.3002922,-0.11914032
1764511660.3834066,-5.90562,1.25132,-0.04578,-0.941098665,-0.3002922,-0.11914032
1764511660.3834066,-5.90562,1.25132,-0.04578,-0.941098665,-0.3002922,-0.11914032
1764511660.3834066,-5.90562,1.25132,-0.04578,-0.941098665,-0.3002922,-0.11914032
1764511660.3834066,-5.90562,1.25132,-0.04578,-0.941098665,-0.3002922,-0.11914032
1764511660.3858955,-5.90562,1.25132,-0.04578,-0.941098665,-0.3002922,-0.11914032
1764511660.3858955,-5.90562,1.25132,-0.04578,-0.941098665,-0.3002922,-0.11914032
1764511660.3858955,-5.90562,1.25132,-0.04578,-0.941098665,-0.3002922,-0.11914032
1764511660.3858955,-5.90562,1.25132,-0.04578,-0.941098665,-0.3002922,-0.11914032
1764511660.3858955,-6.91278,0.97664,0.10682,-0.94103763,-0.30017013,-0.11877411
1764511660.3858955,-6.91278,0.97664,0.10682,-0.94103763,-0.30017013,-0.11877411
1764511660.3858955,-6.91278,0.97664,0.10682,-0.94103763,-0.30017013,-0.11877411
1764511660.3858955,-6.91278,0.97664,0.10682,-0.94103763,-0.30017013,-0.11877411
1764511660.3858955,-6.91278,0.97664,0.10682,-0.94103763,-0.30017013,-0.11877411
1764511660.3869088,-6.91278,0.97664,0.10682,-0.94103763,-0.30017013,-0.11877411
1764511660.3869088,-6.91278,0.97664,0.10682,-0.94103763,-0.30017013,-0.11877411
1764511660.3869088,-6.91278,0.97664,0.10682,-0.94103763,-0.30017013,-0.11877411
1764511660.3869088,-6.91278,0.97664,0.10682,-0.94103763,-0.30017013,-0.11877411
1764511660.3869088,-6.91278,0.97664,0.10682,-0.94103763,-0.30017013,-0.11877411
1764511660.3869088,-7.08064,1.05294,0.0762999999999999,-0.941220735,-0.302184285,-0.11987274
1764511660.3869088,-7.08064,1.05294,0.0762999999999999,-0.941220735,-0.302184285,-0.11987274
1764511660.3869088,-7.08064,1.05294,0.0762999999999999,-0.941220735,-0.302184285,-0.11987274
1764511660.3869088,-7.08064,1.05294,0.0762999999999999,-0.941220735,-0.302184285,-0.11987274
1764511660.3869088,-7.08064,1.05294,0.0762999999999999,-0.941220735,-0.302184285,-0.11987274
1764511660.3869088,-7.08064,1.05294,0.0762999999999999,-0.941220735,-0.302184285,-0.11987274
1764511660.43172,-7.08064,1.05294,0.0762999999999999,-0.941220735,-0.302184285,-0.11987274
1764511660.43172,-7.08064,1.05294,0.0762999999999999,-0.941220735,-0.302184285,-0.11987274
1764511660.43172,-7.08064,1.05294,0.0762999999999999,-0.941220735,-0.302184285,-0.11987274
1764511660.43172,-7.08064,1.05294,0.0762999999999999,-0.941220735,-0.302184285,-0.11987274
1764511660.4323175,-5.096839999999999,1.4039199999999998,0.04578,-0.94091556,-0.30554121,-0.120055845
1764511660.4323175,-5.096839999999999,1.4039199999999998,0.04578,-0.94091556,-0.30554121,-0.120055845
1764511660.4323175,-5.096839999999999,1.4039199999999998,0.04578,-0.94091556,-0.30554121,-0.120055845
1764511660.4323175,-5.096839999999999,1.4039199999999998,0.04578,-0.94091556,-0.30554121,-0.120055845
1764511660.4323175,-5.096839999999999,1.4039199999999998,0.04578,-0.94091556,-0.30554121,-0.120055845
1764511660.4323175,-5.096839999999999,1.4039199999999998,0.04578,-0.94091556,-0.30554121,-0.120055845
1764511660.4323175,-5.096839999999999,1.4039199999999998,0.04578,-0.94091556,-0.30554121,-0.120055845
1764511660.4323175,-5.096839999999999,1.4039199999999998,0.04578,-0.94091556,-0.30554121,-0.120055845
1764511660.4323175,-5.096839999999999,1.4039199999999998,0.04578,-0.94091556,-0.30554121,-0.120055845
1764511660.4323175,-5.096839999999999,1.4039199999999998,0.04578,-0.94091556,-0.30554121,-0.120055845
1764511660.4323175,-3.99812,1.93802,0.1525999999999999,-0.94079349,-0.3063957,-0.119811705
1764511660.4323175,-3.99812,1.93802,0.1525999999999999,-0.94079349,-0.3063957,-0.119811705
1764511660.4323175,-3.99812,1.93802,0.1525999999999999,-0.94079349,-0.3063957,-0.119811705
1764511660.4323175,-3.99812,1.93802,0.1525999999999999,-0.94079349,-0.3063957,-0.119811705
1764511660.4323175,-3.99812,1.93802,0.1525999999999999,-0.94079349,-0.3063957,-0.119811705
1764511660.4323175,-3.99812,1.93802,0.1525999999999999,-0.94079349,-0.3063957,-0.119811705
1764511660.433317,-3.99812,1.93802,0.1525999999999999,-0.94079349,-0.3063957,-0.119811705
1764511660.433317,-3.99812,1.93802,0.1525999999999999,-0.94079349,-0.3063957,-0.119811705
1764511660.4789834,-3.99812,1.93802,0.1525999999999999,-0.94079349,-0.3063957,-0.119811705
1764511660.4789834,-3.99812,1.93802,0.1525999999999999,-0.94079349,-0.3063957,-0.119811705
1764511660.4789834,-3.99812,1.8312,0.12208,-0.94091556,-0.305602245,-0.120422055
1764511660.4789834,-3.99812,1.8312,0.12208,-0.94091556,-0.305602245,-0.120422055
1764511660.4789834,-3.99812,1.8312,0.12208,-0.94091556,-0.305602245,-0.120422055
1764511660.4789834,-3.99812,1.8312,0.12208,-0.94091556,-0.305602245,-0.120422055
1764511660.4789834,-3.99812,1.8312,0.12208,-0.94091556,-0.305602245,-0.120422055
1764511660.4789834,-3.99812,1.8312,0.12208,-0.94091556,-0.305602245,-0.120422055
1764511660.4789834,-3.99812,1.8312,0.12208,-0.94091556,-0.305602245,-0.120422055
1764511660.4789834,-3.99812,1.8312,0.12208,-0.94091556,-0.305602245,-0.120422055
1764511660.4801855,-3.99812,1.8312,0.12208,-0.94091556,-0.305602245,-0.120422055
1764511660.4801855,-3.99812,1.8312,0.12208,-0.94091556,-0.305602245,-0.120422055
1764511660.4801855,-3.95234,1.58704,0.18312,-0.942319365,-0.30322188,-0.120177915
1764511660.4801855,-3.95234,1.58704,0.18312,-0.942319365,-0.30322188,-0.120177915
1764511660.4801855,-3.95234,1.58704,0.18312,-0.942319365,-0.30322188,-0.120177915
1764511660.4801855,-3.95234,1.58704,0.18312,-0.942319365,-0.30322188,-0.120177915
1764511660.4801855,-3.95234,1.58704,0.18312,-0.942319365,-0.30322188,-0.120177915
1764511660.4801855,-3.95234,1.58704,0.18312,-0.942319365,-0.30322188,-0.120177915
1764511660.4801855,-3.95234,1.58704,0.18312,-0.942319365,-0.30322188,-0.120177915
1764511660.4801855,-3.95234,1.58704,0.18312,-0.942319365,-0.30322188,-0.120177915
1764511660.5229952,-3.95234,1.58704,0.18312,-0.942319365,-0.30322188,-0.120177915
1764511660.5229952,-3.95234,1.58704,0.18312,-0.942319365,-0.30322188,-0.120177915
1764511660.5229952,-5.5699,1.26658,-0.27468,-0.943295925,-0.30139083,-0.120422055
1764511660.5229952,-5.5699,1.26658,-0.27468,-0.943295925,-0.30139083,-0.120422055
1764511660.5229952,-5.5699,1.26658,-0.27468,-0.943295925,-0.30139083,-0.120422055
1764511660.5229952,-5.5699,1.26658,-0.27468,-0.943295925,-0.30139083,-0.120422055
1764511660.5229952,-5.5699,1.26658,-0.27468,-0.943295925,-0.30139083,-0.120422055
1764511660.5229952,-5.5699,1.26658,-0.27468,-0.943295925,-0.30139083,-0.120422055
1764511660.5229952,-5.5699,1.26658,-0.27468,-0.943295925,-0.30139083,-0.120422055
1764511660.5229952,-5.5699,1.26658,-0.27468,-0.943295925,-0.30139083,-0.120422055
1764511660.5229952,-5.5699,1.26658,-0.27468,-0.943295925,-0.30139083,-0.120422055
1764511660.5229952,-5.5699,1.26658,-0.27468,-0.943295925,-0.30139083,-0.120422055
1764511660.5229952,-6.72966,0.7019599999999999,0.4578,-0.94299075,-0.30065841,-0.12072723
1764511660.5240333,-6.72966,0.7019599999999999,0.4578,-0.94299075,-0.30065841,-0.12072723
1764511660.5240333,-6.72966,0.7019599999999999,0.4578,-0.94299075,-0.30065841,-0.12072723
1764511660.5240333,-6.72966,0.7019599999999999,0.4578,-0.94299075,-0.30065841,-0.12072723
1764511660.5240333,-6.72966,0.7019599999999999,0.4578,-0.94299075,-0.30065841,-0.12072723
1764511660.5240333,-6.72966,0.7019599999999999,0.4578,-0.94299075,-0.30065841,-0.12072723
1764511660.5240333,-6.72966,0.7019599999999999,0.4578,-0.94299075,-0.30065841,-0.12072723
1764511660.5240333,-6.72966,0.7019599999999999,0.4578,-0.94299075,-0.30065841,-0.12072723
1764511660.5240333,-6.72966,0.7019599999999999,0.4578,-0.94299075,-0.30065841,-0.12072723
1764511660.5240333,-6.72966,0.7019599999999999,0.4578,-0.94299075,-0.30065841,-0.12072723
1764511660.5240333,-7.11116,1.15976,0.1678599999999999,-0.940244175,-0.300231165,-0.1208493
1764511660.5240333,-7.11116,1.15976,0.1678599999999999,-0.940244175,-0.300231165,-0.1208493
1764511660.5240333,-7.11116,1.15976,0.1678599999999999,-0.940244175,-0.300231165,-0.1208493
1764511660.5240333,-7.11116,1.15976,0.1678599999999999,-0.940244175,-0.300231165,-0.1208493
1764511660.5691075,-7.11116,1.15976,0.1678599999999999,-0.940244175,-0.300231165,-0.1208493
1764511660.5691075,-7.11116,1.15976,0.1678599999999999,-0.940244175,-0.300231165,-0.1208493
1764511660.5691075,-7.11116,1.15976,0.1678599999999999,-0.940244175,-0.300231165,-0.1208493
1764511660.5691075,-7.11116,1.15976,0.1678599999999999,-0.940244175,-0.300231165,-0.1208493
1764511660.5691075,-7.11116,1.15976,0.1678599999999999,-0.940244175,-0.300231165,-0.1208493
1764511660.5691075,-7.11116,1.15976,0.1678599999999999,-0.940244175,-0.300231165,-0.1208493
1764511660.5696385,-5.44782,1.89224,0.0,-0.94103763,-0.303527055,-0.12011688
1764511660.5696385,-5.44782,1.89224,0.0,-0.94103763,-0.303527055,-0.12011688
1764511660.5696385,-5.44782,1.89224,0.0,-0.94103763,-0.303527055,-0.12011688
1764511660.5696385,-5.44782,1.89224,0.0,-0.94103763,-0.303527055,-0.12011688
1764511660.5696385,-5.44782,1.89224,0.0,-0.94103763,-0.303527055,-0.12011688
1764511660.5706494,-5.44782,1.89224,0.0,-0.94103763,-0.303527055,-0.12011688
1764511660.5706494,-5.44782,1.89224,0.0,-0.94103763,-0.303527055,-0.12011688
1764511660.5706494,-5.44782,1.89224,0.0,-0.94103763,-0.303527055,-0.12011688
1764511660.5706494,-5.44782,1.89224,0.0,-0.94103763,-0.303527055,-0.12011688
1764511660.5706494,-5.44782,1.89224,0.0,-0.94103763,-0.303527055,-0.12011688
1764511660.571653,-3.98286,1.41918,0.44254,-0.94201419,-0.307189155,-0.119689635
1764511660.571653,-3.98286,1.41918,0.44254,-0.94201419,-0.307189155,-0.119689635
1764511660.571653,-3.98286,1.41918,0.44254,-0.94201419,-0.307189155,-0.119689635
1764511660.571653,-3.98286,1.41918,0.44254,-0.94201419,-0.307189155,-0.119689635
1764511660.5726492,-3.98286,1.41918,0.44254,-0.94201419,-0.307189155,-0.119689635
1764511660.5726492,-3.98286,1.41918,0.44254,-0.94201419,-0.307189155,-0.119689635
1764511660.5726492,-3.98286,1.41918,0.44254,-0.94201419,-0.307189155,-0.119689635
1764511660.5726492,-3.98286,1.41918,0.44254,-0.94201419,-0.307189155,-0.119689635
1764511660.6182516,-3.98286,1.41918,0.44254,-0.94201419,-0.307189155,-0.119689635
1764511660.6182516,-3.98286,1.41918,0.44254,-0.94201419,-0.307189155,-0.119689635
1764511660.6182516,-4.01338,2.65524,-0.1678599999999999,-0.94079349,-0.305846385,-0.119323425
1764511660.6182516,-4.01338,2.65524,-0.1678599999999999,-0.94079349,-0.305846385,-0.119323425
1764511660.6182516,-4.01338,2.65524,-0.1678599999999999,-0.94079349,-0.305846385,-0.119323425
1764511660.6182516,-4.01338,2.65524,-0.1678599999999999,-0.94079349,-0.305846385,-0.119323425
1764511660.6182516,-4.01338,2.65524,-0.1678599999999999,-0.94079349,-0.305846385,-0.119323425
1764511660.6182516,-4.01338,2.65524,-0.1678599999999999,-0.94079349,-0.305846385,-0.119323425
1764511660.6182516,-4.01338,2.65524,-0.1678599999999999,-0.94079349,-0.305846385,-0.119323425
1764511660.6182516,-4.01338,2.65524,-0.1678599999999999,-0.94079349,-0.305846385,-0.119323425
1764511660.6182516,-4.01338,2.65524,-0.1678599999999999,-0.94079349,-0.305846385,-0.119323425
1764511660.6182516,-4.01338,2.65524,-0.1678599999999999,-0.94079349,-0.305846385,-0.119323425
1764511660.6182516,-4.36436,1.87698,-0.3357199999999999,-0.941953155,-0.30383223,-0.12023895
1764511660.6182516,-4.36436,1.87698,-0.3357199999999999,-0.941953155,-0.30383223,-0.12023895
1764511660.6182516,-4.36436,1.87698,-0.3357199999999999,-0.941953155,-0.30383223,-0.12023895
1764511660.6182516,-4.36436,1.87698,-0.3357199999999999,-0.941953155,-0.30383223,-0.12023895
1764511660.6182516,-4.36436,1.87698,-0.3357199999999999,-0.941953155,-0.30383223,-0.12023895
1764511660.6188853,-4.36436,1.87698,-0.3357199999999999,-0.941953155,-0.30383223,-0.12023895
1764511660.6188853,-4.36436,1.87698,-0.3357199999999999,-0.941953155,-0.30383223,-0.12023895
1764511660.6188853,-4.36436,1.87698,-0.3357199999999999,-0.941953155,-0.30383223,-0.12023895
1764511660.6188853,-4.36436,1.87698,-0.3357199999999999,-0.941953155,-0.30383223,-0.12023895
1764511660.6188853,-4.36436,1.87698,-0.3357199999999999,-0.941953155,-0.30383223,-0.12023895
1764511660.664529,-5.60042,0.9156,-0.01526,-0.942685575,-0.30078048,-0.12182586
1764511660.664529,-5.60042,0.9156,-0.01526,-0.942685575,-0.30078048,-0.12182586
1764511660.664529,-5.60042,0.9156,-0.01526,-0.942685575,-0.30078048,-0.12182586
1764511660.664529,-5.60042,0.9156,-0.01526,-0.942685575,-0.30078048,-0.12182586
1764511660.664529,-5.60042,0.9156,-0.01526,-0.942685575,-0.30078048,-0.12182586
1764511660.665526,-5.60042,0.9156,-0.01526,-0.942685575,-0.30078048,-0.12182586
1764511660.665526,-5.60042,0.9156,-0.01526,-0.942685575,-0.30078048,-0.12182586
1764511660.665526,-5.60042,0.9156,-0.01526,-0.942685575,-0.30078048,-0.12182586
1764511660.665526,-5.60042,0.9156,-0.01526,-0.942685575,-0.30078048,-0.12182586
1764511660.666036,-5.60042,0.9156,-0.01526,-0.942685575,-0.30078048,-0.12182586
1764511660.666036,-6.72966,0.3509799999999999,0.27468,-0.94225833,-0.301573935,-0.122985525
1764511660.666036,-6.72966,0.3509799999999999,0.27468,-0.94225833,-0.301573935,-0.122985525
1764511660.666036,-6.72966,0.3509799999999999,0.27468,-0.94225833,-0.301573935,-0.122985525
1764511660.666544,-6.72966,0.3509799999999999,0.27468,-0.94225833,-0.301573935,-0.122985525
1764511660.666544,-6.72966,0.3509799999999999,0.27468,-0.94225833,-0.301573935,-0.122985525
1764511660.666544,-6.72966,0.3509799999999999,0.27468,-0.94225833,-0.301573935,-0.122985525
1764511660.6670742,-6.72966,0.3509799999999999,0.27468,-0.94225833,-0.301573935,-0.122985525
1764511660.6670742,-6.72966,0.3509799999999999,0.27468,-0.94225833,-0.301573935,-0.122985525
1764511660.6670742,-6.72966,0.3509799999999999,0.27468,-0.94225833,-0.301573935,-0.122985525
1764511660.6670742,-6.72966,0.3509799999999999,0.27468,-0.94225833,-0.301573935,-0.122985525
1764511660.6670742,-5.646199999999999,0.9003399999999999,0.9003399999999999,-0.940488315,-0.302428425,-0.12182586
1764511660.6670742,-5.646199999999999,0.9003399999999999,0.9003399999999999,-0.940488315,-0.302428425,-0.12182586
1764511660.6670742,-5.646199999999999,0.9003399999999999,0.9003399999999999,-0.940488315,-0.302428425,-0.12182586
1764511660.6670742,-5.646199999999999,0.9003399999999999,0.9003399999999999,-0.940488315,-0.302428425,-0.12182586
1764511660.7101276,-5.646199999999999,0.9003399999999999,0.9003399999999999,-0.940488315,-0.302428425,-0.12182586
1764511660.7101276,-5.646199999999999,0.9003399999999999,0.9003399999999999,-0.940488315,-0.302428425,-0.12182586
1764511660.7101276,-5.646199999999999,0.9003399999999999,0.9003399999999999,-0.940488315,-0.302428425,-0.12182586
1764511660.7101276,-5.646199999999999,0.9003399999999999,0.9003399999999999,-0.940488315,-0.302428425,-0.12182586
1764511660.7111158,-5.646199999999999,0.9003399999999999,0.9003399999999999,-0.940488315,-0.302428425,-0.12182586
1764511660.7111158,-5.646199999999999,0.9003399999999999,0.9003399999999999,-0.940488315,-0.302428425,-0.12182586
1764511660.7111158,-4.08968,2.30426,0.21364,-0.938535195,-0.30419844,-0.120055845
1764511660.7111158,-4.08968,2.30426,0.21364,-0.938535195,-0.30419844,-0.120055845
1764511660.7111158,-4.08968,2.30426,0.21364,-0.938535195,-0.30419844,-0.120055845
1764511660.7111158,-4.08968,2.30426,0.21364,-0.938535195,-0.30419844,-0.120055845
1764511660.7111158,-4.08968,2.30426,0.21364,-0.938535195,-0.30419844,-0.120055845
1764511660.7111158,-4.08968,2.30426,0.21364,-0.938535195,-0.30419844,-0.120055845
1764511660.7111158,-4.08968,2.30426,0.21364,-0.938535195,-0.30419844,-0.120055845
1764511660.7111158,-4.08968,2.30426,0.21364,-0.938535195,-0.30419844,-0.120055845
1764511660.7111158,-4.08968,2.30426,0.21364,-0.938535195,-0.30419844,-0.120055845
1764511660.7111158,-4.08968,2.30426,0.21364,-0.938535195,-0.30419844,-0.120055845
1764511660.7111158,-3.57084,1.81594,0.25942,-0.939267615,-0.30383223,-0.1196286
1764511660.7111158,-3.57084,1.81594,0.25942,-0.939267615,-0.30383223,-0.1196286
1764511660.7111158,-3.57084,1.81594,0.25942,-0.939267615,-0.30383223,-0.1196286
1764511660.7111158,-3.57084,1.81594,0.25942,-0.939267615,-0.30383223,-0.1196286
1764511660.7111158,-3.57084,1.81594,0.25942,-0.939267615,-0.30383223,-0.1196286
1764511660.7111158,-3.57084,1.81594,0.25942,-0.939267615,-0.30383223,-0.1196286
1764511660.7606108,-3.57084,1.81594,0.25942,-0.939267615,-0.30383223,-0.1196286
1764511660.7606108,-3.57084,1.81594,0.25942,-0.939267615,-0.30383223,-0.1196286
1764511660.7606108,-3.57084,1.81594,0.25942,-0.939267615,-0.30383223,-0.1196286
1764511660.7606108,-3.57084,1.81594,0.25942,-0.939267615,-0.30383223,-0.1196286
1764511660.7606108,-4.25754,1.11398,0.3509799999999999,-0.941098665,-0.30248946,-0.119933775
1764511660.7606108,-4.25754,1.11398,0.3509799999999999,-0.941098665,-0.30248946,-0.119933775
1764511660.7606108,-4.25754,1.11398,0.3509799999999999,-0.941098665,-0.30248946,-0.119933775
1764511660.7606108,-4.25754,1.11398,0.3509799999999999,-0.941098665,-0.30248946,-0.119933775
1764511660.7606108,-4.25754,1.11398,0.3509799999999999,-0.941098665,-0.30248946,-0.119933775
1764511660.7606108,-4.25754,1.11398,0.3509799999999999,-0.941098665,-0.30248946,-0.119933775
1764511660.7606108,-4.25754,1.11398,0.3509799999999999,-0.941098665,-0.30248946,-0.119933775
1764511660.7606108,-4.25754,1.11398,0.3509799999999999,-0.941098665,-0.30248946,-0.119933775
1764511660.7606108,-4.25754,1.11398,0.3509799999999999,-0.941098665,-0.30248946,-0.119933775
1764511660.7606108,-4.25754,1.11398,0.3509799999999999,-0.941098665,-0.30248946,-0.119933775
1764511660.7606108,-6.08874,1.02242,0.65618,-0.94164798,-0.30139083,-0.120910335
1764511660.7606108,-6.08874,1.02242,0.65618,-0.94164798,-0.30139083,-0.120910335
1764511660.7606108,-6.08874,1.02242,0.65618,-0.94164798,-0.30139083,-0.120910335
1764511660.7606108,-6.08874,1.02242,0.65618,-0.94164798,-0.30139083,-0.120910335
1764511660.7606108,-6.08874,1.02242,0.65618,-0.94164798,-0.30139083,-0.120910335
1764511660.7606108,-6.08874,1.02242,0.65618,-0.94164798,-0.30139083,-0.120910335
1764511660.7606108,-6.08874,1.02242,0.65618,-0.94164798,-0.30139083,-0.120910335
1764511660.7606108,-6.08874,1.02242,0.65618,-0.94164798,-0.30139083,-0.120910335
1764511660.7606108,-6.08874,1.02242,0.65618,-0.94164798,-0.30139083,-0.120910335
1764511660.7606108,-6.08874,1.02242,0.65618,-0.94164798,-0.30139083,-0.120910335
1764511660.7606108,-7.12642,1.526,1.2208,-0.94140384,-0.301329795,-0.12133758
1764511660.7606108,-7.12642,1.526,1.2208,-0.94140384,-0.301329795,-0.12133758
1764511660.8057995,-7.12642,1.526,1.2208,-0.94140384,-0.301329795,-0.12133758
1764511660.8057995,-7.12642,1.526,1.2208,-0.94140384,-0.301329795,-0.12133758
1764511660.8057995,-7.12642,1.526,1.2208,-0.94140384,-0.301329795,-0.12133758
1764511660.8057995,-7.12642,1.526,1.2208,-0.94140384,-0.301329795,-0.12133758
1764511660.8057995,-7.12642,1.526,1.2208,-0.94140384,-0.301329795,-0.12133758
1764511660.8057995,-7.12642,1.526,1.2208,-0.94140384,-0.301329795,-0.12133758
1764511660.8057995,-7.12642,1.526,1.2208,-0.94140384,-0.301329795,-0.12133758
1764511660.8057995,-7.12642,1.526,1.2208,-0.94140384,-0.301329795,-0.12133758
1764511660.8057995,-7.340059999999999,1.26658,1.32762,-0.941464875,-0.30285567,-0.121520685
1764511660.8057995,-7.340059999999999,1.26658,1.32762,-0.941464875,-0.30285567,-0.121520685
1764511660.8057995,-7.340059999999999,1.26658,1.32762,-0.941464875,-0.30285567,-0.121520685
1764511660.8057995,-7.340059999999999,1.26658,1.32762,-0.941464875,-0.30285567,-0.121520685
1764511660.8057995,-7.340059999999999,1.26658,1.32762,-0.941464875,-0.30285567,-0.121520685
1764511660.8057995,-7.340059999999999,1.26658,1.32762,-0.941464875,-0.30285567,-0.121520685
1764511660.8057995,-7.340059999999999,1.26658,1.32762,-0.941464875,-0.30285567,-0.121520685
1764511660.8068132,-7.340059999999999,1.26658,1.32762,-0.941464875,-0.30285567,-0.121520685
1764511660.8068132,-7.340059999999999,1.26658,1.32762,-0.941464875,-0.30285567,-0.121520685
1764511660.8068132,-7.340059999999999,1.26658,1.32762,-0.941464875,-0.30285567,-0.121520685
1764511660.8068132,-5.38678,1.7549,0.04578,-0.940732455,-0.303771195,-0.12072723
1764511660.8068132,-5.38678,1.7549,0.04578,-0.940732455,-0.303771195,-0.12072723
1764511660.8068132,-5.38678,1.7549,0.04578,-0.940732455,-0.303771195,-0.12072723
1764511660.8068132,-5.38678,1.7549,0.04578,-0.940732455,-0.303771195,-0.12072723
1764511660.8514748,-5.38678,1.7549,0.04578,-0.940732455,-0.303771195,-0.12072723
1764511660.8514748,-5.38678,1.7549,0.04578,-0.940732455,-0.303771195,-0.12072723
1764511660.8514748,-5.38678,1.7549,0.04578,-0.940732455,-0.303771195,-0.12072723
1764511660.8514748,-5.38678,1.7549,0.04578,-0.940732455,-0.303771195,-0.12072723
1764511660.8514748,-5.38678,1.7549,0.04578,-0.940732455,-0.303771195,-0.12072723
1764511660.8514748,-5.38678,1.7549,0.04578,-0.940732455,-0.303771195,-0.12072723
1764511660.8514748,-3.75396,1.05294,0.12208,-0.94140384,-0.304381545,-0.120666195
1764511660.8514748,-3.75396,1.05294,0.12208,-0.94140384,-0.304381545,-0.120666195
1764511660.8514748,-3.75396,1.05294,0.12208,-0.94140384,-0.304381545,-0.120666195
1764511660.8514748,-3.75396,1.05294,0.12208,-0.94140384,-0.304381545,-0.120666195
1764511660.8514748,-3.75396,1.05294,0.12208,-0.94140384,-0.304381545,-0.120666195
1764511660.8514748,-3.75396,1.05294,0.12208,-0.94140384,-0.304381545,-0.120666195
1764511660.8514748,-3.75396,1.05294,0.12208,-0.94140384,-0.304381545,-0.120666195
1764511660.8514748,-3.75396,1.05294,0.12208,-0.94140384,-0.304381545,-0.120666195
1764511660.8514748,-3.75396,1.05294,0.12208,-0.94140384,-0.304381545,-0.120666195
1764511660.8514748,-3.75396,1.05294,0.12208,-0.94140384,-0.304381545,-0.120666195
1764511660.8514748,-3.90656,1.51074,1.41918,-0.940366245,-0.303649125,-0.119933775
1764511660.8514748,-3.90656,1.51074,1.41918,-0.940366245,-0.303649125,-0.119933775
1764511660.8514748,-3.90656,1.51074,1.41918,-0.940366245,-0.303649125,-0.119933775
1764511660.8514748,-3.90656,1.51074,1.41918,-0.940366245,-0.303649125,-0.119933775
1764511660.8514748,-3.90656,1.51074,1.41918,-0.940366245,-0.303649125,-0.119933775
1764511660.8514748,-3.90656,1.51074,1.41918,-0.940366245,-0.303649125,-0.119933775
1764511660.8514748,-3.90656,1.51074,1.41918,-0.940366245,-0.303649125,-0.119933775
1764511660.8514748,-3.90656,1.51074,1.41918,-0.940366245,-0.303649125,-0.119933775
1764511660.9011726,-3.90656,1.51074,1.41918,-0.940366245,-0.303649125,-0.119933775
1764511660.9011726,-3.90656,1.51074,1.41918,-0.940366245,-0.303649125,-0.119933775
1764511660.9011726,-5.17314,1.64808,0.97664,-0.941342805,-0.301573935,-0.12011688
1764511660.9011726,-5.17314,1.64808,0.97664,-0.941342805,-0.301573935,-0.12011688
1764511660.9021668,-5.17314,1.64808,0.97664,-0.941342805,-0.301573935,-0.12011688
1764511660.9021668,-5.17314,1.64808,0.97664,-0.941342805,-0.301573935,-0.12011688
1764511660.9021668,-5.17314,1.64808,0.97664,-0.941342805,-0.301573935,-0.12011688
1764511660.9021668,-5.17314,1.64808,0.97664,-0.941342805,-0.301573935,-0.12011688
1764511660.9021668,-5.17314,1.64808,0.97664,-0.941342805,-0.301573935,-0.12011688
1764511660.90316,-5.17314,1.64808,0.97664,-0.941342805,-0.301573935,-0.12011688
1764511660.90316,-5.17314,1.64808,0.97664,-0.941342805,-0.301573935,-0.12011688
1764511660.90316,-5.17314,1.64808,0.97664,-0.941342805,-0.301573935,-0.12011688
1764511660.90316,-6.165039999999999,1.32762,0.65618,-0.942319365,-0.301207725,-0.121032405
1764511660.90316,-6.165039999999999,1.32762,0.65618,-0.942319365,-0.301207725,-0.121032405
1764511660.904158,-6.165039999999999,1.32762,0.65618,-0.942319365,-0.301207725,-0.121032405
1764511660.904158,-6.165039999999999,1.32762,0.65618,-0.942319365,-0.301207725,-0.121032405
1764511660.904158,-6.165039999999999,1.32762,0.65618,-0.942319365,-0.301207725,-0.121032405
1764511660.904158,-6.165039999999999,1.32762,0.65618,-0.942319365,-0.301207725,-0.121032405
1764511660.904158,-6.165039999999999,1.32762,0.65618,-0.942319365,-0.301207725,-0.121032405
1764511660.904158,-6.165039999999999,1.32762,0.65618,-0.942319365,-0.301207725,-0.121032405
1764511660.904158,-6.165039999999999,1.32762,0.65618,-0.942319365,-0.301207725,-0.121032405
1764511660.904158,-6.165039999999999,1.32762,0.65618,-0.942319365,-0.301207725,-0.121032405
1764511660.9056685,-6.821219999999999,1.48022,0.10682,-0.94286868,-0.30078048,-0.122741385
1764511660.9056685,-6.821219999999999,1.48022,0.10682,-0.94286868,-0.30078048,-0.122741385
1764511660.9434996,-6.821219999999999,1.48022,0.10682,-0.94286868,-0.30078048,-0.122741385
1764511660.9434996,-6.821219999999999,1.48022,0.10682,-0.94286868,-0.30078048,-0.122741385
1764511660.9434996,-6.821219999999999,1.48022,0.10682,-0.94286868,-0.30078048,-0.122741385
1764511660.9434996,-6.821219999999999,1.48022,0.10682,-0.94286868,-0.30078048,-0.122741385
1764511660.9434996,-6.821219999999999,1.48022,0.10682,-0.94286868,-0.30078048,-0.122741385
1764511660.9434996,-6.821219999999999,1.48022,0.10682,-0.94286868,-0.30078048,-0.122741385
1764511660.9434996,-6.821219999999999,1.48022,0.10682,-0.94286868,-0.30078048,-0.122741385
1764511660.9434996,-6.821219999999999,1.48022,0.10682,-0.94286868,-0.30078048,-0.122741385
1764511660.9434996,-7.095899999999999,0.96138,0.74774,-0.94201419,-0.30248946,-0.123717945
1764511660.9434996,-7.095899999999999,0.96138,0.74774,-0.94201419,-0.30248946,-0.123717945
1764511660.9434996,-7.095899999999999,0.96138,0.74774,-0.94201419,-0.30248946,-0.123717945
1764511660.9445088,-7.095899999999999,0.96138,0.74774,-0.94201419,-0.30248946,-0.123717945
1764511660.9445088,-7.095899999999999,0.96138,0.74774,-0.94201419,-0.30248946,-0.123717945
1764511660.9445088,-7.095899999999999,0.96138,0.74774,-0.94201419,-0.30248946,-0.123717945
1764511660.9445088,-7.095899999999999,0.96138,0.74774,-0.94201419,-0.30248946,-0.123717945
1764511660.9445088,-7.095899999999999,0.96138,0.74774,-0.94201419,-0.30248946,-0.123717945
1764511660.9445088,-7.095899999999999,0.96138,0.74774,-0.94201419,-0.30248946,-0.123717945
1764511660.9445088,-7.095899999999999,0.96138,0.74774,-0.94201419,-0.30248946,-0.123717945
1764511660.9445088,-6.24134,1.4497,1.2055399999999998,-0.94042728,-0.304137405,-0.12292449
1764511660.9445088,-6.24134,1.4497,1.2055399999999998,-0.94042728,-0.304137405,-0.12292449
1764511660.9445088,-6.24134,1.4497,1.2055399999999998,-0.94042728,-0.304137405,-0.12292449
1764511660.9445088,-6.24134,1.4497,1.2055399999999998,-0.94042728,-0.304137405,-0.12292449
1764511660.988945,-6.24134,1.4497,1.2055399999999998,-0.94042728,-0.304137405,-0.12292449
1764511660.988945,-6.24134,1.4497,1.2055399999999998,-0.94042728,-0.304137405,-0.12292449
1764511660.990988,-6.24134,1.4497,1.2055399999999998,-0.94042728,-0.304137405,-0.12292449
1764511660.990988,-6.24134,1.4497,1.2055399999999998,-0.94042728,-0.304137405,-0.12292449
1764511660.990988,-6.24134,1.4497,1.2055399999999998,-0.94042728,-0.304137405,-0.12292449
1764511660.990988,-6.24134,1.4497,1.2055399999999998,-0.94042728,-0.304137405,-0.12292449
1764511660.990988,-4.76112,2.4416,1.03768,-0.93957279,-0.305602245,-0.12133758
1764511660.990988,-4.76112,2.4416,1.03768,-0.93957279,-0.305602245,-0.12133758
1764511660.990988,-4.76112,2.4416,1.03768,-0.93957279,-0.305602245,-0.12133758
1764511660.990988,-4.76112,2.4416,1.03768,-0.93957279,-0.305602245,-0.12133758
1764511660.990988,-4.76112,2.4416,1.03768,-0.93957279,-0.305602245,-0.12133758
1764511660.990988,-4.76112,2.4416,1.03768,-0.93957279,-0.305602245,-0.12133758
1764511660.9919837,-4.76112,2.4416,1.03768,-0.93957279,-0.305602245,-0.12133758
1764511660.9919837,-4.76112,2.4416,1.03768,-0.93957279,-0.305602245,-0.12133758
1764511660.9919837,-4.76112,2.4416,1.03768,-0.93957279,-0.305602245,-0.12133758
1764511660.9919837,-4.76112,2.4416,1.03768,-0.93957279,-0.305602245,-0.12133758
1764511660.9919837,-3.26564,1.2208,0.97664,-0.94067142,-0.305113965,-0.120055845
1764511660.9919837,-3.26564,1.2208,0.97664,-0.94067142,-0.305113965,-0.120055845
1764511660.9924974,-3.26564,1.2208,0.97664,-0.94067142,-0.305113965,-0.120055845
1764511660.9924974,-3.26564,1.2208,0.97664,-0.94067142,-0.305113965,-0.120055845
1764511660.9924974,-3.26564,1.2208,0.97664,-0.94067142,-0.305113965,-0.120055845
1764511660.9924974,-3.26564,1.2208,0.97664,-0.94067142,-0.305113965,-0.120055845
1764511660.9924974,-3.26564,1.2208,0.97664,-0.94067142,-0.305113965,-0.120055845
1764511660.9924974,-3.26564,1.2208,0.97664,-0.94067142,-0.305113965,-0.120055845
1764511661.035639,-3.26564,1.2208,0.97664,-0.94067142,-0.305113965,-0.120055845
1764511661.035639,-3.26564,1.2208,0.97664,-0.94067142,-0.305113965,-0.120055845
1764511661.035639,-4.33384,1.17502,0.73248,-0.942319365,-0.30200118,-0.120666195
1764511661.035639,-4.33384,1.17502,0.73248,-0.942319365,-0.30200118,-0.120666195
1764511661.035639,-4.33384,1.17502,0.73248,-0.942319365,-0.30200118,-0.120666195
1764511661.035639,-4.33384,1.17502,0.73248,-0.942319365,-0.30200118,-0.120666195
1764511661.035639,-4.33384,1.17502,0.73248,-0.942319365,-0.30200118,-0.120666195
1764511661.0366523,-4.33384,1.17502,0.73248,-0.942319365,-0.30200118,-0.120666195
1764511661.0387146,-4.33384,1.17502,0.73248,-0.942319365,-0.30200118,-0.120666195
1764511661.0387146,-4.33384,1.17502,0.73248,-0.942319365,-0.30200118,-0.120666195
1764511661.039713,-4.33384,1.17502,0.73248,-0.942319365,-0.30200118,-0.120666195
1764511661.039713,-4.33384,1.17502,0.73248,-0.942319365,-0.30200118,-0.120666195
1764511661.039713,-5.9514,1.12924,0.763,-0.94225833,-0.299010465,-0.122131035
1764511661.039713,-5.9514,1.12924,0.763,-0.94225833,-0.299010465,-0.122131035
1764511661.039713,-5.9514,1.12924,0.763,-0.94225833,-0.299010465,-0.122131035
1764511661.039713,-5.9514,1.12924,0.763,-0.94225833,-0.299010465,-0.122131035
1764511661.039713,-5.9514,1.12924,0.763,-0.94225833,-0.299010465,-0.122131035
1764511661.039713,-5.9514,1.12924,0.763,-0.94225833,-0.299010465,-0.122131035
1764511661.039713,-5.9514,1.12924,0.763,-0.94225833,-0.299010465,-0.122131035
1764511661.039713,-5.9514,1.12924,0.763,-0.94225833,-0.299010465,-0.122131035
1764511661.039713,-5.9514,1.12924,0.763,-0.94225833,-0.299010465,-0.122131035
1764511661.039713,-5.9514,1.12924,0.763,-0.94225833,-0.299010465,-0.122131035
1764511661.0838976,-7.12642,1.1445,0.44254,-0.94274661,-0.29858322,-0.123351735
1764511661.0838976,-7.12642,1.1445,0.44254,-0.94274661,-0.29858322,-0.123351735
1764511661.0838976,-7.12642,1.1445,0.44254,-0.94274661,-0.29858322,-0.123351735
1764511661.0838976,-7.12642,1.1445,0.44254,-0.94274661,-0.29858322,-0.123351735
1764511661.0838976,-7.12642,1.1445,0.44254,-0.94274661,-0.29858322,-0.123351735
1764511661.0838976,-7.12642,1.1445,0.44254,-0.94274661,-0.29858322,-0.123351735
1764511661.0838976,-7.12642,1.1445,0.44254,-0.94274661,-0.29858322,-0.123351735
1764511661.0838976,-7.12642,1.1445,0.44254,-0.94274661,-0.29858322,-0.123351735
1764511661.0857034,-7.12642,1.1445,0.44254,-0.94274661,-0.29858322,-0.123351735
1764511661.0857034,-7.12642,1.1445,0.44254,-0.94274661,-0.29858322,-0.123351735
1764511661.0857034,-7.18746,1.6633399999999998,0.0,-0.94213626,-0.299987025,-0.12402312
1764511661.0857034,-7.18746,1.6633399999999998,0.0,-0.94213626,-0.299987025,-0.12402312
1764511661.0867364,-7.18746,1.6633399999999998,0.0,-0.94213626,-0.299987025,-0.12402312
1764511661.0867364,-7.18746,1.6633399999999998,0.0,-0.94213626,-0.299987025,-0.12402312
1764511661.0867364,-7.18746,1.6633399999999998,0.0,-0.94213626,-0.299987025,-0.12402312
1764511661.087732,-7.18746,1.6633399999999998,0.0,-0.94213626,-0.299987025,-0.12402312
1764511661.087732,-7.18746,1.6633399999999998,0.0,-0.94213626,-0.299987025,-0.12402312
1764511661.087732,-7.18746,1.6633399999999998,0.0,-0.94213626,-0.299987025,-0.12402312
1764511661.087732,-7.18746,1.6633399999999998,0.0,-0.94213626,-0.299987025,-0.12402312
1764511661.087732,-7.18746,1.6633399999999998,0.0,-0.94213626,-0.299987025,-0.12402312
1764511661.087732,-6.08874,1.57178,0.21364,-0.94177005,-0.30175704,-0.12414519
1764511661.087732,-6.08874,1.57178,0.21364,-0.94177005,-0.30175704,-0.12414519
1764511661.1325305,-6.08874,1.57178,0.21364,-0.94177005,-0.30175704,-0.12414519
1764511661.1325305,-6.08874,1.57178,0.21364,-0.94177005,-0.30175704,-0.12414519
1764511661.1325305,-6.08874,1.57178,0.21364,-0.94177005,-0.30175704,-0.12414519
1764511661.1325305,-6.08874,1.57178,0.21364,-0.94177005,-0.30175704,-0.12414519
1764511661.1325305,-6.08874,1.57178,0.21364,-0.94177005,-0.30175704,-0.12414519
1764511661.1325305,-6.08874,1.57178,0.21364,-0.94177005,-0.30175704,-0.12414519
1764511661.1325305,-6.08874,1.57178,0.21364,-0.94177005,-0.30175704,-0.12414519
1764511661.1325305,-6.08874,1.57178,0.21364,-0.94177005,-0.30175704,-0.12414519
1764511661.1325305,-5.14262,1.7549,0.6103999999999999,-0.94079349,-0.30297774,-0.1232907
1764511661.1325305,-5.14262,1.7549,0.6103999999999999,-0.94079349,-0.30297774,-0.1232907
1764511661.1335697,-5.14262,1.7549,0.6103999999999999,-0.94079349,-0.30297774,-0.1232907
1764511661.1335697,-5.14262,1.7549,0.6103999999999999,-0.94079349,-0.30297774,-0.1232907
1764511661.1335697,-5.14262,1.7549,0.6103999999999999,-0.94079349,-0.30297774,-0.1232907
1764511661.1335697,-5.14262,1.7549,0.6103999999999999,-0.94079349,-0.30297774,-0.1232907
1764511661.1335697,-5.14262,1.7549,0.6103999999999999,-0.94079349,-0.30297774,-0.1232907
1764511661.1335697,-5.14262,1.7549,0.6103999999999999,-0.94079349,-0.30297774,-0.1232907
1764511661.1335697,-5.14262,1.7549,0.6103999999999999,-0.94079349,-0.30297774,-0.1232907
1764511661.1335697,-5.14262,1.7549,0.6103999999999999,-0.94079349,-0.30297774,-0.1232907
1764511661.1335697,-4.53222,1.63282,0.9919,-0.940366245,-0.30334395,-0.12268035
1764511661.1335697,-4.53222,1.63282,0.9919,-0.940366245,-0.30334395,-0.12268035
1764511661.1335697,-4.53222,1.63282,0.9919,-0.940366245,-0.30334395,-0.12268035
1764511661.1335697,-4.53222,1.63282,0.9919,-0.940366245,-0.30334395,-0.12268035
1764511661.1335697,-4.53222,1.63282,0.9919,-0.940366245,-0.30334395,-0.12268035
1764511661.1335697,-4.53222,1.63282,0.9919,-0.940366245,-0.30334395,-0.12268035
1764511661.1335697,-4.53222,1.63282,0.9919,-0.940366245,-0.30334395,-0.12268035
1764511661.1335697,-4.53222,1.63282,0.9919,-0.940366245,-0.30334395,-0.12268035
1764511661.177632,-4.53222,1.63282,0.9919,-0.940366245,-0.30334395,-0.12268035
1764511661.177632,-4.53222,1.63282,0.9919,-0.940366245,-0.30334395,-0.12268035
1764511661.177632,-4.440659999999999,1.78542,1.08346,-0.94103763,-0.30212325,-0.122253105
1764511661.177632,-4.440659999999999,1.78542,1.08346,-0.94103763,-0.30212325,-0.122253105
1764511661.177632,-4.440659999999999,1.78542,1.08346,-0.94103763,-0.30212325,-0.122253105
1764511661.177632,-4.440659999999999,1.78542,1.08346,-0.94103763,-0.30212325,-0.122253105
1764511661.177632,-4.440659999999999,1.78542,1.08346,-0.94103763,-0.30212325,-0.122253105
1764511661.177632,-4.440659999999999,1.78542,1.08346,-0.94103763,-0.30212325,-0.122253105
1764511661.177632,-4.440659999999999,1.78542,1.08346,-0.94103763,-0.30212325,-0.122253105
1764511661.177632,-4.440659999999999,1.78542,1.08346,-0.94103763,-0.30212325,-0.122253105
1764511661.177632,-4.440659999999999,1.78542,1.08346,-0.94103763,-0.30212325,-0.122253105
1764511661.177632,-4.440659999999999,1.78542,1.08346,-0.94103763,-0.30212325,-0.122253105
1764511661.1788323,-4.76112,1.23606,0.54936,-0.94189212,-0.3015129,-0.122008965
1764511661.1788323,-4.76112,1.23606,0.54936,-0.94189212,-0.3015129,-0.122008965
1764511661.1788323,-4.76112,1.23606,0.54936,-0.94189212,-0.3015129,-0.122008965
1764511661.1788323,-4.76112,1.23606,0.54936,-0.94189212,-0.3015129,-0.122008965
1764511661.1788323,-4.76112,1.23606,0.54936,-0.94189212,-0.3015129,-0.122008965
1764511661.1788323,-4.76112,1.23606,0.54936,-0.94189212,-0.3015129,-0.122008965
1764511661.1788323,-4.76112,1.23606,0.54936,-0.94189212,-0.3015129,-0.122008965
1764511661.1788323,-4.76112,1.23606,0.54936,-0.94189212,-0.3015129,-0.122008965
1764511661.1788323,-4.76112,1.23606,0.54936,-0.94189212,-0.3015129,-0.122008965
1764511661.1788323,-4.76112,1.23606,0.54936,-0.94189212,-0.3015129,-0.122008965
1764511661.2271247,-5.84458,1.12924,0.51884,-0.942197295,-0.30090255,-0.12170379
1764511661.2271247,-5.84458,1.12924,0.51884,-0.942197295,-0.30090255,-0.12170379
1764511661.2271247,-5.84458,1.12924,0.51884,-0.942197295,-0.30090255,-0.12170379
1764511661.2271247,-5.84458,1.12924,0.51884,-0.942197295,-0.30090255,-0.12170379
1764511661.2271247,-5.84458,1.12924,0.51884,-0.942197295,-0.30090255,-0.12170379
1764511661.2271247,-5.84458,1.12924,0.51884,-0.942197295,-0.30090255,-0.12170379
1764511661.2271247,-5.84458,1.12924,0.51884,-0.942197295,-0.30090255,-0.12170379
1764511661.2271247,-5.84458,1.12924,0.51884,-0.942197295,-0.30090255,-0.12170379
1764511661.2271247,-5.84458,1.12924,0.51884,-0.942197295,-0.30090255,-0.12170379
1764511661.2271247,-5.84458,1.12924,0.51884,-0.942197295,-0.30090255,-0.12170379
1764511661.2271247,-6.08874,1.41918,0.50358,-0.941220735,-0.30053634,-0.122619315
1764511661.2271247,-6.08874,1.41918,0.50358,-0.941220735,-0.30053634,-0.122619315
1764511661.2271247,-6.08874,1.41918,0.50358,-0.941220735,-0.30053634,-0.122619315
1764511661.228128,-6.08874,1.41918,0.50358,-0.941220735,-0.30053634,-0.122619315
1764511661.228128,-6.08874,1.41918,0.50358,-0.941220735,-0.30053634,-0.122619315
1764511661.228128,-6.08874,1.41918,0.50358,-0.941220735,-0.30053634,-0.122619315
1764511661.228128,-6.08874,1.41918,0.50358,-0.941220735,-0.30053634,-0.122619315
1764511661.228128,-6.08874,1.41918,0.50358,-0.941220735,-0.30053634,-0.122619315
1764511661.228128,-6.08874,1.41918,0.50358,-0.941220735,-0.30053634,-0.122619315
1764511661.228128,-6.08874,1.41918,0.50358,-0.941220735,-0.30053634,-0.122619315
1764511661.228128,-6.165039999999999,1.23606,0.763,-0.94128177,-0.30175704,-0.122619315
1764511661.228128,-6.165039999999999,1.23606,0.763,-0.94128177,-0.30175704,-0.122619315
1764511661.228128,-6.165039999999999,1.23606,0.763,-0.94128177,-0.30175704,-0.122619315
1764511661.228128,-6.165039999999999,1.23606,0.763,-0.94128177,-0.30175704,-0.122619315
1764511661.2732975,-6.165039999999999,1.23606,0.763,-0.94128177,-0.30175704,-0.122619315
1764511661.2732975,-6.165039999999999,1.23606,0.763,-0.94128177,-0.30175704,-0.122619315
1764511661.2732975,-6.165039999999999,1.23606,0.763,-0.94128177,-0.30175704,-0.122619315
1764511661.2732975,-6.165039999999999,1.23606,0.763,-0.94128177,-0.30175704,-0.122619315
1764511661.2743237,-6.165039999999999,1.23606,0.763,-0.94128177,-0.30175704,-0.122619315
1764511661.2743237,-6.165039999999999,1.23606,0.763,-0.94128177,-0.30175704,-0.122619315
1764511661.2743237,-4.41014,1.12924,0.9919,-0.941098665,-0.3027336,-0.122253105
1764511661.2743237,-4.41014,1.12924,0.9919,-0.941098665,-0.3027336,-0.122253105
1764511661.2743237,-4.41014,1.12924,0.9919,-0.941098665,-0.3027336,-0.122253105
1764511661.2743237,-4.41014,1.12924,0.9919,-0.941098665,-0.3027336,-0.122253105
1764511661.2743237,-4.41014,1.12924,0.9919,-0.941098665,-0.3027336,-0.122253105
1764511661.2743237,-4.41014,1.12924,0.9919,-0.941098665,-0.3027336,-0.122253105
1764511661.2743237,-4.41014,1.12924,0.9919,-0.941098665,-0.3027336,-0.122253105
1764511661.2743237,-4.41014,1.12924,0.9919,-0.941098665,-0.3027336,-0.122253105
1764511661.2743237,-4.41014,1.12924,0.9919,-0.941098665,-0.3027336,-0.122253105
1764511661.2743237,-4.41014,1.12924,0.9919,-0.941098665,-0.3027336,-0.122253105
1764511661.2743237,-4.39488,1.2208,0.41202,-0.941953155,-0.302428425,-0.122131035
1764511661.2743237,-4.39488,1.2208,0.41202,-0.941953155,-0.302428425,-0.122131035
1764511661.2743237,-4.39488,1.2208,0.41202,-0.941953155,-0.302428425,-0.122131035
1764511661.2743237,-4.39488,1.2208,0.41202,-0.941953155,-0.302428425,-0.122131035
1764511661.2743237,-4.39488,1.2208,0.41202,-0.941953155,-0.302428425,-0.122131035
1764511661.2743237,-4.39488,1.2208,0.41202,-0.941953155,-0.302428425,-0.122131035
1764511661.3181174,-4.39488,1.2208,0.41202,-0.941953155,-0.302428425,-0.122131035
1764511661.319138,-4.39488,1.2208,0.41202,-0.941953155,-0.302428425,-0.122131035
1764511661.319138,-4.39488,1.2208,0.41202,-0.941953155,-0.302428425,-0.122131035
1764511661.319138,-4.39488,1.2208,0.41202,-0.941953155,-0.302428425,-0.122131035
1764511661.319138,-4.70008,1.15976,1.00716,-0.940976595,-0.300719445,-0.12255828
1764511661.319138,-4.70008,1.15976,1.00716,-0.940976595,-0.300719445,-0.12255828
1764511661.320132,-4.70008,1.15976,1.00716,-0.940976595,-0.300719445,-0.12255828
1764511661.320132,-4.70008,1.15976,1.00716,-0.940976595,-0.300719445,-0.12255828
1764511661.320132,-4.70008,1.15976,1.00716,-0.940976595,-0.300719445,-0.12255828
1764511661.320132,-4.70008,1.15976,1.00716,-0.940976595,-0.300719445,-0.12255828
1764511661.3211305,-4.70008,1.15976,1.00716,-0.940976595,-0.300719445,-0.12255828
1764511661.3211305,-4.70008,1.15976,1.00716,-0.940976595,-0.300719445,-0.12255828
1764511661.3211305,-4.70008,1.15976,1.00716,-0.940976595,-0.300719445,-0.12255828
1764511661.3211305,-4.70008,1.15976,1.00716,-0.940976595,-0.300719445,-0.12255828
1764511661.3211305,-3.052,1.25132,1.23606,-0.94030521,-0.300963585,-0.122131035
1764511661.322127,-3.052,1.25132,1.23606,-0.94030521,-0.300963585,-0.122131035
1764511661.322127,-3.052,1.25132,1.23606,-0.94030521,-0.300963585,-0.122131035
1764511661.322127,-3.052,1.25132,1.23606,-0.94030521,-0.300963585,-0.122131035
1764511661.323135,-3.052,1.25132,1.23606,-0.94030521,-0.300963585,-0.122131035
1764511661.323135,-3.052,1.25132,1.23606,-0.94030521,-0.300963585,-0.122131035
1764511661.323135,-3.052,1.25132,1.23606,-0.94030521,-0.300963585,-0.122131035
1764511661.323135,-3.052,1.25132,1.23606,-0.94030521,-0.300963585,-0.122131035
1764511661.323135,-3.052,1.25132,1.23606,-0.94030521,-0.300963585,-0.122131035
1764511661.323135,-3.052,1.25132,1.23606,-0.94030521,-0.300963585,-0.122131035
1764511661.3241277,-2.80784,1.3734,0.77826,-0.941098665,-0.302184285,-0.121520685
1764511661.3241277,-2.80784,1.3734,0.77826,-0.941098665,-0.302184285,-0.121520685
1764511661.363701,-2.80784,1.3734,0.77826,-0.941098665,-0.302184285,-0.121520685
1764511661.363701,-2.80784,1.3734,0.77826,-0.941098665,-0.302184285,-0.121520685
1764511661.363701,-2.80784,1.3734,0.77826,-0.941098665,-0.302184285,-0.121520685
1764511661.363701,-2.80784,1.3734,0.77826,-0.941098665,-0.302184285,-0.121520685
1764511661.363701,-2.80784,1.3734,0.77826,-0.941098665,-0.302184285,-0.121520685
1764511661.363701,-2.80784,1.3734,0.77826,-0.941098665,-0.302184285,-0.121520685
1764511661.3647313,-2.80784,1.3734,0.77826,-0.941098665,-0.302184285,-0.121520685
1764511661.3647313,-2.80784,1.3734,0.77826,-0.941098665,-0.302184285,-0.121520685
1764511661.3647313,-3.29616,1.49548,0.73248,-0.940122105,-0.301573935,-0.120299985
1764511661.3647313,-3.29616,1.49548,0.73248,-0.940122105,-0.301573935,-0.120299985
1764511661.3647313,-3.29616,1.49548,0.73248,-0.940122105,-0.301573935,-0.120299985
1764511661.3647313,-3.29616,1.49548,0.73248,-0.940122105,-0.301573935,-0.120299985
1764511661.3647313,-3.29616,1.49548,0.73248,-0.940122105,-0.301573935,-0.120299985
1764511661.3647313,-3.29616,1.49548,0.73248,-0.940122105,-0.301573935,-0.120299985
1764511661.3647313,-3.29616,1.49548,0.73248,-0.940122105,-0.301573935,-0.120299985
1764511661.3647313,-3.29616,1.49548,0.73248,-0.940122105,-0.301573935,-0.120299985
1764511661.3647313,-3.29616,1.49548,0.73248,-0.940122105,-0.301573935,-0.120299985
1764511661.3647313,-3.29616,1.49548,0.73248,-0.940122105,-0.301573935,-0.120299985
1764511661.3647313,-3.99812,2.01432,0.19838,-0.93969486,-0.29968185,-0.1208493
1764511661.3647313,-3.99812,2.01432,0.19838,-0.93969486,-0.29968185,-0.1208493
1764511661.3647313,-3.99812,2.01432,0.19838,-0.93969486,-0.29968185,-0.1208493
1764511661.3647313,-3.99812,2.01432,0.19838,-0.93969486,-0.29968185,-0.1208493
1764511661.4087567,-3.99812,2.01432,0.19838,-0.93969486,-0.29968185,-0.1208493
1764511661.4092665,-3.99812,2.01432,0.19838,-0.93969486,-0.29968185,-0.1208493
1764511661.409801,-3.99812,2.01432,0.19838,-0.93969486,-0.29968185,-0.1208493
1764511661.409801,-3.99812,2.01432,0.19838,-0.93969486,-0.29968185,-0.1208493
1764511661.409801,-3.99812,2.01432,0.19838,-0.93969486,-0.29968185,-0.1208493
1764511661.409801,-3.99812,2.01432,0.19838,-0.93969486,-0.29968185,-0.1208493
1764511661.409801,-4.440659999999999,1.4039199999999998,0.5341,-0.94164798,-0.298033905,-0.122619315
1764511661.409801,-4.440659999999999,1.4039199999999998,0.5341,-0.94164798,-0.298033905,-0.122619315
1764511661.409801,-4.440659999999999,1.4039199999999998,0.5341,-0.94164798,-0.298033905,-0.122619315
1764511661.409801,-4.440659999999999,1.4039199999999998,0.5341,-0.94164798,-0.298033905,-0.122619315
1764511661.409801,-4.440659999999999,1.4039199999999998,0.5341,-0.94164798,-0.298033905,-0.122619315
1764511661.4118123,-4.440659999999999,1.4039199999999998,0.5341,-0.94164798,-0.298033905,-0.122619315
1764511661.4118123,-4.440659999999999,1.4039199999999998,0.5341,-0.94164798,-0.298033905,-0.122619315
1764511661.4118123,-4.440659999999999,1.4039199999999998,0.5341,-0.94164798,-0.298033905,-0.122619315
1764511661.4118123,-4.440659999999999,1.4039199999999998,0.5341,-0.94164798,-0.298033905,-0.122619315
1764511661.4118123,-4.440659999999999,1.4039199999999998,0.5341,-0.94164798,-0.298033905,-0.122619315
1764511661.4128106,-5.478339999999999,0.6867,0.763,-0.941709015,-0.298766325,-0.12414519
1764511661.4128106,-5.478339999999999,0.6867,0.763,-0.941709015,-0.298766325,-0.12414519
1764511661.4128106,-5.478339999999999,0.6867,0.763,-0.941709015,-0.298766325,-0.12414519
1764511661.4128106,-5.478339999999999,0.6867,0.763,-0.941709015,-0.298766325,-0.12414519
1764511661.4128106,-5.478339999999999,0.6867,0.763,-0.941709015,-0.298766325,-0.12414519
1764511661.4128106,-5.478339999999999,0.6867,0.763,-0.941709015,-0.298766325,-0.12414519
1764511661.4128106,-5.478339999999999,0.6867,0.763,-0.941709015,-0.298766325,-0.12414519
1764511661.4138198,-5.478339999999999,0.6867,0.763,-0.941709015,-0.298766325,-0.12414519
1764511661.4575818,-5.478339999999999,0.6867,0.763,-0.941709015,-0.298766325,-0.12414519
1764511661.4575818,-5.478339999999999,0.6867,0.763,-0.941709015,-0.298766325,-0.12414519
1764511661.4575818,-4.62378,1.526,0.42728,-0.94042728,-0.300841515,-0.12353484
1764511661.4580982,-4.62378,1.526,0.42728,-0.94042728,-0.300841515,-0.12353484
1764511661.4580982,-4.62378,1.526,0.42728,-0.94042728,-0.300841515,-0.12353484
1764511661.4580982,-4.62378,1.526,0.42728,-0.94042728,-0.300841515,-0.12353484
1764511661.4580982,-4.62378,1.526,0.42728,-0.94042728,-0.300841515,-0.12353484
1764511661.4580982,-4.62378,1.526,0.42728,-0.94042728,-0.300841515,-0.12353484
1764511661.4580982,-4.62378,1.526,0.42728,-0.94042728,-0.300841515,-0.12353484
1764511661.4580982,-4.62378,1.526,0.42728,-0.94042728,-0.300841515,-0.12353484
1764511661.4580982,-4.62378,1.526,0.42728,-0.94042728,-0.300841515,-0.12353484
1764511661.459112,-4.62378,1.526,0.42728,-0.94042728,-0.300841515,-0.12353484
1764511661.459112,-2.54842,2.2127,0.50358,-0.939755895,-0.30322188,-0.12341277
1764511661.459112,-2.54842,2.2127,0.50358,-0.939755895,-0.30322188,-0.12341277
1764511661.459112,-2.54842,2.2127,0.50358,-0.939755895,-0.30322188,-0.12341277
1764511661.459112,-2.54842,2.2127,0.50358,-0.939755895,-0.30322188,-0.12341277
1764511661.459112,-2.54842,2.2127,0.50358,-0.939755895,-0.30322188,-0.12341277
1764511661.459112,-2.54842,2.2127,0.50358,-0.939755895,-0.30322188,-0.12341277
1764511661.459112,-2.54842,2.2127,0.50358,-0.939755895,-0.30322188,-0.12341277
1764511661.459112,-2.54842,2.2127,0.50358,-0.939755895,-0.30322188,-0.12341277
1764511661.4601128,-2.54842,2.2127,0.50358,-0.939755895,-0.30322188,-0.12341277
1764511661.4601128,-2.54842,2.2127,0.50358,-0.939755895,-0.30322188,-0.12341277
1764511661.5034492,-1.77016,2.24322,0.3357199999999999,-0.94018314,-0.30419844,-0.12231414
1764511661.5034492,-1.77016,2.24322,0.3357199999999999,-0.94018314,-0.30419844,-0.12231414
1764511661.5034492,-1.77016,2.24322,0.3357199999999999,-0.94018314,-0.30419844,-0.12231414
1764511661.5034492,-1.77016,2.24322,0.3357199999999999,-0.94018314,-0.30419844,-0.12231414
1764511661.5034492,-1.77016,2.24322,0.3357199999999999,-0.94018314,-0.30419844,-0.12231414
1764511661.5044608,-1.77016,2.24322,0.3357199999999999,-0.94018314,-0.30419844,-0.12231414
1764511661.5044608,-1.77016,2.24322,0.3357199999999999,-0.94018314,-0.30419844,-0.12231414
1764511661.5044608,-1.77016,2.24322,0.3357199999999999,-0.94018314,-0.30419844,-0.12231414
1764511661.5044608,-1.77016,2.24322,0.3357199999999999,-0.94018314,-0.30419844,-0.12231414
1764511661.5044608,-1.77016,2.24322,0.3357199999999999,-0.94018314,-0.30419844,-0.12231414
1764511661.5044608,-2.83836,1.48022,0.3509799999999999,-0.943295925,-0.30236739,-0.12316863
1764511661.5044608,-2.83836,1.48022,0.3509799999999999,-0.943295925,-0.30236739,-0.12316863
1764511661.5059712,-2.83836,1.48022,0.3509799999999999,-0.943295925,-0.30236739,-0.12316863
1764511661.5059712,-2.83836,1.48022,0.3509799999999999,-0.943295925,-0.30236739,-0.12316863
1764511661.5059712,-2.83836,1.48022,0.3509799999999999,-0.943295925,-0.30236739,-0.12316863
1764511661.5059712,-2.83836,1.48022,0.3509799999999999,-0.943295925,-0.30236739,-0.12316863
1764511661.5059712,-2.83836,1.48022,0.3509799999999999,-0.943295925,-0.30236739,-0.12316863
1764511661.5059712,-2.83836,1.48022,0.3509799999999999,-0.943295925,-0.30236739,-0.12316863
1764511661.5069835,-2.83836,1.48022,0.3509799999999999,-0.943295925,-0.30236739,-0.12316863
1764511661.5069835,-2.83836,1.48022,0.3509799999999999,-0.943295925,-0.30236739,-0.12316863
1764511661.5069835,-4.303319999999999,0.8698199999999999,0.6867,-0.94421145,-0.299620815,-0.123840015
1764511661.5069835,-4.303319999999999,0.8698199999999999,0.6867,-0.94421145,-0.299620815,-0.123840015
1764511661.5069835,-4.303319999999999,0.8698199999999999,0.6867,-0.94421145,-0.299620815,-0.123840015
1764511661.5079846,-4.303319999999999,0.8698199999999999,0.6867,-0.94421145,-0.299620815,-0.123840015
1764511661.5523932,-4.303319999999999,0.8698199999999999,0.6867,-0.94421145,-0.299620815,-0.123840015
1764511661.5523932,-4.303319999999999,0.8698199999999999,0.6867,-0.94421145,-0.299620815,-0.123840015
1764511661.5523932,-4.303319999999999,0.8698199999999999,0.6867,-0.94421145,-0.299620815,-0.123840015
1764511661.5523932,-4.303319999999999,0.8698199999999999,0.6867,-0.94421145,-0.299620815,-0.123840015
1764511661.5523932,-4.303319999999999,0.8698199999999999,0.6867,-0.94421145,-0.299620815,-0.123840015
1764511661.5523932,-4.303319999999999,0.8698199999999999,0.6867,-0.94421145,-0.299620815,-0.123840015
1764511661.5523932,-5.32574,1.64808,0.79352,-0.94286868,-0.29980392,-0.123962085
1764511661.5523932,-5.32574,1.64808,0.79352,-0.94286868,-0.29980392,-0.123962085
1764511661.5523932,-5.32574,1.64808,0.79352,-0.94286868,-0.29980392,-0.123962085
1764511661.5523932,-5.32574,1.64808,0.79352,-0.94286868,-0.29980392,-0.123962085
1764511661.5539312,-5.32574,1.64808,0.79352,-0.94286868,-0.29980392,-0.123962085
1764511661.5539312,-5.32574,1.64808,0.79352,-0.94286868,-0.29980392,-0.123962085
1764511661.5539312,-5.32574,1.64808,0.79352,-0.94286868,-0.29980392,-0.123962085
1764511661.5539312,-5.32574,1.64808,0.79352,-0.94286868,-0.29980392,-0.123962085
1764511661.5539312,-5.32574,1.64808,0.79352,-0.94286868,-0.29980392,-0.123962085
1764511661.5539312,-5.32574,1.64808,0.79352,-0.94286868,-0.29980392,-0.123962085
1764511661.5549712,-4.70008,1.57178,0.21364,-0.941709015,-0.30078048,-0.12377898
1764511661.5549712,-4.70008,1.57178,0.21364,-0.941709015,-0.30078048,-0.12377898
1764511661.5549712,-4.70008,1.57178,0.21364,-0.941709015,-0.30078048,-0.12377898
1764511661.5549712,-4.70008,1.57178,0.21364,-0.941709015,-0.30078048,-0.12377898
1764511661.5549712,-4.70008,1.57178,0.21364,-0.941709015,-0.30078048,-0.12377898
1764511661.5549712,-4.70008,1.57178,0.21364,-0.941709015,-0.30078048,-0.12377898
1764511661.5549712,-4.70008,1.57178,0.21364,-0.941709015,-0.30078048,-0.12377898
1764511661.5549712,-4.70008,1.57178,0.21364,-0.941709015,-0.30078048,-0.12377898
1764511661.5964017,-4.70008,1.57178,0.21364,-0.941709015,-0.30078048,-0.12377898
1764511661.5964017,-4.70008,1.57178,0.21364,-0.941709015,-0.30078048,-0.12377898
1764511661.5964017,-3.32668,1.86172,0.41202,-0.941953155,-0.300963585,-0.123595875
1764511661.5964017,-3.32668,1.86172,0.41202,-0.941953155,-0.300963585,-0.123595875
1764511661.5974164,-3.32668,1.86172,0.41202,-0.941953155,-0.300963585,-0.123595875
1764511661.5974164,-3.32668,1.86172,0.41202,-0.941953155,-0.300963585,-0.123595875
1764511661.5974164,-3.32668,1.86172,0.41202,-0.941953155,-0.300963585,-0.123595875
1764511661.5974164,-3.32668,1.86172,0.41202,-0.941953155,-0.300963585,-0.123595875
1764511661.5974164,-3.32668,1.86172,0.41202,-0.941953155,-0.300963585,-0.123595875
1764511661.5974164,-3.32668,1.86172,0.41202,-0.941953155,-0.300963585,-0.123595875
1764511661.5974164,-3.32668,1.86172,0.41202,-0.941953155,-0.300963585,-0.123595875
1764511661.5974164,-3.32668,1.86172,0.41202,-0.941953155,-0.300963585,-0.123595875
1764511661.5974164,-1.8312,1.2208,0.13734,-0.943051785,-0.3015129,-0.12341277
1764511661.5974164,-1.8312,1.2208,0.13734,-0.943051785,-0.3015129,-0.12341277
1764511661.5974164,-1.8312,1.2208,0.13734,-0.943051785,-0.3015129,-0.12341277
1764511661.5974164,-1.8312,1.2208,0.13734,-0.943051785,-0.3015129,-0.12341277
1764511661.5974164,-1.8312,1.2208,0.13734,-0.943051785,-0.3015129,-0.12341277
1764511661.5974164,-1.8312,1.2208,0.13734,-0.943051785,-0.3015129,-0.12341277
1764511661.5974164,-1.8312,1.2208,0.13734,-0.943051785,-0.3015129,-0.12341277
1764511661.5974164,-1.8312,1.2208,0.13734,-0.943051785,-0.3015129,-0.12341277
1764511661.6461003,-1.8312,1.2208,0.13734,-0.943051785,-0.3015129,-0.12341277
1764511661.6461003,-1.8312,1.2208,0.13734,-0.943051785,-0.3015129,-0.12341277
1764511661.6461003,-2.27374,1.49548,0.71722,-0.94250247,-0.301451865,-0.122131035
1764511661.6461003,-2.27374,1.49548,0.71722,-0.94250247,-0.301451865,-0.122131035
1764511661.6461003,-2.27374,1.49548,0.71722,-0.94250247,-0.301451865,-0.122131035
1764511661.6461003,-2.27374,1.49548,0.71722,-0.94250247,-0.301451865,-0.122131035
1764511661.6461003,-2.27374,1.49548,0.71722,-0.94250247,-0.301451865,-0.122131035
1764511661.6461003,-2.27374,1.49548,0.71722,-0.94250247,-0.301451865,-0.122131035
1764511661.6461003,-2.27374,1.49548,0.71722,-0.94250247,-0.301451865,-0.122131035
1764511661.6461003,-2.27374,1.49548,0.71722,-0.94250247,-0.301451865,-0.122131035
1764511661.6461003,-2.27374,1.49548,0.71722,-0.94250247,-0.301451865,-0.122131035
1764511661.6461003,-2.27374,1.49548,0.71722,-0.94250247,-0.301451865,-0.122131035
1764511661.6461003,-3.29616,2.56368,0.25942,-0.943173855,-0.300231165,-0.122497245
1764511661.6461003,-3.29616,2.56368,0.25942,-0.943173855,-0.300231165,-0.122497245
1764511661.6461003,-3.29616,2.56368,0.25942,-0.943173855,-0.300231165,-0.122497245
1764511661.6461003,-3.29616,2.56368,0.25942,-0.943173855,-0.300231165,-0.122497245
1764511661.6461003,-3.29616,2.56368,0.25942,-0.943173855,-0.300231165,-0.122497245
1764511661.6461003,-3.29616,2.56368,0.25942,-0.943173855,-0.300231165,-0.122497245
1764511661.6461003,-3.29616,2.56368,0.25942,-0.943173855,-0.300231165,-0.122497245
1764511661.6461003,-3.29616,2.56368,0.25942,-0.943173855,-0.300231165,-0.122497245
1764511661.6461003,-3.29616,2.56368,0.25942,-0.943173855,-0.300231165,-0.122497245
1764511661.6461003,-3.29616,2.56368,0.25942,-0.943173855,-0.300231165,-0.122497245
1764511661.6461003,-3.815,1.84646,-0.9003399999999999,-0.946103535,-0.300109095,-0.12390105
1764511661.6461003,-3.815,1.84646,-0.9003399999999999,-0.946103535,-0.300109095,-0.12390105
1764511661.6461003,-3.815,1.84646,-0.9003399999999999,-0.946103535,-0.300109095,-0.12390105
1764511661.6461003,-3.815,1.84646,-0.9003399999999999,-0.946103535,-0.300109095,-0.12390105
1764511661.6914182,-3.815,1.84646,-0.9003399999999999,-0.946103535,-0.300109095,-0.12390105
1764511661.6914182,-3.815,1.84646,-0.9003399999999999,-0.946103535,-0.300109095,-0.12390105
1764511661.6914182,-3.815,1.84646,-0.9003399999999999,-0.946103535,-0.300109095,-0.12390105
1764511661.6914182,-3.815,1.84646,-0.9003399999999999,-0.946103535,-0.300109095,-0.12390105
1764511661.6914182,-3.815,1.84646,-0.9003399999999999,-0.946103535,-0.300109095,-0.12390105
1764511661.6914182,-3.815,1.84646,-0.9003399999999999,-0.946103535,-0.300109095,-0.12390105
1764511661.6924386,-4.07442,1.87698,-2.57894,-0.946347675,-0.30224532,-0.1257321
1764511661.6924386,-4.07442,1.87698,-2.57894,-0.946347675,-0.30224532,-0.1257321
1764511661.6924386,-4.07442,1.87698,-2.57894,-0.946347675,-0.30224532,-0.1257321
1764511661.6924386,-4.07442,1.87698,-2.57894,-0.946347675,-0.30224532,-0.1257321
1764511661.6924386,-4.07442,1.87698,-2.57894,-0.946347675,-0.30224532,-0.1257321
1764511661.6924386,-4.07442,1.87698,-2.57894,-0.946347675,-0.30224532,-0.1257321
1764511661.6924386,-4.07442,1.87698,-2.57894,-0.946347675,-0.30224532,-0.1257321
1764511661.6924386,-4.07442,1.87698,-2.57894,-0.946347675,-0.30224532,-0.1257321
1764511661.6924386,-4.07442,1.87698,-2.57894,-0.946347675,-0.30224532,-0.1257321
1764511661.6924386,-4.07442,1.87698,-2.57894,-0.946347675,-0.30224532,-0.1257321
1764511661.6924386,-3.67766,2.18218,-2.24322,-0.94531008,-0.303771195,-0.12634245
1764511661.6924386,-3.67766,2.18218,-2.24322,-0.94531008,-0.303771195,-0.12634245
1764511661.6924386,-3.67766,2.18218,-2.24322,-0.94531008,-0.303771195,-0.12634245
1764511661.6924386,-3.67766,2.18218,-2.24322,-0.94531008,-0.303771195,-0.12634245
1764511661.693437,-3.67766,2.18218,-2.24322,-0.94531008,-0.303771195,-0.12634245
1764511661.693437,-3.67766,2.18218,-2.24322,-0.94531008,-0.303771195,-0.12634245
1764511661.739833,-3.67766,2.18218,-2.24322,-0.94531008,-0.303771195,-0.12634245
1764511661.739833,-3.67766,2.18218,-2.24322,-0.94531008,-0.303771195,-0.12634245
1764511661.739833,-3.67766,2.18218,-2.24322,-0.94531008,-0.303771195,-0.12634245
1764511661.739833,-3.67766,2.18218,-2.24322,-0.94531008,-0.303771195,-0.12634245
1764511661.739833,-2.8994,1.63282,-1.48022,-0.94262454,-0.30651777,-0.1245114
1764511661.739833,-2.8994,1.63282,-1.48022,-0.94262454,-0.30651777,-0.1245114
1764511661.739833,-2.8994,1.63282,-1.48022,-0.94262454,-0.30651777,-0.1245114
1764511661.739833,-2.8994,1.63282,-1.48022,-0.94262454,-0.30651777,-0.1245114
1764511661.739833,-2.8994,1.63282,-1.48022,-0.94262454,-0.30651777,-0.1245114
1764511661.739833,-2.8994,1.63282,-1.48022,-0.94262454,-0.30651777,-0.1245114
1764511661.739833,-2.8994,1.63282,-1.48022,-0.94262454,-0.30651777,-0.1245114
1764511661.739833,-2.8994,1.63282,-1.48022,-0.94262454,-0.30651777,-0.1245114
1764511661.739833,-2.8994,1.63282,-1.48022,-0.94262454,-0.30651777,-0.1245114
1764511661.739833,-2.8994,1.63282,-1.48022,-0.94262454,-0.30651777,-0.1245114
1764511661.739833,-1.9075,2.25848,-1.05294,-0.93945072,-0.307311225,-0.122741385
1764511661.739833,-1.9075,2.25848,-1.05294,-0.93945072,-0.307311225,-0.122741385
1764511661.739833,-1.9075,2.25848,-1.05294,-0.93945072,-0.307311225,-0.122741385
1764511661.739833,-1.9075,2.25848,-1.05294,-0.93945072,-0.307311225,-0.122741385
1764511661.739833,-1.9075,2.25848,-1.05294,-0.93945072,-0.307311225,-0.122741385
1764511661.739833,-1.9075,2.25848,-1.05294,-0.93945072,-0.307311225,-0.122741385
1764511661.739833,-1.9075,2.25848,-1.05294,-0.93945072,-0.307311225,-0.122741385
1764511661.739833,-1.9075,2.25848,-1.05294,-0.93945072,-0.307311225,-0.122741385
1764511661.739833,-1.9075,2.25848,-1.05294,-0.93945072,-0.307311225,-0.122741385
1764511661.739833,-1.9075,2.25848,-1.05294,-0.93945072,-0.307311225,-0.122741385
1764511661.7842083,-0.1525999999999999,0.8087799999999999,-0.6714399999999999,-0.939267615,-0.305236035,-0.12121551
1764511661.7842083,-0.1525999999999999,0.8087799999999999,-0.6714399999999999,-0.939267615,-0.305236035,-0.12121551
1764511661.7842083,-0.1525999999999999,0.8087799999999999,-0.6714399999999999,-0.939267615,-0.305236035,-0.12121551
1764511661.7842083,-0.1525999999999999,0.8087799999999999,-0.6714399999999999,-0.939267615,-0.305236035,-0.12121551
1764511661.7842083,-0.1525999999999999,0.8087799999999999,-0.6714399999999999,-0.939267615,-0.305236035,-0.12121551
1764511661.7842083,-0.1525999999999999,0.8087799999999999,-0.6714399999999999,-0.939267615,-0.305236035,-0.12121551
1764511661.7842083,-0.1525999999999999,0.8087799999999999,-0.6714399999999999,-0.939267615,-0.305236035,-0.12121551
1764511661.7842083,-0.1525999999999999,0.8087799999999999,-0.6714399999999999,-0.939267615,-0.305236035,-0.12121551
1764511661.7842083,-0.1525999999999999,0.8087799999999999,-0.6714399999999999,-0.939267615,-0.305236035,-0.12121551
1764511661.7842083,-0.1525999999999999,0.8087799999999999,-0.6714399999999999,-0.939267615,-0.305236035,-0.12121551
1764511661.7842083,-0.0762999999999999,0.6867,-0.3509799999999999,-0.94079349,-0.30126876,-0.1208493
1764511661.7842083,-0.0762999999999999,0.6867,-0.3509799999999999,-0.94079349,-0.30126876,-0.1208493
1764511661.7842083,-0.0762999999999999,0.6867,-0.3509799999999999,-0.94079349,-0.30126876,-0.1208493
1764511661.7852323,-0.0762999999999999,0.6867,-0.3509799999999999,-0.94079349,-0.30126876,-0.1208493
1764511661.7852323,-0.0762999999999999,0.6867,-0.3509799999999999,-0.94079349,-0.30126876,-0.1208493
1764511661.7852323,-0.0762999999999999,0.6867,-0.3509799999999999,-0.94079349,-0.30126876,-0.1208493
1764511661.7852323,-0.0762999999999999,0.6867,-0.3509799999999999,-0.94079349,-0.30126876,-0.1208493
1764511661.7852323,-0.0762999999999999,0.6867,-0.3509799999999999,-0.94079349,-0.30126876,-0.1208493
1764511661.7852323,-0.0762999999999999,0.6867,-0.3509799999999999,-0.94079349,-0.30126876,-0.1208493
1764511661.7852323,-0.0762999999999999,0.6867,-0.3509799999999999,-0.94079349,-0.30126876,-0.1208493
1764511661.787755,-2.39582,1.03768,0.27468,-0.94067142,-0.297667695,-0.12182586
1764511661.787755,-2.39582,1.03768,0.27468,-0.94067142,-0.297667695,-0.12182586
1764511661.787755,-2.39582,1.03768,0.27468,-0.94067142,-0.297667695,-0.12182586
1764511661.787755,-2.39582,1.03768,0.27468,-0.94067142,-0.297667695,-0.12182586
1764511661.8307476,-2.39582,1.03768,0.27468,-0.94067142,-0.297667695,-0.12182586
1764511661.8307476,-2.39582,1.03768,0.27468,-0.94067142,-0.297667695,-0.12182586
1764511661.832285,-2.39582,1.03768,0.27468,-0.94067142,-0.297667695,-0.12182586
1764511661.832285,-2.39582,1.03768,0.27468,-0.94067142,-0.297667695,-0.12182586
1764511661.832285,-2.39582,1.03768,0.27468,-0.94067142,-0.297667695,-0.12182586
1764511661.8332963,-2.39582,1.03768,0.27468,-0.94067142,-0.297667695,-0.12182586
1764511661.8332963,-5.32574,1.19028,-0.1525999999999999,-0.94152591,-0.29626389,-0.12268035
1764511661.8332963,-5.32574,1.19028,-0.1525999999999999,-0.94152591,-0.29626389,-0.12268035
1764511661.8332963,-5.32574,1.19028,-0.1525999999999999,-0.94152591,-0.29626389,-0.12268035
1764511661.8332963,-5.32574,1.19028,-0.1525999999999999,-0.94152591,-0.29626389,-0.12268035
1764511661.8332963,-5.32574,1.19028,-0.1525999999999999,-0.94152591,-0.29626389,-0.12268035
1764511661.8332963,-5.32574,1.19028,-0.1525999999999999,-0.94152591,-0.29626389,-0.12268035
1764511661.8332963,-5.32574,1.19028,-0.1525999999999999,-0.94152591,-0.29626389,-0.12268035
1764511661.8332963,-5.32574,1.19028,-0.1525999999999999,-0.94152591,-0.29626389,-0.12268035
1764511661.8332963,-5.32574,1.19028,-0.1525999999999999,-0.94152591,-0.29626389,-0.12268035
1764511661.834298,-5.32574,1.19028,-0.1525999999999999,-0.94152591,-0.29626389,-0.12268035
1764511661.834298,-5.53938,1.11398,-0.763,-0.941709015,-0.298522185,-0.123107595
1764511661.834298,-5.53938,1.11398,-0.763,-0.941709015,-0.298522185,-0.123107595
1764511661.834298,-5.53938,1.11398,-0.763,-0.941709015,-0.298522185,-0.123107595
1764511661.834298,-5.53938,1.11398,-0.763,-0.941709015,-0.298522185,-0.123107595
1764511661.834298,-5.53938,1.11398,-0.763,-0.941709015,-0.298522185,-0.123107595
1764511661.834298,-5.53938,1.11398,-0.763,-0.941709015,-0.298522185,-0.123107595
1764511661.834298,-5.53938,1.11398,-0.763,-0.941709015,-0.298522185,-0.123107595
1764511661.834298,-5.53938,1.11398,-0.763,-0.941709015,-0.298522185,-0.123107595
1764511661.8792772,-5.53938,1.11398,-0.763,-0.941709015,-0.298522185,-0.123107595
1764511661.8792772,-5.53938,1.11398,-0.763,-0.941709015,-0.298522185,-0.123107595
1764511661.8792772,-5.24944,1.08346,-0.54936,-0.941831085,-0.30163497,-0.12365691
1764511661.8792772,-5.24944,1.08346,-0.54936,-0.941831085,-0.30163497,-0.12365691
1764511661.8792772,-5.24944,1.08346,-0.54936,-0.941831085,-0.30163497,-0.12365691
1764511661.8792772,-5.24944,1.08346,-0.54936,-0.941831085,-0.30163497,-0.12365691
1764511661.8792772,-5.24944,1.08346,-0.54936,-0.941831085,-0.30163497,-0.12365691
1764511661.8792772,-5.24944,1.08346,-0.54936,-0.941831085,-0.30163497,-0.12365691
1764511661.8792772,-5.24944,1.08346,-0.54936,-0.941831085,-0.30163497,-0.12365691
1764511661.8792772,-5.24944,1.08346,-0.54936,-0.941831085,-0.30163497,-0.12365691
1764511661.8792772,-5.24944,1.08346,-0.54936,-0.941831085,-0.30163497,-0.12365691
1764511661.8792772,-5.24944,1.08346,-0.54936,-0.941831085,-0.30163497,-0.12365691
1764511661.8792772,-3.75396,1.25132,-0.10682,-0.94054935,-0.304991895,-0.12341277
1764511661.8792772,-3.75396,1.25132,-0.10682,-0.94054935,-0.304991895,-0.12341277
1764511661.8792772,-3.75396,1.25132,-0.10682,-0.94054935,-0.304991895,-0.12341277
1764511661.8792772,-3.75396,1.25132,-0.10682,-0.94054935,-0.304991895,-0.12341277
1764511661.8792772,-3.75396,1.25132,-0.10682,-0.94054935,-0.304991895,-0.12341277
1764511661.8792772,-3.75396,1.25132,-0.10682,-0.94054935,-0.304991895,-0.12341277
1764511661.8792772,-3.75396,1.25132,-0.10682,-0.94054935,-0.304991895,-0.12341277
1764511661.8792772,-3.75396,1.25132,-0.10682,-0.94054935,-0.304991895,-0.12341277
1764511661.8792772,-3.75396,1.25132,-0.10682,-0.94054935,-0.304991895,-0.12341277
1764511661.8792772,-3.75396,1.25132,-0.10682,-0.94054935,-0.304991895,-0.12341277
1764511661.9270957,-2.6705,1.54126,0.6409199999999999,-0.940244175,-0.307189155,-0.122985525
1764511661.9270957,-2.6705,1.54126,0.6409199999999999,-0.940244175,-0.307189155,-0.122985525
1764511661.9280956,-2.6705,1.54126,0.6409199999999999,-0.940244175,-0.307189155,-0.122985525
1764511661.9280956,-2.6705,1.54126,0.6409199999999999,-0.940244175,-0.307189155,-0.122985525
1764511661.9280956,-2.6705,1.54126,0.6409199999999999,-0.940244175,-0.307189155,-0.122985525
1764511661.9280956,-2.6705,1.54126,0.6409199999999999,-0.940244175,-0.307189155,-0.122985525
1764511661.9280956,-2.6705,1.54126,0.6409199999999999,-0.940244175,-0.307189155,-0.122985525
1764511661.9290934,-2.6705,1.54126,0.6409199999999999,-0.940244175,-0.307189155,-0.122985525
1764511661.9290934,-2.6705,1.54126,0.6409199999999999,-0.940244175,-0.307189155,-0.122985525
1764511661.9290934,-2.6705,1.54126,0.6409199999999999,-0.940244175,-0.307189155,-0.122985525
1764511661.9290934,-2.12114,1.31236,0.65618,-0.939755895,-0.30663984,-0.12097137
1764511661.930092,-2.12114,1.31236,0.65618,-0.939755895,-0.30663984,-0.12097137
1764511661.930092,-2.12114,1.31236,0.65618,-0.939755895,-0.30663984,-0.12097137
1764511661.930092,-2.12114,1.31236,0.65618,-0.939755895,-0.30663984,-0.12097137
1764511661.930092,-2.12114,1.31236,0.65618,-0.939755895,-0.30663984,-0.12097137
1764511661.9310906,-2.12114,1.31236,0.65618,-0.939755895,-0.30663984,-0.12097137
1764511661.9310906,-2.12114,1.31236,0.65618,-0.939755895,-0.30663984,-0.12097137
1764511661.9315374,-2.12114,1.31236,0.65618,-0.939755895,-0.30663984,-0.12097137
1764511661.9315374,-2.12114,1.31236,0.65618,-0.939755895,-0.30663984,-0.12097137
1764511661.9315374,-2.12114,1.31236,0.65618,-0.939755895,-0.30663984,-0.12097137
1764511661.9315374,-2.77732,1.26658,0.8698199999999999,-0.939633825,-0.30432051,-0.120422055
1764511661.9315374,-2.77732,1.26658,0.8698199999999999,-0.939633825,-0.30432051,-0.120422055
1764511661.9315374,-2.77732,1.26658,0.8698199999999999,-0.939633825,-0.30432051,-0.120422055
1764511661.9315374,-2.77732,1.26658,0.8698199999999999,-0.939633825,-0.30432051,-0.120422055
1764511661.9727051,-2.77732,1.26658,0.8698199999999999,-0.939633825,-0.30432051,-0.120422055
1764511661.9727051,-2.77732,1.26658,0.8698199999999999,-0.939633825,-0.30432051,-0.120422055
1764511661.9727051,-2.77732,1.26658,0.8698199999999999,-0.939633825,-0.30432051,-0.120422055
1764511661.9727051,-2.77732,1.26658,0.8698199999999999,-0.939633825,-0.30432051,-0.120422055
1764511661.9727051,-2.77732,1.26658,0.8698199999999999,-0.939633825,-0.30432051,-0.120422055
1764511661.9727051,-2.77732,1.26658,0.8698199999999999,-0.939633825,-0.30432051,-0.120422055
1764511661.9727051,-4.01338,0.57988,0.85456,-0.94018314,-0.301451865,-0.12048309
1764511661.9727051,-4.01338,0.57988,0.85456,-0.94018314,-0.301451865,-0.12048309
1764511661.9742353,-4.01338,0.57988,0.85456,-0.94018314,-0.301451865,-0.12048309
1764511661.9742353,-4.01338,0.57988,0.85456,-0.94018314,-0.301451865,-0.12048309
1764511661.9742353,-4.01338,0.57988,0.85456,-0.94018314,-0.301451865,-0.12048309
1764511661.9742353,-4.01338,0.57988,0.85456,-0.94018314,-0.301451865,-0.12048309
1764511661.9742353,-4.01338,0.57988,0.85456,-0.94018314,-0.301451865,-0.12048309
1764511661.9742353,-4.01338,0.57988,0.85456,-0.94018314,-0.301451865,-0.12048309
1764511661.9742353,-4.01338,0.57988,0.85456,-0.94018314,-0.301451865,-0.12048309
1764511661.9742353,-4.01338,0.57988,0.85456,-0.94018314,-0.301451865,-0.12048309
1764511661.9742353,-4.94424,0.73248,0.77826,-0.940366245,-0.300963585,-0.12072723
1764511661.9742353,-4.94424,0.73248,0.77826,-0.940366245,-0.300963585,-0.12072723
1764511661.9742353,-4.94424,0.73248,0.77826,-0.940366245,-0.300963585,-0.12072723
1764511661.9742353,-4.94424,0.73248,0.77826,-0.940366245,-0.300963585,-0.12072723
1764511661.9742353,-4.94424,0.73248,0.77826,-0.940366245,-0.300963585,-0.12072723
1764511661.9742353,-4.94424,0.73248,0.77826,-0.940366245,-0.300963585,-0.12072723
1764511661.9742353,-4.94424,0.73248,0.77826,-0.940366245,-0.300963585,-0.12072723
1764511661.9742353,-4.94424,0.73248,0.77826,-0.940366245,-0.300963585,-0.12072723
1764511662.0194764,-4.94424,0.73248,0.77826,-0.940366245,-0.300963585,-0.12072723
1764511662.0194764,-4.94424,0.73248,0.77826,-0.940366245,-0.300963585,-0.12072723
1764511662.0194764,-4.715339999999999,1.03768,0.48832,-0.941586945,-0.302794635,-0.12097137
1764511662.0194764,-4.715339999999999,1.03768,0.48832,-0.941586945,-0.302794635,-0.12097137
1764511662.0194764,-4.715339999999999,1.03768,0.48832,-0.941586945,-0.302794635,-0.12097137
1764511662.0194764,-4.715339999999999,1.03768,0.48832,-0.941586945,-0.302794635,-0.12097137
1764511662.0194764,-4.715339999999999,1.03768,0.48832,-0.941586945,-0.302794635,-0.12097137
1764511662.0194764,-4.715339999999999,1.03768,0.48832,-0.941586945,-0.302794635,-0.12097137
1764511662.0194764,-4.715339999999999,1.03768,0.48832,-0.941586945,-0.302794635,-0.12097137
1764511662.0194764,-4.715339999999999,1.03768,0.48832,-0.941586945,-0.302794635,-0.12097137
1764511662.0194764,-4.715339999999999,1.03768,0.48832,-0.941586945,-0.302794635,-0.12097137
1764511662.0194764,-4.715339999999999,1.03768,0.48832,-0.941586945,-0.302794635,-0.12097137
1764511662.0194764,-4.70008,0.8698199999999999,0.62566,-0.94189212,-0.304259475,-0.121520685
1764511662.0194764,-4.70008,0.8698199999999999,0.62566,-0.94189212,-0.304259475,-0.121520685
1764511662.0194764,-4.70008,0.8698199999999999,0.62566,-0.94189212,-0.304259475,-0.121520685
1764511662.0194764,-4.70008,0.8698199999999999,0.62566,-0.94189212,-0.304259475,-0.121520685
1764511662.0194764,-4.70008,0.8698199999999999,0.62566,-0.94189212,-0.304259475,-0.121520685
1764511662.0200448,-4.70008,0.8698199999999999,0.62566,-0.94189212,-0.304259475,-0.121520685
1764511662.0200448,-4.70008,0.8698199999999999,0.62566,-0.94189212,-0.304259475,-0.121520685
1764511662.0200448,-4.70008,0.8698199999999999,0.62566,-0.94189212,-0.304259475,-0.121520685
1764511662.0200448,-4.70008,0.8698199999999999,0.62566,-0.94189212,-0.304259475,-0.121520685
1764511662.0200448,-4.70008,0.8698199999999999,0.62566,-0.94189212,-0.304259475,-0.121520685
1764511662.0205927,-3.95234,1.4497,1.19028,-0.94018314,-0.304991895,-0.120788265
1764511662.0205927,-3.95234,1.4497,1.19028,-0.94018314,-0.304991895,-0.120788265
1764511662.0657785,-3.95234,1.4497,1.19028,-0.94018314,-0.304991895,-0.120788265
1764511662.0657785,-3.95234,1.4497,1.19028,-0.94018314,-0.304991895,-0.120788265
1764511662.0657785,-3.95234,1.4497,1.19028,-0.94018314,-0.304991895,-0.120788265
1764511662.0657785,-3.95234,1.4497,1.19028,-0.94018314,-0.304991895,-0.120788265
1764511662.0657785,-3.95234,1.4497,1.19028,-0.94018314,-0.304991895,-0.120788265
1764511662.0657785,-3.95234,1.4497,1.19028,-0.94018314,-0.304991895,-0.120788265
1764511662.0657785,-3.95234,1.4497,1.19028,-0.94018314,-0.304991895,-0.120788265
1764511662.0657785,-3.95234,1.4497,1.19028,-0.94018314,-0.304991895,-0.120788265
1764511662.06792,-2.31952,1.70912,1.2208,-0.94079349,-0.30554121,-0.119201355
1764511662.06792,-2.31952,1.70912,1.2208,-0.94079349,-0.30554121,-0.119201355
1764511662.06792,-2.31952,1.70912,1.2208,-0.94079349,-0.30554121,-0.119201355
1764511662.06792,-2.31952,1.70912,1.2208,-0.94079349,-0.30554121,-0.119201355
1764511662.06792,-2.31952,1.70912,1.2208,-0.94079349,-0.30554121,-0.119201355
1764511662.06792,-2.31952,1.70912,1.2208,-0.94079349,-0.30554121,-0.119201355
1764511662.06792,-2.31952,1.70912,1.2208,-0.94079349,-0.30554121,-0.119201355
1764511662.06792,-2.31952,1.70912,1.2208,-0.94079349,-0.30554121,-0.119201355
1764511662.06792,-2.31952,1.70912,1.2208,-0.94079349,-0.30554121,-0.119201355
1764511662.06792,-2.31952,1.70912,1.2208,-0.94079349,-0.30554121,-0.119201355
1764511662.06792,-1.9838,1.6633399999999998,1.23606,-0.94103763,-0.306578805,-0.118102725
1764511662.06792,-1.9838,1.6633399999999998,1.23606,-0.94103763,-0.306578805,-0.118102725
1764511662.06792,-1.9838,1.6633399999999998,1.23606,-0.94103763,-0.306578805,-0.118102725
1764511662.06792,-1.9838,1.6633399999999998,1.23606,-0.94103763,-0.306578805,-0.118102725
1764511662.06792,-1.9838,1.6633399999999998,1.23606,-0.94103763,-0.306578805,-0.118102725
1764511662.06792,-1.9838,1.6633399999999998,1.23606,-0.94103763,-0.306578805,-0.118102725
1764511662.114927,-1.9838,1.6633399999999998,1.23606,-0.94103763,-0.306578805,-0.118102725
1764511662.114927,-1.9838,1.6633399999999998,1.23606,-0.94103763,-0.306578805,-0.118102725
1764511662.114927,-1.9838,1.6633399999999998,1.23606,-0.94103763,-0.306578805,-0.118102725
1764511662.1159437,-1.9838,1.6633399999999998,1.23606,-0.94103763,-0.306578805,-0.118102725
1764511662.1159437,-2.70102,2.12114,0.74774,-0.94042728,-0.303649125,-0.11779755
1764511662.1159437,-2.70102,2.12114,0.74774,-0.94042728,-0.303649125,-0.11779755
1764511662.1159437,-2.70102,2.12114,0.74774,-0.94042728,-0.303649125,-0.11779755
1764511662.1159437,-2.70102,2.12114,0.74774,-0.94042728,-0.303649125,-0.11779755
1764511662.1159437,-2.70102,2.12114,0.74774,-0.94042728,-0.303649125,-0.11779755
1764511662.1159437,-2.70102,2.12114,0.74774,-0.94042728,-0.303649125,-0.11779755
1764511662.1159437,-2.70102,2.12114,0.74774,-0.94042728,-0.303649125,-0.11779755
1764511662.1159437,-2.70102,2.12114,0.74774,-0.94042728,-0.303649125,-0.11779755
1764511662.1159437,-2.70102,2.12114,0.74774,-0.94042728,-0.303649125,-0.11779755
1764511662.1159437,-2.70102,2.12114,0.74774,-0.94042728,-0.303649125,-0.11779755
1764511662.1159437,-3.44876,1.78542,-0.25942,-0.94067142,-0.299864955,-0.119567565
1764511662.1159437,-3.44876,1.78542,-0.25942,-0.94067142,-0.299864955,-0.119567565
1764511662.1159437,-3.44876,1.78542,-0.25942,-0.94067142,-0.299864955,-0.119567565
1764511662.1159437,-3.44876,1.78542,-0.25942,-0.94067142,-0.299864955,-0.119567565
1764511662.1610875,-3.44876,1.78542,-0.25942,-0.94067142,-0.299864955,-0.119567565
1764511662.1610875,-3.44876,1.78542,-0.25942,-0.94067142,-0.299864955,-0.119567565
1764511662.1610875,-3.44876,1.78542,-0.25942,-0.94067142,-0.299864955,-0.119567565
1764511662.1610875,-3.44876,1.78542,-0.25942,-0.94067142,-0.299864955,-0.119567565
1764511662.1610875,-3.44876,1.78542,-0.25942,-0.94067142,-0.299864955,-0.119567565
1764511662.1610875,-3.44876,1.78542,-0.25942,-0.94067142,-0.299864955,-0.119567565
1764511662.1610875,-5.08158,0.3509799999999999,0.73248,-0.943173855,-0.29882736,-0.122497245
1764511662.1610875,-5.08158,0.3509799999999999,0.73248,-0.943173855,-0.29882736,-0.122497245
1764511662.1610875,-5.08158,0.3509799999999999,0.73248,-0.943173855,-0.29882736,-0.122497245
1764511662.1610875,-5.08158,0.3509799999999999,0.73248,-0.943173855,-0.29882736,-0.122497245
1764511662.1620922,-5.08158,0.3509799999999999,0.73248,-0.943173855,-0.29882736,-0.122497245
1764511662.1620922,-5.08158,0.3509799999999999,0.73248,-0.943173855,-0.29882736,-0.122497245
1764511662.1620922,-5.08158,0.3509799999999999,0.73248,-0.943173855,-0.29882736,-0.122497245
1764511662.1620922,-5.08158,0.3509799999999999,0.73248,-0.943173855,-0.29882736,-0.122497245
1764511662.1620922,-5.08158,0.3509799999999999,0.73248,-0.943173855,-0.29882736,-0.122497245
1764511662.1620922,-5.08158,0.3509799999999999,0.73248,-0.943173855,-0.29882736,-0.122497245
1764511662.1620922,-6.14978,0.73248,0.8698199999999999,-0.941953155,-0.299864955,-0.12426726
1764511662.1620922,-6.14978,0.73248,0.8698199999999999,-0.941953155,-0.299864955,-0.12426726
1764511662.1620922,-6.14978,0.73248,0.8698199999999999,-0.941953155,-0.299864955,-0.12426726
1764511662.16309,-6.14978,0.73248,0.8698199999999999,-0.941953155,-0.299864955,-0.12426726
1764511662.16309,-6.14978,0.73248,0.8698199999999999,-0.941953155,-0.299864955,-0.12426726
1764511662.16309,-6.14978,0.73248,0.8698199999999999,-0.941953155,-0.299864955,-0.12426726
1764511662.16309,-6.14978,0.73248,0.8698199999999999,-0.941953155,-0.299864955,-0.12426726
1764511662.16309,-6.14978,0.73248,0.8698199999999999,-0.941953155,-0.299864955,-0.12426726
1764511662.16309,-6.14978,0.73248,0.8698199999999999,-0.941953155,-0.299864955,-0.12426726
1764511662.16309,-6.14978,0.73248,0.8698199999999999,-0.941953155,-0.299864955,-0.12426726
1764511662.16309,-4.59326,1.28184,1.2971,-0.940244175,-0.30261153,-0.12341277
1764511662.16309,-4.59326,1.28184,1.2971,-0.940244175,-0.30261153,-0.12341277
1764511662.2051735,-4.59326,1.28184,1.2971,-0.940244175,-0.30261153,-0.12341277
1764511662.2051735,-4.59326,1.28184,1.2971,-0.940244175,-0.30261153,-0.12341277
1764511662.2061746,-4.59326,1.28184,1.2971,-0.940244175,-0.30261153,-0.12341277
1764511662.2061746,-4.59326,1.28184,1.2971,-0.940244175,-0.30261153,-0.12341277
1764511662.2061746,-4.59326,1.28184,1.2971,-0.940244175,-0.30261153,-0.12341277
1764511662.2061746,-4.59326,1.28184,1.2971,-0.940244175,-0.30261153,-0.12341277
1764511662.2061746,-4.59326,1.28184,1.2971,-0.940244175,-0.30261153,-0.12341277
1764511662.2061746,-4.59326,1.28184,1.2971,-0.940244175,-0.30261153,-0.12341277
1764511662.2061746,-2.57894,2.10588,1.4497,-0.93859623,-0.30456465,-0.12292449
1764511662.2061746,-2.57894,2.10588,1.4497,-0.93859623,-0.30456465,-0.12292449
1764511662.2061746,-2.57894,2.10588,1.4497,-0.93859623,-0.30456465,-0.12292449
1764511662.2061746,-2.57894,2.10588,1.4497,-0.93859623,-0.30456465,-0.12292449
1764511662.2061746,-2.57894,2.10588,1.4497,-0.93859623,-0.30456465,-0.12292449
1764511662.2061746,-2.57894,2.10588,1.4497,-0.93859623,-0.30456465,-0.12292449
1764511662.2061746,-2.57894,2.10588,1.4497,-0.93859623,-0.30456465,-0.12292449
1764511662.2061746,-2.57894,2.10588,1.4497,-0.93859623,-0.30456465,-0.12292449
1764511662.2061746,-2.57894,2.10588,1.4497,-0.93859623,-0.30456465,-0.12292449
1764511662.2061746,-2.57894,2.10588,1.4497,-0.93859623,-0.30456465,-0.12292449
1764511662.2061746,-1.43444,2.38056,0.74774,-0.93920658,-0.30505293,-0.12158172
1764511662.2061746,-1.43444,2.38056,0.74774,-0.93920658,-0.30505293,-0.12158172
1764511662.2061746,-1.43444,2.38056,0.74774,-0.93920658,-0.30505293,-0.12158172
1764511662.2061746,-1.43444,2.38056,0.74774,-0.93920658,-0.30505293,-0.12158172
1764511662.2537422,-1.43444,2.38056,0.74774,-0.93920658,-0.30505293,-0.12158172
1764511662.2537422,-1.43444,2.38056,0.74774,-0.93920658,-0.30505293,-0.12158172
1764511662.2537422,-1.43444,2.38056,0.74774,-0.93920658,-0.30505293,-0.12158172
1764511662.2537422,-1.43444,2.38056,0.74774,-0.93920658,-0.30505293,-0.12158172
1764511662.2537422,-1.43444,2.38056,0.74774,-0.93920658,-0.30505293,-0.12158172
1764511662.2537422,-1.43444,2.38056,0.74774,-0.93920658,-0.30505293,-0.12158172
1764511662.2537422,-2.0601,1.28184,0.47306,-0.94213626,-0.302794635,-0.121398615
1764511662.2537422,-2.0601,1.28184,0.47306,-0.94213626,-0.302794635,-0.121398615
1764511662.2537422,-2.0601,1.28184,0.47306,-0.94213626,-0.302794635,-0.121398615
1764511662.2537422,-2.0601,1.28184,0.47306,-0.94213626,-0.302794635,-0.121398615
1764511662.2537422,-2.0601,1.28184,0.47306,-0.94213626,-0.302794635,-0.121398615
1764511662.2537422,-2.0601,1.28184,0.47306,-0.94213626,-0.302794635,-0.121398615
1764511662.2537422,-2.0601,1.28184,0.47306,-0.94213626,-0.302794635,-0.121398615
1764511662.2537422,-2.0601,1.28184,0.47306,-0.94213626,-0.302794635,-0.121398615
1764511662.2537422,-2.0601,1.28184,0.47306,-0.94213626,-0.302794635,-0.121398615
1764511662.2537422,-2.0601,1.28184,0.47306,-0.94213626,-0.302794635,-0.121398615
1764511662.2537422,-3.78448,1.3734,0.39676,-0.942563505,-0.300597375,-0.120788265
1764511662.2537422,-3.78448,1.3734,0.39676,-0.942563505,-0.300597375,-0.120788265
1764511662.2537422,-3.78448,1.3734,0.39676,-0.942563505,-0.300597375,-0.120788265
1764511662.2537422,-3.78448,1.3734,0.39676,-0.942563505,-0.300597375,-0.120788265
1764511662.2537422,-3.78448,1.3734,0.39676,-0.942563505,-0.300597375,-0.120788265
1764511662.2537422,-3.78448,1.3734,0.39676,-0.942563505,-0.300597375,-0.120788265
1764511662.2537422,-3.78448,1.3734,0.39676,-0.942563505,-0.300597375,-0.120788265
1764511662.2537422,-3.78448,1.3734,0.39676,-0.942563505,-0.300597375,-0.120788265
1764511662.2984293,-3.78448,1.3734,0.39676,-0.942563505,-0.300597375,-0.120788265
1764511662.2984293,-3.78448,1.3734,0.39676,-0.942563505,-0.300597375,-0.120788265
1764511662.2984293,-5.7988,1.43444,0.8392999999999999,-0.943173855,-0.300109095,-0.12133758
1764511662.2984293,-5.7988,1.43444,0.8392999999999999,-0.943173855,-0.300109095,-0.12133758
1764511662.299424,-5.7988,1.43444,0.8392999999999999,-0.943173855,-0.300109095,-0.12133758
1764511662.299424,-5.7988,1.43444,0.8392999999999999,-0.943173855,-0.300109095,-0.12133758
1764511662.299424,-5.7988,1.43444,0.8392999999999999,-0.943173855,-0.300109095,-0.12133758
1764511662.299424,-5.7988,1.43444,0.8392999999999999,-0.943173855,-0.300109095,-0.12133758
1764511662.299424,-5.7988,1.43444,0.8392999999999999,-0.943173855,-0.300109095,-0.12133758
1764511662.299424,-5.7988,1.43444,0.8392999999999999,-0.943173855,-0.300109095,-0.12133758
1764511662.299424,-5.7988,1.43444,0.8392999999999999,-0.943173855,-0.300109095,-0.12133758
1764511662.299424,-5.7988,1.43444,0.8392999999999999,-0.943173855,-0.300109095,-0.12133758
1764511662.299424,-6.36342,1.84646,0.6409199999999999,-0.942197295,-0.30114669,-0.12133758
1764511662.299424,-6.36342,1.84646,0.6409199999999999,-0.942197295,-0.30114669,-0.12133758
1764511662.299424,-6.36342,1.84646,0.6409199999999999,-0.942197295,-0.30114669,-0.12133758
1764511662.299424,-6.36342,1.84646,0.6409199999999999,-0.942197295,-0.30114669,-0.12133758
1764511662.299424,-6.36342,1.84646,0.6409199999999999,-0.942197295,-0.30114669,-0.12133758
1764511662.299424,-6.36342,1.84646,0.6409199999999999,-0.942197295,-0.30114669,-0.12133758
1764511662.2999313,-6.36342,1.84646,0.6409199999999999,-0.942197295,-0.30114669,-0.12133758
1764511662.2999313,-6.36342,1.84646,0.6409199999999999,-0.942197295,-0.30114669,-0.12133758
1764511662.2999313,-6.36342,1.84646,0.6409199999999999,-0.942197295,-0.30114669,-0.12133758
1764511662.2999313,-6.36342,1.84646,0.6409199999999999,-0.942197295,-0.30114669,-0.12133758
1764511662.3466098,-5.17314,1.6022999999999998,0.12208,-0.941098665,-0.302306355,-0.121276545
1764511662.3466098,-5.17314,1.6022999999999998,0.12208,-0.941098665,-0.302306355,-0.121276545
1764511662.3466098,-5.17314,1.6022999999999998,0.12208,-0.941098665,-0.302306355,-0.121276545
1764511662.3466098,-5.17314,1.6022999999999998,0.12208,-0.941098665,-0.302306355,-0.121276545
1764511662.3466098,-5.17314,1.6022999999999998,0.12208,-0.941098665,-0.302306355,-0.121276545
1764511662.3466098,-5.17314,1.6022999999999998,0.12208,-0.941098665,-0.302306355,-0.121276545
1764511662.3466098,-5.17314,1.6022999999999998,0.12208,-0.941098665,-0.302306355,-0.121276545
1764511662.3466098,-5.17314,1.6022999999999998,0.12208,-0.941098665,-0.302306355,-0.121276545
1764511662.3482,-5.17314,1.6022999999999998,0.12208,-0.941098665,-0.302306355,-0.121276545
1764511662.3482,-5.17314,1.6022999999999998,0.12208,-0.941098665,-0.302306355,-0.121276545
1764511662.3482,-3.34194,1.2055399999999998,0.41202,-0.94225833,-0.304625685,-0.12097137
1764511662.3482,-3.34194,1.2055399999999998,0.41202,-0.94225833,-0.304625685,-0.12097137
1764511662.3482,-3.34194,1.2055399999999998,0.41202,-0.94225833,-0.304625685,-0.12097137
1764511662.3482,-3.34194,1.2055399999999998,0.41202,-0.94225833,-0.304625685,-0.12097137
1764511662.3482,-3.34194,1.2055399999999998,0.41202,-0.94225833,-0.304625685,-0.12097137
1764511662.3482,-3.34194,1.2055399999999998,0.41202,-0.94225833,-0.304625685,-0.12097137
1764511662.3482,-3.34194,1.2055399999999998,0.41202,-0.94225833,-0.304625685,-0.12097137
1764511662.3482,-3.34194,1.2055399999999998,0.41202,-0.94225833,-0.304625685,-0.12097137
1764511662.3482,-3.34194,1.2055399999999998,0.41202,-0.94225833,-0.304625685,-0.12097137
1764511662.3482,-3.34194,1.2055399999999998,0.41202,-0.94225833,-0.304625685,-0.12097137
1764511662.3482,-2.39582,1.48022,0.96138,-0.941342805,-0.30456465,-0.120544125
1764511662.3482,-2.39582,1.48022,0.96138,-0.941342805,-0.30456465,-0.120544125
1764511662.3482,-2.39582,1.48022,0.96138,-0.941342805,-0.30456465,-0.120544125
1764511662.3482,-2.39582,1.48022,0.96138,-0.941342805,-0.30456465,-0.120544125
1764511662.3920326,-2.39582,1.48022,0.96138,-0.941342805,-0.30456465,-0.120544125
1764511662.3920326,-2.39582,1.48022,0.96138,-0.941342805,-0.30456465,-0.120544125
1764511662.3920326,-2.39582,1.48022,0.96138,-0.941342805,-0.30456465,-0.120544125
1764511662.3920326,-2.39582,1.48022,0.96138,-0.941342805,-0.30456465,-0.120544125
1764511662.3920326,-2.39582,1.48022,0.96138,-0.941342805,-0.30456465,-0.120544125
1764511662.3920326,-2.39582,1.48022,0.96138,-0.941342805,-0.30456465,-0.120544125
1764511662.3920326,-3.29616,2.1364,0.6103999999999999,-0.940976595,-0.302306355,-0.12036102
1764511662.3920326,-3.29616,2.1364,0.6103999999999999,-0.940976595,-0.302306355,-0.12036102
1764511662.3920326,-3.29616,2.1364,0.6103999999999999,-0.940976595,-0.302306355,-0.12036102
1764511662.3920326,-3.29616,2.1364,0.6103999999999999,-0.940976595,-0.302306355,-0.12036102
1764511662.3920326,-3.29616,2.1364,0.6103999999999999,-0.940976595,-0.302306355,-0.12036102
1764511662.3920326,-3.29616,2.1364,0.6103999999999999,-0.940976595,-0.302306355,-0.12036102
1764511662.3920326,-3.29616,2.1364,0.6103999999999999,-0.940976595,-0.302306355,-0.12036102
1764511662.3920326,-3.29616,2.1364,0.6103999999999999,-0.940976595,-0.302306355,-0.12036102
1764511662.3920326,-3.29616,2.1364,0.6103999999999999,-0.940976595,-0.302306355,-0.12036102
1764511662.3920326,-3.29616,2.1364,0.6103999999999999,-0.940976595,-0.302306355,-0.12036102
1764511662.3920326,-4.2728,1.19028,0.03052,-0.943051785,-0.300231165,-0.121520685
1764511662.3920326,-4.2728,1.19028,0.03052,-0.943051785,-0.300231165,-0.121520685
1764511662.3920326,-4.2728,1.19028,0.03052,-0.943051785,-0.300231165,-0.121520685
1764511662.3920326,-4.2728,1.19028,0.03052,-0.943051785,-0.300231165,-0.121520685
1764511662.3920326,-4.2728,1.19028,0.03052,-0.943051785,-0.300231165,-0.121520685
1764511662.3920326,-4.2728,1.19028,0.03052,-0.943051785,-0.300231165,-0.121520685
1764511662.3920326,-4.2728,1.19028,0.03052,-0.943051785,-0.300231165,-0.121520685
1764511662.3920326,-4.2728,1.19028,0.03052,-0.943051785,-0.300231165,-0.121520685
1764511662.4408429,-4.2728,1.19028,0.03052,-0.943051785,-0.300231165,-0.121520685
1764511662.4408429,-4.2728,1.19028,0.03052,-0.943051785,-0.300231165,-0.121520685
1764511662.4408429,-5.096839999999999,0.93086,-0.2289,-0.944272485,-0.30004806,-0.12341277
1764511662.4408429,-5.096839999999999,0.93086,-0.2289,-0.944272485,-0.30004806,-0.12341277
1764511662.4418864,-5.096839999999999,0.93086,-0.2289,-0.944272485,-0.30004806,-0.12341277
1764511662.4418864,-5.096839999999999,0.93086,-0.2289,-0.944272485,-0.30004806,-0.12341277
1764511662.4418864,-5.096839999999999,0.93086,-0.2289,-0.944272485,-0.30004806,-0.12341277
1764511662.4418864,-5.096839999999999,0.93086,-0.2289,-0.944272485,-0.30004806,-0.12341277
1764511662.4418864,-5.096839999999999,0.93086,-0.2289,-0.944272485,-0.30004806,-0.12341277
1764511662.4418864,-5.096839999999999,0.93086,-0.2289,-0.944272485,-0.30004806,-0.12341277
1764511662.4418864,-5.096839999999999,0.93086,-0.2289,-0.944272485,-0.30004806,-0.12341277
1764511662.4428854,-5.096839999999999,0.93086,-0.2289,-0.944272485,-0.30004806,-0.12341277
1764511662.4428854,-5.43256,1.28184,-0.13734,-0.94250247,-0.301940145,-0.123717945
1764511662.4428854,-5.43256,1.28184,-0.13734,-0.94250247,-0.301940145,-0.123717945
1764511662.4428854,-5.43256,1.28184,-0.13734,-0.94250247,-0.301940145,-0.123717945
1764511662.4428854,-5.43256,1.28184,-0.13734,-0.94250247,-0.301940145,-0.123717945
1764511662.4428854,-5.43256,1.28184,-0.13734,-0.94250247,-0.301940145,-0.123717945
1764511662.4428854,-5.43256,1.28184,-0.13734,-0.94250247,-0.301940145,-0.123717945
1764511662.4438927,-5.43256,1.28184,-0.13734,-0.94250247,-0.301940145,-0.123717945
1764511662.4438927,-5.43256,1.28184,-0.13734,-0.94250247,-0.301940145,-0.123717945
1764511662.4438927,-5.43256,1.28184,-0.13734,-0.94250247,-0.301940145,-0.123717945
1764511662.4438927,-5.43256,1.28184,-0.13734,-0.94250247,-0.301940145,-0.123717945
1764511662.4438927,-4.56274,1.96854,0.57988,-0.94042728,-0.304259475,-0.12219207
1764511662.4438927,-4.56274,1.96854,0.57988,-0.94042728,-0.304259475,-0.12219207
1764511662.4850564,-4.56274,1.96854,0.57988,-0.94042728,-0.304259475,-0.12219207
1764511662.4850564,-4.56274,1.96854,0.57988,-0.94042728,-0.304259475,-0.12219207
1764511662.4850564,-4.56274,1.96854,0.57988,-0.94042728,-0.304259475,-0.12219207
1764511662.4850564,-4.56274,1.96854,0.57988,-0.94042728,-0.304259475,-0.12219207
1764511662.4850564,-4.56274,1.96854,0.57988,-0.94042728,-0.304259475,-0.12219207
1764511662.4850564,-4.56274,1.96854,0.57988,-0.94042728,-0.304259475,-0.12219207
1764511662.486085,-4.56274,1.96854,0.57988,-0.94042728,-0.304259475,-0.12219207
1764511662.486085,-4.56274,1.96854,0.57988,-0.94042728,-0.304259475,-0.12219207
1764511662.486085,-3.29616,1.7549,0.59514,-0.93969486,-0.30493086,-0.12048309
1764511662.486085,-3.29616,1.7549,0.59514,-0.93969486,-0.30493086,-0.12048309
1764511662.486085,-3.29616,1.7549,0.59514,-0.93969486,-0.30493086,-0.12048309
1764511662.486085,-3.29616,1.7549,0.59514,-0.93969486,-0.30493086,-0.12048309
1764511662.486085,-3.29616,1.7549,0.59514,-0.93969486,-0.30493086,-0.12048309
1764511662.486085,-3.29616,1.7549,0.59514,-0.93969486,-0.30493086,-0.12048309
1764511662.486085,-3.29616,1.7549,0.59514,-0.93969486,-0.30493086,-0.12048309
1764511662.486085,-3.29616,1.7549,0.59514,-0.93969486,-0.30493086,-0.12048309
1764511662.486085,-3.29616,1.7549,0.59514,-0.93969486,-0.30493086,-0.12048309
1764511662.486085,-3.29616,1.7549,0.59514,-0.93969486,-0.30493086,-0.12048309
1764511662.486085,-1.99906,1.12924,0.4578,-0.940854525,-0.304137405,-0.11975067
1764511662.486085,-1.99906,1.12924,0.4578,-0.940854525,-0.304137405,-0.11975067
1764511662.486085,-1.99906,1.12924,0.4578,-0.940854525,-0.304137405,-0.11975067
1764511662.486085,-1.99906,1.12924,0.4578,-0.940854525,-0.304137405,-0.11975067
1764511662.5347235,-1.99906,1.12924,0.4578,-0.940854525,-0.304137405,-0.11975067
1764511662.5347235,-1.99906,1.12924,0.4578,-0.940854525,-0.304137405,-0.11975067
1764511662.5347235,-1.99906,1.12924,0.4578,-0.940854525,-0.304137405,-0.11975067
1764511662.5347235,-1.99906,1.12924,0.4578,-0.940854525,-0.304137405,-0.11975067
1764511662.5347235,-1.99906,1.12924,0.4578,-0.940854525,-0.304137405,-0.11975067
1764511662.5347235,-1.99906,1.12924,0.4578,-0.940854525,-0.304137405,-0.11975067
1764511662.5347235,-2.96044,1.1445,0.59514,-0.94189212,-0.300719445,-0.120788265
1764511662.5347235,-2.96044,1.1445,0.59514,-0.94189212,-0.300719445,-0.120788265
1764511662.5347235,-2.96044,1.1445,0.59514,-0.94189212,-0.300719445,-0.120788265
1764511662.5347235,-2.96044,1.1445,0.59514,-0.94189212,-0.300719445,-0.120788265
1764511662.5347235,-2.96044,1.1445,0.59514,-0.94189212,-0.300719445,-0.120788265
1764511662.5347235,-2.96044,1.1445,0.59514,-0.94189212,-0.300719445,-0.120788265
1764511662.5347235,-2.96044,1.1445,0.59514,-0.94189212,-0.300719445,-0.120788265
1764511662.5347235,-2.96044,1.1445,0.59514,-0.94189212,-0.300719445,-0.120788265
1764511662.5347235,-2.96044,1.1445,0.59514,-0.94189212,-0.300719445,-0.120788265
1764511662.5347235,-2.96044,1.1445,0.59514,-0.94189212,-0.300719445,-0.120788265
1764511662.5347235,-4.91372,0.96138,0.6103999999999999,-0.94213626,-0.298644255,-0.12121551
1764511662.5347235,-4.91372,0.96138,0.6103999999999999,-0.94213626,-0.298644255,-0.12121551
1764511662.5347235,-4.91372,0.96138,0.6103999999999999,-0.94213626,-0.298644255,-0.12121551
1764511662.5347235,-4.91372,0.96138,0.6103999999999999,-0.94213626,-0.298644255,-0.12121551
1764511662.5347235,-4.91372,0.96138,0.6103999999999999,-0.94213626,-0.298644255,-0.12121551
1764511662.5347235,-4.91372,0.96138,0.6103999999999999,-0.94213626,-0.298644255,-0.12121551
1764511662.5347235,-4.91372,0.96138,0.6103999999999999,-0.94213626,-0.298644255,-0.12121551
1764511662.5347235,-4.91372,0.96138,0.6103999999999999,-0.94213626,-0.298644255,-0.12121551
1764511662.583687,-4.91372,0.96138,0.6103999999999999,-0.94213626,-0.298644255,-0.12121551
1764511662.583687,-4.91372,0.96138,0.6103999999999999,-0.94213626,-0.298644255,-0.12121551
1764511662.583687,-5.98192,0.77826,0.28994,-0.94189212,-0.29846115,-0.12231414
1764511662.583687,-5.98192,0.77826,0.28994,-0.94189212,-0.29846115,-0.12231414
1764511662.583687,-5.98192,0.77826,0.28994,-0.94189212,-0.29846115,-0.12231414
1764511662.583687,-5.98192,0.77826,0.28994,-0.94189212,-0.29846115,-0.12231414
1764511662.583687,-5.98192,0.77826,0.28994,-0.94189212,-0.29846115,-0.12231414
1764511662.583687,-5.98192,0.77826,0.28994,-0.94189212,-0.29846115,-0.12231414
1764511662.583687,-5.98192,0.77826,0.28994,-0.94189212,-0.29846115,-0.12231414
1764511662.583687,-5.98192,0.77826,0.28994,-0.94189212,-0.29846115,-0.12231414
1764511662.583687,-5.98192,0.77826,0.28994,-0.94189212,-0.29846115,-0.12231414
1764511662.583687,-5.98192,0.77826,0.28994,-0.94189212,-0.29846115,-0.12231414
1764511662.583687,-5.32574,1.19028,0.18312,-0.94213626,-0.30004806,-0.122497245
1764511662.583687,-5.32574,1.19028,0.18312,-0.94213626,-0.30004806,-0.122497245
1764511662.583687,-5.32574,1.19028,0.18312,-0.94213626,-0.30004806,-0.122497245
1764511662.583687,-5.32574,1.19028,0.18312,-0.94213626,-0.30004806,-0.122497245
1764511662.583687,-5.32574,1.19028,0.18312,-0.94213626,-0.30004806,-0.122497245
1764511662.583687,-5.32574,1.19028,0.18312,-0.94213626,-0.30004806,-0.122497245
1764511662.583687,-5.32574,1.19028,0.18312,-0.94213626,-0.30004806,-0.122497245
1764511662.5846696,-5.32574,1.19028,0.18312,-0.94213626,-0.30004806,-0.122497245
1764511662.5846696,-5.32574,1.19028,0.18312,-0.94213626,-0.30004806,-0.122497245
1764511662.5846696,-5.32574,1.19028,0.18312,-0.94213626,-0.30004806,-0.122497245
1764511662.5846696,-3.9676,1.34288,0.1525999999999999,-0.94177005,-0.30224532,-0.12255828
1764511662.5846696,-3.9676,1.34288,0.1525999999999999,-0.94177005,-0.30224532,-0.12255828
1764511662.6289003,-3.9676,1.34288,0.1525999999999999,-0.94177005,-0.30224532,-0.12255828
1764511662.6289003,-3.9676,1.34288,0.1525999999999999,-0.94177005,-0.30224532,-0.12255828
1764511662.6289003,-3.9676,1.34288,0.1525999999999999,-0.94177005,-0.30224532,-0.12255828
1764511662.6289003,-3.9676,1.34288,0.1525999999999999,-0.94177005,-0.30224532,-0.12255828
1764511662.6289003,-3.9676,1.34288,0.1525999999999999,-0.94177005,-0.30224532,-0.12255828
1764511662.6289003,-3.9676,1.34288,0.1525999999999999,-0.94177005,-0.30224532,-0.12255828
1764511662.6289003,-3.9676,1.34288,0.1525999999999999,-0.94177005,-0.30224532,-0.12255828
1764511662.6289003,-3.9676,1.34288,0.1525999999999999,-0.94177005,-0.30224532,-0.12255828
1764511662.6289003,-3.52506,1.48022,0.3509799999999999,-0.940854525,-0.303404985,-0.121886895
1764511662.629919,-3.52506,1.48022,0.3509799999999999,-0.940854525,-0.303404985,-0.121886895
1764511662.629919,-3.52506,1.48022,0.3509799999999999,-0.940854525,-0.303404985,-0.121886895
1764511662.629919,-3.52506,1.48022,0.3509799999999999,-0.940854525,-0.303404985,-0.121886895
1764511662.629919,-3.52506,1.48022,0.3509799999999999,-0.940854525,-0.303404985,-0.121886895
1764511662.629919,-3.52506,1.48022,0.3509799999999999,-0.940854525,-0.303404985,-0.121886895
1764511662.6309218,-3.52506,1.48022,0.3509799999999999,-0.940854525,-0.303404985,-0.121886895
1764511662.6309218,-3.52506,1.48022,0.3509799999999999,-0.940854525,-0.303404985,-0.121886895
1764511662.6309218,-3.52506,1.48022,0.3509799999999999,-0.940854525,-0.303404985,-0.121886895
1764511662.6309218,-3.52506,1.48022,0.3509799999999999,-0.940854525,-0.303404985,-0.121886895
1764511662.6309218,-3.00622,1.84646,0.94612,-0.94042728,-0.303282915,-0.12060516
1764511662.6309218,-3.00622,1.84646,0.94612,-0.94042728,-0.303282915,-0.12060516
1764511662.6765382,-3.00622,1.84646,0.94612,-0.94042728,-0.303282915,-0.12060516
1764511662.6765382,-3.00622,1.84646,0.94612,-0.94042728,-0.303282915,-0.12060516
1764511662.6765382,-3.00622,1.84646,0.94612,-0.94042728,-0.303282915,-0.12060516
1764511662.6765382,-3.00622,1.84646,0.94612,-0.94042728,-0.303282915,-0.12060516
1764511662.6765382,-3.00622,1.84646,0.94612,-0.94042728,-0.303282915,-0.12060516
1764511662.6765382,-3.00622,1.84646,0.94612,-0.94042728,-0.303282915,-0.12060516
1764511662.6765382,-3.00622,1.84646,0.94612,-0.94042728,-0.303282915,-0.12060516
1764511662.6765382,-3.00622,1.84646,0.94612,-0.94042728,-0.303282915,-0.12060516
1764511662.6765382,-3.815,1.51074,0.82404,-0.942197295,-0.301207725,-0.11975067
1764511662.6765382,-3.815,1.51074,0.82404,-0.942197295,-0.301207725,-0.11975067
1764511662.6765382,-3.815,1.51074,0.82404,-0.942197295,-0.301207725,-0.11975067
1764511662.6765382,-3.815,1.51074,0.82404,-0.942197295,-0.301207725,-0.11975067
1764511662.6765382,-3.815,1.51074,0.82404,-0.942197295,-0.301207725,-0.11975067
1764511662.6765382,-3.815,1.51074,0.82404,-0.942197295,-0.301207725,-0.11975067
1764511662.6765382,-3.815,1.51074,0.82404,-0.942197295,-0.301207725,-0.11975067
1764511662.6765382,-3.815,1.51074,0.82404,-0.942197295,-0.301207725,-0.11975067
1764511662.6765382,-3.815,1.51074,0.82404,-0.942197295,-0.301207725,-0.11975067
1764511662.6765382,-3.815,1.51074,0.82404,-0.942197295,-0.301207725,-0.11975067
1764511662.6765382,-5.508859999999999,1.12924,0.6409199999999999,-0.942197295,-0.300109095,-0.120055845
1764511662.6765382,-5.508859999999999,1.12924,0.6409199999999999,-0.942197295,-0.300109095,-0.120055845
1764511662.6765382,-5.508859999999999,1.12924,0.6409199999999999,-0.942197295,-0.300109095,-0.120055845
1764511662.6765382,-5.508859999999999,1.12924,0.6409199999999999,-0.942197295,-0.300109095,-0.120055845
1764511662.6765382,-5.508859999999999,1.12924,0.6409199999999999,-0.942197295,-0.300109095,-0.120055845
1764511662.6765382,-5.508859999999999,1.12924,0.6409199999999999,-0.942197295,-0.300109095,-0.120055845
1764511662.6765382,-5.508859999999999,1.12924,0.6409199999999999,-0.942197295,-0.300109095,-0.120055845
1764511662.6765382,-5.508859999999999,1.12924,0.6409199999999999,-0.942197295,-0.300109095,-0.120055845
1764511662.7209067,-5.508859999999999,1.12924,0.6409199999999999,-0.942197295,-0.300109095,-0.120055845
1764511662.7209067,-5.508859999999999,1.12924,0.6409199999999999,-0.942197295,-0.300109095,-0.120055845
1764511662.721949,-6.409199999999999,0.763,0.5341,-0.94164798,-0.299498745,-0.12011688
1764511662.721949,-6.409199999999999,0.763,0.5341,-0.94164798,-0.299498745,-0.12011688
1764511662.721949,-6.409199999999999,0.763,0.5341,-0.94164798,-0.299498745,-0.12011688
1764511662.721949,-6.409199999999999,0.763,0.5341,-0.94164798,-0.299498745,-0.12011688
1764511662.721949,-6.409199999999999,0.763,0.5341,-0.94164798,-0.299498745,-0.12011688
1764511662.721949,-6.409199999999999,0.763,0.5341,-0.94164798,-0.299498745,-0.12011688
1764511662.721949,-6.409199999999999,0.763,0.5341,-0.94164798,-0.299498745,-0.12011688
1764511662.7229471,-6.409199999999999,0.763,0.5341,-0.94164798,-0.299498745,-0.12011688
1764511662.7229471,-6.409199999999999,0.763,0.5341,-0.94164798,-0.299498745,-0.12011688
1764511662.7229471,-6.409199999999999,0.763,0.5341,-0.94164798,-0.299498745,-0.12011688
1764511662.7229471,-5.27996,1.2971,0.3815,-0.9411597,-0.301451865,-0.1208493
1764511662.7229471,-5.27996,1.2971,0.3815,-0.9411597,-0.301451865,-0.1208493
1764511662.7229471,-5.27996,1.2971,0.3815,-0.9411597,-0.301451865,-0.1208493
1764511662.7229471,-5.27996,1.2971,0.3815,-0.9411597,-0.301451865,-0.1208493
1764511662.7239468,-5.27996,1.2971,0.3815,-0.9411597,-0.301451865,-0.1208493
1764511662.7239468,-5.27996,1.2971,0.3815,-0.9411597,-0.301451865,-0.1208493
1764511662.7239468,-5.27996,1.2971,0.3815,-0.9411597,-0.301451865,-0.1208493
1764511662.72446,-5.27996,1.2971,0.3815,-0.9411597,-0.301451865,-0.1208493
1764511662.72446,-5.27996,1.2971,0.3815,-0.9411597,-0.301451865,-0.1208493
1764511662.72446,-5.27996,1.2971,0.3815,-0.9411597,-0.301451865,-0.1208493
1764511662.768577,-4.303319999999999,1.6786,-0.03052,-0.942441435,-0.30358809,-0.121764825
1764511662.768577,-4.303319999999999,1.6786,-0.03052,-0.942441435,-0.30358809,-0.121764825
