Timestamp,GyroX,GyroY,GyroZ,AccX,AccY,AccZ
1764511035.341308,-6.1803,1.4039199999999998,0.6867,-0.93090582,-0.321959625,-0.147033315
1764511035.341308,-6.1803,1.4039199999999998,0.6867,-0.93090582,-0.321959625,-0.147033315
1764511035.341308,-6.1803,1.4039199999999998,0.6867,-0.93090582,-0.321959625,-0.147033315
1764511035.341308,-6.1803,1.4039199999999998,0.6867,-0.93090582,-0.321959625,-0.147033315
1764511035.341308,-6.1803,1.4039199999999998,0.6867,-0.93090582,-0.321959625,-0.147033315
1764511035.341308,-6.1803,1.4039199999999998,0.6867,-0.93090582,-0.321959625,-0.147033315
1764511035.341308,-6.1803,1.4039199999999998,0.6867,-0.93090582,-0.321959625,-0.147033315
1764511035.341308,-5.21892,1.26658,1.02242,-0.931210995,-0.322081695,-0.14636193
1764511035.341308,-5.21892,1.26658,1.02242,-0.931210995,-0.322081695,-0.14636193
1764511035.341308,-5.21892,1.26658,1.02242,-0.931210995,-0.322081695,-0.14636193
1764511035.341308,-5.21892,1.26658,1.02242,-0.931210995,-0.322081695,-0.14636193
1764511035.341308,-5.21892,1.26658,1.02242,-0.931210995,-0.322081695,-0.14636193
1764511035.341308,-5.21892,1.26658,1.02242,-0.931210995,-0.322081695,-0.14636193
1764511035.341308,-5.21892,1.26658,1.02242,-0.931210995,-0.322081695,-0.14636193
1764511035.341308,-5.21892,1.26658,1.02242,-0.931210995,-0.322081695,-0.14636193
1764511035.341308,-5.21892,1.26658,1.02242,-0.931210995,-0.322081695,-0.14636193
1764511035.341308,-5.21892,1.26658,1.02242,-0.931210995,-0.322081695,-0.14636193
1764511035.341308,-4.37962,1.3734,1.02242,-0.931699275,-0.32153238,-0.14623986
1764511035.342303,-4.37962,1.3734,1.02242,-0.931699275,-0.32153238,-0.14623986
1764511035.342303,-4.37962,1.3734,1.02242,-0.931699275,-0.32153238,-0.14623986
1764511035.342303,-4.37962,1.3734,1.02242,-0.931699275,-0.32153238,-0.14623986
1764511035.342303,-4.37962,1.3734,1.02242,-0.931699275,-0.32153238,-0.14623986
1764511035.342303,-4.37962,1.3734,1.02242,-0.931699275,-0.32153238,-0.14623986
1764511035.342303,-4.37962,1.3734,1.02242,-0.931699275,-0.32153238,-0.14623986
1764511035.342303,-4.37962,1.3734,1.02242,-0.931699275,-0.32153238,-0.14623986
1764511035.3848138,-4.37962,1.3734,1.02242,-0.931699275,-0.32153238,-0.14623986
1764511035.3848138,-4.37962,1.3734,1.02242,-0.931699275,-0.32153238,-0.14623986
1764511035.3848138,-5.27996,1.46496,0.88508,-0.931943415,-0.320006505,-0.14672814
1764511035.3858268,-5.27996,1.46496,0.88508,-0.931943415,-0.320006505,-0.14672814
1764511035.3858268,-5.27996,1.46496,0.88508,-0.931943415,-0.320006505,-0.14672814
1764511035.3858268,-5.27996,1.46496,0.88508,-0.931943415,-0.320006505,-0.14672814
1764511035.3858268,-5.27996,1.46496,0.88508,-0.931943415,-0.320006505,-0.14672814
1764511035.3858268,-5.27996,1.46496,0.88508,-0.931943415,-0.320006505,-0.14672814
1764511035.3858268,-5.27996,1.46496,0.88508,-0.931943415,-0.320006505,-0.14672814
1764511035.3858268,-5.27996,1.46496,0.88508,-0.931943415,-0.320006505,-0.14672814
1764511035.3858268,-5.27996,1.46496,0.88508,-0.931943415,-0.320006505,-0.14672814
1764511035.3868265,-5.27996,1.46496,0.88508,-0.931943415,-0.320006505,-0.14672814
1764511035.3868265,-5.93614,1.17502,0.82404,-0.932309625,-0.31835856,-0.14697228
1764511035.3868265,-5.93614,1.17502,0.82404,-0.932309625,-0.31835856,-0.14697228
1764511035.3868265,-5.93614,1.17502,0.82404,-0.932309625,-0.31835856,-0.14697228
1764511035.3868265,-5.93614,1.17502,0.82404,-0.932309625,-0.31835856,-0.14697228
1764511035.3878293,-5.93614,1.17502,0.82404,-0.932309625,-0.31835856,-0.14697228
1764511035.3878293,-5.93614,1.17502,0.82404,-0.932309625,-0.31835856,-0.14697228
1764511035.3878293,-5.93614,1.17502,0.82404,-0.932309625,-0.31835856,-0.14697228
1764511035.3878293,-5.93614,1.17502,0.82404,-0.932309625,-0.31835856,-0.14697228
1764511035.3878293,-5.93614,1.17502,0.82404,-0.932309625,-0.31835856,-0.14697228
1764511035.388836,-5.93614,1.17502,0.82404,-0.932309625,-0.31835856,-0.14697228
1764511035.432128,-5.52412,0.8698199999999999,1.02242,-0.93200445,-0.317198895,-0.146789175
1764511035.432128,-5.52412,0.8698199999999999,1.02242,-0.93200445,-0.317198895,-0.146789175
1764511035.432128,-5.52412,0.8698199999999999,1.02242,-0.93200445,-0.317198895,-0.146789175
1764511035.432128,-5.52412,0.8698199999999999,1.02242,-0.93200445,-0.317198895,-0.146789175
1764511035.432128,-5.52412,0.8698199999999999,1.02242,-0.93200445,-0.317198895,-0.146789175
1764511035.432128,-5.52412,0.8698199999999999,1.02242,-0.93200445,-0.317198895,-0.146789175
1764511035.432128,-5.52412,0.8698199999999999,1.02242,-0.93200445,-0.317198895,-0.146789175
1764511035.432128,-5.52412,0.8698199999999999,1.02242,-0.93200445,-0.317198895,-0.146789175
1764511035.432128,-5.52412,0.8698199999999999,1.02242,-0.93200445,-0.317198895,-0.146789175
1764511035.432128,-5.52412,0.8698199999999999,1.02242,-0.93200445,-0.317198895,-0.146789175
1764511035.432128,-6.19556,0.6714399999999999,0.85456,-0.933042045,-0.317443035,-0.147521595
1764511035.432128,-6.19556,0.6714399999999999,0.85456,-0.933042045,-0.317443035,-0.147521595
1764511035.4336452,-6.19556,0.6714399999999999,0.85456,-0.933042045,-0.317443035,-0.147521595
1764511035.4336452,-6.19556,0.6714399999999999,0.85456,-0.933042045,-0.317443035,-0.147521595
1764511035.4336452,-6.19556,0.6714399999999999,0.85456,-0.933042045,-0.317443035,-0.147521595
1764511035.434534,-6.19556,0.6714399999999999,0.85456,-0.933042045,-0.317443035,-0.147521595
1764511035.434534,-6.19556,0.6714399999999999,0.85456,-0.933042045,-0.317443035,-0.147521595
1764511035.434534,-6.19556,0.6714399999999999,0.85456,-0.933042045,-0.317443035,-0.147521595
1764511035.434534,-6.19556,0.6714399999999999,0.85456,-0.933042045,-0.317443035,-0.147521595
1764511035.434534,-6.19556,0.6714399999999999,0.85456,-0.933042045,-0.317443035,-0.147521595
1764511035.434534,-7.00434,0.7019599999999999,0.9919,-0.932309625,-0.317565105,-0.14868126
1764511035.434534,-7.00434,0.7019599999999999,0.9919,-0.932309625,-0.317565105,-0.14868126
1764511035.4813256,-7.00434,0.7019599999999999,0.9919,-0.932309625,-0.317565105,-0.14868126
1764511035.4813256,-7.00434,0.7019599999999999,0.9919,-0.932309625,-0.317565105,-0.14868126
1764511035.4813256,-7.00434,0.7019599999999999,0.9919,-0.932309625,-0.317565105,-0.14868126
1764511035.4813256,-7.00434,0.7019599999999999,0.9919,-0.932309625,-0.317565105,-0.14868126
1764511035.4813256,-7.00434,0.7019599999999999,0.9919,-0.932309625,-0.317565105,-0.14868126
1764511035.4813256,-7.00434,0.7019599999999999,0.9919,-0.932309625,-0.317565105,-0.14868126
1764511035.4813256,-7.00434,0.7019599999999999,0.9919,-0.932309625,-0.317565105,-0.14868126
1764511035.4813256,-7.00434,0.7019599999999999,0.9919,-0.932309625,-0.317565105,-0.14868126
1764511035.4813256,-5.67672,1.23606,1.6022999999999998,-0.931210995,-0.317809245,-0.14782677
1764511035.4813256,-5.67672,1.23606,1.6022999999999998,-0.931210995,-0.317809245,-0.14782677
1764511035.4813256,-5.67672,1.23606,1.6022999999999998,-0.931210995,-0.317809245,-0.14782677
1764511035.4813256,-5.67672,1.23606,1.6022999999999998,-0.931210995,-0.317809245,-0.14782677
1764511035.4813256,-5.67672,1.23606,1.6022999999999998,-0.931210995,-0.317809245,-0.14782677
1764511035.4813256,-5.67672,1.23606,1.6022999999999998,-0.931210995,-0.317809245,-0.14782677
1764511035.4813256,-5.67672,1.23606,1.6022999999999998,-0.931210995,-0.317809245,-0.14782677
1764511035.4813256,-5.67672,1.23606,1.6022999999999998,-0.931210995,-0.317809245,-0.14782677
1764511035.4813256,-5.67672,1.23606,1.6022999999999998,-0.931210995,-0.317809245,-0.14782677
1764511035.4813256,-5.67672,1.23606,1.6022999999999998,-0.931210995,-0.317809245,-0.14782677
1764511035.4813256,-4.18124,1.49548,0.88508,-0.93176031,-0.320860995,-0.146484
1764511035.4828422,-4.18124,1.49548,0.88508,-0.93176031,-0.320860995,-0.146484
1764511035.4828422,-4.18124,1.49548,0.88508,-0.93176031,-0.320860995,-0.146484
1764511035.4828422,-4.18124,1.49548,0.88508,-0.93176031,-0.320860995,-0.146484
1764511035.4828422,-4.18124,1.49548,0.88508,-0.93176031,-0.320860995,-0.146484
1764511035.4828422,-4.18124,1.49548,0.88508,-0.93176031,-0.320860995,-0.146484
1764511035.5261974,-4.18124,1.49548,0.88508,-0.93176031,-0.320860995,-0.146484
1764511035.5261974,-4.18124,1.49548,0.88508,-0.93176031,-0.320860995,-0.146484
1764511035.5261974,-4.18124,1.49548,0.88508,-0.93176031,-0.320860995,-0.146484
1764511035.5261974,-4.18124,1.49548,0.88508,-0.93176031,-0.320860995,-0.146484
1764511035.5261974,-3.47928,1.49548,0.82404,-0.931088925,-0.32214273,-0.145324335
1764511035.5261974,-3.47928,1.49548,0.82404,-0.931088925,-0.32214273,-0.145324335
1764511035.5261974,-3.47928,1.49548,0.82404,-0.931088925,-0.32214273,-0.145324335
1764511035.5261974,-3.47928,1.49548,0.82404,-0.931088925,-0.32214273,-0.145324335
1764511035.5261974,-3.47928,1.49548,0.82404,-0.931088925,-0.32214273,-0.145324335
1764511035.5261974,-3.47928,1.49548,0.82404,-0.931088925,-0.32214273,-0.145324335
1764511035.5261974,-3.47928,1.49548,0.82404,-0.931088925,-0.32214273,-0.145324335
1764511035.5261974,-3.47928,1.49548,0.82404,-0.931088925,-0.32214273,-0.145324335
1764511035.5261974,-3.47928,1.49548,0.82404,-0.931088925,-0.32214273,-0.145324335
1764511035.5261974,-3.47928,1.49548,0.82404,-0.931088925,-0.32214273,-0.145324335
1764511035.5272126,-4.59326,1.41918,0.88508,-0.93127203,-0.31896891,-0.144836055
1764511035.5272126,-4.59326,1.41918,0.88508,-0.93127203,-0.31896891,-0.144836055
1764511035.5272126,-4.59326,1.41918,0.88508,-0.93127203,-0.31896891,-0.144836055
1764511035.5272126,-4.59326,1.41918,0.88508,-0.93127203,-0.31896891,-0.144836055
1764511035.5272126,-4.59326,1.41918,0.88508,-0.93127203,-0.31896891,-0.144836055
1764511035.5272126,-4.59326,1.41918,0.88508,-0.93127203,-0.31896891,-0.144836055
1764511035.5272126,-4.59326,1.41918,0.88508,-0.93127203,-0.31896891,-0.144836055
1764511035.5272126,-4.59326,1.41918,0.88508,-0.93127203,-0.31896891,-0.144836055
1764511035.5272126,-4.59326,1.41918,0.88508,-0.93127203,-0.31896891,-0.144836055
1764511035.5272126,-4.59326,1.41918,0.88508,-0.93127203,-0.31896891,-0.144836055
1764511035.5746126,-5.52412,0.6714399999999999,0.763,-0.9326148,-0.31603923,-0.14611779
1764511035.5746126,-5.52412,0.6714399999999999,0.763,-0.9326148,-0.31603923,-0.14611779
1764511035.5746126,-5.52412,0.6714399999999999,0.763,-0.9326148,-0.31603923,-0.14611779
1764511035.5746126,-5.52412,0.6714399999999999,0.763,-0.9326148,-0.31603923,-0.14611779
1764511035.5746126,-5.52412,0.6714399999999999,0.763,-0.9326148,-0.31603923,-0.14611779
1764511035.5746126,-5.52412,0.6714399999999999,0.763,-0.9326148,-0.31603923,-0.14611779
1764511035.5746126,-5.52412,0.6714399999999999,0.763,-0.9326148,-0.31603923,-0.14611779
1764511035.5746126,-5.52412,0.6714399999999999,0.763,-0.9326148,-0.31603923,-0.14611779
1764511035.5746126,-5.52412,0.6714399999999999,0.763,-0.9326148,-0.31603923,-0.14611779
1764511035.5746126,-5.52412,0.6714399999999999,0.763,-0.9326148,-0.31603923,-0.14611779
1764511035.5746126,-6.59232,0.56462,0.9156,-0.9338355,-0.314757495,-0.148742295
1764511035.5746126,-6.59232,0.56462,0.9156,-0.9338355,-0.314757495,-0.148742295
1764511035.5746126,-6.59232,0.56462,0.9156,-0.9338355,-0.314757495,-0.148742295
1764511035.5746126,-6.59232,0.56462,0.9156,-0.9338355,-0.314757495,-0.148742295
1764511035.5746126,-6.59232,0.56462,0.9156,-0.9338355,-0.314757495,-0.148742295
1764511035.5746126,-6.59232,0.56462,0.9156,-0.9338355,-0.314757495,-0.148742295
1764511035.5746126,-6.59232,0.56462,0.9156,-0.9338355,-0.314757495,-0.148742295
1764511035.5746126,-6.59232,0.56462,0.9156,-0.9338355,-0.314757495,-0.148742295
1764511035.5746126,-6.59232,0.56462,0.9156,-0.9338355,-0.314757495,-0.148742295
1764511035.5746126,-6.59232,0.56462,0.9156,-0.9338355,-0.314757495,-0.148742295
1764511035.5746126,-6.516019999999999,1.05294,1.0682,-0.93249273,-0.315734055,-0.148254015
1764511035.5746126,-6.516019999999999,1.05294,1.0682,-0.93249273,-0.315734055,-0.148254015
1764511035.5746126,-6.516019999999999,1.05294,1.0682,-0.93249273,-0.315734055,-0.148254015
1764511035.5746126,-6.516019999999999,1.05294,1.0682,-0.93249273,-0.315734055,-0.148254015
1764511035.621692,-6.516019999999999,1.05294,1.0682,-0.93249273,-0.315734055,-0.148254015
1764511035.621692,-6.516019999999999,1.05294,1.0682,-0.93249273,-0.315734055,-0.148254015
1764511035.621692,-6.516019999999999,1.05294,1.0682,-0.93249273,-0.315734055,-0.148254015
1764511035.621692,-6.516019999999999,1.05294,1.0682,-0.93249273,-0.315734055,-0.148254015
1764511035.621692,-6.516019999999999,1.05294,1.0682,-0.93249273,-0.315734055,-0.148254015
1764511035.621692,-6.516019999999999,1.05294,1.0682,-0.93249273,-0.315734055,-0.148254015
1764511035.621692,-5.15788,1.58704,0.59514,-0.93114996,-0.317809245,-0.14685021
1764511035.621692,-5.15788,1.58704,0.59514,-0.93114996,-0.317809245,-0.14685021
1764511035.6252334,-5.15788,1.58704,0.59514,-0.93114996,-0.317809245,-0.14685021
1764511035.6252334,-5.15788,1.58704,0.59514,-0.93114996,-0.317809245,-0.14685021
1764511035.6252334,-5.15788,1.58704,0.59514,-0.93114996,-0.317809245,-0.14685021
1764511035.6252334,-5.15788,1.58704,0.59514,-0.93114996,-0.317809245,-0.14685021
1764511035.6252334,-5.15788,1.58704,0.59514,-0.93114996,-0.317809245,-0.14685021
1764511035.6252334,-5.15788,1.58704,0.59514,-0.93114996,-0.317809245,-0.14685021
1764511035.6252334,-5.15788,1.58704,0.59514,-0.93114996,-0.317809245,-0.14685021
1764511035.6252334,-5.15788,1.58704,0.59514,-0.93114996,-0.317809245,-0.14685021
1764511035.626256,-4.47118,1.89224,0.65618,-0.93041754,-0.319152015,-0.146667105
1764511035.626256,-4.47118,1.89224,0.65618,-0.93041754,-0.319152015,-0.146667105
1764511035.626256,-4.47118,1.89224,0.65618,-0.93041754,-0.319152015,-0.146667105
1764511035.626256,-4.47118,1.89224,0.65618,-0.93041754,-0.319152015,-0.146667105
1764511035.626256,-4.47118,1.89224,0.65618,-0.93041754,-0.319152015,-0.146667105
1764511035.626256,-4.47118,1.89224,0.65618,-0.93041754,-0.319152015,-0.146667105
1764511035.626256,-4.47118,1.89224,0.65618,-0.93041754,-0.319152015,-0.146667105
1764511035.626256,-4.47118,1.89224,0.65618,-0.93041754,-0.319152015,-0.146667105
1764511035.6677625,-4.47118,1.89224,0.65618,-0.93041754,-0.319152015,-0.146667105
1764511035.6677625,-4.47118,1.89224,0.65618,-0.93041754,-0.319152015,-0.146667105
1764511035.668774,-4.28806,2.35004,0.85456,-0.931577205,-0.317320965,-0.14819298
1764511035.668774,-4.28806,2.35004,0.85456,-0.931577205,-0.317320965,-0.14819298
1764511035.668774,-4.28806,2.35004,0.85456,-0.931577205,-0.317320965,-0.14819298
1764511035.668774,-4.28806,2.35004,0.85456,-0.931577205,-0.317320965,-0.14819298
1764511035.668774,-4.28806,2.35004,0.85456,-0.931577205,-0.317320965,-0.14819298
1764511035.668774,-4.28806,2.35004,0.85456,-0.931577205,-0.317320965,-0.14819298
1764511035.6702864,-4.28806,2.35004,0.85456,-0.931577205,-0.317320965,-0.14819298
1764511035.6707497,-4.28806,2.35004,0.85456,-0.931577205,-0.317320965,-0.14819298
1764511035.6707497,-4.28806,2.35004,0.85456,-0.931577205,-0.317320965,-0.14819298
1764511035.6707497,-4.28806,2.35004,0.85456,-0.931577205,-0.317320965,-0.14819298
1764511035.6707497,-5.06632,0.93086,0.96138,-0.933896535,-0.316344405,-0.14990196
1764511035.6712985,-5.06632,0.93086,0.96138,-0.933896535,-0.316344405,-0.14990196
1764511035.6712985,-5.06632,0.93086,0.96138,-0.933896535,-0.316344405,-0.14990196
1764511035.6712985,-5.06632,0.93086,0.96138,-0.933896535,-0.316344405,-0.14990196
1764511035.6712985,-5.06632,0.93086,0.96138,-0.933896535,-0.316344405,-0.14990196
1764511035.6712985,-5.06632,0.93086,0.96138,-0.933896535,-0.316344405,-0.14990196
1764511035.6723032,-5.06632,0.93086,0.96138,-0.933896535,-0.316344405,-0.14990196
1764511035.6723032,-5.06632,0.93086,0.96138,-0.933896535,-0.316344405,-0.14990196
1764511035.6723032,-5.06632,0.93086,0.96138,-0.933896535,-0.316344405,-0.14990196
1764511035.6723032,-5.06632,0.93086,0.96138,-0.933896535,-0.316344405,-0.14990196
1764511035.7143323,-6.165039999999999,1.64808,0.88508,-0.933164115,-0.316344405,-0.14977989
1764511035.7143323,-6.165039999999999,1.64808,0.88508,-0.933164115,-0.316344405,-0.14977989
1764511035.715356,-6.165039999999999,1.64808,0.88508,-0.933164115,-0.316344405,-0.14977989
1764511035.715356,-6.165039999999999,1.64808,0.88508,-0.933164115,-0.316344405,-0.14977989
1764511035.71612,-6.165039999999999,1.64808,0.88508,-0.933164115,-0.316344405,-0.14977989
1764511035.71612,-6.165039999999999,1.64808,0.88508,-0.933164115,-0.316344405,-0.14977989
1764511035.71612,-6.165039999999999,1.64808,0.88508,-0.933164115,-0.316344405,-0.14977989
1764511035.71612,-6.165039999999999,1.64808,0.88508,-0.933164115,-0.316344405,-0.14977989
1764511035.71612,-6.165039999999999,1.64808,0.88508,-0.933164115,-0.316344405,-0.14977989
1764511035.71612,-6.165039999999999,1.64808,0.88508,-0.933164115,-0.316344405,-0.14977989
1764511035.71612,-5.615679999999999,1.9075,0.47306,-0.932309625,-0.318175455,-0.148986435
1764511035.7171395,-5.615679999999999,1.9075,0.47306,-0.932309625,-0.318175455,-0.148986435
1764511035.7171395,-5.615679999999999,1.9075,0.47306,-0.932309625,-0.318175455,-0.148986435
1764511035.7171395,-5.615679999999999,1.9075,0.47306,-0.932309625,-0.318175455,-0.148986435
1764511035.7171395,-5.615679999999999,1.9075,0.47306,-0.932309625,-0.318175455,-0.148986435
1764511035.7171395,-5.615679999999999,1.9075,0.47306,-0.932309625,-0.318175455,-0.148986435
1764511035.7171395,-5.615679999999999,1.9075,0.47306,-0.932309625,-0.318175455,-0.148986435
1764511035.7171395,-5.615679999999999,1.9075,0.47306,-0.932309625,-0.318175455,-0.148986435
1764511035.7171395,-5.615679999999999,1.9075,0.47306,-0.932309625,-0.318175455,-0.148986435
1764511035.7171395,-5.615679999999999,1.9075,0.47306,-0.932309625,-0.318175455,-0.148986435
1764511035.7171395,-4.62378,1.69386,0.36624,-0.932187555,-0.318541665,-0.148254015
1764511035.7171395,-4.62378,1.69386,0.36624,-0.932187555,-0.318541665,-0.148254015
1764511035.7171395,-4.62378,1.69386,0.36624,-0.932187555,-0.318541665,-0.148254015
1764511035.7171395,-4.62378,1.69386,0.36624,-0.932187555,-0.318541665,-0.148254015
1764511035.761529,-4.62378,1.69386,0.36624,-0.932187555,-0.318541665,-0.148254015
1764511035.761529,-4.62378,1.69386,0.36624,-0.932187555,-0.318541665,-0.148254015
1764511035.761529,-4.62378,1.69386,0.36624,-0.932187555,-0.318541665,-0.148254015
1764511035.762549,-4.62378,1.69386,0.36624,-0.932187555,-0.318541665,-0.148254015
1764511035.762549,-4.62378,1.69386,0.36624,-0.932187555,-0.318541665,-0.148254015
1764511035.762549,-4.62378,1.69386,0.36624,-0.932187555,-0.318541665,-0.148254015
1764511035.762549,-3.92182,1.61756,0.6409199999999999,-0.93127203,-0.318541665,-0.14807091
1764511035.762549,-3.92182,1.61756,0.6409199999999999,-0.93127203,-0.318541665,-0.14807091
1764511035.762549,-3.92182,1.61756,0.6409199999999999,-0.93127203,-0.318541665,-0.14807091
1764511035.762549,-3.92182,1.61756,0.6409199999999999,-0.93127203,-0.318541665,-0.14807091
1764511035.762549,-3.92182,1.61756,0.6409199999999999,-0.93127203,-0.318541665,-0.14807091
1764511035.762549,-3.92182,1.61756,0.6409199999999999,-0.93127203,-0.318541665,-0.14807091
1764511035.762549,-3.92182,1.61756,0.6409199999999999,-0.93127203,-0.318541665,-0.14807091
1764511035.762549,-3.92182,1.61756,0.6409199999999999,-0.93127203,-0.318541665,-0.14807091
1764511035.762549,-3.92182,1.61756,0.6409199999999999,-0.93127203,-0.318541665,-0.14807091
1764511035.762549,-3.92182,1.61756,0.6409199999999999,-0.93127203,-0.318541665,-0.14807091
1764511035.762549,-2.22796,1.38866,0.0,-0.93310308,-0.3186027,-0.148131945
1764511035.762549,-2.22796,1.38866,0.0,-0.93310308,-0.3186027,-0.148131945
1764511035.762549,-2.22796,1.38866,0.0,-0.93310308,-0.3186027,-0.148131945
1764511035.762549,-2.22796,1.38866,0.0,-0.93310308,-0.3186027,-0.148131945
1764511035.762549,-2.22796,1.38866,0.0,-0.93310308,-0.3186027,-0.148131945
1764511035.762549,-2.22796,1.38866,0.0,-0.93310308,-0.3186027,-0.148131945
1764511035.808705,-2.22796,1.38866,0.0,-0.93310308,-0.3186027,-0.148131945
1764511035.808705,-2.22796,1.38866,0.0,-0.93310308,-0.3186027,-0.148131945
1764511035.808705,-2.22796,1.38866,0.0,-0.93310308,-0.3186027,-0.148131945
1764511035.808705,-2.22796,1.38866,0.0,-0.93310308,-0.3186027,-0.148131945
1764511035.808705,-2.24322,1.51074,0.9003399999999999,-0.932797905,-0.31725993,-0.14794884
1764511035.808705,-2.24322,1.51074,0.9003399999999999,-0.932797905,-0.31725993,-0.14794884
1764511035.808705,-2.24322,1.51074,0.9003399999999999,-0.932797905,-0.31725993,-0.14794884
1764511035.808705,-2.24322,1.51074,0.9003399999999999,-0.932797905,-0.31725993,-0.14794884
1764511035.808705,-2.24322,1.51074,0.9003399999999999,-0.932797905,-0.31725993,-0.14794884
1764511035.808705,-2.24322,1.51074,0.9003399999999999,-0.932797905,-0.31725993,-0.14794884
1764511035.808705,-2.24322,1.51074,0.9003399999999999,-0.932797905,-0.31725993,-0.14794884
1764511035.808705,-2.24322,1.51074,0.9003399999999999,-0.932797905,-0.31725993,-0.14794884
1764511035.808705,-2.24322,1.51074,0.9003399999999999,-0.932797905,-0.31725993,-0.14794884
1764511035.808705,-2.24322,1.51074,0.9003399999999999,-0.932797905,-0.31725993,-0.14794884
1764511035.808705,-3.64714,1.95328,0.71722,-0.932431695,-0.3149406,-0.14831505
1764511035.808705,-3.64714,1.95328,0.71722,-0.932431695,-0.3149406,-0.14831505
1764511035.808705,-3.64714,1.95328,0.71722,-0.932431695,-0.3149406,-0.14831505
1764511035.808705,-3.64714,1.95328,0.71722,-0.932431695,-0.3149406,-0.14831505
1764511035.808705,-3.64714,1.95328,0.71722,-0.932431695,-0.3149406,-0.14831505
1764511035.808705,-3.64714,1.95328,0.71722,-0.932431695,-0.3149406,-0.14831505
1764511035.808705,-3.64714,1.95328,0.71722,-0.932431695,-0.3149406,-0.14831505
1764511035.808705,-3.64714,1.95328,0.71722,-0.932431695,-0.3149406,-0.14831505
1764511035.8102207,-3.64714,1.95328,0.71722,-0.932431695,-0.3149406,-0.14831505
1764511035.8102207,-3.64714,1.95328,0.71722,-0.932431695,-0.3149406,-0.14831505
1764511035.85298,-5.15788,1.34288,0.1678599999999999,-0.933286185,-0.31347576,-0.149718855
1764511035.85298,-5.15788,1.34288,0.1678599999999999,-0.933286185,-0.31347576,-0.149718855
1764511035.85298,-5.15788,1.34288,0.1678599999999999,-0.933286185,-0.31347576,-0.149718855
1764511035.85298,-5.15788,1.34288,0.1678599999999999,-0.933286185,-0.31347576,-0.149718855
1764511035.85298,-5.15788,1.34288,0.1678599999999999,-0.933286185,-0.31347576,-0.149718855
1764511035.85298,-5.15788,1.34288,0.1678599999999999,-0.933286185,-0.31347576,-0.149718855
1764511035.85298,-5.15788,1.34288,0.1678599999999999,-0.933286185,-0.31347576,-0.149718855
1764511035.85298,-5.15788,1.34288,0.1678599999999999,-0.933286185,-0.31347576,-0.149718855
1764511035.85298,-5.15788,1.34288,0.1678599999999999,-0.933286185,-0.31347576,-0.149718855
1764511035.85298,-5.15788,1.34288,0.1678599999999999,-0.933286185,-0.31347576,-0.149718855
1764511035.85298,-5.55464,0.6103999999999999,0.47306,-0.934384815,-0.3149406,-0.15148887
1764511035.85298,-5.55464,0.6103999999999999,0.47306,-0.934384815,-0.3149406,-0.15148887
1764511035.8540132,-5.55464,0.6103999999999999,0.47306,-0.934384815,-0.3149406,-0.15148887
1764511035.8540132,-5.55464,0.6103999999999999,0.47306,-0.934384815,-0.3149406,-0.15148887
1764511035.8540132,-5.55464,0.6103999999999999,0.47306,-0.934384815,-0.3149406,-0.15148887
1764511035.8540132,-5.55464,0.6103999999999999,0.47306,-0.934384815,-0.3149406,-0.15148887
1764511035.8540132,-5.55464,0.6103999999999999,0.47306,-0.934384815,-0.3149406,-0.15148887
1764511035.8540132,-5.55464,0.6103999999999999,0.47306,-0.934384815,-0.3149406,-0.15148887
1764511035.8540132,-5.55464,0.6103999999999999,0.47306,-0.934384815,-0.3149406,-0.15148887
1764511035.8540132,-5.55464,0.6103999999999999,0.47306,-0.934384815,-0.3149406,-0.15148887
1764511035.8555589,-4.83742,0.9919,0.54936,-0.93395757,-0.318419595,-0.151427835
1764511035.8555589,-4.83742,0.9919,0.54936,-0.93395757,-0.318419595,-0.151427835
1764511035.8555589,-4.83742,0.9919,0.54936,-0.93395757,-0.318419595,-0.151427835
1764511035.8555589,-4.83742,0.9919,0.54936,-0.93395757,-0.318419595,-0.151427835
1764511035.901481,-4.83742,0.9919,0.54936,-0.93395757,-0.318419595,-0.151427835
1764511035.901481,-4.83742,0.9919,0.54936,-0.93395757,-0.318419595,-0.151427835
1764511035.901481,-4.83742,0.9919,0.54936,-0.93395757,-0.318419595,-0.151427835
1764511035.901481,-4.83742,0.9919,0.54936,-0.93395757,-0.318419595,-0.151427835
1764511035.901481,-4.83742,0.9919,0.54936,-0.93395757,-0.318419595,-0.151427835
1764511035.901481,-4.83742,0.9919,0.54936,-0.93395757,-0.318419595,-0.151427835
1764511035.901481,-3.31142,1.17502,0.59514,-0.932309625,-0.32189859,-0.150817485
1764511035.901481,-3.31142,1.17502,0.59514,-0.932309625,-0.32189859,-0.150817485
1764511035.901481,-3.31142,1.17502,0.59514,-0.932309625,-0.32189859,-0.150817485
1764511035.901481,-3.31142,1.17502,0.59514,-0.932309625,-0.32189859,-0.150817485
1764511035.901481,-3.31142,1.17502,0.59514,-0.932309625,-0.32189859,-0.150817485
1764511035.901481,-3.31142,1.17502,0.59514,-0.932309625,-0.32189859,-0.150817485
1764511035.901481,-3.31142,1.17502,0.59514,-0.932309625,-0.32189859,-0.150817485
1764511035.901481,-3.31142,1.17502,0.59514,-0.932309625,-0.32189859,-0.150817485
1764511035.901481,-3.31142,1.17502,0.59514,-0.932309625,-0.32189859,-0.150817485
1764511035.901481,-3.31142,1.17502,0.59514,-0.932309625,-0.32189859,-0.150817485
1764511035.9034915,-1.25132,1.58704,0.59514,-0.93053961,-0.324034815,-0.149108505
1764511035.9034915,-1.25132,1.58704,0.59514,-0.93053961,-0.324034815,-0.149108505
1764511035.9034915,-1.25132,1.58704,0.59514,-0.93053961,-0.324034815,-0.149108505
1764511035.904497,-1.25132,1.58704,0.59514,-0.93053961,-0.324034815,-0.149108505
1764511035.904497,-1.25132,1.58704,0.59514,-0.93053961,-0.324034815,-0.149108505
1764511035.904497,-1.25132,1.58704,0.59514,-0.93053961,-0.324034815,-0.149108505
1764511035.904497,-1.25132,1.58704,0.59514,-0.93053961,-0.324034815,-0.149108505
1764511035.904497,-1.25132,1.58704,0.59514,-0.93053961,-0.324034815,-0.149108505
1764511035.9489396,-1.25132,1.58704,0.59514,-0.93053961,-0.324034815,-0.149108505
1764511035.9489396,-1.25132,1.58704,0.59514,-0.93053961,-0.324034815,-0.149108505
1764511035.9489396,0.59514,1.6633399999999998,0.01526,-0.93078375,-0.32250894,-0.149108505
1764511035.9489396,0.59514,1.6633399999999998,0.01526,-0.93078375,-0.32250894,-0.149108505
1764511035.9489396,0.59514,1.6633399999999998,0.01526,-0.93078375,-0.32250894,-0.149108505
1764511035.9504533,0.59514,1.6633399999999998,0.01526,-0.93078375,-0.32250894,-0.149108505
1764511035.9504533,0.59514,1.6633399999999998,0.01526,-0.93078375,-0.32250894,-0.149108505
1764511035.9504533,0.59514,1.6633399999999998,0.01526,-0.93078375,-0.32250894,-0.149108505
1764511035.9504533,0.59514,1.6633399999999998,0.01526,-0.93078375,-0.32250894,-0.149108505
1764511035.9504533,0.59514,1.6633399999999998,0.01526,-0.93078375,-0.32250894,-0.149108505
1764511035.9504533,0.59514,1.6633399999999998,0.01526,-0.93078375,-0.32250894,-0.149108505
1764511035.9504533,0.59514,1.6633399999999998,0.01526,-0.93078375,-0.32250894,-0.149108505
1764511035.9504533,-0.39676,0.763,0.03052,-0.93334722,-0.318663735,-0.14916954
1764511035.9504533,-0.39676,0.763,0.03052,-0.93334722,-0.318663735,-0.14916954
1764511035.9504533,-0.39676,0.763,0.03052,-0.93334722,-0.318663735,-0.14916954
1764511035.9504533,-0.39676,0.763,0.03052,-0.93334722,-0.318663735,-0.14916954
1764511035.9504533,-0.39676,0.763,0.03052,-0.93334722,-0.318663735,-0.14916954
1764511035.9504533,-0.39676,0.763,0.03052,-0.93334722,-0.318663735,-0.14916954
1764511035.9504533,-0.39676,0.763,0.03052,-0.93334722,-0.318663735,-0.14916954
1764511035.9504533,-0.39676,0.763,0.03052,-0.93334722,-0.318663735,-0.14916954
1764511035.9504533,-0.39676,0.763,0.03052,-0.93334722,-0.318663735,-0.14916954
1764511035.9504533,-0.39676,0.763,0.03052,-0.93334722,-0.318663735,-0.14916954
1764511035.9949074,-2.79258,0.3357199999999999,0.36624,-0.93444585,-0.31347576,-0.149474715
1764511035.9959066,-2.79258,0.3357199999999999,0.36624,-0.93444585,-0.31347576,-0.149474715
1764511035.9959066,-2.79258,0.3357199999999999,0.36624,-0.93444585,-0.31347576,-0.149474715
1764511035.9959066,-2.79258,0.3357199999999999,0.36624,-0.93444585,-0.31347576,-0.149474715
1764511035.9959066,-2.79258,0.3357199999999999,0.36624,-0.93444585,-0.31347576,-0.149474715
1764511035.9959066,-2.79258,0.3357199999999999,0.36624,-0.93444585,-0.31347576,-0.149474715
1764511035.9959066,-2.79258,0.3357199999999999,0.36624,-0.93444585,-0.31347576,-0.149474715
1764511035.9959066,-2.79258,0.3357199999999999,0.36624,-0.93444585,-0.31347576,-0.149474715
1764511035.9959066,-2.79258,0.3357199999999999,0.36624,-0.93444585,-0.31347576,-0.149474715
1764511035.9959066,-2.79258,0.3357199999999999,0.36624,-0.93444585,-0.31347576,-0.149474715
1764511035.9959066,-4.94424,0.42728,0.79352,-0.93456792,-0.31262127,-0.149718855
1764511035.9959066,-4.94424,0.42728,0.79352,-0.93456792,-0.31262127,-0.149718855
1764511035.9959066,-4.94424,0.42728,0.79352,-0.93456792,-0.31262127,-0.149718855
1764511035.9959066,-4.94424,0.42728,0.79352,-0.93456792,-0.31262127,-0.149718855
1764511035.9959066,-4.94424,0.42728,0.79352,-0.93456792,-0.31262127,-0.149718855
1764511035.9959066,-4.94424,0.42728,0.79352,-0.93456792,-0.31262127,-0.149718855
1764511035.9959066,-4.94424,0.42728,0.79352,-0.93456792,-0.31262127,-0.149718855
1764511035.9959066,-4.94424,0.42728,0.79352,-0.93456792,-0.31262127,-0.149718855
1764511035.9959066,-4.94424,0.42728,0.79352,-0.93456792,-0.31262127,-0.149718855
1764511035.9959066,-4.94424,0.42728,0.79352,-0.93456792,-0.31262127,-0.149718855
1764511035.9959066,-4.68482,0.57988,0.1678599999999999,-0.934018605,-0.31469646,-0.14929161
1764511035.9959066,-4.68482,0.57988,0.1678599999999999,-0.934018605,-0.31469646,-0.14929161
1764511035.9959066,-4.68482,0.57988,0.1678599999999999,-0.934018605,-0.31469646,-0.14929161
1764511035.9959066,-4.68482,0.57988,0.1678599999999999,-0.934018605,-0.31469646,-0.14929161
1764511036.0422492,-4.68482,0.57988,0.1678599999999999,-0.934018605,-0.31469646,-0.14929161
1764511036.0422492,-4.68482,0.57988,0.1678599999999999,-0.934018605,-0.31469646,-0.14929161
1764511036.0422492,-4.68482,0.57988,0.1678599999999999,-0.934018605,-0.31469646,-0.14929161
1764511036.0422492,-4.68482,0.57988,0.1678599999999999,-0.934018605,-0.31469646,-0.14929161
1764511036.043265,-4.68482,0.57988,0.1678599999999999,-0.934018605,-0.31469646,-0.14929161
1764511036.043265,-4.68482,0.57988,0.1678599999999999,-0.934018605,-0.31469646,-0.14929161
1764511036.043265,-3.60136,0.93086,-0.0762999999999999,-0.93371343,-0.31799235,-0.148864365
1764511036.043265,-3.60136,0.93086,-0.0762999999999999,-0.93371343,-0.31799235,-0.148864365
1764511036.043265,-3.60136,0.93086,-0.0762999999999999,-0.93371343,-0.31799235,-0.148864365
1764511036.043265,-3.60136,0.93086,-0.0762999999999999,-0.93371343,-0.31799235,-0.148864365
1764511036.043265,-3.60136,0.93086,-0.0762999999999999,-0.93371343,-0.31799235,-0.148864365
1764511036.043265,-3.60136,0.93086,-0.0762999999999999,-0.93371343,-0.31799235,-0.148864365
1764511036.043265,-3.60136,0.93086,-0.0762999999999999,-0.93371343,-0.31799235,-0.148864365
1764511036.043265,-3.60136,0.93086,-0.0762999999999999,-0.93371343,-0.31799235,-0.148864365
1764511036.043265,-3.60136,0.93086,-0.0762999999999999,-0.93371343,-0.31799235,-0.148864365
1764511036.043265,-3.60136,0.93086,-0.0762999999999999,-0.93371343,-0.31799235,-0.148864365
1764511036.043265,-2.31952,0.94612,-0.28994,-0.932919975,-0.32031168,-0.148131945
1764511036.043265,-2.31952,0.94612,-0.28994,-0.932919975,-0.32031168,-0.148131945
1764511036.043265,-2.31952,0.94612,-0.28994,-0.932919975,-0.32031168,-0.148131945
1764511036.043265,-2.31952,0.94612,-0.28994,-0.932919975,-0.32031168,-0.148131945
1764511036.043265,-2.31952,0.94612,-0.28994,-0.932919975,-0.32031168,-0.148131945
1764511036.043265,-2.31952,0.94612,-0.28994,-0.932919975,-0.32031168,-0.148131945
1764511036.043265,-2.31952,0.94612,-0.28994,-0.932919975,-0.32031168,-0.148131945
1764511036.043265,-2.31952,0.94612,-0.28994,-0.932919975,-0.32031168,-0.148131945
1764511036.0892262,-2.31952,0.94612,-0.28994,-0.932919975,-0.32031168,-0.148131945
1764511036.0892262,-2.31952,0.94612,-0.28994,-0.932919975,-0.32031168,-0.148131945
1764511036.0892262,-2.07536,1.32762,0.1678599999999999,-0.93224859,-0.32141031,-0.148376085
1764511036.0892262,-2.07536,1.32762,0.1678599999999999,-0.93224859,-0.32141031,-0.148376085
1764511036.0892262,-2.07536,1.32762,0.1678599999999999,-0.93224859,-0.32141031,-0.148376085
1764511036.0892262,-2.07536,1.32762,0.1678599999999999,-0.93224859,-0.32141031,-0.148376085
1764511036.0892262,-2.07536,1.32762,0.1678599999999999,-0.93224859,-0.32141031,-0.148376085
1764511036.0892262,-2.07536,1.32762,0.1678599999999999,-0.93224859,-0.32141031,-0.148376085
1764511036.0892262,-2.07536,1.32762,0.1678599999999999,-0.93224859,-0.32141031,-0.148376085
1764511036.0892262,-2.07536,1.32762,0.1678599999999999,-0.93224859,-0.32141031,-0.148376085
1764511036.0892262,-2.07536,1.32762,0.1678599999999999,-0.93224859,-0.32141031,-0.148376085
1764511036.0892262,-2.07536,1.32762,0.1678599999999999,-0.93224859,-0.32141031,-0.148376085
1764511036.0892262,-2.31952,1.03768,0.03052,-0.932309625,-0.31970133,-0.14880333
1764511036.0892262,-2.31952,1.03768,0.03052,-0.932309625,-0.31970133,-0.14880333
1764511036.0892262,-2.31952,1.03768,0.03052,-0.932309625,-0.31970133,-0.14880333
1764511036.0892262,-2.31952,1.03768,0.03052,-0.932309625,-0.31970133,-0.14880333
1764511036.0892262,-2.31952,1.03768,0.03052,-0.932309625,-0.31970133,-0.14880333
1764511036.0892262,-2.31952,1.03768,0.03052,-0.932309625,-0.31970133,-0.14880333
1764511036.0892262,-2.31952,1.03768,0.03052,-0.932309625,-0.31970133,-0.14880333
1764511036.0902247,-2.31952,1.03768,0.03052,-0.932309625,-0.31970133,-0.14880333
1764511036.0902247,-2.31952,1.03768,0.03052,-0.932309625,-0.31970133,-0.14880333
1764511036.0902247,-2.31952,1.03768,0.03052,-0.932309625,-0.31970133,-0.14880333
1764511036.1343763,-3.17408,1.08346,-0.0762999999999999,-0.932553765,-0.317198895,-0.148376085
1764511036.1343763,-3.17408,1.08346,-0.0762999999999999,-0.932553765,-0.317198895,-0.148376085
1764511036.1353972,-3.17408,1.08346,-0.0762999999999999,-0.932553765,-0.317198895,-0.148376085
1764511036.1353972,-3.17408,1.08346,-0.0762999999999999,-0.932553765,-0.317198895,-0.148376085
1764511036.1353972,-3.17408,1.08346,-0.0762999999999999,-0.932553765,-0.317198895,-0.148376085
1764511036.1353972,-3.17408,1.08346,-0.0762999999999999,-0.932553765,-0.317198895,-0.148376085
1764511036.1353972,-3.17408,1.08346,-0.0762999999999999,-0.932553765,-0.317198895,-0.148376085
1764511036.1353972,-3.17408,1.08346,-0.0762999999999999,-0.932553765,-0.317198895,-0.148376085
1764511036.1353972,-3.17408,1.08346,-0.0762999999999999,-0.932553765,-0.317198895,-0.148376085
1764511036.1353972,-3.17408,1.08346,-0.0762999999999999,-0.932553765,-0.317198895,-0.148376085
1764511036.1353972,-3.64714,0.44254,0.0762999999999999,-0.933042045,-0.315856125,-0.148376085
1764511036.1353972,-3.64714,0.44254,0.0762999999999999,-0.933042045,-0.315856125,-0.148376085
1764511036.1353972,-3.64714,0.44254,0.0762999999999999,-0.933042045,-0.315856125,-0.148376085
1764511036.1353972,-3.64714,0.44254,0.0762999999999999,-0.933042045,-0.315856125,-0.148376085
1764511036.1353972,-3.64714,0.44254,0.0762999999999999,-0.933042045,-0.315856125,-0.148376085
1764511036.1353972,-3.64714,0.44254,0.0762999999999999,-0.933042045,-0.315856125,-0.148376085
1764511036.1364,-3.64714,0.44254,0.0762999999999999,-0.933042045,-0.315856125,-0.148376085
1764511036.1364,-3.64714,0.44254,0.0762999999999999,-0.933042045,-0.315856125,-0.148376085
1764511036.1364,-3.64714,0.44254,0.0762999999999999,-0.933042045,-0.315856125,-0.148376085
1764511036.1364,-3.64714,0.44254,0.0762999999999999,-0.933042045,-0.315856125,-0.148376085
1764511036.1364,-4.24228,0.96138,0.44254,-0.932675835,-0.316344405,-0.148376085
1764511036.1364,-4.24228,0.96138,0.44254,-0.932675835,-0.316344405,-0.148376085
1764511036.1364,-4.24228,0.96138,0.44254,-0.932675835,-0.316344405,-0.148376085
1764511036.1364,-4.24228,0.96138,0.44254,-0.932675835,-0.316344405,-0.148376085
1764511036.179094,-4.24228,0.96138,0.44254,-0.932675835,-0.316344405,-0.148376085
1764511036.179094,-4.24228,0.96138,0.44254,-0.932675835,-0.316344405,-0.148376085
1764511036.179094,-4.24228,0.96138,0.44254,-0.932675835,-0.316344405,-0.148376085
1764511036.179094,-4.24228,0.96138,0.44254,-0.932675835,-0.316344405,-0.148376085
1764511036.179094,-4.24228,0.96138,0.44254,-0.932675835,-0.316344405,-0.148376085
1764511036.179094,-4.24228,0.96138,0.44254,-0.932675835,-0.316344405,-0.148376085
1764511036.179094,-3.15882,0.9003399999999999,0.6409199999999999,-0.93273687,-0.317320965,-0.1477047
1764511036.179094,-3.15882,0.9003399999999999,0.6409199999999999,-0.93273687,-0.317320965,-0.1477047
1764511036.179094,-3.15882,0.9003399999999999,0.6409199999999999,-0.93273687,-0.317320965,-0.1477047
1764511036.179094,-3.15882,0.9003399999999999,0.6409199999999999,-0.93273687,-0.317320965,-0.1477047
1764511036.182326,-3.15882,0.9003399999999999,0.6409199999999999,-0.93273687,-0.317320965,-0.1477047
1764511036.182326,-3.15882,0.9003399999999999,0.6409199999999999,-0.93273687,-0.317320965,-0.1477047
1764511036.182326,-3.15882,0.9003399999999999,0.6409199999999999,-0.93273687,-0.317320965,-0.1477047
1764511036.182326,-3.15882,0.9003399999999999,0.6409199999999999,-0.93273687,-0.317320965,-0.1477047
1764511036.182326,-3.15882,0.9003399999999999,0.6409199999999999,-0.93273687,-0.317320965,-0.1477047
1764511036.182326,-3.15882,0.9003399999999999,0.6409199999999999,-0.93273687,-0.317320965,-0.1477047
1764511036.183839,-2.60946,1.43444,0.59514,-0.932553765,-0.31835856,-0.14721642
1764511036.183839,-2.60946,1.43444,0.59514,-0.932553765,-0.31835856,-0.14721642
1764511036.183839,-2.60946,1.43444,0.59514,-0.932553765,-0.31835856,-0.14721642
1764511036.183839,-2.60946,1.43444,0.59514,-0.932553765,-0.31835856,-0.14721642
1764511036.183839,-2.60946,1.43444,0.59514,-0.932553765,-0.31835856,-0.14721642
1764511036.183839,-2.60946,1.43444,0.59514,-0.932553765,-0.31835856,-0.14721642
1764511036.228628,-2.60946,1.43444,0.59514,-0.932553765,-0.31835856,-0.14721642
1764511036.228628,-2.60946,1.43444,0.59514,-0.932553765,-0.31835856,-0.14721642
1764511036.228628,-2.60946,1.43444,0.59514,-0.932553765,-0.31835856,-0.14721642
1764511036.228628,-2.60946,1.43444,0.59514,-0.932553765,-0.31835856,-0.14721642
1764511036.228628,-2.70102,1.57178,0.13734,-0.932065485,-0.31872477,-0.14709435
1764511036.228628,-2.70102,1.57178,0.13734,-0.932065485,-0.31872477,-0.14709435
1764511036.228628,-2.70102,1.57178,0.13734,-0.932065485,-0.31872477,-0.14709435
1764511036.228628,-2.70102,1.57178,0.13734,-0.932065485,-0.31872477,-0.14709435
1764511036.228628,-2.70102,1.57178,0.13734,-0.932065485,-0.31872477,-0.14709435
1764511036.228628,-2.70102,1.57178,0.13734,-0.932065485,-0.31872477,-0.14709435
1764511036.228628,-2.70102,1.57178,0.13734,-0.932065485,-0.31872477,-0.14709435
1764511036.228628,-2.70102,1.57178,0.13734,-0.932065485,-0.31872477,-0.14709435
1764511036.228628,-2.70102,1.57178,0.13734,-0.932065485,-0.31872477,-0.14709435
1764511036.228628,-2.70102,1.57178,0.13734,-0.932065485,-0.31872477,-0.14709435
1764511036.228628,-2.80784,1.31236,0.18312,-0.93212652,-0.318053385,-0.14611779
1764511036.228628,-2.80784,1.31236,0.18312,-0.93212652,-0.318053385,-0.14611779
1764511036.228628,-2.80784,1.31236,0.18312,-0.93212652,-0.318053385,-0.14611779
1764511036.2301376,-2.80784,1.31236,0.18312,-0.93212652,-0.318053385,-0.14611779
1764511036.2301376,-2.80784,1.31236,0.18312,-0.93212652,-0.318053385,-0.14611779
1764511036.2301376,-2.80784,1.31236,0.18312,-0.93212652,-0.318053385,-0.14611779
1764511036.2301376,-2.80784,1.31236,0.18312,-0.93212652,-0.318053385,-0.14611779
1764511036.2301376,-2.80784,1.31236,0.18312,-0.93212652,-0.318053385,-0.14611779
1764511036.2301376,-2.80784,1.31236,0.18312,-0.93212652,-0.318053385,-0.14611779
1764511036.2301376,-2.80784,1.31236,0.18312,-0.93212652,-0.318053385,-0.14611779
1764511036.275667,-2.76206,1.15976,-0.06104,-0.932431695,-0.31823649,-0.145690545
1764511036.276662,-2.76206,1.15976,-0.06104,-0.932431695,-0.31823649,-0.145690545
1764511036.276662,-2.76206,1.15976,-0.06104,-0.932431695,-0.31823649,-0.145690545
1764511036.276662,-2.76206,1.15976,-0.06104,-0.932431695,-0.31823649,-0.145690545
1764511036.276662,-2.76206,1.15976,-0.06104,-0.932431695,-0.31823649,-0.145690545
1764511036.276662,-2.76206,1.15976,-0.06104,-0.932431695,-0.31823649,-0.145690545
1764511036.276662,-2.76206,1.15976,-0.06104,-0.932431695,-0.31823649,-0.145690545
1764511036.276662,-2.76206,1.15976,-0.06104,-0.932431695,-0.31823649,-0.145690545
1764511036.276662,-2.76206,1.15976,-0.06104,-0.932431695,-0.31823649,-0.145690545
1764511036.276662,-2.76206,1.15976,-0.06104,-0.932431695,-0.31823649,-0.145690545
1764511036.276662,-4.2728,0.62566,-0.01526,-0.933530325,-0.317443035,-0.14733849
1764511036.276662,-4.2728,0.62566,-0.01526,-0.933530325,-0.317443035,-0.14733849
1764511036.276662,-4.2728,0.62566,-0.01526,-0.933530325,-0.317443035,-0.14733849
1764511036.276662,-4.2728,0.62566,-0.01526,-0.933530325,-0.317443035,-0.14733849
1764511036.276662,-4.2728,0.62566,-0.01526,-0.933530325,-0.317443035,-0.14733849
1764511036.276662,-4.2728,0.62566,-0.01526,-0.933530325,-0.317443035,-0.14733849
1764511036.276662,-4.2728,0.62566,-0.01526,-0.933530325,-0.317443035,-0.14733849
1764511036.276662,-4.2728,0.62566,-0.01526,-0.933530325,-0.317443035,-0.14733849
1764511036.276662,-4.2728,0.62566,-0.01526,-0.933530325,-0.317443035,-0.14733849
1764511036.276662,-4.2728,0.62566,-0.01526,-0.933530325,-0.317443035,-0.14733849
1764511036.276662,-5.32574,0.6867,0.71722,-0.932309625,-0.316222335,-0.147887805
1764511036.276662,-5.32574,0.6867,0.71722,-0.932309625,-0.316222335,-0.147887805
1764511036.276662,-5.32574,0.6867,0.71722,-0.932309625,-0.316222335,-0.147887805
1764511036.276662,-5.32574,0.6867,0.71722,-0.932309625,-0.316222335,-0.147887805
1764511036.3235617,-5.32574,0.6867,0.71722,-0.932309625,-0.316222335,-0.147887805
1764511036.3235617,-5.32574,0.6867,0.71722,-0.932309625,-0.316222335,-0.147887805
1764511036.3235617,-5.32574,0.6867,0.71722,-0.932309625,-0.316222335,-0.147887805
1764511036.3235617,-5.32574,0.6867,0.71722,-0.932309625,-0.316222335,-0.147887805
1764511036.3235617,-5.32574,0.6867,0.71722,-0.932309625,-0.316222335,-0.147887805
1764511036.3235617,-5.32574,0.6867,0.71722,-0.932309625,-0.316222335,-0.147887805
1764511036.3235617,-2.99096,0.57988,0.73248,-0.932431695,-0.31811442,-0.14721642
1764511036.3235617,-2.99096,0.57988,0.73248,-0.932431695,-0.31811442,-0.14721642
1764511036.3235617,-2.99096,0.57988,0.73248,-0.932431695,-0.31811442,-0.14721642
1764511036.3235617,-2.99096,0.57988,0.73248,-0.932431695,-0.31811442,-0.14721642
1764511036.3235617,-2.99096,0.57988,0.73248,-0.932431695,-0.31811442,-0.14721642
1764511036.3235617,-2.99096,0.57988,0.73248,-0.932431695,-0.31811442,-0.14721642
1764511036.3235617,-2.99096,0.57988,0.73248,-0.932431695,-0.31811442,-0.14721642
1764511036.3235617,-2.99096,0.57988,0.73248,-0.932431695,-0.31811442,-0.14721642
1764511036.3235617,-2.99096,0.57988,0.73248,-0.932431695,-0.31811442,-0.14721642
1764511036.3235617,-2.99096,0.57988,0.73248,-0.932431695,-0.31811442,-0.14721642
1764511036.3235617,-1.64808,1.46496,0.10682,-0.933164115,-0.321105135,-0.14623986
1764511036.3235617,-1.64808,1.46496,0.10682,-0.933164115,-0.321105135,-0.14623986
1764511036.3235617,-1.64808,1.46496,0.10682,-0.933164115,-0.321105135,-0.14623986
1764511036.3245656,-1.64808,1.46496,0.10682,-0.933164115,-0.321105135,-0.14623986
1764511036.3688648,-1.64808,1.46496,0.10682,-0.933164115,-0.321105135,-0.14623986
1764511036.3688648,-1.64808,1.46496,0.10682,-0.933164115,-0.321105135,-0.14623986
1764511036.3688648,-1.64808,1.46496,0.10682,-0.933164115,-0.321105135,-0.14623986
1764511036.3688648,-1.64808,1.46496,0.10682,-0.933164115,-0.321105135,-0.14623986
1764511036.3688648,-1.64808,1.46496,0.10682,-0.933164115,-0.321105135,-0.14623986
1764511036.3688648,-1.64808,1.46496,0.10682,-0.933164115,-0.321105135,-0.14623986
1764511036.3704002,-1.28184,1.78542,0.25942,-0.93188238,-0.321837555,-0.14489709
1764511036.3704002,-1.28184,1.78542,0.25942,-0.93188238,-0.321837555,-0.14489709
1764511036.3704002,-1.28184,1.78542,0.25942,-0.93188238,-0.321837555,-0.14489709
1764511036.3704002,-1.28184,1.78542,0.25942,-0.93188238,-0.321837555,-0.14489709
1764511036.3704002,-1.28184,1.78542,0.25942,-0.93188238,-0.321837555,-0.14489709
1764511036.3704002,-1.28184,1.78542,0.25942,-0.93188238,-0.321837555,-0.14489709
1764511036.371418,-1.28184,1.78542,0.25942,-0.93188238,-0.321837555,-0.14489709
1764511036.371418,-1.28184,1.78542,0.25942,-0.93188238,-0.321837555,-0.14489709
1764511036.371418,-1.28184,1.78542,0.25942,-0.93188238,-0.321837555,-0.14489709
1764511036.371418,-1.28184,1.78542,0.25942,-0.93188238,-0.321837555,-0.14489709
1764511036.371418,-1.61756,2.24322,-0.10682,-0.9313941,-0.31872477,-0.144347775
1764511036.371418,-1.61756,2.24322,-0.10682,-0.9313941,-0.31872477,-0.144347775
1764511036.371418,-1.61756,2.24322,-0.10682,-0.9313941,-0.31872477,-0.144347775
1764511036.371418,-1.61756,2.24322,-0.10682,-0.9313941,-0.31872477,-0.144347775
1764511036.3724184,-1.61756,2.24322,-0.10682,-0.9313941,-0.31872477,-0.144347775
1764511036.3724184,-1.61756,2.24322,-0.10682,-0.9313941,-0.31872477,-0.144347775
1764511036.372937,-1.61756,2.24322,-0.10682,-0.9313941,-0.31872477,-0.144347775
1764511036.372937,-1.61756,2.24322,-0.10682,-0.9313941,-0.31872477,-0.144347775
1764511036.372937,-1.61756,2.24322,-0.10682,-0.9313941,-0.31872477,-0.144347775
1764511036.372937,-1.61756,2.24322,-0.10682,-0.9313941,-0.31872477,-0.144347775
1764511036.4133074,-3.1283,1.0682,-0.5341,-0.93322515,-0.316344405,-0.145934685
1764511036.4133074,-3.1283,1.0682,-0.5341,-0.93322515,-0.316344405,-0.145934685
1764511036.4133074,-3.1283,1.0682,-0.5341,-0.93322515,-0.316344405,-0.145934685
1764511036.4133074,-3.1283,1.0682,-0.5341,-0.93322515,-0.316344405,-0.145934685
1764511036.4133074,-3.1283,1.0682,-0.5341,-0.93322515,-0.316344405,-0.145934685
1764511036.4133074,-3.1283,1.0682,-0.5341,-0.93322515,-0.316344405,-0.145934685
1764511036.4133074,-3.1283,1.0682,-0.5341,-0.93322515,-0.316344405,-0.145934685
1764511036.4133074,-3.1283,1.0682,-0.5341,-0.93322515,-0.316344405,-0.145934685
1764511036.4626844,-3.1283,1.0682,-0.5341,-0.93322515,-0.316344405,-0.145934685
1764511036.4626844,-3.1283,1.0682,-0.5341,-0.93322515,-0.316344405,-0.145934685
1764511036.4626844,-4.6543,0.36624,-0.2289,-0.93432378,-0.31506267,-0.147765735
1764511036.4626844,-4.6543,0.36624,-0.2289,-0.93432378,-0.31506267,-0.147765735
1764511036.4626844,-4.6543,0.36624,-0.2289,-0.93432378,-0.31506267,-0.147765735
1764511036.4626844,-4.6543,0.36624,-0.2289,-0.93432378,-0.31506267,-0.147765735
1764511036.4626844,-4.6543,0.36624,-0.2289,-0.93432378,-0.31506267,-0.147765735
1764511036.4626844,-4.6543,0.36624,-0.2289,-0.93432378,-0.31506267,-0.147765735
1764511036.4626844,-4.6543,0.36624,-0.2289,-0.93432378,-0.31506267,-0.147765735
1764511036.4626844,-4.6543,0.36624,-0.2289,-0.93432378,-0.31506267,-0.147765735
1764511036.4626844,-4.6543,0.36624,-0.2289,-0.93432378,-0.31506267,-0.147765735
1764511036.4626844,-4.6543,0.36624,-0.2289,-0.93432378,-0.31506267,-0.147765735
1764511036.4626844,-4.48644,0.9003399999999999,0.48832,-0.933042045,-0.316222335,-0.14819298
1764511036.4626844,-4.48644,0.9003399999999999,0.48832,-0.933042045,-0.316222335,-0.14819298
1764511036.4626844,-4.48644,0.9003399999999999,0.48832,-0.933042045,-0.316222335,-0.14819298
1764511036.4626844,-4.48644,0.9003399999999999,0.48832,-0.933042045,-0.316222335,-0.14819298
1764511036.4626844,-4.48644,0.9003399999999999,0.48832,-0.933042045,-0.316222335,-0.14819298
1764511036.4626844,-4.48644,0.9003399999999999,0.48832,-0.933042045,-0.316222335,-0.14819298
1764511036.4626844,-4.48644,0.9003399999999999,0.48832,-0.933042045,-0.316222335,-0.14819298
1764511036.4626844,-4.48644,0.9003399999999999,0.48832,-0.933042045,-0.316222335,-0.14819298
1764511036.4642146,-4.48644,0.9003399999999999,0.48832,-0.933042045,-0.316222335,-0.14819298
1764511036.4642146,-4.48644,0.9003399999999999,0.48832,-0.933042045,-0.316222335,-0.14819298
1764511036.4642146,-3.34194,1.12924,0.48832,-0.932431695,-0.31933512,-0.147643665
1764511036.4642146,-3.34194,1.12924,0.48832,-0.932431695,-0.31933512,-0.147643665
1764511036.4642146,-3.34194,1.12924,0.48832,-0.932431695,-0.31933512,-0.147643665
1764511036.4642146,-3.34194,1.12924,0.48832,-0.932431695,-0.31933512,-0.147643665
1764511036.4642146,-3.34194,1.12924,0.48832,-0.932431695,-0.31933512,-0.147643665
1764511036.4642146,-3.34194,1.12924,0.48832,-0.932431695,-0.31933512,-0.147643665
1764511036.4642146,-3.34194,1.12924,0.48832,-0.932431695,-0.31933512,-0.147643665
1764511036.4642146,-3.34194,1.12924,0.48832,-0.932431695,-0.31933512,-0.147643665
1764511036.4642146,-3.34194,1.12924,0.48832,-0.932431695,-0.31933512,-0.147643665
1764511036.4642146,-3.34194,1.12924,0.48832,-0.932431695,-0.31933512,-0.147643665
1764511036.4642146,-2.15166,1.54126,0.48832,-0.931577205,-0.321349275,-0.147277455
1764511036.4642146,-2.15166,1.54126,0.48832,-0.931577205,-0.321349275,-0.147277455
1764511036.464752,-2.15166,1.54126,0.48832,-0.931577205,-0.321349275,-0.147277455
1764511036.464752,-2.15166,1.54126,0.48832,-0.931577205,-0.321349275,-0.147277455
1764511036.464752,-2.15166,1.54126,0.48832,-0.931577205,-0.321349275,-0.147277455
1764511036.464752,-2.15166,1.54126,0.48832,-0.931577205,-0.321349275,-0.147277455
1764511036.511639,-2.15166,1.54126,0.48832,-0.931577205,-0.321349275,-0.147277455
1764511036.511639,-2.15166,1.54126,0.48832,-0.931577205,-0.321349275,-0.147277455
1764511036.511639,-2.15166,1.54126,0.48832,-0.931577205,-0.321349275,-0.147277455
1764511036.511639,-2.15166,1.54126,0.48832,-0.931577205,-0.321349275,-0.147277455
1764511036.512638,-0.94612,1.35814,0.09156,-0.93200445,-0.321105135,-0.146789175
1764511036.512638,-0.94612,1.35814,0.09156,-0.93200445,-0.321105135,-0.146789175
1764511036.512638,-0.94612,1.35814,0.09156,-0.93200445,-0.321105135,-0.146789175
1764511036.512638,-0.94612,1.35814,0.09156,-0.93200445,-0.321105135,-0.146789175
1764511036.512638,-0.94612,1.35814,0.09156,-0.93200445,-0.321105135,-0.146789175
1764511036.512638,-0.94612,1.35814,0.09156,-0.93200445,-0.321105135,-0.146789175
1764511036.512638,-0.94612,1.35814,0.09156,-0.93200445,-0.321105135,-0.146789175
1764511036.512638,-0.94612,1.35814,0.09156,-0.93200445,-0.321105135,-0.146789175
1764511036.5141504,-0.94612,1.35814,0.09156,-0.93200445,-0.321105135,-0.146789175
1764511036.5141504,-0.94612,1.35814,0.09156,-0.93200445,-0.321105135,-0.146789175
1764511036.514586,-1.86172,0.96138,-0.09156,-0.933042045,-0.319029945,-0.14672814
1764511036.514586,-1.86172,0.96138,-0.09156,-0.933042045,-0.319029945,-0.14672814
1764511036.514586,-1.86172,0.96138,-0.09156,-0.933042045,-0.319029945,-0.14672814
1764511036.515161,-1.86172,0.96138,-0.09156,-0.933042045,-0.319029945,-0.14672814
1764511036.515161,-1.86172,0.96138,-0.09156,-0.933042045,-0.319029945,-0.14672814
1764511036.515161,-1.86172,0.96138,-0.09156,-0.933042045,-0.319029945,-0.14672814
1764511036.515161,-1.86172,0.96138,-0.09156,-0.933042045,-0.319029945,-0.14672814
1764511036.515161,-1.86172,0.96138,-0.09156,-0.933042045,-0.319029945,-0.14672814
1764511036.515161,-1.86172,0.96138,-0.09156,-0.933042045,-0.319029945,-0.14672814
1764511036.515161,-1.86172,0.96138,-0.09156,-0.933042045,-0.319029945,-0.14672814
1764511036.5566158,-3.72344,1.31236,0.3051999999999999,-0.934018605,-0.317382,-0.14660607
1764511036.5566158,-3.72344,1.31236,0.3051999999999999,-0.934018605,-0.317382,-0.14660607
1764511036.5566158,-3.72344,1.31236,0.3051999999999999,-0.934018605,-0.317382,-0.14660607
1764511036.5566158,-3.72344,1.31236,0.3051999999999999,-0.934018605,-0.317382,-0.14660607
1764511036.5566158,-3.72344,1.31236,0.3051999999999999,-0.934018605,-0.317382,-0.14660607
1764511036.5566158,-3.72344,1.31236,0.3051999999999999,-0.934018605,-0.317382,-0.14660607
1764511036.5566158,-3.72344,1.31236,0.3051999999999999,-0.934018605,-0.317382,-0.14660607
1764511036.5566158,-3.72344,1.31236,0.3051999999999999,-0.934018605,-0.317382,-0.14660607
1764511036.5566158,-3.72344,1.31236,0.3051999999999999,-0.934018605,-0.317382,-0.14660607
1764511036.5566158,-3.72344,1.31236,0.3051999999999999,-0.934018605,-0.317382,-0.14660607
1764511036.5566158,-5.096839999999999,0.85456,0.42728,-0.93359136,-0.31762614,-0.146056755
1764511036.5566158,-5.096839999999999,0.85456,0.42728,-0.93359136,-0.31762614,-0.146056755
1764511036.5566158,-5.096839999999999,0.85456,0.42728,-0.93359136,-0.31762614,-0.146056755
1764511036.5566158,-5.096839999999999,0.85456,0.42728,-0.93359136,-0.31762614,-0.146056755
1764511036.5566158,-5.096839999999999,0.85456,0.42728,-0.93359136,-0.31762614,-0.146056755
1764511036.5566158,-5.096839999999999,0.85456,0.42728,-0.93359136,-0.31762614,-0.146056755
1764511036.5566158,-5.096839999999999,0.85456,0.42728,-0.93359136,-0.31762614,-0.146056755
1764511036.5566158,-5.096839999999999,0.85456,0.42728,-0.93359136,-0.31762614,-0.146056755
1764511036.5576348,-5.096839999999999,0.85456,0.42728,-0.93359136,-0.31762614,-0.146056755
1764511036.5576348,-5.096839999999999,0.85456,0.42728,-0.93359136,-0.31762614,-0.146056755
1764511036.5576348,-4.86794,1.15976,0.3815,-0.933042045,-0.31872477,-0.145812615
1764511036.5576348,-4.86794,1.15976,0.3815,-0.933042045,-0.31872477,-0.145812615
1764511036.5576348,-4.86794,1.15976,0.3815,-0.933042045,-0.31872477,-0.145812615
1764511036.5576348,-4.86794,1.15976,0.3815,-0.933042045,-0.31872477,-0.145812615
1764511036.6023996,-4.86794,1.15976,0.3815,-0.933042045,-0.31872477,-0.145812615
1764511036.6023996,-4.86794,1.15976,0.3815,-0.933042045,-0.31872477,-0.145812615
1764511036.6023996,-4.86794,1.15976,0.3815,-0.933042045,-0.31872477,-0.145812615
1764511036.6023996,-4.86794,1.15976,0.3815,-0.933042045,-0.31872477,-0.145812615
1764511036.6023996,-4.86794,1.15976,0.3815,-0.933042045,-0.31872477,-0.145812615
1764511036.6023996,-4.86794,1.15976,0.3815,-0.933042045,-0.31872477,-0.145812615
1764511036.6023996,-3.61662,1.2971,0.13734,-0.93212652,-0.31957926,-0.146056755
1764511036.6023996,-3.61662,1.2971,0.13734,-0.93212652,-0.31957926,-0.146056755
1764511036.6023996,-3.61662,1.2971,0.13734,-0.93212652,-0.31957926,-0.146056755
1764511036.6023996,-3.61662,1.2971,0.13734,-0.93212652,-0.31957926,-0.146056755
1764511036.6023996,-3.61662,1.2971,0.13734,-0.93212652,-0.31957926,-0.146056755
1764511036.6023996,-3.61662,1.2971,0.13734,-0.93212652,-0.31957926,-0.146056755
1764511036.6023996,-3.61662,1.2971,0.13734,-0.93212652,-0.31957926,-0.146056755
1764511036.6023996,-3.61662,1.2971,0.13734,-0.93212652,-0.31957926,-0.146056755
1764511036.6023996,-3.61662,1.2971,0.13734,-0.93212652,-0.31957926,-0.146056755
1764511036.6023996,-3.61662,1.2971,0.13734,-0.93212652,-0.31957926,-0.146056755
1764511036.6023996,-3.2046,0.5341,0.13734,-0.934140675,-0.320738925,-0.145812615
1764511036.6023996,-3.2046,0.5341,0.13734,-0.934140675,-0.320738925,-0.145812615
1764511036.6023996,-3.2046,0.5341,0.13734,-0.934140675,-0.320738925,-0.145812615
1764511036.6023996,-3.2046,0.5341,0.13734,-0.934140675,-0.320738925,-0.145812615
1764511036.6023996,-3.2046,0.5341,0.13734,-0.934140675,-0.320738925,-0.145812615
1764511036.6023996,-3.2046,0.5341,0.13734,-0.934140675,-0.320738925,-0.145812615
1764511036.6023996,-3.2046,0.5341,0.13734,-0.934140675,-0.320738925,-0.145812615
1764511036.6023996,-3.2046,0.5341,0.13734,-0.934140675,-0.320738925,-0.145812615
1764511036.6474583,-3.2046,0.5341,0.13734,-0.934140675,-0.320738925,-0.145812615
1764511036.6474583,-3.2046,0.5341,0.13734,-0.934140675,-0.320738925,-0.145812615
1764511036.6474583,-2.47212,1.3734,0.8698199999999999,-0.93285894,-0.320250645,-0.14465295
1764511036.6474583,-2.47212,1.3734,0.8698199999999999,-0.93285894,-0.320250645,-0.14465295
1764511036.6474583,-2.47212,1.3734,0.8698199999999999,-0.93285894,-0.320250645,-0.14465295
1764511036.6474583,-2.47212,1.3734,0.8698199999999999,-0.93285894,-0.320250645,-0.14465295
1764511036.6474583,-2.47212,1.3734,0.8698199999999999,-0.93285894,-0.320250645,-0.14465295
1764511036.6474583,-2.47212,1.3734,0.8698199999999999,-0.93285894,-0.320250645,-0.14465295
1764511036.6474583,-2.47212,1.3734,0.8698199999999999,-0.93285894,-0.320250645,-0.14465295
1764511036.6474583,-2.47212,1.3734,0.8698199999999999,-0.93285894,-0.320250645,-0.14465295
1764511036.6484635,-2.47212,1.3734,0.8698199999999999,-0.93285894,-0.320250645,-0.14465295
1764511036.6484635,-2.47212,1.3734,0.8698199999999999,-0.93285894,-0.320250645,-0.14465295
1764511036.6484635,-3.64714,1.3734,0.65618,-0.9326148,-0.318297525,-0.144958125
1764511036.6484635,-3.64714,1.3734,0.65618,-0.9326148,-0.318297525,-0.144958125
1764511036.6484635,-3.64714,1.3734,0.65618,-0.9326148,-0.318297525,-0.144958125
1764511036.6494794,-3.64714,1.3734,0.65618,-0.9326148,-0.318297525,-0.144958125
1764511036.6494794,-3.64714,1.3734,0.65618,-0.9326148,-0.318297525,-0.144958125
1764511036.6494794,-3.64714,1.3734,0.65618,-0.9326148,-0.318297525,-0.144958125
1764511036.6494794,-3.64714,1.3734,0.65618,-0.9326148,-0.318297525,-0.144958125
1764511036.6494794,-3.64714,1.3734,0.65618,-0.9326148,-0.318297525,-0.144958125
1764511036.6494794,-3.64714,1.3734,0.65618,-0.9326148,-0.318297525,-0.144958125
1764511036.6494794,-3.64714,1.3734,0.65618,-0.9326148,-0.318297525,-0.144958125
1764511036.6964428,-5.096839999999999,1.00716,-0.04578,-0.933652395,-0.31725993,-0.14611779
1764511036.6964428,-5.096839999999999,1.00716,-0.04578,-0.933652395,-0.31725993,-0.14611779
1764511036.6964428,-5.096839999999999,1.00716,-0.04578,-0.933652395,-0.31725993,-0.14611779
1764511036.6964428,-5.096839999999999,1.00716,-0.04578,-0.933652395,-0.31725993,-0.14611779
1764511036.6964428,-5.096839999999999,1.00716,-0.04578,-0.933652395,-0.31725993,-0.14611779
1764511036.6964428,-5.096839999999999,1.00716,-0.04578,-0.933652395,-0.31725993,-0.14611779
1764511036.6964428,-5.096839999999999,1.00716,-0.04578,-0.933652395,-0.31725993,-0.14611779
1764511036.6964428,-5.096839999999999,1.00716,-0.04578,-0.933652395,-0.31725993,-0.14611779
1764511036.6964428,-5.096839999999999,1.00716,-0.04578,-0.933652395,-0.31725993,-0.14611779
1764511036.6964428,-5.096839999999999,1.00716,-0.04578,-0.933652395,-0.31725993,-0.14611779
1764511036.6964428,-4.74586,1.05294,-0.65618,-0.93407964,-0.31787028,-0.147765735
1764511036.6964428,-4.74586,1.05294,-0.65618,-0.93407964,-0.31787028,-0.147765735
1764511036.6964428,-4.74586,1.05294,-0.65618,-0.93407964,-0.31787028,-0.147765735
1764511036.6964428,-4.74586,1.05294,-0.65618,-0.93407964,-0.31787028,-0.147765735
1764511036.6964428,-4.74586,1.05294,-0.65618,-0.93407964,-0.31787028,-0.147765735
1764511036.6964428,-4.74586,1.05294,-0.65618,-0.93407964,-0.31787028,-0.147765735
1764511036.6964428,-4.74586,1.05294,-0.65618,-0.93407964,-0.31787028,-0.147765735
1764511036.6964428,-4.74586,1.05294,-0.65618,-0.93407964,-0.31787028,-0.147765735
1764511036.6964428,-4.74586,1.05294,-0.65618,-0.93407964,-0.31787028,-0.147765735
1764511036.6974456,-4.74586,1.05294,-0.65618,-0.93407964,-0.31787028,-0.147765735
1764511036.6974456,-4.77638,1.48022,-0.6714399999999999,-0.934506885,-0.31945719,-0.148009875
1764511036.6974456,-4.77638,1.48022,-0.6714399999999999,-0.934506885,-0.31945719,-0.148009875
1764511036.6974456,-4.77638,1.48022,-0.6714399999999999,-0.934506885,-0.31945719,-0.148009875
1764511036.6974456,-4.77638,1.48022,-0.6714399999999999,-0.934506885,-0.31945719,-0.148009875
1764511036.7420356,-4.77638,1.48022,-0.6714399999999999,-0.934506885,-0.31945719,-0.148009875
1764511036.7430162,-4.77638,1.48022,-0.6714399999999999,-0.934506885,-0.31945719,-0.148009875
1764511036.7430162,-4.77638,1.48022,-0.6714399999999999,-0.934506885,-0.31945719,-0.148009875
1764511036.7430162,-4.77638,1.48022,-0.6714399999999999,-0.934506885,-0.31945719,-0.148009875
1764511036.7430162,-4.77638,1.48022,-0.6714399999999999,-0.934506885,-0.31945719,-0.148009875
1764511036.7430162,-4.77638,1.48022,-0.6714399999999999,-0.934506885,-0.31945719,-0.148009875
1764511036.7440133,-3.76922,2.09062,-0.01526,-0.932431695,-0.32141031,-0.14636193
1764511036.7440133,-3.76922,2.09062,-0.01526,-0.932431695,-0.32141031,-0.14636193
1764511036.7450144,-3.76922,2.09062,-0.01526,-0.932431695,-0.32141031,-0.14636193
1764511036.7450144,-3.76922,2.09062,-0.01526,-0.932431695,-0.32141031,-0.14636193
1764511036.7450144,-3.76922,2.09062,-0.01526,-0.932431695,-0.32141031,-0.14636193
1764511036.7450144,-3.76922,2.09062,-0.01526,-0.932431695,-0.32141031,-0.14636193
1764511036.7450144,-3.76922,2.09062,-0.01526,-0.932431695,-0.32141031,-0.14636193
1764511036.7450144,-3.76922,2.09062,-0.01526,-0.932431695,-0.32141031,-0.14636193
1764511036.7450144,-3.76922,2.09062,-0.01526,-0.932431695,-0.32141031,-0.14636193
1764511036.7450144,-3.76922,2.09062,-0.01526,-0.932431695,-0.32141031,-0.14636193
1764511036.7450144,-3.15882,1.6786,0.48832,-0.931821345,-0.32287515,-0.144347775
1764511036.7450144,-3.15882,1.6786,0.48832,-0.931821345,-0.32287515,-0.144347775
1764511036.7450144,-3.15882,1.6786,0.48832,-0.931821345,-0.32287515,-0.144347775
1764511036.7450144,-3.15882,1.6786,0.48832,-0.931821345,-0.32287515,-0.144347775
1764511036.7450144,-3.15882,1.6786,0.48832,-0.931821345,-0.32287515,-0.144347775
1764511036.7450144,-3.15882,1.6786,0.48832,-0.931821345,-0.32287515,-0.144347775
1764511036.7450144,-3.15882,1.6786,0.48832,-0.931821345,-0.32287515,-0.144347775
1764511036.7450144,-3.15882,1.6786,0.48832,-0.931821345,-0.32287515,-0.144347775
1764511036.7892902,-3.15882,1.6786,0.48832,-0.931821345,-0.32287515,-0.144347775
1764511036.7892902,-3.15882,1.6786,0.48832,-0.931821345,-0.32287515,-0.144347775
1764511036.7892902,-2.31952,1.17502,0.50358,-0.932553765,-0.321349275,-0.143615355
1764511036.7892902,-2.31952,1.17502,0.50358,-0.932553765,-0.321349275,-0.143615355
1764511036.7892902,-2.31952,1.17502,0.50358,-0.932553765,-0.321349275,-0.143615355
1764511036.7892902,-2.31952,1.17502,0.50358,-0.932553765,-0.321349275,-0.143615355
1764511036.7892902,-2.31952,1.17502,0.50358,-0.932553765,-0.321349275,-0.143615355
1764511036.7892902,-2.31952,1.17502,0.50358,-0.932553765,-0.321349275,-0.143615355
1764511036.7892902,-2.31952,1.17502,0.50358,-0.932553765,-0.321349275,-0.143615355
1764511036.7892902,-2.31952,1.17502,0.50358,-0.932553765,-0.321349275,-0.143615355
1764511036.7892902,-2.31952,1.17502,0.50358,-0.932553765,-0.321349275,-0.143615355
1764511036.7892902,-2.31952,1.17502,0.50358,-0.932553765,-0.321349275,-0.143615355
1764511036.7892902,-3.84552,0.85456,0.3357199999999999,-0.932675835,-0.31835856,-0.144225705
1764511036.7892902,-3.84552,0.85456,0.3357199999999999,-0.932675835,-0.31835856,-0.144225705
1764511036.7892902,-3.84552,0.85456,0.3357199999999999,-0.932675835,-0.31835856,-0.144225705
1764511036.7892902,-3.84552,0.85456,0.3357199999999999,-0.932675835,-0.31835856,-0.144225705
1764511036.7892902,-3.84552,0.85456,0.3357199999999999,-0.932675835,-0.31835856,-0.144225705
1764511036.7892902,-3.84552,0.85456,0.3357199999999999,-0.932675835,-0.31835856,-0.144225705
1764511036.7892902,-3.84552,0.85456,0.3357199999999999,-0.932675835,-0.31835856,-0.144225705
1764511036.7892902,-3.84552,0.85456,0.3357199999999999,-0.932675835,-0.31835856,-0.144225705
1764511036.7892902,-3.84552,0.85456,0.3357199999999999,-0.932675835,-0.31835856,-0.144225705
1764511036.7892902,-3.84552,0.85456,0.3357199999999999,-0.932675835,-0.31835856,-0.144225705
1764511036.8369715,-5.20366,0.47306,0.4578,-0.932431695,-0.316344405,-0.14550744
1764511036.8369715,-5.20366,0.47306,0.4578,-0.932431695,-0.316344405,-0.14550744
1764511036.8369715,-5.20366,0.47306,0.4578,-0.932431695,-0.316344405,-0.14550744
1764511036.8379848,-5.20366,0.47306,0.4578,-0.932431695,-0.316344405,-0.14550744
1764511036.8379848,-5.20366,0.47306,0.4578,-0.932431695,-0.316344405,-0.14550744
1764511036.8379848,-5.20366,0.47306,0.4578,-0.932431695,-0.316344405,-0.14550744
1764511036.8379848,-5.20366,0.47306,0.4578,-0.932431695,-0.316344405,-0.14550744
1764511036.8379848,-5.20366,0.47306,0.4578,-0.932431695,-0.316344405,-0.14550744
1764511036.8379848,-5.20366,0.47306,0.4578,-0.932431695,-0.316344405,-0.14550744
1764511036.8379848,-5.20366,0.47306,0.4578,-0.932431695,-0.316344405,-0.14550744
1764511036.8379848,-5.84458,1.05294,0.39676,-0.93273687,-0.31664958,-0.146300895
1764511036.8379848,-5.84458,1.05294,0.39676,-0.93273687,-0.31664958,-0.146300895
1764511036.8379848,-5.84458,1.05294,0.39676,-0.93273687,-0.31664958,-0.146300895
1764511036.8379848,-5.84458,1.05294,0.39676,-0.93273687,-0.31664958,-0.146300895
1764511036.8379848,-5.84458,1.05294,0.39676,-0.93273687,-0.31664958,-0.146300895
1764511036.8379848,-5.84458,1.05294,0.39676,-0.93273687,-0.31664958,-0.146300895
1764511036.8379848,-5.84458,1.05294,0.39676,-0.93273687,-0.31664958,-0.146300895
1764511036.8379848,-5.84458,1.05294,0.39676,-0.93273687,-0.31664958,-0.146300895
1764511036.8379848,-5.84458,1.05294,0.39676,-0.93273687,-0.31664958,-0.146300895
1764511036.8379848,-5.84458,1.05294,0.39676,-0.93273687,-0.31664958,-0.146300895
1764511036.882775,-5.32574,1.08346,0.01526,-0.933286185,-0.31835856,-0.146789175
1764511036.882775,-5.32574,1.08346,0.01526,-0.933286185,-0.31835856,-0.146789175
1764511036.882775,-5.32574,1.08346,0.01526,-0.933286185,-0.31835856,-0.146789175
1764511036.882775,-5.32574,1.08346,0.01526,-0.933286185,-0.31835856,-0.146789175
1764511036.882775,-5.32574,1.08346,0.01526,-0.933286185,-0.31835856,-0.146789175
1764511036.882775,-5.32574,1.08346,0.01526,-0.933286185,-0.31835856,-0.146789175
1764511036.882775,-5.32574,1.08346,0.01526,-0.933286185,-0.31835856,-0.146789175
1764511036.882775,-5.32574,1.08346,0.01526,-0.933286185,-0.31835856,-0.146789175
1764511036.882775,-5.32574,1.08346,0.01526,-0.933286185,-0.31835856,-0.146789175
1764511036.882775,-5.32574,1.08346,0.01526,-0.933286185,-0.31835856,-0.146789175
1764511036.882775,-3.90656,1.49548,0.27468,-0.93212652,-0.31970133,-0.14672814
1764511036.882775,-3.90656,1.49548,0.27468,-0.93212652,-0.31970133,-0.14672814
1764511036.882775,-3.90656,1.49548,0.27468,-0.93212652,-0.31970133,-0.14672814
1764511036.882775,-3.90656,1.49548,0.27468,-0.93212652,-0.31970133,-0.14672814
1764511036.882775,-3.90656,1.49548,0.27468,-0.93212652,-0.31970133,-0.14672814
1764511036.882775,-3.90656,1.49548,0.27468,-0.93212652,-0.31970133,-0.14672814
1764511036.882775,-3.90656,1.49548,0.27468,-0.93212652,-0.31970133,-0.14672814
1764511036.882775,-3.90656,1.49548,0.27468,-0.93212652,-0.31970133,-0.14672814
1764511036.882775,-3.90656,1.49548,0.27468,-0.93212652,-0.31970133,-0.14672814
1764511036.882775,-3.90656,1.49548,0.27468,-0.93212652,-0.31970133,-0.14672814
1764511036.882775,-3.38772,1.6786,0.09156,-0.932065485,-0.320372715,-0.146056755
1764511036.882775,-3.38772,1.6786,0.09156,-0.932065485,-0.320372715,-0.146056755
1764511036.882775,-3.38772,1.6786,0.09156,-0.932065485,-0.320372715,-0.146056755
1764511036.882775,-3.38772,1.6786,0.09156,-0.932065485,-0.320372715,-0.146056755
1764511036.882775,-3.38772,1.6786,0.09156,-0.932065485,-0.320372715,-0.146056755
1764511036.882775,-3.38772,1.6786,0.09156,-0.932065485,-0.320372715,-0.146056755
1764511036.8843057,-3.38772,1.6786,0.09156,-0.932065485,-0.320372715,-0.146056755
1764511036.8843057,-3.38772,1.6786,0.09156,-0.932065485,-0.320372715,-0.146056755
1764511036.9279895,-3.38772,1.6786,0.09156,-0.932065485,-0.320372715,-0.146056755
1764511036.9279895,-3.38772,1.6786,0.09156,-0.932065485,-0.320372715,-0.146056755
1764511036.9279895,-3.44876,1.34288,0.8698199999999999,-0.931943415,-0.32018961,-0.145568475
1764511036.9279895,-3.44876,1.34288,0.8698199999999999,-0.931943415,-0.32018961,-0.145568475
1764511036.9279895,-3.44876,1.34288,0.8698199999999999,-0.931943415,-0.32018961,-0.145568475
1764511036.9279895,-3.44876,1.34288,0.8698199999999999,-0.931943415,-0.32018961,-0.145568475
1764511036.9279895,-3.44876,1.34288,0.8698199999999999,-0.931943415,-0.32018961,-0.145568475
1764511036.929004,-3.44876,1.34288,0.8698199999999999,-0.931943415,-0.32018961,-0.145568475
1764511036.929004,-3.44876,1.34288,0.8698199999999999,-0.931943415,-0.32018961,-0.145568475
1764511036.929004,-3.44876,1.34288,0.8698199999999999,-0.931943415,-0.32018961,-0.145568475
1764511036.929004,-3.44876,1.34288,0.8698199999999999,-0.931943415,-0.32018961,-0.145568475
1764511036.929004,-3.44876,1.34288,0.8698199999999999,-0.931943415,-0.32018961,-0.145568475
1764511036.929004,-4.18124,1.08346,0.74774,-0.9326148,-0.319152015,-0.144591915
1764511036.929004,-4.18124,1.08346,0.74774,-0.9326148,-0.319152015,-0.144591915
1764511036.929004,-4.18124,1.08346,0.74774,-0.9326148,-0.319152015,-0.144591915
1764511036.929004,-4.18124,1.08346,0.74774,-0.9326148,-0.319152015,-0.144591915
1764511036.931527,-4.18124,1.08346,0.74774,-0.9326148,-0.319152015,-0.144591915
1764511036.931527,-4.18124,1.08346,0.74774,-0.9326148,-0.319152015,-0.144591915
1764511036.931527,-4.18124,1.08346,0.74774,-0.9326148,-0.319152015,-0.144591915
1764511036.931527,-4.18124,1.08346,0.74774,-0.9326148,-0.319152015,-0.144591915
1764511036.931527,-4.18124,1.08346,0.74774,-0.9326148,-0.319152015,-0.144591915
1764511036.931527,-4.18124,1.08346,0.74774,-0.9326148,-0.319152015,-0.144591915
1764511036.9768908,-5.52412,0.6409199999999999,0.85456,-0.93298101,-0.317931315,-0.14489709
1764511036.9768908,-5.52412,0.6409199999999999,0.85456,-0.93298101,-0.317931315,-0.14489709
1764511036.9768908,-5.52412,0.6409199999999999,0.85456,-0.93298101,-0.317931315,-0.14489709
1764511036.9768908,-5.52412,0.6409199999999999,0.85456,-0.93298101,-0.317931315,-0.14489709
1764511036.9768908,-5.52412,0.6409199999999999,0.85456,-0.93298101,-0.317931315,-0.14489709
1764511036.9768908,-5.52412,0.6409199999999999,0.85456,-0.93298101,-0.317931315,-0.14489709
1764511036.9768908,-5.52412,0.6409199999999999,0.85456,-0.93298101,-0.317931315,-0.14489709
1764511036.9768908,-5.52412,0.6409199999999999,0.85456,-0.93298101,-0.317931315,-0.14489709
1764511036.9768908,-5.52412,0.6409199999999999,0.85456,-0.93298101,-0.317931315,-0.14489709
1764511036.9768908,-5.52412,0.6409199999999999,0.85456,-0.93298101,-0.317931315,-0.14489709
1764511036.9768908,-5.32574,0.85456,0.7019599999999999,-0.9326148,-0.317687175,-0.1452633
1764511036.9768908,-5.32574,0.85456,0.7019599999999999,-0.9326148,-0.317687175,-0.1452633
1764511036.9768908,-5.32574,0.85456,0.7019599999999999,-0.9326148,-0.317687175,-0.1452633
1764511036.977889,-5.32574,0.85456,0.7019599999999999,-0.9326148,-0.317687175,-0.1452633
1764511036.977889,-5.32574,0.85456,0.7019599999999999,-0.9326148,-0.317687175,-0.1452633
1764511036.977889,-5.32574,0.85456,0.7019599999999999,-0.9326148,-0.317687175,-0.1452633
1764511036.977889,-5.32574,0.85456,0.7019599999999999,-0.9326148,-0.317687175,-0.1452633
1764511036.977889,-5.32574,0.85456,0.7019599999999999,-0.9326148,-0.317687175,-0.1452633
1764511036.977889,-5.32574,0.85456,0.7019599999999999,-0.9326148,-0.317687175,-0.1452633
1764511036.977889,-5.32574,0.85456,0.7019599999999999,-0.9326148,-0.317687175,-0.1452633
1764511036.977889,-5.371519999999999,0.763,0.44254,-0.9326148,-0.318907875,-0.146484
1764511036.977889,-5.371519999999999,0.763,0.44254,-0.9326148,-0.318907875,-0.146484
1764511036.977889,-5.371519999999999,0.763,0.44254,-0.9326148,-0.318907875,-0.146484
1764511036.977889,-5.371519999999999,0.763,0.44254,-0.9326148,-0.318907875,-0.146484
1764511037.0238488,-5.371519999999999,0.763,0.44254,-0.9326148,-0.318907875,-0.146484
1764511037.0248623,-5.371519999999999,0.763,0.44254,-0.9326148,-0.318907875,-0.146484
1764511037.0248623,-5.371519999999999,0.763,0.44254,-0.9326148,-0.318907875,-0.146484
1764511037.0248623,-5.371519999999999,0.763,0.44254,-0.9326148,-0.318907875,-0.146484
1764511037.0248623,-5.371519999999999,0.763,0.44254,-0.9326148,-0.318907875,-0.146484
1764511037.0248623,-5.371519999999999,0.763,0.44254,-0.9326148,-0.318907875,-0.146484
1764511037.0248623,-4.54748,1.23606,0.6409199999999999,-0.932065485,-0.320738925,-0.146056755
1764511037.0248623,-4.54748,1.23606,0.6409199999999999,-0.932065485,-0.320738925,-0.146056755
1764511037.0248623,-4.54748,1.23606,0.6409199999999999,-0.932065485,-0.320738925,-0.146056755
1764511037.0248623,-4.54748,1.23606,0.6409199999999999,-0.932065485,-0.320738925,-0.146056755
1764511037.0248623,-4.54748,1.23606,0.6409199999999999,-0.932065485,-0.320738925,-0.146056755
1764511037.0248623,-4.54748,1.23606,0.6409199999999999,-0.932065485,-0.320738925,-0.146056755
1764511037.0248623,-4.54748,1.23606,0.6409199999999999,-0.932065485,-0.320738925,-0.146056755
1764511037.0248623,-4.54748,1.23606,0.6409199999999999,-0.932065485,-0.320738925,-0.146056755
1764511037.0248623,-4.54748,1.23606,0.6409199999999999,-0.932065485,-0.320738925,-0.146056755
1764511037.0248623,-4.54748,1.23606,0.6409199999999999,-0.932065485,-0.320738925,-0.146056755
1764511037.0248623,-4.39488,1.05294,0.85456,-0.93176031,-0.3210441,-0.145934685
1764511037.0248623,-4.39488,1.05294,0.85456,-0.93176031,-0.3210441,-0.145934685
1764511037.0248623,-4.39488,1.05294,0.85456,-0.93176031,-0.3210441,-0.145934685
1764511037.0248623,-4.39488,1.05294,0.85456,-0.93176031,-0.3210441,-0.145934685
1764511037.0248623,-4.39488,1.05294,0.85456,-0.93176031,-0.3210441,-0.145934685
1764511037.0248623,-4.39488,1.05294,0.85456,-0.93176031,-0.3210441,-0.145934685
1764511037.070732,-4.39488,1.05294,0.85456,-0.93176031,-0.3210441,-0.145934685
1764511037.070732,-4.39488,1.05294,0.85456,-0.93176031,-0.3210441,-0.145934685
1764511037.070732,-4.39488,1.05294,0.85456,-0.93176031,-0.3210441,-0.145934685
1764511037.070732,-4.39488,1.05294,0.85456,-0.93176031,-0.3210441,-0.145934685
1764511037.0716112,-4.18124,1.70912,0.65618,-0.93224859,-0.321349275,-0.145324335
1764511037.0716112,-4.18124,1.70912,0.65618,-0.93224859,-0.321349275,-0.145324335
1764511037.0716112,-4.18124,1.70912,0.65618,-0.93224859,-0.321349275,-0.145324335
1764511037.0716112,-4.18124,1.70912,0.65618,-0.93224859,-0.321349275,-0.145324335
1764511037.0716112,-4.18124,1.70912,0.65618,-0.93224859,-0.321349275,-0.145324335
1764511037.0716112,-4.18124,1.70912,0.65618,-0.93224859,-0.321349275,-0.145324335
1764511037.0716112,-4.18124,1.70912,0.65618,-0.93224859,-0.321349275,-0.145324335
1764511037.0716112,-4.18124,1.70912,0.65618,-0.93224859,-0.321349275,-0.145324335
1764511037.0716112,-4.18124,1.70912,0.65618,-0.93224859,-0.321349275,-0.145324335
1764511037.0716112,-4.18124,1.70912,0.65618,-0.93224859,-0.321349275,-0.145324335
1764511037.072744,-4.1202,1.526,0.27468,-0.933286185,-0.3198234,-0.14501916
1764511037.072744,-4.1202,1.526,0.27468,-0.933286185,-0.3198234,-0.14501916
1764511037.072744,-4.1202,1.526,0.27468,-0.933286185,-0.3198234,-0.14501916
1764511037.072744,-4.1202,1.526,0.27468,-0.933286185,-0.3198234,-0.14501916
1764511037.072744,-4.1202,1.526,0.27468,-0.933286185,-0.3198234,-0.14501916
1764511037.072744,-4.1202,1.526,0.27468,-0.933286185,-0.3198234,-0.14501916
1764511037.072744,-4.1202,1.526,0.27468,-0.933286185,-0.3198234,-0.14501916
1764511037.072744,-4.1202,1.526,0.27468,-0.933286185,-0.3198234,-0.14501916
1764511037.0737438,-4.1202,1.526,0.27468,-0.933286185,-0.3198234,-0.14501916
1764511037.0737438,-4.1202,1.526,0.27468,-0.933286185,-0.3198234,-0.14501916
1764511037.1152265,-5.1884,1.09872,0.13734,-0.93334722,-0.31774821,-0.14538537
1764511037.1152265,-5.1884,1.09872,0.13734,-0.93334722,-0.31774821,-0.14538537
1764511037.1152265,-5.1884,1.09872,0.13734,-0.93334722,-0.31774821,-0.14538537
1764511037.1152265,-5.1884,1.09872,0.13734,-0.93334722,-0.31774821,-0.14538537
1764511037.1152265,-5.1884,1.09872,0.13734,-0.93334722,-0.31774821,-0.14538537
1764511037.1152265,-5.1884,1.09872,0.13734,-0.93334722,-0.31774821,-0.14538537
1764511037.1152265,-5.1884,1.09872,0.13734,-0.93334722,-0.31774821,-0.14538537
1764511037.1152265,-5.1884,1.09872,0.13734,-0.93334722,-0.31774821,-0.14538537
1764511037.1152265,-5.1884,1.09872,0.13734,-0.93334722,-0.31774821,-0.14538537
1764511037.1152265,-5.1884,1.09872,0.13734,-0.93334722,-0.31774821,-0.14538537
1764511037.1152265,-5.615679999999999,1.26658,0.3051999999999999,-0.93322515,-0.31689372,-0.14514123
1764511037.1152265,-5.615679999999999,1.26658,0.3051999999999999,-0.93322515,-0.31689372,-0.14514123
1764511037.1152265,-5.615679999999999,1.26658,0.3051999999999999,-0.93322515,-0.31689372,-0.14514123
1764511037.1152265,-5.615679999999999,1.26658,0.3051999999999999,-0.93322515,-0.31689372,-0.14514123
1764511037.117231,-5.615679999999999,1.26658,0.3051999999999999,-0.93322515,-0.31689372,-0.14514123
1764511037.117231,-5.615679999999999,1.26658,0.3051999999999999,-0.93322515,-0.31689372,-0.14514123
1764511037.117231,-5.615679999999999,1.26658,0.3051999999999999,-0.93322515,-0.31689372,-0.14514123
1764511037.117231,-5.615679999999999,1.26658,0.3051999999999999,-0.93322515,-0.31689372,-0.14514123
1764511037.117231,-5.615679999999999,1.26658,0.3051999999999999,-0.93322515,-0.31689372,-0.14514123
1764511037.117231,-5.615679999999999,1.26658,0.3051999999999999,-0.93322515,-0.31689372,-0.14514123
1764511037.117231,-6.1803,0.97664,0.18312,-0.93359136,-0.31774821,-0.145690545
1764511037.117231,-6.1803,0.97664,0.18312,-0.93359136,-0.31774821,-0.145690545
1764511037.117231,-6.1803,0.97664,0.18312,-0.93359136,-0.31774821,-0.145690545
1764511037.117231,-6.1803,0.97664,0.18312,-0.93359136,-0.31774821,-0.145690545
1764511037.1618495,-6.1803,0.97664,0.18312,-0.93359136,-0.31774821,-0.145690545
1764511037.1618495,-6.1803,0.97664,0.18312,-0.93359136,-0.31774821,-0.145690545
1764511037.1618495,-6.1803,0.97664,0.18312,-0.93359136,-0.31774821,-0.145690545
1764511037.1618495,-6.1803,0.97664,0.18312,-0.93359136,-0.31774821,-0.145690545
1764511037.1618495,-6.1803,0.97664,0.18312,-0.93359136,-0.31774821,-0.145690545
1764511037.1618495,-6.1803,0.97664,0.18312,-0.93359136,-0.31774821,-0.145690545
1764511037.1618495,-6.74492,1.03768,0.3509799999999999,-0.93346929,-0.31835856,-0.146484
1764511037.1618495,-6.74492,1.03768,0.3509799999999999,-0.93346929,-0.31835856,-0.146484
1764511037.1618495,-6.74492,1.03768,0.3509799999999999,-0.93346929,-0.31835856,-0.146484
1764511037.1618495,-6.74492,1.03768,0.3509799999999999,-0.93346929,-0.31835856,-0.146484
1764511037.1618495,-6.74492,1.03768,0.3509799999999999,-0.93346929,-0.31835856,-0.146484
1764511037.1618495,-6.74492,1.03768,0.3509799999999999,-0.93346929,-0.31835856,-0.146484
1764511037.1618495,-6.74492,1.03768,0.3509799999999999,-0.93346929,-0.31835856,-0.146484
1764511037.1618495,-6.74492,1.03768,0.3509799999999999,-0.93346929,-0.31835856,-0.146484
1764511037.1618495,-6.74492,1.03768,0.3509799999999999,-0.93346929,-0.31835856,-0.146484
1764511037.1628485,-6.74492,1.03768,0.3509799999999999,-0.93346929,-0.31835856,-0.146484
1764511037.1628485,-6.867,1.1445,1.2208,-0.932065485,-0.318053385,-0.14758263
1764511037.1628485,-6.867,1.1445,1.2208,-0.932065485,-0.318053385,-0.14758263
1764511037.1652944,-6.867,1.1445,1.2208,-0.932065485,-0.318053385,-0.14758263
1764511037.1652944,-6.867,1.1445,1.2208,-0.932065485,-0.318053385,-0.14758263
1764511037.1652944,-6.867,1.1445,1.2208,-0.932065485,-0.318053385,-0.14758263
1764511037.1652944,-6.867,1.1445,1.2208,-0.932065485,-0.318053385,-0.14758263
1764511037.1652944,-6.867,1.1445,1.2208,-0.932065485,-0.318053385,-0.14758263
1764511037.1652944,-6.867,1.1445,1.2208,-0.932065485,-0.318053385,-0.14758263
1764511037.2090795,-6.867,1.1445,1.2208,-0.932065485,-0.318053385,-0.14758263
1764511037.2090795,-6.867,1.1445,1.2208,-0.932065485,-0.318053385,-0.14758263
1764511037.2090795,-4.91372,1.1445,0.9003399999999999,-0.93237066,-0.31970133,-0.146667105
1764511037.2090795,-4.91372,1.1445,0.9003399999999999,-0.93237066,-0.31970133,-0.146667105
1764511037.2090795,-4.91372,1.1445,0.9003399999999999,-0.93237066,-0.31970133,-0.146667105
1764511037.2090795,-4.91372,1.1445,0.9003399999999999,-0.93237066,-0.31970133,-0.146667105
1764511037.2090795,-4.91372,1.1445,0.9003399999999999,-0.93237066,-0.31970133,-0.146667105
1764511037.2090795,-4.91372,1.1445,0.9003399999999999,-0.93237066,-0.31970133,-0.146667105
1764511037.2090795,-4.91372,1.1445,0.9003399999999999,-0.93237066,-0.31970133,-0.146667105
1764511037.2090795,-4.91372,1.1445,0.9003399999999999,-0.93237066,-0.31970133,-0.146667105
1764511037.2090795,-4.91372,1.1445,0.9003399999999999,-0.93237066,-0.31970133,-0.146667105
1764511037.2090795,-4.91372,1.1445,0.9003399999999999,-0.93237066,-0.31970133,-0.146667105
1764511037.2090795,-3.32668,1.63282,0.09156,-0.93322515,-0.32189859,-0.14550744
1764511037.2090795,-3.32668,1.63282,0.09156,-0.93322515,-0.32189859,-0.14550744
1764511037.2090795,-3.32668,1.63282,0.09156,-0.93322515,-0.32189859,-0.14550744
1764511037.2090795,-3.32668,1.63282,0.09156,-0.93322515,-0.32189859,-0.14550744
1764511037.2090795,-3.32668,1.63282,0.09156,-0.93322515,-0.32189859,-0.14550744
1764511037.2090795,-3.32668,1.63282,0.09156,-0.93322515,-0.32189859,-0.14550744
1764511037.2090795,-3.32668,1.63282,0.09156,-0.93322515,-0.32189859,-0.14550744
1764511037.2090795,-3.32668,1.63282,0.09156,-0.93322515,-0.32189859,-0.14550744
1764511037.2090795,-3.32668,1.63282,0.09156,-0.93322515,-0.32189859,-0.14550744
1764511037.2090795,-3.32668,1.63282,0.09156,-0.93322515,-0.32189859,-0.14550744
1764511037.2542374,-4.059159999999999,2.47212,0.59514,-0.932431695,-0.32153238,-0.143737425
1764511037.2542374,-4.059159999999999,2.47212,0.59514,-0.932431695,-0.32153238,-0.143737425
1764511037.2542374,-4.059159999999999,2.47212,0.59514,-0.932431695,-0.32153238,-0.143737425
1764511037.2542374,-4.059159999999999,2.47212,0.59514,-0.932431695,-0.32153238,-0.143737425
1764511037.2542374,-4.059159999999999,2.47212,0.59514,-0.932431695,-0.32153238,-0.143737425
1764511037.2542374,-4.059159999999999,2.47212,0.59514,-0.932431695,-0.32153238,-0.143737425
1764511037.2542374,-4.059159999999999,2.47212,0.59514,-0.932431695,-0.32153238,-0.143737425
1764511037.2542374,-4.059159999999999,2.47212,0.59514,-0.932431695,-0.32153238,-0.143737425
1764511037.2542374,-4.059159999999999,2.47212,0.59514,-0.932431695,-0.32153238,-0.143737425
1764511037.2542374,-4.059159999999999,2.47212,0.59514,-0.932431695,-0.32153238,-0.143737425
1764511037.2542374,-5.478339999999999,1.3734,0.19838,-0.93298101,-0.318907875,-0.143859495
1764511037.2557762,-5.478339999999999,1.3734,0.19838,-0.93298101,-0.318907875,-0.143859495
1764511037.2557762,-5.478339999999999,1.3734,0.19838,-0.93298101,-0.318907875,-0.143859495
1764511037.2557762,-5.478339999999999,1.3734,0.19838,-0.93298101,-0.318907875,-0.143859495
1764511037.2557762,-5.478339999999999,1.3734,0.19838,-0.93298101,-0.318907875,-0.143859495
1764511037.2557762,-5.478339999999999,1.3734,0.19838,-0.93298101,-0.318907875,-0.143859495
1764511037.2557762,-5.478339999999999,1.3734,0.19838,-0.93298101,-0.318907875,-0.143859495
1764511037.2557762,-5.478339999999999,1.3734,0.19838,-0.93298101,-0.318907875,-0.143859495
1764511037.2557762,-5.478339999999999,1.3734,0.19838,-0.93298101,-0.318907875,-0.143859495
1764511037.2557762,-5.478339999999999,1.3734,0.19838,-0.93298101,-0.318907875,-0.143859495
1764511037.2557762,-6.91278,0.8392999999999999,-0.47306,-0.933896535,-0.3161613,-0.14599572
1764511037.2557762,-6.91278,0.8392999999999999,-0.47306,-0.933896535,-0.3161613,-0.14599572
1764511037.2996106,-6.91278,0.8392999999999999,-0.47306,-0.933896535,-0.3161613,-0.14599572
1764511037.3001509,-6.91278,0.8392999999999999,-0.47306,-0.933896535,-0.3161613,-0.14599572
1764511037.3001509,-6.91278,0.8392999999999999,-0.47306,-0.933896535,-0.3161613,-0.14599572
1764511037.3001509,-6.91278,0.8392999999999999,-0.47306,-0.933896535,-0.3161613,-0.14599572
1764511037.3001509,-6.91278,0.8392999999999999,-0.47306,-0.933896535,-0.3161613,-0.14599572
1764511037.3001509,-6.91278,0.8392999999999999,-0.47306,-0.933896535,-0.3161613,-0.14599572
1764511037.3001509,-6.91278,0.8392999999999999,-0.47306,-0.933896535,-0.3161613,-0.14599572
1764511037.3001509,-6.91278,0.8392999999999999,-0.47306,-0.933896535,-0.3161613,-0.14599572
1764511037.3006947,-8.0115,0.3204599999999999,-0.04578,-0.934140675,-0.31591716,-0.14807091
1764511037.3006947,-8.0115,0.3204599999999999,-0.04578,-0.934140675,-0.31591716,-0.14807091
1764511037.3006947,-8.0115,0.3204599999999999,-0.04578,-0.934140675,-0.31591716,-0.14807091
1764511037.3006947,-8.0115,0.3204599999999999,-0.04578,-0.934140675,-0.31591716,-0.14807091
1764511037.3006947,-8.0115,0.3204599999999999,-0.04578,-0.934140675,-0.31591716,-0.14807091
1764511037.3006947,-8.0115,0.3204599999999999,-0.04578,-0.934140675,-0.31591716,-0.14807091
1764511037.3006947,-8.0115,0.3204599999999999,-0.04578,-0.934140675,-0.31591716,-0.14807091
1764511037.3006947,-8.0115,0.3204599999999999,-0.04578,-0.934140675,-0.31591716,-0.14807091
1764511037.3022294,-8.0115,0.3204599999999999,-0.04578,-0.934140675,-0.31591716,-0.14807091
1764511037.3022294,-8.0115,0.3204599999999999,-0.04578,-0.934140675,-0.31591716,-0.14807091
1764511037.3022294,-6.958559999999999,0.93086,0.10682,-0.933408255,-0.318541665,-0.147521595
1764511037.3022294,-6.958559999999999,0.93086,0.10682,-0.933408255,-0.318541665,-0.147521595
1764511037.3022294,-6.958559999999999,0.93086,0.10682,-0.933408255,-0.318541665,-0.147521595
1764511037.3022294,-6.958559999999999,0.93086,0.10682,-0.933408255,-0.318541665,-0.147521595
1764511037.3022294,-6.958559999999999,0.93086,0.10682,-0.933408255,-0.318541665,-0.147521595
1764511037.3022294,-6.958559999999999,0.93086,0.10682,-0.933408255,-0.318541665,-0.147521595
1764511037.3490374,-6.958559999999999,0.93086,0.10682,-0.933408255,-0.318541665,-0.147521595
1764511037.3490374,-6.958559999999999,0.93086,0.10682,-0.933408255,-0.318541665,-0.147521595
1764511037.3490374,-6.958559999999999,0.93086,0.10682,-0.933408255,-0.318541665,-0.147521595
1764511037.3490374,-6.958559999999999,0.93086,0.10682,-0.933408255,-0.318541665,-0.147521595
1764511037.3490374,-4.99002,1.70912,0.24416,-0.931577205,-0.32153238,-0.14599572
1764511037.3490374,-4.99002,1.70912,0.24416,-0.931577205,-0.32153238,-0.14599572
1764511037.3490374,-4.99002,1.70912,0.24416,-0.931577205,-0.32153238,-0.14599572
1764511037.3490374,-4.99002,1.70912,0.24416,-0.931577205,-0.32153238,-0.14599572
1764511037.3490374,-4.99002,1.70912,0.24416,-0.931577205,-0.32153238,-0.14599572
1764511037.3490374,-4.99002,1.70912,0.24416,-0.931577205,-0.32153238,-0.14599572
1764511037.3490374,-4.99002,1.70912,0.24416,-0.931577205,-0.32153238,-0.14599572
1764511037.3490374,-4.99002,1.70912,0.24416,-0.931577205,-0.32153238,-0.14599572
1764511037.3490374,-4.99002,1.70912,0.24416,-0.931577205,-0.32153238,-0.14599572
1764511037.3490374,-4.99002,1.70912,0.24416,-0.931577205,-0.32153238,-0.14599572
1764511037.3490374,-7.81312,1.95328,0.12208,-0.93041754,-0.32238687,-0.146056755
1764511037.3490374,-7.81312,1.95328,0.12208,-0.93041754,-0.32238687,-0.146056755
1764511037.3490374,-7.81312,1.95328,0.12208,-0.93041754,-0.32238687,-0.146056755
1764511037.3490374,-7.81312,1.95328,0.12208,-0.93041754,-0.32238687,-0.146056755
1764511037.3490374,-7.81312,1.95328,0.12208,-0.93041754,-0.32238687,-0.146056755
1764511037.3490374,-7.81312,1.95328,0.12208,-0.93041754,-0.32238687,-0.146056755
1764511037.3490374,-7.81312,1.95328,0.12208,-0.93041754,-0.32238687,-0.146056755
1764511037.3490374,-7.81312,1.95328,0.12208,-0.93041754,-0.32238687,-0.146056755
1764511037.3490374,-7.81312,1.95328,0.12208,-0.93041754,-0.32238687,-0.146056755
1764511037.3490374,-7.81312,1.95328,0.12208,-0.93041754,-0.32238687,-0.146056755
1764511037.395331,-3.76922,1.12924,0.0,-0.931821345,-0.32031168,-0.146789175
1764511037.395331,-3.76922,1.12924,0.0,-0.931821345,-0.32031168,-0.146789175
1764511037.395331,-3.76922,1.12924,0.0,-0.931821345,-0.32031168,-0.146789175
1764511037.395331,-3.76922,1.12924,0.0,-0.931821345,-0.32031168,-0.146789175
1764511037.395331,-3.76922,1.12924,0.0,-0.931821345,-0.32031168,-0.146789175
1764511037.395331,-3.76922,1.12924,0.0,-0.931821345,-0.32031168,-0.146789175
1764511037.395331,-3.76922,1.12924,0.0,-0.931821345,-0.32031168,-0.146789175
1764511037.395331,-3.76922,1.12924,0.0,-0.931821345,-0.32031168,-0.146789175
1764511037.395331,-3.76922,1.12924,0.0,-0.931821345,-0.32031168,-0.146789175
1764511037.395331,-3.76922,1.12924,0.0,-0.931821345,-0.32031168,-0.146789175
1764511037.395331,-5.615679999999999,1.00716,0.2289,-0.933164115,-0.317809245,-0.146789175
1764511037.395331,-5.615679999999999,1.00716,0.2289,-0.933164115,-0.317809245,-0.146789175
1764511037.395331,-5.615679999999999,1.00716,0.2289,-0.933164115,-0.317809245,-0.146789175
1764511037.395331,-5.615679999999999,1.00716,0.2289,-0.933164115,-0.317809245,-0.146789175
1764511037.395331,-5.615679999999999,1.00716,0.2289,-0.933164115,-0.317809245,-0.146789175
1764511037.395331,-5.615679999999999,1.00716,0.2289,-0.933164115,-0.317809245,-0.146789175
1764511037.395331,-5.615679999999999,1.00716,0.2289,-0.933164115,-0.317809245,-0.146789175
1764511037.395331,-5.615679999999999,1.00716,0.2289,-0.933164115,-0.317809245,-0.146789175
1764511037.395331,-5.615679999999999,1.00716,0.2289,-0.933164115,-0.317809245,-0.146789175
1764511037.395331,-5.615679999999999,1.00716,0.2289,-0.933164115,-0.317809245,-0.146789175
1764511037.395331,-7.2485,0.85456,0.88508,-0.93395757,-0.31713786,-0.146911245
1764511037.395331,-7.2485,0.85456,0.88508,-0.93395757,-0.31713786,-0.146911245
1764511037.395331,-7.2485,0.85456,0.88508,-0.93395757,-0.31713786,-0.146911245
1764511037.395331,-7.2485,0.85456,0.88508,-0.93395757,-0.31713786,-0.146911245
1764511037.4439263,-7.2485,0.85456,0.88508,-0.93395757,-0.31713786,-0.146911245
1764511037.4439263,-7.2485,0.85456,0.88508,-0.93395757,-0.31713786,-0.146911245
1764511037.4439263,-7.2485,0.85456,0.88508,-0.93395757,-0.31713786,-0.146911245
1764511037.4439263,-7.2485,0.85456,0.88508,-0.93395757,-0.31713786,-0.146911245
1764511037.4439263,-7.2485,0.85456,0.88508,-0.93395757,-0.31713786,-0.146911245
1764511037.4439263,-7.2485,0.85456,0.88508,-0.93395757,-0.31713786,-0.146911245
1764511037.4439263,-7.53844,0.94612,0.5341,-0.93298101,-0.31762614,-0.1477047
1764511037.4439263,-7.53844,0.94612,0.5341,-0.93298101,-0.31762614,-0.1477047
1764511037.4439263,-7.53844,0.94612,0.5341,-0.93298101,-0.31762614,-0.1477047
1764511037.4439263,-7.53844,0.94612,0.5341,-0.93298101,-0.31762614,-0.1477047
1764511037.4439263,-7.53844,0.94612,0.5341,-0.93298101,-0.31762614,-0.1477047
1764511037.4439263,-7.53844,0.94612,0.5341,-0.93298101,-0.31762614,-0.1477047
1764511037.4439263,-7.53844,0.94612,0.5341,-0.93298101,-0.31762614,-0.1477047
1764511037.4439263,-7.53844,0.94612,0.5341,-0.93298101,-0.31762614,-0.1477047
1764511037.4439263,-7.53844,0.94612,0.5341,-0.93298101,-0.31762614,-0.1477047
1764511037.4439263,-7.53844,0.94612,0.5341,-0.93298101,-0.31762614,-0.1477047
1764511037.4439263,-6.45498,1.4039199999999998,-0.19838,-0.93224859,-0.319884435,-0.1477047
1764511037.4439263,-6.45498,1.4039199999999998,-0.19838,-0.93224859,-0.319884435,-0.1477047
1764511037.4439263,-6.45498,1.4039199999999998,-0.19838,-0.93224859,-0.319884435,-0.1477047
1764511037.4439263,-6.45498,1.4039199999999998,-0.19838,-0.93224859,-0.319884435,-0.1477047
1764511037.4439263,-6.45498,1.4039199999999998,-0.19838,-0.93224859,-0.319884435,-0.1477047
1764511037.4439263,-6.45498,1.4039199999999998,-0.19838,-0.93224859,-0.319884435,-0.1477047
1764511037.4439263,-6.45498,1.4039199999999998,-0.19838,-0.93224859,-0.319884435,-0.1477047
1764511037.4439263,-6.45498,1.4039199999999998,-0.19838,-0.93224859,-0.319884435,-0.1477047
1764511037.487631,-6.45498,1.4039199999999998,-0.19838,-0.93224859,-0.319884435,-0.1477047
1764511037.4892044,-6.45498,1.4039199999999998,-0.19838,-0.93224859,-0.319884435,-0.1477047
1764511037.4892044,-4.66956,1.9838,0.3815,-0.931455135,-0.32018961,-0.146911245
1764511037.4892044,-4.66956,1.9838,0.3815,-0.931455135,-0.32018961,-0.146911245
1764511037.4892044,-4.66956,1.9838,0.3815,-0.931455135,-0.32018961,-0.146911245
1764511037.4892044,-4.66956,1.9838,0.3815,-0.931455135,-0.32018961,-0.146911245
1764511037.4892044,-4.66956,1.9838,0.3815,-0.931455135,-0.32018961,-0.146911245
1764511037.4892044,-4.66956,1.9838,0.3815,-0.931455135,-0.32018961,-0.146911245
1764511037.4892044,-4.66956,1.9838,0.3815,-0.931455135,-0.32018961,-0.146911245
1764511037.4892044,-4.66956,1.9838,0.3815,-0.931455135,-0.32018961,-0.146911245
1764511037.4892044,-4.66956,1.9838,0.3815,-0.931455135,-0.32018961,-0.146911245
1764511037.4892044,-4.66956,1.9838,0.3815,-0.931455135,-0.32018961,-0.146911245
1764511037.4892044,-3.60136,0.9156,-0.06104,-0.93285894,-0.31994547,-0.146422965
1764511037.4892044,-3.60136,0.9156,-0.06104,-0.93285894,-0.31994547,-0.146422965
1764511037.4892044,-3.60136,0.9156,-0.06104,-0.93285894,-0.31994547,-0.146422965
1764511037.4892044,-3.60136,0.9156,-0.06104,-0.93285894,-0.31994547,-0.146422965
1764511037.4892044,-3.60136,0.9156,-0.06104,-0.93285894,-0.31994547,-0.146422965
1764511037.4892044,-3.60136,0.9156,-0.06104,-0.93285894,-0.31994547,-0.146422965
1764511037.4892044,-3.60136,0.9156,-0.06104,-0.93285894,-0.31994547,-0.146422965
1764511037.4892044,-3.60136,0.9156,-0.06104,-0.93285894,-0.31994547,-0.146422965
1764511037.5342138,-3.60136,0.9156,-0.06104,-0.93285894,-0.31994547,-0.146422965
1764511037.5342138,-3.60136,0.9156,-0.06104,-0.93285894,-0.31994547,-0.146422965
1764511037.5342138,-3.86078,1.72438,1.2971,-0.93212652,-0.31921305,-0.145812615
1764511037.5342138,-3.86078,1.72438,1.2971,-0.93212652,-0.31921305,-0.145812615
1764511037.5342138,-3.86078,1.72438,1.2971,-0.93212652,-0.31921305,-0.145812615
1764511037.5342138,-3.86078,1.72438,1.2971,-0.93212652,-0.31921305,-0.145812615
1764511037.5342138,-3.86078,1.72438,1.2971,-0.93212652,-0.31921305,-0.145812615
1764511037.5342138,-3.86078,1.72438,1.2971,-0.93212652,-0.31921305,-0.145812615
1764511037.5342138,-3.86078,1.72438,1.2971,-0.93212652,-0.31921305,-0.145812615
1764511037.5342138,-3.86078,1.72438,1.2971,-0.93212652,-0.31921305,-0.145812615
1764511037.5357568,-3.86078,1.72438,1.2971,-0.93212652,-0.31921305,-0.145812615
1764511037.5367546,-3.86078,1.72438,1.2971,-0.93212652,-0.31921305,-0.145812615
1764511037.5367546,-5.46308,1.70912,0.6409199999999999,-0.932919975,-0.317443035,-0.14611779
1764511037.5367546,-5.46308,1.70912,0.6409199999999999,-0.932919975,-0.317443035,-0.14611779
1764511037.5367546,-5.46308,1.70912,0.6409199999999999,-0.932919975,-0.317443035,-0.14611779
1764511037.5367546,-5.46308,1.70912,0.6409199999999999,-0.932919975,-0.317443035,-0.14611779
1764511037.5367546,-5.46308,1.70912,0.6409199999999999,-0.932919975,-0.317443035,-0.14611779
1764511037.5367546,-5.46308,1.70912,0.6409199999999999,-0.932919975,-0.317443035,-0.14611779
1764511037.5367546,-5.46308,1.70912,0.6409199999999999,-0.932919975,-0.317443035,-0.14611779
1764511037.5378883,-5.46308,1.70912,0.6409199999999999,-0.932919975,-0.317443035,-0.14611779
1764511037.5378883,-5.46308,1.70912,0.6409199999999999,-0.932919975,-0.317443035,-0.14611779
1764511037.5378883,-5.46308,1.70912,0.6409199999999999,-0.932919975,-0.317443035,-0.14611779
1764511037.5378883,-6.5618,1.26658,0.09156,-0.934018605,-0.31664958,-0.14746056
1764511037.5378883,-6.5618,1.26658,0.09156,-0.934018605,-0.31664958,-0.14746056
1764511037.5378883,-6.5618,1.26658,0.09156,-0.934018605,-0.31664958,-0.14746056
1764511037.5388896,-6.5618,1.26658,0.09156,-0.934018605,-0.31664958,-0.14746056
1764511037.5829632,-6.5618,1.26658,0.09156,-0.934018605,-0.31664958,-0.14746056
1764511037.5839922,-6.5618,1.26658,0.09156,-0.934018605,-0.31664958,-0.14746056
1764511037.5839922,-6.5618,1.26658,0.09156,-0.934018605,-0.31664958,-0.14746056
1764511037.5839922,-6.5618,1.26658,0.09156,-0.934018605,-0.31664958,-0.14746056
1764511037.5839922,-6.5618,1.26658,0.09156,-0.934018605,-0.31664958,-0.14746056
1764511037.5839922,-6.5618,1.26658,0.09156,-0.934018605,-0.31664958,-0.14746056
1764511037.5839922,-7.233239999999999,0.65618,-0.1678599999999999,-0.934384815,-0.3161613,-0.148986435
1764511037.5839922,-7.233239999999999,0.65618,-0.1678599999999999,-0.934384815,-0.3161613,-0.148986435
1764511037.5839922,-7.233239999999999,0.65618,-0.1678599999999999,-0.934384815,-0.3161613,-0.148986435
1764511037.5839922,-7.233239999999999,0.65618,-0.1678599999999999,-0.934384815,-0.3161613,-0.148986435
1764511037.5839922,-7.233239999999999,0.65618,-0.1678599999999999,-0.934384815,-0.3161613,-0.148986435
1764511037.5839922,-7.233239999999999,0.65618,-0.1678599999999999,-0.934384815,-0.3161613,-0.148986435
1764511037.5839922,-7.233239999999999,0.65618,-0.1678599999999999,-0.934384815,-0.3161613,-0.148986435
1764511037.5839922,-7.233239999999999,0.65618,-0.1678599999999999,-0.934384815,-0.3161613,-0.148986435
1764511037.5839922,-7.233239999999999,0.65618,-0.1678599999999999,-0.934384815,-0.3161613,-0.148986435
1764511037.5839922,-7.233239999999999,0.65618,-0.1678599999999999,-0.934384815,-0.3161613,-0.148986435
1764511037.5839922,-6.97382,0.62566,0.3357199999999999,-0.93407964,-0.318175455,-0.1489254
1764511037.5839922,-6.97382,0.62566,0.3357199999999999,-0.93407964,-0.318175455,-0.1489254
1764511037.5839922,-6.97382,0.62566,0.3357199999999999,-0.93407964,-0.318175455,-0.1489254
1764511037.5839922,-6.97382,0.62566,0.3357199999999999,-0.93407964,-0.318175455,-0.1489254
1764511037.5839922,-6.97382,0.62566,0.3357199999999999,-0.93407964,-0.318175455,-0.1489254
1764511037.5839922,-6.97382,0.62566,0.3357199999999999,-0.93407964,-0.318175455,-0.1489254
1764511037.6289856,-6.97382,0.62566,0.3357199999999999,-0.93407964,-0.318175455,-0.1489254
1764511037.6289856,-6.97382,0.62566,0.3357199999999999,-0.93407964,-0.318175455,-0.1489254
1764511037.6289856,-6.97382,0.62566,0.3357199999999999,-0.93407964,-0.318175455,-0.1489254
1764511037.6289856,-6.97382,0.62566,0.3357199999999999,-0.93407964,-0.318175455,-0.1489254
1764511037.6289856,-5.53938,1.72438,0.763,-0.931333065,-0.321227205,-0.147887805
1764511037.6289856,-5.53938,1.72438,0.763,-0.931333065,-0.321227205,-0.147887805
1764511037.6289856,-5.53938,1.72438,0.763,-0.931333065,-0.321227205,-0.147887805
1764511037.6289856,-5.53938,1.72438,0.763,-0.931333065,-0.321227205,-0.147887805
1764511037.6289856,-5.53938,1.72438,0.763,-0.931333065,-0.321227205,-0.147887805
1764511037.6289856,-5.53938,1.72438,0.763,-0.931333065,-0.321227205,-0.147887805
1764511037.6289856,-5.53938,1.72438,0.763,-0.931333065,-0.321227205,-0.147887805
1764511037.6289856,-5.53938,1.72438,0.763,-0.931333065,-0.321227205,-0.147887805
1764511037.6289856,-5.53938,1.72438,0.763,-0.931333065,-0.321227205,-0.147887805
1764511037.6289856,-5.53938,1.72438,0.763,-0.931333065,-0.321227205,-0.147887805
1764511037.6289856,-3.93708,2.41108,0.57988,-0.929868225,-0.322936185,-0.146545035
1764511037.6289856,-3.93708,2.41108,0.57988,-0.929868225,-0.322936185,-0.146545035
1764511037.6289856,-3.93708,2.41108,0.57988,-0.929868225,-0.322936185,-0.146545035
1764511037.6289856,-3.93708,2.41108,0.57988,-0.929868225,-0.322936185,-0.146545035
1764511037.6289856,-3.93708,2.41108,0.57988,-0.929868225,-0.322936185,-0.146545035
1764511037.6289856,-3.93708,2.41108,0.57988,-0.929868225,-0.322936185,-0.146545035
1764511037.6305227,-3.93708,2.41108,0.57988,-0.929868225,-0.322936185,-0.146545035
1764511037.6305227,-3.93708,2.41108,0.57988,-0.929868225,-0.322936185,-0.146545035
1764511037.6305227,-3.93708,2.41108,0.57988,-0.929868225,-0.322936185,-0.146545035
1764511037.6305227,-3.93708,2.41108,0.57988,-0.929868225,-0.322936185,-0.146545035
1764511037.6782677,-2.92992,1.54126,0.42728,-0.93078375,-0.321227205,-0.14599572
1764511037.6782677,-2.92992,1.54126,0.42728,-0.93078375,-0.321227205,-0.14599572
1764511037.6792662,-2.92992,1.54126,0.42728,-0.93078375,-0.321227205,-0.14599572
1764511037.6792662,-2.92992,1.54126,0.42728,-0.93078375,-0.321227205,-0.14599572
1764511037.6792662,-2.92992,1.54126,0.42728,-0.93078375,-0.321227205,-0.14599572
1764511037.6792662,-2.92992,1.54126,0.42728,-0.93078375,-0.321227205,-0.14599572
1764511037.6792662,-2.92992,1.54126,0.42728,-0.93078375,-0.321227205,-0.14599572
1764511037.6792662,-2.92992,1.54126,0.42728,-0.93078375,-0.321227205,-0.14599572
1764511037.6792662,-2.92992,1.54126,0.42728,-0.93078375,-0.321227205,-0.14599572
1764511037.6792662,-2.92992,1.54126,0.42728,-0.93078375,-0.321227205,-0.14599572
1764511037.6792662,-0.03052,1.0682,0.48832,-0.932309625,-0.31823649,-0.14733849
1764511037.6792662,-0.03052,1.0682,0.48832,-0.932309625,-0.31823649,-0.14733849
1764511037.6792662,-0.03052,1.0682,0.48832,-0.932309625,-0.31823649,-0.14733849
1764511037.6792662,-0.03052,1.0682,0.48832,-0.932309625,-0.31823649,-0.14733849
1764511037.6809287,-0.03052,1.0682,0.48832,-0.932309625,-0.31823649,-0.14733849
1764511037.6809287,-0.03052,1.0682,0.48832,-0.932309625,-0.31823649,-0.14733849
1764511037.6809287,-0.03052,1.0682,0.48832,-0.932309625,-0.31823649,-0.14733849
1764511037.6809287,-0.03052,1.0682,0.48832,-0.932309625,-0.31823649,-0.14733849
1764511037.6809287,-0.03052,1.0682,0.48832,-0.932309625,-0.31823649,-0.14733849
1764511037.6809287,-0.03052,1.0682,0.48832,-0.932309625,-0.31823649,-0.14733849
1764511037.6809287,-6.3329,0.9919,0.6409199999999999,-0.933652395,-0.31506267,-0.14807091
1764511037.6809287,-6.3329,0.9919,0.6409199999999999,-0.933652395,-0.31506267,-0.14807091
1764511037.6809287,-6.3329,0.9919,0.6409199999999999,-0.933652395,-0.31506267,-0.14807091
1764511037.6809287,-6.3329,0.9919,0.6409199999999999,-0.933652395,-0.31506267,-0.14807091
1764511037.724907,-6.3329,0.9919,0.6409199999999999,-0.933652395,-0.31506267,-0.14807091
1764511037.7254465,-6.3329,0.9919,0.6409199999999999,-0.933652395,-0.31506267,-0.14807091
1764511037.7254465,-6.3329,0.9919,0.6409199999999999,-0.933652395,-0.31506267,-0.14807091
1764511037.7254465,-6.3329,0.9919,0.6409199999999999,-0.933652395,-0.31506267,-0.14807091
1764511037.7254465,-6.3329,0.9919,0.6409199999999999,-0.933652395,-0.31506267,-0.14807091
1764511037.7254465,-6.3329,0.9919,0.6409199999999999,-0.933652395,-0.31506267,-0.14807091
1764511037.7254465,-7.7063,0.93086,0.6103999999999999,-0.93407964,-0.31420818,-0.148986435
1764511037.7254465,-7.7063,0.93086,0.6103999999999999,-0.93407964,-0.31420818,-0.148986435
1764511037.7254465,-7.7063,0.93086,0.6103999999999999,-0.93407964,-0.31420818,-0.148986435
1764511037.7254465,-7.7063,0.93086,0.6103999999999999,-0.93407964,-0.31420818,-0.148986435
1764511037.7254465,-7.7063,0.93086,0.6103999999999999,-0.93407964,-0.31420818,-0.148986435
1764511037.7254465,-7.7063,0.93086,0.6103999999999999,-0.93407964,-0.31420818,-0.148986435
1764511037.7254465,-7.7063,0.93086,0.6103999999999999,-0.93407964,-0.31420818,-0.148986435
1764511037.7254465,-7.7063,0.93086,0.6103999999999999,-0.93407964,-0.31420818,-0.148986435
1764511037.7254465,-7.7063,0.93086,0.6103999999999999,-0.93407964,-0.31420818,-0.148986435
1764511037.7254465,-7.7063,0.93086,0.6103999999999999,-0.93407964,-0.31420818,-0.148986435
1764511037.7254465,-7.21798,0.93086,0.06104,-0.93273687,-0.316832685,-0.14843712
1764511037.7254465,-7.21798,0.93086,0.06104,-0.93273687,-0.316832685,-0.14843712
1764511037.7254465,-7.21798,0.93086,0.06104,-0.93273687,-0.316832685,-0.14843712
1764511037.7254465,-7.21798,0.93086,0.06104,-0.93273687,-0.316832685,-0.14843712
1764511037.7254465,-7.21798,0.93086,0.06104,-0.93273687,-0.316832685,-0.14843712
1764511037.7254465,-7.21798,0.93086,0.06104,-0.93273687,-0.316832685,-0.14843712
1764511037.7269728,-7.21798,0.93086,0.06104,-0.93273687,-0.316832685,-0.14843712
1764511037.7269728,-7.21798,0.93086,0.06104,-0.93273687,-0.316832685,-0.14843712
1764511037.7709002,-7.21798,0.93086,0.06104,-0.93273687,-0.316832685,-0.14843712
1764511037.7719164,-7.21798,0.93086,0.06104,-0.93273687,-0.316832685,-0.14843712
1764511037.7719164,-5.32574,1.26658,0.24416,-0.93176031,-0.3198234,-0.14855919
1764511037.7719164,-5.32574,1.26658,0.24416,-0.93176031,-0.3198234,-0.14855919
1764511037.7719164,-5.32574,1.26658,0.24416,-0.93176031,-0.3198234,-0.14855919
1764511037.7719164,-5.32574,1.26658,0.24416,-0.93176031,-0.3198234,-0.14855919
1764511037.7719164,-5.32574,1.26658,0.24416,-0.93176031,-0.3198234,-0.14855919
1764511037.7719164,-5.32574,1.26658,0.24416,-0.93176031,-0.3198234,-0.14855919
1764511037.7719164,-5.32574,1.26658,0.24416,-0.93176031,-0.3198234,-0.14855919
1764511037.7719164,-5.32574,1.26658,0.24416,-0.93176031,-0.3198234,-0.14855919
1764511037.7719164,-5.32574,1.26658,0.24416,-0.93176031,-0.3198234,-0.14855919
1764511037.774252,-5.32574,1.26658,0.24416,-0.93176031,-0.3198234,-0.14855919
1764511037.774252,-3.92182,1.81594,0.50358,-0.93188238,-0.320860995,-0.148986435
1764511037.774252,-3.92182,1.81594,0.50358,-0.93188238,-0.320860995,-0.148986435
1764511037.774252,-3.92182,1.81594,0.50358,-0.93188238,-0.320860995,-0.148986435
1764511037.774252,-3.92182,1.81594,0.50358,-0.93188238,-0.320860995,-0.148986435
1764511037.774252,-3.92182,1.81594,0.50358,-0.93188238,-0.320860995,-0.148986435
1764511037.774252,-3.92182,1.81594,0.50358,-0.93188238,-0.320860995,-0.148986435
1764511037.774252,-3.92182,1.81594,0.50358,-0.93188238,-0.320860995,-0.148986435
1764511037.774252,-3.92182,1.81594,0.50358,-0.93188238,-0.320860995,-0.148986435
1764511037.774252,-3.92182,1.81594,0.50358,-0.93188238,-0.320860995,-0.148986435
1764511037.774252,-3.92182,1.81594,0.50358,-0.93188238,-0.320860995,-0.148986435
1764511037.774252,-3.92182,1.51074,0.57988,-0.932309625,-0.320250645,-0.148376085
1764511037.774252,-3.92182,1.51074,0.57988,-0.932309625,-0.320250645,-0.148376085
1764511037.8194182,-3.92182,1.51074,0.57988,-0.932309625,-0.320250645,-0.148376085
1764511037.8194182,-3.92182,1.51074,0.57988,-0.932309625,-0.320250645,-0.148376085
1764511037.8194182,-3.92182,1.51074,0.57988,-0.932309625,-0.320250645,-0.148376085
1764511037.8194182,-3.92182,1.51074,0.57988,-0.932309625,-0.320250645,-0.148376085
1764511037.8194182,-3.92182,1.51074,0.57988,-0.932309625,-0.320250645,-0.148376085
1764511037.8194182,-3.92182,1.51074,0.57988,-0.932309625,-0.320250645,-0.148376085
1764511037.8194182,-3.92182,1.51074,0.57988,-0.932309625,-0.320250645,-0.148376085
1764511037.8194182,-3.92182,1.51074,0.57988,-0.932309625,-0.320250645,-0.148376085
1764511037.8194182,-4.6543,1.3734,0.97664,-0.93249273,-0.319029945,-0.148620225
1764511037.8194182,-4.6543,1.3734,0.97664,-0.93249273,-0.319029945,-0.148620225
1764511037.8194182,-4.6543,1.3734,0.97664,-0.93249273,-0.319029945,-0.148620225
1764511037.8194182,-4.6543,1.3734,0.97664,-0.93249273,-0.319029945,-0.148620225
1764511037.8194182,-4.6543,1.3734,0.97664,-0.93249273,-0.319029945,-0.148620225
1764511037.8194182,-4.6543,1.3734,0.97664,-0.93249273,-0.319029945,-0.148620225
1764511037.8194182,-4.6543,1.3734,0.97664,-0.93249273,-0.319029945,-0.148620225
1764511037.8194182,-4.6543,1.3734,0.97664,-0.93249273,-0.319029945,-0.148620225
1764511037.8194182,-4.6543,1.3734,0.97664,-0.93249273,-0.319029945,-0.148620225
1764511037.8194182,-4.6543,1.3734,0.97664,-0.93249273,-0.319029945,-0.148620225
1764511037.8194182,-5.78354,1.3734,0.18312,-0.93298101,-0.31689372,-0.14868126
1764511037.8211951,-5.78354,1.3734,0.18312,-0.93298101,-0.31689372,-0.14868126
1764511037.8211951,-5.78354,1.3734,0.18312,-0.93298101,-0.31689372,-0.14868126
1764511037.8211951,-5.78354,1.3734,0.18312,-0.93298101,-0.31689372,-0.14868126
1764511037.8211951,-5.78354,1.3734,0.18312,-0.93298101,-0.31689372,-0.14868126
1764511037.8211951,-5.78354,1.3734,0.18312,-0.93298101,-0.31689372,-0.14868126
1764511037.8666627,-5.78354,1.3734,0.18312,-0.93298101,-0.31689372,-0.14868126
1764511037.8666627,-5.78354,1.3734,0.18312,-0.93298101,-0.31689372,-0.14868126
1764511037.8666627,-5.78354,1.3734,0.18312,-0.93298101,-0.31689372,-0.14868126
1764511037.8666627,-5.78354,1.3734,0.18312,-0.93298101,-0.31689372,-0.14868126
1764511037.86719,-6.76018,1.2055399999999998,0.39676,-0.93237066,-0.31640544,-0.149230575
1764511037.86719,-6.76018,1.2055399999999998,0.39676,-0.93237066,-0.31640544,-0.149230575
1764511037.86719,-6.76018,1.2055399999999998,0.39676,-0.93237066,-0.31640544,-0.149230575
1764511037.86719,-6.76018,1.2055399999999998,0.39676,-0.93237066,-0.31640544,-0.149230575
1764511037.86719,-6.76018,1.2055399999999998,0.39676,-0.93237066,-0.31640544,-0.149230575
1764511037.86719,-6.76018,1.2055399999999998,0.39676,-0.93237066,-0.31640544,-0.149230575
1764511037.86719,-6.76018,1.2055399999999998,0.39676,-0.93237066,-0.31640544,-0.149230575
1764511037.86719,-6.76018,1.2055399999999998,0.39676,-0.93237066,-0.31640544,-0.149230575
1764511037.86719,-6.76018,1.2055399999999998,0.39676,-0.93237066,-0.31640544,-0.149230575
1764511037.86719,-6.76018,1.2055399999999998,0.39676,-0.93237066,-0.31640544,-0.149230575
1764511037.86719,-6.53128,1.19028,0.3815,-0.93237066,-0.31701579,-0.14916954
1764511037.86719,-6.53128,1.19028,0.3815,-0.93237066,-0.31701579,-0.14916954
1764511037.86719,-6.53128,1.19028,0.3815,-0.93237066,-0.31701579,-0.14916954
1764511037.86719,-6.53128,1.19028,0.3815,-0.93237066,-0.31701579,-0.14916954
1764511037.86719,-6.53128,1.19028,0.3815,-0.93237066,-0.31701579,-0.14916954
1764511037.86719,-6.53128,1.19028,0.3815,-0.93237066,-0.31701579,-0.14916954
1764511037.9127865,-6.53128,1.19028,0.3815,-0.93237066,-0.31701579,-0.14916954
1764511037.9127865,-6.53128,1.19028,0.3815,-0.93237066,-0.31701579,-0.14916954
1764511037.9127865,-6.53128,1.19028,0.3815,-0.93237066,-0.31701579,-0.14916954
1764511037.9127865,-6.53128,1.19028,0.3815,-0.93237066,-0.31701579,-0.14916954
1764511037.9127865,-5.90562,1.12924,1.1445,-0.931577205,-0.318175455,-0.14880333
1764511037.9127865,-5.90562,1.12924,1.1445,-0.931577205,-0.318175455,-0.14880333
1764511037.9137857,-5.90562,1.12924,1.1445,-0.931577205,-0.318175455,-0.14880333
1764511037.9137857,-5.90562,1.12924,1.1445,-0.931577205,-0.318175455,-0.14880333
1764511037.9137857,-5.90562,1.12924,1.1445,-0.931577205,-0.318175455,-0.14880333
1764511037.9137857,-5.90562,1.12924,1.1445,-0.931577205,-0.318175455,-0.14880333
1764511037.9137857,-5.90562,1.12924,1.1445,-0.931577205,-0.318175455,-0.14880333
1764511037.9137857,-5.90562,1.12924,1.1445,-0.931577205,-0.318175455,-0.14880333
1764511037.9137857,-5.90562,1.12924,1.1445,-0.931577205,-0.318175455,-0.14880333
1764511037.9137857,-5.90562,1.12924,1.1445,-0.931577205,-0.318175455,-0.14880333
1764511037.9137857,-4.92898,1.3734,0.6409199999999999,-0.93127203,-0.319152015,-0.148254015
1764511037.9137857,-4.92898,1.3734,0.6409199999999999,-0.93127203,-0.319152015,-0.148254015
1764511037.9137857,-4.92898,1.3734,0.6409199999999999,-0.93127203,-0.319152015,-0.148254015
1764511037.9137857,-4.92898,1.3734,0.6409199999999999,-0.93127203,-0.319152015,-0.148254015
1764511037.9137857,-4.92898,1.3734,0.6409199999999999,-0.93127203,-0.319152015,-0.148254015
1764511037.9137857,-4.92898,1.3734,0.6409199999999999,-0.93127203,-0.319152015,-0.148254015
1764511037.9137857,-4.92898,1.3734,0.6409199999999999,-0.93127203,-0.319152015,-0.148254015
1764511037.9137857,-4.92898,1.3734,0.6409199999999999,-0.93127203,-0.319152015,-0.148254015
1764511037.9137857,-4.92898,1.3734,0.6409199999999999,-0.93127203,-0.319152015,-0.148254015
1764511037.9137857,-4.92898,1.3734,0.6409199999999999,-0.93127203,-0.319152015,-0.148254015
1764511037.9137857,-4.47118,1.17502,0.85456,-0.93176031,-0.319152015,-0.148254015
1764511037.9137857,-4.47118,1.17502,0.85456,-0.93176031,-0.319152015,-0.148254015
1764511037.9627476,-4.47118,1.17502,0.85456,-0.93176031,-0.319152015,-0.148254015
1764511037.9627476,-4.47118,1.17502,0.85456,-0.93176031,-0.319152015,-0.148254015
1764511037.9627476,-4.47118,1.17502,0.85456,-0.93176031,-0.319152015,-0.148254015
1764511037.9627476,-4.47118,1.17502,0.85456,-0.93176031,-0.319152015,-0.148254015
1764511037.9627476,-4.47118,1.17502,0.85456,-0.93176031,-0.319152015,-0.148254015
1764511037.9627476,-4.47118,1.17502,0.85456,-0.93176031,-0.319152015,-0.148254015
1764511037.9627476,-4.47118,1.17502,0.85456,-0.93176031,-0.319152015,-0.148254015
1764511037.9627476,-4.47118,1.17502,0.85456,-0.93176031,-0.319152015,-0.148254015
1764511037.9627476,-4.577999999999999,1.55652,0.50358,-0.932309625,-0.31835856,-0.148498155
1764511037.9627476,-4.577999999999999,1.55652,0.50358,-0.932309625,-0.31835856,-0.148498155
1764511037.9627476,-4.577999999999999,1.55652,0.50358,-0.932309625,-0.31835856,-0.148498155
1764511037.9627476,-4.577999999999999,1.55652,0.50358,-0.932309625,-0.31835856,-0.148498155
1764511037.9627476,-4.577999999999999,1.55652,0.50358,-0.932309625,-0.31835856,-0.148498155
1764511037.9627476,-4.577999999999999,1.55652,0.50358,-0.932309625,-0.31835856,-0.148498155
1764511037.9627476,-4.577999999999999,1.55652,0.50358,-0.932309625,-0.31835856,-0.148498155
1764511037.9627476,-4.577999999999999,1.55652,0.50358,-0.932309625,-0.31835856,-0.148498155
1764511037.9637644,-4.577999999999999,1.55652,0.50358,-0.932309625,-0.31835856,-0.148498155
1764511037.9637644,-4.577999999999999,1.55652,0.50358,-0.932309625,-0.31835856,-0.148498155
1764511037.9637644,-5.14262,0.7019599999999999,0.19838,-0.93273687,-0.31701579,-0.148254015
1764511037.9637644,-5.14262,0.7019599999999999,0.19838,-0.93273687,-0.31701579,-0.148254015
1764511037.9637644,-5.14262,0.7019599999999999,0.19838,-0.93273687,-0.31701579,-0.148254015
1764511037.9637644,-5.14262,0.7019599999999999,0.19838,-0.93273687,-0.31701579,-0.148254015
1764511038.0044692,-5.14262,0.7019599999999999,0.19838,-0.93273687,-0.31701579,-0.148254015
1764511038.0044692,-5.14262,0.7019599999999999,0.19838,-0.93273687,-0.31701579,-0.148254015
1764511038.0044692,-5.14262,0.7019599999999999,0.19838,-0.93273687,-0.31701579,-0.148254015
1764511038.0044692,-5.14262,0.7019599999999999,0.19838,-0.93273687,-0.31701579,-0.148254015
1764511038.0044692,-5.14262,0.7019599999999999,0.19838,-0.93273687,-0.31701579,-0.148254015
1764511038.0044692,-5.14262,0.7019599999999999,0.19838,-0.93273687,-0.31701579,-0.148254015
1764511038.0044692,-5.17314,0.9003399999999999,0.62566,-0.932797905,-0.316466475,-0.14819298
1764511038.0044692,-5.17314,0.9003399999999999,0.62566,-0.932797905,-0.316466475,-0.14819298
1764511038.0044692,-5.17314,0.9003399999999999,0.62566,-0.932797905,-0.316466475,-0.14819298
1764511038.0044692,-5.17314,0.9003399999999999,0.62566,-0.932797905,-0.316466475,-0.14819298
1764511038.0044692,-5.17314,0.9003399999999999,0.62566,-0.932797905,-0.316466475,-0.14819298
1764511038.0044692,-5.17314,0.9003399999999999,0.62566,-0.932797905,-0.316466475,-0.14819298
1764511038.0044692,-5.17314,0.9003399999999999,0.62566,-0.932797905,-0.316466475,-0.14819298
1764511038.0044692,-5.17314,0.9003399999999999,0.62566,-0.932797905,-0.316466475,-0.14819298
1764511038.0044692,-5.17314,0.9003399999999999,0.62566,-0.932797905,-0.316466475,-0.14819298
1764511038.0044692,-5.17314,0.9003399999999999,0.62566,-0.932797905,-0.316466475,-0.14819298
1764511038.0044692,-5.615679999999999,1.12924,0.24416,-0.933042045,-0.31725993,-0.14843712
1764511038.0044692,-5.615679999999999,1.12924,0.24416,-0.933042045,-0.31725993,-0.14843712
1764511038.0044692,-5.615679999999999,1.12924,0.24416,-0.933042045,-0.31725993,-0.14843712
1764511038.0044692,-5.615679999999999,1.12924,0.24416,-0.933042045,-0.31725993,-0.14843712
1764511038.0044692,-5.615679999999999,1.12924,0.24416,-0.933042045,-0.31725993,-0.14843712
1764511038.0044692,-5.615679999999999,1.12924,0.24416,-0.933042045,-0.31725993,-0.14843712
1764511038.0060024,-5.615679999999999,1.12924,0.24416,-0.933042045,-0.31725993,-0.14843712
1764511038.0060024,-5.615679999999999,1.12924,0.24416,-0.933042045,-0.31725993,-0.14843712
1764511038.053629,-5.615679999999999,1.12924,0.24416,-0.933042045,-0.31725993,-0.14843712
1764511038.053629,-5.615679999999999,1.12924,0.24416,-0.933042045,-0.31725993,-0.14843712
1764511038.053629,-5.78354,0.79352,0.4578,-0.932797905,-0.31713786,-0.14941368
1764511038.053629,-5.78354,0.79352,0.4578,-0.932797905,-0.31713786,-0.14941368
1764511038.053629,-5.78354,0.79352,0.4578,-0.932797905,-0.31713786,-0.14941368
1764511038.053629,-5.78354,0.79352,0.4578,-0.932797905,-0.31713786,-0.14941368
1764511038.053629,-5.78354,0.79352,0.4578,-0.932797905,-0.31713786,-0.14941368
1764511038.053629,-5.78354,0.79352,0.4578,-0.932797905,-0.31713786,-0.14941368
1764511038.053629,-5.78354,0.79352,0.4578,-0.932797905,-0.31713786,-0.14941368
1764511038.053629,-5.78354,0.79352,0.4578,-0.932797905,-0.31713786,-0.14941368
1764511038.053629,-5.78354,0.79352,0.4578,-0.932797905,-0.31713786,-0.14941368
1764511038.053629,-5.78354,0.79352,0.4578,-0.932797905,-0.31713786,-0.14941368
1764511038.053629,-4.53222,0.48832,0.8087799999999999,-0.931455135,-0.317443035,-0.149474715
1764511038.053629,-4.53222,0.48832,0.8087799999999999,-0.931455135,-0.317443035,-0.149474715
1764511038.053629,-4.53222,0.48832,0.8087799999999999,-0.931455135,-0.317443035,-0.149474715
1764511038.053629,-4.53222,0.48832,0.8087799999999999,-0.931455135,-0.317443035,-0.149474715
1764511038.053629,-4.53222,0.48832,0.8087799999999999,-0.931455135,-0.317443035,-0.149474715
1764511038.053629,-4.53222,0.48832,0.8087799999999999,-0.931455135,-0.317443035,-0.149474715
1764511038.053629,-4.53222,0.48832,0.8087799999999999,-0.931455135,-0.317443035,-0.149474715
1764511038.053629,-4.53222,0.48832,0.8087799999999999,-0.931455135,-0.317443035,-0.149474715
1764511038.0551412,-4.53222,0.48832,0.8087799999999999,-0.931455135,-0.317443035,-0.149474715
1764511038.0551412,-4.53222,0.48832,0.8087799999999999,-0.931455135,-0.317443035,-0.149474715
1764511038.0551412,-2.31952,1.09872,0.8087799999999999,-0.931943415,-0.31994547,-0.14916954
1764511038.0551412,-2.31952,1.09872,0.8087799999999999,-0.931943415,-0.31994547,-0.14916954
1764511038.0987458,-2.31952,1.09872,0.8087799999999999,-0.931943415,-0.31994547,-0.14916954
1764511038.0987458,-2.31952,1.09872,0.8087799999999999,-0.931943415,-0.31994547,-0.14916954
1764511038.0987458,-2.31952,1.09872,0.8087799999999999,-0.931943415,-0.31994547,-0.14916954
1764511038.0987458,-2.31952,1.09872,0.8087799999999999,-0.931943415,-0.31994547,-0.14916954
1764511038.0987458,-2.31952,1.09872,0.8087799999999999,-0.931943415,-0.31994547,-0.14916954
1764511038.0987458,-2.31952,1.09872,0.8087799999999999,-0.931943415,-0.31994547,-0.14916954
1764511038.0987458,-2.31952,1.09872,0.8087799999999999,-0.931943415,-0.31994547,-0.14916954
1764511038.0987458,-2.31952,1.09872,0.8087799999999999,-0.931943415,-0.31994547,-0.14916954
1764511038.0987458,-1.73964,1.19028,0.9003399999999999,-0.9326148,-0.32177652,-0.147521595
1764511038.0987458,-1.73964,1.19028,0.9003399999999999,-0.9326148,-0.32177652,-0.147521595
1764511038.0987458,-1.73964,1.19028,0.9003399999999999,-0.9326148,-0.32177652,-0.147521595
1764511038.099872,-1.73964,1.19028,0.9003399999999999,-0.9326148,-0.32177652,-0.147521595
1764511038.099872,-1.73964,1.19028,0.9003399999999999,-0.9326148,-0.32177652,-0.147521595
1764511038.099872,-1.73964,1.19028,0.9003399999999999,-0.9326148,-0.32177652,-0.147521595
1764511038.099872,-1.73964,1.19028,0.9003399999999999,-0.9326148,-0.32177652,-0.147521595
1764511038.099872,-1.73964,1.19028,0.9003399999999999,-0.9326148,-0.32177652,-0.147521595
1764511038.099872,-1.73964,1.19028,0.9003399999999999,-0.9326148,-0.32177652,-0.147521595
1764511038.099872,-1.73964,1.19028,0.9003399999999999,-0.9326148,-0.32177652,-0.147521595
1764511038.099872,-2.80784,2.33478,0.79352,-0.931455135,-0.318541665,-0.146667105
1764511038.099872,-2.80784,2.33478,0.79352,-0.931455135,-0.318541665,-0.146667105
1764511038.1464007,-2.80784,2.33478,0.79352,-0.931455135,-0.318541665,-0.146667105
1764511038.1464007,-2.80784,2.33478,0.79352,-0.931455135,-0.318541665,-0.146667105
1764511038.1469278,-2.80784,2.33478,0.79352,-0.931455135,-0.318541665,-0.146667105
1764511038.1469278,-2.80784,2.33478,0.79352,-0.931455135,-0.318541665,-0.146667105
1764511038.1469278,-2.80784,2.33478,0.79352,-0.931455135,-0.318541665,-0.146667105
1764511038.1469278,-2.80784,2.33478,0.79352,-0.931455135,-0.318541665,-0.146667105
1764511038.1469278,-2.80784,2.33478,0.79352,-0.931455135,-0.318541665,-0.146667105
1764511038.1469278,-2.80784,2.33478,0.79352,-0.931455135,-0.318541665,-0.146667105
1764511038.1469278,-3.17408,1.2208,-0.18312,-0.93188238,-0.314635425,-0.14746056
