Timestamp,GyroX,GyroY,GyroZ,AccX,AccY,AccZ
1764511581.8770666,-3.87604,1.69386,0.13734,-0.90795666,-0.36181548,-0.19872996
1764511581.8770666,-3.87604,1.69386,0.13734,-0.90795666,-0.36181548,-0.19872996
1764511581.8770666,-3.87604,1.69386,0.13734,-0.90795666,-0.36181548,-0.19872996
1764511581.8770666,-2.86888,1.95328,-0.06104,-0.90868908,-0.36523344,-0.197692365
1764511581.8770666,-2.86888,1.95328,-0.06104,-0.90868908,-0.36523344,-0.197692365
1764511581.8770666,-2.86888,1.95328,-0.06104,-0.90868908,-0.36523344,-0.197692365
1764511581.8770666,-2.86888,1.95328,-0.06104,-0.90868908,-0.36523344,-0.197692365
1764511581.8770666,-2.86888,1.95328,-0.06104,-0.90868908,-0.36523344,-0.197692365
1764511581.8770666,-2.86888,1.95328,-0.06104,-0.90868908,-0.36523344,-0.197692365
1764511581.8770666,-2.86888,1.95328,-0.06104,-0.90868908,-0.36523344,-0.197692365
1764511581.879078,-2.86888,1.95328,-0.06104,-0.90868908,-0.36523344,-0.197692365
1764511581.879078,-2.86888,1.95328,-0.06104,-0.90868908,-0.36523344,-0.197692365
1764511581.879078,-2.86888,1.95328,-0.06104,-0.90868908,-0.36523344,-0.197692365
1764511581.879078,-2.0601,2.16692,0.65618,-0.90881115,-0.36437895,-0.195861315
1764511581.879078,-2.0601,2.16692,0.65618,-0.90881115,-0.36437895,-0.195861315
1764511581.879078,-2.0601,2.16692,0.65618,-0.90881115,-0.36437895,-0.195861315
1764511581.879078,-2.0601,2.16692,0.65618,-0.90881115,-0.36437895,-0.195861315
1764511581.879078,-2.0601,2.16692,0.65618,-0.90881115,-0.36437895,-0.195861315
1764511581.879078,-2.0601,2.16692,0.65618,-0.90881115,-0.36437895,-0.195861315
1764511581.879078,-2.0601,2.16692,0.65618,-0.90881115,-0.36437895,-0.195861315
1764511581.879078,-2.0601,2.16692,0.65618,-0.90881115,-0.36437895,-0.195861315
1764511581.8800817,-2.0601,2.16692,0.65618,-0.90881115,-0.36437895,-0.195861315
1764511581.8800817,-2.0601,2.16692,0.65618,-0.90881115,-0.36437895,-0.195861315
1764511581.8800817,-3.18934,2.45686,-0.42728,-0.908872185,-0.360899955,-0.196471665
1764511581.8800817,-3.18934,2.45686,-0.42728,-0.908872185,-0.360899955,-0.196471665
1764511581.9247117,-3.18934,2.45686,-0.42728,-0.908872185,-0.360899955,-0.196471665
1764511581.925706,-3.18934,2.45686,-0.42728,-0.908872185,-0.360899955,-0.196471665
1764511581.925706,-3.18934,2.45686,-0.42728,-0.908872185,-0.360899955,-0.196471665
1764511581.925706,-3.18934,2.45686,-0.42728,-0.908872185,-0.360899955,-0.196471665
1764511581.925706,-3.18934,2.45686,-0.42728,-0.908872185,-0.360899955,-0.196471665
1764511581.925706,-3.18934,2.45686,-0.42728,-0.908872185,-0.360899955,-0.196471665
1764511581.925706,-3.18934,2.45686,-0.42728,-0.908872185,-0.360899955,-0.196471665
1764511581.9267085,-3.18934,2.45686,-0.42728,-0.908872185,-0.360899955,-0.196471665
1764511581.9267085,-3.32668,1.31236,-0.1678599999999999,-0.911679795,-0.35778717,-0.19860789
1764511581.9267085,-3.32668,1.31236,-0.1678599999999999,-0.911679795,-0.35778717,-0.19860789
1764511581.9267085,-3.32668,1.31236,-0.1678599999999999,-0.911679795,-0.35778717,-0.19860789
1764511581.9267085,-3.32668,1.31236,-0.1678599999999999,-0.911679795,-0.35778717,-0.19860789
1764511581.9267085,-3.32668,1.31236,-0.1678599999999999,-0.911679795,-0.35778717,-0.19860789
1764511581.9267085,-3.32668,1.31236,-0.1678599999999999,-0.911679795,-0.35778717,-0.19860789
1764511581.9267085,-3.32668,1.31236,-0.1678599999999999,-0.911679795,-0.35778717,-0.19860789
1764511581.9267085,-3.32668,1.31236,-0.1678599999999999,-0.911679795,-0.35778717,-0.19860789
1764511581.9267085,-3.32668,1.31236,-0.1678599999999999,-0.911679795,-0.35778717,-0.19860789
1764511581.9267085,-3.32668,1.31236,-0.1678599999999999,-0.911679795,-0.35778717,-0.19860789
1764511581.9267085,-5.35626,0.4578,0.59514,-0.911679795,-0.357481995,-0.20080515
1764511581.9267085,-5.35626,0.4578,0.59514,-0.911679795,-0.357481995,-0.20080515
1764511581.9267085,-5.35626,0.4578,0.59514,-0.911679795,-0.357481995,-0.20080515
1764511581.9267085,-5.35626,0.4578,0.59514,-0.911679795,-0.357481995,-0.20080515
1764511581.9733114,-5.35626,0.4578,0.59514,-0.911679795,-0.357481995,-0.20080515
1764511581.9733114,-5.35626,0.4578,0.59514,-0.911679795,-0.357481995,-0.20080515
1764511581.974301,-5.35626,0.4578,0.59514,-0.911679795,-0.357481995,-0.20080515
1764511581.974301,-5.35626,0.4578,0.59514,-0.911679795,-0.357481995,-0.20080515
1764511581.974301,-5.35626,0.4578,0.59514,-0.911679795,-0.357481995,-0.20080515
1764511581.974301,-5.35626,0.4578,0.59514,-0.911679795,-0.357481995,-0.20080515
1764511581.974301,-4.92898,1.57178,0.21364,-0.909116325,-0.35974029,-0.199523415
1764511581.974301,-4.92898,1.57178,0.21364,-0.909116325,-0.35974029,-0.199523415
1764511581.9753006,-4.92898,1.57178,0.21364,-0.909116325,-0.35974029,-0.199523415
1764511581.9753006,-4.92898,1.57178,0.21364,-0.909116325,-0.35974029,-0.199523415
1764511581.9753006,-4.92898,1.57178,0.21364,-0.909116325,-0.35974029,-0.199523415
1764511581.9753006,-4.92898,1.57178,0.21364,-0.909116325,-0.35974029,-0.199523415
1764511581.9753006,-4.92898,1.57178,0.21364,-0.909116325,-0.35974029,-0.199523415
1764511581.9753006,-4.92898,1.57178,0.21364,-0.909116325,-0.35974029,-0.199523415
1764511581.9753006,-4.92898,1.57178,0.21364,-0.909116325,-0.35974029,-0.199523415
1764511581.9753006,-4.92898,1.57178,0.21364,-0.909116325,-0.35974029,-0.199523415
1764511581.976354,-3.37246,2.07536,0.44254,-0.9069801,-0.361998585,-0.19836375
1764511581.976354,-3.37246,2.07536,0.44254,-0.9069801,-0.361998585,-0.19836375
1764511581.976354,-3.37246,2.07536,0.44254,-0.9069801,-0.361998585,-0.19836375
1764511581.976354,-3.37246,2.07536,0.44254,-0.9069801,-0.361998585,-0.19836375
1764511581.976354,-3.37246,2.07536,0.44254,-0.9069801,-0.361998585,-0.19836375
1764511581.976862,-3.37246,2.07536,0.44254,-0.9069801,-0.361998585,-0.19836375
1764511582.0185058,-3.37246,2.07536,0.44254,-0.9069801,-0.361998585,-0.19836375
1764511582.0185058,-3.37246,2.07536,0.44254,-0.9069801,-0.361998585,-0.19836375
1764511582.0185058,-3.37246,2.07536,0.44254,-0.9069801,-0.361998585,-0.19836375
1764511582.0185058,-3.37246,2.07536,0.44254,-0.9069801,-0.361998585,-0.19836375
1764511582.0185058,-2.50264,2.15166,-0.01526,-0.90759045,-0.362853075,-0.19702098
1764511582.0185058,-2.50264,2.15166,-0.01526,-0.90759045,-0.362853075,-0.19702098
1764511582.0185058,-2.50264,2.15166,-0.01526,-0.90759045,-0.362853075,-0.19702098
1764511582.0185058,-2.50264,2.15166,-0.01526,-0.90759045,-0.362853075,-0.19702098
1764511582.0185058,-2.50264,2.15166,-0.01526,-0.90759045,-0.362853075,-0.19702098
1764511582.0185058,-2.50264,2.15166,-0.01526,-0.90759045,-0.362853075,-0.19702098
1764511582.0185058,-2.50264,2.15166,-0.01526,-0.90759045,-0.362853075,-0.19702098
1764511582.0185058,-2.50264,2.15166,-0.01526,-0.90759045,-0.362853075,-0.19702098
1764511582.0185058,-2.50264,2.15166,-0.01526,-0.90759045,-0.362853075,-0.19702098
1764511582.0185058,-2.50264,2.15166,-0.01526,-0.90759045,-0.362853075,-0.19702098
1764511582.0185058,-2.83836,1.28184,-0.12208,-0.909482535,-0.36205962,-0.19750926
1764511582.0185058,-2.83836,1.28184,-0.12208,-0.909482535,-0.36205962,-0.19750926
1764511582.019001,-2.83836,1.28184,-0.12208,-0.909482535,-0.36205962,-0.19750926
1764511582.019001,-2.83836,1.28184,-0.12208,-0.909482535,-0.36205962,-0.19750926
1764511582.019001,-2.83836,1.28184,-0.12208,-0.909482535,-0.36205962,-0.19750926
1764511582.019001,-2.83836,1.28184,-0.12208,-0.909482535,-0.36205962,-0.19750926
1764511582.019001,-2.83836,1.28184,-0.12208,-0.909482535,-0.36205962,-0.19750926
1764511582.019001,-2.83836,1.28184,-0.12208,-0.909482535,-0.36205962,-0.19750926
1764511582.0634153,-2.83836,1.28184,-0.12208,-0.909482535,-0.36205962,-0.19750926
1764511582.0634153,-2.83836,1.28184,-0.12208,-0.909482535,-0.36205962,-0.19750926
1764511582.0634153,-4.3491,0.85456,0.77826,-0.91113048,-0.360289605,-0.199035135
1764511582.0634153,-4.3491,0.85456,0.77826,-0.91113048,-0.360289605,-0.199035135
1764511582.0634153,-4.3491,0.85456,0.77826,-0.91113048,-0.360289605,-0.199035135
1764511582.0634153,-4.3491,0.85456,0.77826,-0.91113048,-0.360289605,-0.199035135
1764511582.0634153,-4.3491,0.85456,0.77826,-0.91113048,-0.360289605,-0.199035135
1764511582.0634153,-4.3491,0.85456,0.77826,-0.91113048,-0.360289605,-0.199035135
1764511582.0634153,-4.3491,0.85456,0.77826,-0.91113048,-0.360289605,-0.199035135
1764511582.0634153,-4.3491,0.85456,0.77826,-0.91113048,-0.360289605,-0.199035135
1764511582.0634153,-4.3491,0.85456,0.77826,-0.91113048,-0.360289605,-0.199035135
1764511582.0634153,-4.3491,0.85456,0.77826,-0.91113048,-0.360289605,-0.199035135
1764511582.0634153,-5.4936,1.8006799999999998,0.44254,-0.911069445,-0.35986236,-0.199523415
1764511582.0634153,-5.4936,1.8006799999999998,0.44254,-0.911069445,-0.35986236,-0.199523415
1764511582.0634153,-5.4936,1.8006799999999998,0.44254,-0.911069445,-0.35986236,-0.199523415
1764511582.0634153,-5.4936,1.8006799999999998,0.44254,-0.911069445,-0.35986236,-0.199523415
1764511582.0634153,-5.4936,1.8006799999999998,0.44254,-0.911069445,-0.35986236,-0.199523415
1764511582.0634153,-5.4936,1.8006799999999998,0.44254,-0.911069445,-0.35986236,-0.199523415
1764511582.0634153,-5.4936,1.8006799999999998,0.44254,-0.911069445,-0.35986236,-0.199523415
1764511582.0634153,-5.4936,1.8006799999999998,0.44254,-0.911069445,-0.35986236,-0.199523415
1764511582.0634153,-5.4936,1.8006799999999998,0.44254,-0.911069445,-0.35986236,-0.199523415
1764511582.0649452,-5.4936,1.8006799999999998,0.44254,-0.911069445,-0.35986236,-0.199523415
1764511582.0649452,-5.31048,1.26658,0.4578,-0.90954357,-0.36059478,-0.19872996
1764511582.0649452,-5.31048,1.26658,0.4578,-0.90954357,-0.36059478,-0.19872996
1764511582.0649452,-5.31048,1.26658,0.4578,-0.90954357,-0.36059478,-0.19872996
1764511582.0649452,-5.31048,1.26658,0.4578,-0.90954357,-0.36059478,-0.19872996
1764511582.1090918,-5.31048,1.26658,0.4578,-0.90954357,-0.36059478,-0.19872996
1764511582.1090918,-5.31048,1.26658,0.4578,-0.90954357,-0.36059478,-0.19872996
1764511582.1090918,-5.31048,1.26658,0.4578,-0.90954357,-0.36059478,-0.19872996
1764511582.1090918,-5.31048,1.26658,0.4578,-0.90954357,-0.36059478,-0.19872996
1764511582.110118,-5.31048,1.26658,0.4578,-0.90954357,-0.36059478,-0.19872996
1764511582.110118,-5.31048,1.26658,0.4578,-0.90954357,-0.36059478,-0.19872996
1764511582.110118,-5.05106,1.54126,0.06104,-0.90868908,-0.361510305,-0.19811961
1764511582.110118,-5.05106,1.54126,0.06104,-0.90868908,-0.361510305,-0.19811961
1764511582.110118,-5.05106,1.54126,0.06104,-0.90868908,-0.361510305,-0.19811961
1764511582.110118,-5.05106,1.54126,0.06104,-0.90868908,-0.361510305,-0.19811961
1764511582.110118,-5.05106,1.54126,0.06104,-0.90868908,-0.361510305,-0.19811961
1764511582.110118,-5.05106,1.54126,0.06104,-0.90868908,-0.361510305,-0.19811961
1764511582.110118,-5.05106,1.54126,0.06104,-0.90868908,-0.361510305,-0.19811961
1764511582.110118,-5.05106,1.54126,0.06104,-0.90868908,-0.361510305,-0.19811961
1764511582.110118,-5.05106,1.54126,0.06104,-0.90868908,-0.361510305,-0.19811961
1764511582.110118,-5.05106,1.54126,0.06104,-0.90868908,-0.361510305,-0.19811961
1764511582.110118,-3.25038,1.19028,-0.27468,-0.909970815,-0.36242583,-0.197692365
1764511582.110118,-3.25038,1.19028,-0.27468,-0.909970815,-0.36242583,-0.197692365
1764511582.110118,-3.25038,1.19028,-0.27468,-0.909970815,-0.36242583,-0.197692365
1764511582.110118,-3.25038,1.19028,-0.27468,-0.909970815,-0.36242583,-0.197692365
1764511582.111622,-3.25038,1.19028,-0.27468,-0.909970815,-0.36242583,-0.197692365
1764511582.111622,-3.25038,1.19028,-0.27468,-0.909970815,-0.36242583,-0.197692365
1764511582.111622,-3.25038,1.19028,-0.27468,-0.909970815,-0.36242583,-0.197692365
1764511582.111622,-3.25038,1.19028,-0.27468,-0.909970815,-0.36242583,-0.197692365
1764511582.1558225,-3.25038,1.19028,-0.27468,-0.909970815,-0.36242583,-0.197692365
1764511582.1558225,-3.25038,1.19028,-0.27468,-0.909970815,-0.36242583,-0.197692365
1764511582.1558225,-2.1364,0.54936,0.13734,-0.910581165,-0.362853075,-0.1977534
1764511582.1558225,-2.1364,0.54936,0.13734,-0.910581165,-0.362853075,-0.1977534
1764511582.1558225,-2.1364,0.54936,0.13734,-0.910581165,-0.362853075,-0.1977534
1764511582.1558225,-2.1364,0.54936,0.13734,-0.910581165,-0.362853075,-0.1977534
1764511582.1558225,-2.1364,0.54936,0.13734,-0.910581165,-0.362853075,-0.1977534
1764511582.1558225,-2.1364,0.54936,0.13734,-0.910581165,-0.362853075,-0.1977534
1764511582.1558225,-2.1364,0.54936,0.13734,-0.910581165,-0.362853075,-0.1977534
1764511582.1558225,-2.1364,0.54936,0.13734,-0.910581165,-0.362853075,-0.1977534
1764511582.1558225,-2.1364,0.54936,0.13734,-0.910581165,-0.362853075,-0.1977534
1764511582.1575778,-2.1364,0.54936,0.13734,-0.910581165,-0.362853075,-0.1977534
1764511582.1575778,-3.06726,2.02958,0.8087799999999999,-0.90905529,-0.36230376,-0.19750926
1764511582.1575778,-3.06726,2.02958,0.8087799999999999,-0.90905529,-0.36230376,-0.19750926
1764511582.1575778,-3.06726,2.02958,0.8087799999999999,-0.90905529,-0.36230376,-0.19750926
1764511582.1575778,-3.06726,2.02958,0.8087799999999999,-0.90905529,-0.36230376,-0.19750926
1764511582.1575778,-3.06726,2.02958,0.8087799999999999,-0.90905529,-0.36230376,-0.19750926
1764511582.1575778,-3.06726,2.02958,0.8087799999999999,-0.90905529,-0.36230376,-0.19750926
1764511582.1575778,-3.06726,2.02958,0.8087799999999999,-0.90905529,-0.36230376,-0.19750926
1764511582.1575778,-3.06726,2.02958,0.8087799999999999,-0.90905529,-0.36230376,-0.19750926
1764511582.1575778,-3.06726,2.02958,0.8087799999999999,-0.90905529,-0.36230376,-0.19750926
1764511582.1575778,-3.06726,2.02958,0.8087799999999999,-0.90905529,-0.36230376,-0.19750926
1764511582.202887,-4.28806,1.87698,0.12208,-0.909360465,-0.360533745,-0.198058575
1764511582.202887,-4.28806,1.87698,0.12208,-0.909360465,-0.360533745,-0.198058575
1764511582.202887,-4.28806,1.87698,0.12208,-0.909360465,-0.360533745,-0.198058575
1764511582.202887,-4.28806,1.87698,0.12208,-0.909360465,-0.360533745,-0.198058575
1764511582.202887,-4.28806,1.87698,0.12208,-0.909360465,-0.360533745,-0.198058575
1764511582.202887,-4.28806,1.87698,0.12208,-0.909360465,-0.360533745,-0.198058575
1764511582.2049088,-4.28806,1.87698,0.12208,-0.909360465,-0.360533745,-0.198058575
1764511582.2049088,-4.28806,1.87698,0.12208,-0.909360465,-0.360533745,-0.198058575
1764511582.2049088,-4.28806,1.87698,0.12208,-0.909360465,-0.360533745,-0.198058575
1764511582.2049088,-4.28806,1.87698,0.12208,-0.909360465,-0.360533745,-0.198058575
1764511582.2049088,-5.508859999999999,0.8698199999999999,-0.0762999999999999,-0.91113048,-0.35961822,-0.198058575
1764511582.2049088,-5.508859999999999,0.8698199999999999,-0.0762999999999999,-0.91113048,-0.35961822,-0.198058575
1764511582.2049088,-5.508859999999999,0.8698199999999999,-0.0762999999999999,-0.91113048,-0.35961822,-0.198058575
1764511582.2049088,-5.508859999999999,0.8698199999999999,-0.0762999999999999,-0.91113048,-0.35961822,-0.198058575
1764511582.2049088,-5.508859999999999,0.8698199999999999,-0.0762999999999999,-0.91113048,-0.35961822,-0.198058575
1764511582.2049088,-5.508859999999999,0.8698199999999999,-0.0762999999999999,-0.91113048,-0.35961822,-0.198058575
1764511582.2049088,-5.508859999999999,0.8698199999999999,-0.0762999999999999,-0.91113048,-0.35961822,-0.198058575
1764511582.2049088,-5.508859999999999,0.8698199999999999,-0.0762999999999999,-0.91113048,-0.35961822,-0.198058575
1764511582.2049088,-5.508859999999999,0.8698199999999999,-0.0762999999999999,-0.91113048,-0.35961822,-0.198058575
1764511582.2049088,-5.508859999999999,0.8698199999999999,-0.0762999999999999,-0.91113048,-0.35961822,-0.198058575
1764511582.2049088,-6.05822,0.57988,0.1525999999999999,-0.911435655,-0.360777885,-0.1989741
1764511582.2049088,-6.05822,0.57988,0.1525999999999999,-0.911435655,-0.360777885,-0.1989741
1764511582.2523408,-6.05822,0.57988,0.1525999999999999,-0.911435655,-0.360777885,-0.1989741
1764511582.252853,-6.05822,0.57988,0.1525999999999999,-0.911435655,-0.360777885,-0.1989741
1764511582.252853,-6.05822,0.57988,0.1525999999999999,-0.911435655,-0.360777885,-0.1989741
1764511582.252853,-6.05822,0.57988,0.1525999999999999,-0.911435655,-0.360777885,-0.1989741
1764511582.252853,-6.05822,0.57988,0.1525999999999999,-0.911435655,-0.360777885,-0.1989741
1764511582.252853,-6.05822,0.57988,0.1525999999999999,-0.911435655,-0.360777885,-0.1989741
1764511582.252853,-6.05822,0.57988,0.1525999999999999,-0.911435655,-0.360777885,-0.1989741
1764511582.252853,-6.05822,0.57988,0.1525999999999999,-0.911435655,-0.360777885,-0.1989741
1764511582.252853,-5.24944,0.9003399999999999,0.44254,-0.909604605,-0.362853075,-0.198668925
1764511582.252853,-5.24944,0.9003399999999999,0.44254,-0.909604605,-0.362853075,-0.198668925
1764511582.252853,-5.24944,0.9003399999999999,0.44254,-0.909604605,-0.362853075,-0.198668925
1764511582.252853,-5.24944,0.9003399999999999,0.44254,-0.909604605,-0.362853075,-0.198668925
1764511582.252853,-5.24944,0.9003399999999999,0.44254,-0.909604605,-0.362853075,-0.198668925
1764511582.252853,-5.24944,0.9003399999999999,0.44254,-0.909604605,-0.362853075,-0.198668925
1764511582.252853,-5.24944,0.9003399999999999,0.44254,-0.909604605,-0.362853075,-0.198668925
1764511582.252853,-5.24944,0.9003399999999999,0.44254,-0.909604605,-0.362853075,-0.198668925
1764511582.252853,-5.24944,0.9003399999999999,0.44254,-0.909604605,-0.362853075,-0.198668925
1764511582.252853,-5.24944,0.9003399999999999,0.44254,-0.909604605,-0.362853075,-0.198668925
1764511582.252853,-3.815,1.86172,0.65618,-0.90746838,-0.36401274,-0.19702098
1764511582.252853,-3.815,1.86172,0.65618,-0.90746838,-0.36401274,-0.19702098
1764511582.252853,-3.815,1.86172,0.65618,-0.90746838,-0.36401274,-0.19702098
1764511582.252853,-3.815,1.86172,0.65618,-0.90746838,-0.36401274,-0.19702098
1764511582.252853,-3.815,1.86172,0.65618,-0.90746838,-0.36401274,-0.19702098
1764511582.252853,-3.815,1.86172,0.65618,-0.90746838,-0.36401274,-0.19702098
1764511582.300674,-3.815,1.86172,0.65618,-0.90746838,-0.36401274,-0.19702098
1764511582.300674,-3.815,1.86172,0.65618,-0.90746838,-0.36401274,-0.19702098
1764511582.300674,-3.815,1.86172,0.65618,-0.90746838,-0.36401274,-0.19702098
1764511582.300674,-3.815,1.86172,0.65618,-0.90746838,-0.36401274,-0.19702098
1764511582.3012247,-2.70102,1.51074,-0.06104,-0.90783459,-0.36389067,-0.19555614
1764511582.3012247,-2.70102,1.51074,-0.06104,-0.90783459,-0.36389067,-0.19555614
1764511582.3012247,-2.70102,1.51074,-0.06104,-0.90783459,-0.36389067,-0.19555614
1764511582.3012247,-2.70102,1.51074,-0.06104,-0.90783459,-0.36389067,-0.19555614
1764511582.3012247,-2.70102,1.51074,-0.06104,-0.90783459,-0.36389067,-0.19555614
1764511582.3012247,-2.70102,1.51074,-0.06104,-0.90783459,-0.36389067,-0.19555614
1764511582.3012247,-2.70102,1.51074,-0.06104,-0.90783459,-0.36389067,-0.19555614
1764511582.3012247,-2.70102,1.51074,-0.06104,-0.90783459,-0.36389067,-0.19555614
1764511582.3012247,-2.70102,1.51074,-0.06104,-0.90783459,-0.36389067,-0.19555614
1764511582.3012247,-2.70102,1.51074,-0.06104,-0.90783459,-0.36389067,-0.19555614
1764511582.3012247,-2.4416,0.77826,0.6103999999999999,-0.908750115,-0.361998585,-0.196105455
1764511582.3012247,-2.4416,0.77826,0.6103999999999999,-0.908750115,-0.361998585,-0.196105455
1764511582.3012247,-2.4416,0.77826,0.6103999999999999,-0.908750115,-0.361998585,-0.196105455
1764511582.3012247,-2.4416,0.77826,0.6103999999999999,-0.908750115,-0.361998585,-0.196105455
1764511582.3012247,-2.4416,0.77826,0.6103999999999999,-0.908750115,-0.361998585,-0.196105455
1764511582.3012247,-2.4416,0.77826,0.6103999999999999,-0.908750115,-0.361998585,-0.196105455
1764511582.3012247,-2.4416,0.77826,0.6103999999999999,-0.908750115,-0.361998585,-0.196105455
1764511582.3012247,-2.4416,0.77826,0.6103999999999999,-0.908750115,-0.361998585,-0.196105455
1764511582.3012247,-2.4416,0.77826,0.6103999999999999,-0.908750115,-0.361998585,-0.196105455
1764511582.3012247,-2.4416,0.77826,0.6103999999999999,-0.908750115,-0.361998585,-0.196105455
1764511582.3451931,-4.48644,0.7019599999999999,0.8087799999999999,-0.90990978,-0.359190975,-0.19677684
1764511582.3457358,-4.48644,0.7019599999999999,0.8087799999999999,-0.90990978,-0.359190975,-0.19677684
1764511582.3462744,-4.48644,0.7019599999999999,0.8087799999999999,-0.90990978,-0.359190975,-0.19677684
1764511582.3462744,-4.48644,0.7019599999999999,0.8087799999999999,-0.90990978,-0.359190975,-0.19677684
1764511582.3462744,-4.48644,0.7019599999999999,0.8087799999999999,-0.90990978,-0.359190975,-0.19677684
1764511582.3462744,-4.48644,0.7019599999999999,0.8087799999999999,-0.90990978,-0.359190975,-0.19677684
1764511582.3462744,-4.48644,0.7019599999999999,0.8087799999999999,-0.90990978,-0.359190975,-0.19677684
1764511582.3462744,-4.48644,0.7019599999999999,0.8087799999999999,-0.90990978,-0.359190975,-0.19677684
1764511582.3462744,-4.48644,0.7019599999999999,0.8087799999999999,-0.90990978,-0.359190975,-0.19677684
1764511582.3462744,-4.48644,0.7019599999999999,0.8087799999999999,-0.90990978,-0.359190975,-0.19677684
1764511582.3462744,-5.78354,0.82404,0.01526,-0.91113048,-0.357604065,-0.19750926
1764511582.3462744,-5.78354,0.82404,0.01526,-0.91113048,-0.357604065,-0.19750926
1764511582.3462744,-5.78354,0.82404,0.01526,-0.91113048,-0.357604065,-0.19750926
1764511582.3462744,-5.78354,0.82404,0.01526,-0.91113048,-0.357604065,-0.19750926
1764511582.3462744,-5.78354,0.82404,0.01526,-0.91113048,-0.357604065,-0.19750926
1764511582.3462744,-5.78354,0.82404,0.01526,-0.91113048,-0.357604065,-0.19750926
1764511582.3462744,-5.78354,0.82404,0.01526,-0.91113048,-0.357604065,-0.19750926
1764511582.3462744,-5.78354,0.82404,0.01526,-0.91113048,-0.357604065,-0.19750926
1764511582.3462744,-5.78354,0.82404,0.01526,-0.91113048,-0.357604065,-0.19750926
1764511582.3462744,-5.78354,0.82404,0.01526,-0.91113048,-0.357604065,-0.19750926
1764511582.3462744,-6.28712,0.9919,-0.24416,-0.911923935,-0.35974029,-0.19750926
1764511582.3462744,-6.28712,0.9919,-0.24416,-0.911923935,-0.35974029,-0.19750926
1764511582.3462744,-6.28712,0.9919,-0.24416,-0.911923935,-0.35974029,-0.19750926
1764511582.3462744,-6.28712,0.9919,-0.24416,-0.911923935,-0.35974029,-0.19750926
1764511582.3483071,-6.28712,0.9919,-0.24416,-0.911923935,-0.35974029,-0.19750926
1764511582.3483071,-6.28712,0.9919,-0.24416,-0.911923935,-0.35974029,-0.19750926
1764511582.3932846,-6.28712,0.9919,-0.24416,-0.911923935,-0.35974029,-0.19750926
1764511582.3932846,-6.28712,0.9919,-0.24416,-0.911923935,-0.35974029,-0.19750926
1764511582.3932846,-6.28712,0.9919,-0.24416,-0.911923935,-0.35974029,-0.19750926
1764511582.3932846,-6.28712,0.9919,-0.24416,-0.911923935,-0.35974029,-0.19750926
1764511582.3932846,-6.04296,1.54126,-0.18312,-0.91113048,-0.362242725,-0.198180645
1764511582.3932846,-6.04296,1.54126,-0.18312,-0.91113048,-0.362242725,-0.198180645
1764511582.3932846,-6.04296,1.54126,-0.18312,-0.91113048,-0.362242725,-0.198180645
1764511582.3932846,-6.04296,1.54126,-0.18312,-0.91113048,-0.362242725,-0.198180645
1764511582.3943017,-6.04296,1.54126,-0.18312,-0.91113048,-0.362242725,-0.198180645
1764511582.3943017,-6.04296,1.54126,-0.18312,-0.91113048,-0.362242725,-0.198180645
1764511582.3943017,-6.04296,1.54126,-0.18312,-0.91113048,-0.362242725,-0.198180645
1764511582.3943017,-6.04296,1.54126,-0.18312,-0.91113048,-0.362242725,-0.198180645
1764511582.3943017,-6.04296,1.54126,-0.18312,-0.91113048,-0.362242725,-0.198180645
1764511582.3943017,-6.04296,1.54126,-0.18312,-0.91113048,-0.362242725,-0.198180645
1764511582.3943017,-4.56274,1.23606,-0.01526,-0.910581165,-0.36401274,-0.197814435
1764511582.3943017,-4.56274,1.23606,-0.01526,-0.910581165,-0.36401274,-0.197814435
1764511582.3943017,-4.56274,1.23606,-0.01526,-0.910581165,-0.36401274,-0.197814435
1764511582.3943017,-4.56274,1.23606,-0.01526,-0.910581165,-0.36401274,-0.197814435
1764511582.3943017,-4.56274,1.23606,-0.01526,-0.910581165,-0.36401274,-0.197814435
1764511582.3943017,-4.56274,1.23606,-0.01526,-0.910581165,-0.36401274,-0.197814435
1764511582.3943017,-4.56274,1.23606,-0.01526,-0.910581165,-0.36401274,-0.197814435
1764511582.3943017,-4.56274,1.23606,-0.01526,-0.910581165,-0.36401274,-0.197814435
1764511582.4384782,-4.56274,1.23606,-0.01526,-0.910581165,-0.36401274,-0.197814435
1764511582.4384782,-4.56274,1.23606,-0.01526,-0.910581165,-0.36401274,-0.197814435
1764511582.4384782,-4.07442,1.3734,-0.3051999999999999,-0.909360465,-0.364317915,-0.197570295
1764511582.4384782,-4.07442,1.3734,-0.3051999999999999,-0.909360465,-0.364317915,-0.197570295
1764511582.4384782,-4.07442,1.3734,-0.3051999999999999,-0.909360465,-0.364317915,-0.197570295
1764511582.4384782,-4.07442,1.3734,-0.3051999999999999,-0.909360465,-0.364317915,-0.197570295
1764511582.4384782,-4.07442,1.3734,-0.3051999999999999,-0.909360465,-0.364317915,-0.197570295
1764511582.4384782,-4.07442,1.3734,-0.3051999999999999,-0.909360465,-0.364317915,-0.197570295
1764511582.4384782,-4.07442,1.3734,-0.3051999999999999,-0.909360465,-0.364317915,-0.197570295
1764511582.4384782,-4.07442,1.3734,-0.3051999999999999,-0.909360465,-0.364317915,-0.197570295
1764511582.4384782,-4.07442,1.3734,-0.3051999999999999,-0.909360465,-0.364317915,-0.197570295
1764511582.4384782,-4.07442,1.3734,-0.3051999999999999,-0.909360465,-0.364317915,-0.197570295
1764511582.4384782,-3.78448,1.00716,0.10682,-0.908261835,-0.363219285,-0.19836375
1764511582.4384782,-3.78448,1.00716,0.10682,-0.908261835,-0.363219285,-0.19836375
1764511582.4384782,-3.78448,1.00716,0.10682,-0.908261835,-0.363219285,-0.19836375
1764511582.4384782,-3.78448,1.00716,0.10682,-0.908261835,-0.363219285,-0.19836375
1764511582.4384782,-3.78448,1.00716,0.10682,-0.908261835,-0.363219285,-0.19836375
1764511582.4384782,-3.78448,1.00716,0.10682,-0.908261835,-0.363219285,-0.19836375
1764511582.4384782,-3.78448,1.00716,0.10682,-0.908261835,-0.363219285,-0.19836375
1764511582.4384782,-3.78448,1.00716,0.10682,-0.908261835,-0.363219285,-0.19836375
1764511582.4384782,-3.78448,1.00716,0.10682,-0.908261835,-0.363219285,-0.19836375
1764511582.4384782,-3.78448,1.00716,0.10682,-0.908261835,-0.363219285,-0.19836375
1764511582.4384782,-4.13546,1.49548,0.48832,-0.908261835,-0.36181548,-0.199035135
1764511582.4384782,-4.13546,1.49548,0.48832,-0.908261835,-0.36181548,-0.199035135
1764511582.483129,-4.13546,1.49548,0.48832,-0.908261835,-0.36181548,-0.199035135
1764511582.483129,-4.13546,1.49548,0.48832,-0.908261835,-0.36181548,-0.199035135
1764511582.483129,-4.13546,1.49548,0.48832,-0.908261835,-0.36181548,-0.199035135
1764511582.483129,-4.13546,1.49548,0.48832,-0.908261835,-0.36181548,-0.199035135
1764511582.483129,-4.13546,1.49548,0.48832,-0.908261835,-0.36181548,-0.199035135
1764511582.483129,-4.13546,1.49548,0.48832,-0.908261835,-0.36181548,-0.199035135
1764511582.483129,-4.13546,1.49548,0.48832,-0.908261835,-0.36181548,-0.199035135
1764511582.483129,-4.13546,1.49548,0.48832,-0.908261835,-0.36181548,-0.199035135
1764511582.4846463,-5.646199999999999,1.51074,0.18312,-0.90832287,-0.361388235,-0.199035135
1764511582.4846463,-5.646199999999999,1.51074,0.18312,-0.90832287,-0.361388235,-0.199035135
1764511582.4846463,-5.646199999999999,1.51074,0.18312,-0.90832287,-0.361388235,-0.199035135
1764511582.4846463,-5.646199999999999,1.51074,0.18312,-0.90832287,-0.361388235,-0.199035135
1764511582.4846463,-5.646199999999999,1.51074,0.18312,-0.90832287,-0.361388235,-0.199035135
1764511582.4846463,-5.646199999999999,1.51074,0.18312,-0.90832287,-0.361388235,-0.199035135
1764511582.4846463,-5.646199999999999,1.51074,0.18312,-0.90832287,-0.361388235,-0.199035135
1764511582.4846463,-5.646199999999999,1.51074,0.18312,-0.90832287,-0.361388235,-0.199035135
1764511582.4846463,-5.646199999999999,1.51074,0.18312,-0.90832287,-0.361388235,-0.199035135
1764511582.485661,-5.646199999999999,1.51074,0.18312,-0.90832287,-0.361388235,-0.199035135
1764511582.485661,-6.165039999999999,0.57988,0.1525999999999999,-0.909482535,-0.361144095,-0.199035135
1764511582.485661,-6.165039999999999,0.57988,0.1525999999999999,-0.909482535,-0.361144095,-0.199035135
1764511582.5299933,-6.165039999999999,0.57988,0.1525999999999999,-0.909482535,-0.361144095,-0.199035135
1764511582.5299933,-6.165039999999999,0.57988,0.1525999999999999,-0.909482535,-0.361144095,-0.199035135
1764511582.5299933,-6.165039999999999,0.57988,0.1525999999999999,-0.909482535,-0.361144095,-0.199035135
1764511582.5299933,-6.165039999999999,0.57988,0.1525999999999999,-0.909482535,-0.361144095,-0.199035135
1764511582.5317209,-6.165039999999999,0.57988,0.1525999999999999,-0.909482535,-0.361144095,-0.199035135
1764511582.5317209,-6.165039999999999,0.57988,0.1525999999999999,-0.909482535,-0.361144095,-0.199035135
1764511582.5317209,-6.165039999999999,0.57988,0.1525999999999999,-0.909482535,-0.361144095,-0.199035135
1764511582.5317209,-6.165039999999999,0.57988,0.1525999999999999,-0.909482535,-0.361144095,-0.199035135
1764511582.5317209,-6.4855,0.8392999999999999,0.71722,-0.910214955,-0.360655815,-0.198058575
1764511582.5317209,-6.4855,0.8392999999999999,0.71722,-0.910214955,-0.360655815,-0.198058575
1764511582.5317209,-6.4855,0.8392999999999999,0.71722,-0.910214955,-0.360655815,-0.198058575
1764511582.5317209,-6.4855,0.8392999999999999,0.71722,-0.910214955,-0.360655815,-0.198058575
1764511582.5317209,-6.4855,0.8392999999999999,0.71722,-0.910214955,-0.360655815,-0.198058575
1764511582.5317209,-6.4855,0.8392999999999999,0.71722,-0.910214955,-0.360655815,-0.198058575
1764511582.5317209,-6.4855,0.8392999999999999,0.71722,-0.910214955,-0.360655815,-0.198058575
1764511582.5317209,-6.4855,0.8392999999999999,0.71722,-0.910214955,-0.360655815,-0.198058575
1764511582.5317209,-6.4855,0.8392999999999999,0.71722,-0.910214955,-0.360655815,-0.198058575
1764511582.5317209,-6.4855,0.8392999999999999,0.71722,-0.910214955,-0.360655815,-0.198058575
1764511582.5317209,-6.77544,1.02242,0.5341,-0.909604605,-0.361266165,-0.1977534
1764511582.5317209,-6.77544,1.02242,0.5341,-0.909604605,-0.361266165,-0.1977534
1764511582.5786543,-6.77544,1.02242,0.5341,-0.909604605,-0.361266165,-0.1977534
1764511582.5786543,-6.77544,1.02242,0.5341,-0.909604605,-0.361266165,-0.1977534
1764511582.5786543,-6.77544,1.02242,0.5341,-0.909604605,-0.361266165,-0.1977534
1764511582.5786543,-6.77544,1.02242,0.5341,-0.909604605,-0.361266165,-0.1977534
1764511582.5786543,-6.77544,1.02242,0.5341,-0.909604605,-0.361266165,-0.1977534
1764511582.5786543,-6.77544,1.02242,0.5341,-0.909604605,-0.361266165,-0.1977534
1764511582.5786543,-6.77544,1.02242,0.5341,-0.909604605,-0.361266165,-0.1977534
1764511582.5786543,-6.77544,1.02242,0.5341,-0.909604605,-0.361266165,-0.1977534
1764511582.5786543,-6.302379999999999,1.63282,0.36624,-0.908994255,-0.36291411,-0.19738719
1764511582.5786543,-6.302379999999999,1.63282,0.36624,-0.908994255,-0.36291411,-0.19738719
1764511582.5786543,-6.302379999999999,1.63282,0.36624,-0.908994255,-0.36291411,-0.19738719
1764511582.5786543,-6.302379999999999,1.63282,0.36624,-0.908994255,-0.36291411,-0.19738719
1764511582.5786543,-6.302379999999999,1.63282,0.36624,-0.908994255,-0.36291411,-0.19738719
1764511582.5786543,-6.302379999999999,1.63282,0.36624,-0.908994255,-0.36291411,-0.19738719
1764511582.5786543,-6.302379999999999,1.63282,0.36624,-0.908994255,-0.36291411,-0.19738719
1764511582.5786543,-6.302379999999999,1.63282,0.36624,-0.908994255,-0.36291411,-0.19738719
1764511582.5786543,-6.302379999999999,1.63282,0.36624,-0.908994255,-0.36291411,-0.19738719
1764511582.5786543,-6.302379999999999,1.63282,0.36624,-0.908994255,-0.36291411,-0.19738719
1764511582.5786543,-5.40204,1.43444,-0.42728,-0.908750115,-0.36450102,-0.197326155
1764511582.5786543,-5.40204,1.43444,-0.42728,-0.908750115,-0.36450102,-0.197326155
1764511582.5786543,-5.40204,1.43444,-0.42728,-0.908750115,-0.36450102,-0.197326155
1764511582.5786543,-5.40204,1.43444,-0.42728,-0.908750115,-0.36450102,-0.197326155
1764511582.5786543,-5.40204,1.43444,-0.42728,-0.908750115,-0.36450102,-0.197326155
1764511582.5786543,-5.40204,1.43444,-0.42728,-0.908750115,-0.36450102,-0.197326155
1764511582.5796714,-5.40204,1.43444,-0.42728,-0.908750115,-0.36450102,-0.197326155
1764511582.5796714,-5.40204,1.43444,-0.42728,-0.908750115,-0.36450102,-0.197326155
1764511582.6271732,-5.40204,1.43444,-0.42728,-0.908750115,-0.36450102,-0.197326155
1764511582.6271732,-5.40204,1.43444,-0.42728,-0.908750115,-0.36450102,-0.197326155
1764511582.628316,-4.94424,1.19028,-0.3051999999999999,-0.908383905,-0.364073775,-0.198058575
1764511582.628316,-4.94424,1.19028,-0.3051999999999999,-0.908383905,-0.364073775,-0.198058575
1764511582.628316,-4.94424,1.19028,-0.3051999999999999,-0.908383905,-0.364073775,-0.198058575
1764511582.628316,-4.94424,1.19028,-0.3051999999999999,-0.908383905,-0.364073775,-0.198058575
1764511582.628316,-4.94424,1.19028,-0.3051999999999999,-0.908383905,-0.364073775,-0.198058575
1764511582.628316,-4.94424,1.19028,-0.3051999999999999,-0.908383905,-0.364073775,-0.198058575
1764511582.6293132,-4.94424,1.19028,-0.3051999999999999,-0.908383905,-0.364073775,-0.198058575
1764511582.6293132,-4.94424,1.19028,-0.3051999999999999,-0.908383905,-0.364073775,-0.198058575
1764511582.6293132,-4.94424,1.19028,-0.3051999999999999,-0.908383905,-0.364073775,-0.198058575
1764511582.6293132,-4.94424,1.19028,-0.3051999999999999,-0.908383905,-0.364073775,-0.198058575
1764511582.6303122,-4.45592,1.25132,0.19838,-0.90844494,-0.362853075,-0.197082015
1764511582.6303122,-4.45592,1.25132,0.19838,-0.90844494,-0.362853075,-0.197082015
1764511582.6303122,-4.45592,1.25132,0.19838,-0.90844494,-0.362853075,-0.197082015
1764511582.6313138,-4.45592,1.25132,0.19838,-0.90844494,-0.362853075,-0.197082015
1764511582.6313138,-4.45592,1.25132,0.19838,-0.90844494,-0.362853075,-0.197082015
1764511582.6313138,-4.45592,1.25132,0.19838,-0.90844494,-0.362853075,-0.197082015
1764511582.6313138,-4.45592,1.25132,0.19838,-0.90844494,-0.362853075,-0.197082015
1764511582.6313138,-4.45592,1.25132,0.19838,-0.90844494,-0.362853075,-0.197082015
1764511582.6313138,-4.45592,1.25132,0.19838,-0.90844494,-0.362853075,-0.197082015
1764511582.632312,-4.45592,1.25132,0.19838,-0.90844494,-0.362853075,-0.197082015
1764511582.632312,-4.8832,1.7549,0.6714399999999999,-0.909604605,-0.36120513,-0.196471665
1764511582.632312,-4.8832,1.7549,0.6714399999999999,-0.909604605,-0.36120513,-0.196471665
1764511582.632312,-4.8832,1.7549,0.6714399999999999,-0.909604605,-0.36120513,-0.196471665
1764511582.632312,-4.8832,1.7549,0.6714399999999999,-0.909604605,-0.36120513,-0.196471665
1764511582.6761086,-4.8832,1.7549,0.6714399999999999,-0.909604605,-0.36120513,-0.196471665
1764511582.6761086,-4.8832,1.7549,0.6714399999999999,-0.909604605,-0.36120513,-0.196471665
1764511582.6761086,-4.8832,1.7549,0.6714399999999999,-0.909604605,-0.36120513,-0.196471665
1764511582.6761086,-4.8832,1.7549,0.6714399999999999,-0.909604605,-0.36120513,-0.196471665
1764511582.6761086,-4.8832,1.7549,0.6714399999999999,-0.909604605,-0.36120513,-0.196471665
1764511582.6761086,-4.8832,1.7549,0.6714399999999999,-0.909604605,-0.36120513,-0.196471665
1764511582.6761086,-6.653359999999999,0.97664,1.4039199999999998,-0.910214955,-0.358946835,-0.1977534
1764511582.6761086,-6.653359999999999,0.97664,1.4039199999999998,-0.910214955,-0.358946835,-0.1977534
1764511582.6761086,-6.653359999999999,0.97664,1.4039199999999998,-0.910214955,-0.358946835,-0.1977534
1764511582.6761086,-6.653359999999999,0.97664,1.4039199999999998,-0.910214955,-0.358946835,-0.1977534
1764511582.6761086,-6.653359999999999,0.97664,1.4039199999999998,-0.910214955,-0.358946835,-0.1977534
1764511582.6761086,-6.653359999999999,0.97664,1.4039199999999998,-0.910214955,-0.358946835,-0.1977534
1764511582.6771183,-6.653359999999999,0.97664,1.4039199999999998,-0.910214955,-0.358946835,-0.1977534
1764511582.6771183,-6.653359999999999,0.97664,1.4039199999999998,-0.910214955,-0.358946835,-0.1977534
1764511582.6771183,-6.653359999999999,0.97664,1.4039199999999998,-0.910214955,-0.358946835,-0.1977534
1764511582.6771183,-6.653359999999999,0.97664,1.4039199999999998,-0.910214955,-0.358946835,-0.1977534
1764511582.6771183,-7.14168,0.59514,1.08346,-0.908628045,-0.35778717,-0.19824168
1764511582.6771183,-7.14168,0.59514,1.08346,-0.908628045,-0.35778717,-0.19824168
1764511582.6771183,-7.14168,0.59514,1.08346,-0.908628045,-0.35778717,-0.19824168
1764511582.6771183,-7.14168,0.59514,1.08346,-0.908628045,-0.35778717,-0.19824168
1764511582.6771183,-7.14168,0.59514,1.08346,-0.908628045,-0.35778717,-0.19824168
1764511582.6771183,-7.14168,0.59514,1.08346,-0.908628045,-0.35778717,-0.19824168
1764511582.6771183,-7.14168,0.59514,1.08346,-0.908628045,-0.35778717,-0.19824168
1764511582.6771183,-7.14168,0.59514,1.08346,-0.908628045,-0.35778717,-0.19824168
1764511582.6771183,-7.14168,0.59514,1.08346,-0.908628045,-0.35778717,-0.19824168
1764511582.6771183,-7.14168,0.59514,1.08346,-0.908628045,-0.35778717,-0.19824168
1764511582.722551,-6.04296,1.54126,0.01526,-0.908017695,-0.36071685,-0.19811961
1764511582.722551,-6.04296,1.54126,0.01526,-0.908017695,-0.36071685,-0.19811961
1764511582.722551,-6.04296,1.54126,0.01526,-0.908017695,-0.36071685,-0.19811961
1764511582.722551,-6.04296,1.54126,0.01526,-0.908017695,-0.36071685,-0.19811961
1764511582.722551,-6.04296,1.54126,0.01526,-0.908017695,-0.36071685,-0.19811961
1764511582.722551,-6.04296,1.54126,0.01526,-0.908017695,-0.36071685,-0.19811961
1764511582.722551,-6.04296,1.54126,0.01526,-0.908017695,-0.36071685,-0.19811961
1764511582.722551,-6.04296,1.54126,0.01526,-0.908017695,-0.36071685,-0.19811961
1764511582.722551,-6.04296,1.54126,0.01526,-0.908017695,-0.36071685,-0.19811961
1764511582.722551,-6.04296,1.54126,0.01526,-0.908017695,-0.36071685,-0.19811961
1764511582.722551,-4.3491,1.63282,0.12208,-0.90893322,-0.364928265,-0.19677684
1764511582.7230935,-4.3491,1.63282,0.12208,-0.90893322,-0.364928265,-0.19677684
1764511582.7230935,-4.3491,1.63282,0.12208,-0.90893322,-0.364928265,-0.19677684
1764511582.7230935,-4.3491,1.63282,0.12208,-0.90893322,-0.364928265,-0.19677684
1764511582.7230935,-4.3491,1.63282,0.12208,-0.90893322,-0.364928265,-0.19677684
1764511582.7230935,-4.3491,1.63282,0.12208,-0.90893322,-0.364928265,-0.19677684
1764511582.7230935,-4.3491,1.63282,0.12208,-0.90893322,-0.364928265,-0.19677684
1764511582.7230935,-4.3491,1.63282,0.12208,-0.90893322,-0.364928265,-0.19677684
1764511582.7230935,-4.3491,1.63282,0.12208,-0.90893322,-0.364928265,-0.19677684
1764511582.7230935,-4.3491,1.63282,0.12208,-0.90893322,-0.364928265,-0.19677684
1764511582.7230935,-4.16598,2.88414,0.41202,-0.90759045,-0.365538615,-0.19592235
1764511582.7230935,-4.16598,2.88414,0.41202,-0.90759045,-0.365538615,-0.19592235
1764511582.7697875,-4.16598,2.88414,0.41202,-0.90759045,-0.365538615,-0.19592235
1764511582.7697875,-4.16598,2.88414,0.41202,-0.90759045,-0.365538615,-0.19592235
1764511582.7697875,-4.16598,2.88414,0.41202,-0.90759045,-0.365538615,-0.19592235
1764511582.7697875,-4.16598,2.88414,0.41202,-0.90759045,-0.365538615,-0.19592235
1764511582.7697875,-4.16598,2.88414,0.41202,-0.90759045,-0.365538615,-0.19592235
1764511582.7697875,-4.16598,2.88414,0.41202,-0.90759045,-0.365538615,-0.19592235
1764511582.7697875,-4.16598,2.88414,0.41202,-0.90759045,-0.365538615,-0.19592235
1764511582.7697875,-4.16598,2.88414,0.41202,-0.90759045,-0.365538615,-0.19592235
1764511582.7697875,-3.93708,3.00622,-0.3204599999999999,-0.90807873,-0.361754445,-0.19714305
1764511582.7697875,-3.93708,3.00622,-0.3204599999999999,-0.90807873,-0.361754445,-0.19714305
1764511582.7697875,-3.93708,3.00622,-0.3204599999999999,-0.90807873,-0.361754445,-0.19714305
1764511582.7707877,-3.93708,3.00622,-0.3204599999999999,-0.90807873,-0.361754445,-0.19714305
1764511582.7707877,-3.93708,3.00622,-0.3204599999999999,-0.90807873,-0.361754445,-0.19714305
1764511582.7707877,-3.93708,3.00622,-0.3204599999999999,-0.90807873,-0.361754445,-0.19714305
1764511582.7707877,-3.93708,3.00622,-0.3204599999999999,-0.90807873,-0.361754445,-0.19714305
1764511582.7707877,-3.93708,3.00622,-0.3204599999999999,-0.90807873,-0.361754445,-0.19714305
1764511582.7707877,-3.93708,3.00622,-0.3204599999999999,-0.90807873,-0.361754445,-0.19714305
1764511582.7707877,-3.93708,3.00622,-0.3204599999999999,-0.90807873,-0.361754445,-0.19714305
1764511582.7707877,-5.69198,0.74774,0.6103999999999999,-0.91161876,-0.3588858,-0.198790995
1764511582.7707877,-5.69198,0.74774,0.6103999999999999,-0.91161876,-0.3588858,-0.198790995
1764511582.7707877,-5.69198,0.74774,0.6103999999999999,-0.91161876,-0.3588858,-0.198790995
1764511582.7707877,-5.69198,0.74774,0.6103999999999999,-0.91161876,-0.3588858,-0.198790995
1764511582.7707877,-5.69198,0.74774,0.6103999999999999,-0.91161876,-0.3588858,-0.198790995
1764511582.7707877,-5.69198,0.74774,0.6103999999999999,-0.91161876,-0.3588858,-0.198790995
1764511582.8168066,-5.69198,0.74774,0.6103999999999999,-0.91161876,-0.3588858,-0.198790995
1764511582.8168066,-5.69198,0.74774,0.6103999999999999,-0.91161876,-0.3588858,-0.198790995
1764511582.8168066,-5.69198,0.74774,0.6103999999999999,-0.91161876,-0.3588858,-0.198790995
1764511582.8168066,-5.69198,0.74774,0.6103999999999999,-0.91161876,-0.3588858,-0.198790995
1764511582.8168066,-7.584219999999999,0.1678599999999999,1.05294,-0.9118629,-0.358580625,-0.20129343
1764511582.8168066,-7.584219999999999,0.1678599999999999,1.05294,-0.9118629,-0.358580625,-0.20129343
1764511582.8168066,-7.584219999999999,0.1678599999999999,1.05294,-0.9118629,-0.358580625,-0.20129343
1764511582.8168066,-7.584219999999999,0.1678599999999999,1.05294,-0.9118629,-0.358580625,-0.20129343
1764511582.8168066,-7.584219999999999,0.1678599999999999,1.05294,-0.9118629,-0.358580625,-0.20129343
1764511582.8178082,-7.584219999999999,0.1678599999999999,1.05294,-0.9118629,-0.358580625,-0.20129343
1764511582.8178082,-7.584219999999999,0.1678599999999999,1.05294,-0.9118629,-0.358580625,-0.20129343
1764511582.8178082,-7.584219999999999,0.1678599999999999,1.05294,-0.9118629,-0.358580625,-0.20129343
1764511582.8178082,-7.584219999999999,0.1678599999999999,1.05294,-0.9118629,-0.358580625,-0.20129343
1764511582.8178082,-7.584219999999999,0.1678599999999999,1.05294,-0.9118629,-0.358580625,-0.20129343
1764511582.8178082,-6.653359999999999,1.49548,0.763,-0.90929943,-0.36035064,-0.20104929
1764511582.8178082,-6.653359999999999,1.49548,0.763,-0.90929943,-0.36035064,-0.20104929
1764511582.8178082,-6.653359999999999,1.49548,0.763,-0.90929943,-0.36035064,-0.20104929
1764511582.8178082,-6.653359999999999,1.49548,0.763,-0.90929943,-0.36035064,-0.20104929
1764511582.8178082,-6.653359999999999,1.49548,0.763,-0.90929943,-0.36035064,-0.20104929
1764511582.8178082,-6.653359999999999,1.49548,0.763,-0.90929943,-0.36035064,-0.20104929
1764511582.8178082,-6.653359999999999,1.49548,0.763,-0.90929943,-0.36035064,-0.20104929
1764511582.8178082,-6.653359999999999,1.49548,0.763,-0.90929943,-0.36035064,-0.20104929
1764511582.8178082,-6.653359999999999,1.49548,0.763,-0.90929943,-0.36035064,-0.20104929
1764511582.8178082,-6.653359999999999,1.49548,0.763,-0.90929943,-0.36035064,-0.20104929
1764511582.8613088,-4.47118,2.19744,0.4578,-0.906919065,-0.362486865,-0.198790995
1764511582.8613088,-4.47118,2.19744,0.4578,-0.906919065,-0.362486865,-0.198790995
1764511582.8613088,-4.47118,2.19744,0.4578,-0.906919065,-0.362486865,-0.198790995
1764511582.8613088,-4.47118,2.19744,0.4578,-0.906919065,-0.362486865,-0.198790995
1764511582.8613088,-4.47118,2.19744,0.4578,-0.906919065,-0.362486865,-0.198790995
1764511582.8613088,-4.47118,2.19744,0.4578,-0.906919065,-0.362486865,-0.198790995
1764511582.8613088,-4.47118,2.19744,0.4578,-0.906919065,-0.362486865,-0.198790995
1764511582.8613088,-4.47118,2.19744,0.4578,-0.906919065,-0.362486865,-0.198790995
1764511582.8613088,-4.47118,2.19744,0.4578,-0.906919065,-0.362486865,-0.198790995
1764511582.8613088,-4.47118,2.19744,0.4578,-0.906919065,-0.362486865,-0.198790995
1764511582.8613088,-3.25038,2.27374,0.19838,-0.90783459,-0.36364653,-0.197814435
1764511582.8613088,-3.25038,2.27374,0.19838,-0.90783459,-0.36364653,-0.197814435
1764511582.8613088,-3.25038,2.27374,0.19838,-0.90783459,-0.36364653,-0.197814435
1764511582.8613088,-3.25038,2.27374,0.19838,-0.90783459,-0.36364653,-0.197814435
1764511582.8613088,-3.25038,2.27374,0.19838,-0.90783459,-0.36364653,-0.197814435
1764511582.8613088,-3.25038,2.27374,0.19838,-0.90783459,-0.36364653,-0.197814435
1764511582.8613088,-3.25038,2.27374,0.19838,-0.90783459,-0.36364653,-0.197814435
1764511582.8613088,-3.25038,2.27374,0.19838,-0.90783459,-0.36364653,-0.197814435
1764511582.8613088,-3.25038,2.27374,0.19838,-0.90783459,-0.36364653,-0.197814435
1764511582.8613088,-3.25038,2.27374,0.19838,-0.90783459,-0.36364653,-0.197814435
1764511582.8628628,-4.25754,1.08346,0.71722,-0.910337025,-0.360655815,-0.19836375
1764511582.8628628,-4.25754,1.08346,0.71722,-0.910337025,-0.360655815,-0.19836375
1764511582.907653,-4.25754,1.08346,0.71722,-0.910337025,-0.360655815,-0.19836375
1764511582.907653,-4.25754,1.08346,0.71722,-0.910337025,-0.360655815,-0.19836375
1764511582.907653,-4.25754,1.08346,0.71722,-0.910337025,-0.360655815,-0.19836375
1764511582.907653,-4.25754,1.08346,0.71722,-0.910337025,-0.360655815,-0.19836375
1764511582.907653,-4.25754,1.08346,0.71722,-0.910337025,-0.360655815,-0.19836375
1764511582.907653,-4.25754,1.08346,0.71722,-0.910337025,-0.360655815,-0.19836375
1764511582.907653,-4.25754,1.08346,0.71722,-0.910337025,-0.360655815,-0.19836375
1764511582.907653,-4.25754,1.08346,0.71722,-0.910337025,-0.360655815,-0.19836375
1764511582.907653,-6.80596,0.3357199999999999,1.00716,-0.911435655,-0.358214415,-0.199035135
1764511582.907653,-6.80596,0.3357199999999999,1.00716,-0.911435655,-0.358214415,-0.199035135
1764511582.907653,-6.80596,0.3357199999999999,1.00716,-0.911435655,-0.358214415,-0.199035135
1764511582.907653,-6.80596,0.3357199999999999,1.00716,-0.911435655,-0.358214415,-0.199035135
1764511582.910806,-6.80596,0.3357199999999999,1.00716,-0.911435655,-0.358214415,-0.199035135
1764511582.910806,-6.80596,0.3357199999999999,1.00716,-0.911435655,-0.358214415,-0.199035135
1764511582.910806,-6.80596,0.3357199999999999,1.00716,-0.911435655,-0.358214415,-0.199035135
1764511582.910806,-6.80596,0.3357199999999999,1.00716,-0.911435655,-0.358214415,-0.199035135
1764511582.910806,-6.80596,0.3357199999999999,1.00716,-0.911435655,-0.358214415,-0.199035135
1764511582.910806,-6.80596,0.3357199999999999,1.00716,-0.911435655,-0.358214415,-0.199035135
1764511582.910806,-8.19462,1.35814,0.5341,-0.910581165,-0.359435115,-0.199767555
1764511582.910806,-8.19462,1.35814,0.5341,-0.910581165,-0.359435115,-0.199767555
1764511582.910806,-8.19462,1.35814,0.5341,-0.910581165,-0.359435115,-0.199767555
1764511582.910806,-8.19462,1.35814,0.5341,-0.910581165,-0.359435115,-0.199767555
1764511582.910806,-8.19462,1.35814,0.5341,-0.910581165,-0.359435115,-0.199767555
1764511582.910806,-8.19462,1.35814,0.5341,-0.910581165,-0.359435115,-0.199767555
1764511582.9560804,-8.19462,1.35814,0.5341,-0.910581165,-0.359435115,-0.199767555
1764511582.9560804,-8.19462,1.35814,0.5341,-0.910581165,-0.359435115,-0.199767555
1764511582.9560804,-8.19462,1.35814,0.5341,-0.910581165,-0.359435115,-0.199767555
1764511582.9565926,-8.19462,1.35814,0.5341,-0.910581165,-0.359435115,-0.199767555
1764511582.9565926,-6.958559999999999,2.04484,0.09156,-0.9094215,-0.36169341,-0.199523415
1764511582.9565926,-6.958559999999999,2.04484,0.09156,-0.9094215,-0.36169341,-0.199523415
1764511582.9576108,-6.958559999999999,2.04484,0.09156,-0.9094215,-0.36169341,-0.199523415
1764511582.9576108,-6.958559999999999,2.04484,0.09156,-0.9094215,-0.36169341,-0.199523415
1764511582.9576108,-6.958559999999999,2.04484,0.09156,-0.9094215,-0.36169341,-0.199523415
1764511582.9586112,-6.958559999999999,2.04484,0.09156,-0.9094215,-0.36169341,-0.199523415
1764511582.9586112,-6.958559999999999,2.04484,0.09156,-0.9094215,-0.36169341,-0.199523415
1764511582.9586112,-6.958559999999999,2.04484,0.09156,-0.9094215,-0.36169341,-0.199523415
1764511582.9586112,-6.958559999999999,2.04484,0.09156,-0.9094215,-0.36169341,-0.199523415
1764511582.9586112,-6.958559999999999,2.04484,0.09156,-0.9094215,-0.36169341,-0.199523415
1764511582.9586112,-4.92898,2.27374,0.1678599999999999,-0.90881115,-0.36205962,-0.199279275
1764511582.9586112,-4.92898,2.27374,0.1678599999999999,-0.90881115,-0.36205962,-0.199279275
1764511582.9586112,-4.92898,2.27374,0.1678599999999999,-0.90881115,-0.36205962,-0.199279275
1764511582.9586112,-4.92898,2.27374,0.1678599999999999,-0.90881115,-0.36205962,-0.199279275
1764511582.9586112,-4.92898,2.27374,0.1678599999999999,-0.90881115,-0.36205962,-0.199279275
1764511582.959608,-4.92898,2.27374,0.1678599999999999,-0.90881115,-0.36205962,-0.199279275
1764511582.959608,-4.92898,2.27374,0.1678599999999999,-0.90881115,-0.36205962,-0.199279275
1764511582.959608,-4.92898,2.27374,0.1678599999999999,-0.90881115,-0.36205962,-0.199279275
1764511582.959608,-4.92898,2.27374,0.1678599999999999,-0.90881115,-0.36205962,-0.199279275
1764511582.9606097,-4.92898,2.27374,0.1678599999999999,-0.90881115,-0.36205962,-0.199279275
1764511583.0016325,-3.3572,1.32762,0.3509799999999999,-0.911069445,-0.361998585,-0.198058575
1764511583.0016325,-3.3572,1.32762,0.3509799999999999,-0.911069445,-0.361998585,-0.198058575
1764511583.0016325,-3.3572,1.32762,0.3509799999999999,-0.911069445,-0.361998585,-0.198058575
1764511583.0016325,-3.3572,1.32762,0.3509799999999999,-0.911069445,-0.361998585,-0.198058575
1764511583.0016325,-3.3572,1.32762,0.3509799999999999,-0.911069445,-0.361998585,-0.198058575
1764511583.0016325,-3.3572,1.32762,0.3509799999999999,-0.911069445,-0.361998585,-0.198058575
1764511583.0016325,-3.3572,1.32762,0.3509799999999999,-0.911069445,-0.361998585,-0.198058575
1764511583.0016325,-3.3572,1.32762,0.3509799999999999,-0.911069445,-0.361998585,-0.198058575
1764511583.0016325,-3.3572,1.32762,0.3509799999999999,-0.911069445,-0.361998585,-0.198058575
1764511583.0016325,-3.3572,1.32762,0.3509799999999999,-0.911069445,-0.361998585,-0.198058575
1764511583.0016325,-3.47928,1.08346,1.4497,-0.91125255,-0.360411675,-0.19677684
1764511583.0016325,-3.47928,1.08346,1.4497,-0.91125255,-0.360411675,-0.19677684
1764511583.0016325,-3.47928,1.08346,1.4497,-0.91125255,-0.360411675,-0.19677684
1764511583.0016325,-3.47928,1.08346,1.4497,-0.91125255,-0.360411675,-0.19677684
1764511583.0016325,-3.47928,1.08346,1.4497,-0.91125255,-0.360411675,-0.19677684
1764511583.0016325,-3.47928,1.08346,1.4497,-0.91125255,-0.360411675,-0.19677684
1764511583.0016325,-3.47928,1.08346,1.4497,-0.91125255,-0.360411675,-0.19677684
1764511583.0016325,-3.47928,1.08346,1.4497,-0.91125255,-0.360411675,-0.19677684
1764511583.0016325,-3.47928,1.08346,1.4497,-0.91125255,-0.360411675,-0.19677684
1764511583.0016325,-3.47928,1.08346,1.4497,-0.91125255,-0.360411675,-0.19677684
1764511583.0016325,-4.577999999999999,1.4039199999999998,1.25132,-0.9106422,-0.358580625,-0.19714305
1764511583.0016325,-4.577999999999999,1.4039199999999998,1.25132,-0.9106422,-0.358580625,-0.19714305
1764511583.0495567,-4.577999999999999,1.4039199999999998,1.25132,-0.9106422,-0.358580625,-0.19714305
1764511583.0495567,-4.577999999999999,1.4039199999999998,1.25132,-0.9106422,-0.358580625,-0.19714305
1764511583.0495567,-4.577999999999999,1.4039199999999998,1.25132,-0.9106422,-0.358580625,-0.19714305
1764511583.0495567,-4.577999999999999,1.4039199999999998,1.25132,-0.9106422,-0.358580625,-0.19714305
1764511583.0495567,-4.577999999999999,1.4039199999999998,1.25132,-0.9106422,-0.358580625,-0.19714305
1764511583.0495567,-4.577999999999999,1.4039199999999998,1.25132,-0.9106422,-0.358580625,-0.19714305
1764511583.0495567,-4.577999999999999,1.4039199999999998,1.25132,-0.9106422,-0.358580625,-0.19714305
1764511583.0495567,-4.577999999999999,1.4039199999999998,1.25132,-0.9106422,-0.358580625,-0.19714305
1764511583.0495567,-6.958559999999999,1.12924,0.1525999999999999,-0.911557725,-0.356749575,-0.19909617
1764511583.0495567,-6.958559999999999,1.12924,0.1525999999999999,-0.911557725,-0.356749575,-0.19909617
1764511583.0495567,-6.958559999999999,1.12924,0.1525999999999999,-0.911557725,-0.356749575,-0.19909617
1764511583.0495567,-6.958559999999999,1.12924,0.1525999999999999,-0.911557725,-0.356749575,-0.19909617
1764511583.0495567,-6.958559999999999,1.12924,0.1525999999999999,-0.911557725,-0.356749575,-0.19909617
1764511583.0495567,-6.958559999999999,1.12924,0.1525999999999999,-0.911557725,-0.356749575,-0.19909617
1764511583.0495567,-6.958559999999999,1.12924,0.1525999999999999,-0.911557725,-0.356749575,-0.19909617
1764511583.0495567,-6.958559999999999,1.12924,0.1525999999999999,-0.911557725,-0.356749575,-0.19909617
1764511583.0495567,-6.958559999999999,1.12924,0.1525999999999999,-0.911557725,-0.356749575,-0.19909617
1764511583.050806,-6.958559999999999,1.12924,0.1525999999999999,-0.911557725,-0.356749575,-0.19909617
1764511583.0943525,-7.66052,0.50358,-0.59514,-0.912046005,-0.3576651,-0.20190378
1764511583.0943525,-7.66052,0.50358,-0.59514,-0.912046005,-0.3576651,-0.20190378
1764511583.0943525,-7.66052,0.50358,-0.59514,-0.912046005,-0.3576651,-0.20190378
1764511583.0943525,-7.66052,0.50358,-0.59514,-0.912046005,-0.3576651,-0.20190378
1764511583.0943525,-7.66052,0.50358,-0.59514,-0.912046005,-0.3576651,-0.20190378
1764511583.0943525,-7.66052,0.50358,-0.59514,-0.912046005,-0.3576651,-0.20190378
1764511583.0943525,-7.66052,0.50358,-0.59514,-0.912046005,-0.3576651,-0.20190378
1764511583.0943525,-7.66052,0.50358,-0.59514,-0.912046005,-0.3576651,-0.20190378
1764511583.0943525,-7.66052,0.50358,-0.59514,-0.912046005,-0.3576651,-0.20190378
1764511583.0943525,-7.66052,0.50358,-0.59514,-0.912046005,-0.3576651,-0.20190378
1764511583.0943525,-6.47024,1.02242,0.25942,-0.910825305,-0.361022025,-0.202331025
1764511583.0953915,-6.47024,1.02242,0.25942,-0.910825305,-0.361022025,-0.202331025
1764511583.0953915,-6.47024,1.02242,0.25942,-0.910825305,-0.361022025,-0.202331025
1764511583.0953915,-6.47024,1.02242,0.25942,-0.910825305,-0.361022025,-0.202331025
1764511583.0953915,-6.47024,1.02242,0.25942,-0.910825305,-0.361022025,-0.202331025
1764511583.0953915,-6.47024,1.02242,0.25942,-0.910825305,-0.361022025,-0.202331025
1764511583.0953915,-6.47024,1.02242,0.25942,-0.910825305,-0.361022025,-0.202331025
1764511583.0953915,-6.47024,1.02242,0.25942,-0.910825305,-0.361022025,-0.202331025
1764511583.0953915,-6.47024,1.02242,0.25942,-0.910825305,-0.361022025,-0.202331025
1764511583.0953915,-6.47024,1.02242,0.25942,-0.910825305,-0.361022025,-0.202331025
1764511583.0953915,-5.06632,1.6633399999999998,0.9919,-0.909238395,-0.36425688,-0.201110325
1764511583.0953915,-5.06632,1.6633399999999998,0.9919,-0.909238395,-0.36425688,-0.201110325
1764511583.0977938,-5.06632,1.6633399999999998,0.9919,-0.909238395,-0.36425688,-0.201110325
1764511583.0977938,-5.06632,1.6633399999999998,0.9919,-0.909238395,-0.36425688,-0.201110325
1764511583.0977938,-5.06632,1.6633399999999998,0.9919,-0.909238395,-0.36425688,-0.201110325
1764511583.0977938,-5.06632,1.6633399999999998,0.9919,-0.909238395,-0.36425688,-0.201110325
1764511583.0977938,-5.06632,1.6633399999999998,0.9919,-0.909238395,-0.36425688,-0.201110325
1764511583.0977938,-5.06632,1.6633399999999998,0.9919,-0.909238395,-0.36425688,-0.201110325
1764511583.0977938,-5.06632,1.6633399999999998,0.9919,-0.909238395,-0.36425688,-0.201110325
1764511583.0977938,-5.06632,1.6633399999999998,0.9919,-0.909238395,-0.36425688,-0.201110325
1764511583.141401,-3.00622,2.38056,1.05294,-0.907651485,-0.364928265,-0.199157205
1764511583.141401,-3.00622,2.38056,1.05294,-0.907651485,-0.364928265,-0.199157205
1764511583.141401,-3.00622,2.38056,1.05294,-0.907651485,-0.364928265,-0.199157205
1764511583.141401,-3.00622,2.38056,1.05294,-0.907651485,-0.364928265,-0.199157205
1764511583.141401,-3.00622,2.38056,1.05294,-0.907651485,-0.364928265,-0.199157205
1764511583.141401,-3.00622,2.38056,1.05294,-0.907651485,-0.364928265,-0.199157205
1764511583.141401,-3.00622,2.38056,1.05294,-0.907651485,-0.364928265,-0.199157205
1764511583.141401,-3.00622,2.38056,1.05294,-0.907651485,-0.364928265,-0.199157205
1764511583.141401,-3.00622,2.38056,1.05294,-0.907651485,-0.364928265,-0.199157205
1764511583.141401,-3.00622,2.38056,1.05294,-0.907651485,-0.364928265,-0.199157205
1764511583.141401,-2.07536,1.84646,0.50358,-0.90783459,-0.363463425,-0.197814435
1764511583.141401,-2.07536,1.84646,0.50358,-0.90783459,-0.363463425,-0.197814435
1764511583.1426578,-2.07536,1.84646,0.50358,-0.90783459,-0.363463425,-0.197814435
1764511583.1426578,-2.07536,1.84646,0.50358,-0.90783459,-0.363463425,-0.197814435
1764511583.1426578,-2.07536,1.84646,0.50358,-0.90783459,-0.363463425,-0.197814435
1764511583.1426578,-2.07536,1.84646,0.50358,-0.90783459,-0.363463425,-0.197814435
1764511583.1426578,-2.07536,1.84646,0.50358,-0.90783459,-0.363463425,-0.197814435
1764511583.1426578,-2.07536,1.84646,0.50358,-0.90783459,-0.363463425,-0.197814435
1764511583.1426578,-2.07536,1.84646,0.50358,-0.90783459,-0.363463425,-0.197814435
1764511583.1426578,-2.07536,1.84646,0.50358,-0.90783459,-0.363463425,-0.197814435
1764511583.1426578,-2.53316,0.88508,0.19838,-0.9094215,-0.35998443,-0.19836375
1764511583.1426578,-2.53316,0.88508,0.19838,-0.9094215,-0.35998443,-0.19836375
1764511583.1859126,-2.53316,0.88508,0.19838,-0.9094215,-0.35998443,-0.19836375
1764511583.1859126,-2.53316,0.88508,0.19838,-0.9094215,-0.35998443,-0.19836375
1764511583.1859126,-2.53316,0.88508,0.19838,-0.9094215,-0.35998443,-0.19836375
1764511583.1859126,-2.53316,0.88508,0.19838,-0.9094215,-0.35998443,-0.19836375
1764511583.1859126,-2.53316,0.88508,0.19838,-0.9094215,-0.35998443,-0.19836375
1764511583.1864226,-2.53316,0.88508,0.19838,-0.9094215,-0.35998443,-0.19836375
1764511583.1864226,-2.53316,0.88508,0.19838,-0.9094215,-0.35998443,-0.19836375
1764511583.1864226,-2.53316,0.88508,0.19838,-0.9094215,-0.35998443,-0.19836375
1764511583.1864226,-5.40204,1.05294,0.01526,-0.91039806,-0.35510163,-0.19995066
1764511583.1864226,-5.40204,1.05294,0.01526,-0.91039806,-0.35510163,-0.19995066
1764511583.1864226,-5.40204,1.05294,0.01526,-0.91039806,-0.35510163,-0.19995066
1764511583.1864226,-5.40204,1.05294,0.01526,-0.91039806,-0.35510163,-0.19995066
1764511583.1864226,-5.40204,1.05294,0.01526,-0.91039806,-0.35510163,-0.19995066
1764511583.1864226,-5.40204,1.05294,0.01526,-0.91039806,-0.35510163,-0.19995066
1764511583.1864226,-5.40204,1.05294,0.01526,-0.91039806,-0.35510163,-0.19995066
1764511583.1864226,-5.40204,1.05294,0.01526,-0.91039806,-0.35510163,-0.19995066
1764511583.1864226,-5.40204,1.05294,0.01526,-0.91039806,-0.35510163,-0.19995066
1764511583.1864226,-5.40204,1.05294,0.01526,-0.91039806,-0.35510163,-0.19995066
1764511583.1864226,-6.9433,0.97664,-0.04578,-0.910581165,-0.354552315,-0.20165964
1764511583.1864226,-6.9433,0.97664,-0.04578,-0.910581165,-0.354552315,-0.20165964
1764511583.1864226,-6.9433,0.97664,-0.04578,-0.910581165,-0.354552315,-0.20165964
1764511583.1864226,-6.9433,0.97664,-0.04578,-0.910581165,-0.354552315,-0.20165964
1764511583.1864226,-6.9433,0.97664,-0.04578,-0.910581165,-0.354552315,-0.20165964
1764511583.1864226,-6.9433,0.97664,-0.04578,-0.910581165,-0.354552315,-0.20165964
1764511583.2369463,-6.9433,0.97664,-0.04578,-0.910581165,-0.354552315,-0.20165964
1764511583.2369463,-6.9433,0.97664,-0.04578,-0.910581165,-0.354552315,-0.20165964
1764511583.2369463,-6.9433,0.97664,-0.04578,-0.910581165,-0.354552315,-0.20165964
1764511583.2369463,-6.9433,0.97664,-0.04578,-0.910581165,-0.354552315,-0.20165964
1764511583.2369463,-6.790699999999999,1.03768,0.28994,-0.909726675,-0.357237855,-0.20080515
1764511583.2369463,-6.790699999999999,1.03768,0.28994,-0.909726675,-0.357237855,-0.20080515
1764511583.2369463,-6.790699999999999,1.03768,0.28994,-0.909726675,-0.357237855,-0.20080515
1764511583.2369463,-6.790699999999999,1.03768,0.28994,-0.909726675,-0.357237855,-0.20080515
1764511583.2373607,-6.790699999999999,1.03768,0.28994,-0.909726675,-0.357237855,-0.20080515
1764511583.2373607,-6.790699999999999,1.03768,0.28994,-0.909726675,-0.357237855,-0.20080515
1764511583.2373607,-6.790699999999999,1.03768,0.28994,-0.909726675,-0.357237855,-0.20080515
1764511583.2373607,-6.790699999999999,1.03768,0.28994,-0.909726675,-0.357237855,-0.20080515
1764511583.2373607,-6.790699999999999,1.03768,0.28994,-0.909726675,-0.357237855,-0.20080515
1764511583.2373607,-6.790699999999999,1.03768,0.28994,-0.909726675,-0.357237855,-0.20080515
1764511583.2373607,-5.14262,1.3734,0.6714399999999999,-0.90917736,-0.36047271,-0.19970652
1764511583.2373607,-5.14262,1.3734,0.6714399999999999,-0.90917736,-0.36047271,-0.19970652
1764511583.2373607,-5.14262,1.3734,0.6714399999999999,-0.90917736,-0.36047271,-0.19970652
1764511583.2373607,-5.14262,1.3734,0.6714399999999999,-0.90917736,-0.36047271,-0.19970652
1764511583.2379444,-5.14262,1.3734,0.6714399999999999,-0.90917736,-0.36047271,-0.19970652
1764511583.2379444,-5.14262,1.3734,0.6714399999999999,-0.90917736,-0.36047271,-0.19970652
1764511583.2379444,-5.14262,1.3734,0.6714399999999999,-0.90917736,-0.36047271,-0.19970652
1764511583.2379444,-5.14262,1.3734,0.6714399999999999,-0.90917736,-0.36047271,-0.19970652
1764511583.2379444,-5.14262,1.3734,0.6714399999999999,-0.90917736,-0.36047271,-0.19970652
1764511583.2379444,-5.14262,1.3734,0.6714399999999999,-0.90917736,-0.36047271,-0.19970652
1764511583.2813964,-3.55558,1.0682,0.74774,-0.90856701,-0.361632375,-0.199035135
1764511583.2813964,-3.55558,1.0682,0.74774,-0.90856701,-0.361632375,-0.199035135
1764511583.282909,-3.55558,1.0682,0.74774,-0.90856701,-0.361632375,-0.199035135
1764511583.282909,-3.55558,1.0682,0.74774,-0.90856701,-0.361632375,-0.199035135
1764511583.2834413,-3.55558,1.0682,0.74774,-0.90856701,-0.361632375,-0.199035135
1764511583.2834413,-3.55558,1.0682,0.74774,-0.90856701,-0.361632375,-0.199035135
1764511583.284309,-3.55558,1.0682,0.74774,-0.90856701,-0.361632375,-0.199035135
1764511583.284309,-3.55558,1.0682,0.74774,-0.90856701,-0.361632375,-0.199035135
1764511583.284309,-3.55558,1.0682,0.74774,-0.90856701,-0.361632375,-0.199035135
1764511583.284309,-3.55558,1.0682,0.74774,-0.90856701,-0.361632375,-0.199035135
1764511583.284309,-3.37246,0.9919,0.59514,-0.908628045,-0.36144927,-0.19946238
1764511583.284309,-3.37246,0.9919,0.59514,-0.908628045,-0.36144927,-0.19946238
1764511583.2854505,-3.37246,0.9919,0.59514,-0.908628045,-0.36144927,-0.19946238
1764511583.2854505,-3.37246,0.9919,0.59514,-0.908628045,-0.36144927,-0.19946238
1764511583.2854505,-3.37246,0.9919,0.59514,-0.908628045,-0.36144927,-0.19946238
1764511583.2854505,-3.37246,0.9919,0.59514,-0.908628045,-0.36144927,-0.19946238
1764511583.2854505,-3.37246,0.9919,0.59514,-0.908628045,-0.36144927,-0.19946238
1764511583.2854505,-3.37246,0.9919,0.59514,-0.908628045,-0.36144927,-0.19946238
1764511583.2854505,-3.37246,0.9919,0.59514,-0.908628045,-0.36144927,-0.19946238
1764511583.286455,-3.37246,0.9919,0.59514,-0.908628045,-0.36144927,-0.19946238
1764511583.3294356,-3.93708,1.15976,0.01526,-0.90844494,-0.36035064,-0.19970652
1764511583.3309233,-3.93708,1.15976,0.01526,-0.90844494,-0.36035064,-0.19970652
1764511583.3309233,-3.93708,1.15976,0.01526,-0.90844494,-0.36035064,-0.19970652
1764511583.3309233,-3.93708,1.15976,0.01526,-0.90844494,-0.36035064,-0.19970652
1764511583.3309233,-3.93708,1.15976,0.01526,-0.90844494,-0.36035064,-0.19970652
1764511583.3309233,-3.93708,1.15976,0.01526,-0.90844494,-0.36035064,-0.19970652
1764511583.3309233,-3.93708,1.15976,0.01526,-0.90844494,-0.36035064,-0.19970652
1764511583.3309233,-3.93708,1.15976,0.01526,-0.90844494,-0.36035064,-0.19970652
1764511583.3309233,-3.93708,1.15976,0.01526,-0.90844494,-0.36035064,-0.19970652
1764511583.3309233,-3.93708,1.15976,0.01526,-0.90844494,-0.36035064,-0.19970652
1764511583.3309233,-4.22702,0.74774,0.25942,-0.90881115,-0.35851959,-0.20043894
1764511583.3309233,-4.22702,0.74774,0.25942,-0.90881115,-0.35851959,-0.20043894
1764511583.3309233,-4.22702,0.74774,0.25942,-0.90881115,-0.35851959,-0.20043894
1764511583.3309233,-4.22702,0.74774,0.25942,-0.90881115,-0.35851959,-0.20043894
1764511583.3309233,-4.22702,0.74774,0.25942,-0.90881115,-0.35851959,-0.20043894
1764511583.3309233,-4.22702,0.74774,0.25942,-0.90881115,-0.35851959,-0.20043894
1764511583.3309233,-4.22702,0.74774,0.25942,-0.90881115,-0.35851959,-0.20043894
1764511583.3309233,-4.22702,0.74774,0.25942,-0.90881115,-0.35851959,-0.20043894
1764511583.3309233,-4.22702,0.74774,0.25942,-0.90881115,-0.35851959,-0.20043894
1764511583.3309233,-4.22702,0.74774,0.25942,-0.90881115,-0.35851959,-0.20043894
1764511583.3309233,-4.86794,0.82404,0.48832,-0.908139765,-0.357726135,-0.199767555
1764511583.3309233,-4.86794,0.82404,0.48832,-0.908139765,-0.357726135,-0.199767555
1764511583.3309233,-4.86794,0.82404,0.48832,-0.908139765,-0.357726135,-0.199767555
1764511583.3309233,-4.86794,0.82404,0.48832,-0.908139765,-0.357726135,-0.199767555
1764511583.3309233,-4.86794,0.82404,0.48832,-0.908139765,-0.357726135,-0.199767555
1764511583.3309233,-4.86794,0.82404,0.48832,-0.908139765,-0.357726135,-0.199767555
1764511583.3769853,-4.86794,0.82404,0.48832,-0.908139765,-0.357726135,-0.199767555
1764511583.3769853,-4.86794,0.82404,0.48832,-0.908139765,-0.357726135,-0.199767555
1764511583.3769853,-4.86794,0.82404,0.48832,-0.908139765,-0.357726135,-0.199767555
1764511583.3769853,-4.86794,0.82404,0.48832,-0.908139765,-0.357726135,-0.199767555
1764511583.3769853,-5.15788,1.0682,0.48832,-0.908750115,-0.35742096,-0.198913065
1764511583.3769853,-5.15788,1.0682,0.48832,-0.908750115,-0.35742096,-0.198913065
1764511583.3769853,-5.15788,1.0682,0.48832,-0.908750115,-0.35742096,-0.198913065
1764511583.3769853,-5.15788,1.0682,0.48832,-0.908750115,-0.35742096,-0.198913065
1764511583.3769853,-5.15788,1.0682,0.48832,-0.908750115,-0.35742096,-0.198913065
1764511583.3769853,-5.15788,1.0682,0.48832,-0.908750115,-0.35742096,-0.198913065
1764511583.3769853,-5.15788,1.0682,0.48832,-0.908750115,-0.35742096,-0.198913065
1764511583.3769853,-5.15788,1.0682,0.48832,-0.908750115,-0.35742096,-0.198913065
1764511583.3769853,-5.15788,1.0682,0.48832,-0.908750115,-0.35742096,-0.198913065
1764511583.3769853,-5.15788,1.0682,0.48832,-0.908750115,-0.35742096,-0.198913065
1764511583.3769853,-4.54748,1.1445,0.94612,-0.90868908,-0.358702695,-0.19824168
1764511583.3769853,-4.54748,1.1445,0.94612,-0.90868908,-0.358702695,-0.19824168
1764511583.3769853,-4.54748,1.1445,0.94612,-0.90868908,-0.358702695,-0.19824168
1764511583.3769853,-4.54748,1.1445,0.94612,-0.90868908,-0.358702695,-0.19824168
1764511583.3769853,-4.54748,1.1445,0.94612,-0.90868908,-0.358702695,-0.19824168
1764511583.3769853,-4.54748,1.1445,0.94612,-0.90868908,-0.358702695,-0.19824168
1764511583.3769853,-4.54748,1.1445,0.94612,-0.90868908,-0.358702695,-0.19824168
1764511583.3769853,-4.54748,1.1445,0.94612,-0.90868908,-0.358702695,-0.19824168
1764511583.4226964,-4.54748,1.1445,0.94612,-0.90868908,-0.358702695,-0.19824168
1764511583.4226964,-4.54748,1.1445,0.94612,-0.90868908,-0.358702695,-0.19824168
1764511583.4226964,-4.577999999999999,0.9003399999999999,0.41202,-0.909238395,-0.359801325,-0.19750926
1764511583.4232092,-4.577999999999999,0.9003399999999999,0.41202,-0.909238395,-0.359801325,-0.19750926
1764511583.4232092,-4.577999999999999,0.9003399999999999,0.41202,-0.909238395,-0.359801325,-0.19750926
1764511583.4232092,-4.577999999999999,0.9003399999999999,0.41202,-0.909238395,-0.359801325,-0.19750926
1764511583.4232092,-4.577999999999999,0.9003399999999999,0.41202,-0.909238395,-0.359801325,-0.19750926
1764511583.4232092,-4.577999999999999,0.9003399999999999,0.41202,-0.909238395,-0.359801325,-0.19750926
1764511583.4232092,-4.577999999999999,0.9003399999999999,0.41202,-0.909238395,-0.359801325,-0.19750926
1764511583.4232092,-4.577999999999999,0.9003399999999999,0.41202,-0.909238395,-0.359801325,-0.19750926
1764511583.4232092,-4.577999999999999,0.9003399999999999,0.41202,-0.909238395,-0.359801325,-0.19750926
1764511583.4232092,-4.577999999999999,0.9003399999999999,0.41202,-0.909238395,-0.359801325,-0.19750926
1764511583.4232092,-3.41824,1.43444,-0.1678599999999999,-0.90746838,-0.36083892,-0.198790995
1764511583.4232092,-3.41824,1.43444,-0.1678599999999999,-0.90746838,-0.36083892,-0.198790995
1764511583.4232092,-3.41824,1.43444,-0.1678599999999999,-0.90746838,-0.36083892,-0.198790995
1764511583.4232092,-3.41824,1.43444,-0.1678599999999999,-0.90746838,-0.36083892,-0.198790995
1764511583.4232092,-3.41824,1.43444,-0.1678599999999999,-0.90746838,-0.36083892,-0.198790995
1764511583.4232092,-3.41824,1.43444,-0.1678599999999999,-0.90746838,-0.36083892,-0.198790995
1764511583.4232092,-3.41824,1.43444,-0.1678599999999999,-0.90746838,-0.36083892,-0.198790995
1764511583.4232092,-3.41824,1.43444,-0.1678599999999999,-0.90746838,-0.36083892,-0.198790995
1764511583.4232092,-3.41824,1.43444,-0.1678599999999999,-0.90746838,-0.36083892,-0.198790995
1764511583.4232092,-3.41824,1.43444,-0.1678599999999999,-0.90746838,-0.36083892,-0.198790995
1764511583.466297,-2.60946,2.45686,-0.3204599999999999,-0.90893322,-0.36144927,-0.199523415
1764511583.466297,-2.60946,2.45686,-0.3204599999999999,-0.90893322,-0.36144927,-0.199523415
1764511583.466297,-2.60946,2.45686,-0.3204599999999999,-0.90893322,-0.36144927,-0.199523415
1764511583.466297,-2.60946,2.45686,-0.3204599999999999,-0.90893322,-0.36144927,-0.199523415
1764511583.466297,-2.60946,2.45686,-0.3204599999999999,-0.90893322,-0.36144927,-0.199523415
1764511583.466297,-2.60946,2.45686,-0.3204599999999999,-0.90893322,-0.36144927,-0.199523415
1764511583.466297,-2.60946,2.45686,-0.3204599999999999,-0.90893322,-0.36144927,-0.199523415
1764511583.466297,-2.60946,2.45686,-0.3204599999999999,-0.90893322,-0.36144927,-0.199523415
1764511583.466297,-2.60946,2.45686,-0.3204599999999999,-0.90893322,-0.36144927,-0.199523415
1764511583.4675498,-2.60946,2.45686,-0.3204599999999999,-0.90893322,-0.36144927,-0.199523415
1764511583.4675498,-3.55558,0.79352,0.6714399999999999,-0.91088634,-0.36022857,-0.20043894
1764511583.4675498,-3.55558,0.79352,0.6714399999999999,-0.91088634,-0.36022857,-0.20043894
1764511583.4675498,-3.55558,0.79352,0.6714399999999999,-0.91088634,-0.36022857,-0.20043894
1764511583.4675498,-3.55558,0.79352,0.6714399999999999,-0.91088634,-0.36022857,-0.20043894
1764511583.4675498,-3.55558,0.79352,0.6714399999999999,-0.91088634,-0.36022857,-0.20043894
1764511583.4675498,-3.55558,0.79352,0.6714399999999999,-0.91088634,-0.36022857,-0.20043894
1764511583.4675498,-3.55558,0.79352,0.6714399999999999,-0.91088634,-0.36022857,-0.20043894
1764511583.4675498,-3.55558,0.79352,0.6714399999999999,-0.91088634,-0.36022857,-0.20043894
1764511583.4675498,-3.55558,0.79352,0.6714399999999999,-0.91088634,-0.36022857,-0.20043894
1764511583.4675498,-3.55558,0.79352,0.6714399999999999,-0.91088634,-0.36022857,-0.20043894
1764511583.4675498,-3.86078,0.82404,1.25132,-0.909726675,-0.358214415,-0.200011695
1764511583.4675498,-3.86078,0.82404,1.25132,-0.909726675,-0.358214415,-0.200011695
1764511583.4675498,-3.86078,0.82404,1.25132,-0.909726675,-0.358214415,-0.200011695
1764511583.4675498,-3.86078,0.82404,1.25132,-0.909726675,-0.358214415,-0.200011695
1764511583.4675498,-3.86078,0.82404,1.25132,-0.909726675,-0.358214415,-0.200011695
1764511583.4675498,-3.86078,0.82404,1.25132,-0.909726675,-0.358214415,-0.200011695
1764511583.5165596,-3.86078,0.82404,1.25132,-0.909726675,-0.358214415,-0.200011695
1764511583.5165596,-3.86078,0.82404,1.25132,-0.909726675,-0.358214415,-0.200011695
1764511583.5165596,-3.86078,0.82404,1.25132,-0.909726675,-0.358214415,-0.200011695
1764511583.5165596,-3.86078,0.82404,1.25132,-0.909726675,-0.358214415,-0.200011695
1764511583.5165596,-2.39582,1.6022999999999998,0.7019599999999999,-0.90990978,-0.3601065,-0.19885203
1764511583.5165596,-2.39582,1.6022999999999998,0.7019599999999999,-0.90990978,-0.3601065,-0.19885203
1764511583.5165596,-2.39582,1.6022999999999998,0.7019599999999999,-0.90990978,-0.3601065,-0.19885203
1764511583.5165596,-2.39582,1.6022999999999998,0.7019599999999999,-0.90990978,-0.3601065,-0.19885203
1764511583.5165596,-2.39582,1.6022999999999998,0.7019599999999999,-0.90990978,-0.3601065,-0.19885203
1764511583.5165596,-2.39582,1.6022999999999998,0.7019599999999999,-0.90990978,-0.3601065,-0.19885203
1764511583.5165596,-2.39582,1.6022999999999998,0.7019599999999999,-0.90990978,-0.3601065,-0.19885203
1764511583.5165596,-2.39582,1.6022999999999998,0.7019599999999999,-0.90990978,-0.3601065,-0.19885203
1764511583.5175498,-2.39582,1.6022999999999998,0.7019599999999999,-0.90990978,-0.3601065,-0.19885203
1764511583.5175498,-2.39582,1.6022999999999998,0.7019599999999999,-0.90990978,-0.3601065,-0.19885203
1764511583.5175498,-1.95328,1.41918,0.13734,-0.91027599,-0.362608935,-0.19763133
1764511583.5175498,-1.95328,1.41918,0.13734,-0.91027599,-0.362608935,-0.19763133
1764511583.5175498,-1.95328,1.41918,0.13734,-0.91027599,-0.362608935,-0.19763133
1764511583.5175498,-1.95328,1.41918,0.13734,-0.91027599,-0.362608935,-0.19763133
1764511583.5175498,-1.95328,1.41918,0.13734,-0.91027599,-0.362608935,-0.19763133
1764511583.5175498,-1.95328,1.41918,0.13734,-0.91027599,-0.362608935,-0.19763133
1764511583.5175498,-1.95328,1.41918,0.13734,-0.91027599,-0.362608935,-0.19763133
1764511583.5175498,-1.95328,1.41918,0.13734,-0.91027599,-0.362608935,-0.19763133
1764511583.562784,-1.95328,1.41918,0.13734,-0.91027599,-0.362608935,-0.19763133
1764511583.562784,-1.95328,1.41918,0.13734,-0.91027599,-0.362608935,-0.19763133
1764511583.562784,-0.6714399999999999,2.50264,0.13734,-0.908872185,-0.362853075,-0.196959945
1764511583.562784,-0.6714399999999999,2.50264,0.13734,-0.908872185,-0.362853075,-0.196959945
1764511583.562784,-0.6714399999999999,2.50264,0.13734,-0.908872185,-0.362853075,-0.196959945
1764511583.562784,-0.6714399999999999,2.50264,0.13734,-0.908872185,-0.362853075,-0.196959945
1764511583.562784,-0.6714399999999999,2.50264,0.13734,-0.908872185,-0.362853075,-0.196959945
1764511583.562784,-0.6714399999999999,2.50264,0.13734,-0.908872185,-0.362853075,-0.196959945
1764511583.562784,-0.6714399999999999,2.50264,0.13734,-0.908872185,-0.362853075,-0.196959945
1764511583.562784,-0.6714399999999999,2.50264,0.13734,-0.908872185,-0.362853075,-0.196959945
1764511583.562784,-0.6714399999999999,2.50264,0.13734,-0.908872185,-0.362853075,-0.196959945
1764511583.562784,-0.6714399999999999,2.50264,0.13734,-0.908872185,-0.362853075,-0.196959945
1764511583.562784,-1.48022,2.3653,-0.6409199999999999,-0.90856701,-0.36022857,-0.19811961
1764511583.562784,-1.48022,2.3653,-0.6409199999999999,-0.90856701,-0.36022857,-0.19811961
1764511583.562784,-1.48022,2.3653,-0.6409199999999999,-0.90856701,-0.36022857,-0.19811961
1764511583.562784,-1.48022,2.3653,-0.6409199999999999,-0.90856701,-0.36022857,-0.19811961
1764511583.562784,-1.48022,2.3653,-0.6409199999999999,-0.90856701,-0.36022857,-0.19811961
1764511583.562784,-1.48022,2.3653,-0.6409199999999999,-0.90856701,-0.36022857,-0.19811961
1764511583.562784,-1.48022,2.3653,-0.6409199999999999,-0.90856701,-0.36022857,-0.19811961
1764511583.562784,-1.48022,2.3653,-0.6409199999999999,-0.90856701,-0.36022857,-0.19811961
1764511583.6085997,-1.48022,2.3653,-0.6409199999999999,-0.90856701,-0.36022857,-0.19811961
1764511583.6085997,-1.48022,2.3653,-0.6409199999999999,-0.90856701,-0.36022857,-0.19811961
1764511583.6085997,-3.11304,1.1445,0.0762999999999999,-0.91076427,-0.35693268,-0.19958445
1764511583.6085997,-3.11304,1.1445,0.0762999999999999,-0.91076427,-0.35693268,-0.19958445
1764511583.6096177,-3.11304,1.1445,0.0762999999999999,-0.91076427,-0.35693268,-0.19958445
1764511583.6096177,-3.11304,1.1445,0.0762999999999999,-0.91076427,-0.35693268,-0.19958445
1764511583.6096177,-3.11304,1.1445,0.0762999999999999,-0.91076427,-0.35693268,-0.19958445
1764511583.6096177,-3.11304,1.1445,0.0762999999999999,-0.91076427,-0.35693268,-0.19958445
1764511583.6096177,-3.11304,1.1445,0.0762999999999999,-0.91076427,-0.35693268,-0.19958445
1764511583.6096177,-3.11304,1.1445,0.0762999999999999,-0.91076427,-0.35693268,-0.19958445
1764511583.6096177,-3.11304,1.1445,0.0762999999999999,-0.91076427,-0.35693268,-0.19958445
1764511583.6096177,-3.11304,1.1445,0.0762999999999999,-0.91076427,-0.35693268,-0.19958445
1764511583.6096177,-4.76112,0.763,0.88508,-0.911557725,-0.35632233,-0.201110325
1764511583.6096177,-4.76112,0.763,0.88508,-0.911557725,-0.35632233,-0.201110325
1764511583.6096177,-4.76112,0.763,0.88508,-0.911557725,-0.35632233,-0.201110325
1764511583.611611,-4.76112,0.763,0.88508,-0.911557725,-0.35632233,-0.201110325
1764511583.611611,-4.76112,0.763,0.88508,-0.911557725,-0.35632233,-0.201110325
1764511583.611611,-4.76112,0.763,0.88508,-0.911557725,-0.35632233,-0.201110325
1764511583.611611,-4.76112,0.763,0.88508,-0.911557725,-0.35632233,-0.201110325
1764511583.611611,-4.76112,0.763,0.88508,-0.911557725,-0.35632233,-0.201110325
1764511583.611611,-4.76112,0.763,0.88508,-0.911557725,-0.35632233,-0.201110325
1764511583.611611,-4.76112,0.763,0.88508,-0.911557725,-0.35632233,-0.201110325
1764511583.611611,-4.22702,1.02242,0.8392999999999999,-0.909726675,-0.357359925,-0.20007273
1764511583.611611,-4.22702,1.02242,0.8392999999999999,-0.909726675,-0.357359925,-0.20007273
1764511583.611611,-4.22702,1.02242,0.8392999999999999,-0.909726675,-0.357359925,-0.20007273
1764511583.6126084,-4.22702,1.02242,0.8392999999999999,-0.909726675,-0.357359925,-0.20007273
1764511583.6126084,-4.22702,1.02242,0.8392999999999999,-0.909726675,-0.357359925,-0.20007273
1764511583.6126084,-4.22702,1.02242,0.8392999999999999,-0.909726675,-0.357359925,-0.20007273
1764511583.6557174,-4.22702,1.02242,0.8392999999999999,-0.909726675,-0.357359925,-0.20007273
1764511583.6567304,-4.22702,1.02242,0.8392999999999999,-0.909726675,-0.357359925,-0.20007273
1764511583.6567304,-4.22702,1.02242,0.8392999999999999,-0.909726675,-0.357359925,-0.20007273
1764511583.6567304,-4.22702,1.02242,0.8392999999999999,-0.909726675,-0.357359925,-0.20007273
1764511583.6567304,-3.40298,1.89224,0.42728,-0.907773555,-0.361510305,-0.199157205
1764511583.6567304,-3.40298,1.89224,0.42728,-0.907773555,-0.361510305,-0.199157205
1764511583.6567304,-3.40298,1.89224,0.42728,-0.907773555,-0.361510305,-0.199157205
1764511583.6567304,-3.40298,1.89224,0.42728,-0.907773555,-0.361510305,-0.199157205
1764511583.6567304,-3.40298,1.89224,0.42728,-0.907773555,-0.361510305,-0.199157205
1764511583.6567304,-3.40298,1.89224,0.42728,-0.907773555,-0.361510305,-0.199157205
1764511583.6567304,-3.40298,1.89224,0.42728,-0.907773555,-0.361510305,-0.199157205
1764511583.657732,-3.40298,1.89224,0.42728,-0.907773555,-0.361510305,-0.199157205
1764511583.657732,-3.40298,1.89224,0.42728,-0.907773555,-0.361510305,-0.199157205
1764511583.6587875,-3.40298,1.89224,0.42728,-0.907773555,-0.361510305,-0.199157205
1764511583.6587875,-0.79352,2.0601,-0.13734,-0.908383905,-0.364562055,-0.198424785
1764511583.6597817,-0.79352,2.0601,-0.13734,-0.908383905,-0.364562055,-0.198424785
1764511583.6597817,-0.79352,2.0601,-0.13734,-0.908383905,-0.364562055,-0.198424785
1764511583.6597817,-0.79352,2.0601,-0.13734,-0.908383905,-0.364562055,-0.198424785
1764511583.6597817,-0.79352,2.0601,-0.13734,-0.908383905,-0.364562055,-0.198424785
1764511583.6607854,-0.79352,2.0601,-0.13734,-0.908383905,-0.364562055,-0.198424785
1764511583.6607854,-0.79352,2.0601,-0.13734,-0.908383905,-0.364562055,-0.198424785
1764511583.6607854,-0.79352,2.0601,-0.13734,-0.908383905,-0.364562055,-0.198424785
1764511583.7016,-0.79352,2.0601,-0.13734,-0.908383905,-0.364562055,-0.198424785
1764511583.7016,-0.79352,2.0601,-0.13734,-0.908383905,-0.364562055,-0.198424785
1764511583.7016,0.48832,2.01432,-1.4497,-0.910947375,-0.36389067,-0.19848582
1764511583.7016,0.48832,2.01432,-1.4497,-0.910947375,-0.36389067,-0.19848582
1764511583.7016,0.48832,2.01432,-1.4497,-0.910947375,-0.36389067,-0.19848582
1764511583.7016,0.48832,2.01432,-1.4497,-0.910947375,-0.36389067,-0.19848582
1764511583.7016,0.48832,2.01432,-1.4497,-0.910947375,-0.36389067,-0.19848582
1764511583.702601,0.48832,2.01432,-1.4497,-0.910947375,-0.36389067,-0.19848582
1764511583.702601,0.48832,2.01432,-1.4497,-0.910947375,-0.36389067,-0.19848582
1764511583.702601,0.48832,2.01432,-1.4497,-0.910947375,-0.36389067,-0.19848582
1764511583.702601,0.48832,2.01432,-1.4497,-0.910947375,-0.36389067,-0.19848582
1764511583.702601,0.48832,2.01432,-1.4497,-0.910947375,-0.36389067,-0.19848582
1764511583.702601,-0.27468,1.49548,-1.2971,-0.91686777,-0.36291411,-0.199401345
1764511583.702601,-0.27468,1.49548,-1.2971,-0.91686777,-0.36291411,-0.199401345
1764511583.702601,-0.27468,1.49548,-1.2971,-0.91686777,-0.36291411,-0.199401345
1764511583.702601,-0.27468,1.49548,-1.2971,-0.91686777,-0.36291411,-0.199401345
1764511583.702601,-0.27468,1.49548,-1.2971,-0.91686777,-0.36291411,-0.199401345
1764511583.702601,-0.27468,1.49548,-1.2971,-0.91686777,-0.36291411,-0.199401345
1764511583.702601,-0.27468,1.49548,-1.2971,-0.91686777,-0.36291411,-0.199401345
1764511583.702601,-0.27468,1.49548,-1.2971,-0.91686777,-0.36291411,-0.199401345
1764511583.7031102,-0.27468,1.49548,-1.2971,-0.91686777,-0.36291411,-0.199401345
1764511583.7031102,-0.27468,1.49548,-1.2971,-0.91686777,-0.36291411,-0.199401345
1764511583.7031102,-2.27374,1.58704,-0.1678599999999999,-0.91930917,-0.362364795,-0.20031687
1764511583.7031102,-2.27374,1.58704,-0.1678599999999999,-0.91930917,-0.362364795,-0.20031687
1764511583.7501333,-2.27374,1.58704,-0.1678599999999999,-0.91930917,-0.362364795,-0.20031687
1764511583.7501333,-2.27374,1.58704,-0.1678599999999999,-0.91930917,-0.362364795,-0.20031687
1764511583.7501333,-2.27374,1.58704,-0.1678599999999999,-0.91930917,-0.362364795,-0.20031687
1764511583.7501333,-2.27374,1.58704,-0.1678599999999999,-0.91930917,-0.362364795,-0.20031687
1764511583.7501333,-2.27374,1.58704,-0.1678599999999999,-0.91930917,-0.362364795,-0.20031687
1764511583.7501333,-2.27374,1.58704,-0.1678599999999999,-0.91930917,-0.362364795,-0.20031687
1764511583.7501333,-2.27374,1.58704,-0.1678599999999999,-0.91930917,-0.362364795,-0.20031687
1764511583.7501333,-2.27374,1.58704,-0.1678599999999999,-0.91930917,-0.362364795,-0.20031687
1764511583.7501333,-4.31858,0.9156,-1.2971,-0.916684665,-0.36169341,-0.20117136
1764511583.7501333,-4.31858,0.9156,-1.2971,-0.916684665,-0.36169341,-0.20117136
1764511583.7501333,-4.31858,0.9156,-1.2971,-0.916684665,-0.36169341,-0.20117136
1764511583.7501333,-4.31858,0.9156,-1.2971,-0.916684665,-0.36169341,-0.20117136
1764511583.7501333,-4.31858,0.9156,-1.2971,-0.916684665,-0.36169341,-0.20117136
1764511583.7501333,-4.31858,0.9156,-1.2971,-0.916684665,-0.36169341,-0.20117136
1764511583.7501333,-4.31858,0.9156,-1.2971,-0.916684665,-0.36169341,-0.20117136
1764511583.7501333,-4.31858,0.9156,-1.2971,-0.916684665,-0.36169341,-0.20117136
1764511583.7501333,-4.31858,0.9156,-1.2971,-0.916684665,-0.36169341,-0.20117136
1764511583.7501333,-4.31858,0.9156,-1.2971,-0.916684665,-0.36169341,-0.20117136
1764511583.7501333,-3.46402,1.6022999999999998,-3.17408,-0.910092885,-0.362242725,-0.200744115
1764511583.7501333,-3.46402,1.6022999999999998,-3.17408,-0.910092885,-0.362242725,-0.200744115
1764511583.7501333,-3.46402,1.6022999999999998,-3.17408,-0.910092885,-0.362242725,-0.200744115
1764511583.7501333,-3.46402,1.6022999999999998,-3.17408,-0.910092885,-0.362242725,-0.200744115
1764511583.7501333,-3.46402,1.6022999999999998,-3.17408,-0.910092885,-0.362242725,-0.200744115
1764511583.7501333,-3.46402,1.6022999999999998,-3.17408,-0.910092885,-0.362242725,-0.200744115
1764511583.798221,-3.46402,1.6022999999999998,-3.17408,-0.910092885,-0.362242725,-0.200744115
1764511583.798221,-3.46402,1.6022999999999998,-3.17408,-0.910092885,-0.362242725,-0.200744115
1764511583.798221,-3.46402,1.6022999999999998,-3.17408,-0.910092885,-0.362242725,-0.200744115
1764511583.798221,-3.46402,1.6022999999999998,-3.17408,-0.910092885,-0.362242725,-0.200744115
1764511583.798221,-1.43444,1.69386,-3.99812,-0.90807873,-0.36364653,-0.20007273
1764511583.798221,-1.43444,1.69386,-3.99812,-0.90807873,-0.36364653,-0.20007273
1764511583.798221,-1.43444,1.69386,-3.99812,-0.90807873,-0.36364653,-0.20007273
1764511583.798221,-1.43444,1.69386,-3.99812,-0.90807873,-0.36364653,-0.20007273
1764511583.798221,-1.43444,1.69386,-3.99812,-0.90807873,-0.36364653,-0.20007273
1764511583.798221,-1.43444,1.69386,-3.99812,-0.90807873,-0.36364653,-0.20007273
1764511583.798221,-1.43444,1.69386,-3.99812,-0.90807873,-0.36364653,-0.20007273
1764511583.798221,-1.43444,1.69386,-3.99812,-0.90807873,-0.36364653,-0.20007273
1764511583.798221,-1.43444,1.69386,-3.99812,-0.90807873,-0.36364653,-0.20007273
1764511583.798221,-1.43444,1.69386,-3.99812,-0.90807873,-0.36364653,-0.20007273
1764511583.798221,0.50358,0.74774,-1.6022999999999998,-0.90759045,-0.365294475,-0.19824168
1764511583.798221,0.50358,0.74774,-1.6022999999999998,-0.90759045,-0.365294475,-0.19824168
1764511583.798221,0.50358,0.74774,-1.6022999999999998,-0.90759045,-0.365294475,-0.19824168
1764511583.798221,0.50358,0.74774,-1.6022999999999998,-0.90759045,-0.365294475,-0.19824168
1764511583.798221,0.50358,0.74774,-1.6022999999999998,-0.90759045,-0.365294475,-0.19824168
1764511583.798221,0.50358,0.74774,-1.6022999999999998,-0.90759045,-0.365294475,-0.19824168
1764511583.798221,0.50358,0.74774,-1.6022999999999998,-0.90759045,-0.365294475,-0.19824168
1764511583.798221,0.50358,0.74774,-1.6022999999999998,-0.90759045,-0.365294475,-0.19824168
1764511583.798221,0.50358,0.74774,-1.6022999999999998,-0.90759045,-0.365294475,-0.19824168
1764511583.798221,0.50358,0.74774,-1.6022999999999998,-0.90759045,-0.365294475,-0.19824168
1764511583.8428469,0.94612,1.54126,-0.71722,-0.90612561,-0.364928265,-0.19616649
1764511583.8428469,0.94612,1.54126,-0.71722,-0.90612561,-0.364928265,-0.19616649
1764511583.8428469,0.94612,1.54126,-0.71722,-0.90612561,-0.364928265,-0.19616649
1764511583.8428469,0.94612,1.54126,-0.71722,-0.90612561,-0.364928265,-0.19616649
1764511583.8428469,0.94612,1.54126,-0.71722,-0.90612561,-0.364928265,-0.19616649
1764511583.8428469,0.94612,1.54126,-0.71722,-0.90612561,-0.364928265,-0.19616649
1764511583.8428469,0.94612,1.54126,-0.71722,-0.90612561,-0.364928265,-0.19616649
1764511583.8428469,0.94612,1.54126,-0.71722,-0.90612561,-0.364928265,-0.19616649
1764511583.8428469,0.94612,1.54126,-0.71722,-0.90612561,-0.364928265,-0.19616649
1764511583.8428469,0.94612,1.54126,-0.71722,-0.90612561,-0.364928265,-0.19616649
1764511583.8428469,-0.8087799999999999,1.77016,-0.79352,-0.905942505,-0.36083892,-0.19677684
1764511583.8428469,-0.8087799999999999,1.77016,-0.79352,-0.905942505,-0.36083892,-0.19677684
1764511583.8428469,-0.8087799999999999,1.77016,-0.79352,-0.905942505,-0.36083892,-0.19677684
1764511583.8428469,-0.8087799999999999,1.77016,-0.79352,-0.905942505,-0.36083892,-0.19677684
1764511583.8428469,-0.8087799999999999,1.77016,-0.79352,-0.905942505,-0.36083892,-0.19677684
1764511583.8428469,-0.8087799999999999,1.77016,-0.79352,-0.905942505,-0.36083892,-0.19677684
1764511583.8428469,-0.8087799999999999,1.77016,-0.79352,-0.905942505,-0.36083892,-0.19677684
1764511583.8428469,-0.8087799999999999,1.77016,-0.79352,-0.905942505,-0.36083892,-0.19677684
1764511583.8428469,-0.8087799999999999,1.77016,-0.79352,-0.905942505,-0.36083892,-0.19677684
1764511583.8428469,-0.8087799999999999,1.77016,-0.79352,-0.905942505,-0.36083892,-0.19677684
1764511583.8443978,-3.2046,-0.1678599999999999,-0.77826,-0.908750115,-0.357604065,-0.197448225
1764511583.8443978,-3.2046,-0.1678599999999999,-0.77826,-0.908750115,-0.357604065,-0.197448225
1764511583.8443978,-3.2046,-0.1678599999999999,-0.77826,-0.908750115,-0.357604065,-0.197448225
1764511583.8449378,-3.2046,-0.1678599999999999,-0.77826,-0.908750115,-0.357604065,-0.197448225
1764511583.8919563,-3.2046,-0.1678599999999999,-0.77826,-0.908750115,-0.357604065,-0.197448225
1764511583.8919563,-3.2046,-0.1678599999999999,-0.77826,-0.908750115,-0.357604065,-0.197448225
1764511583.8919563,-3.2046,-0.1678599999999999,-0.77826,-0.908750115,-0.357604065,-0.197448225
1764511583.8919563,-3.2046,-0.1678599999999999,-0.77826,-0.908750115,-0.357604065,-0.197448225
1764511583.8919563,-3.2046,-0.1678599999999999,-0.77826,-0.908750115,-0.357604065,-0.197448225
1764511583.8919563,-3.2046,-0.1678599999999999,-0.77826,-0.908750115,-0.357604065,-0.197448225
1764511583.8919563,-6.21082,-0.6714399999999999,-0.5341,-0.9106422,-0.35864166,-0.198424785
1764511583.8919563,-6.21082,-0.6714399999999999,-0.5341,-0.9106422,-0.35864166,-0.198424785
1764511583.893138,-6.21082,-0.6714399999999999,-0.5341,-0.9106422,-0.35864166,-0.198424785
1764511583.893138,-6.21082,-0.6714399999999999,-0.5341,-0.9106422,-0.35864166,-0.198424785
1764511583.893138,-6.21082,-0.6714399999999999,-0.5341,-0.9106422,-0.35864166,-0.198424785
1764511583.893138,-6.21082,-0.6714399999999999,-0.5341,-0.9106422,-0.35864166,-0.198424785
1764511583.893138,-6.21082,-0.6714399999999999,-0.5341,-0.9106422,-0.35864166,-0.198424785
1764511583.893138,-6.21082,-0.6714399999999999,-0.5341,-0.9106422,-0.35864166,-0.198424785
1764511583.893138,-6.21082,-0.6714399999999999,-0.5341,-0.9106422,-0.35864166,-0.198424785
1764511583.8941538,-6.21082,-0.6714399999999999,-0.5341,-0.9106422,-0.35864166,-0.198424785
1764511583.8941538,-6.516019999999999,0.36624,-0.47306,-0.908261835,-0.361876515,-0.1977534
1764511583.8941538,-6.516019999999999,0.36624,-0.47306,-0.908261835,-0.361876515,-0.1977534
1764511583.8941538,-6.516019999999999,0.36624,-0.47306,-0.908261835,-0.361876515,-0.1977534
1764511583.8941538,-6.516019999999999,0.36624,-0.47306,-0.908261835,-0.361876515,-0.1977534
1764511583.8951528,-6.516019999999999,0.36624,-0.47306,-0.908261835,-0.361876515,-0.1977534
1764511583.8951528,-6.516019999999999,0.36624,-0.47306,-0.908261835,-0.361876515,-0.1977534
1764511583.940272,-6.516019999999999,0.36624,-0.47306,-0.908261835,-0.361876515,-0.1977534
1764511583.940272,-6.516019999999999,0.36624,-0.47306,-0.908261835,-0.361876515,-0.1977534
1764511583.940272,-6.516019999999999,0.36624,-0.47306,-0.908261835,-0.361876515,-0.1977534
1764511583.940272,-6.516019999999999,0.36624,-0.47306,-0.908261835,-0.361876515,-0.1977534
1764511583.940272,-4.92898,1.8312,-0.3204599999999999,-0.90588147,-0.36706449,-0.19580028
1764511583.940272,-4.92898,1.8312,-0.3204599999999999,-0.90588147,-0.36706449,-0.19580028
1764511583.940272,-4.92898,1.8312,-0.3204599999999999,-0.90588147,-0.36706449,-0.19580028
1764511583.940272,-4.92898,1.8312,-0.3204599999999999,-0.90588147,-0.36706449,-0.19580028
1764511583.940272,-4.92898,1.8312,-0.3204599999999999,-0.90588147,-0.36706449,-0.19580028
1764511583.941275,-4.92898,1.8312,-0.3204599999999999,-0.90588147,-0.36706449,-0.19580028
1764511583.941275,-4.92898,1.8312,-0.3204599999999999,-0.90588147,-0.36706449,-0.19580028
1764511583.941275,-4.92898,1.8312,-0.3204599999999999,-0.90588147,-0.36706449,-0.19580028
1764511583.941275,-4.92898,1.8312,-0.3204599999999999,-0.90588147,-0.36706449,-0.19580028
1764511583.941275,-4.92898,1.8312,-0.3204599999999999,-0.90588147,-0.36706449,-0.19580028
1764511583.941275,-1.51074,1.17502,-1.2055399999999998,-0.90588147,-0.371153835,-0.1940913
1764511583.941275,-1.51074,1.17502,-1.2055399999999998,-0.90588147,-0.371153835,-0.1940913
1764511583.941275,-1.51074,1.17502,-1.2055399999999998,-0.90588147,-0.371153835,-0.1940913
1764511583.941275,-1.51074,1.17502,-1.2055399999999998,-0.90588147,-0.371153835,-0.1940913
1764511583.941275,-1.51074,1.17502,-1.2055399999999998,-0.90588147,-0.371153835,-0.1940913
1764511583.941275,-1.51074,1.17502,-1.2055399999999998,-0.90588147,-0.371153835,-0.1940913
1764511583.941275,-1.51074,1.17502,-1.2055399999999998,-0.90588147,-0.371153835,-0.1940913
1764511583.941275,-1.51074,1.17502,-1.2055399999999998,-0.90588147,-0.371153835,-0.1940913
1764511583.9845035,-1.51074,1.17502,-1.2055399999999998,-0.90588147,-0.371153835,-0.1940913
1764511583.9845035,-1.51074,1.17502,-1.2055399999999998,-0.90588147,-0.371153835,-0.1940913
1764511583.9845035,0.24416,0.74774,-0.3357199999999999,-0.906186645,-0.36962796,-0.193419915
1764511583.9845035,0.24416,0.74774,-0.3357199999999999,-0.906186645,-0.36962796,-0.193419915
1764511583.9845035,0.24416,0.74774,-0.3357199999999999,-0.906186645,-0.36962796,-0.193419915
1764511583.9845035,0.24416,0.74774,-0.3357199999999999,-0.906186645,-0.36962796,-0.193419915
1764511583.9845035,0.24416,0.74774,-0.3357199999999999,-0.906186645,-0.36962796,-0.193419915
1764511583.9845035,0.24416,0.74774,-0.3357199999999999,-0.906186645,-0.36962796,-0.193419915
1764511583.9845035,0.24416,0.74774,-0.3357199999999999,-0.906186645,-0.36962796,-0.193419915
1764511583.9845035,0.24416,0.74774,-0.3357199999999999,-0.906186645,-0.36962796,-0.193419915
1764511583.9860196,0.24416,0.74774,-0.3357199999999999,-0.906186645,-0.36962796,-0.193419915
1764511583.9860196,0.24416,0.74774,-0.3357199999999999,-0.906186645,-0.36962796,-0.193419915
1764511583.9860196,-0.56462,0.6409199999999999,0.36624,-0.906919065,-0.36523344,-0.19421337
1764511583.9860196,-0.56462,0.6409199999999999,0.36624,-0.906919065,-0.36523344,-0.19421337
1764511583.9860196,-0.56462,0.6409199999999999,0.36624,-0.906919065,-0.36523344,-0.19421337
1764511583.9860196,-0.56462,0.6409199999999999,0.36624,-0.906919065,-0.36523344,-0.19421337
1764511583.9860196,-0.56462,0.6409199999999999,0.36624,-0.906919065,-0.36523344,-0.19421337
1764511583.9860196,-0.56462,0.6409199999999999,0.36624,-0.906919065,-0.36523344,-0.19421337
1764511583.9860196,-0.56462,0.6409199999999999,0.36624,-0.906919065,-0.36523344,-0.19421337
1764511583.9860196,-0.56462,0.6409199999999999,0.36624,-0.906919065,-0.36523344,-0.19421337
1764511583.9860196,-0.56462,0.6409199999999999,0.36624,-0.906919065,-0.36523344,-0.19421337
1764511583.9860196,-0.56462,0.6409199999999999,0.36624,-0.906919065,-0.36523344,-0.19421337
1764511583.9860196,-2.9757,0.73248,0.74774,-0.907041135,-0.361998585,-0.19433544
1764511583.98704,-2.9757,0.73248,0.74774,-0.907041135,-0.361998585,-0.19433544
1764511583.98704,-2.9757,0.73248,0.74774,-0.907041135,-0.361998585,-0.19433544
1764511583.98704,-2.9757,0.73248,0.74774,-0.907041135,-0.361998585,-0.19433544
1764511584.0308323,-2.9757,0.73248,0.74774,-0.907041135,-0.361998585,-0.19433544
1764511584.0308323,-2.9757,0.73248,0.74774,-0.907041135,-0.361998585,-0.19433544
1764511584.0308323,-2.9757,0.73248,0.74774,-0.907041135,-0.361998585,-0.19433544
1764511584.0308323,-2.9757,0.73248,0.74774,-0.907041135,-0.361998585,-0.19433544
1764511584.0308323,-2.9757,0.73248,0.74774,-0.907041135,-0.361998585,-0.19433544
1764511584.0308323,-2.9757,0.73248,0.74774,-0.907041135,-0.361998585,-0.19433544
1764511584.0308323,-4.94424,0.77826,0.57988,-0.907163205,-0.36096099,-0.194152335
1764511584.0308323,-4.94424,0.77826,0.57988,-0.907163205,-0.36096099,-0.194152335
1764511584.0308323,-4.94424,0.77826,0.57988,-0.907163205,-0.36096099,-0.194152335
1764511584.0308323,-4.94424,0.77826,0.57988,-0.907163205,-0.36096099,-0.194152335
1764511584.0308323,-4.94424,0.77826,0.57988,-0.907163205,-0.36096099,-0.194152335
1764511584.0308323,-4.94424,0.77826,0.57988,-0.907163205,-0.36096099,-0.194152335
1764511584.0308323,-4.94424,0.77826,0.57988,-0.907163205,-0.36096099,-0.194152335
1764511584.0308323,-4.94424,0.77826,0.57988,-0.907163205,-0.36096099,-0.194152335
1764511584.0308323,-4.94424,0.77826,0.57988,-0.907163205,-0.36096099,-0.194152335
1764511584.0308323,-4.94424,0.77826,0.57988,-0.907163205,-0.36096099,-0.194152335
1764511584.0308323,-4.91372,0.3051999999999999,-0.12208,-0.907285275,-0.362853075,-0.194274405
1764511584.0308323,-4.91372,0.3051999999999999,-0.12208,-0.907285275,-0.362853075,-0.194274405
1764511584.031841,-4.91372,0.3051999999999999,-0.12208,-0.907285275,-0.362853075,-0.194274405
1764511584.031841,-4.91372,0.3051999999999999,-0.12208,-0.907285275,-0.362853075,-0.194274405
1764511584.031841,-4.91372,0.3051999999999999,-0.12208,-0.907285275,-0.362853075,-0.194274405
1764511584.031841,-4.91372,0.3051999999999999,-0.12208,-0.907285275,-0.362853075,-0.194274405
1764511584.0799024,-4.91372,0.3051999999999999,-0.12208,-0.907285275,-0.362853075,-0.194274405
1764511584.0799024,-4.91372,0.3051999999999999,-0.12208,-0.907285275,-0.362853075,-0.194274405
1764511584.080769,-4.91372,0.3051999999999999,-0.12208,-0.907285275,-0.362853075,-0.194274405
1764511584.080769,-4.91372,0.3051999999999999,-0.12208,-0.907285275,-0.362853075,-0.194274405
1764511584.080769,-4.0439,0.9919,0.42728,-0.906308715,-0.365538615,-0.193908195
1764511584.080769,-4.0439,0.9919,0.42728,-0.906308715,-0.365538615,-0.193908195
1764511584.080769,-4.0439,0.9919,0.42728,-0.906308715,-0.365538615,-0.193908195
1764511584.0817668,-4.0439,0.9919,0.42728,-0.906308715,-0.365538615,-0.193908195
1764511584.0817668,-4.0439,0.9919,0.42728,-0.906308715,-0.365538615,-0.193908195
1764511584.0817668,-4.0439,0.9919,0.42728,-0.906308715,-0.365538615,-0.193908195
1764511584.0817668,-4.0439,0.9919,0.42728,-0.906308715,-0.365538615,-0.193908195
1764511584.0817668,-4.0439,0.9919,0.42728,-0.906308715,-0.365538615,-0.193908195
1764511584.082769,-4.0439,0.9919,0.42728,-0.906308715,-0.365538615,-0.193908195
1764511584.082769,-4.0439,0.9919,0.42728,-0.906308715,-0.365538615,-0.193908195
1764511584.082769,-2.8231,1.3734,0.39676,-0.905576295,-0.367125525,-0.19250439
1764511584.0832782,-2.8231,1.3734,0.39676,-0.905576295,-0.367125525,-0.19250439
1764511584.0832782,-2.8231,1.3734,0.39676,-0.905576295,-0.367125525,-0.19250439
1764511584.0832782,-2.8231,1.3734,0.39676,-0.905576295,-0.367125525,-0.19250439
1764511584.0832782,-2.8231,1.3734,0.39676,-0.905576295,-0.367125525,-0.19250439
1764511584.0832782,-2.8231,1.3734,0.39676,-0.905576295,-0.367125525,-0.19250439
1764511584.0832782,-2.8231,1.3734,0.39676,-0.905576295,-0.367125525,-0.19250439
1764511584.0842898,-2.8231,1.3734,0.39676,-0.905576295,-0.367125525,-0.19250439
1764511584.0842898,-2.8231,1.3734,0.39676,-0.905576295,-0.367125525,-0.19250439
1764511584.0842898,-2.8231,1.3734,0.39676,-0.905576295,-0.367125525,-0.19250439
1764511584.127133,-2.24322,1.89224,0.73248,-0.90514905,-0.36779691,-0.19152783
1764511584.127133,-2.24322,1.89224,0.73248,-0.90514905,-0.36779691,-0.19152783
1764511584.127133,-2.24322,1.89224,0.73248,-0.90514905,-0.36779691,-0.19152783
1764511584.127133,-2.24322,1.89224,0.73248,-0.90514905,-0.36779691,-0.19152783
1764511584.127133,-2.24322,1.89224,0.73248,-0.90514905,-0.36779691,-0.19152783
1764511584.1276968,-2.24322,1.89224,0.73248,-0.90514905,-0.36779691,-0.19152783
1764511584.1276968,-2.24322,1.89224,0.73248,-0.90514905,-0.36779691,-0.19152783
1764511584.1276968,-2.24322,1.89224,0.73248,-0.90514905,-0.36779691,-0.19152783
1764511584.1276968,-2.24322,1.89224,0.73248,-0.90514905,-0.36779691,-0.19152783
1764511584.1276968,-2.24322,1.89224,0.73248,-0.90514905,-0.36779691,-0.19152783
1764511584.1276968,-3.92182,1.61756,0.8087799999999999,-0.905576295,-0.365172405,-0.19213818
1764511584.1276968,-3.92182,1.61756,0.8087799999999999,-0.905576295,-0.365172405,-0.19213818
1764511584.1276968,-3.92182,1.61756,0.8087799999999999,-0.905576295,-0.365172405,-0.19213818
1764511584.1276968,-3.92182,1.61756,0.8087799999999999,-0.905576295,-0.365172405,-0.19213818
1764511584.1276968,-3.92182,1.61756,0.8087799999999999,-0.905576295,-0.365172405,-0.19213818
1764511584.1276968,-3.92182,1.61756,0.8087799999999999,-0.905576295,-0.365172405,-0.19213818
1764511584.1276968,-3.92182,1.61756,0.8087799999999999,-0.905576295,-0.365172405,-0.19213818
1764511584.1276968,-3.92182,1.61756,0.8087799999999999,-0.905576295,-0.365172405,-0.19213818
1764511584.1276968,-3.92182,1.61756,0.8087799999999999,-0.905576295,-0.365172405,-0.19213818
1764511584.1276968,-3.92182,1.61756,0.8087799999999999,-0.905576295,-0.365172405,-0.19213818
1764511584.1276968,-5.27996,0.59514,0.93086,-0.90649182,-0.36193755,-0.192931635
1764511584.1276968,-5.27996,0.59514,0.93086,-0.90649182,-0.36193755,-0.192931635
1764511584.1276968,-5.27996,0.59514,0.93086,-0.90649182,-0.36193755,-0.192931635
1764511584.1276968,-5.27996,0.59514,0.93086,-0.90649182,-0.36193755,-0.192931635
1764511584.1757174,-5.27996,0.59514,0.93086,-0.90649182,-0.36193755,-0.192931635
1764511584.1757174,-5.27996,0.59514,0.93086,-0.90649182,-0.36193755,-0.192931635
1764511584.1757174,-5.27996,0.59514,0.93086,-0.90649182,-0.36193755,-0.192931635
1764511584.1757174,-5.27996,0.59514,0.93086,-0.90649182,-0.36193755,-0.192931635
1764511584.1757174,-5.27996,0.59514,0.93086,-0.90649182,-0.36193755,-0.192931635
1764511584.1757174,-5.27996,0.59514,0.93086,-0.90649182,-0.36193755,-0.192931635
1764511584.1757174,-6.302379999999999,0.62566,1.0682,-0.906919065,-0.3613272,-0.19396923
1764511584.1757174,-6.302379999999999,0.62566,1.0682,-0.906919065,-0.3613272,-0.19396923
1764511584.1757174,-6.302379999999999,0.62566,1.0682,-0.906919065,-0.3613272,-0.19396923
1764511584.1757174,-6.302379999999999,0.62566,1.0682,-0.906919065,-0.3613272,-0.19396923
1764511584.176721,-6.302379999999999,0.62566,1.0682,-0.906919065,-0.3613272,-0.19396923
1764511584.176721,-6.302379999999999,0.62566,1.0682,-0.906919065,-0.3613272,-0.19396923
1764511584.176721,-6.302379999999999,0.62566,1.0682,-0.906919065,-0.3613272,-0.19396923
1764511584.176721,-6.302379999999999,0.62566,1.0682,-0.906919065,-0.3613272,-0.19396923
1764511584.176721,-6.302379999999999,0.62566,1.0682,-0.906919065,-0.3613272,-0.19396923
1764511584.176721,-6.302379999999999,0.62566,1.0682,-0.906919065,-0.3613272,-0.19396923
1764511584.176721,-5.997179999999999,1.7549,0.82404,-0.906186645,-0.363341355,-0.19518993
1764511584.176721,-5.997179999999999,1.7549,0.82404,-0.906186645,-0.363341355,-0.19518993
1764511584.176721,-5.997179999999999,1.7549,0.82404,-0.906186645,-0.363341355,-0.19518993
1764511584.176721,-5.997179999999999,1.7549,0.82404,-0.906186645,-0.363341355,-0.19518993
1764511584.176721,-5.997179999999999,1.7549,0.82404,-0.906186645,-0.363341355,-0.19518993
1764511584.176721,-5.997179999999999,1.7549,0.82404,-0.906186645,-0.363341355,-0.19518993
1764511584.22015,-5.997179999999999,1.7549,0.82404,-0.906186645,-0.363341355,-0.19518993
1764511584.22015,-5.997179999999999,1.7549,0.82404,-0.906186645,-0.363341355,-0.19518993
1764511584.22015,-5.997179999999999,1.7549,0.82404,-0.906186645,-0.363341355,-0.19518993
1764511584.22015,-5.997179999999999,1.7549,0.82404,-0.906186645,-0.363341355,-0.19518993
1764511584.22015,-5.52412,2.19744,0.88508,-0.905576295,-0.364684125,-0.196349595
1764511584.22015,-5.52412,2.19744,0.88508,-0.905576295,-0.364684125,-0.196349595
1764511584.22015,-5.52412,2.19744,0.88508,-0.905576295,-0.364684125,-0.196349595
1764511584.2216885,-5.52412,2.19744,0.88508,-0.905576295,-0.364684125,-0.196349595
1764511584.2216885,-5.52412,2.19744,0.88508,-0.905576295,-0.364684125,-0.196349595
1764511584.2216885,-5.52412,2.19744,0.88508,-0.905576295,-0.364684125,-0.196349595
1764511584.2216885,-5.52412,2.19744,0.88508,-0.905576295,-0.364684125,-0.196349595
1764511584.2230718,-5.52412,2.19744,0.88508,-0.905576295,-0.364684125,-0.196349595
1764511584.2230718,-5.52412,2.19744,0.88508,-0.905576295,-0.364684125,-0.196349595
1764511584.2230718,-5.52412,2.19744,0.88508,-0.905576295,-0.364684125,-0.196349595
1764511584.2230718,-3.9676,1.93802,1.02242,-0.906308715,-0.36547758,-0.19567821
1764511584.2230718,-3.9676,1.93802,1.02242,-0.906308715,-0.36547758,-0.19567821
1764511584.2230718,-3.9676,1.93802,1.02242,-0.906308715,-0.36547758,-0.19567821
1764511584.2240212,-3.9676,1.93802,1.02242,-0.906308715,-0.36547758,-0.19567821
1764511584.2240212,-3.9676,1.93802,1.02242,-0.906308715,-0.36547758,-0.19567821
1764511584.2240212,-3.9676,1.93802,1.02242,-0.906308715,-0.36547758,-0.19567821
1764511584.2240212,-3.9676,1.93802,1.02242,-0.906308715,-0.36547758,-0.19567821
1764511584.2240212,-3.9676,1.93802,1.02242,-0.906308715,-0.36547758,-0.19567821
1764511584.2240212,-3.9676,1.93802,1.02242,-0.906308715,-0.36547758,-0.19567821
1764511584.2250252,-3.9676,1.93802,1.02242,-0.906308715,-0.36547758,-0.19567821
1764511584.2250252,-3.31142,1.99906,1.17502,-0.90746838,-0.366026895,-0.19470165
1764511584.2250252,-3.31142,1.99906,1.17502,-0.90746838,-0.366026895,-0.19470165
1764511584.268376,-3.31142,1.99906,1.17502,-0.90746838,-0.366026895,-0.19470165
1764511584.268376,-3.31142,1.99906,1.17502,-0.90746838,-0.366026895,-0.19470165
1764511584.268376,-3.31142,1.99906,1.17502,-0.90746838,-0.366026895,-0.19470165
1764511584.268376,-3.31142,1.99906,1.17502,-0.90746838,-0.366026895,-0.19470165
1764511584.268376,-3.31142,1.99906,1.17502,-0.90746838,-0.366026895,-0.19470165
1764511584.268376,-3.31142,1.99906,1.17502,-0.90746838,-0.366026895,-0.19470165
1764511584.268376,-3.31142,1.99906,1.17502,-0.90746838,-0.366026895,-0.19470165
1764511584.268376,-3.31142,1.99906,1.17502,-0.90746838,-0.366026895,-0.19470165
1764511584.268376,-3.5861,1.78542,0.9919,-0.90929943,-0.36669828,-0.19494579
1764511584.268376,-3.5861,1.78542,0.9919,-0.90929943,-0.36669828,-0.19494579
1764511584.268376,-3.5861,1.78542,0.9919,-0.90929943,-0.36669828,-0.19494579
1764511584.268376,-3.5861,1.78542,0.9919,-0.90929943,-0.36669828,-0.19494579
1764511584.268376,-3.5861,1.78542,0.9919,-0.90929943,-0.36669828,-0.19494579
1764511584.268376,-3.5861,1.78542,0.9919,-0.90929943,-0.36669828,-0.19494579
1764511584.268376,-3.5861,1.78542,0.9919,-0.90929943,-0.36669828,-0.19494579
1764511584.268376,-3.5861,1.78542,0.9919,-0.90929943,-0.36669828,-0.19494579
1764511584.268376,-3.5861,1.78542,0.9919,-0.90929943,-0.36669828,-0.19494579
1764511584.268376,-3.5861,1.78542,0.9919,-0.90929943,-0.36669828,-0.19494579
1764511584.268376,-5.55464,1.38866,1.73964,-0.90990978,-0.36462309,-0.19580028
1764511584.2693875,-5.55464,1.38866,1.73964,-0.90990978,-0.36462309,-0.19580028
1764511584.2693875,-5.55464,1.38866,1.73964,-0.90990978,-0.36462309,-0.19580028
1764511584.2693875,-5.55464,1.38866,1.73964,-0.90990978,-0.36462309,-0.19580028
1764511584.3134072,-5.55464,1.38866,1.73964,-0.90990978,-0.36462309,-0.19580028
1764511584.3139508,-5.55464,1.38866,1.73964,-0.90990978,-0.36462309,-0.19580028
1764511584.3139508,-5.55464,1.38866,1.73964,-0.90990978,-0.36462309,-0.19580028
1764511584.3139508,-5.55464,1.38866,1.73964,-0.90990978,-0.36462309,-0.19580028
1764511584.3139508,-5.55464,1.38866,1.73964,-0.90990978,-0.36462309,-0.19580028
1764511584.3139508,-5.55464,1.38866,1.73964,-0.90990978,-0.36462309,-0.19580028
1764511584.3139508,-5.508859999999999,1.46496,0.97664,-0.908139765,-0.36266997,-0.195617175
1764511584.3139508,-5.508859999999999,1.46496,0.97664,-0.908139765,-0.36266997,-0.195617175
1764511584.3139508,-5.508859999999999,1.46496,0.97664,-0.908139765,-0.36266997,-0.195617175
1764511584.3139508,-5.508859999999999,1.46496,0.97664,-0.908139765,-0.36266997,-0.195617175
1764511584.3139508,-5.508859999999999,1.46496,0.97664,-0.908139765,-0.36266997,-0.195617175
1764511584.3139508,-5.508859999999999,1.46496,0.97664,-0.908139765,-0.36266997,-0.195617175
1764511584.3139508,-5.508859999999999,1.46496,0.97664,-0.908139765,-0.36266997,-0.195617175
1764511584.3139508,-5.508859999999999,1.46496,0.97664,-0.908139765,-0.36266997,-0.195617175
1764511584.3139508,-5.508859999999999,1.46496,0.97664,-0.908139765,-0.36266997,-0.195617175
1764511584.3139508,-5.508859999999999,1.46496,0.97664,-0.908139765,-0.36266997,-0.195617175
1764511584.3139508,-4.56274,1.9075,0.04578,-0.908383905,-0.363951705,-0.19433544
1764511584.3139508,-4.56274,1.9075,0.04578,-0.908383905,-0.363951705,-0.19433544
1764511584.3139508,-4.56274,1.9075,0.04578,-0.908383905,-0.363951705,-0.19433544
1764511584.3139508,-4.56274,1.9075,0.04578,-0.908383905,-0.363951705,-0.19433544
1764511584.3139508,-4.56274,1.9075,0.04578,-0.908383905,-0.363951705,-0.19433544
1764511584.3139508,-4.56274,1.9075,0.04578,-0.908383905,-0.363951705,-0.19433544
1764511584.3576674,-4.56274,1.9075,0.04578,-0.908383905,-0.363951705,-0.19433544
1764511584.3586824,-4.56274,1.9075,0.04578,-0.908383905,-0.363951705,-0.19433544
1764511584.3586824,-4.56274,1.9075,0.04578,-0.908383905,-0.363951705,-0.19433544
1764511584.359687,-4.56274,1.9075,0.04578,-0.908383905,-0.363951705,-0.19433544
1764511584.359687,-4.1202,1.3734,1.41918,-0.90966564,-0.36584379,-0.193419915
1764511584.359687,-4.1202,1.3734,1.41918,-0.90966564,-0.36584379,-0.193419915
1764511584.359687,-4.1202,1.3734,1.41918,-0.90966564,-0.36584379,-0.193419915
1764511584.359687,-4.1202,1.3734,1.41918,-0.90966564,-0.36584379,-0.193419915
1764511584.359687,-4.1202,1.3734,1.41918,-0.90966564,-0.36584379,-0.193419915
1764511584.359687,-4.1202,1.3734,1.41918,-0.90966564,-0.36584379,-0.193419915
1764511584.359687,-4.1202,1.3734,1.41918,-0.90966564,-0.36584379,-0.193419915
1764511584.359687,-4.1202,1.3734,1.41918,-0.90966564,-0.36584379,-0.193419915
1764511584.359687,-4.1202,1.3734,1.41918,-0.90966564,-0.36584379,-0.193419915
1764511584.359687,-4.1202,1.3734,1.41918,-0.90966564,-0.36584379,-0.193419915
1764511584.359687,-3.55558,2.12114,0.9919,-0.90722424,-0.36535551,-0.19360302
1764511584.359687,-3.55558,2.12114,0.9919,-0.90722424,-0.36535551,-0.19360302
1764511584.359687,-3.55558,2.12114,0.9919,-0.90722424,-0.36535551,-0.19360302
1764511584.359687,-3.55558,2.12114,0.9919,-0.90722424,-0.36535551,-0.19360302
1764511584.359687,-3.55558,2.12114,0.9919,-0.90722424,-0.36535551,-0.19360302
1764511584.359687,-3.55558,2.12114,0.9919,-0.90722424,-0.36535551,-0.19360302
1764511584.359687,-3.55558,2.12114,0.9919,-0.90722424,-0.36535551,-0.19360302
1764511584.359687,-3.55558,2.12114,0.9919,-0.90722424,-0.36535551,-0.19360302
1764511584.3606815,-3.55558,2.12114,0.9919,-0.90722424,-0.36535551,-0.19360302
1764511584.3606815,-3.55558,2.12114,0.9919,-0.90722424,-0.36535551,-0.19360302
1764511584.4044702,-4.22702,2.56368,-0.2289,-0.908383905,-0.362120655,-0.19580028
1764511584.4044702,-4.22702,2.56368,-0.2289,-0.908383905,-0.362120655,-0.19580028
1764511584.4044702,-4.22702,2.56368,-0.2289,-0.908383905,-0.362120655,-0.19580028
1764511584.4044702,-4.22702,2.56368,-0.2289,-0.908383905,-0.362120655,-0.19580028
1764511584.4044702,-4.22702,2.56368,-0.2289,-0.908383905,-0.362120655,-0.19580028
1764511584.4044702,-4.22702,2.56368,-0.2289,-0.908383905,-0.362120655,-0.19580028
1764511584.4044702,-4.22702,2.56368,-0.2289,-0.908383905,-0.362120655,-0.19580028
1764511584.4044702,-4.22702,2.56368,-0.2289,-0.908383905,-0.362120655,-0.19580028
1764511584.4044702,-4.22702,2.56368,-0.2289,-0.908383905,-0.362120655,-0.19580028
1764511584.4044702,-4.22702,2.56368,-0.2289,-0.908383905,-0.362120655,-0.19580028
1764511584.4044702,-4.8832,1.0682,0.39676,-0.909848745,-0.361754445,-0.198180645
1764511584.4044702,-4.8832,1.0682,0.39676,-0.909848745,-0.361754445,-0.198180645
1764511584.406003,-4.8832,1.0682,0.39676,-0.909848745,-0.361754445,-0.198180645
1764511584.406003,-4.8832,1.0682,0.39676,-0.909848745,-0.361754445,-0.198180645
1764511584.406003,-4.8832,1.0682,0.39676,-0.909848745,-0.361754445,-0.198180645
1764511584.406003,-4.8832,1.0682,0.39676,-0.909848745,-0.361754445,-0.198180645
1764511584.406003,-4.8832,1.0682,0.39676,-0.909848745,-0.361754445,-0.198180645
1764511584.406003,-4.8832,1.0682,0.39676,-0.909848745,-0.361754445,-0.198180645
1764511584.406003,-4.8832,1.0682,0.39676,-0.909848745,-0.361754445,-0.198180645
1764511584.406003,-4.8832,1.0682,0.39676,-0.909848745,-0.361754445,-0.198180645
1764511584.4075134,-5.27996,0.9003399999999999,0.62566,-0.91015392,-0.362486865,-0.199157205
1764511584.4075134,-5.27996,0.9003399999999999,0.62566,-0.91015392,-0.362486865,-0.199157205
1764511584.4075134,-5.27996,0.9003399999999999,0.62566,-0.91015392,-0.362486865,-0.199157205
1764511584.4075134,-5.27996,0.9003399999999999,0.62566,-0.91015392,-0.362486865,-0.199157205
1764511584.4517658,-5.27996,0.9003399999999999,0.62566,-0.91015392,-0.362486865,-0.199157205
1764511584.4517658,-5.27996,0.9003399999999999,0.62566,-0.91015392,-0.362486865,-0.199157205
1764511584.4517658,-5.27996,0.9003399999999999,0.62566,-0.91015392,-0.362486865,-0.199157205
1764511584.4517658,-5.27996,0.9003399999999999,0.62566,-0.91015392,-0.362486865,-0.199157205
1764511584.4517658,-5.27996,0.9003399999999999,0.62566,-0.91015392,-0.362486865,-0.199157205
1764511584.4517658,-5.27996,0.9003399999999999,0.62566,-0.91015392,-0.362486865,-0.199157205
1764511584.4517658,-4.47118,1.41918,0.54936,-0.91027599,-0.3649893,-0.197936505
1764511584.4517658,-4.47118,1.41918,0.54936,-0.91027599,-0.3649893,-0.197936505
1764511584.4522724,-4.47118,1.41918,0.54936,-0.91027599,-0.3649893,-0.197936505
1764511584.4522724,-4.47118,1.41918,0.54936,-0.91027599,-0.3649893,-0.197936505
1764511584.4522724,-4.47118,1.41918,0.54936,-0.91027599,-0.3649893,-0.197936505
1764511584.4522724,-4.47118,1.41918,0.54936,-0.91027599,-0.3649893,-0.197936505
1764511584.4522724,-4.47118,1.41918,0.54936,-0.91027599,-0.3649893,-0.197936505
1764511584.4522724,-4.47118,1.41918,0.54936,-0.91027599,-0.3649893,-0.197936505
1764511584.452814,-4.47118,1.41918,0.54936,-0.91027599,-0.3649893,-0.197936505
1764511584.452814,-4.47118,1.41918,0.54936,-0.91027599,-0.3649893,-0.197936505
1764511584.452814,-3.44876,2.38056,0.54936,-0.908383905,-0.367735875,-0.19677684
1764511584.452814,-3.44876,2.38056,0.54936,-0.908383905,-0.367735875,-0.19677684
1764511584.452814,-3.44876,2.38056,0.54936,-0.908383905,-0.367735875,-0.19677684
1764511584.452814,-3.44876,2.38056,0.54936,-0.908383905,-0.367735875,-0.19677684
1764511584.4538293,-3.44876,2.38056,0.54936,-0.908383905,-0.367735875,-0.19677684
1764511584.454836,-3.44876,2.38056,0.54936,-0.908383905,-0.367735875,-0.19677684
1764511584.454836,-3.44876,2.38056,0.54936,-0.908383905,-0.367735875,-0.19677684
1764511584.454836,-3.44876,2.38056,0.54936,-0.908383905,-0.367735875,-0.19677684
1764511584.5015683,-3.44876,2.38056,0.54936,-0.908383905,-0.367735875,-0.19677684
1764511584.5015683,-3.44876,2.38056,0.54936,-0.908383905,-0.367735875,-0.19677684
1764511584.5015683,-1.43444,1.72438,0.42728,-0.908383905,-0.36791898,-0.195983385
1764511584.5015683,-1.43444,1.72438,0.42728,-0.908383905,-0.36791898,-0.195983385
1764511584.5015683,-1.43444,1.72438,0.42728,-0.908383905,-0.36791898,-0.195983385
1764511584.5031064,-1.43444,1.72438,0.42728,-0.908383905,-0.36791898,-0.195983385
1764511584.5031064,-1.43444,1.72438,0.42728,-0.908383905,-0.36791898,-0.195983385
1764511584.5041168,-1.43444,1.72438,0.42728,-0.908383905,-0.36791898,-0.195983385
1764511584.5041168,-1.43444,1.72438,0.42728,-0.908383905,-0.36791898,-0.195983385
1764511584.505128,-1.43444,1.72438,0.42728,-0.908383905,-0.36791898,-0.195983385
1764511584.505128,-1.43444,1.72438,0.42728,-0.908383905,-0.36791898,-0.195983385
1764511584.505128,-1.43444,1.72438,0.42728,-0.908383905,-0.36791898,-0.195983385
1764511584.505128,-1.86172,1.15976,0.10682,-0.90929943,-0.36474516,-0.19677684
1764511584.505128,-1.86172,1.15976,0.10682,-0.90929943,-0.36474516,-0.19677684
1764511584.505128,-1.86172,1.15976,0.10682,-0.90929943,-0.36474516,-0.19677684
1764511584.505128,-1.86172,1.15976,0.10682,-0.90929943,-0.36474516,-0.19677684
1764511584.505128,-1.86172,1.15976,0.10682,-0.90929943,-0.36474516,-0.19677684
1764511584.505128,-1.86172,1.15976,0.10682,-0.90929943,-0.36474516,-0.19677684
1764511584.505128,-1.86172,1.15976,0.10682,-0.90929943,-0.36474516,-0.19677684
1764511584.505128,-1.86172,1.15976,0.10682,-0.90929943,-0.36474516,-0.19677684
1764511584.505128,-1.86172,1.15976,0.10682,-0.90929943,-0.36474516,-0.19677684
1764511584.505128,-1.86172,1.15976,0.10682,-0.90929943,-0.36474516,-0.19677684
1764511584.548206,-4.33384,1.02242,0.42728,-0.91039806,-0.36218169,-0.19714305
1764511584.548206,-4.33384,1.02242,0.42728,-0.91039806,-0.36218169,-0.19714305
1764511584.548206,-4.33384,1.02242,0.42728,-0.91039806,-0.36218169,-0.19714305
1764511584.548206,-4.33384,1.02242,0.42728,-0.91039806,-0.36218169,-0.19714305
1764511584.548206,-4.33384,1.02242,0.42728,-0.91039806,-0.36218169,-0.19714305
1764511584.549217,-4.33384,1.02242,0.42728,-0.91039806,-0.36218169,-0.19714305
1764511584.549217,-4.33384,1.02242,0.42728,-0.91039806,-0.36218169,-0.19714305
1764511584.549217,-4.33384,1.02242,0.42728,-0.91039806,-0.36218169,-0.19714305
1764511584.549217,-4.33384,1.02242,0.42728,-0.91039806,-0.36218169,-0.19714305
1764511584.549217,-4.33384,1.02242,0.42728,-0.91039806,-0.36218169,-0.19714305
1764511584.5502324,-5.24944,1.15976,0.8392999999999999,-0.909604605,-0.36266997,-0.197204085
1764511584.5502324,-5.24944,1.15976,0.8392999999999999,-0.909604605,-0.36266997,-0.197204085
1764511584.5502324,-5.24944,1.15976,0.8392999999999999,-0.909604605,-0.36266997,-0.197204085
1764511584.5502324,-5.24944,1.15976,0.8392999999999999,-0.909604605,-0.36266997,-0.197204085
1764511584.5502324,-5.24944,1.15976,0.8392999999999999,-0.909604605,-0.36266997,-0.197204085
1764511584.5512252,-5.24944,1.15976,0.8392999999999999,-0.909604605,-0.36266997,-0.197204085
1764511584.5512252,-5.24944,1.15976,0.8392999999999999,-0.909604605,-0.36266997,-0.197204085
1764511584.5512252,-5.24944,1.15976,0.8392999999999999,-0.909604605,-0.36266997,-0.197204085
1764511584.5512252,-5.24944,1.15976,0.8392999999999999,-0.909604605,-0.36266997,-0.197204085
1764511584.5512252,-5.24944,1.15976,0.8392999999999999,-0.909604605,-0.36266997,-0.197204085
1764511584.5512252,-4.577999999999999,1.31236,0.4578,-0.907529415,-0.36364653,-0.196959945
1764511584.5512252,-4.577999999999999,1.31236,0.4578,-0.907529415,-0.36364653,-0.196959945
1764511584.5512252,-4.577999999999999,1.31236,0.4578,-0.907529415,-0.36364653,-0.196959945
1764511584.5512252,-4.577999999999999,1.31236,0.4578,-0.907529415,-0.36364653,-0.196959945
1764511584.594708,-4.577999999999999,1.31236,0.4578,-0.907529415,-0.36364653,-0.196959945
1764511584.594708,-4.577999999999999,1.31236,0.4578,-0.907529415,-0.36364653,-0.196959945
1764511584.594708,-4.577999999999999,1.31236,0.4578,-0.907529415,-0.36364653,-0.196959945
1764511584.594708,-4.577999999999999,1.31236,0.4578,-0.907529415,-0.36364653,-0.196959945
1764511584.594708,-4.577999999999999,1.31236,0.4578,-0.907529415,-0.36364653,-0.196959945
1764511584.594708,-4.577999999999999,1.31236,0.4578,-0.907529415,-0.36364653,-0.196959945
1764511584.594708,-3.23512,2.10588,0.763,-0.90722424,-0.36413481,-0.19628856
1764511584.595724,-3.23512,2.10588,0.763,-0.90722424,-0.36413481,-0.19628856
1764511584.595724,-3.23512,2.10588,0.763,-0.90722424,-0.36413481,-0.19628856
1764511584.595724,-3.23512,2.10588,0.763,-0.90722424,-0.36413481,-0.19628856
1764511584.595724,-3.23512,2.10588,0.763,-0.90722424,-0.36413481,-0.19628856
1764511584.595724,-3.23512,2.10588,0.763,-0.90722424,-0.36413481,-0.19628856
1764511584.595724,-3.23512,2.10588,0.763,-0.90722424,-0.36413481,-0.19628856
1764511584.595724,-3.23512,2.10588,0.763,-0.90722424,-0.36413481,-0.19628856
1764511584.595724,-3.23512,2.10588,0.763,-0.90722424,-0.36413481,-0.19628856
1764511584.595724,-3.23512,2.10588,0.763,-0.90722424,-0.36413481,-0.19628856
1764511584.595724,-2.62472,1.25132,0.47306,-0.909482535,-0.36425688,-0.195250965
1764511584.595724,-2.62472,1.25132,0.47306,-0.909482535,-0.36425688,-0.195250965
1764511584.595724,-2.62472,1.25132,0.47306,-0.909482535,-0.36425688,-0.195250965
1764511584.595724,-2.62472,1.25132,0.47306,-0.909482535,-0.36425688,-0.195250965
1764511584.595724,-2.62472,1.25132,0.47306,-0.909482535,-0.36425688,-0.195250965
1764511584.595724,-2.62472,1.25132,0.47306,-0.909482535,-0.36425688,-0.195250965
1764511584.641359,-2.62472,1.25132,0.47306,-0.909482535,-0.36425688,-0.195250965
1764511584.641359,-2.62472,1.25132,0.47306,-0.909482535,-0.36425688,-0.195250965
1764511584.641359,-2.62472,1.25132,0.47306,-0.909482535,-0.36425688,-0.195250965
1764511584.641359,-2.62472,1.25132,0.47306,-0.909482535,-0.36425688,-0.195250965
1764511584.641359,-3.34194,1.11398,1.17502,-0.910337025,-0.364073775,-0.193786125
1764511584.641359,-3.34194,1.11398,1.17502,-0.910337025,-0.364073775,-0.193786125
1764511584.641359,-3.34194,1.11398,1.17502,-0.910337025,-0.364073775,-0.193786125
1764511584.641359,-3.34194,1.11398,1.17502,-0.910337025,-0.364073775,-0.193786125
1764511584.641359,-3.34194,1.11398,1.17502,-0.910337025,-0.364073775,-0.193786125
1764511584.641359,-3.34194,1.11398,1.17502,-0.910337025,-0.364073775,-0.193786125
1764511584.641359,-3.34194,1.11398,1.17502,-0.910337025,-0.364073775,-0.193786125
1764511584.641359,-3.34194,1.11398,1.17502,-0.910337025,-0.364073775,-0.193786125
1764511584.641359,-3.34194,1.11398,1.17502,-0.910337025,-0.364073775,-0.193786125
1764511584.641359,-3.34194,1.11398,1.17502,-0.910337025,-0.364073775,-0.193786125
