Timestamp,GyroX,GyroY,GyroZ,AccX,AccY,AccZ
1764511894.0738018,-1.1445,3.815,0.50358,0.36328032,0.817563825,-0.44616585
1764511894.0738018,-1.1445,3.815,0.50358,0.36328032,0.817563825,-0.44616585
1764511894.0738018,-1.1445,3.815,0.50358,0.36328032,0.817563825,-0.44616585
1764511894.0738018,-1.1445,3.815,0.50358,0.36328032,0.817563825,-0.44616585
1764511894.0738018,-1.1445,3.815,0.50358,0.36328032,0.817563825,-0.44616585
1764511894.0738018,-1.35814,3.41824,0.36624,0.362242725,0.8168314050000001,-0.445982745
1764511894.0738018,-1.35814,3.41824,0.36624,0.362242725,0.8168314050000001,-0.445982745
1764511894.0738018,-1.35814,3.41824,0.36624,0.362242725,0.8168314050000001,-0.445982745
1764511894.0738018,-1.35814,3.41824,0.36624,0.362242725,0.8168314050000001,-0.445982745
1764511894.0738018,-1.35814,3.41824,0.36624,0.362242725,0.8168314050000001,-0.445982745
1764511894.0738018,-1.35814,3.41824,0.36624,0.362242725,0.8168314050000001,-0.445982745
1764511894.0738018,-1.35814,3.41824,0.36624,0.362242725,0.8168314050000001,-0.445982745
1764511894.0738018,-1.35814,3.41824,0.36624,0.362242725,0.8168314050000001,-0.445982745
1764511894.0738018,-1.35814,3.41824,0.36624,0.362242725,0.8168314050000001,-0.445982745
1764511894.0738018,-1.35814,3.41824,0.36624,0.362242725,0.8168314050000001,-0.445982745
1764511894.0738018,-1.1445,3.5861,0.42728,0.362608935,0.816709335,-0.445006185
1764511894.0738018,-1.1445,3.5861,0.42728,0.362608935,0.816709335,-0.445006185
1764511894.0738018,-1.1445,3.5861,0.42728,0.362608935,0.816709335,-0.445006185
1764511894.0738018,-1.1445,3.5861,0.42728,0.362608935,0.816709335,-0.445006185
1764511894.0738018,-1.1445,3.5861,0.42728,0.362608935,0.816709335,-0.445006185
1764511894.0738018,-1.1445,3.5861,0.42728,0.362608935,0.816709335,-0.445006185
1764511894.1235623,-1.1445,3.5861,0.42728,0.362608935,0.816709335,-0.445006185
1764511894.1235623,-1.1445,3.5861,0.42728,0.362608935,0.816709335,-0.445006185
1764511894.1235623,-1.1445,3.5861,0.42728,0.362608935,0.816709335,-0.445006185
1764511894.1235623,-1.1445,3.5861,0.42728,0.362608935,0.816709335,-0.445006185
1764511894.1235623,-0.85456,3.72344,0.5341,0.3637686,0.81884556,-0.44409066
1764511894.1235623,-0.85456,3.72344,0.5341,0.3637686,0.81884556,-0.44409066
1764511894.1235623,-0.85456,3.72344,0.5341,0.3637686,0.81884556,-0.44409066
1764511894.1235623,-0.85456,3.72344,0.5341,0.3637686,0.81884556,-0.44409066
1764511894.1235623,-0.85456,3.72344,0.5341,0.3637686,0.81884556,-0.44409066
1764511894.1235623,-0.85456,3.72344,0.5341,0.3637686,0.81884556,-0.44409066
1764511894.1235623,-0.85456,3.72344,0.5341,0.3637686,0.81884556,-0.44409066
1764511894.1235623,-0.85456,3.72344,0.5341,0.3637686,0.81884556,-0.44409066
1764511894.1235623,-0.85456,3.72344,0.5341,0.3637686,0.81884556,-0.44409066
1764511894.1235623,-0.85456,3.72344,0.5341,0.3637686,0.81884556,-0.44409066
1764511894.1235623,-0.56462,3.5098,0.85456,0.36413481,0.81884556,-0.44396859
1764511894.1235623,-0.56462,3.5098,0.85456,0.36413481,0.81884556,-0.44396859
1764511894.1235623,-0.56462,3.5098,0.85456,0.36413481,0.81884556,-0.44396859
1764511894.1235623,-0.56462,3.5098,0.85456,0.36413481,0.81884556,-0.44396859
1764511894.1235623,-0.56462,3.5098,0.85456,0.36413481,0.81884556,-0.44396859
1764511894.1235623,-0.56462,3.5098,0.85456,0.36413481,0.81884556,-0.44396859
1764511894.1235623,-0.56462,3.5098,0.85456,0.36413481,0.81884556,-0.44396859
1764511894.1235623,-0.56462,3.5098,0.85456,0.36413481,0.81884556,-0.44396859
1764511894.1235623,-0.56462,3.5098,0.85456,0.36413481,0.81884556,-0.44396859
1764511894.1235623,-0.56462,3.5098,0.85456,0.36413481,0.81884556,-0.44396859
1764511894.1235623,0.0762999999999999,3.54032,0.42728,0.36389067,0.818784525,-0.444395835
1764511894.1251063,0.0762999999999999,3.54032,0.42728,0.36389067,0.818784525,-0.444395835
1764511894.1701283,0.0762999999999999,3.54032,0.42728,0.36389067,0.818784525,-0.444395835
1764511894.1701283,0.0762999999999999,3.54032,0.42728,0.36389067,0.818784525,-0.444395835
1764511894.1701283,0.0762999999999999,3.54032,0.42728,0.36389067,0.818784525,-0.444395835
1764511894.1701283,0.0762999999999999,3.54032,0.42728,0.36389067,0.818784525,-0.444395835
1764511894.1701283,0.0762999999999999,3.54032,0.42728,0.36389067,0.818784525,-0.444395835
1764511894.1711128,0.0762999999999999,3.54032,0.42728,0.36389067,0.818784525,-0.444395835
1764511894.1711128,0.0762999999999999,3.54032,0.42728,0.36389067,0.818784525,-0.444395835
1764511894.1711128,0.0762999999999999,3.54032,0.42728,0.36389067,0.818784525,-0.444395835
1764511894.1711128,0.763,4.1965,-0.03052,0.363097215,0.81847935,-0.445006185
1764511894.1711128,0.763,4.1965,-0.03052,0.363097215,0.81847935,-0.445006185
1764511894.1711128,0.763,4.1965,-0.03052,0.363097215,0.81847935,-0.445006185
1764511894.1711128,0.763,4.1965,-0.03052,0.363097215,0.81847935,-0.445006185
1764511894.1711128,0.763,4.1965,-0.03052,0.363097215,0.81847935,-0.445006185
1764511894.1711128,0.763,4.1965,-0.03052,0.363097215,0.81847935,-0.445006185
1764511894.1711128,0.763,4.1965,-0.03052,0.363097215,0.81847935,-0.445006185
1764511894.1711128,0.763,4.1965,-0.03052,0.363097215,0.81847935,-0.445006185
1764511894.1711128,0.763,4.1965,-0.03052,0.363097215,0.81847935,-0.445006185
1764511894.1711128,0.763,4.1965,-0.03052,0.363097215,0.81847935,-0.445006185
1764511894.1711128,-0.39676,4.02864,0.1678599999999999,0.36266997,0.818662455,-0.44604378
1764511894.1711128,-0.39676,4.02864,0.1678599999999999,0.36266997,0.818662455,-0.44604378
1764511894.1711128,-0.39676,4.02864,0.1678599999999999,0.36266997,0.818662455,-0.44604378
1764511894.1711128,-0.39676,4.02864,0.1678599999999999,0.36266997,0.818662455,-0.44604378
1764511894.2142644,-0.39676,4.02864,0.1678599999999999,0.36266997,0.818662455,-0.44604378
1764511894.2142644,-0.39676,4.02864,0.1678599999999999,0.36266997,0.818662455,-0.44604378
1764511894.2142644,-0.39676,4.02864,0.1678599999999999,0.36266997,0.818662455,-0.44604378
1764511894.2142644,-0.39676,4.02864,0.1678599999999999,0.36266997,0.818662455,-0.44604378
1764511894.2142644,-0.39676,4.02864,0.1678599999999999,0.36266997,0.818662455,-0.44604378
1764511894.2142644,-0.39676,4.02864,0.1678599999999999,0.36266997,0.818662455,-0.44604378
1764511894.2142644,-1.19028,3.60136,0.57988,0.363341355,0.818784525,-0.44702034
1764511894.2142644,-1.19028,3.60136,0.57988,0.363341355,0.818784525,-0.44702034
1764511894.2142644,-1.19028,3.60136,0.57988,0.363341355,0.818784525,-0.44702034
1764511894.2142644,-1.19028,3.60136,0.57988,0.363341355,0.818784525,-0.44702034
1764511894.2142644,-1.19028,3.60136,0.57988,0.363341355,0.818784525,-0.44702034
1764511894.2142644,-1.19028,3.60136,0.57988,0.363341355,0.818784525,-0.44702034
1764511894.2142644,-1.19028,3.60136,0.57988,0.363341355,0.818784525,-0.44702034
1764511894.2142644,-1.19028,3.60136,0.57988,0.363341355,0.818784525,-0.44702034
1764511894.2142644,-1.19028,3.60136,0.57988,0.363341355,0.818784525,-0.44702034
1764511894.2142644,-1.19028,3.60136,0.57988,0.363341355,0.818784525,-0.44702034
1764511894.2153077,-0.9919,3.76922,0.48832,0.36364653,0.817197615,-0.446593095
1764511894.2153077,-0.9919,3.76922,0.48832,0.36364653,0.817197615,-0.446593095
1764511894.2153077,-0.9919,3.76922,0.48832,0.36364653,0.817197615,-0.446593095
1764511894.2153077,-0.9919,3.76922,0.48832,0.36364653,0.817197615,-0.446593095
1764511894.2153077,-0.9919,3.76922,0.48832,0.36364653,0.817197615,-0.446593095
1764511894.2153077,-0.9919,3.76922,0.48832,0.36364653,0.817197615,-0.446593095
1764511894.2599444,-0.9919,3.76922,0.48832,0.36364653,0.817197615,-0.446593095
1764511894.2599444,-0.9919,3.76922,0.48832,0.36364653,0.817197615,-0.446593095
1764511894.2599444,-0.9919,3.76922,0.48832,0.36364653,0.817197615,-0.446593095
1764511894.2599444,-0.9919,3.76922,0.48832,0.36364653,0.817197615,-0.446593095
1764511894.2599444,-0.10682,3.6624,0.3204599999999999,0.363097215,0.815854845,-0.44604378
1764511894.2599444,-0.10682,3.6624,0.3204599999999999,0.363097215,0.815854845,-0.44604378
1764511894.2599444,-0.10682,3.6624,0.3204599999999999,0.363097215,0.815854845,-0.44604378
1764511894.2599444,-0.10682,3.6624,0.3204599999999999,0.363097215,0.815854845,-0.44604378
1764511894.2609727,-0.10682,3.6624,0.3204599999999999,0.363097215,0.815854845,-0.44604378
1764511894.2609727,-0.10682,3.6624,0.3204599999999999,0.363097215,0.815854845,-0.44604378
1764511894.2619755,-0.10682,3.6624,0.3204599999999999,0.363097215,0.815854845,-0.44604378
1764511894.2619755,-0.10682,3.6624,0.3204599999999999,0.363097215,0.815854845,-0.44604378
1764511894.2619755,-0.10682,3.6624,0.3204599999999999,0.363097215,0.815854845,-0.44604378
1764511894.2619755,-0.10682,3.6624,0.3204599999999999,0.363097215,0.815854845,-0.44604378
1764511894.2619755,1.05294,3.84552,0.25942,0.36315825,0.816221055,-0.445494465
1764511894.2629814,1.05294,3.84552,0.25942,0.36315825,0.816221055,-0.445494465
1764511894.2629814,1.05294,3.84552,0.25942,0.36315825,0.816221055,-0.445494465
1764511894.2629814,1.05294,3.84552,0.25942,0.36315825,0.816221055,-0.445494465
1764511894.2629814,1.05294,3.84552,0.25942,0.36315825,0.816221055,-0.445494465
1764511894.2629814,1.05294,3.84552,0.25942,0.36315825,0.816221055,-0.445494465
1764511894.2639835,1.05294,3.84552,0.25942,0.36315825,0.816221055,-0.445494465
1764511894.2639835,1.05294,3.84552,0.25942,0.36315825,0.816221055,-0.445494465
1764511894.2639835,1.05294,3.84552,0.25942,0.36315825,0.816221055,-0.445494465
1764511894.2639835,1.05294,3.84552,0.25942,0.36315825,0.816221055,-0.445494465
1764511894.3089466,0.09156,4.22702,-0.0762999999999999,0.364073775,0.819028665,-0.44543343
1764511894.3089466,0.09156,4.22702,-0.0762999999999999,0.364073775,0.819028665,-0.44543343
1764511894.3089466,0.09156,4.22702,-0.0762999999999999,0.364073775,0.819028665,-0.44543343
1764511894.3089466,0.09156,4.22702,-0.0762999999999999,0.364073775,0.819028665,-0.44543343
1764511894.3089466,0.09156,4.22702,-0.0762999999999999,0.364073775,0.819028665,-0.44543343
1764511894.3089466,0.09156,4.22702,-0.0762999999999999,0.364073775,0.819028665,-0.44543343
1764511894.3089466,0.09156,4.22702,-0.0762999999999999,0.364073775,0.819028665,-0.44543343
1764511894.3089466,0.09156,4.22702,-0.0762999999999999,0.364073775,0.819028665,-0.44543343
1764511894.3089466,0.09156,4.22702,-0.0762999999999999,0.364073775,0.819028665,-0.44543343
1764511894.309976,0.09156,4.22702,-0.0762999999999999,0.364073775,0.819028665,-0.44543343
1764511894.309976,-0.24416,3.60136,0.3357199999999999,0.36266997,0.820127295,-0.44506722
1764511894.309976,-0.24416,3.60136,0.3357199999999999,0.36266997,0.820127295,-0.44506722
1764511894.309976,-0.24416,3.60136,0.3357199999999999,0.36266997,0.820127295,-0.44506722
1764511894.309976,-0.24416,3.60136,0.3357199999999999,0.36266997,0.820127295,-0.44506722
1764511894.309976,-0.24416,3.60136,0.3357199999999999,0.36266997,0.820127295,-0.44506722
1764511894.309976,-0.24416,3.60136,0.3357199999999999,0.36266997,0.820127295,-0.44506722
1764511894.309976,-0.24416,3.60136,0.3357199999999999,0.36266997,0.820127295,-0.44506722
1764511894.309976,-0.24416,3.60136,0.3357199999999999,0.36266997,0.820127295,-0.44506722
1764511894.309976,-0.24416,3.60136,0.3357199999999999,0.36266997,0.820127295,-0.44506722
1764511894.309976,-0.24416,3.60136,0.3357199999999999,0.36266997,0.820127295,-0.44506722
1764511894.309976,0.28994,3.4335,0.51884,0.361754445,0.81860142,-0.4455555
1764511894.309976,0.28994,3.4335,0.51884,0.361754445,0.81860142,-0.4455555
1764511894.309976,0.28994,3.4335,0.51884,0.361754445,0.81860142,-0.4455555
1764511894.309976,0.28994,3.4335,0.51884,0.361754445,0.81860142,-0.4455555
1764511894.355962,0.28994,3.4335,0.51884,0.361754445,0.81860142,-0.4455555
1764511894.355962,0.28994,3.4335,0.51884,0.361754445,0.81860142,-0.4455555
1764511894.355962,0.28994,3.4335,0.51884,0.361754445,0.81860142,-0.4455555
1764511894.3569784,0.28994,3.4335,0.51884,0.361754445,0.81860142,-0.4455555
1764511894.3569784,0.28994,3.4335,0.51884,0.361754445,0.81860142,-0.4455555
1764511894.3569784,0.28994,3.4335,0.51884,0.361754445,0.81860142,-0.4455555
1764511894.3569784,0.28994,4.47118,0.06104,0.36364653,0.819028665,-0.446104815
1764511894.3569784,0.28994,4.47118,0.06104,0.36364653,0.819028665,-0.446104815
1764511894.3569784,0.28994,4.47118,0.06104,0.36364653,0.819028665,-0.446104815
1764511894.3569784,0.28994,4.47118,0.06104,0.36364653,0.819028665,-0.446104815
1764511894.3569784,0.28994,4.47118,0.06104,0.36364653,0.819028665,-0.446104815
1764511894.3569784,0.28994,4.47118,0.06104,0.36364653,0.819028665,-0.446104815
1764511894.3569784,0.28994,4.47118,0.06104,0.36364653,0.819028665,-0.446104815
1764511894.3569784,0.28994,4.47118,0.06104,0.36364653,0.819028665,-0.446104815
1764511894.3569784,0.28994,4.47118,0.06104,0.36364653,0.819028665,-0.446104815
1764511894.3569784,0.28994,4.47118,0.06104,0.36364653,0.819028665,-0.446104815
1764511894.357992,-0.01526,3.4335,0.57988,0.36279204,0.81921177,-0.444884115
1764511894.357992,-0.01526,3.4335,0.57988,0.36279204,0.81921177,-0.444884115
1764511894.357992,-0.01526,3.4335,0.57988,0.36279204,0.81921177,-0.444884115
1764511894.357992,-0.01526,3.4335,0.57988,0.36279204,0.81921177,-0.444884115
1764511894.357992,-0.01526,3.4335,0.57988,0.36279204,0.81921177,-0.444884115
1764511894.357992,-0.01526,3.4335,0.57988,0.36279204,0.81921177,-0.444884115
1764511894.357992,-0.01526,3.4335,0.57988,0.36279204,0.81921177,-0.444884115
1764511894.357992,-0.01526,3.4335,0.57988,0.36279204,0.81921177,-0.444884115
1764511894.4009202,-0.01526,3.4335,0.57988,0.36279204,0.81921177,-0.444884115
1764511894.4014666,-0.01526,3.4335,0.57988,0.36279204,0.81921177,-0.444884115
1764511894.4014666,0.50358,3.49454,0.2289,0.36266997,0.81750279,-0.446104815
1764511894.4014666,0.50358,3.49454,0.2289,0.36266997,0.81750279,-0.446104815
1764511894.4014666,0.50358,3.49454,0.2289,0.36266997,0.81750279,-0.446104815
1764511894.4014666,0.50358,3.49454,0.2289,0.36266997,0.81750279,-0.446104815
1764511894.4014666,0.50358,3.49454,0.2289,0.36266997,0.81750279,-0.446104815
1764511894.4014666,0.50358,3.49454,0.2289,0.36266997,0.81750279,-0.446104815
1764511894.4014666,0.50358,3.49454,0.2289,0.36266997,0.81750279,-0.446104815
1764511894.4014666,0.50358,3.49454,0.2289,0.36266997,0.81750279,-0.446104815
1764511894.4014666,0.50358,3.49454,0.2289,0.36266997,0.81750279,-0.446104815
1764511894.4014666,0.50358,3.49454,0.2289,0.36266997,0.81750279,-0.446104815
1764511894.4014666,0.12208,4.1965,0.06104,0.364073775,0.818662455,-0.44763069
1764511894.4014666,0.12208,4.1965,0.06104,0.364073775,0.818662455,-0.44763069
1764511894.4014666,0.12208,4.1965,0.06104,0.364073775,0.818662455,-0.44763069
1764511894.4014666,0.12208,4.1965,0.06104,0.364073775,0.818662455,-0.44763069
1764511894.4014666,0.12208,4.1965,0.06104,0.364073775,0.818662455,-0.44763069
1764511894.4014666,0.12208,4.1965,0.06104,0.364073775,0.818662455,-0.44763069
1764511894.4014666,0.12208,4.1965,0.06104,0.364073775,0.818662455,-0.44763069
1764511894.4014666,0.12208,4.1965,0.06104,0.364073775,0.818662455,-0.44763069
1764511894.444674,0.12208,4.1965,0.06104,0.364073775,0.818662455,-0.44763069
1764511894.444674,0.12208,4.1965,0.06104,0.364073775,0.818662455,-0.44763069
1764511894.4451838,-1.00716,3.61662,0.27468,0.363585495,0.81994419,-0.44860725
1764511894.4451838,-1.00716,3.61662,0.27468,0.363585495,0.81994419,-0.44860725
1764511894.4451838,-1.00716,3.61662,0.27468,0.363585495,0.81994419,-0.44860725
1764511894.4451838,-1.00716,3.61662,0.27468,0.363585495,0.81994419,-0.44860725
1764511894.4451838,-1.00716,3.61662,0.27468,0.363585495,0.81994419,-0.44860725
1764511894.4451838,-1.00716,3.61662,0.27468,0.363585495,0.81994419,-0.44860725
1764511894.4451838,-1.00716,3.61662,0.27468,0.363585495,0.81994419,-0.44860725
1764511894.4451838,-1.00716,3.61662,0.27468,0.363585495,0.81994419,-0.44860725
1764511894.4451838,-1.00716,3.61662,0.27468,0.363585495,0.81994419,-0.44860725
1764511894.4451838,-1.00716,3.61662,0.27468,0.363585495,0.81994419,-0.44860725
1764511894.4451838,-2.22796,3.54032,0.3815,0.361510305,0.81957798,-0.44897346
1764511894.4451838,-2.22796,3.54032,0.3815,0.361510305,0.81957798,-0.44897346
1764511894.4451838,-2.22796,3.54032,0.3815,0.361510305,0.81957798,-0.44897346
1764511894.4457114,-2.22796,3.54032,0.3815,0.361510305,0.81957798,-0.44897346
1764511894.4457114,-2.22796,3.54032,0.3815,0.361510305,0.81957798,-0.44897346
1764511894.4457114,-2.22796,3.54032,0.3815,0.361510305,0.81957798,-0.44897346
1764511894.4457114,-2.22796,3.54032,0.3815,0.361510305,0.81957798,-0.44897346
1764511894.4457114,-2.22796,3.54032,0.3815,0.361510305,0.81957798,-0.44897346
1764511894.4462504,-2.22796,3.54032,0.3815,0.361510305,0.81957798,-0.44897346
1764511894.4462504,-2.22796,3.54032,0.3815,0.361510305,0.81957798,-0.44897346
1764511894.4462504,-1.78542,3.92182,0.8087799999999999,0.361754445,0.81811314,-0.447569655
1764511894.4462504,-1.78542,3.92182,0.8087799999999999,0.361754445,0.81811314,-0.447569655
1764511894.4462504,-1.78542,3.92182,0.8087799999999999,0.361754445,0.81811314,-0.447569655
1764511894.4462504,-1.78542,3.92182,0.8087799999999999,0.361754445,0.81811314,-0.447569655
1764511894.494027,-1.78542,3.92182,0.8087799999999999,0.361754445,0.81811314,-0.447569655
1764511894.494027,-1.78542,3.92182,0.8087799999999999,0.361754445,0.81811314,-0.447569655
1764511894.494027,-1.78542,3.92182,0.8087799999999999,0.361754445,0.81811314,-0.447569655
1764511894.494027,-1.78542,3.92182,0.8087799999999999,0.361754445,0.81811314,-0.447569655
1764511894.494027,-1.78542,3.92182,0.8087799999999999,0.361754445,0.81811314,-0.447569655
1764511894.494027,-1.78542,3.92182,0.8087799999999999,0.361754445,0.81811314,-0.447569655
1764511894.494027,-0.09156,4.36436,0.6409199999999999,0.36328032,0.81616002,-0.44702034
1764511894.494027,-0.09156,4.36436,0.6409199999999999,0.36328032,0.81616002,-0.44702034
1764511894.494027,-0.09156,4.36436,0.6409199999999999,0.36328032,0.81616002,-0.44702034
1764511894.494027,-0.09156,4.36436,0.6409199999999999,0.36328032,0.81616002,-0.44702034
1764511894.494027,-0.09156,4.36436,0.6409199999999999,0.36328032,0.81616002,-0.44702034
1764511894.495289,-0.09156,4.36436,0.6409199999999999,0.36328032,0.81616002,-0.44702034
1764511894.495289,-0.09156,4.36436,0.6409199999999999,0.36328032,0.81616002,-0.44702034
1764511894.495289,-0.09156,4.36436,0.6409199999999999,0.36328032,0.81616002,-0.44702034
1764511894.495289,-0.09156,4.36436,0.6409199999999999,0.36328032,0.81616002,-0.44702034
1764511894.495289,-0.09156,4.36436,0.6409199999999999,0.36328032,0.81616002,-0.44702034
1764511894.495289,0.44254,4.08968,0.39676,0.3637686,0.8166483,-0.446715165
1764511894.495289,0.44254,4.08968,0.39676,0.3637686,0.8166483,-0.446715165
1764511894.495289,0.44254,4.08968,0.39676,0.3637686,0.8166483,-0.446715165
1764511894.495289,0.44254,4.08968,0.39676,0.3637686,0.8166483,-0.446715165
1764511894.495289,0.44254,4.08968,0.39676,0.3637686,0.8166483,-0.446715165
1764511894.495289,0.44254,4.08968,0.39676,0.3637686,0.8166483,-0.446715165
1764511894.540092,0.44254,4.08968,0.39676,0.3637686,0.8166483,-0.446715165
1764511894.540092,0.44254,4.08968,0.39676,0.3637686,0.8166483,-0.446715165
1764511894.540092,0.44254,4.08968,0.39676,0.3637686,0.8166483,-0.446715165
1764511894.540092,0.44254,4.08968,0.39676,0.3637686,0.8166483,-0.446715165
1764511894.540092,0.36624,3.78448,0.25942,0.362853075,0.81640416,-0.447325515
1764511894.540092,0.36624,3.78448,0.25942,0.362853075,0.81640416,-0.447325515
1764511894.540092,0.36624,3.78448,0.25942,0.362853075,0.81640416,-0.447325515
1764511894.540092,0.36624,3.78448,0.25942,0.362853075,0.81640416,-0.447325515
1764511894.540092,0.36624,3.78448,0.25942,0.362853075,0.81640416,-0.447325515
1764511894.540092,0.36624,3.78448,0.25942,0.362853075,0.81640416,-0.447325515
1764511894.540092,0.36624,3.78448,0.25942,0.362853075,0.81640416,-0.447325515
1764511894.540092,0.36624,3.78448,0.25942,0.362853075,0.81640416,-0.447325515
1764511894.540092,0.36624,3.78448,0.25942,0.362853075,0.81640416,-0.447325515
1764511894.540092,0.36624,3.78448,0.25942,0.362853075,0.81640416,-0.447325515
1764511894.541121,-0.1678599999999999,4.41014,0.24416,0.362731005,0.817563825,-0.448057935
1764511894.541121,-0.1678599999999999,4.41014,0.24416,0.362731005,0.817563825,-0.448057935
1764511894.541121,-0.1678599999999999,4.41014,0.24416,0.362731005,0.817563825,-0.448057935
1764511894.541121,-0.1678599999999999,4.41014,0.24416,0.362731005,0.817563825,-0.448057935
1764511894.541121,-0.1678599999999999,4.41014,0.24416,0.362731005,0.817563825,-0.448057935
1764511894.541121,-0.1678599999999999,4.41014,0.24416,0.362731005,0.817563825,-0.448057935
1764511894.541121,-0.1678599999999999,4.41014,0.24416,0.362731005,0.817563825,-0.448057935
1764511894.541121,-0.1678599999999999,4.41014,0.24416,0.362731005,0.817563825,-0.448057935
1764511894.541121,-0.1678599999999999,4.41014,0.24416,0.362731005,0.817563825,-0.448057935
1764511894.541121,-0.1678599999999999,4.41014,0.24416,0.362731005,0.817563825,-0.448057935
1764511894.5877123,-0.93086,3.9676,0.85456,0.36230376,0.817930035,-0.44787483
1764511894.5877123,-0.93086,3.9676,0.85456,0.36230376,0.817930035,-0.44787483
1764511894.5877123,-0.93086,3.9676,0.85456,0.36230376,0.817930035,-0.44787483
1764511894.5877123,-0.93086,3.9676,0.85456,0.36230376,0.817930035,-0.44787483
1764511894.5877123,-0.93086,3.9676,0.85456,0.36230376,0.817930035,-0.44787483
1764511894.5877123,-0.93086,3.9676,0.85456,0.36230376,0.817930035,-0.44787483
1764511894.5877123,-0.93086,3.9676,0.85456,0.36230376,0.817930035,-0.44787483
1764511894.5877123,-0.93086,3.9676,0.85456,0.36230376,0.817930035,-0.44787483
1764511894.5877123,-0.93086,3.9676,0.85456,0.36230376,0.817930035,-0.44787483
1764511894.5877123,-0.93086,3.9676,0.85456,0.36230376,0.817930035,-0.44787483
1764511894.5877123,-1.19028,4.08968,0.3815,0.36364653,0.817807965,-0.44872932
1764511894.5877123,-1.19028,4.08968,0.3815,0.36364653,0.817807965,-0.44872932
1764511894.5877123,-1.19028,4.08968,0.3815,0.36364653,0.817807965,-0.44872932
1764511894.5877123,-1.19028,4.08968,0.3815,0.36364653,0.817807965,-0.44872932
1764511894.5877123,-1.19028,4.08968,0.3815,0.36364653,0.817807965,-0.44872932
1764511894.5877123,-1.19028,4.08968,0.3815,0.36364653,0.817807965,-0.44872932
1764511894.5877123,-1.19028,4.08968,0.3815,0.36364653,0.817807965,-0.44872932
1764511894.5877123,-1.19028,4.08968,0.3815,0.36364653,0.817807965,-0.44872932
1764511894.5877123,-1.19028,4.08968,0.3815,0.36364653,0.817807965,-0.44872932
1764511894.5877123,-1.19028,4.08968,0.3815,0.36364653,0.817807965,-0.44872932
1764511894.5877123,-1.17502,3.79974,0.6867,0.36413481,0.81860142,-0.44628792
1764511894.5877123,-1.17502,3.79974,0.6867,0.36413481,0.81860142,-0.44628792
1764511894.632842,-1.17502,3.79974,0.6867,0.36413481,0.81860142,-0.44628792
1764511894.632842,-1.17502,3.79974,0.6867,0.36413481,0.81860142,-0.44628792
1764511894.632842,-1.17502,3.79974,0.6867,0.36413481,0.81860142,-0.44628792
1764511894.632842,-1.17502,3.79974,0.6867,0.36413481,0.81860142,-0.44628792
1764511894.6338408,-1.17502,3.79974,0.6867,0.36413481,0.81860142,-0.44628792
1764511894.6338408,-1.17502,3.79974,0.6867,0.36413481,0.81860142,-0.44628792
1764511894.6338408,-1.17502,3.79974,0.6867,0.36413481,0.81860142,-0.44628792
1764511894.6338408,-1.17502,3.79974,0.6867,0.36413481,0.81860142,-0.44628792
1764511894.6338408,-0.94612,3.84552,0.9003399999999999,0.363219285,0.817197615,-0.4455555
1764511894.6338408,-0.94612,3.84552,0.9003399999999999,0.363219285,0.817197615,-0.4455555
1764511894.6338408,-0.94612,3.84552,0.9003399999999999,0.363219285,0.817197615,-0.4455555
1764511894.6353557,-0.94612,3.84552,0.9003399999999999,0.363219285,0.817197615,-0.4455555
1764511894.6353557,-0.94612,3.84552,0.9003399999999999,0.363219285,0.817197615,-0.4455555
1764511894.6353557,-0.94612,3.84552,0.9003399999999999,0.363219285,0.817197615,-0.4455555
1764511894.636366,-0.94612,3.84552,0.9003399999999999,0.363219285,0.817197615,-0.4455555
1764511894.636366,-0.94612,3.84552,0.9003399999999999,0.363219285,0.817197615,-0.4455555
1764511894.6368518,-0.94612,3.84552,0.9003399999999999,0.363219285,0.817197615,-0.4455555
1764511894.6368518,-0.94612,3.84552,0.9003399999999999,0.363219285,0.817197615,-0.4455555
1764511894.6368518,0.1678599999999999,4.1965,0.27468,0.36352446,0.817563825,-0.44628792
1764511894.6368518,0.1678599999999999,4.1965,0.27468,0.36352446,0.817563825,-0.44628792
1764511894.6373763,0.1678599999999999,4.1965,0.27468,0.36352446,0.817563825,-0.44628792
1764511894.6373763,0.1678599999999999,4.1965,0.27468,0.36352446,0.817563825,-0.44628792
1764511894.6373763,0.1678599999999999,4.1965,0.27468,0.36352446,0.817563825,-0.44628792
1764511894.6373763,0.1678599999999999,4.1965,0.27468,0.36352446,0.817563825,-0.44628792
1764511894.6775248,0.1678599999999999,4.1965,0.27468,0.36352446,0.817563825,-0.44628792
1764511894.6775248,0.1678599999999999,4.1965,0.27468,0.36352446,0.817563825,-0.44628792
1764511894.6785643,0.1678599999999999,4.1965,0.27468,0.36352446,0.817563825,-0.44628792
1764511894.6785643,0.1678599999999999,4.1965,0.27468,0.36352446,0.817563825,-0.44628792
1764511894.6785643,-0.01526,4.25754,0.21364,0.364317915,0.8190897,-0.447569655
1764511894.6785643,-0.01526,4.25754,0.21364,0.364317915,0.8190897,-0.447569655
1764511894.6785643,-0.01526,4.25754,0.21364,0.364317915,0.8190897,-0.447569655
1764511894.6785643,-0.01526,4.25754,0.21364,0.364317915,0.8190897,-0.447569655
1764511894.6785643,-0.01526,4.25754,0.21364,0.364317915,0.8190897,-0.447569655
1764511894.6785643,-0.01526,4.25754,0.21364,0.364317915,0.8190897,-0.447569655
1764511894.6785643,-0.01526,4.25754,0.21364,0.364317915,0.8190897,-0.447569655
1764511894.6785643,-0.01526,4.25754,0.21364,0.364317915,0.8190897,-0.447569655
1764511894.6785643,-0.01526,4.25754,0.21364,0.364317915,0.8190897,-0.447569655
1764511894.6785643,-0.01526,4.25754,0.21364,0.364317915,0.8190897,-0.447569655
1764511894.6785643,-0.9003399999999999,3.75396,0.85456,0.362486865,0.820737645,-0.447569655
1764511894.6785643,-0.9003399999999999,3.75396,0.85456,0.362486865,0.820737645,-0.447569655
1764511894.6785643,-0.9003399999999999,3.75396,0.85456,0.362486865,0.820737645,-0.447569655
1764511894.6785643,-0.9003399999999999,3.75396,0.85456,0.362486865,0.820737645,-0.447569655
1764511894.6785643,-0.9003399999999999,3.75396,0.85456,0.362486865,0.820737645,-0.447569655
1764511894.6795683,-0.9003399999999999,3.75396,0.85456,0.362486865,0.820737645,-0.447569655
1764511894.6811128,-0.9003399999999999,3.75396,0.85456,0.362486865,0.820737645,-0.447569655
1764511894.6811128,-0.9003399999999999,3.75396,0.85456,0.362486865,0.820737645,-0.447569655
1764511894.682123,-0.9003399999999999,3.75396,0.85456,0.362486865,0.820737645,-0.447569655
1764511894.682123,-0.9003399999999999,3.75396,0.85456,0.362486865,0.820737645,-0.447569655
1764511894.7256718,-1.46496,3.70818,0.8087799999999999,0.36144927,0.81994419,-0.44787483
1764511894.7256718,-1.46496,3.70818,0.8087799999999999,0.36144927,0.81994419,-0.44787483
1764511894.7266898,-1.46496,3.70818,0.8087799999999999,0.36144927,0.81994419,-0.44787483
1764511894.7266898,-1.46496,3.70818,0.8087799999999999,0.36144927,0.81994419,-0.44787483
1764511894.7266898,-1.46496,3.70818,0.8087799999999999,0.36144927,0.81994419,-0.44787483
1764511894.7266898,-1.46496,3.70818,0.8087799999999999,0.36144927,0.81994419,-0.44787483
1764511894.7266898,-1.46496,3.70818,0.8087799999999999,0.36144927,0.81994419,-0.44787483
1764511894.7266898,-1.46496,3.70818,0.8087799999999999,0.36144927,0.81994419,-0.44787483
1764511894.7266898,-1.46496,3.70818,0.8087799999999999,0.36144927,0.81994419,-0.44787483
1764511894.7266898,-1.46496,3.70818,0.8087799999999999,0.36144927,0.81994419,-0.44787483
1764511894.7266898,-1.15976,3.93708,0.9919,0.36181548,0.816587265,-0.446837235
1764511894.7266898,-1.15976,3.93708,0.9919,0.36181548,0.816587265,-0.446837235
1764511894.7266898,-1.15976,3.93708,0.9919,0.36181548,0.816587265,-0.446837235
1764511894.7266898,-1.15976,3.93708,0.9919,0.36181548,0.816587265,-0.446837235
1764511894.7266898,-1.15976,3.93708,0.9919,0.36181548,0.816587265,-0.446837235
1764511894.7266898,-1.15976,3.93708,0.9919,0.36181548,0.816587265,-0.446837235
1764511894.7266898,-1.15976,3.93708,0.9919,0.36181548,0.816587265,-0.446837235
1764511894.7266898,-1.15976,3.93708,0.9919,0.36181548,0.816587265,-0.446837235
1764511894.7266898,-1.15976,3.93708,0.9919,0.36181548,0.816587265,-0.446837235
1764511894.7266898,-1.15976,3.93708,0.9919,0.36181548,0.816587265,-0.446837235
1764511894.7266898,-0.41202,4.01338,0.6409199999999999,0.362731005,0.8147562150000001,-0.445738605
1764511894.7266898,-0.41202,4.01338,0.6409199999999999,0.362731005,0.8147562150000001,-0.445738605
1764511894.771519,-0.41202,4.01338,0.6409199999999999,0.362731005,0.8147562150000001,-0.445738605
1764511894.771519,-0.41202,4.01338,0.6409199999999999,0.362731005,0.8147562150000001,-0.445738605
1764511894.771519,-0.41202,4.01338,0.6409199999999999,0.362731005,0.8147562150000001,-0.445738605
1764511894.771519,-0.41202,4.01338,0.6409199999999999,0.362731005,0.8147562150000001,-0.445738605
1764511894.771519,-0.41202,4.01338,0.6409199999999999,0.362731005,0.8147562150000001,-0.445738605
1764511894.771519,-0.41202,4.01338,0.6409199999999999,0.362731005,0.8147562150000001,-0.445738605
1764511894.771519,-0.41202,4.01338,0.6409199999999999,0.362731005,0.8147562150000001,-0.445738605
1764511894.7725184,-0.41202,4.01338,0.6409199999999999,0.362731005,0.8147562150000001,-0.445738605
1764511894.7725184,-0.44254,4.18124,0.9156,0.36401274,0.815854845,-0.44567757
1764511894.7725184,-0.44254,4.18124,0.9156,0.36401274,0.815854845,-0.44567757
1764511894.7725184,-0.44254,4.18124,0.9156,0.36401274,0.815854845,-0.44567757
1764511894.7725184,-0.44254,4.18124,0.9156,0.36401274,0.815854845,-0.44567757
1764511894.7725184,-0.44254,4.18124,0.9156,0.36401274,0.815854845,-0.44567757
1764511894.7725184,-0.44254,4.18124,0.9156,0.36401274,0.815854845,-0.44567757
1764511894.7725184,-0.44254,4.18124,0.9156,0.36401274,0.815854845,-0.44567757
1764511894.7725184,-0.44254,4.18124,0.9156,0.36401274,0.815854845,-0.44567757
1764511894.7725184,-0.44254,4.18124,0.9156,0.36401274,0.815854845,-0.44567757
1764511894.7725184,-0.44254,4.18124,0.9156,0.36401274,0.815854845,-0.44567757
1764511894.7725184,-0.24416,3.78448,0.48832,0.364195845,0.81652623,-0.44604378
1764511894.7725184,-0.24416,3.78448,0.48832,0.364195845,0.81652623,-0.44604378
1764511894.7725184,-0.24416,3.78448,0.48832,0.364195845,0.81652623,-0.44604378
1764511894.7725184,-0.24416,3.78448,0.48832,0.364195845,0.81652623,-0.44604378
1764511894.7725184,-0.24416,3.78448,0.48832,0.364195845,0.81652623,-0.44604378
1764511894.7725184,-0.24416,3.78448,0.48832,0.364195845,0.81652623,-0.44604378
1764511894.8161898,-0.24416,3.78448,0.48832,0.364195845,0.81652623,-0.44604378
1764511894.8161898,-0.24416,3.78448,0.48832,0.364195845,0.81652623,-0.44604378
1764511894.8161898,-0.24416,3.78448,0.48832,0.364195845,0.81652623,-0.44604378
1764511894.816701,-0.24416,3.78448,0.48832,0.364195845,0.81652623,-0.44604378
1764511894.816701,0.2289,3.86078,0.73248,0.363463425,0.81652623,-0.44640999
1764511894.816701,0.2289,3.86078,0.73248,0.363463425,0.81652623,-0.44640999
1764511894.816701,0.2289,3.86078,0.73248,0.363463425,0.81652623,-0.44640999
1764511894.816701,0.2289,3.86078,0.73248,0.363463425,0.81652623,-0.44640999
1764511894.816701,0.2289,3.86078,0.73248,0.363463425,0.81652623,-0.44640999
1764511894.816701,0.2289,3.86078,0.73248,0.363463425,0.81652623,-0.44640999
1764511894.816701,0.2289,3.86078,0.73248,0.363463425,0.81652623,-0.44640999
1764511894.816701,0.2289,3.86078,0.73248,0.363463425,0.81652623,-0.44640999
1764511894.816701,0.2289,3.86078,0.73248,0.363463425,0.81652623,-0.44640999
1764511894.816701,0.2289,3.86078,0.73248,0.363463425,0.81652623,-0.44640999
1764511894.816701,-0.0762999999999999,3.78448,0.41202,0.36291411,0.81811314,-0.44726448
1764511894.817717,-0.0762999999999999,3.78448,0.41202,0.36291411,0.81811314,-0.44726448
1764511894.817717,-0.0762999999999999,3.78448,0.41202,0.36291411,0.81811314,-0.44726448
1764511894.817717,-0.0762999999999999,3.78448,0.41202,0.36291411,0.81811314,-0.44726448
1764511894.818227,-0.0762999999999999,3.78448,0.41202,0.36291411,0.81811314,-0.44726448
1764511894.818227,-0.0762999999999999,3.78448,0.41202,0.36291411,0.81811314,-0.44726448
1764511894.818227,-0.0762999999999999,3.78448,0.41202,0.36291411,0.81811314,-0.44726448
1764511894.818227,-0.0762999999999999,3.78448,0.41202,0.36291411,0.81811314,-0.44726448
1764511894.8677216,-0.0762999999999999,3.78448,0.41202,0.36291411,0.81811314,-0.44726448
1764511894.8677216,-0.0762999999999999,3.78448,0.41202,0.36291411,0.81811314,-0.44726448
1764511894.8677216,-1.32762,3.57084,0.56462,0.361998585,0.8200052250000001,-0.44848518
1764511894.8677216,-1.32762,3.57084,0.56462,0.361998585,0.8200052250000001,-0.44848518
1764511894.8677216,-1.32762,3.57084,0.56462,0.361998585,0.8200052250000001,-0.44848518
1764511894.8677216,-1.32762,3.57084,0.56462,0.361998585,0.8200052250000001,-0.44848518
1764511894.8677216,-1.32762,3.57084,0.56462,0.361998585,0.8200052250000001,-0.44848518
1764511894.8677216,-1.32762,3.57084,0.56462,0.361998585,0.8200052250000001,-0.44848518
1764511894.8677216,-1.32762,3.57084,0.56462,0.361998585,0.8200052250000001,-0.44848518
1764511894.8677216,-1.32762,3.57084,0.56462,0.361998585,0.8200052250000001,-0.44848518
1764511894.8677216,-1.32762,3.57084,0.56462,0.361998585,0.8200052250000001,-0.44848518
1764511894.8677216,-1.32762,3.57084,0.56462,0.361998585,0.8200052250000001,-0.44848518
1764511894.8687236,-1.2208,3.86078,0.6867,0.36157134,0.81847935,-0.44811897
1764511894.8687236,-1.2208,3.86078,0.6867,0.36157134,0.81847935,-0.44811897
1764511894.8687236,-1.2208,3.86078,0.6867,0.36157134,0.81847935,-0.44811897
1764511894.8687236,-1.2208,3.86078,0.6867,0.36157134,0.81847935,-0.44811897
1764511894.8687236,-1.2208,3.86078,0.6867,0.36157134,0.81847935,-0.44811897
1764511894.8687236,-1.2208,3.86078,0.6867,0.36157134,0.81847935,-0.44811897
1764511894.8687236,-1.2208,3.86078,0.6867,0.36157134,0.81847935,-0.44811897
1764511894.8687236,-1.2208,3.86078,0.6867,0.36157134,0.81847935,-0.44811897
1764511894.8687236,-1.2208,3.86078,0.6867,0.36157134,0.81847935,-0.44811897
1764511894.8687236,-1.2208,3.86078,0.6867,0.36157134,0.81847935,-0.44811897
1764511894.8687236,-0.93086,4.059159999999999,0.6103999999999999,0.362731005,0.8163431250000001,-0.446837235
1764511894.8687236,-0.93086,4.059159999999999,0.6103999999999999,0.362731005,0.8163431250000001,-0.446837235
1764511894.9129045,-0.93086,4.059159999999999,0.6103999999999999,0.362731005,0.8163431250000001,-0.446837235
1764511894.9129045,-0.93086,4.059159999999999,0.6103999999999999,0.362731005,0.8163431250000001,-0.446837235
1764511894.9129045,-0.93086,4.059159999999999,0.6103999999999999,0.362731005,0.8163431250000001,-0.446837235
1764511894.9129045,-0.93086,4.059159999999999,0.6103999999999999,0.362731005,0.8163431250000001,-0.446837235
1764511894.9129045,-0.93086,4.059159999999999,0.6103999999999999,0.362731005,0.8163431250000001,-0.446837235
1764511894.9129045,-0.93086,4.059159999999999,0.6103999999999999,0.362731005,0.8163431250000001,-0.446837235
1764511894.9129045,-0.93086,4.059159999999999,0.6103999999999999,0.362731005,0.8163431250000001,-0.446837235
1764511894.9129045,-0.93086,4.059159999999999,0.6103999999999999,0.362731005,0.8163431250000001,-0.446837235
1764511894.9129045,0.01526,4.059159999999999,0.3357199999999999,0.363707565,0.815976915,-0.44604378
1764511894.9139185,0.01526,4.059159999999999,0.3357199999999999,0.363707565,0.815976915,-0.44604378
1764511894.9139185,0.01526,4.059159999999999,0.3357199999999999,0.363707565,0.815976915,-0.44604378
1764511894.9139185,0.01526,4.059159999999999,0.3357199999999999,0.363707565,0.815976915,-0.44604378
1764511894.9139185,0.01526,4.059159999999999,0.3357199999999999,0.363707565,0.815976915,-0.44604378
1764511894.9139185,0.01526,4.059159999999999,0.3357199999999999,0.363707565,0.815976915,-0.44604378
1764511894.9139185,0.01526,4.059159999999999,0.3357199999999999,0.363707565,0.815976915,-0.44604378
1764511894.9139185,0.01526,4.059159999999999,0.3357199999999999,0.363707565,0.815976915,-0.44604378
1764511894.9139185,0.01526,4.059159999999999,0.3357199999999999,0.363707565,0.815976915,-0.44604378
1764511894.9139185,0.01526,4.059159999999999,0.3357199999999999,0.363707565,0.815976915,-0.44604378
1764511894.9139185,0.94612,3.90656,0.42728,0.36291411,0.815244495,-0.445860675
1764511894.9139185,0.94612,3.90656,0.42728,0.36291411,0.815244495,-0.445860675
1764511894.9139185,0.94612,3.90656,0.42728,0.36291411,0.815244495,-0.445860675
1764511894.9139185,0.94612,3.90656,0.42728,0.36291411,0.815244495,-0.445860675
1764511894.9617395,0.94612,3.90656,0.42728,0.36291411,0.815244495,-0.445860675
1764511894.9617395,0.94612,3.90656,0.42728,0.36291411,0.815244495,-0.445860675
1764511894.9617395,0.94612,3.90656,0.42728,0.36291411,0.815244495,-0.445860675
1764511894.9617395,0.94612,3.90656,0.42728,0.36291411,0.815244495,-0.445860675
1764511894.9617395,0.94612,3.90656,0.42728,0.36291411,0.815244495,-0.445860675
1764511894.9617395,0.94612,3.90656,0.42728,0.36291411,0.815244495,-0.445860675
1764511894.9617395,1.00716,4.0439,0.3051999999999999,0.36279204,0.8157938100000001,-0.446348955
1764511894.9617395,1.00716,4.0439,0.3051999999999999,0.36279204,0.8157938100000001,-0.446348955
1764511894.9617395,1.00716,4.0439,0.3051999999999999,0.36279204,0.8157938100000001,-0.446348955
1764511894.9617395,1.00716,4.0439,0.3051999999999999,0.36279204,0.8157938100000001,-0.446348955
1764511894.9617395,1.00716,4.0439,0.3051999999999999,0.36279204,0.8157938100000001,-0.446348955
1764511894.9617395,1.00716,4.0439,0.3051999999999999,0.36279204,0.8157938100000001,-0.446348955
1764511894.9617395,1.00716,4.0439,0.3051999999999999,0.36279204,0.8157938100000001,-0.446348955
1764511894.9617395,1.00716,4.0439,0.3051999999999999,0.36279204,0.8157938100000001,-0.446348955
1764511894.9617395,1.00716,4.0439,0.3051999999999999,0.36279204,0.8157938100000001,-0.446348955
1764511894.9617395,1.00716,4.0439,0.3051999999999999,0.36279204,0.8157938100000001,-0.446348955
1764511894.9617395,-0.10682,4.2728,0.44254,0.363341355,0.81860142,-0.447569655
1764511894.9617395,-0.10682,4.2728,0.44254,0.363341355,0.81860142,-0.447569655
1764511894.9617395,-0.10682,4.2728,0.44254,0.363341355,0.81860142,-0.447569655
1764511894.9617395,-0.10682,4.2728,0.44254,0.363341355,0.81860142,-0.447569655
1764511894.9617395,-0.10682,4.2728,0.44254,0.363341355,0.81860142,-0.447569655
1764511894.9617395,-0.10682,4.2728,0.44254,0.363341355,0.81860142,-0.447569655
1764511894.9617395,-0.10682,4.2728,0.44254,0.363341355,0.81860142,-0.447569655
1764511894.9617395,-0.10682,4.2728,0.44254,0.363341355,0.81860142,-0.447569655
1764511894.9617395,-0.10682,4.2728,0.44254,0.363341355,0.81860142,-0.447569655
1764511894.9617395,-0.10682,4.2728,0.44254,0.363341355,0.81860142,-0.447569655
1764511895.0077648,-0.82404,3.63188,0.36624,0.361510305,0.8194559100000001,-0.44775276
1764511895.0077648,-0.82404,3.63188,0.36624,0.361510305,0.8194559100000001,-0.44775276
1764511895.0077648,-0.82404,3.63188,0.36624,0.361510305,0.8194559100000001,-0.44775276
1764511895.0077648,-0.82404,3.63188,0.36624,0.361510305,0.8194559100000001,-0.44775276
1764511895.008786,-0.82404,3.63188,0.36624,0.361510305,0.8194559100000001,-0.44775276
1764511895.0091877,-0.82404,3.63188,0.36624,0.361510305,0.8194559100000001,-0.44775276
1764511895.0091877,-0.82404,3.63188,0.36624,0.361510305,0.8194559100000001,-0.44775276
1764511895.0091877,-0.82404,3.63188,0.36624,0.361510305,0.8194559100000001,-0.44775276
1764511895.0091877,-0.82404,3.63188,0.36624,0.361510305,0.8194559100000001,-0.44775276
1764511895.0091877,-0.82404,3.63188,0.36624,0.361510305,0.8194559100000001,-0.44775276
1764511895.0097952,-0.73248,3.69292,0.73248,0.360777885,0.817563825,-0.44775276
1764511895.0097952,-0.73248,3.69292,0.73248,0.360777885,0.817563825,-0.44775276
1764511895.0097952,-0.73248,3.69292,0.73248,0.360777885,0.817563825,-0.44775276
1764511895.0097952,-0.73248,3.69292,0.73248,0.360777885,0.817563825,-0.44775276
1764511895.0097952,-0.73248,3.69292,0.73248,0.360777885,0.817563825,-0.44775276
1764511895.0097952,-0.73248,3.69292,0.73248,0.360777885,0.817563825,-0.44775276
1764511895.0097952,-0.73248,3.69292,0.73248,0.360777885,0.817563825,-0.44775276
1764511895.0097952,-0.73248,3.69292,0.73248,0.360777885,0.817563825,-0.44775276
1764511895.0097952,-0.73248,3.69292,0.73248,0.360777885,0.817563825,-0.44775276
1764511895.0097952,-0.73248,3.69292,0.73248,0.360777885,0.817563825,-0.44775276
1764511895.0097952,-0.82404,4.21176,0.54936,0.362853075,0.81872349,-0.447447585
1764511895.0097952,-0.82404,4.21176,0.54936,0.362853075,0.81872349,-0.447447585
1764511895.053945,-0.82404,4.21176,0.54936,0.362853075,0.81872349,-0.447447585
1764511895.053945,-0.82404,4.21176,0.54936,0.362853075,0.81872349,-0.447447585
1764511895.053945,-0.82404,4.21176,0.54936,0.362853075,0.81872349,-0.447447585
1764511895.053945,-0.82404,4.21176,0.54936,0.362853075,0.81872349,-0.447447585
1764511895.053945,-0.82404,4.21176,0.54936,0.362853075,0.81872349,-0.447447585
1764511895.053945,-0.82404,4.21176,0.54936,0.362853075,0.81872349,-0.447447585
1764511895.053945,-0.82404,4.21176,0.54936,0.362853075,0.81872349,-0.447447585
1764511895.053945,-0.82404,4.21176,0.54936,0.362853075,0.81872349,-0.447447585
1764511895.053945,-0.57988,3.44876,0.94612,0.363341355,0.819516945,-0.445494465
1764511895.053945,-0.57988,3.44876,0.94612,0.363341355,0.819516945,-0.445494465
1764511895.053945,-0.57988,3.44876,0.94612,0.363341355,0.819516945,-0.445494465
1764511895.053945,-0.57988,3.44876,0.94612,0.363341355,0.819516945,-0.445494465
1764511895.053945,-0.57988,3.44876,0.94612,0.363341355,0.819516945,-0.445494465
1764511895.053945,-0.57988,3.44876,0.94612,0.363341355,0.819516945,-0.445494465
1764511895.053945,-0.57988,3.44876,0.94612,0.363341355,0.819516945,-0.445494465
1764511895.053945,-0.57988,3.44876,0.94612,0.363341355,0.819516945,-0.445494465
1764511895.053945,-0.57988,3.44876,0.94612,0.363341355,0.819516945,-0.445494465
1764511895.053945,-0.57988,3.44876,0.94612,0.363341355,0.819516945,-0.445494465
1764511895.053945,0.763,3.79974,0.51884,0.36315825,0.81689244,-0.44506722
1764511895.053945,0.763,3.79974,0.51884,0.36315825,0.81689244,-0.44506722
1764511895.053945,0.763,3.79974,0.51884,0.36315825,0.81689244,-0.44506722
1764511895.053945,0.763,3.79974,0.51884,0.36315825,0.81689244,-0.44506722
1764511895.053945,0.763,3.79974,0.51884,0.36315825,0.81689244,-0.44506722
1764511895.053945,0.763,3.79974,0.51884,0.36315825,0.81689244,-0.44506722
1764511895.1015356,0.763,3.79974,0.51884,0.36315825,0.81689244,-0.44506722
1764511895.1015356,0.763,3.79974,0.51884,0.36315825,0.81689244,-0.44506722
1764511895.1015356,0.763,3.79974,0.51884,0.36315825,0.81689244,-0.44506722
1764511895.1015356,0.763,3.79974,0.51884,0.36315825,0.81689244,-0.44506722
1764511895.1015356,1.0682,3.79974,0.42728,0.36425688,0.81652623,-0.447203445
1764511895.1015356,1.0682,3.79974,0.42728,0.36425688,0.81652623,-0.447203445
1764511895.1015356,1.0682,3.79974,0.42728,0.36425688,0.81652623,-0.447203445
1764511895.1015356,1.0682,3.79974,0.42728,0.36425688,0.81652623,-0.447203445
1764511895.1015356,1.0682,3.79974,0.42728,0.36425688,0.81652623,-0.447203445
1764511895.1015356,1.0682,3.79974,0.42728,0.36425688,0.81652623,-0.447203445
1764511895.1015356,1.0682,3.79974,0.42728,0.36425688,0.81652623,-0.447203445
1764511895.1025774,1.0682,3.79974,0.42728,0.36425688,0.81652623,-0.447203445
1764511895.1025774,1.0682,3.79974,0.42728,0.36425688,0.81652623,-0.447203445
1764511895.1025774,1.0682,3.79974,0.42728,0.36425688,0.81652623,-0.447203445
1764511895.1025774,-1.17502,3.6624,0.03052,0.363341355,0.81835728,-0.449034495
1764511895.1025774,-1.17502,3.6624,0.03052,0.363341355,0.81835728,-0.449034495
1764511895.1025774,-1.17502,3.6624,0.03052,0.363341355,0.81835728,-0.449034495
1764511895.1025774,-1.17502,3.6624,0.03052,0.363341355,0.81835728,-0.449034495
1764511895.1025774,-1.17502,3.6624,0.03052,0.363341355,0.81835728,-0.449034495
1764511895.1025774,-1.17502,3.6624,0.03052,0.363341355,0.81835728,-0.449034495
1764511895.1025774,-1.17502,3.6624,0.03052,0.363341355,0.81835728,-0.449034495
1764511895.1025774,-1.17502,3.6624,0.03052,0.363341355,0.81835728,-0.449034495
1764511895.1025774,-1.17502,3.6624,0.03052,0.363341355,0.81835728,-0.449034495
1764511895.1025774,-1.17502,3.6624,0.03052,0.363341355,0.81835728,-0.449034495
1764511895.1458197,-2.35004,3.2046,0.62566,0.360777885,0.81884556,-0.4492176
1764511895.1458197,-2.35004,3.2046,0.62566,0.360777885,0.81884556,-0.4492176
1764511895.1458197,-2.35004,3.2046,0.62566,0.360777885,0.81884556,-0.4492176
1764511895.1458197,-2.35004,3.2046,0.62566,0.360777885,0.81884556,-0.4492176
1764511895.1458197,-2.35004,3.2046,0.62566,0.360777885,0.81884556,-0.4492176
1764511895.1458197,-2.35004,3.2046,0.62566,0.360777885,0.81884556,-0.4492176
1764511895.1458197,-2.35004,3.2046,0.62566,0.360777885,0.81884556,-0.4492176
1764511895.1458197,-2.35004,3.2046,0.62566,0.360777885,0.81884556,-0.4492176
1764511895.1458197,-2.35004,3.2046,0.62566,0.360777885,0.81884556,-0.4492176
1764511895.1458197,-2.35004,3.2046,0.62566,0.360777885,0.81884556,-0.4492176
1764511895.1458197,-1.87698,3.86078,1.25132,0.36047271,0.81567174,-0.44897346
1764511895.1458197,-1.87698,3.86078,1.25132,0.36047271,0.81567174,-0.44897346
1764511895.1458197,-1.87698,3.86078,1.25132,0.36047271,0.81567174,-0.44897346
1764511895.1458197,-1.87698,3.86078,1.25132,0.36047271,0.81567174,-0.44897346
1764511895.1468322,-1.87698,3.86078,1.25132,0.36047271,0.81567174,-0.44897346
1764511895.1468322,-1.87698,3.86078,1.25132,0.36047271,0.81567174,-0.44897346
1764511895.1468322,-1.87698,3.86078,1.25132,0.36047271,0.81567174,-0.44897346
1764511895.1468322,-1.87698,3.86078,1.25132,0.36047271,0.81567174,-0.44897346
1764511895.1468322,-1.87698,3.86078,1.25132,0.36047271,0.81567174,-0.44897346
1764511895.1468322,-1.87698,3.86078,1.25132,0.36047271,0.81567174,-0.44897346
1764511895.1468322,-0.48832,4.21176,0.09156,0.3625479,0.81359655,-0.448424145
1764511895.1468322,-0.48832,4.21176,0.09156,0.3625479,0.81359655,-0.448424145
1764511895.1468322,-0.48832,4.21176,0.09156,0.3625479,0.81359655,-0.448424145
1764511895.1468322,-0.48832,4.21176,0.09156,0.3625479,0.81359655,-0.448424145
1764511895.1921945,-0.48832,4.21176,0.09156,0.3625479,0.81359655,-0.448424145
1764511895.1921945,-0.48832,4.21176,0.09156,0.3625479,0.81359655,-0.448424145
1764511895.1921945,-0.48832,4.21176,0.09156,0.3625479,0.81359655,-0.448424145
1764511895.1921945,-0.48832,4.21176,0.09156,0.3625479,0.81359655,-0.448424145
1764511895.1921945,-0.48832,4.21176,0.09156,0.3625479,0.81359655,-0.448424145
1764511895.1921945,-0.48832,4.21176,0.09156,0.3625479,0.81359655,-0.448424145
1764511895.1921945,0.0762999999999999,4.24228,0.01526,0.363341355,0.81518346,-0.44824104
1764511895.1921945,0.0762999999999999,4.24228,0.01526,0.363341355,0.81518346,-0.44824104
1764511895.1921945,0.0762999999999999,4.24228,0.01526,0.363341355,0.81518346,-0.44824104
1764511895.1921945,0.0762999999999999,4.24228,0.01526,0.363341355,0.81518346,-0.44824104
1764511895.1921945,0.0762999999999999,4.24228,0.01526,0.363341355,0.81518346,-0.44824104
1764511895.1921945,0.0762999999999999,4.24228,0.01526,0.363341355,0.81518346,-0.44824104
1764511895.1921945,0.0762999999999999,4.24228,0.01526,0.363341355,0.81518346,-0.44824104
1764511895.1921945,0.0762999999999999,4.24228,0.01526,0.363341355,0.81518346,-0.44824104
1764511895.1931834,0.0762999999999999,4.24228,0.01526,0.363341355,0.81518346,-0.44824104
1764511895.1931834,0.0762999999999999,4.24228,0.01526,0.363341355,0.81518346,-0.44824104
1764511895.1931834,0.27468,4.01338,0.12208,0.363097215,0.8166483,-0.44860725
1764511895.1931834,0.27468,4.01338,0.12208,0.363097215,0.8166483,-0.44860725
1764511895.194203,0.27468,4.01338,0.12208,0.363097215,0.8166483,-0.44860725
1764511895.194203,0.27468,4.01338,0.12208,0.363097215,0.8166483,-0.44860725
1764511895.194203,0.27468,4.01338,0.12208,0.363097215,0.8166483,-0.44860725
1764511895.194203,0.27468,4.01338,0.12208,0.363097215,0.8166483,-0.44860725
1764511895.2433262,0.27468,4.01338,0.12208,0.363097215,0.8166483,-0.44860725
1764511895.2433262,0.27468,4.01338,0.12208,0.363097215,0.8166483,-0.44860725
1764511895.2433262,0.27468,4.01338,0.12208,0.363097215,0.8166483,-0.44860725
1764511895.2433262,0.27468,4.01338,0.12208,0.363097215,0.8166483,-0.44860725
1764511895.2433262,0.0762999999999999,3.9676,0.57988,0.36230376,0.818784525,-0.44860725
1764511895.2433262,0.0762999999999999,3.9676,0.57988,0.36230376,0.818784525,-0.44860725
1764511895.2433262,0.0762999999999999,3.9676,0.57988,0.36230376,0.818784525,-0.44860725
1764511895.2433262,0.0762999999999999,3.9676,0.57988,0.36230376,0.818784525,-0.44860725
1764511895.2433262,0.0762999999999999,3.9676,0.57988,0.36230376,0.818784525,-0.44860725
1764511895.2433262,0.0762999999999999,3.9676,0.57988,0.36230376,0.818784525,-0.44860725
1764511895.2433262,0.0762999999999999,3.9676,0.57988,0.36230376,0.818784525,-0.44860725
1764511895.2433262,0.0762999999999999,3.9676,0.57988,0.36230376,0.818784525,-0.44860725
1764511895.2433262,0.0762999999999999,3.9676,0.57988,0.36230376,0.818784525,-0.44860725
1764511895.2433262,0.0762999999999999,3.9676,0.57988,0.36230376,0.818784525,-0.44860725
1764511895.2443318,-0.42728,4.10494,0.88508,0.36230376,0.819028665,-0.448057935
1764511895.2443318,-0.42728,4.10494,0.88508,0.36230376,0.819028665,-0.448057935
1764511895.2443318,-0.42728,4.10494,0.88508,0.36230376,0.819028665,-0.448057935
1764511895.2443318,-0.42728,4.10494,0.88508,0.36230376,0.819028665,-0.448057935
1764511895.2443318,-0.42728,4.10494,0.88508,0.36230376,0.819028665,-0.448057935
1764511895.2443318,-0.42728,4.10494,0.88508,0.36230376,0.819028665,-0.448057935
1764511895.2443318,-0.42728,4.10494,0.88508,0.36230376,0.819028665,-0.448057935
1764511895.2443318,-0.42728,4.10494,0.88508,0.36230376,0.819028665,-0.448057935
1764511895.2443318,-0.42728,4.10494,0.88508,0.36230376,0.819028665,-0.448057935
1764511895.2443318,-0.42728,4.10494,0.88508,0.36230376,0.819028665,-0.448057935
1764511895.287628,-1.2971,4.059159999999999,0.54936,0.36303618,0.81811314,-0.44848518
1764511895.287628,-1.2971,4.059159999999999,0.54936,0.36303618,0.81811314,-0.44848518
1764511895.287628,-1.2971,4.059159999999999,0.54936,0.36303618,0.81811314,-0.44848518
1764511895.287628,-1.2971,4.059159999999999,0.54936,0.36303618,0.81811314,-0.44848518
1764511895.287628,-1.2971,4.059159999999999,0.54936,0.36303618,0.81811314,-0.44848518
1764511895.287628,-1.2971,4.059159999999999,0.54936,0.36303618,0.81811314,-0.44848518
1764511895.287628,-1.2971,4.059159999999999,0.54936,0.36303618,0.81811314,-0.44848518
1764511895.2889402,-1.2971,4.059159999999999,0.54936,0.36303618,0.81811314,-0.44848518
1764511895.2889402,-1.2971,4.059159999999999,0.54936,0.36303618,0.81811314,-0.44848518
1764511895.2889402,-1.2971,4.059159999999999,0.54936,0.36303618,0.81811314,-0.44848518
1764511895.2889402,-1.08346,4.24228,0.7019599999999999,0.36340239,0.81835728,-0.447325515
1764511895.2889402,-1.08346,4.24228,0.7019599999999999,0.36340239,0.81835728,-0.447325515
1764511895.2889402,-1.08346,4.24228,0.7019599999999999,0.36340239,0.81835728,-0.447325515
1764511895.2889402,-1.08346,4.24228,0.7019599999999999,0.36340239,0.81835728,-0.447325515
1764511895.2889402,-1.08346,4.24228,0.7019599999999999,0.36340239,0.81835728,-0.447325515
1764511895.2889402,-1.08346,4.24228,0.7019599999999999,0.36340239,0.81835728,-0.447325515
1764511895.2889402,-1.08346,4.24228,0.7019599999999999,0.36340239,0.81835728,-0.447325515
1764511895.2889402,-1.08346,4.24228,0.7019599999999999,0.36340239,0.81835728,-0.447325515
1764511895.2889402,-1.08346,4.24228,0.7019599999999999,0.36340239,0.81835728,-0.447325515
1764511895.2889402,-1.08346,4.24228,0.7019599999999999,0.36340239,0.81835728,-0.447325515
1764511895.2889402,-0.6867,3.67766,1.26658,0.3625479,0.816098985,-0.447081375
1764511895.2889402,-0.6867,3.67766,1.26658,0.3625479,0.816098985,-0.447081375
1764511895.2889402,-0.6867,3.67766,1.26658,0.3625479,0.816098985,-0.447081375
1764511895.2889402,-0.6867,3.67766,1.26658,0.3625479,0.816098985,-0.447081375
1764511895.3327198,-0.6867,3.67766,1.26658,0.3625479,0.816098985,-0.447081375
1764511895.3327198,-0.6867,3.67766,1.26658,0.3625479,0.816098985,-0.447081375
1764511895.3327198,-0.6867,3.67766,1.26658,0.3625479,0.816098985,-0.447081375
1764511895.3327198,-0.6867,3.67766,1.26658,0.3625479,0.816098985,-0.447081375
1764511895.3327198,-0.6867,3.67766,1.26658,0.3625479,0.816098985,-0.447081375
1764511895.3327198,-0.6867,3.67766,1.26658,0.3625479,0.816098985,-0.447081375
1764511895.3327198,0.41202,4.1202,0.6867,0.363097215,0.816465195,-0.44763069
1764511895.3327198,0.41202,4.1202,0.6867,0.363097215,0.816465195,-0.44763069
1764511895.3327198,0.41202,4.1202,0.6867,0.363097215,0.816465195,-0.44763069
1764511895.3327198,0.41202,4.1202,0.6867,0.363097215,0.816465195,-0.44763069
1764511895.3327198,0.41202,4.1202,0.6867,0.363097215,0.816465195,-0.44763069
1764511895.3327198,0.41202,4.1202,0.6867,0.363097215,0.816465195,-0.44763069
1764511895.3327198,0.41202,4.1202,0.6867,0.363097215,0.816465195,-0.44763069
1764511895.3327198,0.41202,4.1202,0.6867,0.363097215,0.816465195,-0.44763069
1764511895.3327198,0.41202,4.1202,0.6867,0.363097215,0.816465195,-0.44763069
1764511895.3327198,0.41202,4.1202,0.6867,0.363097215,0.816465195,-0.44763069
1764511895.3327198,-0.6409199999999999,4.47118,0.79352,0.363097215,0.81970005,-0.44933967
1764511895.3327198,-0.6409199999999999,4.47118,0.79352,0.363097215,0.81970005,-0.44933967
1764511895.3327198,-0.6409199999999999,4.47118,0.79352,0.363097215,0.81970005,-0.44933967
1764511895.334264,-0.6409199999999999,4.47118,0.79352,0.363097215,0.81970005,-0.44933967
1764511895.334264,-0.6409199999999999,4.47118,0.79352,0.363097215,0.81970005,-0.44933967
1764511895.334264,-0.6409199999999999,4.47118,0.79352,0.363097215,0.81970005,-0.44933967
1764511895.38153,-0.6409199999999999,4.47118,0.79352,0.363097215,0.81970005,-0.44933967
1764511895.38153,-0.6409199999999999,4.47118,0.79352,0.363097215,0.81970005,-0.44933967
1764511895.38153,-0.6409199999999999,4.47118,0.79352,0.363097215,0.81970005,-0.44933967
1764511895.38153,-0.6409199999999999,4.47118,0.79352,0.363097215,0.81970005,-0.44933967
1764511895.38153,-1.8006799999999998,4.2728,0.47306,0.361144095,0.821470065,-0.449766915
1764511895.38153,-1.8006799999999998,4.2728,0.47306,0.361144095,0.821470065,-0.449766915
1764511895.38153,-1.8006799999999998,4.2728,0.47306,0.361144095,0.821470065,-0.449766915
1764511895.38153,-1.8006799999999998,4.2728,0.47306,0.361144095,0.821470065,-0.449766915
1764511895.38153,-1.8006799999999998,4.2728,0.47306,0.361144095,0.821470065,-0.449766915
1764511895.38153,-1.8006799999999998,4.2728,0.47306,0.361144095,0.821470065,-0.449766915
1764511895.38153,-1.8006799999999998,4.2728,0.47306,0.361144095,0.821470065,-0.449766915
1764511895.38153,-1.8006799999999998,4.2728,0.47306,0.361144095,0.821470065,-0.449766915
1764511895.38153,-1.8006799999999998,4.2728,0.47306,0.361144095,0.821470065,-0.449766915
1764511895.38153,-1.8006799999999998,4.2728,0.47306,0.361144095,0.821470065,-0.449766915
1764511895.38153,-1.86172,3.815,0.85456,0.360167535,0.82018833,-0.449034495
1764511895.38153,-1.86172,3.815,0.85456,0.360167535,0.82018833,-0.449034495
1764511895.38153,-1.86172,3.815,0.85456,0.360167535,0.82018833,-0.449034495
1764511895.38153,-1.86172,3.815,0.85456,0.360167535,0.82018833,-0.449034495
1764511895.38153,-1.86172,3.815,0.85456,0.360167535,0.82018833,-0.449034495
1764511895.3825505,-1.86172,3.815,0.85456,0.360167535,0.82018833,-0.449034495
1764511895.3825505,-1.86172,3.815,0.85456,0.360167535,0.82018833,-0.449034495
1764511895.3825505,-1.86172,3.815,0.85456,0.360167535,0.82018833,-0.449034495
1764511895.3825505,-1.86172,3.815,0.85456,0.360167535,0.82018833,-0.449034495
1764511895.3825505,-1.86172,3.815,0.85456,0.360167535,0.82018833,-0.449034495
1764511895.4276357,-1.4497,3.99812,0.8087799999999999,0.360533745,0.817441755,-0.4479969
1764511895.4276357,-1.4497,3.99812,0.8087799999999999,0.360533745,0.817441755,-0.4479969
1764511895.4276357,-1.4497,3.99812,0.8087799999999999,0.360533745,0.817441755,-0.4479969
1764511895.4276357,-1.4497,3.99812,0.8087799999999999,0.360533745,0.817441755,-0.4479969
1764511895.4276357,-1.4497,3.99812,0.8087799999999999,0.360533745,0.817441755,-0.4479969
1764511895.4276357,-1.4497,3.99812,0.8087799999999999,0.360533745,0.817441755,-0.4479969
1764511895.4276357,-1.4497,3.99812,0.8087799999999999,0.360533745,0.817441755,-0.4479969
1764511895.4286776,-1.4497,3.99812,0.8087799999999999,0.360533745,0.817441755,-0.4479969
1764511895.4286776,-1.4497,3.99812,0.8087799999999999,0.360533745,0.817441755,-0.4479969
1764511895.4286776,-1.4497,3.99812,0.8087799999999999,0.360533745,0.817441755,-0.4479969
1764511895.4286776,-0.56462,3.64714,0.24416,0.36193755,0.81457311,-0.446471025
1764511895.4286776,-0.56462,3.64714,0.24416,0.36193755,0.81457311,-0.446471025
1764511895.4286776,-0.56462,3.64714,0.24416,0.36193755,0.81457311,-0.446471025
1764511895.4286776,-0.56462,3.64714,0.24416,0.36193755,0.81457311,-0.446471025
1764511895.4286776,-0.56462,3.64714,0.24416,0.36193755,0.81457311,-0.446471025
1764511895.4286776,-0.56462,3.64714,0.24416,0.36193755,0.81457311,-0.446471025
1764511895.4286776,-0.56462,3.64714,0.24416,0.36193755,0.81457311,-0.446471025
1764511895.4286776,-0.56462,3.64714,0.24416,0.36193755,0.81457311,-0.446471025
1764511895.4286776,-0.56462,3.64714,0.24416,0.36193755,0.81457311,-0.446471025
1764511895.4286776,-0.56462,3.64714,0.24416,0.36193755,0.81457311,-0.446471025
1764511895.4286776,-0.42728,3.57084,0.8087799999999999,0.36279204,0.815732775,-0.446593095
1764511895.4286776,-0.42728,3.57084,0.8087799999999999,0.36279204,0.815732775,-0.446593095
1764511895.4286776,-0.42728,3.57084,0.8087799999999999,0.36279204,0.815732775,-0.446593095
1764511895.4286776,-0.42728,3.57084,0.8087799999999999,0.36279204,0.815732775,-0.446593095
1764511895.475826,-0.42728,3.57084,0.8087799999999999,0.36279204,0.815732775,-0.446593095
1764511895.475826,-0.42728,3.57084,0.8087799999999999,0.36279204,0.815732775,-0.446593095
1764511895.475826,-0.42728,3.57084,0.8087799999999999,0.36279204,0.815732775,-0.446593095
1764511895.475826,-0.42728,3.57084,0.8087799999999999,0.36279204,0.815732775,-0.446593095
1764511895.475826,-0.42728,3.57084,0.8087799999999999,0.36279204,0.815732775,-0.446593095
1764511895.475826,-0.42728,3.57084,0.8087799999999999,0.36279204,0.815732775,-0.446593095
1764511895.475826,0.0,3.61662,0.4578,0.362975145,0.81640416,-0.44738655
1764511895.4768476,0.0,3.61662,0.4578,0.362975145,0.81640416,-0.44738655
1764511895.4768476,0.0,3.61662,0.4578,0.362975145,0.81640416,-0.44738655
1764511895.4768476,0.0,3.61662,0.4578,0.362975145,0.81640416,-0.44738655
1764511895.4768476,0.0,3.61662,0.4578,0.362975145,0.81640416,-0.44738655
1764511895.4768476,0.0,3.61662,0.4578,0.362975145,0.81640416,-0.44738655
1764511895.4768476,0.0,3.61662,0.4578,0.362975145,0.81640416,-0.44738655
1764511895.4768476,0.0,3.61662,0.4578,0.362975145,0.81640416,-0.44738655
1764511895.4768476,0.0,3.61662,0.4578,0.362975145,0.81640416,-0.44738655
1764511895.4768476,0.0,3.61662,0.4578,0.362975145,0.81640416,-0.44738655
1764511895.4768476,-3.87604,3.79974,0.48832,0.363219285,0.8157938100000001,-0.44860725
1764511895.4768476,-3.87604,3.79974,0.48832,0.363219285,0.8157938100000001,-0.44860725
1764511895.4768476,-3.87604,3.79974,0.48832,0.363219285,0.8157938100000001,-0.44860725
1764511895.4768476,-3.87604,3.79974,0.48832,0.363219285,0.8157938100000001,-0.44860725
1764511895.4768476,-3.87604,3.79974,0.48832,0.363219285,0.8157938100000001,-0.44860725
1764511895.4768476,-3.87604,3.79974,0.48832,0.363219285,0.8157938100000001,-0.44860725
1764511895.5213892,-3.87604,3.79974,0.48832,0.363219285,0.8157938100000001,-0.44860725
1764511895.5213892,-3.87604,3.79974,0.48832,0.363219285,0.8157938100000001,-0.44860725
1764511895.5213892,-3.87604,3.79974,0.48832,0.363219285,0.8157938100000001,-0.44860725
1764511895.5213892,-3.87604,3.79974,0.48832,0.363219285,0.8157938100000001,-0.44860725
1764511895.5213892,-0.13734,4.059159999999999,0.3051999999999999,0.363219285,0.81725865,-0.44933967
1764511895.5213892,-0.13734,4.059159999999999,0.3051999999999999,0.363219285,0.81725865,-0.44933967
1764511895.5213892,-0.13734,4.059159999999999,0.3051999999999999,0.363219285,0.81725865,-0.44933967
1764511895.5213892,-0.13734,4.059159999999999,0.3051999999999999,0.363219285,0.81725865,-0.44933967
1764511895.5213892,-0.13734,4.059159999999999,0.3051999999999999,0.363219285,0.81725865,-0.44933967
1764511895.5213892,-0.13734,4.059159999999999,0.3051999999999999,0.363219285,0.81725865,-0.44933967
1764511895.5213892,-0.13734,4.059159999999999,0.3051999999999999,0.363219285,0.81725865,-0.44933967
1764511895.5213892,-0.13734,4.059159999999999,0.3051999999999999,0.363219285,0.81725865,-0.44933967
1764511895.5213892,-0.13734,4.059159999999999,0.3051999999999999,0.363219285,0.81725865,-0.44933967
1764511895.5213892,-0.13734,4.059159999999999,0.3051999999999999,0.363219285,0.81725865,-0.44933967
1764511895.5213892,-1.2208,3.79974,0.7019599999999999,0.36218169,0.81811314,-0.44958381
1764511895.5226274,-1.2208,3.79974,0.7019599999999999,0.36218169,0.81811314,-0.44958381
1764511895.5226274,-1.2208,3.79974,0.7019599999999999,0.36218169,0.81811314,-0.44958381
1764511895.5226274,-1.2208,3.79974,0.7019599999999999,0.36218169,0.81811314,-0.44958381
1764511895.5226274,-1.2208,3.79974,0.7019599999999999,0.36218169,0.81811314,-0.44958381
1764511895.5226274,-1.2208,3.79974,0.7019599999999999,0.36218169,0.81811314,-0.44958381
1764511895.5226274,-1.2208,3.79974,0.7019599999999999,0.36218169,0.81811314,-0.44958381
1764511895.5226274,-1.2208,3.79974,0.7019599999999999,0.36218169,0.81811314,-0.44958381
1764511895.5226274,-1.2208,3.79974,0.7019599999999999,0.36218169,0.81811314,-0.44958381
1764511895.5226274,-1.2208,3.79974,0.7019599999999999,0.36218169,0.81811314,-0.44958381
1764511895.5670297,-1.57178,3.78448,0.82404,0.36266997,0.81811314,-0.448912425
1764511895.5670297,-1.57178,3.78448,0.82404,0.36266997,0.81811314,-0.448912425
1764511895.5670297,-1.57178,3.78448,0.82404,0.36266997,0.81811314,-0.448912425
1764511895.5670297,-1.57178,3.78448,0.82404,0.36266997,0.81811314,-0.448912425
1764511895.5670297,-1.57178,3.78448,0.82404,0.36266997,0.81811314,-0.448912425
1764511895.5670297,-1.57178,3.78448,0.82404,0.36266997,0.81811314,-0.448912425
1764511895.5670297,-1.57178,3.78448,0.82404,0.36266997,0.81811314,-0.448912425
1764511895.5670297,-1.57178,3.78448,0.82404,0.36266997,0.81811314,-0.448912425
1764511895.5670297,-1.57178,3.78448,0.82404,0.36266997,0.81811314,-0.448912425
1764511895.5670297,-1.57178,3.78448,0.82404,0.36266997,0.81811314,-0.448912425
1764511895.5670297,-1.00716,4.0439,0.7019599999999999,0.36352446,0.81689244,-0.44824104
1764511895.5670297,-1.00716,4.0439,0.7019599999999999,0.36352446,0.81689244,-0.44824104
1764511895.568051,-1.00716,4.0439,0.7019599999999999,0.36352446,0.81689244,-0.44824104
1764511895.568051,-1.00716,4.0439,0.7019599999999999,0.36352446,0.81689244,-0.44824104
1764511895.568051,-1.00716,4.0439,0.7019599999999999,0.36352446,0.81689244,-0.44824104
1764511895.568051,-1.00716,4.0439,0.7019599999999999,0.36352446,0.81689244,-0.44824104
1764511895.568051,-1.00716,4.0439,0.7019599999999999,0.36352446,0.81689244,-0.44824104
1764511895.568051,-1.00716,4.0439,0.7019599999999999,0.36352446,0.81689244,-0.44824104
1764511895.568051,-1.00716,4.0439,0.7019599999999999,0.36352446,0.81689244,-0.44824104
1764511895.568051,-1.00716,4.0439,0.7019599999999999,0.36352446,0.81689244,-0.44824104
1764511895.568051,-0.88508,3.86078,0.62566,0.36352446,0.8168314050000001,-0.44750862
1764511895.5690427,-0.88508,3.86078,0.62566,0.36352446,0.8168314050000001,-0.44750862
1764511895.612609,-0.88508,3.86078,0.62566,0.36352446,0.8168314050000001,-0.44750862
1764511895.612609,-0.88508,3.86078,0.62566,0.36352446,0.8168314050000001,-0.44750862
1764511895.612609,-0.88508,3.86078,0.62566,0.36352446,0.8168314050000001,-0.44750862
1764511895.612609,-0.88508,3.86078,0.62566,0.36352446,0.8168314050000001,-0.44750862
1764511895.6137223,-0.88508,3.86078,0.62566,0.36352446,0.8168314050000001,-0.44750862
1764511895.6137223,-0.88508,3.86078,0.62566,0.36352446,0.8168314050000001,-0.44750862
1764511895.6137223,-0.88508,3.86078,0.62566,0.36352446,0.8168314050000001,-0.44750862
1764511895.6137223,-0.88508,3.86078,0.62566,0.36352446,0.8168314050000001,-0.44750862
1764511895.6137223,0.06104,3.76922,0.57988,0.362731005,0.816465195,-0.446959305
1764511895.6137223,0.06104,3.76922,0.57988,0.362731005,0.816465195,-0.446959305
1764511895.6137223,0.06104,3.76922,0.57988,0.362731005,0.816465195,-0.446959305
1764511895.6137223,0.06104,3.76922,0.57988,0.362731005,0.816465195,-0.446959305
1764511895.6137223,0.06104,3.76922,0.57988,0.362731005,0.816465195,-0.446959305
1764511895.6137223,0.06104,3.76922,0.57988,0.362731005,0.816465195,-0.446959305
1764511895.6137223,0.06104,3.76922,0.57988,0.362731005,0.816465195,-0.446959305
1764511895.6137223,0.06104,3.76922,0.57988,0.362731005,0.816465195,-0.446959305
1764511895.6137223,0.06104,3.76922,0.57988,0.362731005,0.816465195,-0.446959305
1764511895.6137223,0.06104,3.76922,0.57988,0.362731005,0.816465195,-0.446959305
1764511895.6137223,1.2971,4.07442,0.59514,0.36169341,0.816465195,-0.447569655
1764511895.6137223,1.2971,4.07442,0.59514,0.36169341,0.816465195,-0.447569655
1764511895.6137223,1.2971,4.07442,0.59514,0.36169341,0.816465195,-0.447569655
1764511895.6137223,1.2971,4.07442,0.59514,0.36169341,0.816465195,-0.447569655
1764511895.6585746,1.2971,4.07442,0.59514,0.36169341,0.816465195,-0.447569655
1764511895.6585746,1.2971,4.07442,0.59514,0.36169341,0.816465195,-0.447569655
1764511895.6585746,1.2971,4.07442,0.59514,0.36169341,0.816465195,-0.447569655
1764511895.6585746,1.2971,4.07442,0.59514,0.36169341,0.816465195,-0.447569655
1764511895.6585746,1.2971,4.07442,0.59514,0.36169341,0.816465195,-0.447569655
1764511895.6595914,1.2971,4.07442,0.59514,0.36169341,0.816465195,-0.447569655
1764511895.6595914,0.79352,3.61662,0.44254,0.36157134,0.81689244,-0.44787483
1764511895.6595914,0.79352,3.61662,0.44254,0.36157134,0.81689244,-0.44787483
1764511895.6595914,0.79352,3.61662,0.44254,0.36157134,0.81689244,-0.44787483
1764511895.6595914,0.79352,3.61662,0.44254,0.36157134,0.81689244,-0.44787483
1764511895.6595914,0.79352,3.61662,0.44254,0.36157134,0.81689244,-0.44787483
1764511895.6595914,0.79352,3.61662,0.44254,0.36157134,0.81689244,-0.44787483
1764511895.6595914,0.79352,3.61662,0.44254,0.36157134,0.81689244,-0.44787483
1764511895.6595914,0.79352,3.61662,0.44254,0.36157134,0.81689244,-0.44787483
1764511895.6595914,0.79352,3.61662,0.44254,0.36157134,0.81689244,-0.44787483
1764511895.6595914,0.79352,3.61662,0.44254,0.36157134,0.81689244,-0.44787483
1764511895.6595914,0.0762999999999999,4.13546,0.21364,0.362853075,0.817807965,-0.449278635
1764511895.6595914,0.0762999999999999,4.13546,0.21364,0.362853075,0.817807965,-0.449278635
1764511895.660596,0.0762999999999999,4.13546,0.21364,0.362853075,0.817807965,-0.449278635
1764511895.660596,0.0762999999999999,4.13546,0.21364,0.362853075,0.817807965,-0.449278635
1764511895.660596,0.0762999999999999,4.13546,0.21364,0.362853075,0.817807965,-0.449278635
1764511895.660596,0.0762999999999999,4.13546,0.21364,0.362853075,0.817807965,-0.449278635
1764511895.660596,0.0762999999999999,4.13546,0.21364,0.362853075,0.817807965,-0.449278635
1764511895.6618395,0.0762999999999999,4.13546,0.21364,0.362853075,0.817807965,-0.449278635
1764511895.6618395,0.0762999999999999,4.13546,0.21364,0.362853075,0.817807965,-0.449278635
1764511895.6618395,0.0762999999999999,4.13546,0.21364,0.362853075,0.817807965,-0.449278635
1764511895.7070782,-1.43444,4.1202,0.51884,0.362486865,0.818540385,-0.44970588
1764511895.7070782,-1.43444,4.1202,0.51884,0.362486865,0.818540385,-0.44970588
1764511895.7070782,-1.43444,4.1202,0.51884,0.362486865,0.818540385,-0.44970588
1764511895.7070782,-1.43444,4.1202,0.51884,0.362486865,0.818540385,-0.44970588
1764511895.7070782,-1.43444,4.1202,0.51884,0.362486865,0.818540385,-0.44970588
1764511895.7070782,-1.43444,4.1202,0.51884,0.362486865,0.818540385,-0.44970588
1764511895.7070782,-1.43444,4.1202,0.51884,0.362486865,0.818540385,-0.44970588
1764511895.7070782,-1.43444,4.1202,0.51884,0.362486865,0.818540385,-0.44970588
1764511895.7070782,-1.43444,4.1202,0.51884,0.362486865,0.818540385,-0.44970588
1764511895.7070782,-1.43444,4.1202,0.51884,0.362486865,0.818540385,-0.44970588
1764511895.7087038,-1.32762,3.57084,0.24416,0.3613272,0.817685895,-0.44946174
1764511895.7087038,-1.32762,3.57084,0.24416,0.3613272,0.817685895,-0.44946174
1764511895.7087038,-1.32762,3.57084,0.24416,0.3613272,0.817685895,-0.44946174
1764511895.7087038,-1.32762,3.57084,0.24416,0.3613272,0.817685895,-0.44946174
1764511895.7087038,-1.32762,3.57084,0.24416,0.3613272,0.817685895,-0.44946174
1764511895.7087038,-1.32762,3.57084,0.24416,0.3613272,0.817685895,-0.44946174
1764511895.7087038,-1.32762,3.57084,0.24416,0.3613272,0.817685895,-0.44946174
1764511895.7087038,-1.32762,3.57084,0.24416,0.3613272,0.817685895,-0.44946174
1764511895.7087038,-1.32762,3.57084,0.24416,0.3613272,0.817685895,-0.44946174
1764511895.7087038,-1.32762,3.57084,0.24416,0.3613272,0.817685895,-0.44946174
1764511895.7087038,-1.00716,3.67766,0.71722,0.362975145,0.817441755,-0.44946174
1764511895.7087038,-1.00716,3.67766,0.71722,0.362975145,0.817441755,-0.44946174
1764511895.7501938,-1.00716,3.67766,0.71722,0.362975145,0.817441755,-0.44946174
1764511895.7501938,-1.00716,3.67766,0.71722,0.362975145,0.817441755,-0.44946174
1764511895.7501938,-1.00716,3.67766,0.71722,0.362975145,0.817441755,-0.44946174
1764511895.7501938,-1.00716,3.67766,0.71722,0.362975145,0.817441755,-0.44946174
1764511895.7501938,-1.00716,3.67766,0.71722,0.362975145,0.817441755,-0.44946174
1764511895.7501938,-1.00716,3.67766,0.71722,0.362975145,0.817441755,-0.44946174
1764511895.7501938,-1.00716,3.67766,0.71722,0.362975145,0.817441755,-0.44946174
1764511895.7501938,-1.00716,3.67766,0.71722,0.362975145,0.817441755,-0.44946174
1764511895.7501938,-0.50358,3.7387,0.47306,0.364073775,0.819028665,-0.44750862
1764511895.7501938,-0.50358,3.7387,0.47306,0.364073775,0.819028665,-0.44750862
1764511895.7512162,-0.50358,3.7387,0.47306,0.364073775,0.819028665,-0.44750862
1764511895.7512162,-0.50358,3.7387,0.47306,0.364073775,0.819028665,-0.44750862
1764511895.7512162,-0.50358,3.7387,0.47306,0.364073775,0.819028665,-0.44750862
1764511895.7512162,-0.50358,3.7387,0.47306,0.364073775,0.819028665,-0.44750862
1764511895.7512162,-0.50358,3.7387,0.47306,0.364073775,0.819028665,-0.44750862
1764511895.7512162,-0.50358,3.7387,0.47306,0.364073775,0.819028665,-0.44750862
1764511895.7512162,-0.50358,3.7387,0.47306,0.364073775,0.819028665,-0.44750862
1764511895.7512162,-0.50358,3.7387,0.47306,0.364073775,0.819028665,-0.44750862
1764511895.7512162,0.04578,3.44876,0.6409199999999999,0.3625479,0.817685895,-0.446226885
1764511895.7512162,0.04578,3.44876,0.6409199999999999,0.3625479,0.817685895,-0.446226885
1764511895.7512162,0.04578,3.44876,0.6409199999999999,0.3625479,0.817685895,-0.446226885
1764511895.7512162,0.04578,3.44876,0.6409199999999999,0.3625479,0.817685895,-0.446226885
1764511895.7512162,0.04578,3.44876,0.6409199999999999,0.3625479,0.817685895,-0.446226885
1764511895.7512162,0.04578,3.44876,0.6409199999999999,0.3625479,0.817685895,-0.446226885
1764511895.8003347,0.04578,3.44876,0.6409199999999999,0.3625479,0.817685895,-0.446226885
1764511895.8003347,0.04578,3.44876,0.6409199999999999,0.3625479,0.817685895,-0.446226885
1764511895.801331,0.04578,3.44876,0.6409199999999999,0.3625479,0.817685895,-0.446226885
1764511895.801331,0.04578,3.44876,0.6409199999999999,0.3625479,0.817685895,-0.446226885
1764511895.801331,0.8087799999999999,3.99812,0.51884,0.363219285,0.815732775,-0.44811897
1764511895.801331,0.8087799999999999,3.99812,0.51884,0.363219285,0.815732775,-0.44811897
1764511895.801331,0.8087799999999999,3.99812,0.51884,0.363219285,0.815732775,-0.44811897
1764511895.8028245,0.8087799999999999,3.99812,0.51884,0.363219285,0.815732775,-0.44811897
1764511895.8028245,0.8087799999999999,3.99812,0.51884,0.363219285,0.815732775,-0.44811897
1764511895.8028245,0.8087799999999999,3.99812,0.51884,0.363219285,0.815732775,-0.44811897
1764511895.8028245,0.8087799999999999,3.99812,0.51884,0.363219285,0.815732775,-0.44811897
1764511895.803831,0.8087799999999999,3.99812,0.51884,0.363219285,0.815732775,-0.44811897
1764511895.803831,0.8087799999999999,3.99812,0.51884,0.363219285,0.815732775,-0.44811897
1764511895.803831,0.8087799999999999,3.99812,0.51884,0.363219285,0.815732775,-0.44811897
1764511895.803831,-0.10682,4.56274,-0.3051999999999999,0.36303618,0.81811314,-0.450743475
1764511895.803831,-0.10682,4.56274,-0.3051999999999999,0.36303618,0.81811314,-0.450743475
1764511895.805845,-0.10682,4.56274,-0.3051999999999999,0.36303618,0.81811314,-0.450743475
1764511895.805845,-0.10682,4.56274,-0.3051999999999999,0.36303618,0.81811314,-0.450743475
1764511895.805845,-0.10682,4.56274,-0.3051999999999999,0.36303618,0.81811314,-0.450743475
1764511895.805845,-0.10682,4.56274,-0.3051999999999999,0.36303618,0.81811314,-0.450743475
1764511895.8064392,-0.10682,4.56274,-0.3051999999999999,0.36303618,0.81811314,-0.450743475
1764511895.8064392,-0.10682,4.56274,-0.3051999999999999,0.36303618,0.81811314,-0.450743475
1764511895.8064392,-0.10682,4.56274,-0.3051999999999999,0.36303618,0.81811314,-0.450743475
1764511895.8064392,-0.10682,4.56274,-0.3051999999999999,0.36303618,0.81811314,-0.450743475
1764511895.84714,-2.02958,3.17408,0.50358,0.360045465,0.819516945,-0.451964175
1764511895.84714,-2.02958,3.17408,0.50358,0.360045465,0.819516945,-0.451964175
1764511895.84714,-2.02958,3.17408,0.50358,0.360045465,0.819516945,-0.451964175
1764511895.84714,-2.02958,3.17408,0.50358,0.360045465,0.819516945,-0.451964175
1764511895.84714,-2.02958,3.17408,0.50358,0.360045465,0.819516945,-0.451964175
1764511895.84714,-2.02958,3.17408,0.50358,0.360045465,0.819516945,-0.451964175
1764511895.84714,-2.02958,3.17408,0.50358,0.360045465,0.819516945,-0.451964175
1764511895.848159,-2.02958,3.17408,0.50358,0.360045465,0.819516945,-0.451964175
1764511895.848159,-2.02958,3.17408,0.50358,0.360045465,0.819516945,-0.451964175
1764511895.848159,-2.02958,3.17408,0.50358,0.360045465,0.819516945,-0.451964175
1764511895.848159,-3.00622,3.41824,0.9156,0.35925201,0.81725865,-0.45153693
1764511895.848159,-3.00622,3.41824,0.9156,0.35925201,0.81725865,-0.45153693
1764511895.848159,-3.00622,3.41824,0.9156,0.35925201,0.81725865,-0.45153693
1764511895.848159,-3.00622,3.41824,0.9156,0.35925201,0.81725865,-0.45153693
1764511895.848159,-3.00622,3.41824,0.9156,0.35925201,0.81725865,-0.45153693
1764511895.848159,-3.00622,3.41824,0.9156,0.35925201,0.81725865,-0.45153693
1764511895.848159,-3.00622,3.41824,0.9156,0.35925201,0.81725865,-0.45153693
1764511895.848159,-3.00622,3.41824,0.9156,0.35925201,0.81725865,-0.45153693
1764511895.848159,-3.00622,3.41824,0.9156,0.35925201,0.81725865,-0.45153693
1764511895.848159,-3.00622,3.41824,0.9156,0.35925201,0.81725865,-0.45153693
1764511895.8486693,-1.4039199999999998,3.83026,0.59514,0.360655815,0.81567174,-0.45092658
1764511895.8486693,-1.4039199999999998,3.83026,0.59514,0.360655815,0.81567174,-0.45092658
1764511895.8486693,-1.4039199999999998,3.83026,0.59514,0.360655815,0.81567174,-0.45092658
1764511895.8486693,-1.4039199999999998,3.83026,0.59514,0.360655815,0.81567174,-0.45092658
1764511895.896311,-1.4039199999999998,3.83026,0.59514,0.360655815,0.81567174,-0.45092658
1764511895.896311,-1.4039199999999998,3.83026,0.59514,0.360655815,0.81567174,-0.45092658
1764511895.896311,-1.4039199999999998,3.83026,0.59514,0.360655815,0.81567174,-0.45092658
1764511895.896311,-1.4039199999999998,3.83026,0.59514,0.360655815,0.81567174,-0.45092658
1764511895.896311,-1.4039199999999998,3.83026,0.59514,0.360655815,0.81567174,-0.45092658
1764511895.896311,-1.4039199999999998,3.83026,0.59514,0.360655815,0.81567174,-0.45092658
1764511895.896311,-0.19838,4.5017,0.25942,0.362486865,0.81603795,-0.450133125
1764511895.896311,-0.19838,4.5017,0.25942,0.362486865,0.81603795,-0.450133125
1764511895.896311,-0.19838,4.5017,0.25942,0.362486865,0.81603795,-0.450133125
1764511895.896311,-0.19838,4.5017,0.25942,0.362486865,0.81603795,-0.450133125
1764511895.896311,-0.19838,4.5017,0.25942,0.362486865,0.81603795,-0.450133125
1764511895.896311,-0.19838,4.5017,0.25942,0.362486865,0.81603795,-0.450133125
1764511895.896311,-0.19838,4.5017,0.25942,0.362486865,0.81603795,-0.450133125
1764511895.896311,-0.19838,4.5017,0.25942,0.362486865,0.81603795,-0.450133125
1764511895.896311,-0.19838,4.5017,0.25942,0.362486865,0.81603795,-0.450133125
1764511895.896311,-0.19838,4.5017,0.25942,0.362486865,0.81603795,-0.450133125
1764511895.896311,-0.3051999999999999,4.56274,0.18312,0.36279204,0.818174175,-0.4492176
1764511895.896311,-0.3051999999999999,4.56274,0.18312,0.36279204,0.818174175,-0.4492176
1764511895.896311,-0.3051999999999999,4.56274,0.18312,0.36279204,0.818174175,-0.4492176
1764511895.896311,-0.3051999999999999,4.56274,0.18312,0.36279204,0.818174175,-0.4492176
1764511895.896311,-0.3051999999999999,4.56274,0.18312,0.36279204,0.818174175,-0.4492176
1764511895.896311,-0.3051999999999999,4.56274,0.18312,0.36279204,0.818174175,-0.4492176
1764511895.9444275,-0.3051999999999999,4.56274,0.18312,0.36279204,0.818174175,-0.4492176
1764511895.9444275,-0.3051999999999999,4.56274,0.18312,0.36279204,0.818174175,-0.4492176
1764511895.9444275,-0.3051999999999999,4.56274,0.18312,0.36279204,0.818174175,-0.4492176
1764511895.9444275,-0.3051999999999999,4.56274,0.18312,0.36279204,0.818174175,-0.4492176
1764511895.9444275,-0.56462,4.059159999999999,0.59514,0.36169341,0.819028665,-0.44860725
1764511895.9444275,-0.56462,4.059159999999999,0.59514,0.36169341,0.819028665,-0.44860725
1764511895.9444275,-0.56462,4.059159999999999,0.59514,0.36169341,0.819028665,-0.44860725
1764511895.9444275,-0.56462,4.059159999999999,0.59514,0.36169341,0.819028665,-0.44860725
1764511895.9444275,-0.56462,4.059159999999999,0.59514,0.36169341,0.819028665,-0.44860725
1764511895.9444275,-0.56462,4.059159999999999,0.59514,0.36169341,0.819028665,-0.44860725
1764511895.9444275,-0.56462,4.059159999999999,0.59514,0.36169341,0.819028665,-0.44860725
1764511895.9444275,-0.56462,4.059159999999999,0.59514,0.36169341,0.819028665,-0.44860725
1764511895.9454207,-0.56462,4.059159999999999,0.59514,0.36169341,0.819028665,-0.44860725
1764511895.9454207,-0.56462,4.059159999999999,0.59514,0.36169341,0.819028665,-0.44860725
1764511895.9454207,-0.6103999999999999,4.440659999999999,0.7019599999999999,0.36181548,0.817685895,-0.448302075
1764511895.9454207,-0.6103999999999999,4.440659999999999,0.7019599999999999,0.36181548,0.817685895,-0.448302075
1764511895.9454207,-0.6103999999999999,4.440659999999999,0.7019599999999999,0.36181548,0.817685895,-0.448302075
1764511895.9454207,-0.6103999999999999,4.440659999999999,0.7019599999999999,0.36181548,0.817685895,-0.448302075
1764511895.9454207,-0.6103999999999999,4.440659999999999,0.7019599999999999,0.36181548,0.817685895,-0.448302075
1764511895.9454207,-0.6103999999999999,4.440659999999999,0.7019599999999999,0.36181548,0.817685895,-0.448302075
1764511895.9454207,-0.6103999999999999,4.440659999999999,0.7019599999999999,0.36181548,0.817685895,-0.448302075
1764511895.9454207,-0.6103999999999999,4.440659999999999,0.7019599999999999,0.36181548,0.817685895,-0.448302075
1764511895.9454207,-0.6103999999999999,4.440659999999999,0.7019599999999999,0.36181548,0.817685895,-0.448302075
1764511895.9454207,-0.6103999999999999,4.440659999999999,0.7019599999999999,0.36181548,0.817685895,-0.448302075
1764511895.989643,-0.6714399999999999,4.15072,0.8087799999999999,0.36205962,0.815244495,-0.44811897
1764511895.989643,-0.6714399999999999,4.15072,0.8087799999999999,0.36205962,0.815244495,-0.44811897
1764511895.989643,-0.6714399999999999,4.15072,0.8087799999999999,0.36205962,0.815244495,-0.44811897
1764511895.989643,-0.6714399999999999,4.15072,0.8087799999999999,0.36205962,0.815244495,-0.44811897
1764511895.989643,-0.6714399999999999,4.15072,0.8087799999999999,0.36205962,0.815244495,-0.44811897
1764511895.989643,-0.6714399999999999,4.15072,0.8087799999999999,0.36205962,0.815244495,-0.44811897
1764511895.989643,-0.6714399999999999,4.15072,0.8087799999999999,0.36205962,0.815244495,-0.44811897
1764511895.989643,-0.6714399999999999,4.15072,0.8087799999999999,0.36205962,0.815244495,-0.44811897
1764511895.989643,-0.6714399999999999,4.15072,0.8087799999999999,0.36205962,0.815244495,-0.44811897
1764511895.989643,-0.6714399999999999,4.15072,0.8087799999999999,0.36205962,0.815244495,-0.44811897
1764511895.9906516,-1.4039199999999998,3.69292,0.3357199999999999,0.36340239,0.816465195,-0.44775276
1764511895.9906516,-1.4039199999999998,3.69292,0.3357199999999999,0.36340239,0.816465195,-0.44775276
1764511895.9906516,-1.4039199999999998,3.69292,0.3357199999999999,0.36340239,0.816465195,-0.44775276
1764511895.9906516,-1.4039199999999998,3.69292,0.3357199999999999,0.36340239,0.816465195,-0.44775276
1764511895.9906516,-1.4039199999999998,3.69292,0.3357199999999999,0.36340239,0.816465195,-0.44775276
1764511895.9906516,-1.4039199999999998,3.69292,0.3357199999999999,0.36340239,0.816465195,-0.44775276
1764511895.9911668,-1.4039199999999998,3.69292,0.3357199999999999,0.36340239,0.816465195,-0.44775276
1764511895.9911668,-1.4039199999999998,3.69292,0.3357199999999999,0.36340239,0.816465195,-0.44775276
1764511895.9921994,-1.4039199999999998,3.69292,0.3357199999999999,0.36340239,0.816465195,-0.44775276
1764511895.9921994,-1.4039199999999998,3.69292,0.3357199999999999,0.36340239,0.816465195,-0.44775276
1764511895.9921994,-1.69386,3.61662,0.88508,0.362364795,0.815854845,-0.44726448
1764511895.9921994,-1.69386,3.61662,0.88508,0.362364795,0.815854845,-0.44726448
1764511895.9921994,-1.69386,3.61662,0.88508,0.362364795,0.815854845,-0.44726448
1764511895.9921994,-1.69386,3.61662,0.88508,0.362364795,0.815854845,-0.44726448
1764511896.0400577,-1.69386,3.61662,0.88508,0.362364795,0.815854845,-0.44726448
1764511896.0400577,-1.69386,3.61662,0.88508,0.362364795,0.815854845,-0.44726448
1764511896.0400577,-1.69386,3.61662,0.88508,0.362364795,0.815854845,-0.44726448
1764511896.0400577,-1.69386,3.61662,0.88508,0.362364795,0.815854845,-0.44726448
1764511896.0400577,-1.69386,3.61662,0.88508,0.362364795,0.815854845,-0.44726448
1764511896.0410614,-1.69386,3.61662,0.88508,0.362364795,0.815854845,-0.44726448
1764511896.0410614,-1.03768,3.7387,0.9919,0.36193755,0.81493932,-0.447325515
1764511896.0410614,-1.03768,3.7387,0.9919,0.36193755,0.81493932,-0.447325515
1764511896.0410614,-1.03768,3.7387,0.9919,0.36193755,0.81493932,-0.447325515
1764511896.0410614,-1.03768,3.7387,0.9919,0.36193755,0.81493932,-0.447325515
1764511896.0410614,-1.03768,3.7387,0.9919,0.36193755,0.81493932,-0.447325515
1764511896.0410614,-1.03768,3.7387,0.9919,0.36193755,0.81493932,-0.447325515
1764511896.0410614,-1.03768,3.7387,0.9919,0.36193755,0.81493932,-0.447325515
1764511896.0410614,-1.03768,3.7387,0.9919,0.36193755,0.81493932,-0.447325515
1764511896.0410614,-1.03768,3.7387,0.9919,0.36193755,0.81493932,-0.447325515
1764511896.0410614,-1.03768,3.7387,0.9919,0.36193755,0.81493932,-0.447325515
1764511896.0410614,-0.85456,4.059159999999999,0.48832,0.36328032,0.817869,-0.44824104
1764511896.0410614,-0.85456,4.059159999999999,0.48832,0.36328032,0.817869,-0.44824104
1764511896.0410614,-0.85456,4.059159999999999,0.48832,0.36328032,0.817869,-0.44824104
1764511896.0410614,-0.85456,4.059159999999999,0.48832,0.36328032,0.817869,-0.44824104
1764511896.0410614,-0.85456,4.059159999999999,0.48832,0.36328032,0.817869,-0.44824104
1764511896.0410614,-0.85456,4.059159999999999,0.48832,0.36328032,0.817869,-0.44824104
1764511896.0410614,-0.85456,4.059159999999999,0.48832,0.36328032,0.817869,-0.44824104
1764511896.0410614,-0.85456,4.059159999999999,0.48832,0.36328032,0.817869,-0.44824104
1764511896.087084,-0.85456,4.059159999999999,0.48832,0.36328032,0.817869,-0.44824104
1764511896.0880806,-0.85456,4.059159999999999,0.48832,0.36328032,0.817869,-0.44824104
1764511896.0880806,-1.43444,4.18124,0.85456,0.36328032,0.8204935050000001,-0.44872932
1764511896.0880806,-1.43444,4.18124,0.85456,0.36328032,0.8204935050000001,-0.44872932
1764511896.0880806,-1.43444,4.18124,0.85456,0.36328032,0.8204935050000001,-0.44872932
1764511896.0880806,-1.43444,4.18124,0.85456,0.36328032,0.8204935050000001,-0.44872932
1764511896.089079,-1.43444,4.18124,0.85456,0.36328032,0.8204935050000001,-0.44872932
1764511896.089079,-1.43444,4.18124,0.85456,0.36328032,0.8204935050000001,-0.44872932
1764511896.089079,-1.43444,4.18124,0.85456,0.36328032,0.8204935050000001,-0.44872932
1764511896.089079,-1.43444,4.18124,0.85456,0.36328032,0.8204935050000001,-0.44872932
1764511896.089079,-1.43444,4.18124,0.85456,0.36328032,0.8204935050000001,-0.44872932
1764511896.0900702,-1.43444,4.18124,0.85456,0.36328032,0.8204935050000001,-0.44872932
1764511896.0900702,-1.73964,3.95234,0.57988,0.361388235,0.8200052250000001,-0.44848518
1764511896.0900702,-1.73964,3.95234,0.57988,0.361388235,0.8200052250000001,-0.44848518
1764511896.0900702,-1.73964,3.95234,0.57988,0.361388235,0.8200052250000001,-0.44848518
1764511896.0910678,-1.73964,3.95234,0.57988,0.361388235,0.8200052250000001,-0.44848518
1764511896.0910678,-1.73964,3.95234,0.57988,0.361388235,0.8200052250000001,-0.44848518
1764511896.0910678,-1.73964,3.95234,0.57988,0.361388235,0.8200052250000001,-0.44848518
1764511896.0917473,-1.73964,3.95234,0.57988,0.361388235,0.8200052250000001,-0.44848518
1764511896.0917473,-1.73964,3.95234,0.57988,0.361388235,0.8200052250000001,-0.44848518
1764511896.0917473,-1.73964,3.95234,0.57988,0.361388235,0.8200052250000001,-0.44848518
1764511896.0917473,-1.73964,3.95234,0.57988,0.361388235,0.8200052250000001,-0.44848518
1764511896.0917473,-1.32762,3.86078,1.17502,0.36096099,0.81774693,-0.44726448
1764511896.0917473,-1.32762,3.86078,1.17502,0.36096099,0.81774693,-0.44726448
1764511896.1337192,-1.32762,3.86078,1.17502,0.36096099,0.81774693,-0.44726448
1764511896.1337192,-1.32762,3.86078,1.17502,0.36096099,0.81774693,-0.44726448
1764511896.1337192,-1.32762,3.86078,1.17502,0.36096099,0.81774693,-0.44726448
1764511896.1337192,-1.32762,3.86078,1.17502,0.36096099,0.81774693,-0.44726448
1764511896.1337192,-1.32762,3.86078,1.17502,0.36096099,0.81774693,-0.44726448
1764511896.1337192,-1.32762,3.86078,1.17502,0.36096099,0.81774693,-0.44726448
1764511896.1337192,-1.32762,3.86078,1.17502,0.36096099,0.81774693,-0.44726448
1764511896.1337192,-1.32762,3.86078,1.17502,0.36096099,0.81774693,-0.44726448
1764511896.134731,-0.4578,4.07442,0.50358,0.362242725,0.814267935,-0.446348955
1764511896.134731,-0.4578,4.07442,0.50358,0.362242725,0.814267935,-0.446348955
1764511896.134731,-0.4578,4.07442,0.50358,0.362242725,0.814267935,-0.446348955
1764511896.134731,-0.4578,4.07442,0.50358,0.362242725,0.814267935,-0.446348955
1764511896.134731,-0.4578,4.07442,0.50358,0.362242725,0.814267935,-0.446348955
1764511896.134731,-0.4578,4.07442,0.50358,0.362242725,0.814267935,-0.446348955
1764511896.134731,-0.4578,4.07442,0.50358,0.362242725,0.814267935,-0.446348955
1764511896.134731,-0.4578,4.07442,0.50358,0.362242725,0.814267935,-0.446348955
1764511896.134731,-0.4578,4.07442,0.50358,0.362242725,0.814267935,-0.446348955
1764511896.134731,-0.4578,4.07442,0.50358,0.362242725,0.814267935,-0.446348955
1764511896.134731,-0.28994,4.33384,0.8392999999999999,0.363585495,0.81432897,-0.4467762
1764511896.134731,-0.28994,4.33384,0.8392999999999999,0.363585495,0.81432897,-0.4467762
1764511896.134731,-0.28994,4.33384,0.8392999999999999,0.363585495,0.81432897,-0.4467762
1764511896.134731,-0.28994,4.33384,0.8392999999999999,0.363585495,0.81432897,-0.4467762
1764511896.134731,-0.28994,4.33384,0.8392999999999999,0.363585495,0.81432897,-0.4467762
1764511896.134731,-0.28994,4.33384,0.8392999999999999,0.363585495,0.81432897,-0.4467762
1764511896.1796615,-0.28994,4.33384,0.8392999999999999,0.363585495,0.81432897,-0.4467762
1764511896.1796615,-0.28994,4.33384,0.8392999999999999,0.363585495,0.81432897,-0.4467762
1764511896.1796615,-0.28994,4.33384,0.8392999999999999,0.363585495,0.81432897,-0.4467762
1764511896.1796615,-0.28994,4.33384,0.8392999999999999,0.363585495,0.81432897,-0.4467762
1764511896.1796615,-0.27468,3.84552,0.5341,0.363219285,0.815610705,-0.4467762
1764511896.1796615,-0.27468,3.84552,0.5341,0.363219285,0.815610705,-0.4467762
1764511896.1796615,-0.27468,3.84552,0.5341,0.363219285,0.815610705,-0.4467762
1764511896.1796615,-0.27468,3.84552,0.5341,0.363219285,0.815610705,-0.4467762
1764511896.1796615,-0.27468,3.84552,0.5341,0.363219285,0.815610705,-0.4467762
1764511896.1796615,-0.27468,3.84552,0.5341,0.363219285,0.815610705,-0.4467762
1764511896.1796615,-0.27468,3.84552,0.5341,0.363219285,0.815610705,-0.4467762
1764511896.1796615,-0.27468,3.84552,0.5341,0.363219285,0.815610705,-0.4467762
1764511896.1796615,-0.27468,3.84552,0.5341,0.363219285,0.815610705,-0.4467762
1764511896.1816778,-0.27468,3.84552,0.5341,0.363219285,0.815610705,-0.4467762
1764511896.1816778,0.03052,3.46402,0.8392999999999999,0.36340239,0.815488635,-0.4479969
1764511896.1816778,0.03052,3.46402,0.8392999999999999,0.36340239,0.815488635,-0.4479969
1764511896.1816778,0.03052,3.46402,0.8392999999999999,0.36340239,0.815488635,-0.4479969
1764511896.1816778,0.03052,3.46402,0.8392999999999999,0.36340239,0.815488635,-0.4479969
1764511896.1816778,0.03052,3.46402,0.8392999999999999,0.36340239,0.815488635,-0.4479969
1764511896.1816778,0.03052,3.46402,0.8392999999999999,0.36340239,0.815488635,-0.4479969
1764511896.1816778,0.03052,3.46402,0.8392999999999999,0.36340239,0.815488635,-0.4479969
1764511896.1816778,0.03052,3.46402,0.8392999999999999,0.36340239,0.815488635,-0.4479969
1764511896.227404,0.03052,3.46402,0.8392999999999999,0.36340239,0.815488635,-0.4479969
1764511896.227404,0.03052,3.46402,0.8392999999999999,0.36340239,0.815488635,-0.4479969
1764511896.227404,-0.03052,4.15072,0.88508,0.36328032,0.81603795,-0.448424145
1764511896.227404,-0.03052,4.15072,0.88508,0.36328032,0.81603795,-0.448424145
1764511896.227404,-0.03052,4.15072,0.88508,0.36328032,0.81603795,-0.448424145
1764511896.227404,-0.03052,4.15072,0.88508,0.36328032,0.81603795,-0.448424145
1764511896.2289374,-0.03052,4.15072,0.88508,0.36328032,0.81603795,-0.448424145
1764511896.2289374,-0.03052,4.15072,0.88508,0.36328032,0.81603795,-0.448424145
1764511896.2289374,-0.03052,4.15072,0.88508,0.36328032,0.81603795,-0.448424145
1764511896.2289374,-0.03052,4.15072,0.88508,0.36328032,0.81603795,-0.448424145
1764511896.2289374,-0.03052,4.15072,0.88508,0.36328032,0.81603795,-0.448424145
1764511896.2289374,-0.03052,4.15072,0.88508,0.36328032,0.81603795,-0.448424145
1764511896.2289374,-0.24416,4.0439,0.54936,0.36242583,0.81835728,-0.448790355
1764511896.2289374,-0.24416,4.0439,0.54936,0.36242583,0.81835728,-0.448790355
1764511896.2289374,-0.24416,4.0439,0.54936,0.36242583,0.81835728,-0.448790355
1764511896.2289374,-0.24416,4.0439,0.54936,0.36242583,0.81835728,-0.448790355
1764511896.2289374,-0.24416,4.0439,0.54936,0.36242583,0.81835728,-0.448790355
1764511896.2289374,-0.24416,4.0439,0.54936,0.36242583,0.81835728,-0.448790355
1764511896.2289374,-0.24416,4.0439,0.54936,0.36242583,0.81835728,-0.448790355
1764511896.2289374,-0.24416,4.0439,0.54936,0.36242583,0.81835728,-0.448790355
1764511896.2289374,-0.24416,4.0439,0.54936,0.36242583,0.81835728,-0.448790355
1764511896.2289374,-0.24416,4.0439,0.54936,0.36242583,0.81835728,-0.448790355
1764511896.2289374,-1.35814,3.8913,0.7019599999999999,0.363097215,0.819516945,-0.448912425
1764511896.2289374,-1.35814,3.8913,0.7019599999999999,0.363097215,0.819516945,-0.448912425
1764511896.271572,-1.35814,3.8913,0.7019599999999999,0.363097215,0.819516945,-0.448912425
1764511896.271572,-1.35814,3.8913,0.7019599999999999,0.363097215,0.819516945,-0.448912425
1764511896.271572,-1.35814,3.8913,0.7019599999999999,0.363097215,0.819516945,-0.448912425
1764511896.271572,-1.35814,3.8913,0.7019599999999999,0.363097215,0.819516945,-0.448912425
1764511896.271572,-1.35814,3.8913,0.7019599999999999,0.363097215,0.819516945,-0.448912425
1764511896.271572,-1.35814,3.8913,0.7019599999999999,0.363097215,0.819516945,-0.448912425
1764511896.2731051,-1.35814,3.8913,0.7019599999999999,0.363097215,0.819516945,-0.448912425
1764511896.2731051,-1.35814,3.8913,0.7019599999999999,0.363097215,0.819516945,-0.448912425
1764511896.2731051,-1.0682,3.47928,1.02242,0.363463425,0.817441755,-0.448057935
1764511896.2731051,-1.0682,3.47928,1.02242,0.363463425,0.817441755,-0.448057935
1764511896.2731051,-1.0682,3.47928,1.02242,0.363463425,0.817441755,-0.448057935
1764511896.2731051,-1.0682,3.47928,1.02242,0.363463425,0.817441755,-0.448057935
1764511896.2731051,-1.0682,3.47928,1.02242,0.363463425,0.817441755,-0.448057935
1764511896.274129,-1.0682,3.47928,1.02242,0.363463425,0.817441755,-0.448057935
1764511896.274129,-1.0682,3.47928,1.02242,0.363463425,0.817441755,-0.448057935
1764511896.274129,-1.0682,3.47928,1.02242,0.363463425,0.817441755,-0.448057935
1764511896.274129,-1.0682,3.47928,1.02242,0.363463425,0.817441755,-0.448057935
1764511896.274129,-1.0682,3.47928,1.02242,0.363463425,0.817441755,-0.448057935
1764511896.274129,-0.2289,3.76922,0.50358,0.363219285,0.81616002,-0.447203445
1764511896.274129,-0.2289,3.76922,0.50358,0.363219285,0.81616002,-0.447203445
1764511896.274129,-0.2289,3.76922,0.50358,0.363219285,0.81616002,-0.447203445
1764511896.274129,-0.2289,3.76922,0.50358,0.363219285,0.81616002,-0.447203445
1764511896.274129,-0.2289,3.76922,0.50358,0.363219285,0.81616002,-0.447203445
1764511896.274129,-0.2289,3.76922,0.50358,0.363219285,0.81616002,-0.447203445
1764511896.318653,-0.2289,3.76922,0.50358,0.363219285,0.81616002,-0.447203445
1764511896.318653,-0.2289,3.76922,0.50358,0.363219285,0.81616002,-0.447203445
1764511896.318653,-0.2289,3.76922,0.50358,0.363219285,0.81616002,-0.447203445
1764511896.318653,-0.2289,3.76922,0.50358,0.363219285,0.81616002,-0.447203445
1764511896.318653,0.763,3.49454,0.57988,0.363341355,0.815366565,-0.446715165
1764511896.318653,0.763,3.49454,0.57988,0.363341355,0.815366565,-0.446715165
1764511896.318653,0.763,3.49454,0.57988,0.363341355,0.815366565,-0.446715165
1764511896.318653,0.763,3.49454,0.57988,0.363341355,0.815366565,-0.446715165
1764511896.318653,0.763,3.49454,0.57988,0.363341355,0.815366565,-0.446715165
1764511896.318653,0.763,3.49454,0.57988,0.363341355,0.815366565,-0.446715165
1764511896.318653,0.763,3.49454,0.57988,0.363341355,0.815366565,-0.446715165
1764511896.318653,0.763,3.49454,0.57988,0.363341355,0.815366565,-0.446715165
1764511896.318653,0.763,3.49454,0.57988,0.363341355,0.815366565,-0.446715165
1764511896.318653,0.763,3.49454,0.57988,0.363341355,0.815366565,-0.446715165
1764511896.318653,0.82404,4.10494,0.3509799999999999,0.362731005,0.8157938100000001,-0.44714241
1764511896.3191893,0.82404,4.10494,0.3509799999999999,0.362731005,0.8157938100000001,-0.44714241
1764511896.3191893,0.82404,4.10494,0.3509799999999999,0.362731005,0.8157938100000001,-0.44714241
1764511896.3191893,0.82404,4.10494,0.3509799999999999,0.362731005,0.8157938100000001,-0.44714241
1764511896.3191893,0.82404,4.10494,0.3509799999999999,0.362731005,0.8157938100000001,-0.44714241
1764511896.3191893,0.82404,4.10494,0.3509799999999999,0.362731005,0.8157938100000001,-0.44714241
1764511896.3191893,0.82404,4.10494,0.3509799999999999,0.362731005,0.8157938100000001,-0.44714241
1764511896.3191893,0.82404,4.10494,0.3509799999999999,0.362731005,0.8157938100000001,-0.44714241
1764511896.3665016,0.82404,4.10494,0.3509799999999999,0.362731005,0.8157938100000001,-0.44714241
1764511896.3665016,0.82404,4.10494,0.3509799999999999,0.362731005,0.8157938100000001,-0.44714241
1764511896.3665016,1.08346,3.70818,0.1525999999999999,0.36205962,0.816953475,-0.4479969
1764511896.3665016,1.08346,3.70818,0.1525999999999999,0.36205962,0.816953475,-0.4479969
1764511896.3665016,1.08346,3.70818,0.1525999999999999,0.36205962,0.816953475,-0.4479969
1764511896.3665016,1.08346,3.70818,0.1525999999999999,0.36205962,0.816953475,-0.4479969
1764511896.3665016,1.08346,3.70818,0.1525999999999999,0.36205962,0.816953475,-0.4479969
1764511896.3665016,1.08346,3.70818,0.1525999999999999,0.36205962,0.816953475,-0.4479969
1764511896.3665016,1.08346,3.70818,0.1525999999999999,0.36205962,0.816953475,-0.4479969
1764511896.3665016,1.08346,3.70818,0.1525999999999999,0.36205962,0.816953475,-0.4479969
1764511896.3665016,1.08346,3.70818,0.1525999999999999,0.36205962,0.816953475,-0.4479969
1764511896.3675184,1.08346,3.70818,0.1525999999999999,0.36205962,0.816953475,-0.4479969
1764511896.3675184,0.6867,3.52506,0.36624,0.36144927,0.817563825,-0.44885139
1764511896.3675184,0.6867,3.52506,0.36624,0.36144927,0.817563825,-0.44885139
1764511896.3675184,0.6867,3.52506,0.36624,0.36144927,0.817563825,-0.44885139
1764511896.3675184,0.6867,3.52506,0.36624,0.36144927,0.817563825,-0.44885139
1764511896.3675184,0.6867,3.52506,0.36624,0.36144927,0.817563825,-0.44885139
1764511896.3675184,0.6867,3.52506,0.36624,0.36144927,0.817563825,-0.44885139
1764511896.3675184,0.6867,3.52506,0.36624,0.36144927,0.817563825,-0.44885139
1764511896.3675184,0.6867,3.52506,0.36624,0.36144927,0.817563825,-0.44885139
1764511896.3675184,0.6867,3.52506,0.36624,0.36144927,0.817563825,-0.44885139
1764511896.3675184,0.6867,3.52506,0.36624,0.36144927,0.817563825,-0.44885139
1764511896.3675184,0.12208,4.28806,0.7019599999999999,0.36157134,0.817930035,-0.449400705
1764511896.3675184,0.12208,4.28806,0.7019599999999999,0.36157134,0.817930035,-0.449400705
1764511896.413675,0.12208,4.28806,0.7019599999999999,0.36157134,0.817930035,-0.449400705
1764511896.413675,0.12208,4.28806,0.7019599999999999,0.36157134,0.817930035,-0.449400705
1764511896.413675,0.12208,4.28806,0.7019599999999999,0.36157134,0.817930035,-0.449400705
1764511896.4146814,0.12208,4.28806,0.7019599999999999,0.36157134,0.817930035,-0.449400705
1764511896.4146814,0.12208,4.28806,0.7019599999999999,0.36157134,0.817930035,-0.449400705
1764511896.4146814,0.12208,4.28806,0.7019599999999999,0.36157134,0.817930035,-0.449400705
1764511896.4146814,0.12208,4.28806,0.7019599999999999,0.36157134,0.817930035,-0.449400705
1764511896.4156811,0.12208,4.28806,0.7019599999999999,0.36157134,0.817930035,-0.449400705
1764511896.4156811,-1.2971,3.83026,0.97664,0.362853075,0.81994419,-0.44958381
1764511896.4162023,-1.2971,3.83026,0.97664,0.362853075,0.81994419,-0.44958381
1764511896.4162023,-1.2971,3.83026,0.97664,0.362853075,0.81994419,-0.44958381
1764511896.4162023,-1.2971,3.83026,0.97664,0.362853075,0.81994419,-0.44958381
1764511896.4162023,-1.2971,3.83026,0.97664,0.362853075,0.81994419,-0.44958381
1764511896.4162023,-1.2971,3.83026,0.97664,0.362853075,0.81994419,-0.44958381
1764511896.41723,-1.2971,3.83026,0.97664,0.362853075,0.81994419,-0.44958381
1764511896.41723,-1.2971,3.83026,0.97664,0.362853075,0.81994419,-0.44958381
1764511896.41723,-1.2971,3.83026,0.97664,0.362853075,0.81994419,-0.44958381
1764511896.4177454,-1.2971,3.83026,0.97664,0.362853075,0.81994419,-0.44958381
1764511896.4177454,-1.26658,3.49454,0.6103999999999999,0.36157134,0.81872349,-0.448668285
1764511896.4177454,-1.26658,3.49454,0.6103999999999999,0.36157134,0.81872349,-0.448668285
1764511896.4182122,-1.26658,3.49454,0.6103999999999999,0.36157134,0.81872349,-0.448668285
1764511896.4182122,-1.26658,3.49454,0.6103999999999999,0.36157134,0.81872349,-0.448668285
1764511896.4182122,-1.26658,3.49454,0.6103999999999999,0.36157134,0.81872349,-0.448668285
1764511896.4182122,-1.26658,3.49454,0.6103999999999999,0.36157134,0.81872349,-0.448668285
1764511896.459784,-1.26658,3.49454,0.6103999999999999,0.36157134,0.81872349,-0.448668285
1764511896.459784,-1.26658,3.49454,0.6103999999999999,0.36157134,0.81872349,-0.448668285
1764511896.459784,-1.26658,3.49454,0.6103999999999999,0.36157134,0.81872349,-0.448668285
1764511896.459784,-1.26658,3.49454,0.6103999999999999,0.36157134,0.81872349,-0.448668285
1764511896.459784,-0.3815,3.3572,0.7019599999999999,0.361998585,0.81677037,-0.449156565
1764511896.459784,-0.3815,3.3572,0.7019599999999999,0.361998585,0.81677037,-0.449156565
1764511896.459784,-0.3815,3.3572,0.7019599999999999,0.361998585,0.81677037,-0.449156565
1764511896.459784,-0.3815,3.3572,0.7019599999999999,0.361998585,0.81677037,-0.449156565
1764511896.461352,-0.3815,3.3572,0.7019599999999999,0.361998585,0.81677037,-0.449156565
1764511896.4691155,-0.3815,3.3572,0.7019599999999999,0.361998585,0.81677037,-0.449156565
1764511896.4691155,-0.3815,3.3572,0.7019599999999999,0.361998585,0.81677037,-0.449156565
1764511896.4701085,-0.3815,3.3572,0.7019599999999999,0.361998585,0.81677037,-0.449156565
1764511896.4701085,-0.3815,3.3572,0.7019599999999999,0.361998585,0.81677037,-0.449156565
1764511896.4701085,-0.3815,3.3572,0.7019599999999999,0.361998585,0.81677037,-0.449156565
1764511896.4701085,-0.3357199999999999,4.15072,0.4578,0.364684125,0.81835728,-0.448546215
1764511896.4711156,-0.3357199999999999,4.15072,0.4578,0.364684125,0.81835728,-0.448546215
1764511896.4711156,-0.3357199999999999,4.15072,0.4578,0.364684125,0.81835728,-0.448546215
1764511896.4711156,-0.3357199999999999,4.15072,0.4578,0.364684125,0.81835728,-0.448546215
1764511896.4711156,-0.3357199999999999,4.15072,0.4578,0.364684125,0.81835728,-0.448546215
1764511896.4711156,-0.3357199999999999,4.15072,0.4578,0.364684125,0.81835728,-0.448546215
1764511896.4711156,-0.3357199999999999,4.15072,0.4578,0.364684125,0.81835728,-0.448546215
1764511896.4721138,-0.3357199999999999,4.15072,0.4578,0.364684125,0.81835728,-0.448546215
1764511896.506875,-0.3357199999999999,4.15072,0.4578,0.364684125,0.81835728,-0.448546215
1764511896.506875,-0.3357199999999999,4.15072,0.4578,0.364684125,0.81835728,-0.448546215
1764511896.5073917,0.27468,3.23512,0.47306,0.363707565,0.81677037,-0.4467762
1764511896.5073917,0.27468,3.23512,0.47306,0.363707565,0.81677037,-0.4467762
1764511896.5073917,0.27468,3.23512,0.47306,0.363707565,0.81677037,-0.4467762
1764511896.5073917,0.27468,3.23512,0.47306,0.363707565,0.81677037,-0.4467762
1764511896.5073917,0.27468,3.23512,0.47306,0.363707565,0.81677037,-0.4467762
1764511896.5073917,0.27468,3.23512,0.47306,0.363707565,0.81677037,-0.4467762
1764511896.5073917,0.27468,3.23512,0.47306,0.363707565,0.81677037,-0.4467762
1764511896.5073917,0.27468,3.23512,0.47306,0.363707565,0.81677037,-0.4467762
1764511896.5073917,0.27468,3.23512,0.47306,0.363707565,0.81677037,-0.4467762
1764511896.5073917,0.27468,3.23512,0.47306,0.363707565,0.81677037,-0.4467762
1764511896.5073917,1.55652,3.5098,0.6103999999999999,0.363219285,0.815000355,-0.448057935
1764511896.5073917,1.55652,3.5098,0.6103999999999999,0.363219285,0.815000355,-0.448057935
1764511896.5073917,1.55652,3.5098,0.6103999999999999,0.363219285,0.815000355,-0.448057935
1764511896.5073917,1.55652,3.5098,0.6103999999999999,0.363219285,0.815000355,-0.448057935
1764511896.5073917,1.55652,3.5098,0.6103999999999999,0.363219285,0.815000355,-0.448057935
1764511896.5073917,1.55652,3.5098,0.6103999999999999,0.363219285,0.815000355,-0.448057935
1764511896.5073917,1.55652,3.5098,0.6103999999999999,0.363219285,0.815000355,-0.448057935
1764511896.5073917,1.55652,3.5098,0.6103999999999999,0.363219285,0.815000355,-0.448057935
1764511896.5073917,1.55652,3.5098,0.6103999999999999,0.363219285,0.815000355,-0.448057935
1764511896.5073917,1.55652,3.5098,0.6103999999999999,0.363219285,0.815000355,-0.448057935
1764511896.551328,0.47306,4.08968,0.03052,0.364317915,0.81689244,-0.450377265
1764511896.551328,0.47306,4.08968,0.03052,0.364317915,0.81689244,-0.450377265
1764511896.551328,0.47306,4.08968,0.03052,0.364317915,0.81689244,-0.450377265
1764511896.551328,0.47306,4.08968,0.03052,0.364317915,0.81689244,-0.450377265
1764511896.551328,0.47306,4.08968,0.03052,0.364317915,0.81689244,-0.450377265
1764511896.551328,0.47306,4.08968,0.03052,0.364317915,0.81689244,-0.450377265
1764511896.551328,0.47306,4.08968,0.03052,0.364317915,0.81689244,-0.450377265
1764511896.551328,0.47306,4.08968,0.03052,0.364317915,0.81689244,-0.450377265
1764511896.551328,0.47306,4.08968,0.03052,0.364317915,0.81689244,-0.450377265
1764511896.551328,0.47306,4.08968,0.03052,0.364317915,0.81689244,-0.450377265
1764511896.551328,-1.99906,3.5098,0.4578,0.362364795,0.8190897,-0.45251349
1764511896.551328,-1.99906,3.5098,0.4578,0.362364795,0.8190897,-0.45251349
1764511896.551328,-1.99906,3.5098,0.4578,0.362364795,0.8190897,-0.45251349
1764511896.551328,-1.99906,3.5098,0.4578,0.362364795,0.8190897,-0.45251349
1764511896.551328,-1.99906,3.5098,0.4578,0.362364795,0.8190897,-0.45251349
1764511896.551328,-1.99906,3.5098,0.4578,0.362364795,0.8190897,-0.45251349
1764511896.551328,-1.99906,3.5098,0.4578,0.362364795,0.8190897,-0.45251349
1764511896.5523484,-1.99906,3.5098,0.4578,0.362364795,0.8190897,-0.45251349
1764511896.5523484,-1.99906,3.5098,0.4578,0.362364795,0.8190897,-0.45251349
1764511896.5523484,-1.99906,3.5098,0.4578,0.362364795,0.8190897,-0.45251349
1764511896.5523484,-2.4416,3.5861,0.96138,0.36059478,0.81847935,-0.452574525
1764511896.5523484,-2.4416,3.5861,0.96138,0.36059478,0.81847935,-0.452574525
1764511896.6014223,-2.4416,3.5861,0.96138,0.36059478,0.81847935,-0.452574525
1764511896.6014223,-2.4416,3.5861,0.96138,0.36059478,0.81847935,-0.452574525
1764511896.6014223,-2.4416,3.5861,0.96138,0.36059478,0.81847935,-0.452574525
1764511896.6014223,-2.4416,3.5861,0.96138,0.36059478,0.81847935,-0.452574525
1764511896.6014223,-2.4416,3.5861,0.96138,0.36059478,0.81847935,-0.452574525
1764511896.6014223,-2.4416,3.5861,0.96138,0.36059478,0.81847935,-0.452574525
1764511896.6014223,-2.4416,3.5861,0.96138,0.36059478,0.81847935,-0.452574525
1764511896.6014223,-2.4416,3.5861,0.96138,0.36059478,0.81847935,-0.452574525
1764511896.6014223,-1.38866,4.4254,0.97664,0.361144095,0.815366565,-0.450987615
1764511896.6014223,-1.38866,4.4254,0.97664,0.361144095,0.815366565,-0.450987615
1764511896.6014223,-1.38866,4.4254,0.97664,0.361144095,0.815366565,-0.450987615
1764511896.6014223,-1.38866,4.4254,0.97664,0.361144095,0.815366565,-0.450987615
1764511896.6014223,-1.38866,4.4254,0.97664,0.361144095,0.815366565,-0.450987615
1764511896.6014223,-1.38866,4.4254,0.97664,0.361144095,0.815366565,-0.450987615
1764511896.6014223,-1.38866,4.4254,0.97664,0.361144095,0.815366565,-0.450987615
1764511896.6014223,-1.38866,4.4254,0.97664,0.361144095,0.815366565,-0.450987615
1764511896.6014223,-1.38866,4.4254,0.97664,0.361144095,0.815366565,-0.450987615
1764511896.6014223,-1.38866,4.4254,0.97664,0.361144095,0.815366565,-0.450987615
1764511896.6014223,0.41202,4.15072,0.0,0.362731005,0.814023795,-0.44958381
1764511896.6014223,0.41202,4.15072,0.0,0.362731005,0.814023795,-0.44958381
1764511896.6014223,0.41202,4.15072,0.0,0.362731005,0.814023795,-0.44958381
1764511896.6014223,0.41202,4.15072,0.0,0.362731005,0.814023795,-0.44958381
1764511896.6014223,0.41202,4.15072,0.0,0.362731005,0.814023795,-0.44958381
1764511896.6014223,0.41202,4.15072,0.0,0.362731005,0.814023795,-0.44958381
1764511896.6014223,0.41202,4.15072,0.0,0.362731005,0.814023795,-0.44958381
1764511896.6014223,0.41202,4.15072,0.0,0.362731005,0.814023795,-0.44958381
1764511896.6479282,0.41202,4.15072,0.0,0.362731005,0.814023795,-0.44958381
1764511896.6479282,0.41202,4.15072,0.0,0.362731005,0.814023795,-0.44958381
1764511896.6489213,0.51884,4.74586,0.13734,0.363219285,0.81603795,-0.44897346
1764511896.6489213,0.51884,4.74586,0.13734,0.363219285,0.81603795,-0.44897346
1764511896.6489213,0.51884,4.74586,0.13734,0.363219285,0.81603795,-0.44897346
1764511896.6489213,0.51884,4.74586,0.13734,0.363219285,0.81603795,-0.44897346
1764511896.6489213,0.51884,4.74586,0.13734,0.363219285,0.81603795,-0.44897346
1764511896.6489213,0.51884,4.74586,0.13734,0.363219285,0.81603795,-0.44897346
1764511896.6489213,0.51884,4.74586,0.13734,0.363219285,0.81603795,-0.44897346
1764511896.6489213,0.51884,4.74586,0.13734,0.363219285,0.81603795,-0.44897346
1764511896.6489213,0.51884,4.74586,0.13734,0.363219285,0.81603795,-0.44897346
1764511896.6489213,0.51884,4.74586,0.13734,0.363219285,0.81603795,-0.44897346
1764511896.6489213,0.1525999999999999,4.51696,0.62566,0.362608935,0.8173807200000001,-0.44909553
1764511896.6489213,0.1525999999999999,4.51696,0.62566,0.362608935,0.8173807200000001,-0.44909553
1764511896.6489213,0.1525999999999999,4.51696,0.62566,0.362608935,0.8173807200000001,-0.44909553
1764511896.6489213,0.1525999999999999,4.51696,0.62566,0.362608935,0.8173807200000001,-0.44909553
1764511896.6489213,0.1525999999999999,4.51696,0.62566,0.362608935,0.8173807200000001,-0.44909553
1764511896.6489213,0.1525999999999999,4.51696,0.62566,0.362608935,0.8173807200000001,-0.44909553
1764511896.6489213,0.1525999999999999,4.51696,0.62566,0.362608935,0.8173807200000001,-0.44909553
1764511896.6489213,0.1525999999999999,4.51696,0.62566,0.362608935,0.8173807200000001,-0.44909553
1764511896.6499295,0.1525999999999999,4.51696,0.62566,0.362608935,0.8173807200000001,-0.44909553
1764511896.6499295,0.1525999999999999,4.51696,0.62566,0.362608935,0.8173807200000001,-0.44909553
1764511896.690398,-0.8087799999999999,3.93708,0.36624,0.36230376,0.817441755,-0.44982795
1764511896.6914356,-0.8087799999999999,3.93708,0.36624,0.36230376,0.817441755,-0.44982795
1764511896.6914356,-0.8087799999999999,3.93708,0.36624,0.36230376,0.817441755,-0.44982795
1764511896.6914356,-0.8087799999999999,3.93708,0.36624,0.36230376,0.817441755,-0.44982795
1764511896.6914356,-0.8087799999999999,3.93708,0.36624,0.36230376,0.817441755,-0.44982795
1764511896.6914356,-0.8087799999999999,3.93708,0.36624,0.36230376,0.817441755,-0.44982795
1764511896.6914356,-0.8087799999999999,3.93708,0.36624,0.36230376,0.817441755,-0.44982795
1764511896.6914356,-0.8087799999999999,3.93708,0.36624,0.36230376,0.817441755,-0.44982795
1764511896.6914356,-0.8087799999999999,3.93708,0.36624,0.36230376,0.817441755,-0.44982795
1764511896.6914356,-0.8087799999999999,3.93708,0.36624,0.36230376,0.817441755,-0.44982795
1764511896.6924422,-0.54936,3.93708,0.77826,0.361876515,0.816953475,-0.450133125
1764511896.6924422,-0.54936,3.93708,0.77826,0.361876515,0.816953475,-0.450133125
1764511896.6934488,-0.54936,3.93708,0.77826,0.361876515,0.816953475,-0.450133125
1764511896.6934488,-0.54936,3.93708,0.77826,0.361876515,0.816953475,-0.450133125
1764511896.6934488,-0.54936,3.93708,0.77826,0.361876515,0.816953475,-0.450133125
1764511896.694447,-0.54936,3.93708,0.77826,0.361876515,0.816953475,-0.450133125
1764511896.694447,-0.54936,3.93708,0.77826,0.361876515,0.816953475,-0.450133125
1764511896.694447,-0.54936,3.93708,0.77826,0.361876515,0.816953475,-0.450133125
1764511896.694447,-0.54936,3.93708,0.77826,0.361876515,0.816953475,-0.450133125
1764511896.694447,-0.54936,3.93708,0.77826,0.361876515,0.816953475,-0.450133125
1764511896.695438,-1.25132,3.99812,0.71722,0.362853075,0.81750279,-0.45068244
1764511896.695438,-1.25132,3.99812,0.71722,0.362853075,0.81750279,-0.45068244
1764511896.695438,-1.25132,3.99812,0.71722,0.362853075,0.81750279,-0.45068244
1764511896.695438,-1.25132,3.99812,0.71722,0.362853075,0.81750279,-0.45068244
1764511896.7371397,-1.25132,3.99812,0.71722,0.362853075,0.81750279,-0.45068244
1764511896.7371397,-1.25132,3.99812,0.71722,0.362853075,0.81750279,-0.45068244
1764511896.7371397,-1.25132,3.99812,0.71722,0.362853075,0.81750279,-0.45068244
1764511896.7371397,-1.25132,3.99812,0.71722,0.362853075,0.81750279,-0.45068244
1764511896.7371397,-1.25132,3.99812,0.71722,0.362853075,0.81750279,-0.45068244
1764511896.7371397,-1.25132,3.99812,0.71722,0.362853075,0.81750279,-0.45068244
1764511896.739138,-1.46496,3.70818,0.85456,0.363463425,0.817319685,-0.44958381
1764511896.739138,-1.46496,3.70818,0.85456,0.363463425,0.817319685,-0.44958381
1764511896.7401354,-1.46496,3.70818,0.85456,0.363463425,0.817319685,-0.44958381
1764511896.7401354,-1.46496,3.70818,0.85456,0.363463425,0.817319685,-0.44958381
1764511896.7401354,-1.46496,3.70818,0.85456,0.363463425,0.817319685,-0.44958381
1764511896.7401354,-1.46496,3.70818,0.85456,0.363463425,0.817319685,-0.44958381
1764511896.7401354,-1.46496,3.70818,0.85456,0.363463425,0.817319685,-0.44958381
1764511896.7401354,-1.46496,3.70818,0.85456,0.363463425,0.817319685,-0.44958381
1764511896.7401354,-1.46496,3.70818,0.85456,0.363463425,0.817319685,-0.44958381
1764511896.7411444,-1.46496,3.70818,0.85456,0.363463425,0.817319685,-0.44958381
1764511896.7411444,-0.8698199999999999,3.99812,1.2055399999999998,0.362608935,0.8142069000000001,-0.44848518
1764511896.7411444,-0.8698199999999999,3.99812,1.2055399999999998,0.362608935,0.8142069000000001,-0.44848518
1764511896.7411444,-0.8698199999999999,3.99812,1.2055399999999998,0.362608935,0.8142069000000001,-0.44848518
1764511896.7411444,-0.8698199999999999,3.99812,1.2055399999999998,0.362608935,0.8142069000000001,-0.44848518
1764511896.7421324,-0.8698199999999999,3.99812,1.2055399999999998,0.362608935,0.8142069000000001,-0.44848518
1764511896.7421324,-0.8698199999999999,3.99812,1.2055399999999998,0.362608935,0.8142069000000001,-0.44848518
1764511896.7421324,-0.8698199999999999,3.99812,1.2055399999999998,0.362608935,0.8142069000000001,-0.44848518
1764511896.7421324,-0.8698199999999999,3.99812,1.2055399999999998,0.362608935,0.8142069000000001,-0.44848518
1764511896.788592,-0.8698199999999999,3.99812,1.2055399999999998,0.362608935,0.8142069000000001,-0.44848518
1764511896.788592,-0.8698199999999999,3.99812,1.2055399999999998,0.362608935,0.8142069000000001,-0.44848518
1764511896.7895944,0.48832,0.0,0.57988,0.36352446,0.81518346,-0.449278635
1764511896.7895944,0.48832,0.0,0.57988,0.36352446,0.81518346,-0.449278635
1764511896.7895944,0.48832,0.0,0.57988,0.36352446,0.81518346,-0.449278635
1764511896.7895944,0.48832,0.0,0.57988,0.36352446,0.81518346,-0.449278635
1764511896.7895944,0.48832,0.0,0.57988,0.36352446,0.81518346,-0.449278635
1764511896.7895944,0.48832,0.0,0.57988,0.36352446,0.81518346,-0.449278635
1764511896.7895944,0.48832,0.0,0.57988,0.36352446,0.81518346,-0.449278635
1764511896.7895944,0.48832,0.0,0.57988,0.36352446,0.81518346,-0.449278635
1764511896.7895944,0.48832,0.0,0.57988,0.36352446,0.81518346,-0.449278635
1764511896.7895944,0.48832,0.0,0.57988,0.36352446,0.81518346,-0.449278635
1764511896.7895944,-0.39676,3.99812,0.36624,0.36303618,0.81774693,-0.45068244
1764511896.7895944,-0.39676,3.99812,0.36624,0.36303618,0.81774693,-0.45068244
1764511896.7895944,-0.39676,3.99812,0.36624,0.36303618,0.81774693,-0.45068244
1764511896.7895944,-0.39676,3.99812,0.36624,0.36303618,0.81774693,-0.45068244
1764511896.7895944,-0.39676,3.99812,0.36624,0.36303618,0.81774693,-0.45068244
1764511896.7895944,-0.39676,3.99812,0.36624,0.36303618,0.81774693,-0.45068244
1764511896.7895944,-0.39676,3.99812,0.36624,0.36303618,0.81774693,-0.45068244
1764511896.7895944,-0.39676,3.99812,0.36624,0.36303618,0.81774693,-0.45068244
1764511896.7895944,-0.39676,3.99812,0.36624,0.36303618,0.81774693,-0.45068244
1764511896.7895944,-0.39676,3.99812,0.36624,0.36303618,0.81774693,-0.45068244
1764511896.7895944,-1.6633399999999998,3.98286,0.79352,0.36144927,0.818906595,-0.450377265
1764511896.7895944,-1.6633399999999998,3.98286,0.79352,0.36144927,0.818906595,-0.450377265
1764511896.831541,-1.6633399999999998,3.98286,0.79352,0.36144927,0.818906595,-0.450377265
1764511896.831541,-1.6633399999999998,3.98286,0.79352,0.36144927,0.818906595,-0.450377265
1764511896.832535,-1.6633399999999998,3.98286,0.79352,0.36144927,0.818906595,-0.450377265
1764511896.832535,-1.6633399999999998,3.98286,0.79352,0.36144927,0.818906595,-0.450377265
1764511896.832535,-1.6633399999999998,3.98286,0.79352,0.36144927,0.818906595,-0.450377265
1764511896.832535,-1.6633399999999998,3.98286,0.79352,0.36144927,0.818906595,-0.450377265
1764511896.833535,-1.6633399999999998,3.98286,0.79352,0.36144927,0.818906595,-0.450377265
1764511896.833535,-1.6633399999999998,3.98286,0.79352,0.36144927,0.818906595,-0.450377265
1764511896.833535,-1.96854,4.08968,1.15976,0.3601065,0.81762486,-0.45068244
1764511896.833535,-1.96854,4.08968,1.15976,0.3601065,0.81762486,-0.45068244
1764511896.833535,-1.96854,4.08968,1.15976,0.3601065,0.81762486,-0.45068244
1764511896.833535,-1.96854,4.08968,1.15976,0.3601065,0.81762486,-0.45068244
1764511896.833535,-1.96854,4.08968,1.15976,0.3601065,0.81762486,-0.45068244
1764511896.834534,-1.96854,4.08968,1.15976,0.3601065,0.81762486,-0.45068244
1764511896.834534,-1.96854,4.08968,1.15976,0.3601065,0.81762486,-0.45068244
1764511896.834534,-1.96854,4.08968,1.15976,0.3601065,0.81762486,-0.45068244
1764511896.834534,-1.96854,4.08968,1.15976,0.3601065,0.81762486,-0.45068244
1764511896.834534,-1.96854,4.08968,1.15976,0.3601065,0.81762486,-0.45068244
1764511896.834534,-1.6022999999999998,3.8913,0.57988,0.35961822,0.815854845,-0.44995002
1764511896.834534,-1.6022999999999998,3.8913,0.57988,0.35961822,0.815854845,-0.44995002
1764511896.8355362,-1.6022999999999998,3.8913,0.57988,0.35961822,0.815854845,-0.44995002
1764511896.8355362,-1.6022999999999998,3.8913,0.57988,0.35961822,0.815854845,-0.44995002
1764511896.8775008,-1.6022999999999998,3.8913,0.57988,0.35961822,0.815854845,-0.44995002
1764511896.8775008,-1.6022999999999998,3.8913,0.57988,0.35961822,0.815854845,-0.44995002
1764511896.8775008,-1.6022999999999998,3.8913,0.57988,0.35961822,0.815854845,-0.44995002
1764511896.8775008,-1.6022999999999998,3.8913,0.57988,0.35961822,0.815854845,-0.44995002
1764511896.8775008,-1.6022999999999998,3.8913,0.57988,0.35961822,0.815854845,-0.44995002
1764511896.8775008,-1.6022999999999998,3.8913,0.57988,0.35961822,0.815854845,-0.44995002
1764511896.8775008,-1.35814,3.7387,0.6409199999999999,0.36169341,0.81481725,-0.44958381
1764511896.8775008,-1.35814,3.7387,0.6409199999999999,0.36169341,0.81481725,-0.44958381
1764511896.8775008,-1.35814,3.7387,0.6409199999999999,0.36169341,0.81481725,-0.44958381
1764511896.8775008,-1.35814,3.7387,0.6409199999999999,0.36169341,0.81481725,-0.44958381
1764511896.8785193,-1.35814,3.7387,0.6409199999999999,0.36169341,0.81481725,-0.44958381
1764511896.8785193,-1.35814,3.7387,0.6409199999999999,0.36169341,0.81481725,-0.44958381
1764511896.8785193,-1.35814,3.7387,0.6409199999999999,0.36169341,0.81481725,-0.44958381
1764511896.8785193,-1.35814,3.7387,0.6409199999999999,0.36169341,0.81481725,-0.44958381
1764511896.8785193,-1.35814,3.7387,0.6409199999999999,0.36169341,0.81481725,-0.44958381
1764511896.8785193,-1.35814,3.7387,0.6409199999999999,0.36169341,0.81481725,-0.44958381
1764511896.8785193,-0.9003399999999999,3.8913,0.8392999999999999,0.363463425,0.815122425,-0.448912425
1764511896.8785193,-0.9003399999999999,3.8913,0.8392999999999999,0.363463425,0.815122425,-0.448912425
1764511896.8785193,-0.9003399999999999,3.8913,0.8392999999999999,0.363463425,0.815122425,-0.448912425
1764511896.8785193,-0.9003399999999999,3.8913,0.8392999999999999,0.363463425,0.815122425,-0.448912425
1764511896.8785193,-0.9003399999999999,3.8913,0.8392999999999999,0.363463425,0.815122425,-0.448912425
1764511896.8785193,-0.9003399999999999,3.8913,0.8392999999999999,0.363463425,0.815122425,-0.448912425
1764511896.8785193,-0.9003399999999999,3.8913,0.8392999999999999,0.363463425,0.815122425,-0.448912425
1764511896.8785193,-0.9003399999999999,3.8913,0.8392999999999999,0.363463425,0.815122425,-0.448912425
1764511896.9227853,-0.9003399999999999,3.8913,0.8392999999999999,0.363463425,0.815122425,-0.448912425
1764511896.9227853,-0.9003399999999999,3.8913,0.8392999999999999,0.363463425,0.815122425,-0.448912425
1764511896.9227853,-0.74774,3.98286,0.44254,0.362731005,0.815122425,-0.4492176
1764511896.9227853,-0.74774,3.98286,0.44254,0.362731005,0.815122425,-0.4492176
1764511896.9227853,-0.74774,3.98286,0.44254,0.362731005,0.815122425,-0.4492176
1764511896.9227853,-0.74774,3.98286,0.44254,0.362731005,0.815122425,-0.4492176
1764511896.9227853,-0.74774,3.98286,0.44254,0.362731005,0.815122425,-0.4492176
1764511896.9227853,-0.74774,3.98286,0.44254,0.362731005,0.815122425,-0.4492176
