Timestamp,GyroX,GyroY,GyroZ,AccX,AccY,AccZ
1764510957.0601444,1.31236,2.94518,-0.4578,0.41393937,0.816709335,-0.403502385
1764510957.0601444,1.31236,2.94518,-0.4578,0.41393937,0.816709335,-0.403502385
1764510957.0601444,1.17502,3.6624,0.3815,0.413390055,0.8163431250000001,-0.403502385
1764510957.0601444,1.17502,3.6624,0.3815,0.413390055,0.8163431250000001,-0.403502385
1764510957.0601444,1.17502,3.6624,0.3815,0.413390055,0.8163431250000001,-0.403502385
1764510957.0601444,1.17502,3.6624,0.3815,0.413390055,0.8163431250000001,-0.403502385
1764510957.0601444,1.17502,3.6624,0.3815,0.413390055,0.8163431250000001,-0.403502385
1764510957.0601444,1.17502,3.6624,0.3815,0.413390055,0.8163431250000001,-0.403502385
1764510957.0601444,1.17502,3.6624,0.3815,0.413390055,0.8163431250000001,-0.403502385
1764510957.0601444,1.17502,3.6624,0.3815,0.413390055,0.8163431250000001,-0.403502385
1764510957.0601444,1.17502,3.6624,0.3815,0.413390055,0.8163431250000001,-0.403502385
1764510957.0601444,1.17502,3.6624,0.3815,0.413390055,0.8163431250000001,-0.403502385
1764510957.0611496,0.59514,2.91466,0.12208,0.412047285,0.815976915,-0.40185444
1764510957.0611496,0.59514,2.91466,0.12208,0.412047285,0.815976915,-0.40185444
1764510957.0611496,0.59514,2.91466,0.12208,0.412047285,0.815976915,-0.40185444
1764510957.0611496,0.59514,2.91466,0.12208,0.412047285,0.815976915,-0.40185444
1764510957.0611496,0.59514,2.91466,0.12208,0.412047285,0.815976915,-0.40185444
1764510957.0611496,0.59514,2.91466,0.12208,0.412047285,0.815976915,-0.40185444
1764510957.0611496,0.59514,2.91466,0.12208,0.412047285,0.815976915,-0.40185444
1764510957.0611496,0.59514,2.91466,0.12208,0.412047285,0.815976915,-0.40185444
1764510957.0611496,0.59514,2.91466,0.12208,0.412047285,0.815976915,-0.40185444
1764510957.0611496,0.59514,2.91466,0.12208,0.412047285,0.815976915,-0.40185444
1764510957.0611496,1.8312,3.23512,0.03052,0.412657635,0.814878285,-0.402892035
1764510957.0611496,1.8312,3.23512,0.03052,0.412657635,0.814878285,-0.402892035
1764510957.1044872,1.8312,3.23512,0.03052,0.412657635,0.814878285,-0.402892035
1764510957.1044872,1.8312,3.23512,0.03052,0.412657635,0.814878285,-0.402892035
1764510957.1044872,1.8312,3.23512,0.03052,0.412657635,0.814878285,-0.402892035
1764510957.1044872,1.8312,3.23512,0.03052,0.412657635,0.814878285,-0.402892035
1764510957.1050255,1.8312,3.23512,0.03052,0.412657635,0.814878285,-0.402892035
1764510957.1050255,1.8312,3.23512,0.03052,0.412657635,0.814878285,-0.402892035
1764510957.1050255,1.8312,3.23512,0.03052,0.412657635,0.814878285,-0.402892035
1764510957.1050255,1.8312,3.23512,0.03052,0.412657635,0.814878285,-0.402892035
1764510957.1050255,1.25132,3.17408,0.21364,0.412901775,0.81457311,-0.40368549
1764510957.1050255,1.25132,3.17408,0.21364,0.412901775,0.81457311,-0.40368549
1764510957.1050255,1.25132,3.17408,0.21364,0.412901775,0.81457311,-0.40368549
1764510957.1050255,1.25132,3.17408,0.21364,0.412901775,0.81457311,-0.40368549
1764510957.1050255,1.25132,3.17408,0.21364,0.412901775,0.81457311,-0.40368549
1764510957.1050255,1.25132,3.17408,0.21364,0.412901775,0.81457311,-0.40368549
1764510957.1050255,1.25132,3.17408,0.21364,0.412901775,0.81457311,-0.40368549
1764510957.1050255,1.25132,3.17408,0.21364,0.412901775,0.81457311,-0.40368549
1764510957.1050255,1.25132,3.17408,0.21364,0.412901775,0.81457311,-0.40368549
1764510957.1050255,1.25132,3.17408,0.21364,0.412901775,0.81457311,-0.40368549
1764510957.1050255,0.3051999999999999,2.80784,-0.94612,0.41149797,0.817441755,-0.403624455
1764510957.1050255,0.3051999999999999,2.80784,-0.94612,0.41149797,0.817441755,-0.403624455
1764510957.1050255,0.3051999999999999,2.80784,-0.94612,0.41149797,0.817441755,-0.403624455
1764510957.1050255,0.3051999999999999,2.80784,-0.94612,0.41149797,0.817441755,-0.403624455
1764510957.1488998,0.3051999999999999,2.80784,-0.94612,0.41149797,0.817441755,-0.403624455
1764510957.1488998,0.3051999999999999,2.80784,-0.94612,0.41149797,0.817441755,-0.403624455
1764510957.1488998,0.3051999999999999,2.80784,-0.94612,0.41149797,0.817441755,-0.403624455
1764510957.1488998,0.3051999999999999,2.80784,-0.94612,0.41149797,0.817441755,-0.403624455
1764510957.1488998,0.3051999999999999,2.80784,-0.94612,0.41149797,0.817441755,-0.403624455
1764510957.1488998,0.3051999999999999,2.80784,-0.94612,0.41149797,0.817441755,-0.403624455
1764510957.1488998,0.24416,2.94518,0.65618,0.412047285,0.817563825,-0.404845155
1764510957.1499293,0.24416,2.94518,0.65618,0.412047285,0.817563825,-0.404845155
1764510957.1499293,0.24416,2.94518,0.65618,0.412047285,0.817563825,-0.404845155
1764510957.1499293,0.24416,2.94518,0.65618,0.412047285,0.817563825,-0.404845155
1764510957.1509435,0.24416,2.94518,0.65618,0.412047285,0.817563825,-0.404845155
1764510957.1509435,0.24416,2.94518,0.65618,0.412047285,0.817563825,-0.404845155
1764510957.1509435,0.24416,2.94518,0.65618,0.412047285,0.817563825,-0.404845155
1764510957.1509435,0.24416,2.94518,0.65618,0.412047285,0.817563825,-0.404845155
1764510957.1509435,0.24416,2.94518,0.65618,0.412047285,0.817563825,-0.404845155
1764510957.1509435,0.24416,2.94518,0.65618,0.412047285,0.817563825,-0.404845155
1764510957.1509435,-0.50358,3.41824,-0.18312,0.412413495,0.8173807200000001,-0.405089295
1764510957.1509435,-0.50358,3.41824,-0.18312,0.412413495,0.8173807200000001,-0.405089295
1764510957.1509435,-0.50358,3.41824,-0.18312,0.412413495,0.8173807200000001,-0.405089295
1764510957.1509435,-0.50358,3.41824,-0.18312,0.412413495,0.8173807200000001,-0.405089295
1764510957.1509435,-0.50358,3.41824,-0.18312,0.412413495,0.8173807200000001,-0.405089295
1764510957.1509435,-0.50358,3.41824,-0.18312,0.412413495,0.8173807200000001,-0.405089295
1764510957.1954415,-0.50358,3.41824,-0.18312,0.412413495,0.8173807200000001,-0.405089295
1764510957.1954415,-0.50358,3.41824,-0.18312,0.412413495,0.8173807200000001,-0.405089295
1764510957.1954415,-0.50358,3.41824,-0.18312,0.412413495,0.8173807200000001,-0.405089295
1764510957.1954415,-0.50358,3.41824,-0.18312,0.412413495,0.8173807200000001,-0.405089295
1764510957.1954415,-1.03768,3.52506,-0.19838,0.41174211,0.817441755,-0.40478412
1764510957.1954415,-1.03768,3.52506,-0.19838,0.41174211,0.817441755,-0.40478412
1764510957.1954415,-1.03768,3.52506,-0.19838,0.41174211,0.817441755,-0.40478412
1764510957.1954415,-1.03768,3.52506,-0.19838,0.41174211,0.817441755,-0.40478412
1764510957.1954415,-1.03768,3.52506,-0.19838,0.41174211,0.817441755,-0.40478412
1764510957.1954415,-1.03768,3.52506,-0.19838,0.41174211,0.817441755,-0.40478412
1764510957.1954415,-1.03768,3.52506,-0.19838,0.41174211,0.817441755,-0.40478412
1764510957.1954415,-1.03768,3.52506,-0.19838,0.41174211,0.817441755,-0.40478412
1764510957.1954415,-1.03768,3.52506,-0.19838,0.41174211,0.817441755,-0.40478412
1764510957.1954415,-1.03768,3.52506,-0.19838,0.41174211,0.817441755,-0.40478412
1764510957.1954415,-1.12924,3.26564,-0.0762999999999999,0.411925215,0.81762486,-0.40551654
1764510957.1954415,-1.12924,3.26564,-0.0762999999999999,0.411925215,0.81762486,-0.40551654
1764510957.1954415,-1.12924,3.26564,-0.0762999999999999,0.411925215,0.81762486,-0.40551654
1764510957.1954415,-1.12924,3.26564,-0.0762999999999999,0.411925215,0.81762486,-0.40551654
1764510957.1954415,-1.12924,3.26564,-0.0762999999999999,0.411925215,0.81762486,-0.40551654
1764510957.1964517,-1.12924,3.26564,-0.0762999999999999,0.411925215,0.81762486,-0.40551654
1764510957.1964517,-1.12924,3.26564,-0.0762999999999999,0.411925215,0.81762486,-0.40551654
1764510957.1964517,-1.12924,3.26564,-0.0762999999999999,0.411925215,0.81762486,-0.40551654
1764510957.1980228,-1.12924,3.26564,-0.0762999999999999,0.411925215,0.81762486,-0.40551654
1764510957.1989305,-1.12924,3.26564,-0.0762999999999999,0.411925215,0.81762486,-0.40551654
1764510957.1989305,-0.3815,3.47928,1.09872,0.412657635,0.81591588,-0.403502385
1764510957.1989305,-0.3815,3.47928,1.09872,0.412657635,0.81591588,-0.403502385
1764510957.2449636,-0.3815,3.47928,1.09872,0.412657635,0.81591588,-0.403502385
1764510957.2449636,-0.3815,3.47928,1.09872,0.412657635,0.81591588,-0.403502385
1764510957.2449636,-0.3815,3.47928,1.09872,0.412657635,0.81591588,-0.403502385
1764510957.2449636,-0.3815,3.47928,1.09872,0.412657635,0.81591588,-0.403502385
1764510957.2449636,-0.3815,3.47928,1.09872,0.412657635,0.81591588,-0.403502385
1764510957.2449636,-0.3815,3.47928,1.09872,0.412657635,0.81591588,-0.403502385
1764510957.2449636,-0.3815,3.47928,1.09872,0.412657635,0.81591588,-0.403502385
1764510957.2449636,-0.3815,3.47928,1.09872,0.412657635,0.81591588,-0.403502385
1764510957.2449636,0.12208,3.84552,-0.59514,0.4125966,0.8142069000000001,-0.40295307
1764510957.2449636,0.12208,3.84552,-0.59514,0.4125966,0.8142069000000001,-0.40295307
1764510957.2449636,0.12208,3.84552,-0.59514,0.4125966,0.8142069000000001,-0.40295307
1764510957.2449636,0.12208,3.84552,-0.59514,0.4125966,0.8142069000000001,-0.40295307
1764510957.2449636,0.12208,3.84552,-0.59514,0.4125966,0.8142069000000001,-0.40295307
1764510957.2449636,0.12208,3.84552,-0.59514,0.4125966,0.8142069000000001,-0.40295307
1764510957.2449636,0.12208,3.84552,-0.59514,0.4125966,0.8142069000000001,-0.40295307
1764510957.2532897,0.12208,3.84552,-0.59514,0.4125966,0.8142069000000001,-0.40295307
1764510957.2532897,0.12208,3.84552,-0.59514,0.4125966,0.8142069000000001,-0.40295307
1764510957.2532897,0.12208,3.84552,-0.59514,0.4125966,0.8142069000000001,-0.40295307
1764510957.2532897,-1.26658,2.79258,-1.43444,0.410582445,0.81603795,-0.402037545
1764510957.2532897,-1.26658,2.79258,-1.43444,0.410582445,0.81603795,-0.402037545
1764510957.2899623,-1.26658,2.79258,-1.43444,0.410582445,0.81603795,-0.402037545
1764510957.2899623,-1.26658,2.79258,-1.43444,0.410582445,0.81603795,-0.402037545
1764510957.2899623,-1.26658,2.79258,-1.43444,0.410582445,0.81603795,-0.402037545
1764510957.2899623,-1.26658,2.79258,-1.43444,0.410582445,0.81603795,-0.402037545
1764510957.2899623,-1.26658,2.79258,-1.43444,0.410582445,0.81603795,-0.402037545
1764510957.2899623,-1.26658,2.79258,-1.43444,0.410582445,0.81603795,-0.402037545
1764510957.2899623,-1.26658,2.79258,-1.43444,0.410582445,0.81603795,-0.402037545
1764510957.2899623,-1.26658,2.79258,-1.43444,0.410582445,0.81603795,-0.402037545
1764510957.2899623,-0.18312,4.24228,1.00716,0.411803145,0.81762486,-0.404112735
1764510957.2904975,-0.18312,4.24228,1.00716,0.411803145,0.81762486,-0.404112735
1764510957.2904975,-0.18312,4.24228,1.00716,0.411803145,0.81762486,-0.404112735
1764510957.2904975,-0.18312,4.24228,1.00716,0.411803145,0.81762486,-0.404112735
1764510957.2904975,-0.18312,4.24228,1.00716,0.411803145,0.81762486,-0.404112735
1764510957.2904975,-0.18312,4.24228,1.00716,0.411803145,0.81762486,-0.404112735
1764510957.2904975,-0.18312,4.24228,1.00716,0.411803145,0.81762486,-0.404112735
1764510957.2904975,-0.18312,4.24228,1.00716,0.411803145,0.81762486,-0.404112735
1764510957.2904975,-0.18312,4.24228,1.00716,0.411803145,0.81762486,-0.404112735
1764510957.2904975,-0.18312,4.24228,1.00716,0.411803145,0.81762486,-0.404112735
1764510957.2904975,-0.13734,4.25754,0.2289,0.41308488,0.81933384,-0.40515033
1764510957.2904975,-0.13734,4.25754,0.2289,0.41308488,0.81933384,-0.40515033
1764510957.2904975,-0.13734,4.25754,0.2289,0.41308488,0.81933384,-0.40515033
1764510957.2904975,-0.13734,4.25754,0.2289,0.41308488,0.81933384,-0.40515033
1764510957.2904975,-0.13734,4.25754,0.2289,0.41308488,0.81933384,-0.40515033
1764510957.2904975,-0.13734,4.25754,0.2289,0.41308488,0.81933384,-0.40515033
1764510957.2904975,-0.13734,4.25754,0.2289,0.41308488,0.81933384,-0.40515033
1764510957.2904975,-0.13734,4.25754,0.2289,0.41308488,0.81933384,-0.40515033
1764510957.3380747,-0.13734,4.25754,0.2289,0.41308488,0.81933384,-0.40515033
1764510957.3390722,-0.13734,4.25754,0.2289,0.41308488,0.81933384,-0.40515033
1764510957.3390722,-0.48832,4.36436,0.3204599999999999,0.41052141,0.819150735,-0.405577575
1764510957.3390722,-0.48832,4.36436,0.3204599999999999,0.41052141,0.819150735,-0.405577575
1764510957.3390722,-0.48832,4.36436,0.3204599999999999,0.41052141,0.819150735,-0.405577575
1764510957.3390722,-0.48832,4.36436,0.3204599999999999,0.41052141,0.819150735,-0.405577575
1764510957.3400905,-0.48832,4.36436,0.3204599999999999,0.41052141,0.819150735,-0.405577575
1764510957.3400905,-0.48832,4.36436,0.3204599999999999,0.41052141,0.819150735,-0.405577575
1764510957.34058,-0.48832,4.36436,0.3204599999999999,0.41052141,0.819150735,-0.405577575
1764510957.34058,-0.48832,4.36436,0.3204599999999999,0.41052141,0.819150735,-0.405577575
1764510957.341081,-0.48832,4.36436,0.3204599999999999,0.41052141,0.819150735,-0.405577575
1764510957.341081,-0.48832,4.36436,0.3204599999999999,0.41052141,0.819150735,-0.405577575
1764510957.341081,-1.3734,4.13546,0.88508,0.408751395,0.81884556,-0.403990665
1764510957.341081,-1.3734,4.13546,0.88508,0.408751395,0.81884556,-0.403990665
1764510957.341081,-1.3734,4.13546,0.88508,0.408751395,0.81884556,-0.403990665
1764510957.341081,-1.3734,4.13546,0.88508,0.408751395,0.81884556,-0.403990665
1764510957.341081,-1.3734,4.13546,0.88508,0.408751395,0.81884556,-0.403990665
1764510957.341081,-1.3734,4.13546,0.88508,0.408751395,0.81884556,-0.403990665
1764510957.3854237,-1.3734,4.13546,0.88508,0.408751395,0.81884556,-0.403990665
1764510957.3854237,-1.3734,4.13546,0.88508,0.408751395,0.81884556,-0.403990665
1764510957.3854237,-1.3734,4.13546,0.88508,0.408751395,0.81884556,-0.403990665
1764510957.3854237,-1.3734,4.13546,0.88508,0.408751395,0.81884556,-0.403990665
1764510957.3854237,-1.63282,3.61662,0.8087799999999999,0.409727955,0.81689244,-0.40331928
1764510957.3854237,-1.63282,3.61662,0.8087799999999999,0.409727955,0.81689244,-0.40331928
1764510957.3854237,-1.63282,3.61662,0.8087799999999999,0.409727955,0.81689244,-0.40331928
1764510957.3854237,-1.63282,3.61662,0.8087799999999999,0.409727955,0.81689244,-0.40331928
1764510957.3854237,-1.63282,3.61662,0.8087799999999999,0.409727955,0.81689244,-0.40331928
1764510957.386937,-1.63282,3.61662,0.8087799999999999,0.409727955,0.81689244,-0.40331928
1764510957.386937,-1.63282,3.61662,0.8087799999999999,0.409727955,0.81689244,-0.40331928
1764510957.386937,-1.63282,3.61662,0.8087799999999999,0.409727955,0.81689244,-0.40331928
1764510957.386937,-1.63282,3.61662,0.8087799999999999,0.409727955,0.81689244,-0.40331928
1764510957.386937,-1.63282,3.61662,0.8087799999999999,0.409727955,0.81689244,-0.40331928
1764510957.386937,-1.6022999999999998,3.57084,1.35814,0.411925215,0.816098985,-0.402525825
1764510957.386937,-1.6022999999999998,3.57084,1.35814,0.411925215,0.816098985,-0.402525825
1764510957.386937,-1.6022999999999998,3.57084,1.35814,0.411925215,0.816098985,-0.402525825
1764510957.386937,-1.6022999999999998,3.57084,1.35814,0.411925215,0.816098985,-0.402525825
1764510957.387947,-1.6022999999999998,3.57084,1.35814,0.411925215,0.816098985,-0.402525825
1764510957.387947,-1.6022999999999998,3.57084,1.35814,0.411925215,0.816098985,-0.402525825
1764510957.387947,-1.6022999999999998,3.57084,1.35814,0.411925215,0.816098985,-0.402525825
1764510957.387947,-1.6022999999999998,3.57084,1.35814,0.411925215,0.816098985,-0.402525825
1764510957.387947,-1.6022999999999998,3.57084,1.35814,0.411925215,0.816098985,-0.402525825
1764510957.387947,-1.6022999999999998,3.57084,1.35814,0.411925215,0.816098985,-0.402525825
1764510957.387947,-1.23606,3.37246,0.5341,0.413390055,0.815732775,-0.403136175
1764510957.387947,-1.23606,3.37246,0.5341,0.413390055,0.815732775,-0.403136175
1764510957.387947,-1.23606,3.37246,0.5341,0.413390055,0.815732775,-0.403136175
1764510957.387947,-1.23606,3.37246,0.5341,0.413390055,0.815732775,-0.403136175
1764510957.4332175,-1.23606,3.37246,0.5341,0.413390055,0.815732775,-0.403136175
1764510957.4332175,-1.23606,3.37246,0.5341,0.413390055,0.815732775,-0.403136175
1764510957.4332175,-1.23606,3.37246,0.5341,0.413390055,0.815732775,-0.403136175
1764510957.4332175,-1.23606,3.37246,0.5341,0.413390055,0.815732775,-0.403136175
1764510957.4332175,-1.23606,3.37246,0.5341,0.413390055,0.815732775,-0.403136175
1764510957.4332175,-1.23606,3.37246,0.5341,0.413390055,0.815732775,-0.403136175
1764510957.4332175,-1.38866,3.78448,0.57988,0.41320695,0.815488635,-0.404112735
1764510957.4332175,-1.38866,3.78448,0.57988,0.41320695,0.815488635,-0.404112735
1764510957.4332175,-1.38866,3.78448,0.57988,0.41320695,0.815488635,-0.404112735
1764510957.4332175,-1.38866,3.78448,0.57988,0.41320695,0.815488635,-0.404112735
1764510957.4337444,-1.38866,3.78448,0.57988,0.41320695,0.815488635,-0.404112735
1764510957.4337444,-1.38866,3.78448,0.57988,0.41320695,0.815488635,-0.404112735
1764510957.4337444,-1.38866,3.78448,0.57988,0.41320695,0.815488635,-0.404112735
1764510957.4337444,-1.38866,3.78448,0.57988,0.41320695,0.815488635,-0.404112735
1764510957.4337444,-1.38866,3.78448,0.57988,0.41320695,0.815488635,-0.404112735
1764510957.4337444,-1.38866,3.78448,0.57988,0.41320695,0.815488635,-0.404112735
1764510957.4337444,-0.57988,4.28806,0.50358,0.412291425,0.815610705,-0.405211365
1764510957.4337444,-0.57988,4.28806,0.50358,0.412291425,0.815610705,-0.405211365
1764510957.4337444,-0.57988,4.28806,0.50358,0.412291425,0.815610705,-0.405211365
1764510957.4337444,-0.57988,4.28806,0.50358,0.412291425,0.815610705,-0.405211365
1764510957.4337444,-0.57988,4.28806,0.50358,0.412291425,0.815610705,-0.405211365
1764510957.4337444,-0.57988,4.28806,0.50358,0.412291425,0.815610705,-0.405211365
1764510957.4337444,-0.57988,4.28806,0.50358,0.412291425,0.815610705,-0.405211365
1764510957.4337444,-0.57988,4.28806,0.50358,0.412291425,0.815610705,-0.405211365
1764510957.4792762,-0.57988,4.28806,0.50358,0.412291425,0.815610705,-0.405211365
1764510957.4792762,-0.57988,4.28806,0.50358,0.412291425,0.815610705,-0.405211365
1764510957.4792762,-1.31236,4.059159999999999,0.62566,0.411803145,0.815244495,-0.405577575
1764510957.4792762,-1.31236,4.059159999999999,0.62566,0.411803145,0.815244495,-0.405577575
1764510957.4792762,-1.31236,4.059159999999999,0.62566,0.411803145,0.815244495,-0.405577575
1764510957.4792762,-1.31236,4.059159999999999,0.62566,0.411803145,0.815244495,-0.405577575
1764510957.4792762,-1.31236,4.059159999999999,0.62566,0.411803145,0.815244495,-0.405577575
1764510957.4792762,-1.31236,4.059159999999999,0.62566,0.411803145,0.815244495,-0.405577575
1764510957.4792762,-1.31236,4.059159999999999,0.62566,0.411803145,0.815244495,-0.405577575
1764510957.4792762,-1.31236,4.059159999999999,0.62566,0.411803145,0.815244495,-0.405577575
1764510957.4792762,-1.31236,4.059159999999999,0.62566,0.411803145,0.815244495,-0.405577575
1764510957.4792762,-1.31236,4.059159999999999,0.62566,0.411803145,0.815244495,-0.405577575
1764510957.4792762,-1.49548,3.90656,0.73248,0.4113759,0.815610705,-0.40453998
1764510957.4792762,-1.49548,3.90656,0.73248,0.4113759,0.815610705,-0.40453998
1764510957.4792762,-1.49548,3.90656,0.73248,0.4113759,0.815610705,-0.40453998
1764510957.4792762,-1.49548,3.90656,0.73248,0.4113759,0.815610705,-0.40453998
1764510957.4792762,-1.49548,3.90656,0.73248,0.4113759,0.815610705,-0.40453998
1764510957.4792762,-1.49548,3.90656,0.73248,0.4113759,0.815610705,-0.40453998
1764510957.4792762,-1.49548,3.90656,0.73248,0.4113759,0.815610705,-0.40453998
1764510957.4792762,-1.49548,3.90656,0.73248,0.4113759,0.815610705,-0.40453998
1764510957.4792762,-1.49548,3.90656,0.73248,0.4113759,0.815610705,-0.40453998
1764510957.480789,-1.49548,3.90656,0.73248,0.4113759,0.815610705,-0.40453998
1764510957.5248957,-1.6786,3.44876,1.0682,0.41210832,0.815244495,-0.403380315
1764510957.5248957,-1.6786,3.44876,1.0682,0.41210832,0.815244495,-0.403380315
1764510957.5248957,-1.6786,3.44876,1.0682,0.41210832,0.815244495,-0.403380315
1764510957.525899,-1.6786,3.44876,1.0682,0.41210832,0.815244495,-0.403380315
1764510957.525899,-1.6786,3.44876,1.0682,0.41210832,0.815244495,-0.403380315
1764510957.525899,-1.6786,3.44876,1.0682,0.41210832,0.815244495,-0.403380315
1764510957.525899,-1.6786,3.44876,1.0682,0.41210832,0.815244495,-0.403380315
1764510957.525899,-1.6786,3.44876,1.0682,0.41210832,0.815244495,-0.403380315
1764510957.526897,-1.6786,3.44876,1.0682,0.41210832,0.815244495,-0.403380315
1764510957.526897,-1.6786,3.44876,1.0682,0.41210832,0.815244495,-0.403380315
1764510957.526897,-1.1445,4.33384,0.8392999999999999,0.412413495,0.81506139,-0.403136175
1764510957.526897,-1.1445,4.33384,0.8392999999999999,0.412413495,0.81506139,-0.403136175
1764510957.526897,-1.1445,4.33384,0.8392999999999999,0.412413495,0.81506139,-0.403136175
1764510957.526897,-1.1445,4.33384,0.8392999999999999,0.412413495,0.81506139,-0.403136175
1764510957.526897,-1.1445,4.33384,0.8392999999999999,0.412413495,0.81506139,-0.403136175
1764510957.5280707,-1.1445,4.33384,0.8392999999999999,0.412413495,0.81506139,-0.403136175
1764510957.5280707,-1.1445,4.33384,0.8392999999999999,0.412413495,0.81506139,-0.403136175
1764510957.5280707,-1.1445,4.33384,0.8392999999999999,0.412413495,0.81506139,-0.403136175
1764510957.5285823,-1.1445,4.33384,0.8392999999999999,0.412413495,0.81506139,-0.403136175
1764510957.5285823,-1.1445,4.33384,0.8392999999999999,0.412413495,0.81506139,-0.403136175
1764510957.5285823,-0.73248,4.25754,1.03768,0.413267985,0.814878285,-0.40295307
1764510957.5285823,-0.73248,4.25754,1.03768,0.413267985,0.814878285,-0.40295307
1764510957.586079,-0.73248,4.25754,1.03768,0.413267985,0.814878285,-0.40295307
1764510957.586079,-0.73248,4.25754,1.03768,0.413267985,0.814878285,-0.40295307
1764510957.586079,-0.73248,4.25754,1.03768,0.413267985,0.814878285,-0.40295307
1764510957.586079,-0.73248,4.25754,1.03768,0.413267985,0.814878285,-0.40295307
1764510957.586079,-0.73248,4.25754,1.03768,0.413267985,0.814878285,-0.40295307
1764510957.586079,-0.73248,4.25754,1.03768,0.413267985,0.814878285,-0.40295307
1764510957.586079,-0.73248,4.25754,1.03768,0.413267985,0.814878285,-0.40295307
1764510957.586079,-0.73248,4.25754,1.03768,0.413267985,0.814878285,-0.40295307
1764510957.622169,-0.8087799999999999,4.51696,0.88508,0.413145915,0.815488635,-0.40258686
1764510957.622169,-0.8087799999999999,4.51696,0.88508,0.413145915,0.815488635,-0.40258686
1764510957.622169,-0.8087799999999999,4.51696,0.88508,0.413145915,0.815488635,-0.40258686
1764510957.622169,-0.8087799999999999,4.51696,0.88508,0.413145915,0.815488635,-0.40258686
1764510957.622169,-0.8087799999999999,4.51696,0.88508,0.413145915,0.815488635,-0.40258686
1764510957.622169,-0.8087799999999999,4.51696,0.88508,0.413145915,0.815488635,-0.40258686
1764510957.622169,-0.8087799999999999,4.51696,0.88508,0.413145915,0.815488635,-0.40258686
1764510957.622169,-0.8087799999999999,4.51696,0.88508,0.413145915,0.815488635,-0.40258686
1764510957.622169,-0.8087799999999999,4.51696,0.88508,0.413145915,0.815488635,-0.40258686
1764510957.6231894,-0.8087799999999999,4.51696,0.88508,0.413145915,0.815488635,-0.40258686
1764510957.6231894,-0.57988,7.76734,0.56462,0.41296281,0.81603795,-0.402403755
1764510957.6231894,-0.57988,7.76734,0.56462,0.41296281,0.81603795,-0.402403755
1764510957.6231894,-0.57988,7.76734,0.56462,0.41296281,0.81603795,-0.402403755
1764510957.6231894,-0.57988,7.76734,0.56462,0.41296281,0.81603795,-0.402403755
1764510957.6231894,-0.57988,7.76734,0.56462,0.41296281,0.81603795,-0.402403755
1764510957.6231894,-0.57988,7.76734,0.56462,0.41296281,0.81603795,-0.402403755
1764510957.6231894,-0.57988,7.76734,0.56462,0.41296281,0.81603795,-0.402403755
1764510957.6231894,-0.57988,7.76734,0.56462,0.41296281,0.81603795,-0.402403755
1764510957.6231894,-0.57988,7.76734,0.56462,0.41296281,0.81603795,-0.402403755
1764510957.6231894,-0.57988,7.76734,0.56462,0.41296281,0.81603795,-0.402403755
1764510957.6231894,-1.00716,3.815,0.6103999999999999,0.411803145,0.81628209,-0.402831
1764510957.6231894,-1.00716,3.815,0.6103999999999999,0.411803145,0.81628209,-0.402831
1764510957.6231894,-1.00716,3.815,0.6103999999999999,0.411803145,0.81628209,-0.402831
1764510957.6231894,-1.00716,3.815,0.6103999999999999,0.411803145,0.81628209,-0.402831
1764510957.623701,-1.00716,3.815,0.6103999999999999,0.411803145,0.81628209,-0.402831
1764510957.623701,-1.00716,3.815,0.6103999999999999,0.411803145,0.81628209,-0.402831
1764510957.623701,-1.00716,3.815,0.6103999999999999,0.411803145,0.81628209,-0.402831
1764510957.623701,-1.00716,3.815,0.6103999999999999,0.411803145,0.81628209,-0.402831
1764510957.623701,-1.00716,3.815,0.6103999999999999,0.411803145,0.81628209,-0.402831
1764510957.623701,-1.00716,3.815,0.6103999999999999,0.411803145,0.81628209,-0.402831
1764510957.623701,-0.94612,3.86078,0.3051999999999999,0.41186418,0.816953475,-0.40246479
1764510957.623701,-0.94612,3.86078,0.3051999999999999,0.41186418,0.816953475,-0.40246479
1764510957.623701,-0.94612,3.86078,0.3051999999999999,0.41186418,0.816953475,-0.40246479
1764510957.623701,-0.94612,3.86078,0.3051999999999999,0.41186418,0.816953475,-0.40246479
1764510957.623701,-0.94612,3.86078,0.3051999999999999,0.41186418,0.816953475,-0.40246479
1764510957.623701,-0.94612,3.86078,0.3051999999999999,0.41186418,0.816953475,-0.40246479
1764510957.623701,-0.94612,3.86078,0.3051999999999999,0.41186418,0.816953475,-0.40246479
1764510957.623701,-0.94612,3.86078,0.3051999999999999,0.41186418,0.816953475,-0.40246479
1764510957.623701,-0.94612,3.86078,0.3051999999999999,0.41186418,0.816953475,-0.40246479
1764510957.623701,-0.94612,3.86078,0.3051999999999999,0.41186418,0.816953475,-0.40246479
1764510957.623701,-1.9075,3.87604,1.15976,0.4113759,0.818052105,-0.40368549
1764510957.623701,-1.9075,3.87604,1.15976,0.4113759,0.818052105,-0.40368549
1764510957.6659906,-1.9075,3.87604,1.15976,0.4113759,0.818052105,-0.40368549
1764510957.6659906,-1.9075,3.87604,1.15976,0.4113759,0.818052105,-0.40368549
1764510957.6659906,-1.9075,3.87604,1.15976,0.4113759,0.818052105,-0.40368549
1764510957.6659906,-1.9075,3.87604,1.15976,0.4113759,0.818052105,-0.40368549
1764510957.6659906,-1.9075,3.87604,1.15976,0.4113759,0.818052105,-0.40368549
1764510957.6659906,-1.9075,3.87604,1.15976,0.4113759,0.818052105,-0.40368549
1764510957.6659906,-1.9075,3.87604,1.15976,0.4113759,0.818052105,-0.40368549
1764510957.6659906,-1.9075,3.87604,1.15976,0.4113759,0.818052105,-0.40368549
1764510957.6659906,-2.45686,4.15072,1.38866,0.41186418,0.819394875,-0.40392963
1764510957.6659906,-2.45686,4.15072,1.38866,0.41186418,0.819394875,-0.40392963
1764510957.6659906,-2.45686,4.15072,1.38866,0.41186418,0.819394875,-0.40392963
1764510957.6659906,-2.45686,4.15072,1.38866,0.41186418,0.819394875,-0.40392963
1764510957.7104287,-2.45686,4.15072,1.38866,0.41186418,0.819394875,-0.40392963
1764510957.7104287,-2.45686,4.15072,1.38866,0.41186418,0.819394875,-0.40392963
1764510957.7104287,-2.45686,4.15072,1.38866,0.41186418,0.819394875,-0.40392963
1764510957.7104287,-2.45686,4.15072,1.38866,0.41186418,0.819394875,-0.40392963
1764510957.7104287,-2.45686,4.15072,1.38866,0.41186418,0.819394875,-0.40392963
1764510957.7104287,-2.45686,4.15072,1.38866,0.41186418,0.819394875,-0.40392963
1764510957.7104287,-2.96044,4.303319999999999,1.72438,0.4125966,0.819150735,-0.402647895
1764510957.7104287,-2.96044,4.303319999999999,1.72438,0.4125966,0.819150735,-0.402647895
1764510957.7104287,-2.96044,4.303319999999999,1.72438,0.4125966,0.819150735,-0.402647895
1764510957.7104287,-2.96044,4.303319999999999,1.72438,0.4125966,0.819150735,-0.402647895
1764510957.7104287,-2.96044,4.303319999999999,1.72438,0.4125966,0.819150735,-0.402647895
1764510957.7104287,-2.96044,4.303319999999999,1.72438,0.4125966,0.819150735,-0.402647895
1764510957.7104287,-2.96044,4.303319999999999,1.72438,0.4125966,0.819150735,-0.402647895
1764510957.7104287,-2.96044,4.303319999999999,1.72438,0.4125966,0.819150735,-0.402647895
1764510957.7104287,-2.96044,4.303319999999999,1.72438,0.4125966,0.819150735,-0.402647895
1764510957.7104287,-2.96044,4.303319999999999,1.72438,0.4125966,0.819150735,-0.402647895
1764510957.7104287,-3.26564,4.10494,1.84646,0.41284074,0.81823521,-0.40209858
1764510957.7104287,-3.26564,4.10494,1.84646,0.41284074,0.81823521,-0.40209858
1764510957.7104287,-3.26564,4.10494,1.84646,0.41284074,0.81823521,-0.40209858
1764510957.7104287,-3.26564,4.10494,1.84646,0.41284074,0.81823521,-0.40209858
1764510957.7114513,-3.26564,4.10494,1.84646,0.41284074,0.81823521,-0.40209858
1764510957.7114513,-3.26564,4.10494,1.84646,0.41284074,0.81823521,-0.40209858
1764510957.7114513,-3.26564,4.10494,1.84646,0.41284074,0.81823521,-0.40209858
1764510957.7114513,-3.26564,4.10494,1.84646,0.41284074,0.81823521,-0.40209858
1764510957.7114513,-3.26564,4.10494,1.84646,0.41284074,0.81823521,-0.40209858
1764510957.7114513,-3.26564,4.10494,1.84646,0.41284074,0.81823521,-0.40209858
1764510957.7114513,-2.48738,4.16598,1.48022,0.41320695,0.81567174,-0.401060985
1764510957.7114513,-2.48738,4.16598,1.48022,0.41320695,0.81567174,-0.401060985
1764510957.7129972,-2.48738,4.16598,1.48022,0.41320695,0.81567174,-0.401060985
1764510957.7129972,-2.48738,4.16598,1.48022,0.41320695,0.81567174,-0.401060985
1764510957.7129972,-2.48738,4.16598,1.48022,0.41320695,0.81567174,-0.401060985
1764510957.7129972,-2.48738,4.16598,1.48022,0.41320695,0.81567174,-0.401060985
1764510957.7129972,-2.48738,4.16598,1.48022,0.41320695,0.81567174,-0.401060985
1764510957.7139845,-2.48738,4.16598,1.48022,0.41320695,0.81567174,-0.401060985
1764510957.758711,-2.48738,4.16598,1.48022,0.41320695,0.81567174,-0.401060985
1764510957.758711,-2.48738,4.16598,1.48022,0.41320695,0.81567174,-0.401060985
1764510957.758711,-1.63282,3.9676,1.2208,0.41247453,0.81359655,-0.4003896
1764510957.758711,-1.63282,3.9676,1.2208,0.41247453,0.81359655,-0.4003896
1764510957.758711,-1.63282,3.9676,1.2208,0.41247453,0.81359655,-0.4003896
1764510957.758711,-1.63282,3.9676,1.2208,0.41247453,0.81359655,-0.4003896
1764510957.758711,-1.63282,3.9676,1.2208,0.41247453,0.81359655,-0.4003896
1764510957.758711,-1.63282,3.9676,1.2208,0.41247453,0.81359655,-0.4003896
1764510957.7597165,-1.63282,3.9676,1.2208,0.41247453,0.81359655,-0.4003896
1764510957.7597165,-1.63282,3.9676,1.2208,0.41247453,0.81359655,-0.4003896
1764510957.7597165,-1.63282,3.9676,1.2208,0.41247453,0.81359655,-0.4003896
1764510957.7597165,-1.63282,3.9676,1.2208,0.41247453,0.81359655,-0.4003896
1764510957.7597165,-0.7019599999999999,3.79974,1.00716,0.4125966,0.81261999,-0.40075581
1764510957.7597165,-0.7019599999999999,3.79974,1.00716,0.4125966,0.81261999,-0.40075581
1764510957.7597165,-0.7019599999999999,3.79974,1.00716,0.4125966,0.81261999,-0.40075581
1764510957.7597165,-0.7019599999999999,3.79974,1.00716,0.4125966,0.81261999,-0.40075581
1764510957.7597165,-0.7019599999999999,3.79974,1.00716,0.4125966,0.81261999,-0.40075581
1764510957.7597165,-0.7019599999999999,3.79974,1.00716,0.4125966,0.81261999,-0.40075581
1764510957.7597165,-0.7019599999999999,3.79974,1.00716,0.4125966,0.81261999,-0.40075581
1764510957.7597165,-0.7019599999999999,3.79974,1.00716,0.4125966,0.81261999,-0.40075581
1764510957.7597165,-0.7019599999999999,3.79974,1.00716,0.4125966,0.81261999,-0.40075581
1764510957.7597165,-0.7019599999999999,3.79974,1.00716,0.4125966,0.81261999,-0.40075581
1764510957.7597165,-0.28994,4.01338,0.42728,0.4138173,0.8121317100000001,-0.401549265
1764510957.7597165,-0.28994,4.01338,0.42728,0.4138173,0.8121317100000001,-0.401549265
1764510957.8026645,-0.28994,4.01338,0.42728,0.4138173,0.8121317100000001,-0.401549265
1764510957.8026645,-0.28994,4.01338,0.42728,0.4138173,0.8121317100000001,-0.401549265
1764510957.8508215,-0.28994,4.01338,0.42728,0.4138173,0.8121317100000001,-0.401549265
1764510957.8508215,-0.28994,4.01338,0.42728,0.4138173,0.8121317100000001,-0.401549265
1764510957.8508215,-0.28994,4.01338,0.42728,0.4138173,0.8121317100000001,-0.401549265
1764510957.8508215,-0.28994,4.01338,0.42728,0.4138173,0.8121317100000001,-0.401549265
1764510957.8513513,-0.28994,4.01338,0.42728,0.4138173,0.8121317100000001,-0.401549265
1764510957.8513513,-0.28994,4.01338,0.42728,0.4138173,0.8121317100000001,-0.401549265
1764510957.8513513,-0.3815,4.08968,0.6409199999999999,0.41406144,0.81396276,-0.40234272
1764510957.8513513,-0.3815,4.08968,0.6409199999999999,0.41406144,0.81396276,-0.40234272
1764510957.8513513,-0.3815,4.08968,0.6409199999999999,0.41406144,0.81396276,-0.40234272
1764510957.8513513,-0.3815,4.08968,0.6409199999999999,0.41406144,0.81396276,-0.40234272
1764510957.8513513,-0.3815,4.08968,0.6409199999999999,0.41406144,0.81396276,-0.40234272
1764510957.8513513,-0.3815,4.08968,0.6409199999999999,0.41406144,0.81396276,-0.40234272
1764510957.8513513,-0.3815,4.08968,0.6409199999999999,0.41406144,0.81396276,-0.40234272
1764510957.8513513,-0.3815,4.08968,0.6409199999999999,0.41406144,0.81396276,-0.40234272
1764510957.8513513,-0.3815,4.08968,0.6409199999999999,0.41406144,0.81396276,-0.40234272
1764510957.8513513,-0.3815,4.08968,0.6409199999999999,0.41406144,0.81396276,-0.40234272
1764510957.8513513,-0.71722,3.86078,0.42728,0.41198625,0.814390005,-0.401793405
1764510957.8513513,-0.71722,3.86078,0.42728,0.41198625,0.814390005,-0.401793405
1764510957.8513513,-0.71722,3.86078,0.42728,0.41198625,0.814390005,-0.401793405
1764510957.8513513,-0.71722,3.86078,0.42728,0.41198625,0.814390005,-0.401793405
1764510957.8513513,-0.71722,3.86078,0.42728,0.41198625,0.814390005,-0.401793405
1764510957.8513513,-0.71722,3.86078,0.42728,0.41198625,0.814390005,-0.401793405
1764510957.8513513,-0.71722,3.86078,0.42728,0.41198625,0.814390005,-0.401793405
1764510957.8513513,-0.71722,3.86078,0.42728,0.41198625,0.814390005,-0.401793405
1764510957.8513513,-0.71722,3.86078,0.42728,0.41198625,0.814390005,-0.401793405
1764510957.8513513,-0.71722,3.86078,0.42728,0.41198625,0.814390005,-0.401793405
1764510957.8513513,-0.54936,3.63188,0.6103999999999999,0.41149797,0.81481725,-0.402525825
1764510957.8513513,-0.54936,3.63188,0.6103999999999999,0.41149797,0.81481725,-0.402525825
1764510957.8513513,-0.54936,3.63188,0.6103999999999999,0.41149797,0.81481725,-0.402525825
1764510957.8513513,-0.54936,3.63188,0.6103999999999999,0.41149797,0.81481725,-0.402525825
1764510957.8513513,-0.54936,3.63188,0.6103999999999999,0.41149797,0.81481725,-0.402525825
1764510957.8513513,-0.54936,3.63188,0.6103999999999999,0.41149797,0.81481725,-0.402525825
1764510957.8513513,-0.54936,3.63188,0.6103999999999999,0.41149797,0.81481725,-0.402525825
1764510957.8513513,-0.54936,3.63188,0.6103999999999999,0.41149797,0.81481725,-0.402525825
1764510957.8513513,-0.54936,3.63188,0.6103999999999999,0.41149797,0.81481725,-0.402525825
1764510957.8513513,-0.54936,3.63188,0.6103999999999999,0.41149797,0.81481725,-0.402525825
1764510957.8513513,-0.6714399999999999,3.87604,0.59514,0.41284074,0.817197615,-0.40136616
1764510957.8513513,-0.6714399999999999,3.87604,0.59514,0.41284074,0.817197615,-0.40136616
1764510957.8513513,-0.6714399999999999,3.87604,0.59514,0.41284074,0.817197615,-0.40136616
1764510957.8535233,-0.6714399999999999,3.87604,0.59514,0.41284074,0.817197615,-0.40136616
1764510957.8535233,-0.6714399999999999,3.87604,0.59514,0.41284074,0.817197615,-0.40136616
1764510957.8545125,-0.6714399999999999,3.87604,0.59514,0.41284074,0.817197615,-0.40136616
1764510957.942045,-0.6714399999999999,3.87604,0.59514,0.41284074,0.817197615,-0.40136616
1764510957.942045,-0.6714399999999999,3.87604,0.59514,0.41284074,0.817197615,-0.40136616
1764510957.942045,-0.6714399999999999,3.87604,0.59514,0.41284074,0.817197615,-0.40136616
1764510957.942045,-0.6714399999999999,3.87604,0.59514,0.41284074,0.817197615,-0.40136616
1764510957.942045,-0.44254,3.55558,0.9919,0.41308488,0.817441755,-0.39953511
1764510957.942045,-0.44254,3.55558,0.9919,0.41308488,0.817441755,-0.39953511
1764510957.942045,-0.44254,3.55558,0.9919,0.41308488,0.817441755,-0.39953511
1764510957.942045,-0.44254,3.55558,0.9919,0.41308488,0.817441755,-0.39953511
1764510957.943794,-0.44254,3.55558,0.9919,0.41308488,0.817441755,-0.39953511
1764510957.943794,-0.44254,3.55558,0.9919,0.41308488,0.817441755,-0.39953511
1764510957.943794,-0.44254,3.55558,0.9919,0.41308488,0.817441755,-0.39953511
1764510957.943794,-0.44254,3.55558,0.9919,0.41308488,0.817441755,-0.39953511
1764510957.943794,-0.44254,3.55558,0.9919,0.41308488,0.817441755,-0.39953511
1764510957.943794,-0.44254,3.55558,0.9919,0.41308488,0.817441755,-0.39953511
1764510957.943794,-0.19838,3.54032,0.763,0.413634195,0.817807965,-0.3991689
1764510957.943794,-0.19838,3.54032,0.763,0.413634195,0.817807965,-0.3991689
1764510957.943794,-0.19838,3.54032,0.763,0.413634195,0.817807965,-0.3991689
1764510957.943794,-0.19838,3.54032,0.763,0.413634195,0.817807965,-0.3991689
1764510957.943794,-0.19838,3.54032,0.763,0.413634195,0.817807965,-0.3991689
1764510957.943794,-0.19838,3.54032,0.763,0.413634195,0.817807965,-0.3991689
1764510957.943794,-0.19838,3.54032,0.763,0.413634195,0.817807965,-0.3991689
1764510957.943794,-0.19838,3.54032,0.763,0.413634195,0.817807965,-0.3991689
1764510957.943794,-0.19838,3.54032,0.763,0.413634195,0.817807965,-0.3991689
1764510957.943794,-0.19838,3.54032,0.763,0.413634195,0.817807965,-0.3991689
1764510957.943794,-0.96138,3.52506,0.97664,0.414488685,0.818052105,-0.400084425
1764510957.944811,-0.96138,3.52506,0.97664,0.414488685,0.818052105,-0.400084425
1764510957.944811,-0.96138,3.52506,0.97664,0.414488685,0.818052105,-0.400084425
1764510957.944811,-0.96138,3.52506,0.97664,0.414488685,0.818052105,-0.400084425
1764510957.944811,-0.96138,3.52506,0.97664,0.414488685,0.818052105,-0.400084425
1764510957.944811,-0.96138,3.52506,0.97664,0.414488685,0.818052105,-0.400084425
1764510957.944811,-0.96138,3.52506,0.97664,0.414488685,0.818052105,-0.400084425
1764510957.944811,-0.96138,3.52506,0.97664,0.414488685,0.818052105,-0.400084425
1764510957.944811,-0.96138,3.52506,0.97664,0.414488685,0.818052105,-0.400084425
1764510957.944811,-0.96138,3.52506,0.97664,0.414488685,0.818052105,-0.400084425
1764510957.944811,-3.2046,3.37246,0.74774,0.413267985,0.81933384,-0.401305125
1764510957.944811,-3.2046,3.37246,0.74774,0.413267985,0.81933384,-0.401305125
1764510957.944811,-3.2046,3.37246,0.74774,0.413267985,0.81933384,-0.401305125
1764510957.944811,-3.2046,3.37246,0.74774,0.413267985,0.81933384,-0.401305125
1764510957.944811,-3.2046,3.37246,0.74774,0.413267985,0.81933384,-0.401305125
1764510957.944811,-3.2046,3.37246,0.74774,0.413267985,0.81933384,-0.401305125
1764510957.944811,-3.2046,3.37246,0.74774,0.413267985,0.81933384,-0.401305125
1764510957.944811,-3.2046,3.37246,0.74774,0.413267985,0.81933384,-0.401305125
1764510957.944811,-3.2046,3.37246,0.74774,0.413267985,0.81933384,-0.401305125
1764510957.944811,-3.2046,3.37246,0.74774,0.413267985,0.81933384,-0.401305125
1764510957.944811,-2.88414,3.29616,1.11398,0.41235246,0.81725865,-0.40173237
1764510957.944811,-2.88414,3.29616,1.11398,0.41235246,0.81725865,-0.40173237
1764510957.945808,-2.88414,3.29616,1.11398,0.41235246,0.81725865,-0.40173237
1764510957.945808,-2.88414,3.29616,1.11398,0.41235246,0.81725865,-0.40173237
1764510957.989326,-2.88414,3.29616,1.11398,0.41235246,0.81725865,-0.40173237
1764510957.989326,-2.88414,3.29616,1.11398,0.41235246,0.81725865,-0.40173237
1764510957.989326,-2.88414,3.29616,1.11398,0.41235246,0.81725865,-0.40173237
1764510957.989326,-2.88414,3.29616,1.11398,0.41235246,0.81725865,-0.40173237
1764510957.989326,-2.88414,3.29616,1.11398,0.41235246,0.81725865,-0.40173237
1764510957.9905884,-2.88414,3.29616,1.11398,0.41235246,0.81725865,-0.40173237
1764510957.9905884,-1.8006799999999998,3.84552,0.8087799999999999,0.413512125,0.81445104,-0.40124409
1764510957.9905884,-1.8006799999999998,3.84552,0.8087799999999999,0.413512125,0.81445104,-0.40124409
1764510957.9905884,-1.8006799999999998,3.84552,0.8087799999999999,0.413512125,0.81445104,-0.40124409
1764510957.9905884,-1.8006799999999998,3.84552,0.8087799999999999,0.413512125,0.81445104,-0.40124409
1764510957.9905884,-1.8006799999999998,3.84552,0.8087799999999999,0.413512125,0.81445104,-0.40124409
1764510957.9905884,-1.8006799999999998,3.84552,0.8087799999999999,0.413512125,0.81445104,-0.40124409
1764510958.0405004,-1.8006799999999998,3.84552,0.8087799999999999,0.413512125,0.81445104,-0.40124409
1764510958.0415156,-1.8006799999999998,3.84552,0.8087799999999999,0.413512125,0.81445104,-0.40124409
1764510958.0415156,-1.8006799999999998,3.84552,0.8087799999999999,0.413512125,0.81445104,-0.40124409
1764510958.0415156,-1.8006799999999998,3.84552,0.8087799999999999,0.413512125,0.81445104,-0.40124409
1764510958.0415156,-0.88508,3.93708,0.8698199999999999,0.413756265,0.8131693050000001,-0.400938915
1764510958.0415156,-0.88508,3.93708,0.8698199999999999,0.413756265,0.8131693050000001,-0.400938915
1764510958.0415156,-0.88508,3.93708,0.8698199999999999,0.413756265,0.8131693050000001,-0.400938915
1764510958.0415156,-0.88508,3.93708,0.8698199999999999,0.413756265,0.8131693050000001,-0.400938915
1764510958.0415156,-0.88508,3.93708,0.8698199999999999,0.413756265,0.8131693050000001,-0.400938915
1764510958.0415156,-0.88508,3.93708,0.8698199999999999,0.413756265,0.8131693050000001,-0.400938915
1764510958.0415156,-0.88508,3.93708,0.8698199999999999,0.413756265,0.8131693050000001,-0.400938915
1764510958.0415156,-0.88508,3.93708,0.8698199999999999,0.413756265,0.8131693050000001,-0.400938915
1764510958.0415156,-0.88508,3.93708,0.8698199999999999,0.413756265,0.8131693050000001,-0.400938915
1764510958.0415156,-0.88508,3.93708,0.8698199999999999,0.413756265,0.8131693050000001,-0.400938915
1764510958.0415156,-0.48832,3.815,0.50358,0.414366615,0.814267935,-0.40099995
1764510958.0415156,-0.48832,3.815,0.50358,0.414366615,0.814267935,-0.40099995
1764510958.0415156,-0.48832,3.815,0.50358,0.414366615,0.814267935,-0.40099995
1764510958.0415156,-0.48832,3.815,0.50358,0.414366615,0.814267935,-0.40099995
1764510958.0415156,-0.48832,3.815,0.50358,0.414366615,0.814267935,-0.40099995
1764510958.0415156,-0.48832,3.815,0.50358,0.414366615,0.814267935,-0.40099995
1764510958.0858788,-0.48832,3.815,0.50358,0.414366615,0.814267935,-0.40099995
1764510958.0858788,-0.48832,3.815,0.50358,0.414366615,0.814267935,-0.40099995
1764510958.0858788,-0.48832,3.815,0.50358,0.414366615,0.814267935,-0.40099995
1764510958.0858788,-0.48832,3.815,0.50358,0.414366615,0.814267935,-0.40099995
1764510958.0858788,-0.59514,3.72344,0.71722,0.413390055,0.815244495,-0.40258686
1764510958.0858788,-0.59514,3.72344,0.71722,0.413390055,0.815244495,-0.40258686
1764510958.0858788,-0.59514,3.72344,0.71722,0.413390055,0.815244495,-0.40258686
1764510958.0858788,-0.59514,3.72344,0.71722,0.413390055,0.815244495,-0.40258686
1764510958.0858788,-0.59514,3.72344,0.71722,0.413390055,0.815244495,-0.40258686
1764510958.0858788,-0.59514,3.72344,0.71722,0.413390055,0.815244495,-0.40258686
1764510958.0858788,-0.59514,3.72344,0.71722,0.413390055,0.815244495,-0.40258686
1764510958.0858788,-0.59514,3.72344,0.71722,0.413390055,0.815244495,-0.40258686
1764510958.0858788,-0.59514,3.72344,0.71722,0.413390055,0.815244495,-0.40258686
1764510958.0858788,-0.59514,3.72344,0.71722,0.413390055,0.815244495,-0.40258686
1764510958.0858788,-1.2208,3.95234,0.36624,0.412291425,0.8163431250000001,-0.40173237
1764510958.0858788,-1.2208,3.95234,0.36624,0.412291425,0.8163431250000001,-0.40173237
1764510958.0858788,-1.2208,3.95234,0.36624,0.412291425,0.8163431250000001,-0.40173237
1764510958.0858788,-1.2208,3.95234,0.36624,0.412291425,0.8163431250000001,-0.40173237
1764510958.0858788,-1.2208,3.95234,0.36624,0.412291425,0.8163431250000001,-0.40173237
1764510958.0858788,-1.2208,3.95234,0.36624,0.412291425,0.8163431250000001,-0.40173237
1764510958.0858788,-1.2208,3.95234,0.36624,0.412291425,0.8163431250000001,-0.40173237
1764510958.0858788,-1.2208,3.95234,0.36624,0.412291425,0.8163431250000001,-0.40173237
1764510958.0858788,-1.2208,3.95234,0.36624,0.412291425,0.8163431250000001,-0.40173237
1764510958.0858788,-1.2208,3.95234,0.36624,0.412291425,0.8163431250000001,-0.40173237
1764510958.0858788,-0.74774,4.37962,0.74774,0.412779705,0.81689244,-0.400816845
1764510958.0858788,-0.74774,4.37962,0.74774,0.412779705,0.81689244,-0.400816845
1764510958.0858788,-0.74774,4.37962,0.74774,0.412779705,0.81689244,-0.400816845
1764510958.0858788,-0.74774,4.37962,0.74774,0.412779705,0.81689244,-0.400816845
1764510958.0858788,-0.74774,4.37962,0.74774,0.412779705,0.81689244,-0.400816845
1764510958.0858788,-0.74774,4.37962,0.74774,0.412779705,0.81689244,-0.400816845
1764510958.087442,-0.74774,4.37962,0.74774,0.412779705,0.81689244,-0.400816845
1764510958.087442,-0.74774,4.37962,0.74774,0.412779705,0.81689244,-0.400816845
1764510958.1304555,-0.74774,4.37962,0.74774,0.412779705,0.81689244,-0.400816845
1764510958.1304555,-0.74774,4.37962,0.74774,0.412779705,0.81689244,-0.400816845
1764510958.1304555,-0.9156,4.24228,0.82404,0.412657635,0.8163431250000001,-0.399962355
1764510958.1319954,-0.9156,4.24228,0.82404,0.412657635,0.8163431250000001,-0.399962355
1764510958.1319954,-0.9156,4.24228,0.82404,0.412657635,0.8163431250000001,-0.399962355
1764510958.1319954,-0.9156,4.24228,0.82404,0.412657635,0.8163431250000001,-0.399962355
1764510958.1319954,-0.9156,4.24228,0.82404,0.412657635,0.8163431250000001,-0.399962355
1764510958.1319954,-0.9156,4.24228,0.82404,0.412657635,0.8163431250000001,-0.399962355
1764510958.1330118,-0.9156,4.24228,0.82404,0.412657635,0.8163431250000001,-0.399962355
1764510958.1330118,-0.9156,4.24228,0.82404,0.412657635,0.8163431250000001,-0.399962355
1764510958.1330118,-0.9156,4.24228,0.82404,0.412657635,0.8163431250000001,-0.399962355
1764510958.1330118,-0.9156,4.24228,0.82404,0.412657635,0.8163431250000001,-0.399962355
1764510958.1330118,-1.0682,4.31858,0.6714399999999999,0.413512125,0.8168314050000001,-0.40051167
1764510958.1340086,-1.0682,4.31858,0.6714399999999999,0.413512125,0.8168314050000001,-0.40051167
1764510958.1340086,-1.0682,4.31858,0.6714399999999999,0.413512125,0.8168314050000001,-0.40051167
1764510958.1340086,-1.0682,4.31858,0.6714399999999999,0.413512125,0.8168314050000001,-0.40051167
1764510958.1340086,-1.0682,4.31858,0.6714399999999999,0.413512125,0.8168314050000001,-0.40051167
1764510958.1340086,-1.0682,4.31858,0.6714399999999999,0.413512125,0.8168314050000001,-0.40051167
1764510958.1340086,-1.0682,4.31858,0.6714399999999999,0.413512125,0.8168314050000001,-0.40051167
1764510958.1340086,-1.0682,4.31858,0.6714399999999999,0.413512125,0.8168314050000001,-0.40051167
1764510958.1340086,-1.0682,4.31858,0.6714399999999999,0.413512125,0.8168314050000001,-0.40051167
1764510958.1350083,-1.0682,4.31858,0.6714399999999999,0.413512125,0.8168314050000001,-0.40051167
1764510958.1350083,-1.526,3.78448,0.93086,0.41418351,0.817685895,-0.398863725
1764510958.1350083,-1.526,3.78448,0.93086,0.41418351,0.817685895,-0.398863725
1764510958.1350083,-1.526,3.78448,0.93086,0.41418351,0.817685895,-0.398863725
1764510958.1350083,-1.526,3.78448,0.93086,0.41418351,0.817685895,-0.398863725
1764510958.1350083,-1.526,3.78448,0.93086,0.41418351,0.817685895,-0.398863725
1764510958.1350083,-1.526,3.78448,0.93086,0.41418351,0.817685895,-0.398863725
1764510958.179698,-1.526,3.78448,0.93086,0.41418351,0.817685895,-0.398863725
1764510958.180778,-1.526,3.78448,0.93086,0.41418351,0.817685895,-0.398863725
1764510958.180778,-1.526,3.78448,0.93086,0.41418351,0.817685895,-0.398863725
1764510958.180778,-1.526,3.78448,0.93086,0.41418351,0.817685895,-0.398863725
1764510958.180778,-0.82404,3.78448,0.3815,0.41393937,0.815976915,-0.399229935
1764510958.180778,-0.82404,3.78448,0.3815,0.41393937,0.815976915,-0.399229935
1764510958.180778,-0.82404,3.78448,0.3815,0.41393937,0.815976915,-0.399229935
1764510958.180778,-0.82404,3.78448,0.3815,0.41393937,0.815976915,-0.399229935
1764510958.180778,-0.82404,3.78448,0.3815,0.41393937,0.815976915,-0.399229935
1764510958.1817892,-0.82404,3.78448,0.3815,0.41393937,0.815976915,-0.399229935
1764510958.1817892,-0.82404,3.78448,0.3815,0.41393937,0.815976915,-0.399229935
1764510958.1817892,-0.82404,3.78448,0.3815,0.41393937,0.815976915,-0.399229935
1764510958.1817892,-0.82404,3.78448,0.3815,0.41393937,0.815976915,-0.399229935
1764510958.1817892,-0.82404,3.78448,0.3815,0.41393937,0.815976915,-0.399229935
1764510958.2277417,-0.1525999999999999,4.39488,0.57988,0.41479386,0.815122425,-0.399840285
1764510958.2277417,-0.1525999999999999,4.39488,0.57988,0.41479386,0.815122425,-0.399840285
1764510958.2277417,-0.1525999999999999,4.39488,0.57988,0.41479386,0.815122425,-0.399840285
1764510958.2277417,-0.1525999999999999,4.39488,0.57988,0.41479386,0.815122425,-0.399840285
1764510958.2277417,-0.1525999999999999,4.39488,0.57988,0.41479386,0.815122425,-0.399840285
1764510958.2277417,-0.1525999999999999,4.39488,0.57988,0.41479386,0.815122425,-0.399840285
1764510958.2277417,-0.1525999999999999,4.39488,0.57988,0.41479386,0.815122425,-0.399840285
1764510958.2277417,-0.1525999999999999,4.39488,0.57988,0.41479386,0.815122425,-0.399840285
1764510958.2277417,-0.1525999999999999,4.39488,0.57988,0.41479386,0.815122425,-0.399840285
1764510958.2277417,-0.1525999999999999,4.39488,0.57988,0.41479386,0.815122425,-0.399840285
1764510958.2277417,-0.8392999999999999,4.2728,0.3509799999999999,0.41479386,0.81652623,-0.40026753
1764510958.2277417,-0.8392999999999999,4.2728,0.3509799999999999,0.41479386,0.81652623,-0.40026753
1764510958.2277417,-0.8392999999999999,4.2728,0.3509799999999999,0.41479386,0.81652623,-0.40026753
1764510958.2277417,-0.8392999999999999,4.2728,0.3509799999999999,0.41479386,0.81652623,-0.40026753
1764510958.2277417,-0.8392999999999999,4.2728,0.3509799999999999,0.41479386,0.81652623,-0.40026753
1764510958.2286203,-0.8392999999999999,4.2728,0.3509799999999999,0.41479386,0.81652623,-0.40026753
1764510958.2286203,-0.8392999999999999,4.2728,0.3509799999999999,0.41479386,0.81652623,-0.40026753
1764510958.2286203,-0.8392999999999999,4.2728,0.3509799999999999,0.41479386,0.81652623,-0.40026753
1764510958.2286203,-0.8392999999999999,4.2728,0.3509799999999999,0.41479386,0.81652623,-0.40026753
1764510958.2286203,-0.8392999999999999,4.2728,0.3509799999999999,0.41479386,0.81652623,-0.40026753
1764510958.2286203,-1.2971,3.70818,0.6714399999999999,0.413267985,0.817869,-0.39965718
1764510958.2286203,-1.2971,3.70818,0.6714399999999999,0.413267985,0.817869,-0.39965718
1764510958.2286203,-1.2971,3.70818,0.6714399999999999,0.413267985,0.817869,-0.39965718
1764510958.2286203,-1.2971,3.70818,0.6714399999999999,0.413267985,0.817869,-0.39965718
1764510958.2286203,-1.2971,3.70818,0.6714399999999999,0.413267985,0.817869,-0.39965718
1764510958.2286203,-1.2971,3.70818,0.6714399999999999,0.413267985,0.817869,-0.39965718
1764510958.2286203,-1.2971,3.70818,0.6714399999999999,0.413267985,0.817869,-0.39965718
1764510958.2296166,-1.2971,3.70818,0.6714399999999999,0.413267985,0.817869,-0.39965718
1764510958.2296166,-1.2971,3.70818,0.6714399999999999,0.413267985,0.817869,-0.39965718
1764510958.2296166,-1.2971,3.70818,0.6714399999999999,0.413267985,0.817869,-0.39965718
1764510958.2296166,-1.69386,4.0439,0.94612,0.41210832,0.81750279,-0.399352005
1764510958.2296166,-1.69386,4.0439,0.94612,0.41210832,0.81750279,-0.399352005
1764510958.2711833,-1.69386,4.0439,0.94612,0.41210832,0.81750279,-0.399352005
1764510958.2711833,-1.69386,4.0439,0.94612,0.41210832,0.81750279,-0.399352005
1764510958.2711833,-1.69386,4.0439,0.94612,0.41210832,0.81750279,-0.399352005
1764510958.2711833,-1.69386,4.0439,0.94612,0.41210832,0.81750279,-0.399352005
1764510958.2711833,-1.69386,4.0439,0.94612,0.41210832,0.81750279,-0.399352005
1764510958.2711833,-1.69386,4.0439,0.94612,0.41210832,0.81750279,-0.399352005
1764510958.2711833,-1.69386,4.0439,0.94612,0.41210832,0.81750279,-0.399352005
1764510958.2711833,-1.69386,4.0439,0.94612,0.41210832,0.81750279,-0.399352005
1764510958.2711833,-1.57178,3.86078,0.6714399999999999,0.41149797,0.81628209,-0.398497515
1764510958.2711833,-1.57178,3.86078,0.6714399999999999,0.41149797,0.81628209,-0.398497515
1764510958.2711833,-1.57178,3.86078,0.6714399999999999,0.41149797,0.81628209,-0.398497515
1764510958.2711833,-1.57178,3.86078,0.6714399999999999,0.41149797,0.81628209,-0.398497515
1764510958.2711833,-1.57178,3.86078,0.6714399999999999,0.41149797,0.81628209,-0.398497515
1764510958.2711833,-1.57178,3.86078,0.6714399999999999,0.41149797,0.81628209,-0.398497515
1764510958.2711833,-1.57178,3.86078,0.6714399999999999,0.41149797,0.81628209,-0.398497515
1764510958.2711833,-1.57178,3.86078,0.6714399999999999,0.41149797,0.81628209,-0.398497515
1764510958.2711833,-1.57178,3.86078,0.6714399999999999,0.41149797,0.81628209,-0.398497515
1764510958.2711833,-1.57178,3.86078,0.6714399999999999,0.41149797,0.81628209,-0.398497515
1764510958.2711833,-1.34288,3.57084,0.48832,0.413390055,0.817319685,-0.397765095
1764510958.2711833,-1.34288,3.57084,0.48832,0.413390055,0.817319685,-0.397765095
1764510958.2711833,-1.34288,3.57084,0.48832,0.413390055,0.817319685,-0.397765095
1764510958.2711833,-1.34288,3.57084,0.48832,0.413390055,0.817319685,-0.397765095
1764510958.2711833,-1.34288,3.57084,0.48832,0.413390055,0.817319685,-0.397765095
1764510958.2711833,-1.34288,3.57084,0.48832,0.413390055,0.817319685,-0.397765095
1764510958.2711833,-1.34288,3.57084,0.48832,0.413390055,0.817319685,-0.397765095
1764510958.2711833,-1.34288,3.57084,0.48832,0.413390055,0.817319685,-0.397765095
1764510958.3201528,-1.34288,3.57084,0.48832,0.413390055,0.817319685,-0.397765095
1764510958.3201528,-1.34288,3.57084,0.48832,0.413390055,0.817319685,-0.397765095
1764510958.3642852,-1.8006799999999998,3.61662,0.48832,0.414854895,0.81811314,-0.39819234
1764510958.3642852,-1.8006799999999998,3.61662,0.48832,0.414854895,0.81811314,-0.39819234
1764510958.3642852,-1.8006799999999998,3.61662,0.48832,0.414854895,0.81811314,-0.39819234
1764510958.3642852,-1.8006799999999998,3.61662,0.48832,0.414854895,0.81811314,-0.39819234
1764510958.3642852,-1.8006799999999998,3.61662,0.48832,0.414854895,0.81811314,-0.39819234
1764510958.3642852,-1.8006799999999998,3.61662,0.48832,0.414854895,0.81811314,-0.39819234
1764510958.3642852,-1.8006799999999998,3.61662,0.48832,0.414854895,0.81811314,-0.39819234
1764510958.3642852,-1.8006799999999998,3.61662,0.48832,0.414854895,0.81811314,-0.39819234
1764510958.3642852,-1.8006799999999998,3.61662,0.48832,0.414854895,0.81811314,-0.39819234
1764510958.3642852,-1.8006799999999998,3.61662,0.48832,0.414854895,0.81811314,-0.39819234
1764510958.3642852,-1.6786,3.38772,0.6714399999999999,0.415831455,0.81774693,-0.398497515
1764510958.368063,-1.6786,3.38772,0.6714399999999999,0.415831455,0.81774693,-0.398497515
1764510958.368063,-1.6786,3.38772,0.6714399999999999,0.415831455,0.81774693,-0.398497515
1764510958.368063,-1.6786,3.38772,0.6714399999999999,0.415831455,0.81774693,-0.398497515
1764510958.368063,-1.6786,3.38772,0.6714399999999999,0.415831455,0.81774693,-0.398497515
1764510958.368063,-1.6786,3.38772,0.6714399999999999,0.415831455,0.81774693,-0.398497515
1764510958.368063,-1.6786,3.38772,0.6714399999999999,0.415831455,0.81774693,-0.398497515
1764510958.368063,-1.6786,3.38772,0.6714399999999999,0.415831455,0.81774693,-0.398497515
1764510958.368063,-1.6786,3.38772,0.6714399999999999,0.415831455,0.81774693,-0.398497515
1764510958.368063,-1.6786,3.38772,0.6714399999999999,0.415831455,0.81774693,-0.398497515
1764510958.368063,-0.77826,4.07442,0.59514,0.41516007,0.81591588,-0.39880269
1764510958.368063,-0.77826,4.07442,0.59514,0.41516007,0.81591588,-0.39880269
1764510958.3685143,-0.77826,4.07442,0.59514,0.41516007,0.81591588,-0.39880269
1764510958.3685143,-0.77826,4.07442,0.59514,0.41516007,0.81591588,-0.39880269
1764510958.3685143,-0.77826,4.07442,0.59514,0.41516007,0.81591588,-0.39880269
1764510958.3685143,-0.77826,4.07442,0.59514,0.41516007,0.81591588,-0.39880269
1764510958.3685143,-0.77826,4.07442,0.59514,0.41516007,0.81591588,-0.39880269
1764510958.3685143,-0.77826,4.07442,0.59514,0.41516007,0.81591588,-0.39880269
1764510958.3685143,-0.77826,4.07442,0.59514,0.41516007,0.81591588,-0.39880269
1764510958.3685143,-0.77826,4.07442,0.59514,0.41516007,0.81591588,-0.39880269
1764510958.3685143,-0.41202,3.21986,0.21364,0.41357316,0.81469518,-0.39965718
1764510958.3695257,-0.41202,3.21986,0.21364,0.41357316,0.81469518,-0.39965718
1764510958.3695257,-0.41202,3.21986,0.21364,0.41357316,0.81469518,-0.39965718
1764510958.3695257,-0.41202,3.21986,0.21364,0.41357316,0.81469518,-0.39965718
1764510958.3695257,-0.41202,3.21986,0.21364,0.41357316,0.81469518,-0.39965718
1764510958.3695257,-0.41202,3.21986,0.21364,0.41357316,0.81469518,-0.39965718
1764510958.4135256,-0.41202,3.21986,0.21364,0.41357316,0.81469518,-0.39965718
1764510958.4135256,-0.41202,3.21986,0.21364,0.41357316,0.81469518,-0.39965718
1764510958.4135256,-0.41202,3.21986,0.21364,0.41357316,0.81469518,-0.39965718
1764510958.4135256,-0.41202,3.21986,0.21364,0.41357316,0.81469518,-0.39965718
1764510958.4135256,-0.6714399999999999,3.47928,0.28994,0.413512125,0.81506139,-0.40051167
1764510958.4135256,-0.6714399999999999,3.47928,0.28994,0.413512125,0.81506139,-0.40051167
1764510958.4135256,-0.6714399999999999,3.47928,0.28994,0.413512125,0.81506139,-0.40051167
1764510958.4135256,-0.6714399999999999,3.47928,0.28994,0.413512125,0.81506139,-0.40051167
1764510958.4135256,-0.6714399999999999,3.47928,0.28994,0.413512125,0.81506139,-0.40051167
1764510958.4135256,-0.6714399999999999,3.47928,0.28994,0.413512125,0.81506139,-0.40051167
1764510958.4135256,-0.6714399999999999,3.47928,0.28994,0.413512125,0.81506139,-0.40051167
1764510958.4135256,-0.6714399999999999,3.47928,0.28994,0.413512125,0.81506139,-0.40051167
1764510958.4152758,-0.6714399999999999,3.47928,0.28994,0.413512125,0.81506139,-0.40051167
1764510958.4152758,-0.6714399999999999,3.47928,0.28994,0.413512125,0.81506139,-0.40051167
1764510958.4152758,-0.1678599999999999,3.86078,-0.0762999999999999,0.41271867,0.815366565,-0.40002339
1764510958.4152758,-0.1678599999999999,3.86078,-0.0762999999999999,0.41271867,0.815366565,-0.40002339
1764510958.4162853,-0.1678599999999999,3.86078,-0.0762999999999999,0.41271867,0.815366565,-0.40002339
1764510958.4162853,-0.1678599999999999,3.86078,-0.0762999999999999,0.41271867,0.815366565,-0.40002339
1764510958.4162853,-0.1678599999999999,3.86078,-0.0762999999999999,0.41271867,0.815366565,-0.40002339
1764510958.4162853,-0.1678599999999999,3.86078,-0.0762999999999999,0.41271867,0.815366565,-0.40002339
1764510958.4162853,-0.1678599999999999,3.86078,-0.0762999999999999,0.41271867,0.815366565,-0.40002339
1764510958.4172852,-0.1678599999999999,3.86078,-0.0762999999999999,0.41271867,0.815366565,-0.40002339
1764510958.4172852,-0.1678599999999999,3.86078,-0.0762999999999999,0.41271867,0.815366565,-0.40002339
1764510958.4172852,-0.1678599999999999,3.86078,-0.0762999999999999,0.41271867,0.815366565,-0.40002339
1764510958.4172852,-0.6714399999999999,3.52506,0.1525999999999999,0.412535565,0.815610705,-0.399107865
1764510958.4172852,-0.6714399999999999,3.52506,0.1525999999999999,0.412535565,0.815610705,-0.399107865
1764510958.4184053,-0.6714399999999999,3.52506,0.1525999999999999,0.412535565,0.815610705,-0.399107865
1764510958.4184053,-0.6714399999999999,3.52506,0.1525999999999999,0.412535565,0.815610705,-0.399107865
1764510958.4184053,-0.6714399999999999,3.52506,0.1525999999999999,0.412535565,0.815610705,-0.399107865
1764510958.4184053,-0.6714399999999999,3.52506,0.1525999999999999,0.412535565,0.815610705,-0.399107865
1764510958.4627938,-0.6714399999999999,3.52506,0.1525999999999999,0.412535565,0.815610705,-0.399107865
1764510958.4627938,-0.6714399999999999,3.52506,0.1525999999999999,0.412535565,0.815610705,-0.399107865
1764510958.4627938,-0.6714399999999999,3.52506,0.1525999999999999,0.412535565,0.815610705,-0.399107865
1764510958.4627938,-0.6714399999999999,3.52506,0.1525999999999999,0.412535565,0.815610705,-0.399107865
1764510958.4627938,-0.10682,4.2728,0.56462,0.413267985,0.81640416,-0.39904683
1764510958.4627938,-0.10682,4.2728,0.56462,0.413267985,0.81640416,-0.39904683
1764510958.4627938,-0.10682,4.2728,0.56462,0.413267985,0.81640416,-0.39904683
1764510958.4627938,-0.10682,4.2728,0.56462,0.413267985,0.81640416,-0.39904683
1764510958.4627938,-0.10682,4.2728,0.56462,0.413267985,0.81640416,-0.39904683
1764510958.4627938,-0.10682,4.2728,0.56462,0.413267985,0.81640416,-0.39904683
1764510958.4627938,-0.10682,4.2728,0.56462,0.413267985,0.81640416,-0.39904683
1764510958.4627938,-0.10682,4.2728,0.56462,0.413267985,0.81640416,-0.39904683
1764510958.4627938,-0.10682,4.2728,0.56462,0.413267985,0.81640416,-0.39904683
1764510958.4627938,-0.10682,4.2728,0.56462,0.413267985,0.81640416,-0.39904683
1764510958.4627938,0.44254,3.70818,-0.09156,0.413390055,0.81689244,-0.398863725
1764510958.4627938,0.44254,3.70818,-0.09156,0.413390055,0.81689244,-0.398863725
1764510958.4627938,0.44254,3.70818,-0.09156,0.413390055,0.81689244,-0.398863725
1764510958.4627938,0.44254,3.70818,-0.09156,0.413390055,0.81689244,-0.398863725
1764510958.4627938,0.44254,3.70818,-0.09156,0.413390055,0.81689244,-0.398863725
1764510958.4627938,0.44254,3.70818,-0.09156,0.413390055,0.81689244,-0.398863725
1764510958.4627938,0.44254,3.70818,-0.09156,0.413390055,0.81689244,-0.398863725
1764510958.4627938,0.44254,3.70818,-0.09156,0.413390055,0.81689244,-0.398863725
1764510958.5073235,0.44254,3.70818,-0.09156,0.413390055,0.81689244,-0.398863725
1764510958.5073235,0.44254,3.70818,-0.09156,0.413390055,0.81689244,-0.398863725
1764510958.5073235,-0.09156,3.8913,0.36624,0.413145915,0.81750279,-0.39953511
1764510958.5083408,-0.09156,3.8913,0.36624,0.413145915,0.81750279,-0.39953511
1764510958.5519986,-0.09156,3.8913,0.36624,0.413145915,0.81750279,-0.39953511
1764510958.5519986,-0.09156,3.8913,0.36624,0.413145915,0.81750279,-0.39953511
1764510958.5519986,-0.09156,3.8913,0.36624,0.413145915,0.81750279,-0.39953511
1764510958.5519986,-0.09156,3.8913,0.36624,0.413145915,0.81750279,-0.39953511
1764510958.5519986,-0.09156,3.8913,0.36624,0.413145915,0.81750279,-0.39953511
1764510958.5519986,-0.09156,3.8913,0.36624,0.413145915,0.81750279,-0.39953511
1764510958.5519986,-0.09156,3.8913,0.36624,0.413145915,0.81750279,-0.39953511
1764510958.5519986,-0.09156,3.8913,0.36624,0.413145915,0.81750279,-0.39953511
1764510958.5519986,0.06104,4.0439,0.24416,0.41247453,0.8184183150000001,-0.39941304
1764510958.5519986,0.06104,4.0439,0.24416,0.41247453,0.8184183150000001,-0.39941304
1764510958.5519986,0.06104,4.0439,0.24416,0.41247453,0.8184183150000001,-0.39941304
1764510958.5519986,0.06104,4.0439,0.24416,0.41247453,0.8184183150000001,-0.39941304
1764510958.5519986,0.06104,4.0439,0.24416,0.41247453,0.8184183150000001,-0.39941304
1764510958.5519986,0.06104,4.0439,0.24416,0.41247453,0.8184183150000001,-0.39941304
1764510958.5519986,0.06104,4.0439,0.24416,0.41247453,0.8184183150000001,-0.39941304
1764510958.5519986,0.06104,4.0439,0.24416,0.41247453,0.8184183150000001,-0.39941304
1764510958.5519986,0.06104,4.0439,0.24416,0.41247453,0.8184183150000001,-0.39941304
1764510958.5547638,0.06104,4.0439,0.24416,0.41247453,0.8184183150000001,-0.39941304
1764510958.5547638,-0.51884,3.78448,0.24416,0.41284074,0.8184183150000001,-0.39904683
1764510958.5547638,-0.51884,3.78448,0.24416,0.41284074,0.8184183150000001,-0.39904683
1764510958.5547638,-0.51884,3.78448,0.24416,0.41284074,0.8184183150000001,-0.39904683
1764510958.5547638,-0.51884,3.78448,0.24416,0.41284074,0.8184183150000001,-0.39904683
1764510958.5547638,-0.51884,3.78448,0.24416,0.41284074,0.8184183150000001,-0.39904683
1764510958.5547638,-0.51884,3.78448,0.24416,0.41284074,0.8184183150000001,-0.39904683
1764510958.5547638,-0.51884,3.78448,0.24416,0.41284074,0.8184183150000001,-0.39904683
1764510958.5547638,-0.51884,3.78448,0.24416,0.41284074,0.8184183150000001,-0.39904683
1764510958.5547638,-0.51884,3.78448,0.24416,0.41284074,0.8184183150000001,-0.39904683
1764510958.5547638,-0.51884,3.78448,0.24416,0.41284074,0.8184183150000001,-0.39904683
1764510958.5547638,-0.19838,3.99812,0.51884,0.41320695,0.818662455,-0.398985795
1764510958.5547638,-0.19838,3.99812,0.51884,0.41320695,0.818662455,-0.398985795
1764510958.5547638,-0.19838,3.99812,0.51884,0.41320695,0.818662455,-0.398985795
1764510958.5547638,-0.19838,3.99812,0.51884,0.41320695,0.818662455,-0.398985795
1764510958.5547638,-0.19838,3.99812,0.51884,0.41320695,0.818662455,-0.398985795
1764510958.5547638,-0.19838,3.99812,0.51884,0.41320695,0.818662455,-0.398985795
1764510958.5547638,-0.19838,3.99812,0.51884,0.41320695,0.818662455,-0.398985795
1764510958.5547638,-0.19838,3.99812,0.51884,0.41320695,0.818662455,-0.398985795
1764510958.5547638,-0.19838,3.99812,0.51884,0.41320695,0.818662455,-0.398985795
1764510958.5547638,-0.19838,3.99812,0.51884,0.41320695,0.818662455,-0.398985795
1764510958.5547638,-0.41202,3.38772,0.5341,0.41284074,0.817930035,-0.39782613
1764510958.5547638,-0.41202,3.38772,0.5341,0.41284074,0.817930035,-0.39782613
1764510958.5547638,-0.41202,3.38772,0.5341,0.41284074,0.817930035,-0.39782613
1764510958.5547638,-0.41202,3.38772,0.5341,0.41284074,0.817930035,-0.39782613
1764510958.5547638,-0.41202,3.38772,0.5341,0.41284074,0.817930035,-0.39782613
1764510958.5547638,-0.41202,3.38772,0.5341,0.41284074,0.817930035,-0.39782613
1764510958.5547638,-0.41202,3.38772,0.5341,0.41284074,0.817930035,-0.39782613
1764510958.5547638,-0.41202,3.38772,0.5341,0.41284074,0.817930035,-0.39782613
1764510958.5547638,-0.41202,3.38772,0.5341,0.41284074,0.817930035,-0.39782613
1764510958.5557704,-0.41202,3.38772,0.5341,0.41284074,0.817930035,-0.39782613
1764510958.6032095,-0.25942,3.29616,0.9156,0.413634195,0.816709335,-0.3979482
1764510958.6129951,-0.25942,3.29616,0.9156,0.413634195,0.816709335,-0.3979482
1764510958.6129951,-0.25942,3.29616,0.9156,0.413634195,0.816709335,-0.3979482
1764510958.6129951,-0.25942,3.29616,0.9156,0.413634195,0.816709335,-0.3979482
1764510958.6139965,-0.25942,3.29616,0.9156,0.413634195,0.816709335,-0.3979482
1764510958.6139965,-0.25942,3.29616,0.9156,0.413634195,0.816709335,-0.3979482
1764510958.6139965,-0.25942,3.29616,0.9156,0.413634195,0.816709335,-0.3979482
1764510958.6139965,-0.25942,3.29616,0.9156,0.413634195,0.816709335,-0.3979482
1764510958.6149898,-0.25942,3.29616,0.9156,0.413634195,0.816709335,-0.3979482
1764510958.6149898,-0.25942,3.29616,0.9156,0.413634195,0.816709335,-0.3979482
1764510958.6149898,-0.6867,3.6624,0.88508,0.414610755,0.81713658,-0.399229935
1764510958.6159968,-0.6867,3.6624,0.88508,0.414610755,0.81713658,-0.399229935
1764510958.6159968,-0.6867,3.6624,0.88508,0.414610755,0.81713658,-0.399229935
1764510958.6159968,-0.6867,3.6624,0.88508,0.414610755,0.81713658,-0.399229935
1764510958.6159968,-0.6867,3.6624,0.88508,0.414610755,0.81713658,-0.399229935
1764510958.616995,-0.6867,3.6624,0.88508,0.414610755,0.81713658,-0.399229935
1764510958.616995,-0.6867,3.6624,0.88508,0.414610755,0.81713658,-0.399229935
1764510958.616995,-0.6867,3.6624,0.88508,0.414610755,0.81713658,-0.399229935
1764510958.616995,-0.6867,3.6624,0.88508,0.414610755,0.81713658,-0.399229935
1764510958.6176543,-0.6867,3.6624,0.88508,0.414610755,0.81713658,-0.399229935
1764510958.6176543,-1.05294,3.75396,0.56462,0.41406144,0.817075545,-0.399840285
1764510958.6176543,-1.05294,3.75396,0.56462,0.41406144,0.817075545,-0.399840285
1764510958.6176543,-1.05294,3.75396,0.56462,0.41406144,0.817075545,-0.399840285
1764510958.6176543,-1.05294,3.75396,0.56462,0.41406144,0.817075545,-0.399840285
1764510958.6463208,-1.05294,3.75396,0.56462,0.41406144,0.817075545,-0.399840285
1764510958.6463208,-1.05294,3.75396,0.56462,0.41406144,0.817075545,-0.399840285
1764510958.6473374,-1.05294,3.75396,0.56462,0.41406144,0.817075545,-0.399840285
1764510958.6473374,-1.05294,3.75396,0.56462,0.41406144,0.817075545,-0.399840285
1764510958.6473374,-1.05294,3.75396,0.56462,0.41406144,0.817075545,-0.399840285
1764510958.6473374,-1.05294,3.75396,0.56462,0.41406144,0.817075545,-0.399840285
1764510958.6473374,-0.4578,3.67766,0.18312,0.4113759,0.81689244,-0.39990132
1764510958.6473374,-0.4578,3.67766,0.18312,0.4113759,0.81689244,-0.39990132
1764510958.6473374,-0.4578,3.67766,0.18312,0.4113759,0.81689244,-0.39990132
1764510958.6473374,-0.4578,3.67766,0.18312,0.4113759,0.81689244,-0.39990132
1764510958.6473374,-0.4578,3.67766,0.18312,0.4113759,0.81689244,-0.39990132
1764510958.648494,-0.4578,3.67766,0.18312,0.4113759,0.81689244,-0.39990132
1764510958.648494,-0.4578,3.67766,0.18312,0.4113759,0.81689244,-0.39990132
1764510958.648494,-0.4578,3.67766,0.18312,0.4113759,0.81689244,-0.39990132
1764510958.648494,-0.4578,3.67766,0.18312,0.4113759,0.81689244,-0.39990132
1764510958.6499867,-0.4578,3.67766,0.18312,0.4113759,0.81689244,-0.39990132
1764510958.6499867,-0.6409199999999999,3.52506,0.4578,0.411436935,0.81774693,-0.39990132
1764510958.6499867,-0.6409199999999999,3.52506,0.4578,0.411436935,0.81774693,-0.39990132
1764510958.6499867,-0.6409199999999999,3.52506,0.4578,0.411436935,0.81774693,-0.39990132
1764510958.6499867,-0.6409199999999999,3.52506,0.4578,0.411436935,0.81774693,-0.39990132
1764510958.6499867,-0.6409199999999999,3.52506,0.4578,0.411436935,0.81774693,-0.39990132
1764510958.6499867,-0.6409199999999999,3.52506,0.4578,0.411436935,0.81774693,-0.39990132
1764510958.6940465,-0.6409199999999999,3.52506,0.4578,0.411436935,0.81774693,-0.39990132
1764510958.6940465,-0.6409199999999999,3.52506,0.4578,0.411436935,0.81774693,-0.39990132
1764510958.6950405,-0.6409199999999999,3.52506,0.4578,0.411436935,0.81774693,-0.39990132
1764510958.6950405,-0.6409199999999999,3.52506,0.4578,0.411436935,0.81774693,-0.39990132
1764510958.6950405,-0.44254,3.84552,0.0,0.412413495,0.817685895,-0.397887165
1764510958.6950405,-0.44254,3.84552,0.0,0.412413495,0.817685895,-0.397887165
1764510958.6950405,-0.44254,3.84552,0.0,0.412413495,0.817685895,-0.397887165
1764510958.6950405,-0.44254,3.84552,0.0,0.412413495,0.817685895,-0.397887165
1764510958.6950405,-0.44254,3.84552,0.0,0.412413495,0.817685895,-0.397887165
1764510958.6950405,-0.44254,3.84552,0.0,0.412413495,0.817685895,-0.397887165
1764510958.6950405,-0.44254,3.84552,0.0,0.412413495,0.817685895,-0.397887165
1764510958.6950405,-0.44254,3.84552,0.0,0.412413495,0.817685895,-0.397887165
1764510958.6950405,-0.44254,3.84552,0.0,0.412413495,0.817685895,-0.397887165
1764510958.6950405,-0.44254,3.84552,0.0,0.412413495,0.817685895,-0.397887165
1764510958.6950405,0.8698199999999999,3.84552,0.56462,0.411803145,0.815732775,-0.39745992
1764510958.6950405,0.8698199999999999,3.84552,0.56462,0.411803145,0.815732775,-0.39745992
1764510958.6950405,0.8698199999999999,3.84552,0.56462,0.411803145,0.815732775,-0.39745992
1764510958.6950405,0.8698199999999999,3.84552,0.56462,0.411803145,0.815732775,-0.39745992
1764510958.6961925,0.8698199999999999,3.84552,0.56462,0.411803145,0.815732775,-0.39745992
1764510958.6961925,0.8698199999999999,3.84552,0.56462,0.411803145,0.815732775,-0.39745992
1764510958.7447238,0.8698199999999999,3.84552,0.56462,0.411803145,0.815732775,-0.39745992
1764510958.7447238,0.8698199999999999,3.84552,0.56462,0.411803145,0.815732775,-0.39745992
1764510958.7447238,0.8698199999999999,3.84552,0.56462,0.411803145,0.815732775,-0.39745992
1764510958.7447238,0.8698199999999999,3.84552,0.56462,0.411803145,0.815732775,-0.39745992
1764510958.7447238,1.526,4.16598,0.3357199999999999,0.41235246,0.814390005,-0.399229935
1764510958.7447238,1.526,4.16598,0.3357199999999999,0.41235246,0.814390005,-0.399229935
1764510958.7447238,1.526,4.16598,0.3357199999999999,0.41235246,0.814390005,-0.399229935
1764510958.7447238,1.526,4.16598,0.3357199999999999,0.41235246,0.814390005,-0.399229935
1764510958.7447238,1.526,4.16598,0.3357199999999999,0.41235246,0.814390005,-0.399229935
1764510958.7447238,1.526,4.16598,0.3357199999999999,0.41235246,0.814390005,-0.399229935
1764510958.7447238,1.526,4.16598,0.3357199999999999,0.41235246,0.814390005,-0.399229935
1764510958.7447238,1.526,4.16598,0.3357199999999999,0.41235246,0.814390005,-0.399229935
1764510958.7447238,1.526,4.16598,0.3357199999999999,0.41235246,0.814390005,-0.399229935
1764510958.7447238,1.526,4.16598,0.3357199999999999,0.41235246,0.814390005,-0.399229935
1764510958.7447238,0.3051999999999999,4.08968,0.50358,0.41345109,0.81554967,-0.400572705
1764510958.745725,0.3051999999999999,4.08968,0.50358,0.41345109,0.81554967,-0.400572705
1764510958.745725,0.3051999999999999,4.08968,0.50358,0.41345109,0.81554967,-0.400572705
1764510958.745725,0.3051999999999999,4.08968,0.50358,0.41345109,0.81554967,-0.400572705
1764510958.745725,0.3051999999999999,4.08968,0.50358,0.41345109,0.81554967,-0.400572705
1764510958.745725,0.3051999999999999,4.08968,0.50358,0.41345109,0.81554967,-0.400572705
1764510958.745725,0.3051999999999999,4.08968,0.50358,0.41345109,0.81554967,-0.400572705
1764510958.745725,0.3051999999999999,4.08968,0.50358,0.41345109,0.81554967,-0.400572705
1764510958.745725,0.3051999999999999,4.08968,0.50358,0.41345109,0.81554967,-0.400572705
1764510958.745725,0.3051999999999999,4.08968,0.50358,0.41345109,0.81554967,-0.400572705
1764510958.745725,-0.94612,3.31142,0.25942,0.412779705,0.817075545,-0.401915475
1764510958.745725,-0.94612,3.31142,0.25942,0.412779705,0.817075545,-0.401915475
1764510958.745725,-0.94612,3.31142,0.25942,0.412779705,0.817075545,-0.401915475
1764510958.745725,-0.94612,3.31142,0.25942,0.412779705,0.817075545,-0.401915475
1764510958.790032,-0.94612,3.31142,0.25942,0.412779705,0.817075545,-0.401915475
1764510958.790032,-0.94612,3.31142,0.25942,0.412779705,0.817075545,-0.401915475
1764510958.790032,-0.94612,3.31142,0.25942,0.412779705,0.817075545,-0.401915475
1764510958.790032,-0.94612,3.31142,0.25942,0.412779705,0.817075545,-0.401915475
1764510958.790032,-0.94612,3.31142,0.25942,0.412779705,0.817075545,-0.401915475
1764510958.790032,-0.94612,3.31142,0.25942,0.412779705,0.817075545,-0.401915475
1764510958.790032,-1.34288,3.09778,0.42728,0.41162004,0.81725865,-0.401305125
1764510958.790032,-1.34288,3.09778,0.42728,0.41162004,0.81725865,-0.401305125
1764510958.790032,-1.34288,3.09778,0.42728,0.41162004,0.81725865,-0.401305125
1764510958.790032,-1.34288,3.09778,0.42728,0.41162004,0.81725865,-0.401305125
1764510958.790032,-1.34288,3.09778,0.42728,0.41162004,0.81725865,-0.401305125
1764510958.790032,-1.34288,3.09778,0.42728,0.41162004,0.81725865,-0.401305125
1764510958.790032,-1.34288,3.09778,0.42728,0.41162004,0.81725865,-0.401305125
1764510958.790032,-1.34288,3.09778,0.42728,0.41162004,0.81725865,-0.401305125
1764510958.790032,-1.34288,3.09778,0.42728,0.41162004,0.81725865,-0.401305125
1764510958.790032,-1.34288,3.09778,0.42728,0.41162004,0.81725865,-0.401305125
1764510958.790032,-0.36624,3.61662,0.41202,0.411925215,0.815854845,-0.400816845
1764510958.790032,-0.36624,3.61662,0.41202,0.411925215,0.815854845,-0.400816845
1764510958.790032,-0.36624,3.61662,0.41202,0.411925215,0.815854845,-0.400816845
1764510958.790032,-0.36624,3.61662,0.41202,0.411925215,0.815854845,-0.400816845
1764510958.8347404,-0.36624,3.61662,0.41202,0.411925215,0.815854845,-0.400816845
1764510958.8347404,-0.36624,3.61662,0.41202,0.411925215,0.815854845,-0.400816845
1764510958.8347404,-0.36624,3.61662,0.41202,0.411925215,0.815854845,-0.400816845
1764510958.8347404,-0.36624,3.61662,0.41202,0.411925215,0.815854845,-0.400816845
1764510958.8347404,-0.36624,3.61662,0.41202,0.411925215,0.815854845,-0.400816845
1764510958.8347404,-0.36624,3.61662,0.41202,0.411925215,0.815854845,-0.400816845
1764510958.8347404,0.3815,4.440659999999999,0.13734,0.413145915,0.8154276,-0.40051167
1764510958.8347404,0.3815,4.440659999999999,0.13734,0.413145915,0.8154276,-0.40051167
1764510958.8347404,0.3815,4.440659999999999,0.13734,0.413145915,0.8154276,-0.40051167
1764510958.8347404,0.3815,4.440659999999999,0.13734,0.413145915,0.8154276,-0.40051167
1764510958.8347404,0.3815,4.440659999999999,0.13734,0.413145915,0.8154276,-0.40051167
1764510958.8347404,0.3815,4.440659999999999,0.13734,0.413145915,0.8154276,-0.40051167
1764510958.8347404,0.3815,4.440659999999999,0.13734,0.413145915,0.8154276,-0.40051167
1764510958.8347404,0.3815,4.440659999999999,0.13734,0.413145915,0.8154276,-0.40051167
1764510958.8347404,0.3815,4.440659999999999,0.13734,0.413145915,0.8154276,-0.40051167
1764510958.8347404,0.3815,4.440659999999999,0.13734,0.413145915,0.8154276,-0.40051167
1764510958.8347404,0.7019599999999999,3.83026,-0.25942,0.4125966,0.816465195,-0.40051167
1764510958.8347404,0.7019599999999999,3.83026,-0.25942,0.4125966,0.816465195,-0.40051167
1764510958.8347404,0.7019599999999999,3.83026,-0.25942,0.4125966,0.816465195,-0.40051167
1764510958.8347404,0.7019599999999999,3.83026,-0.25942,0.4125966,0.816465195,-0.40051167
1764510958.8347404,0.7019599999999999,3.83026,-0.25942,0.4125966,0.816465195,-0.40051167
1764510958.8347404,0.7019599999999999,3.83026,-0.25942,0.4125966,0.816465195,-0.40051167
1764510958.8357637,0.7019599999999999,3.83026,-0.25942,0.4125966,0.816465195,-0.40051167
1764510958.8357637,0.7019599999999999,3.83026,-0.25942,0.4125966,0.816465195,-0.40051167
1764510958.878431,0.7019599999999999,3.83026,-0.25942,0.4125966,0.816465195,-0.40051167
1764510958.8794496,0.7019599999999999,3.83026,-0.25942,0.4125966,0.816465195,-0.40051167
1764510958.8794496,-0.50358,3.3572,0.0762999999999999,0.4125966,0.81823521,-0.401060985
1764510958.8794496,-0.50358,3.3572,0.0762999999999999,0.4125966,0.81823521,-0.401060985
1764510958.8794496,-0.50358,3.3572,0.0762999999999999,0.4125966,0.81823521,-0.401060985
1764510958.8794496,-0.50358,3.3572,0.0762999999999999,0.4125966,0.81823521,-0.401060985
1764510958.8794496,-0.50358,3.3572,0.0762999999999999,0.4125966,0.81823521,-0.401060985
1764510958.8794496,-0.50358,3.3572,0.0762999999999999,0.4125966,0.81823521,-0.401060985
1764510958.8794496,-0.50358,3.3572,0.0762999999999999,0.4125966,0.81823521,-0.401060985
1764510958.8794496,-0.50358,3.3572,0.0762999999999999,0.4125966,0.81823521,-0.401060985
1764510958.8794496,-0.50358,3.3572,0.0762999999999999,0.4125966,0.81823521,-0.401060985
1764510958.8794496,-0.50358,3.3572,0.0762999999999999,0.4125966,0.81823521,-0.401060985
1764510958.8794496,-0.5341,3.38772,0.27468,0.412291425,0.817930035,-0.40087788
1764510958.8794496,-0.5341,3.38772,0.27468,0.412291425,0.817930035,-0.40087788
1764510958.8794496,-0.5341,3.38772,0.27468,0.412291425,0.817930035,-0.40087788
1764510958.8794496,-0.5341,3.38772,0.27468,0.412291425,0.817930035,-0.40087788
1764510958.8794496,-0.5341,3.38772,0.27468,0.412291425,0.817930035,-0.40087788
1764510958.8794496,-0.5341,3.38772,0.27468,0.412291425,0.817930035,-0.40087788
1764510958.8794496,-0.5341,3.38772,0.27468,0.412291425,0.817930035,-0.40087788
1764510958.8794496,-0.5341,3.38772,0.27468,0.412291425,0.817930035,-0.40087788
1764510958.8794496,-0.5341,3.38772,0.27468,0.412291425,0.817930035,-0.40087788
1764510958.8794496,-0.5341,3.38772,0.27468,0.412291425,0.817930035,-0.40087788
1764510958.8794496,-0.28994,3.15882,0.57988,0.41223039,0.817197615,-0.4003896
1764510958.8809786,-0.28994,3.15882,0.57988,0.41223039,0.817197615,-0.4003896
1764510958.9298162,-0.28994,3.15882,0.57988,0.41223039,0.817197615,-0.4003896
1764510958.9298162,-0.28994,3.15882,0.57988,0.41223039,0.817197615,-0.4003896
1764510958.9298162,-0.28994,3.15882,0.57988,0.41223039,0.817197615,-0.4003896
1764510958.9298162,-0.28994,3.15882,0.57988,0.41223039,0.817197615,-0.4003896
1764510958.9298162,-0.28994,3.15882,0.57988,0.41223039,0.817197615,-0.4003896
1764510958.9298162,-0.28994,3.15882,0.57988,0.41223039,0.817197615,-0.4003896
1764510958.9298162,-0.28994,3.15882,0.57988,0.41223039,0.817197615,-0.4003896
1764510958.9298162,-0.28994,3.15882,0.57988,0.41223039,0.817197615,-0.4003896
1764510958.930939,-0.01526,3.72344,0.74774,0.412291425,0.816587265,-0.40099995
1764510958.930939,-0.01526,3.72344,0.74774,0.412291425,0.816587265,-0.40099995
1764510958.930939,-0.01526,3.72344,0.74774,0.412291425,0.816587265,-0.40099995
1764510958.930939,-0.01526,3.72344,0.74774,0.412291425,0.816587265,-0.40099995
1764510958.930939,-0.01526,3.72344,0.74774,0.412291425,0.816587265,-0.40099995
1764510958.930939,-0.01526,3.72344,0.74774,0.412291425,0.816587265,-0.40099995
1764510958.930939,-0.01526,3.72344,0.74774,0.412291425,0.816587265,-0.40099995
1764510958.931953,-0.01526,3.72344,0.74774,0.412291425,0.816587265,-0.40099995
1764510958.9757218,-0.01526,3.72344,0.74774,0.412291425,0.816587265,-0.40099995
1764510958.9757218,-0.01526,3.72344,0.74774,0.412291425,0.816587265,-0.40099995
1764510958.9757218,-0.4578,3.99812,0.54936,0.41174211,0.817441755,-0.40124409
1764510958.9757218,-0.4578,3.99812,0.54936,0.41174211,0.817441755,-0.40124409
1764510958.9757218,-0.4578,3.99812,0.54936,0.41174211,0.817441755,-0.40124409
1764510958.9757218,-0.4578,3.99812,0.54936,0.41174211,0.817441755,-0.40124409
1764510958.9757218,-0.4578,3.99812,0.54936,0.41174211,0.817441755,-0.40124409
1764510958.9757218,-0.4578,3.99812,0.54936,0.41174211,0.817441755,-0.40124409
1764510958.9757218,-0.4578,3.99812,0.54936,0.41174211,0.817441755,-0.40124409
1764510958.9757218,-0.4578,3.99812,0.54936,0.41174211,0.817441755,-0.40124409
1764510958.9757218,-0.4578,3.99812,0.54936,0.41174211,0.817441755,-0.40124409
1764510958.9757218,-0.4578,3.99812,0.54936,0.41174211,0.817441755,-0.40124409
1764510958.9757218,-0.5341,3.38772,0.1525999999999999,0.41064348,0.8163431250000001,-0.40099995
1764510958.9757218,-0.5341,3.38772,0.1525999999999999,0.41064348,0.8163431250000001,-0.40099995
1764510958.9757218,-0.5341,3.38772,0.1525999999999999,0.41064348,0.8163431250000001,-0.40099995
1764510958.9757218,-0.5341,3.38772,0.1525999999999999,0.41064348,0.8163431250000001,-0.40099995
1764510958.9757218,-0.5341,3.38772,0.1525999999999999,0.41064348,0.8163431250000001,-0.40099995
1764510958.9757218,-0.5341,3.38772,0.1525999999999999,0.41064348,0.8163431250000001,-0.40099995
1764510958.9757218,-0.5341,3.38772,0.1525999999999999,0.41064348,0.8163431250000001,-0.40099995
1764510958.9757218,-0.5341,3.38772,0.1525999999999999,0.41064348,0.8163431250000001,-0.40099995
1764510958.9757218,-0.5341,3.38772,0.1525999999999999,0.41064348,0.8163431250000001,-0.40099995
1764510958.9757218,-0.5341,3.38772,0.1525999999999999,0.41064348,0.8163431250000001,-0.40099995
1764510958.9757218,0.56462,3.72344,0.1678599999999999,0.41149797,0.81591588,-0.401427195
1764510958.9757218,0.56462,3.72344,0.1678599999999999,0.41149797,0.81591588,-0.401427195
1764510958.9757218,0.56462,3.72344,0.1678599999999999,0.41149797,0.81591588,-0.401427195
1764510958.9772637,0.56462,3.72344,0.1678599999999999,0.41149797,0.81591588,-0.401427195
1764510958.9772637,0.56462,3.72344,0.1678599999999999,0.41149797,0.81591588,-0.401427195
1764510958.9772637,0.56462,3.72344,0.1678599999999999,0.41149797,0.81591588,-0.401427195
1764510959.0681877,0.56462,3.72344,0.1678599999999999,0.41149797,0.81591588,-0.401427195
1764510959.0681877,0.56462,3.72344,0.1678599999999999,0.41149797,0.81591588,-0.401427195
1764510959.0681877,0.56462,3.72344,0.1678599999999999,0.41149797,0.81591588,-0.401427195
1764510959.0681877,0.56462,3.72344,0.1678599999999999,0.41149797,0.81591588,-0.401427195
1764510959.0681877,0.27468,3.9676,0.62566,0.41247453,0.816709335,-0.4016103
1764510959.0681877,0.27468,3.9676,0.62566,0.41247453,0.816709335,-0.4016103
1764510959.0681877,0.27468,3.9676,0.62566,0.41247453,0.816709335,-0.4016103
1764510959.0681877,0.27468,3.9676,0.62566,0.41247453,0.816709335,-0.4016103
1764510959.0681877,0.27468,3.9676,0.62566,0.41247453,0.816709335,-0.4016103
1764510959.0681877,0.27468,3.9676,0.62566,0.41247453,0.816709335,-0.4016103
1764510959.0681877,0.27468,3.9676,0.62566,0.41247453,0.816709335,-0.4016103
1764510959.0681877,0.27468,3.9676,0.62566,0.41247453,0.816709335,-0.4016103
1764510959.0681877,0.27468,3.9676,0.62566,0.41247453,0.816709335,-0.4016103
1764510959.0681877,0.27468,3.9676,0.62566,0.41247453,0.816709335,-0.4016103
1764510959.0681877,-0.27468,3.8913,0.5341,0.41149797,0.8184183150000001,-0.402159615
1764510959.0681877,-0.27468,3.8913,0.5341,0.41149797,0.8184183150000001,-0.402159615
1764510959.0681877,-0.27468,3.8913,0.5341,0.41149797,0.8184183150000001,-0.402159615
1764510959.0691984,-0.27468,3.8913,0.5341,0.41149797,0.8184183150000001,-0.402159615
1764510959.0691984,-0.27468,3.8913,0.5341,0.41149797,0.8184183150000001,-0.402159615
1764510959.0691984,-0.27468,3.8913,0.5341,0.41149797,0.8184183150000001,-0.402159615
1764510959.0691984,-0.27468,3.8913,0.5341,0.41149797,0.8184183150000001,-0.402159615
1764510959.0691984,-0.27468,3.8913,0.5341,0.41149797,0.8184183150000001,-0.402159615
1764510959.0691984,-0.27468,3.8913,0.5341,0.41149797,0.8184183150000001,-0.402159615
1764510959.0691984,-0.27468,3.8913,0.5341,0.41149797,0.8184183150000001,-0.402159615
1764510959.0691984,-1.23606,3.49454,0.62566,0.410948655,0.818174175,-0.401915475
1764510959.0691984,-1.23606,3.49454,0.62566,0.410948655,0.818174175,-0.401915475
1764510959.0691984,-1.23606,3.49454,0.62566,0.410948655,0.818174175,-0.401915475
1764510959.0691984,-1.23606,3.49454,0.62566,0.410948655,0.818174175,-0.401915475
1764510959.0691984,-1.23606,3.49454,0.62566,0.410948655,0.818174175,-0.401915475
1764510959.0691984,-1.23606,3.49454,0.62566,0.410948655,0.818174175,-0.401915475
1764510959.0691984,-1.23606,3.49454,0.62566,0.410948655,0.818174175,-0.401915475
1764510959.0691984,-1.23606,3.49454,0.62566,0.410948655,0.818174175,-0.401915475
1764510959.0691984,-1.23606,3.49454,0.62566,0.410948655,0.818174175,-0.401915475
1764510959.0691984,-1.23606,3.49454,0.62566,0.410948655,0.818174175,-0.401915475
1764510959.0691984,-1.51074,4.02864,0.77826,0.410216235,0.81689244,-0.40112202
1764510959.0691984,-1.51074,4.02864,0.77826,0.410216235,0.81689244,-0.40112202
1764510959.0691984,-1.51074,4.02864,0.77826,0.410216235,0.81689244,-0.40112202
1764510959.0701869,-1.51074,4.02864,0.77826,0.410216235,0.81689244,-0.40112202
1764510959.0701869,-1.51074,4.02864,0.77826,0.410216235,0.81689244,-0.40112202
1764510959.0701869,-1.51074,4.02864,0.77826,0.410216235,0.81689244,-0.40112202
1764510959.0701869,-1.51074,4.02864,0.77826,0.410216235,0.81689244,-0.40112202
1764510959.0711317,-1.51074,4.02864,0.77826,0.410216235,0.81689244,-0.40112202
1764510959.0711317,-1.51074,4.02864,0.77826,0.410216235,0.81689244,-0.40112202
1764510959.0711317,-1.51074,4.02864,0.77826,0.410216235,0.81689244,-0.40112202
1764510959.0711317,-1.12924,3.79974,0.88508,0.410704515,0.8166483,-0.40026753
1764510959.0711317,-1.12924,3.79974,0.88508,0.410704515,0.8166483,-0.40026753
1764510959.0721903,-1.12924,3.79974,0.88508,0.410704515,0.8166483,-0.40026753
1764510959.0721903,-1.12924,3.79974,0.88508,0.410704515,0.8166483,-0.40026753
1764510959.0721903,-1.12924,3.79974,0.88508,0.410704515,0.8166483,-0.40026753
1764510959.0721903,-1.12924,3.79974,0.88508,0.410704515,0.8166483,-0.40026753
1764510959.1153977,-1.12924,3.79974,0.88508,0.410704515,0.8166483,-0.40026753
1764510959.1153977,-1.12924,3.79974,0.88508,0.410704515,0.8166483,-0.40026753
1764510959.1153977,-1.12924,3.79974,0.88508,0.410704515,0.8166483,-0.40026753
1764510959.1153977,-1.12924,3.79974,0.88508,0.410704515,0.8166483,-0.40026753
1764510959.1153977,-0.54936,3.83026,0.8087799999999999,0.41223039,0.8163431250000001,-0.40026753
1764510959.1153977,-0.54936,3.83026,0.8087799999999999,0.41223039,0.8163431250000001,-0.40026753
1764510959.1153977,-0.54936,3.83026,0.8087799999999999,0.41223039,0.8163431250000001,-0.40026753
1764510959.1153977,-0.54936,3.83026,0.8087799999999999,0.41223039,0.8163431250000001,-0.40026753
1764510959.1153977,-0.54936,3.83026,0.8087799999999999,0.41223039,0.8163431250000001,-0.40026753
1764510959.1153977,-0.54936,3.83026,0.8087799999999999,0.41223039,0.8163431250000001,-0.40026753
1764510959.1153977,-0.54936,3.83026,0.8087799999999999,0.41223039,0.8163431250000001,-0.40026753
1764510959.1153977,-0.54936,3.83026,0.8087799999999999,0.41223039,0.8163431250000001,-0.40026753
1764510959.1153977,-0.54936,3.83026,0.8087799999999999,0.41223039,0.8163431250000001,-0.40026753
1764510959.1153977,-0.54936,3.83026,0.8087799999999999,0.41223039,0.8163431250000001,-0.40026753
1764510959.1171763,-0.19838,4.15072,0.6103999999999999,0.413145915,0.81628209,-0.4003896
1764510959.1171763,-0.19838,4.15072,0.6103999999999999,0.413145915,0.81628209,-0.4003896
1764510959.1171763,-0.19838,4.15072,0.6103999999999999,0.413145915,0.81628209,-0.4003896
1764510959.1181862,-0.19838,4.15072,0.6103999999999999,0.413145915,0.81628209,-0.4003896
1764510959.1181862,-0.19838,4.15072,0.6103999999999999,0.413145915,0.81628209,-0.4003896
1764510959.1181862,-0.19838,4.15072,0.6103999999999999,0.413145915,0.81628209,-0.4003896
1764510959.1181862,-0.19838,4.15072,0.6103999999999999,0.413145915,0.81628209,-0.4003896
1764510959.1191883,-0.19838,4.15072,0.6103999999999999,0.413145915,0.81628209,-0.4003896
1764510959.1191883,-0.19838,4.15072,0.6103999999999999,0.413145915,0.81628209,-0.4003896
1764510959.1191883,-0.19838,4.15072,0.6103999999999999,0.413145915,0.81628209,-0.4003896
1764510959.1640117,-0.06104,3.72344,0.6714399999999999,0.412535565,0.815244495,-0.40099995
1764510959.1640117,-0.06104,3.72344,0.6714399999999999,0.412535565,0.815244495,-0.40099995
1764510959.1640117,-0.06104,3.72344,0.6714399999999999,0.412535565,0.815244495,-0.40099995
1764510959.1640117,-0.06104,3.72344,0.6714399999999999,0.412535565,0.815244495,-0.40099995
1764510959.1640117,-0.06104,3.72344,0.6714399999999999,0.412535565,0.815244495,-0.40099995
1764510959.1650145,-0.06104,3.72344,0.6714399999999999,0.412535565,0.815244495,-0.40099995
1764510959.1650145,-0.06104,3.72344,0.6714399999999999,0.412535565,0.815244495,-0.40099995
1764510959.1650145,-0.06104,3.72344,0.6714399999999999,0.412535565,0.815244495,-0.40099995
1764510959.1650145,-0.06104,3.72344,0.6714399999999999,0.412535565,0.815244495,-0.40099995
1764510959.1650145,-0.06104,3.72344,0.6714399999999999,0.412535565,0.815244495,-0.40099995
1764510959.1650145,0.1525999999999999,3.72344,-0.0762999999999999,0.41320695,0.8147562150000001,-0.40209858
1764510959.1650145,0.1525999999999999,3.72344,-0.0762999999999999,0.41320695,0.8147562150000001,-0.40209858
1764510959.16601,0.1525999999999999,3.72344,-0.0762999999999999,0.41320695,0.8147562150000001,-0.40209858
1764510959.16601,0.1525999999999999,3.72344,-0.0762999999999999,0.41320695,0.8147562150000001,-0.40209858
1764510959.16601,0.1525999999999999,3.72344,-0.0762999999999999,0.41320695,0.8147562150000001,-0.40209858
1764510959.16601,0.1525999999999999,3.72344,-0.0762999999999999,0.41320695,0.8147562150000001,-0.40209858
1764510959.16601,0.1525999999999999,3.72344,-0.0762999999999999,0.41320695,0.8147562150000001,-0.40209858
1764510959.16601,0.1525999999999999,3.72344,-0.0762999999999999,0.41320695,0.8147562150000001,-0.40209858
1764510959.16601,0.1525999999999999,3.72344,-0.0762999999999999,0.41320695,0.8147562150000001,-0.40209858
1764510959.16601,0.1525999999999999,3.72344,-0.0762999999999999,0.41320695,0.8147562150000001,-0.40209858
1764510959.16601,-0.10682,3.46402,0.6409199999999999,0.41247453,0.815366565,-0.40246479
1764510959.16601,-0.10682,3.46402,0.6409199999999999,0.41247453,0.815366565,-0.40246479
1764510959.167519,-0.10682,3.46402,0.6409199999999999,0.41247453,0.815366565,-0.40246479
1764510959.167519,-0.10682,3.46402,0.6409199999999999,0.41247453,0.815366565,-0.40246479
1764510959.2115405,-0.10682,3.46402,0.6409199999999999,0.41247453,0.815366565,-0.40246479
1764510959.2115405,-0.10682,3.46402,0.6409199999999999,0.41247453,0.815366565,-0.40246479
1764510959.2115405,-0.10682,3.46402,0.6409199999999999,0.41247453,0.815366565,-0.40246479
1764510959.2115405,-0.10682,3.46402,0.6409199999999999,0.41247453,0.815366565,-0.40246479
1764510959.2115405,-0.10682,3.46402,0.6409199999999999,0.41247453,0.815366565,-0.40246479
1764510959.2115405,-0.10682,3.46402,0.6409199999999999,0.41247453,0.815366565,-0.40246479
1764510959.2115405,-1.05294,3.57084,0.5341,0.41113176,0.817075545,-0.40222065
1764510959.2115405,-1.05294,3.57084,0.5341,0.41113176,0.817075545,-0.40222065
1764510959.2115405,-1.05294,3.57084,0.5341,0.41113176,0.817075545,-0.40222065
1764510959.2115405,-1.05294,3.57084,0.5341,0.41113176,0.817075545,-0.40222065
1764510959.2115405,-1.05294,3.57084,0.5341,0.41113176,0.817075545,-0.40222065
1764510959.2115405,-1.05294,3.57084,0.5341,0.41113176,0.817075545,-0.40222065
1764510959.2115405,-1.05294,3.57084,0.5341,0.41113176,0.817075545,-0.40222065
1764510959.2115405,-1.05294,3.57084,0.5341,0.41113176,0.817075545,-0.40222065
1764510959.2115405,-1.05294,3.57084,0.5341,0.41113176,0.817075545,-0.40222065
1764510959.2115405,-1.05294,3.57084,0.5341,0.41113176,0.817075545,-0.40222065
1764510959.2115405,-1.03768,3.34194,0.12208,0.4113759,0.817930035,-0.401915475
1764510959.2115405,-1.03768,3.34194,0.12208,0.4113759,0.817930035,-0.401915475
1764510959.2115405,-1.03768,3.34194,0.12208,0.4113759,0.817930035,-0.401915475
1764510959.2115405,-1.03768,3.34194,0.12208,0.4113759,0.817930035,-0.401915475
1764510959.2115405,-1.03768,3.34194,0.12208,0.4113759,0.817930035,-0.401915475
1764510959.2115405,-1.03768,3.34194,0.12208,0.4113759,0.817930035,-0.401915475
1764510959.2557974,-1.03768,3.34194,0.12208,0.4113759,0.817930035,-0.401915475
1764510959.2557974,-1.03768,3.34194,0.12208,0.4113759,0.817930035,-0.401915475
1764510959.2557974,-1.03768,3.34194,0.12208,0.4113759,0.817930035,-0.401915475
1764510959.2557974,-1.03768,3.34194,0.12208,0.4113759,0.817930035,-0.401915475
1764510959.2557974,-0.73248,3.76922,0.9156,0.41076555,0.816587265,-0.40197651
1764510959.2557974,-0.73248,3.76922,0.9156,0.41076555,0.816587265,-0.40197651
1764510959.2557974,-0.73248,3.76922,0.9156,0.41076555,0.816587265,-0.40197651
1764510959.2557974,-0.73248,3.76922,0.9156,0.41076555,0.816587265,-0.40197651
1764510959.2557974,-0.73248,3.76922,0.9156,0.41076555,0.816587265,-0.40197651
1764510959.2557974,-0.73248,3.76922,0.9156,0.41076555,0.816587265,-0.40197651
1764510959.2557974,-0.73248,3.76922,0.9156,0.41076555,0.816587265,-0.40197651
1764510959.2557974,-0.73248,3.76922,0.9156,0.41076555,0.816587265,-0.40197651
1764510959.2557974,-0.73248,3.76922,0.9156,0.41076555,0.816587265,-0.40197651
1764510959.2557974,-0.73248,3.76922,0.9156,0.41076555,0.816587265,-0.40197651
1764510959.2573457,-0.24416,3.69292,0.41202,0.41076555,0.81640416,-0.401060985
1764510959.2573457,-0.24416,3.69292,0.41202,0.41076555,0.81640416,-0.401060985
1764510959.2573457,-0.24416,3.69292,0.41202,0.41076555,0.81640416,-0.401060985
1764510959.2573457,-0.24416,3.69292,0.41202,0.41076555,0.81640416,-0.401060985
1764510959.2573457,-0.24416,3.69292,0.41202,0.41076555,0.81640416,-0.401060985
1764510959.2573457,-0.24416,3.69292,0.41202,0.41076555,0.81640416,-0.401060985
1764510959.2573457,-0.24416,3.69292,0.41202,0.41076555,0.81640416,-0.401060985
1764510959.2573457,-0.24416,3.69292,0.41202,0.41076555,0.81640416,-0.401060985
1764510959.2573457,-0.24416,3.69292,0.41202,0.41076555,0.81640416,-0.401060985
1764510959.2573457,-0.24416,3.69292,0.41202,0.41076555,0.81640416,-0.401060985
1764510959.3009937,-0.24416,3.99812,-0.01526,0.41088762,0.8168314050000001,-0.40148823
1764510959.30151,-0.24416,3.99812,-0.01526,0.41088762,0.8168314050000001,-0.40148823
1764510959.30151,-0.24416,3.99812,-0.01526,0.41088762,0.8168314050000001,-0.40148823
1764510959.30151,-0.24416,3.99812,-0.01526,0.41088762,0.8168314050000001,-0.40148823
1764510959.30151,-0.24416,3.99812,-0.01526,0.41088762,0.8168314050000001,-0.40148823
1764510959.30151,-0.24416,3.99812,-0.01526,0.41088762,0.8168314050000001,-0.40148823
1764510959.30151,-0.24416,3.99812,-0.01526,0.41088762,0.8168314050000001,-0.40148823
1764510959.30151,-0.24416,3.99812,-0.01526,0.41088762,0.8168314050000001,-0.40148823
1764510959.30151,-0.24416,3.99812,-0.01526,0.41088762,0.8168314050000001,-0.40148823
1764510959.30151,-0.24416,3.99812,-0.01526,0.41088762,0.8168314050000001,-0.40148823
1764510959.30151,-0.13734,4.10494,0.04578,0.410948655,0.8173807200000001,-0.401793405
1764510959.30151,-0.13734,4.10494,0.04578,0.410948655,0.8173807200000001,-0.401793405
1764510959.30151,-0.13734,4.10494,0.04578,0.410948655,0.8173807200000001,-0.401793405
1764510959.30151,-0.13734,4.10494,0.04578,0.410948655,0.8173807200000001,-0.401793405
1764510959.30151,-0.13734,4.10494,0.04578,0.410948655,0.8173807200000001,-0.401793405
1764510959.30151,-0.13734,4.10494,0.04578,0.410948655,0.8173807200000001,-0.401793405
1764510959.30151,-0.13734,4.10494,0.04578,0.410948655,0.8173807200000001,-0.401793405
1764510959.30151,-0.13734,4.10494,0.04578,0.410948655,0.8173807200000001,-0.401793405
1764510959.302528,-0.13734,4.10494,0.04578,0.410948655,0.8173807200000001,-0.401793405
1764510959.302528,-0.13734,4.10494,0.04578,0.410948655,0.8173807200000001,-0.401793405
1764510959.348688,-0.47306,3.5098,0.01526,0.411436935,0.8168314050000001,-0.40173237
1764510959.348688,-0.47306,3.5098,0.01526,0.411436935,0.8168314050000001,-0.40173237
1764510959.348688,-0.47306,3.5098,0.01526,0.411436935,0.8168314050000001,-0.40173237
1764510959.348688,-0.47306,3.5098,0.01526,0.411436935,0.8168314050000001,-0.40173237
1764510959.3493469,-0.47306,3.5098,0.01526,0.411436935,0.8168314050000001,-0.40173237
1764510959.3508646,-0.47306,3.5098,0.01526,0.411436935,0.8168314050000001,-0.40173237
1764510959.3508646,-0.47306,3.5098,0.01526,0.411436935,0.8168314050000001,-0.40173237
1764510959.3508646,-0.47306,3.5098,0.01526,0.411436935,0.8168314050000001,-0.40173237
1764510959.3508646,-0.47306,3.5098,0.01526,0.411436935,0.8168314050000001,-0.40173237
1764510959.351597,-0.47306,3.5098,0.01526,0.411436935,0.8168314050000001,-0.40173237
1764510959.351597,-0.27468,3.31142,0.3204599999999999,0.411681075,0.817319685,-0.401915475
1764510959.351597,-0.27468,3.31142,0.3204599999999999,0.411681075,0.817319685,-0.401915475
1764510959.351597,-0.27468,3.31142,0.3204599999999999,0.411681075,0.817319685,-0.401915475
1764510959.351597,-0.27468,3.31142,0.3204599999999999,0.411681075,0.817319685,-0.401915475
1764510959.351597,-0.27468,3.31142,0.3204599999999999,0.411681075,0.817319685,-0.401915475
1764510959.351597,-0.27468,3.31142,0.3204599999999999,0.411681075,0.817319685,-0.401915475
1764510959.3958426,-0.27468,3.31142,0.3204599999999999,0.411681075,0.817319685,-0.401915475
1764510959.3958426,-0.27468,3.31142,0.3204599999999999,0.411681075,0.817319685,-0.401915475
1764510959.3958426,-0.27468,3.31142,0.3204599999999999,0.411681075,0.817319685,-0.401915475
1764510959.3958426,-0.27468,3.31142,0.3204599999999999,0.411681075,0.817319685,-0.401915475
1764510959.3958426,-0.6409199999999999,3.78448,0.73248,0.41113176,0.816465195,-0.402037545
1764510959.3958426,-0.6409199999999999,3.78448,0.73248,0.41113176,0.816465195,-0.402037545
1764510959.3958426,-0.6409199999999999,3.78448,0.73248,0.41113176,0.816465195,-0.402037545
1764510959.3958426,-0.6409199999999999,3.78448,0.73248,0.41113176,0.816465195,-0.402037545
1764510959.3958426,-0.6409199999999999,3.78448,0.73248,0.41113176,0.816465195,-0.402037545
1764510959.3958426,-0.6409199999999999,3.78448,0.73248,0.41113176,0.816465195,-0.402037545
1764510959.3958426,-0.6409199999999999,3.78448,0.73248,0.41113176,0.816465195,-0.402037545
1764510959.3958426,-0.6409199999999999,3.78448,0.73248,0.41113176,0.816465195,-0.402037545
1764510959.3958426,-0.6409199999999999,3.78448,0.73248,0.41113176,0.816465195,-0.402037545
1764510959.3958426,-0.6409199999999999,3.78448,0.73248,0.41113176,0.816465195,-0.402037545
1764510959.3958426,-0.8392999999999999,3.67766,0.65618,0.41125383,0.816709335,-0.402281685
1764510959.3958426,-0.8392999999999999,3.67766,0.65618,0.41125383,0.816709335,-0.402281685
1764510959.3958426,-0.8392999999999999,3.67766,0.65618,0.41125383,0.816709335,-0.402281685
1764510959.3958426,-0.8392999999999999,3.67766,0.65618,0.41125383,0.816709335,-0.402281685
1764510959.3975844,-0.8392999999999999,3.67766,0.65618,0.41125383,0.816709335,-0.402281685
1764510959.3975844,-0.8392999999999999,3.67766,0.65618,0.41125383,0.816709335,-0.402281685
1764510959.3975844,-0.8392999999999999,3.67766,0.65618,0.41125383,0.816709335,-0.402281685
1764510959.3985996,-0.8392999999999999,3.67766,0.65618,0.41125383,0.816709335,-0.402281685
1764510959.4420865,-0.8392999999999999,3.67766,0.65618,0.41125383,0.816709335,-0.402281685
1764510959.4420865,-0.8392999999999999,3.67766,0.65618,0.41125383,0.816709335,-0.402281685
1764510959.4420865,-0.59514,3.69292,0.42728,0.41284074,0.816221055,-0.403258245
1764510959.4420865,-0.59514,3.69292,0.42728,0.41284074,0.816221055,-0.403258245
1764510959.4420865,-0.59514,3.69292,0.42728,0.41284074,0.816221055,-0.403258245
1764510959.4420865,-0.59514,3.69292,0.42728,0.41284074,0.816221055,-0.403258245
1764510959.4420865,-0.59514,3.69292,0.42728,0.41284074,0.816221055,-0.403258245
1764510959.4420865,-0.59514,3.69292,0.42728,0.41284074,0.816221055,-0.403258245
1764510959.443091,-0.59514,3.69292,0.42728,0.41284074,0.816221055,-0.403258245
1764510959.443091,-0.59514,3.69292,0.42728,0.41284074,0.816221055,-0.403258245
1764510959.443091,-0.59514,3.69292,0.42728,0.41284074,0.816221055,-0.403258245
1764510959.443091,-0.59514,3.69292,0.42728,0.41284074,0.816221055,-0.403258245
1764510959.443091,-1.17502,4.059159999999999,0.6714399999999999,0.41345109,0.816953475,-0.403014105
1764510959.443091,-1.17502,4.059159999999999,0.6714399999999999,0.41345109,0.816953475,-0.403014105
1764510959.443091,-1.17502,4.059159999999999,0.6714399999999999,0.41345109,0.816953475,-0.403014105
1764510959.443091,-1.17502,4.059159999999999,0.6714399999999999,0.41345109,0.816953475,-0.403014105
1764510959.443091,-1.17502,4.059159999999999,0.6714399999999999,0.41345109,0.816953475,-0.403014105
1764510959.443091,-1.17502,4.059159999999999,0.6714399999999999,0.41345109,0.816953475,-0.403014105
1764510959.443091,-1.17502,4.059159999999999,0.6714399999999999,0.41345109,0.816953475,-0.403014105
1764510959.443091,-1.17502,4.059159999999999,0.6714399999999999,0.41345109,0.816953475,-0.403014105
1764510959.443091,-1.17502,4.059159999999999,0.6714399999999999,0.41345109,0.816953475,-0.403014105
1764510959.443091,-1.17502,4.059159999999999,0.6714399999999999,0.41345109,0.816953475,-0.403014105
1764510959.443091,-1.19028,4.25754,0.28994,0.412291425,0.817197615,-0.40246479
1764510959.443091,-1.19028,4.25754,0.28994,0.412291425,0.817197615,-0.40246479
1764510959.443091,-1.19028,4.25754,0.28994,0.412291425,0.817197615,-0.40246479
1764510959.443091,-1.19028,4.25754,0.28994,0.412291425,0.817197615,-0.40246479
1764510959.443091,-1.19028,4.25754,0.28994,0.412291425,0.817197615,-0.40246479
1764510959.443091,-1.19028,4.25754,0.28994,0.412291425,0.817197615,-0.40246479
1764510959.445593,-1.19028,4.25754,0.28994,0.412291425,0.817197615,-0.40246479
1764510959.445593,-1.19028,4.25754,0.28994,0.412291425,0.817197615,-0.40246479
1764510959.445593,-1.19028,4.25754,0.28994,0.412291425,0.817197615,-0.40246479
1764510959.445593,-1.19028,4.25754,0.28994,0.412291425,0.817197615,-0.40246479
1764510959.4889514,-0.7019599999999999,3.5098,0.763,0.410460375,0.816221055,-0.402159615
1764510959.4889514,-0.7019599999999999,3.5098,0.763,0.410460375,0.816221055,-0.402159615
1764510959.4889514,-0.7019599999999999,3.5098,0.763,0.410460375,0.816221055,-0.402159615
1764510959.4889514,-0.7019599999999999,3.5098,0.763,0.410460375,0.816221055,-0.402159615
1764510959.4889514,-0.7019599999999999,3.5098,0.763,0.410460375,0.816221055,-0.402159615
1764510959.4889514,-0.7019599999999999,3.5098,0.763,0.410460375,0.816221055,-0.402159615
1764510959.4889514,-0.7019599999999999,3.5098,0.763,0.410460375,0.816221055,-0.402159615
1764510959.4889514,-0.7019599999999999,3.5098,0.763,0.410460375,0.816221055,-0.402159615
1764510959.4889514,-0.7019599999999999,3.5098,0.763,0.410460375,0.816221055,-0.402159615
1764510959.4889514,-0.7019599999999999,3.5098,0.763,0.410460375,0.816221055,-0.402159615
1764510959.4889514,-0.47306,3.61662,0.65618,0.411070725,0.816953475,-0.40136616
1764510959.4889514,-0.47306,3.61662,0.65618,0.411070725,0.816953475,-0.40136616
1764510959.4889514,-0.47306,3.61662,0.65618,0.411070725,0.816953475,-0.40136616
1764510959.4889514,-0.47306,3.61662,0.65618,0.411070725,0.816953475,-0.40136616
1764510959.4889514,-0.47306,3.61662,0.65618,0.411070725,0.816953475,-0.40136616
1764510959.4889514,-0.47306,3.61662,0.65618,0.411070725,0.816953475,-0.40136616
1764510959.4889514,-0.47306,3.61662,0.65618,0.411070725,0.816953475,-0.40136616
1764510959.4889514,-0.47306,3.61662,0.65618,0.411070725,0.816953475,-0.40136616
1764510959.4899676,-0.47306,3.61662,0.65618,0.411070725,0.816953475,-0.40136616
1764510959.4899676,-0.47306,3.61662,0.65618,0.411070725,0.816953475,-0.40136616
1764510959.4899676,-0.44254,3.49454,0.3815,0.409972095,0.8154276,-0.399229935
1764510959.4899676,-0.44254,3.49454,0.3815,0.409972095,0.8154276,-0.399229935
1764510959.4899676,-0.44254,3.49454,0.3815,0.409972095,0.8154276,-0.399229935
1764510959.4899676,-0.44254,3.49454,0.3815,0.409972095,0.8154276,-0.399229935
1764510959.5361924,-0.44254,3.49454,0.3815,0.409972095,0.8154276,-0.399229935
1764510959.5361924,-0.44254,3.49454,0.3815,0.409972095,0.8154276,-0.399229935
1764510959.5372372,-0.44254,3.49454,0.3815,0.409972095,0.8154276,-0.399229935
1764510959.5372372,-0.44254,3.49454,0.3815,0.409972095,0.8154276,-0.399229935
1764510959.5372372,-0.44254,3.49454,0.3815,0.409972095,0.8154276,-0.399229935
1764510959.5372372,-0.44254,3.49454,0.3815,0.409972095,0.8154276,-0.399229935
1764510959.538246,1.2208,3.41824,0.47306,0.41003313,0.81347448,-0.40026753
1764510959.5389457,1.2208,3.41824,0.47306,0.41003313,0.81347448,-0.40026753
1764510959.5389457,1.2208,3.41824,0.47306,0.41003313,0.81347448,-0.40026753
1764510959.5389457,1.2208,3.41824,0.47306,0.41003313,0.81347448,-0.40026753
1764510959.5389457,1.2208,3.41824,0.47306,0.41003313,0.81347448,-0.40026753
1764510959.5389457,1.2208,3.41824,0.47306,0.41003313,0.81347448,-0.40026753
1764510959.5389457,1.2208,3.41824,0.47306,0.41003313,0.81347448,-0.40026753
1764510959.5389457,1.2208,3.41824,0.47306,0.41003313,0.81347448,-0.40026753
1764510959.5389457,1.2208,3.41824,0.47306,0.41003313,0.81347448,-0.40026753
1764510959.5389457,1.2208,3.41824,0.47306,0.41003313,0.81347448,-0.40026753
1764510959.5389457,0.8392999999999999,4.3491,0.6867,0.412413495,0.81591588,-0.40185444
1764510959.5389457,0.8392999999999999,4.3491,0.6867,0.412413495,0.81591588,-0.40185444
1764510959.5389457,0.8392999999999999,4.3491,0.6867,0.412413495,0.81591588,-0.40185444
1764510959.5389457,0.8392999999999999,4.3491,0.6867,0.412413495,0.81591588,-0.40185444
1764510959.5389457,0.8392999999999999,4.3491,0.6867,0.412413495,0.81591588,-0.40185444
1764510959.5389457,0.8392999999999999,4.3491,0.6867,0.412413495,0.81591588,-0.40185444
1764510959.5389457,0.8392999999999999,4.3491,0.6867,0.412413495,0.81591588,-0.40185444
1764510959.5389457,0.8392999999999999,4.3491,0.6867,0.412413495,0.81591588,-0.40185444
1764510959.5389457,0.8392999999999999,4.3491,0.6867,0.412413495,0.81591588,-0.40185444
1764510959.5389457,0.8392999999999999,4.3491,0.6867,0.412413495,0.81591588,-0.40185444
1764510959.5832417,-1.4497,3.87604,0.3204599999999999,0.41076555,0.81823521,-0.40331928
1764510959.5832417,-1.4497,3.87604,0.3204599999999999,0.41076555,0.81823521,-0.40331928
1764510959.5832417,-1.4497,3.87604,0.3204599999999999,0.41076555,0.81823521,-0.40331928
1764510959.584978,-1.4497,3.87604,0.3204599999999999,0.41076555,0.81823521,-0.40331928
1764510959.584978,-1.4497,3.87604,0.3204599999999999,0.41076555,0.81823521,-0.40331928
1764510959.584978,-1.4497,3.87604,0.3204599999999999,0.41076555,0.81823521,-0.40331928
1764510959.584978,-1.4497,3.87604,0.3204599999999999,0.41076555,0.81823521,-0.40331928
1764510959.584978,-1.4497,3.87604,0.3204599999999999,0.41076555,0.81823521,-0.40331928
1764510959.584978,-1.4497,3.87604,0.3204599999999999,0.41076555,0.81823521,-0.40331928
1764510959.585998,-1.4497,3.87604,0.3204599999999999,0.41076555,0.81823521,-0.40331928
1764510959.585998,-2.02958,3.37246,0.5341,0.40942278,0.8184183150000001,-0.403136175
1764510959.585998,-2.02958,3.37246,0.5341,0.40942278,0.8184183150000001,-0.403136175
1764510959.585998,-2.02958,3.37246,0.5341,0.40942278,0.8184183150000001,-0.403136175
1764510959.585998,-2.02958,3.37246,0.5341,0.40942278,0.8184183150000001,-0.403136175
1764510959.585998,-2.02958,3.37246,0.5341,0.40942278,0.8184183150000001,-0.403136175
1764510959.585998,-2.02958,3.37246,0.5341,0.40942278,0.8184183150000001,-0.403136175
1764510959.585998,-2.02958,3.37246,0.5341,0.40942278,0.8184183150000001,-0.403136175
1764510959.585998,-2.02958,3.37246,0.5341,0.40942278,0.8184183150000001,-0.403136175
1764510959.585998,-2.02958,3.37246,0.5341,0.40942278,0.8184183150000001,-0.403136175
1764510959.585998,-2.02958,3.37246,0.5341,0.40942278,0.8184183150000001,-0.403136175
1764510959.5875049,-1.92276,3.64714,0.65618,0.40966692,0.816098985,-0.402647895
1764510959.5875049,-1.92276,3.64714,0.65618,0.40966692,0.816098985,-0.402647895
1764510959.632843,-1.92276,3.64714,0.65618,0.40966692,0.816098985,-0.402647895
1764510959.632843,-1.92276,3.64714,0.65618,0.40966692,0.816098985,-0.402647895
1764510959.632843,-1.92276,3.64714,0.65618,0.40966692,0.816098985,-0.402647895
1764510959.632843,-1.92276,3.64714,0.65618,0.40966692,0.816098985,-0.402647895
1764510959.632843,-1.92276,3.64714,0.65618,0.40966692,0.816098985,-0.402647895
1764510959.632843,-1.92276,3.64714,0.65618,0.40966692,0.816098985,-0.402647895
1764510959.632843,-1.92276,3.64714,0.65618,0.40966692,0.816098985,-0.402647895
1764510959.632843,-1.92276,3.64714,0.65618,0.40966692,0.816098985,-0.402647895
1764510959.632843,-0.4578,4.01338,0.3051999999999999,0.41125383,0.815122425,-0.40185444
1764510959.632843,-0.4578,4.01338,0.3051999999999999,0.41125383,0.815122425,-0.40185444
1764510959.632843,-0.4578,4.01338,0.3051999999999999,0.41125383,0.815122425,-0.40185444
1764510959.632843,-0.4578,4.01338,0.3051999999999999,0.41125383,0.815122425,-0.40185444
1764510959.632843,-0.4578,4.01338,0.3051999999999999,0.41125383,0.815122425,-0.40185444
1764510959.632843,-0.4578,4.01338,0.3051999999999999,0.41125383,0.815122425,-0.40185444
1764510959.632843,-0.4578,4.01338,0.3051999999999999,0.41125383,0.815122425,-0.40185444
1764510959.632843,-0.4578,4.01338,0.3051999999999999,0.41125383,0.815122425,-0.40185444
1764510959.632843,-0.4578,4.01338,0.3051999999999999,0.41125383,0.815122425,-0.40185444
1764510959.632843,-0.4578,4.01338,0.3051999999999999,0.41125383,0.815122425,-0.40185444
1764510959.632843,-0.13734,4.15072,0.44254,0.41174211,0.815000355,-0.40197651
1764510959.632843,-0.13734,4.15072,0.44254,0.41174211,0.815000355,-0.40197651
1764510959.632843,-0.13734,4.15072,0.44254,0.41174211,0.815000355,-0.40197651
1764510959.632843,-0.13734,4.15072,0.44254,0.41174211,0.815000355,-0.40197651
1764510959.632843,-0.13734,4.15072,0.44254,0.41174211,0.815000355,-0.40197651
1764510959.632843,-0.13734,4.15072,0.44254,0.41174211,0.815000355,-0.40197651
1764510959.6765387,-0.13734,4.15072,0.44254,0.41174211,0.815000355,-0.40197651
1764510959.6765387,-0.13734,4.15072,0.44254,0.41174211,0.815000355,-0.40197651
1764510959.6765387,-0.13734,4.15072,0.44254,0.41174211,0.815000355,-0.40197651
1764510959.6765387,-0.13734,4.15072,0.44254,0.41174211,0.815000355,-0.40197651
1764510959.6765387,-0.04578,4.02864,0.51884,0.412291425,0.81725865,-0.402281685
1764510959.6765387,-0.04578,4.02864,0.51884,0.412291425,0.81725865,-0.402281685
1764510959.6765387,-0.04578,4.02864,0.51884,0.412291425,0.81725865,-0.402281685
1764510959.6765387,-0.04578,4.02864,0.51884,0.412291425,0.81725865,-0.402281685
1764510959.6765387,-0.04578,4.02864,0.51884,0.412291425,0.81725865,-0.402281685
1764510959.6765387,-0.04578,4.02864,0.51884,0.412291425,0.81725865,-0.402281685
1764510959.6765387,-0.04578,4.02864,0.51884,0.412291425,0.81725865,-0.402281685
1764510959.6765387,-0.04578,4.02864,0.51884,0.412291425,0.81725865,-0.402281685
1764510959.6765387,-0.04578,4.02864,0.51884,0.412291425,0.81725865,-0.402281685
1764510959.6765387,-0.04578,4.02864,0.51884,0.412291425,0.81725865,-0.402281685
1764510959.6775508,-0.88508,3.9676,0.57988,0.411559005,0.81774693,-0.402037545
1764510959.6775508,-0.88508,3.9676,0.57988,0.411559005,0.81774693,-0.402037545
1764510959.6775508,-0.88508,3.9676,0.57988,0.411559005,0.81774693,-0.402037545
1764510959.6775508,-0.88508,3.9676,0.57988,0.411559005,0.81774693,-0.402037545
1764510959.6775508,-0.88508,3.9676,0.57988,0.411559005,0.81774693,-0.402037545
1764510959.6775508,-0.88508,3.9676,0.57988,0.411559005,0.81774693,-0.402037545
1764510959.6775508,-0.88508,3.9676,0.57988,0.411559005,0.81774693,-0.402037545
1764510959.6775508,-0.88508,3.9676,0.57988,0.411559005,0.81774693,-0.402037545
1764510959.6775508,-0.88508,3.9676,0.57988,0.411559005,0.81774693,-0.402037545
1764510959.6780746,-0.88508,3.9676,0.57988,0.411559005,0.81774693,-0.402037545
1764510959.7237525,-0.71722,4.1965,0.8392999999999999,0.410826585,0.817075545,-0.401793405
1764510959.7237525,-0.71722,4.1965,0.8392999999999999,0.410826585,0.817075545,-0.401793405
1764510959.7237525,-0.71722,4.1965,0.8392999999999999,0.410826585,0.817075545,-0.401793405
1764510959.7237525,-0.71722,4.1965,0.8392999999999999,0.410826585,0.817075545,-0.401793405
1764510959.7237525,-0.71722,4.1965,0.8392999999999999,0.410826585,0.817075545,-0.401793405
1764510959.7237525,-0.71722,4.1965,0.8392999999999999,0.410826585,0.817075545,-0.401793405
1764510959.7237525,-0.71722,4.1965,0.8392999999999999,0.410826585,0.817075545,-0.401793405
1764510959.7237525,-0.71722,4.1965,0.8392999999999999,0.410826585,0.817075545,-0.401793405
1764510959.7237525,-0.71722,4.1965,0.8392999999999999,0.410826585,0.817075545,-0.401793405
1764510959.7237525,-0.71722,4.1965,0.8392999999999999,0.410826585,0.817075545,-0.401793405
1764510959.7237525,-0.8087799999999999,3.60136,0.88508,0.411314865,0.81567174,-0.40099995
1764510959.7237525,-0.8087799999999999,3.60136,0.88508,0.411314865,0.81567174,-0.40099995
1764510959.7237525,-0.8087799999999999,3.60136,0.88508,0.411314865,0.81567174,-0.40099995
1764510959.7237525,-0.8087799999999999,3.60136,0.88508,0.411314865,0.81567174,-0.40099995
1764510959.7237525,-0.8087799999999999,3.60136,0.88508,0.411314865,0.81567174,-0.40099995
1764510959.7237525,-0.8087799999999999,3.60136,0.88508,0.411314865,0.81567174,-0.40099995
1764510959.7237525,-0.8087799999999999,3.60136,0.88508,0.411314865,0.81567174,-0.40099995
1764510959.7237525,-0.8087799999999999,3.60136,0.88508,0.411314865,0.81567174,-0.40099995
1764510959.7714555,-0.8087799999999999,3.60136,0.88508,0.411314865,0.81567174,-0.40099995
1764510959.7714555,-0.8087799999999999,3.60136,0.88508,0.411314865,0.81567174,-0.40099995
1764510959.7719693,-0.9919,3.815,0.62566,0.412901775,0.81677037,-0.402037545
1764510959.7719693,-0.9919,3.815,0.62566,0.412901775,0.81677037,-0.402037545
1764510959.7719693,-0.9919,3.815,0.62566,0.412901775,0.81677037,-0.402037545
1764510959.7719693,-0.9919,3.815,0.62566,0.412901775,0.81677037,-0.402037545
1764510959.7719693,-0.9919,3.815,0.62566,0.412901775,0.81677037,-0.402037545
1764510959.7719693,-0.9919,3.815,0.62566,0.412901775,0.81677037,-0.402037545
1764510959.7719693,-0.9919,3.815,0.62566,0.412901775,0.81677037,-0.402037545
1764510959.7719693,-0.9919,3.815,0.62566,0.412901775,0.81677037,-0.402037545
1764510959.7719693,-0.9919,3.815,0.62566,0.412901775,0.81677037,-0.402037545
1764510959.7719693,-0.9919,3.815,0.62566,0.412901775,0.81677037,-0.402037545
1764510959.7719693,-1.03768,3.99812,0.56462,0.41235246,0.816709335,-0.40112202
1764510959.7719693,-1.03768,3.99812,0.56462,0.41235246,0.816709335,-0.40112202
1764510959.7719693,-1.03768,3.99812,0.56462,0.41235246,0.816709335,-0.40112202
1764510959.7719693,-1.03768,3.99812,0.56462,0.41235246,0.816709335,-0.40112202
1764510959.7719693,-1.03768,3.99812,0.56462,0.41235246,0.816709335,-0.40112202
1764510959.7719693,-1.03768,3.99812,0.56462,0.41235246,0.816709335,-0.40112202
1764510959.7719693,-1.03768,3.99812,0.56462,0.41235246,0.816709335,-0.40112202
1764510959.7719693,-1.03768,3.99812,0.56462,0.41235246,0.816709335,-0.40112202
1764510959.7719693,-1.03768,3.99812,0.56462,0.41235246,0.816709335,-0.40112202
1764510959.7719693,-1.03768,3.99812,0.56462,0.41235246,0.816709335,-0.40112202
1764510959.7719693,-0.3815,3.49454,0.71722,0.411925215,0.81506139,-0.40112202
1764510959.7719693,-0.3815,3.49454,0.71722,0.411925215,0.81506139,-0.40112202
1764510959.7719693,-0.3815,3.49454,0.71722,0.411925215,0.81506139,-0.40112202
1764510959.7719693,-0.3815,3.49454,0.71722,0.411925215,0.81506139,-0.40112202
1764510959.7719693,-0.3815,3.49454,0.71722,0.411925215,0.81506139,-0.40112202
1764510959.7719693,-0.3815,3.49454,0.71722,0.411925215,0.81506139,-0.40112202
1764510959.8179846,-0.3815,3.49454,0.71722,0.411925215,0.81506139,-0.40112202
1764510959.8179846,-0.3815,3.49454,0.71722,0.411925215,0.81506139,-0.40112202
1764510959.8179846,-0.3815,3.49454,0.71722,0.411925215,0.81506139,-0.40112202
1764510959.8179846,-0.3815,3.49454,0.71722,0.411925215,0.81506139,-0.40112202
1764510959.8179846,0.3357199999999999,4.07442,0.25942,0.41235246,0.815854845,-0.402281685
1764510959.8179846,0.3357199999999999,4.07442,0.25942,0.41235246,0.815854845,-0.402281685
1764510959.8179846,0.3357199999999999,4.07442,0.25942,0.41235246,0.815854845,-0.402281685
1764510959.8179846,0.3357199999999999,4.07442,0.25942,0.41235246,0.815854845,-0.402281685
1764510959.8179846,0.3357199999999999,4.07442,0.25942,0.41235246,0.815854845,-0.402281685
1764510959.8179846,0.3357199999999999,4.07442,0.25942,0.41235246,0.815854845,-0.402281685
1764510959.8179846,0.3357199999999999,4.07442,0.25942,0.41235246,0.815854845,-0.402281685
1764510959.8179846,0.3357199999999999,4.07442,0.25942,0.41235246,0.815854845,-0.402281685
1764510959.8179846,0.3357199999999999,4.07442,0.25942,0.41235246,0.815854845,-0.402281685
1764510959.8179846,0.3357199999999999,4.07442,0.25942,0.41235246,0.815854845,-0.402281685
1764510959.8179846,-0.93086,4.18124,0.3815,0.413634195,0.819394875,-0.40344135
1764510959.8179846,-0.93086,4.18124,0.3815,0.413634195,0.819394875,-0.40344135
1764510959.8179846,-0.93086,4.18124,0.3815,0.413634195,0.819394875,-0.40344135
1764510959.8179846,-0.93086,4.18124,0.3815,0.413634195,0.819394875,-0.40344135
1764510959.8179846,-0.93086,4.18124,0.3815,0.413634195,0.819394875,-0.40344135
1764510959.818998,-0.93086,4.18124,0.3815,0.413634195,0.819394875,-0.40344135
1764510959.8645072,-0.93086,4.18124,0.3815,0.413634195,0.819394875,-0.40344135
1764510959.8645072,-0.93086,4.18124,0.3815,0.413634195,0.819394875,-0.40344135
1764510959.8645072,-0.93086,4.18124,0.3815,0.413634195,0.819394875,-0.40344135
1764510959.8645072,-0.93086,4.18124,0.3815,0.413634195,0.819394875,-0.40344135
1764510959.8645072,-1.54126,3.95234,0.10682,0.411436935,0.8200052250000001,-0.40368549
1764510959.8645072,-1.54126,3.95234,0.10682,0.411436935,0.8200052250000001,-0.40368549
1764510959.8645072,-1.54126,3.95234,0.10682,0.411436935,0.8200052250000001,-0.40368549
1764510959.8645072,-1.54126,3.95234,0.10682,0.411436935,0.8200052250000001,-0.40368549
1764510959.8645072,-1.54126,3.95234,0.10682,0.411436935,0.8200052250000001,-0.40368549
1764510959.8655024,-1.54126,3.95234,0.10682,0.411436935,0.8200052250000001,-0.40368549
1764510959.8655024,-1.54126,3.95234,0.10682,0.411436935,0.8200052250000001,-0.40368549
1764510959.8655024,-1.54126,3.95234,0.10682,0.411436935,0.8200052250000001,-0.40368549
1764510959.8655024,-1.54126,3.95234,0.10682,0.411436935,0.8200052250000001,-0.40368549
1764510959.8655024,-1.54126,3.95234,0.10682,0.411436935,0.8200052250000001,-0.40368549
1764510959.8655024,-2.09062,3.70818,0.6103999999999999,0.410582445,0.817869,-0.402525825
1764510959.8655024,-2.09062,3.70818,0.6103999999999999,0.410582445,0.817869,-0.402525825
1764510959.8655024,-2.09062,3.70818,0.6103999999999999,0.410582445,0.817869,-0.402525825
1764510959.8655024,-2.09062,3.70818,0.6103999999999999,0.410582445,0.817869,-0.402525825
1764510959.8655024,-2.09062,3.70818,0.6103999999999999,0.410582445,0.817869,-0.402525825
1764510959.8655024,-2.09062,3.70818,0.6103999999999999,0.410582445,0.817869,-0.402525825
1764510959.8655024,-2.09062,3.70818,0.6103999999999999,0.410582445,0.817869,-0.402525825
1764510959.8655024,-2.09062,3.70818,0.6103999999999999,0.410582445,0.817869,-0.402525825
1764510959.8655024,-2.09062,3.70818,0.6103999999999999,0.410582445,0.817869,-0.402525825
1764510959.8655024,-2.09062,3.70818,0.6103999999999999,0.410582445,0.817869,-0.402525825
1764510959.8655024,-1.41918,3.6624,0.97664,0.40942278,0.816098985,-0.401183055
1764510959.8655024,-1.41918,3.6624,0.97664,0.40942278,0.816098985,-0.401183055
1764510959.9102235,-1.41918,3.6624,0.97664,0.40942278,0.816098985,-0.401183055
1764510959.9112272,-1.41918,3.6624,0.97664,0.40942278,0.816098985,-0.401183055
1764510959.9112272,-1.41918,3.6624,0.97664,0.40942278,0.816098985,-0.401183055
