Timestamp,GyroX,GyroY,GyroZ,AccX,AccY,AccZ
1764510879.2040148,-4.60852,0.9003399999999999,-0.0762999999999999,-0.958798815,-0.239440305,-0.115905465
1764510879.2040148,-4.60852,0.9003399999999999,-0.0762999999999999,-0.958798815,-0.239440305,-0.115905465
1764510879.2040148,-4.60852,0.9003399999999999,-0.0762999999999999,-0.958798815,-0.239440305,-0.115905465
1764510879.2040148,-4.60852,0.9003399999999999,-0.0762999999999999,-0.958798815,-0.239440305,-0.115905465
1764510879.2040148,-4.60852,0.9003399999999999,-0.0762999999999999,-0.958798815,-0.239440305,-0.115905465
1764510879.2040148,-4.60852,0.9003399999999999,-0.0762999999999999,-0.958798815,-0.239440305,-0.115905465
1764510879.2040148,-4.60852,0.9003399999999999,-0.0762999999999999,-0.958798815,-0.239440305,-0.115905465
1764510879.2040148,-4.60852,0.9003399999999999,-0.0762999999999999,-0.958798815,-0.239440305,-0.115905465
1764510879.2040148,-4.60852,0.9003399999999999,-0.0762999999999999,-0.958798815,-0.239440305,-0.115905465
1764510879.2040148,-4.60852,0.9003399999999999,-0.0762999999999999,-0.958798815,-0.239440305,-0.115905465
1764510879.2040148,-4.822159999999999,1.19028,0.44254,-0.958310535,-0.23864685,-0.116271675
1764510879.2040148,-4.822159999999999,1.19028,0.44254,-0.958310535,-0.23864685,-0.116271675
1764510879.2040148,-4.822159999999999,1.19028,0.44254,-0.958310535,-0.23864685,-0.116271675
1764510879.2040148,-4.822159999999999,1.19028,0.44254,-0.958310535,-0.23864685,-0.116271675
1764510879.2040148,-4.822159999999999,1.19028,0.44254,-0.958310535,-0.23864685,-0.116271675
1764510879.2040148,-4.822159999999999,1.19028,0.44254,-0.958310535,-0.23864685,-0.116271675
1764510879.2040148,-4.822159999999999,1.19028,0.44254,-0.958310535,-0.23864685,-0.116271675
1764510879.2040148,-4.822159999999999,1.19028,0.44254,-0.958310535,-0.23864685,-0.116271675
1764510879.2040148,-4.822159999999999,1.19028,0.44254,-0.958310535,-0.23864685,-0.116271675
1764510879.2040148,-4.822159999999999,1.19028,0.44254,-0.958310535,-0.23864685,-0.116271675
1764510879.2050252,-4.822159999999999,1.15976,0.3204599999999999,-0.958798815,-0.23828064,-0.11706513
1764510879.2050252,-4.822159999999999,1.15976,0.3204599999999999,-0.958798815,-0.23828064,-0.11706513
1764510879.2050252,-4.822159999999999,1.15976,0.3204599999999999,-0.958798815,-0.23828064,-0.11706513
1764510879.2050252,-4.822159999999999,1.15976,0.3204599999999999,-0.958798815,-0.23828064,-0.11706513
1764510879.2487102,-4.822159999999999,1.15976,0.3204599999999999,-0.958798815,-0.23828064,-0.11706513
1764510879.2487102,-4.822159999999999,1.15976,0.3204599999999999,-0.958798815,-0.23828064,-0.11706513
1764510879.2487102,-4.822159999999999,1.15976,0.3204599999999999,-0.958798815,-0.23828064,-0.11706513
1764510879.2487102,-4.822159999999999,1.15976,0.3204599999999999,-0.958798815,-0.23828064,-0.11706513
1764510879.2487102,-4.822159999999999,1.15976,0.3204599999999999,-0.958798815,-0.23828064,-0.11706513
1764510879.2487102,-4.822159999999999,1.15976,0.3204599999999999,-0.958798815,-0.23828064,-0.11706513
1764510879.2487102,-4.37962,1.02242,0.41202,-0.959042955,-0.238829955,-0.11682099
1764510879.2487102,-4.37962,1.02242,0.41202,-0.959042955,-0.238829955,-0.11682099
1764510879.2500494,-4.37962,1.02242,0.41202,-0.959042955,-0.238829955,-0.11682099
1764510879.2500494,-4.37962,1.02242,0.41202,-0.959042955,-0.238829955,-0.11682099
1764510879.2510638,-4.37962,1.02242,0.41202,-0.959042955,-0.238829955,-0.11682099
1764510879.2510638,-4.37962,1.02242,0.41202,-0.959042955,-0.238829955,-0.11682099
1764510879.2510638,-4.37962,1.02242,0.41202,-0.959042955,-0.238829955,-0.11682099
1764510879.2510638,-4.37962,1.02242,0.41202,-0.959042955,-0.238829955,-0.11682099
1764510879.2520592,-4.37962,1.02242,0.41202,-0.959042955,-0.238829955,-0.11682099
1764510879.2520592,-4.37962,1.02242,0.41202,-0.959042955,-0.238829955,-0.11682099
1764510879.2520592,-3.78448,1.1445,0.6103999999999999,-0.958554675,-0.23901306,-0.11682099
1764510879.2520592,-3.78448,1.1445,0.6103999999999999,-0.958554675,-0.23901306,-0.11682099
1764510879.2530608,-3.78448,1.1445,0.6103999999999999,-0.958554675,-0.23901306,-0.11682099
1764510879.2530608,-3.78448,1.1445,0.6103999999999999,-0.958554675,-0.23901306,-0.11682099
1764510879.2530608,-3.78448,1.1445,0.6103999999999999,-0.958554675,-0.23901306,-0.11682099
1764510879.2530608,-3.78448,1.1445,0.6103999999999999,-0.958554675,-0.23901306,-0.11682099
1764510879.2975895,-3.78448,1.1445,0.6103999999999999,-0.958554675,-0.23901306,-0.11682099
1764510879.2975895,-3.78448,1.1445,0.6103999999999999,-0.958554675,-0.23901306,-0.11682099
1764510879.2975895,-3.78448,1.1445,0.6103999999999999,-0.958554675,-0.23901306,-0.11682099
1764510879.2975895,-3.78448,1.1445,0.6103999999999999,-0.958554675,-0.23901306,-0.11682099
1764510879.2975895,-4.01338,1.28184,0.39676,-0.95910399,-0.238585815,-0.11657685
1764510879.2975895,-4.01338,1.28184,0.39676,-0.95910399,-0.238585815,-0.11657685
1764510879.2975895,-4.01338,1.28184,0.39676,-0.95910399,-0.238585815,-0.11657685
1764510879.2975895,-4.01338,1.28184,0.39676,-0.95910399,-0.238585815,-0.11657685
1764510879.2975895,-4.01338,1.28184,0.39676,-0.95910399,-0.238585815,-0.11657685
1764510879.2981143,-4.01338,1.28184,0.39676,-0.95910399,-0.238585815,-0.11657685
1764510879.2981143,-4.01338,1.28184,0.39676,-0.95910399,-0.238585815,-0.11657685
1764510879.2981143,-4.01338,1.28184,0.39676,-0.95910399,-0.238585815,-0.11657685
1764510879.2981143,-4.01338,1.28184,0.39676,-0.95910399,-0.238585815,-0.11657685
1764510879.2981143,-4.01338,1.28184,0.39676,-0.95910399,-0.238585815,-0.11657685
1764510879.2981143,-4.4254,0.79352,0.9919,-0.958676745,-0.23767029,-0.11511201
1764510879.2981143,-4.4254,0.79352,0.9919,-0.958676745,-0.23767029,-0.11511201
1764510879.2981143,-4.4254,0.79352,0.9919,-0.958676745,-0.23767029,-0.11511201
1764510879.2981143,-4.4254,0.79352,0.9919,-0.958676745,-0.23767029,-0.11511201
1764510879.2981143,-4.4254,0.79352,0.9919,-0.958676745,-0.23767029,-0.11511201
1764510879.2981143,-4.4254,0.79352,0.9919,-0.958676745,-0.23767029,-0.11511201
1764510879.2981143,-4.4254,0.79352,0.9919,-0.958676745,-0.23767029,-0.11511201
1764510879.2981143,-4.4254,0.79352,0.9919,-0.958676745,-0.23767029,-0.11511201
1764510879.2981143,-4.4254,0.79352,0.9919,-0.958676745,-0.23767029,-0.11511201
1764510879.2981143,-4.4254,0.79352,0.9919,-0.958676745,-0.23767029,-0.11511201
1764510879.3416193,-4.08968,0.77826,0.9003399999999999,-0.959653305,-0.238097535,-0.115661325
1764510879.3421426,-4.08968,0.77826,0.9003399999999999,-0.959653305,-0.238097535,-0.115661325
1764510879.3421426,-4.08968,0.77826,0.9003399999999999,-0.959653305,-0.238097535,-0.115661325
1764510879.3421426,-4.08968,0.77826,0.9003399999999999,-0.959653305,-0.238097535,-0.115661325
1764510879.3421426,-4.08968,0.77826,0.9003399999999999,-0.959653305,-0.238097535,-0.115661325
1764510879.3421426,-4.08968,0.77826,0.9003399999999999,-0.959653305,-0.238097535,-0.115661325
1764510879.3421426,-4.08968,0.77826,0.9003399999999999,-0.959653305,-0.238097535,-0.115661325
1764510879.3421426,-4.08968,0.77826,0.9003399999999999,-0.959653305,-0.238097535,-0.115661325
1764510879.3421426,-4.08968,0.77826,0.9003399999999999,-0.959653305,-0.238097535,-0.115661325
1764510879.3421426,-4.08968,0.77826,0.9003399999999999,-0.959653305,-0.238097535,-0.115661325
1764510879.3421426,-3.6624,0.74774,0.82404,-0.959531235,-0.23828064,-0.11572236
1764510879.3421426,-3.6624,0.74774,0.82404,-0.959531235,-0.23828064,-0.11572236
1764510879.3421426,-3.6624,0.74774,0.82404,-0.959531235,-0.23828064,-0.11572236
1764510879.3421426,-3.6624,0.74774,0.82404,-0.959531235,-0.23828064,-0.11572236
1764510879.3421426,-3.6624,0.74774,0.82404,-0.959531235,-0.23828064,-0.11572236
1764510879.3421426,-3.6624,0.74774,0.82404,-0.959531235,-0.23828064,-0.11572236
1764510879.3421426,-3.6624,0.74774,0.82404,-0.959531235,-0.23828064,-0.11572236
1764510879.3421426,-3.6624,0.74774,0.82404,-0.959531235,-0.23828064,-0.11572236
1764510879.3421426,-3.6624,0.74774,0.82404,-0.959531235,-0.23828064,-0.11572236
1764510879.3421426,-3.6624,0.74774,0.82404,-0.959531235,-0.23828064,-0.11572236
1764510879.3421426,-4.6543,0.94612,1.35814,-0.959409165,-0.23815857,-0.11486787
1764510879.3421426,-4.6543,0.94612,1.35814,-0.959409165,-0.23815857,-0.11486787
1764510879.3916082,-4.6543,0.94612,1.35814,-0.959409165,-0.23815857,-0.11486787
1764510879.3916082,-4.6543,0.94612,1.35814,-0.959409165,-0.23815857,-0.11486787
1764510879.3916082,-4.6543,0.94612,1.35814,-0.959409165,-0.23815857,-0.11486787
1764510879.3916082,-4.6543,0.94612,1.35814,-0.959409165,-0.23815857,-0.11486787
1764510879.3916082,-4.6543,0.94612,1.35814,-0.959409165,-0.23815857,-0.11486787
1764510879.3916082,-4.6543,0.94612,1.35814,-0.959409165,-0.23815857,-0.11486787
1764510879.3916082,-4.6543,0.94612,1.35814,-0.959409165,-0.23815857,-0.11486787
1764510879.3916082,-4.6543,0.94612,1.35814,-0.959409165,-0.23815857,-0.11486787
1764510879.3916082,-4.60852,1.26658,0.97664,-0.95995848,-0.23828064,-0.115783395
1764510879.3916082,-4.60852,1.26658,0.97664,-0.95995848,-0.23828064,-0.115783395
1764510879.3916082,-4.60852,1.26658,0.97664,-0.95995848,-0.23828064,-0.115783395
1764510879.3916082,-4.60852,1.26658,0.97664,-0.95995848,-0.23828064,-0.115783395
1764510879.3916082,-4.60852,1.26658,0.97664,-0.95995848,-0.23828064,-0.115783395
1764510879.3916082,-4.60852,1.26658,0.97664,-0.95995848,-0.23828064,-0.115783395
1764510879.392603,-4.60852,1.26658,0.97664,-0.95995848,-0.23828064,-0.115783395
1764510879.392603,-4.60852,1.26658,0.97664,-0.95995848,-0.23828064,-0.115783395
1764510879.392603,-4.60852,1.26658,0.97664,-0.95995848,-0.23828064,-0.115783395
1764510879.392603,-4.60852,1.26658,0.97664,-0.95995848,-0.23828064,-0.115783395
1764510879.392603,-3.41824,1.25132,-0.10682,-0.95983641,-0.238707885,-0.116637885
1764510879.392603,-3.41824,1.25132,-0.10682,-0.95983641,-0.238707885,-0.116637885
1764510879.392603,-3.41824,1.25132,-0.10682,-0.95983641,-0.238707885,-0.116637885
1764510879.392603,-3.41824,1.25132,-0.10682,-0.95983641,-0.238707885,-0.116637885
1764510879.392603,-3.41824,1.25132,-0.10682,-0.95983641,-0.238707885,-0.116637885
1764510879.392603,-3.41824,1.25132,-0.10682,-0.95983641,-0.238707885,-0.116637885
1764510879.4379532,-3.41824,1.25132,-0.10682,-0.95983641,-0.238707885,-0.116637885
1764510879.4379532,-3.41824,1.25132,-0.10682,-0.95983641,-0.238707885,-0.116637885
1764510879.4379532,-3.41824,1.25132,-0.10682,-0.95983641,-0.238707885,-0.116637885
1764510879.4379532,-3.41824,1.25132,-0.10682,-0.95983641,-0.238707885,-0.116637885
1764510879.4379532,-2.1364,1.526,-0.5341,-0.95959227,-0.239562375,-0.11694306
1764510879.4379532,-2.1364,1.526,-0.5341,-0.95959227,-0.239562375,-0.11694306
1764510879.4379532,-2.1364,1.526,-0.5341,-0.95959227,-0.239562375,-0.11694306
1764510879.4379532,-2.1364,1.526,-0.5341,-0.95959227,-0.239562375,-0.11694306
1764510879.4379532,-2.1364,1.526,-0.5341,-0.95959227,-0.239562375,-0.11694306
1764510879.4379532,-2.1364,1.526,-0.5341,-0.95959227,-0.239562375,-0.11694306
1764510879.4379532,-2.1364,1.526,-0.5341,-0.95959227,-0.239562375,-0.11694306
1764510879.4379532,-2.1364,1.526,-0.5341,-0.95959227,-0.239562375,-0.11694306
1764510879.4379532,-2.1364,1.526,-0.5341,-0.95959227,-0.239562375,-0.11694306
1764510879.4379532,-2.1364,1.526,-0.5341,-0.95959227,-0.239562375,-0.11694306
1764510879.4379532,-2.3653,1.1445,0.3204599999999999,-0.958676745,-0.239074095,-0.11572236
1764510879.4379532,-2.3653,1.1445,0.3204599999999999,-0.958676745,-0.239074095,-0.11572236
1764510879.4379532,-2.3653,1.1445,0.3204599999999999,-0.958676745,-0.239074095,-0.11572236
1764510879.4379532,-2.3653,1.1445,0.3204599999999999,-0.958676745,-0.239074095,-0.11572236
1764510879.4379532,-2.3653,1.1445,0.3204599999999999,-0.958676745,-0.239074095,-0.11572236
1764510879.4379532,-2.3653,1.1445,0.3204599999999999,-0.958676745,-0.239074095,-0.11572236
1764510879.4389658,-2.3653,1.1445,0.3204599999999999,-0.958676745,-0.239074095,-0.11572236
1764510879.4389658,-2.3653,1.1445,0.3204599999999999,-0.958676745,-0.239074095,-0.11572236
1764510879.4389658,-2.3653,1.1445,0.3204599999999999,-0.958676745,-0.239074095,-0.11572236
1764510879.4389658,-2.3653,1.1445,0.3204599999999999,-0.958676745,-0.239074095,-0.11572236
1764510879.4830172,-4.0439,1.1445,1.38866,-0.958554675,-0.23754822,-0.113952345
1764510879.4830172,-4.0439,1.1445,1.38866,-0.958554675,-0.23754822,-0.113952345
1764510879.4830172,-4.0439,1.1445,1.38866,-0.958554675,-0.23754822,-0.113952345
1764510879.4830172,-4.0439,1.1445,1.38866,-0.958554675,-0.23754822,-0.113952345
1764510879.4830172,-4.0439,1.1445,1.38866,-0.958554675,-0.23754822,-0.113952345
1764510879.4830172,-4.0439,1.1445,1.38866,-0.958554675,-0.23754822,-0.113952345
1764510879.4830172,-4.0439,1.1445,1.38866,-0.958554675,-0.23754822,-0.113952345
1764510879.4830172,-4.0439,1.1445,1.38866,-0.958554675,-0.23754822,-0.113952345
1764510879.4830172,-4.0439,1.1445,1.38866,-0.958554675,-0.23754822,-0.113952345
1764510879.4830172,-4.0439,1.1445,1.38866,-0.958554675,-0.23754822,-0.113952345
1764510879.4830172,-5.55464,0.21364,1.09872,-0.958798815,-0.237120975,-0.11340303
1764510879.4840214,-5.55464,0.21364,1.09872,-0.958798815,-0.237120975,-0.11340303
1764510879.4840214,-5.55464,0.21364,1.09872,-0.958798815,-0.237120975,-0.11340303
1764510879.4840214,-5.55464,0.21364,1.09872,-0.958798815,-0.237120975,-0.11340303
1764510879.4840214,-5.55464,0.21364,1.09872,-0.958798815,-0.237120975,-0.11340303
1764510879.4840214,-5.55464,0.21364,1.09872,-0.958798815,-0.237120975,-0.11340303
1764510879.4840214,-5.55464,0.21364,1.09872,-0.958798815,-0.237120975,-0.11340303
1764510879.4840214,-5.55464,0.21364,1.09872,-0.958798815,-0.237120975,-0.11340303
1764510879.4840214,-5.55464,0.21364,1.09872,-0.958798815,-0.237120975,-0.11340303
1764510879.4840214,-5.55464,0.21364,1.09872,-0.958798815,-0.237120975,-0.11340303
1764510879.528383,-5.14262,0.48832,1.2208,-0.9582495,-0.2368158,-0.11462373
1764510879.528383,-5.14262,0.48832,1.2208,-0.9582495,-0.2368158,-0.11462373
1764510879.528383,-5.14262,0.48832,1.2208,-0.9582495,-0.2368158,-0.11462373
1764510879.528383,-5.14262,0.48832,1.2208,-0.9582495,-0.2368158,-0.11462373
1764510879.528383,-5.14262,0.48832,1.2208,-0.9582495,-0.2368158,-0.11462373
1764510879.528383,-5.14262,0.48832,1.2208,-0.9582495,-0.2368158,-0.11462373
1764510879.528383,-5.14262,0.48832,1.2208,-0.9582495,-0.2368158,-0.11462373
1764510879.528383,-5.14262,0.48832,1.2208,-0.9582495,-0.2368158,-0.11462373
1764510879.528383,-5.14262,0.48832,1.2208,-0.9582495,-0.2368158,-0.11462373
1764510879.528383,-5.14262,0.48832,1.2208,-0.9582495,-0.2368158,-0.11462373
1764510879.528383,-4.37962,0.763,1.43444,-0.958798815,-0.23693787,-0.115661325
1764510879.528383,-4.37962,0.763,1.43444,-0.958798815,-0.23693787,-0.115661325
1764510879.528383,-4.37962,0.763,1.43444,-0.958798815,-0.23693787,-0.115661325
1764510879.528383,-4.37962,0.763,1.43444,-0.958798815,-0.23693787,-0.115661325
1764510879.528383,-4.37962,0.763,1.43444,-0.958798815,-0.23693787,-0.115661325
1764510879.528383,-4.37962,0.763,1.43444,-0.958798815,-0.23693787,-0.115661325
1764510879.5298958,-4.37962,0.763,1.43444,-0.958798815,-0.23693787,-0.115661325
1764510879.5298958,-4.37962,0.763,1.43444,-0.958798815,-0.23693787,-0.115661325
1764510879.5298958,-4.37962,0.763,1.43444,-0.958798815,-0.23693787,-0.115661325
1764510879.5298958,-4.37962,0.763,1.43444,-0.958798815,-0.23693787,-0.115661325
1764510879.5298958,-4.25754,0.59514,1.17502,-0.95959227,-0.23730408,-0.116149605
1764510879.5298958,-4.25754,0.59514,1.17502,-0.95959227,-0.23730408,-0.116149605
1764510879.5298958,-4.25754,0.59514,1.17502,-0.95959227,-0.23730408,-0.116149605
1764510879.5298958,-4.25754,0.59514,1.17502,-0.95959227,-0.23730408,-0.116149605
1764510879.5298958,-4.25754,0.59514,1.17502,-0.95959227,-0.23730408,-0.116149605
1764510879.5298958,-4.25754,0.59514,1.17502,-0.95959227,-0.23730408,-0.116149605
1764510879.5740943,-4.25754,0.59514,1.17502,-0.95959227,-0.23730408,-0.116149605
1764510879.5740943,-4.25754,0.59514,1.17502,-0.95959227,-0.23730408,-0.116149605
1764510879.5740943,-4.25754,0.59514,1.17502,-0.95959227,-0.23730408,-0.116149605
1764510879.5740943,-4.25754,0.59514,1.17502,-0.95959227,-0.23730408,-0.116149605
1764510879.5740943,-3.70818,0.8087799999999999,0.9003399999999999,-0.959775375,-0.237365115,-0.11633271
1764510879.5740943,-3.70818,0.8087799999999999,0.9003399999999999,-0.959775375,-0.237365115,-0.11633271
1764510879.5740943,-3.70818,0.8087799999999999,0.9003399999999999,-0.959775375,-0.237365115,-0.11633271
1764510879.5740943,-3.70818,0.8087799999999999,0.9003399999999999,-0.959775375,-0.237365115,-0.11633271
1764510879.5740943,-3.70818,0.8087799999999999,0.9003399999999999,-0.959775375,-0.237365115,-0.11633271
1764510879.5740943,-3.70818,0.8087799999999999,0.9003399999999999,-0.959775375,-0.237365115,-0.11633271
1764510879.5740943,-3.70818,0.8087799999999999,0.9003399999999999,-0.959775375,-0.237365115,-0.11633271
1764510879.5740943,-3.70818,0.8087799999999999,0.9003399999999999,-0.959775375,-0.237365115,-0.11633271
1764510879.5740943,-3.70818,0.8087799999999999,0.9003399999999999,-0.959775375,-0.237365115,-0.11633271
1764510879.5740943,-3.70818,0.8087799999999999,0.9003399999999999,-0.959775375,-0.237365115,-0.11633271
1764510879.5740943,-4.02864,0.94612,1.19028,-0.959165025,-0.236388555,-0.11657685
1764510879.5740943,-4.02864,0.94612,1.19028,-0.959165025,-0.236388555,-0.11657685
1764510879.5740943,-4.02864,0.94612,1.19028,-0.959165025,-0.236388555,-0.11657685
1764510879.5751064,-4.02864,0.94612,1.19028,-0.959165025,-0.236388555,-0.11657685
1764510879.5751064,-4.02864,0.94612,1.19028,-0.959165025,-0.236388555,-0.11657685
1764510879.5751064,-4.02864,0.94612,1.19028,-0.959165025,-0.236388555,-0.11657685
1764510879.5751064,-4.02864,0.94612,1.19028,-0.959165025,-0.236388555,-0.11657685
1764510879.5751064,-4.02864,0.94612,1.19028,-0.959165025,-0.236388555,-0.11657685
1764510879.6204877,-4.02864,0.94612,1.19028,-0.959165025,-0.236388555,-0.11657685
1764510879.621491,-4.02864,0.94612,1.19028,-0.959165025,-0.236388555,-0.11657685
1764510879.621491,-3.29616,0.71722,1.43444,-0.95898192,-0.23644959,-0.11633271
1764510879.621491,-3.29616,0.71722,1.43444,-0.95898192,-0.23644959,-0.11633271
1764510879.621491,-3.29616,0.71722,1.43444,-0.95898192,-0.23644959,-0.11633271
1764510879.621491,-3.29616,0.71722,1.43444,-0.95898192,-0.23644959,-0.11633271
1764510879.621491,-3.29616,0.71722,1.43444,-0.95898192,-0.23644959,-0.11633271
1764510879.621491,-3.29616,0.71722,1.43444,-0.95898192,-0.23644959,-0.11633271
1764510879.621491,-3.29616,0.71722,1.43444,-0.95898192,-0.23644959,-0.11633271
1764510879.621491,-3.29616,0.71722,1.43444,-0.95898192,-0.23644959,-0.11633271
1764510879.621491,-3.29616,0.71722,1.43444,-0.95898192,-0.23644959,-0.11633271
1764510879.621491,-3.29616,0.71722,1.43444,-0.95898192,-0.23644959,-0.11633271
1764510879.621491,-2.96044,0.65618,1.48022,-0.959287095,-0.23657166,-0.11560029
1764510879.621491,-2.96044,0.65618,1.48022,-0.959287095,-0.23657166,-0.11560029
1764510879.621491,-2.96044,0.65618,1.48022,-0.959287095,-0.23657166,-0.11560029
1764510879.621491,-2.96044,0.65618,1.48022,-0.959287095,-0.23657166,-0.11560029
1764510879.621491,-2.96044,0.65618,1.48022,-0.959287095,-0.23657166,-0.11560029
1764510879.621491,-2.96044,0.65618,1.48022,-0.959287095,-0.23657166,-0.11560029
1764510879.621491,-2.96044,0.65618,1.48022,-0.959287095,-0.23657166,-0.11560029
1764510879.621491,-2.96044,0.65618,1.48022,-0.959287095,-0.23657166,-0.11560029
1764510879.621491,-2.96044,0.65618,1.48022,-0.959287095,-0.23657166,-0.11560029
1764510879.621491,-2.96044,0.65618,1.48022,-0.959287095,-0.23657166,-0.11560029
1764510879.621491,-3.21986,0.59514,1.0682,-0.95910399,-0.236388555,-0.114928905
1764510879.621491,-3.21986,0.59514,1.0682,-0.95910399,-0.236388555,-0.114928905
1764510879.6654418,-3.21986,0.59514,1.0682,-0.95910399,-0.236388555,-0.114928905
1764510879.6654418,-3.21986,0.59514,1.0682,-0.95910399,-0.236388555,-0.114928905
1764510879.6654418,-3.21986,0.59514,1.0682,-0.95910399,-0.236388555,-0.114928905
1764510879.6654418,-3.21986,0.59514,1.0682,-0.95910399,-0.236388555,-0.114928905
1764510879.6654418,-3.21986,0.59514,1.0682,-0.95910399,-0.236388555,-0.114928905
1764510879.6654418,-3.21986,0.59514,1.0682,-0.95910399,-0.236388555,-0.114928905
1764510879.6654418,-3.21986,0.59514,1.0682,-0.95910399,-0.236388555,-0.114928905
1764510879.6654418,-3.21986,0.59514,1.0682,-0.95910399,-0.236388555,-0.114928905
1764510879.6654418,-3.98286,0.6867,0.9919,-0.959531235,-0.23669373,-0.11535615
1764510879.6654418,-3.98286,0.6867,0.9919,-0.959531235,-0.23669373,-0.11535615
1764510879.6654418,-3.98286,0.6867,0.9919,-0.959531235,-0.23669373,-0.11535615
1764510879.6654418,-3.98286,0.6867,0.9919,-0.959531235,-0.23669373,-0.11535615
1764510879.6654418,-3.98286,0.6867,0.9919,-0.959531235,-0.23669373,-0.11535615
1764510879.6654418,-3.98286,0.6867,0.9919,-0.959531235,-0.23669373,-0.11535615
1764510879.6654418,-3.98286,0.6867,0.9919,-0.959531235,-0.23669373,-0.11535615
1764510879.6654418,-3.98286,0.6867,0.9919,-0.959531235,-0.23669373,-0.11535615
1764510879.6654418,-3.98286,0.6867,0.9919,-0.959531235,-0.23669373,-0.11535615
1764510879.6654418,-3.98286,0.6867,0.9919,-0.959531235,-0.23669373,-0.11535615
1764510879.6654418,-4.1965,1.05294,0.77826,-0.959531235,-0.23693787,-0.11560029
1764510879.6654418,-4.1965,1.05294,0.77826,-0.959531235,-0.23693787,-0.11560029
1764510879.6654418,-4.1965,1.05294,0.77826,-0.959531235,-0.23693787,-0.11560029
1764510879.6654418,-4.1965,1.05294,0.77826,-0.959531235,-0.23693787,-0.11560029
1764510879.71447,-4.1965,1.05294,0.77826,-0.959531235,-0.23693787,-0.11560029
1764510879.71447,-4.1965,1.05294,0.77826,-0.959531235,-0.23693787,-0.11560029
1764510879.71447,-4.1965,1.05294,0.77826,-0.959531235,-0.23693787,-0.11560029
1764510879.71447,-4.1965,1.05294,0.77826,-0.959531235,-0.23693787,-0.11560029
1764510879.71447,-4.1965,1.05294,0.77826,-0.959531235,-0.23693787,-0.11560029
1764510879.71447,-4.1965,1.05294,0.77826,-0.959531235,-0.23693787,-0.11560029
1764510879.71447,-3.60136,0.8392999999999999,1.17502,-0.959653305,-0.236998905,-0.11572236
1764510879.71447,-3.60136,0.8392999999999999,1.17502,-0.959653305,-0.236998905,-0.11572236
1764510879.71447,-3.60136,0.8392999999999999,1.17502,-0.959653305,-0.236998905,-0.11572236
1764510879.71447,-3.60136,0.8392999999999999,1.17502,-0.959653305,-0.236998905,-0.11572236
1764510879.71447,-3.60136,0.8392999999999999,1.17502,-0.959653305,-0.236998905,-0.11572236
1764510879.71447,-3.60136,0.8392999999999999,1.17502,-0.959653305,-0.236998905,-0.11572236
1764510879.71447,-3.60136,0.8392999999999999,1.17502,-0.959653305,-0.236998905,-0.11572236
1764510879.71447,-3.60136,0.8392999999999999,1.17502,-0.959653305,-0.236998905,-0.11572236
1764510879.71447,-3.60136,0.8392999999999999,1.17502,-0.959653305,-0.236998905,-0.11572236
1764510879.71447,-3.60136,0.8392999999999999,1.17502,-0.959653305,-0.236998905,-0.11572236
1764510879.71447,-3.06726,0.71722,1.31236,-0.96032469,-0.23718201,-0.115783395
1764510879.715479,-3.06726,0.71722,1.31236,-0.96032469,-0.23718201,-0.115783395
1764510879.715479,-3.06726,0.71722,1.31236,-0.96032469,-0.23718201,-0.115783395
1764510879.715479,-3.06726,0.71722,1.31236,-0.96032469,-0.23718201,-0.115783395
1764510879.715479,-3.06726,0.71722,1.31236,-0.96032469,-0.23718201,-0.115783395
1764510879.715479,-3.06726,0.71722,1.31236,-0.96032469,-0.23718201,-0.115783395
1764510879.715479,-3.06726,0.71722,1.31236,-0.96032469,-0.23718201,-0.115783395
1764510879.715479,-3.06726,0.71722,1.31236,-0.96032469,-0.23718201,-0.115783395
1764510879.7606754,-3.06726,0.71722,1.31236,-0.96032469,-0.23718201,-0.115783395
1764510879.7606754,-3.06726,0.71722,1.31236,-0.96032469,-0.23718201,-0.115783395
1764510879.7606754,-3.67766,0.82404,1.08346,-0.95995848,-0.237243045,-0.114806835
1764510879.7606754,-3.67766,0.82404,1.08346,-0.95995848,-0.237243045,-0.114806835
1764510879.7606754,-3.67766,0.82404,1.08346,-0.95995848,-0.237243045,-0.114806835
1764510879.7606754,-3.67766,0.82404,1.08346,-0.95995848,-0.237243045,-0.114806835
1764510879.7606754,-3.67766,0.82404,1.08346,-0.95995848,-0.237243045,-0.114806835
1764510879.7606754,-3.67766,0.82404,1.08346,-0.95995848,-0.237243045,-0.114806835
1764510879.7606754,-3.67766,0.82404,1.08346,-0.95995848,-0.237243045,-0.114806835
1764510879.7606754,-3.67766,0.82404,1.08346,-0.95995848,-0.237243045,-0.114806835
1764510879.7606754,-3.67766,0.82404,1.08346,-0.95995848,-0.237243045,-0.114806835
1764510879.7606754,-3.67766,0.82404,1.08346,-0.95995848,-0.237243045,-0.114806835
1764510879.7606754,-3.93708,0.85456,1.09872,-0.960019515,-0.23620545,-0.113586135
1764510879.7606754,-3.93708,0.85456,1.09872,-0.960019515,-0.23620545,-0.113586135
1764510879.7606754,-3.93708,0.85456,1.09872,-0.960019515,-0.23620545,-0.113586135
1764510879.7606754,-3.93708,0.85456,1.09872,-0.960019515,-0.23620545,-0.113586135
1764510879.7606754,-3.93708,0.85456,1.09872,-0.960019515,-0.23620545,-0.113586135
1764510879.7606754,-3.93708,0.85456,1.09872,-0.960019515,-0.23620545,-0.113586135
1764510879.7606754,-3.93708,0.85456,1.09872,-0.960019515,-0.23620545,-0.113586135
1764510879.7606754,-3.93708,0.85456,1.09872,-0.960019515,-0.23620545,-0.113586135
1764510879.7606754,-3.93708,0.85456,1.09872,-0.960019515,-0.23620545,-0.113586135
1764510879.7606754,-3.93708,0.85456,1.09872,-0.960019515,-0.23620545,-0.113586135
1764510879.8097565,-4.31858,0.59514,0.9003399999999999,-0.95959227,-0.235534065,-0.11328096
1764510879.8097565,-4.31858,0.59514,0.9003399999999999,-0.95959227,-0.235534065,-0.11328096
1764510879.8097565,-4.31858,0.59514,0.9003399999999999,-0.95959227,-0.235534065,-0.11328096
1764510879.8097565,-4.31858,0.59514,0.9003399999999999,-0.95959227,-0.235534065,-0.11328096
1764510879.8097565,-4.31858,0.59514,0.9003399999999999,-0.95959227,-0.235534065,-0.11328096
1764510879.8097565,-4.31858,0.59514,0.9003399999999999,-0.95959227,-0.235534065,-0.11328096
1764510879.8107493,-4.31858,0.59514,0.9003399999999999,-0.95959227,-0.235534065,-0.11328096
1764510879.8107493,-4.31858,0.59514,0.9003399999999999,-0.95959227,-0.235534065,-0.11328096
1764510879.8107493,-4.31858,0.59514,0.9003399999999999,-0.95959227,-0.235534065,-0.11328096
1764510879.8107493,-4.31858,0.59514,0.9003399999999999,-0.95959227,-0.235534065,-0.11328096
1764510879.8107493,-4.41014,0.74774,0.88508,-0.959775375,-0.235656135,-0.1135251
1764510879.8107493,-4.41014,0.74774,0.88508,-0.959775375,-0.235656135,-0.1135251
1764510879.8107493,-4.41014,0.74774,0.88508,-0.959775375,-0.235656135,-0.1135251
1764510879.8107493,-4.41014,0.74774,0.88508,-0.959775375,-0.235656135,-0.1135251
1764510879.8107493,-4.41014,0.74774,0.88508,-0.959775375,-0.235656135,-0.1135251
1764510879.8107493,-4.41014,0.74774,0.88508,-0.959775375,-0.235656135,-0.1135251
1764510879.8107493,-4.41014,0.74774,0.88508,-0.959775375,-0.235656135,-0.1135251
1764510879.8122833,-4.41014,0.74774,0.88508,-0.959775375,-0.235656135,-0.1135251
1764510879.8122833,-4.41014,0.74774,0.88508,-0.959775375,-0.235656135,-0.1135251
1764510879.8122833,-4.41014,0.74774,0.88508,-0.959775375,-0.235656135,-0.1135251
1764510879.8122833,-4.41014,1.28184,-0.3357199999999999,-0.96032469,-0.23535096,-0.114806835
1764510879.8122833,-4.41014,1.28184,-0.3357199999999999,-0.96032469,-0.23535096,-0.114806835
1764510879.8541796,-4.41014,1.28184,-0.3357199999999999,-0.96032469,-0.23535096,-0.114806835
1764510879.8541796,-4.41014,1.28184,-0.3357199999999999,-0.96032469,-0.23535096,-0.114806835
1764510879.8541796,-4.41014,1.28184,-0.3357199999999999,-0.96032469,-0.23535096,-0.114806835
1764510879.8541796,-4.41014,1.28184,-0.3357199999999999,-0.96032469,-0.23535096,-0.114806835
1764510879.8541796,-4.41014,1.28184,-0.3357199999999999,-0.96032469,-0.23535096,-0.114806835
1764510879.8541796,-4.41014,1.28184,-0.3357199999999999,-0.96032469,-0.23535096,-0.114806835
1764510879.8541796,-4.41014,1.28184,-0.3357199999999999,-0.96032469,-0.23535096,-0.114806835
1764510879.8541796,-4.41014,1.28184,-0.3357199999999999,-0.96032469,-0.23535096,-0.114806835
1764510879.8541796,-3.46402,0.85456,-0.12208,-0.95959227,-0.235656135,-0.115295115
1764510879.8541796,-3.46402,0.85456,-0.12208,-0.95959227,-0.235656135,-0.115295115
1764510879.8541796,-3.46402,0.85456,-0.12208,-0.95959227,-0.235656135,-0.115295115
1764510879.8541796,-3.46402,0.85456,-0.12208,-0.95959227,-0.235656135,-0.115295115
1764510879.8541796,-3.46402,0.85456,-0.12208,-0.95959227,-0.235656135,-0.115295115
1764510879.8541796,-3.46402,0.85456,-0.12208,-0.95959227,-0.235656135,-0.115295115
1764510879.8541796,-3.46402,0.85456,-0.12208,-0.95959227,-0.235656135,-0.115295115
1764510879.8541796,-3.46402,0.85456,-0.12208,-0.95959227,-0.235656135,-0.115295115
1764510879.8541796,-3.46402,0.85456,-0.12208,-0.95959227,-0.235656135,-0.115295115
1764510879.8541796,-3.46402,0.85456,-0.12208,-0.95959227,-0.235656135,-0.115295115
1764510879.8541796,-2.22796,0.9919,1.03768,-0.959287095,-0.23596131,-0.11511201
1764510879.8541796,-2.22796,0.9919,1.03768,-0.959287095,-0.23596131,-0.11511201
1764510879.8541796,-2.22796,0.9919,1.03768,-0.959287095,-0.23596131,-0.11511201
1764510879.8541796,-2.22796,0.9919,1.03768,-0.959287095,-0.23596131,-0.11511201
1764510879.8541796,-2.22796,0.9919,1.03768,-0.959287095,-0.23596131,-0.11511201
1764510879.8541796,-2.22796,0.9919,1.03768,-0.959287095,-0.23596131,-0.11511201
1764510879.8541796,-2.22796,0.9919,1.03768,-0.959287095,-0.23596131,-0.11511201
1764510879.8541796,-2.22796,0.9919,1.03768,-0.959287095,-0.23596131,-0.11511201
1764510879.9000907,-2.22796,0.9919,1.03768,-0.959287095,-0.23596131,-0.11511201
1764510879.9000907,-2.22796,0.9919,1.03768,-0.959287095,-0.23596131,-0.11511201
1764510879.9000907,-2.79258,1.09872,0.6714399999999999,-0.960385725,-0.23583924,-0.114684765
1764510879.9000907,-2.79258,1.09872,0.6714399999999999,-0.960385725,-0.23583924,-0.114684765
1764510879.9000907,-2.79258,1.09872,0.6714399999999999,-0.960385725,-0.23583924,-0.114684765
1764510879.9000907,-2.79258,1.09872,0.6714399999999999,-0.960385725,-0.23583924,-0.114684765
1764510879.9000907,-2.79258,1.09872,0.6714399999999999,-0.960385725,-0.23583924,-0.114684765
1764510879.9000907,-2.79258,1.09872,0.6714399999999999,-0.960385725,-0.23583924,-0.114684765
1764510879.9000907,-2.79258,1.09872,0.6714399999999999,-0.960385725,-0.23583924,-0.114684765
1764510879.9000907,-2.79258,1.09872,0.6714399999999999,-0.960385725,-0.23583924,-0.114684765
1764510879.9000907,-2.79258,1.09872,0.6714399999999999,-0.960385725,-0.23583924,-0.114684765
1764510879.9000907,-2.79258,1.09872,0.6714399999999999,-0.960385725,-0.23583924,-0.114684765
1764510879.9000907,-4.45592,1.17502,0.62566,-0.96008055,-0.235167855,-0.113097855
1764510879.9000907,-4.45592,1.17502,0.62566,-0.96008055,-0.235167855,-0.113097855
1764510879.9000907,-4.45592,1.17502,0.62566,-0.96008055,-0.235167855,-0.113097855
1764510879.9000907,-4.45592,1.17502,0.62566,-0.96008055,-0.235167855,-0.113097855
1764510879.9000907,-4.45592,1.17502,0.62566,-0.96008055,-0.235167855,-0.113097855
1764510879.9000907,-4.45592,1.17502,0.62566,-0.96008055,-0.235167855,-0.113097855
1764510879.9000907,-4.45592,1.17502,0.62566,-0.96008055,-0.235167855,-0.113097855
1764510879.9000907,-4.45592,1.17502,0.62566,-0.96008055,-0.235167855,-0.113097855
1764510879.9000907,-4.45592,1.17502,0.62566,-0.96008055,-0.235167855,-0.113097855
1764510879.9000907,-4.45592,1.17502,0.62566,-0.96008055,-0.235167855,-0.113097855
1764510879.9000907,-5.46308,0.74774,0.9003399999999999,-0.959287095,-0.234313365,-0.112731645
1764510879.9000907,-5.46308,0.74774,0.9003399999999999,-0.959287095,-0.234313365,-0.112731645
1764510879.948587,-5.46308,0.74774,0.9003399999999999,-0.959287095,-0.234313365,-0.112731645
1764510879.948587,-5.46308,0.74774,0.9003399999999999,-0.959287095,-0.234313365,-0.112731645
1764510879.948587,-5.46308,0.74774,0.9003399999999999,-0.959287095,-0.234313365,-0.112731645
1764510879.948587,-5.46308,0.74774,0.9003399999999999,-0.959287095,-0.234313365,-0.112731645
1764510879.948587,-5.46308,0.74774,0.9003399999999999,-0.959287095,-0.234313365,-0.112731645
1764510879.948587,-5.46308,0.74774,0.9003399999999999,-0.959287095,-0.234313365,-0.112731645
1764510879.948587,-5.46308,0.74774,0.9003399999999999,-0.959287095,-0.234313365,-0.112731645
1764510879.948587,-5.46308,0.74774,0.9003399999999999,-0.959287095,-0.234313365,-0.112731645
1764510879.948587,-4.852679999999999,0.93086,0.59514,-0.960019515,-0.23449647,-0.1135251
1764510879.948587,-4.852679999999999,0.93086,0.59514,-0.960019515,-0.23449647,-0.1135251
1764510879.948587,-4.852679999999999,0.93086,0.59514,-0.960019515,-0.23449647,-0.1135251
1764510879.948587,-4.852679999999999,0.93086,0.59514,-0.960019515,-0.23449647,-0.1135251
1764510879.948587,-4.852679999999999,0.93086,0.59514,-0.960019515,-0.23449647,-0.1135251
1764510879.948587,-4.852679999999999,0.93086,0.59514,-0.960019515,-0.23449647,-0.1135251
1764510879.948587,-4.852679999999999,0.93086,0.59514,-0.960019515,-0.23449647,-0.1135251
1764510879.948587,-4.852679999999999,0.93086,0.59514,-0.960019515,-0.23449647,-0.1135251
1764510879.948587,-4.852679999999999,0.93086,0.59514,-0.960019515,-0.23449647,-0.1135251
1764510879.948587,-4.852679999999999,0.93086,0.59514,-0.960019515,-0.23449647,-0.1135251
1764510879.948587,-3.57084,0.88508,0.57988,-0.96008055,-0.23510682,-0.114806835
1764510879.948587,-3.57084,0.88508,0.57988,-0.96008055,-0.23510682,-0.114806835
1764510879.948587,-3.57084,0.88508,0.57988,-0.96008055,-0.23510682,-0.114806835
1764510879.948587,-3.57084,0.88508,0.57988,-0.96008055,-0.23510682,-0.114806835
1764510879.9922976,-3.57084,0.88508,0.57988,-0.96008055,-0.23510682,-0.114806835
1764510879.9922976,-3.57084,0.88508,0.57988,-0.96008055,-0.23510682,-0.114806835
1764510879.9922976,-3.57084,0.88508,0.57988,-0.96008055,-0.23510682,-0.114806835
1764510879.9922976,-3.57084,0.88508,0.57988,-0.96008055,-0.23510682,-0.114806835
1764510879.993817,-3.57084,0.88508,0.57988,-0.96008055,-0.23510682,-0.114806835
1764510879.993817,-3.57084,0.88508,0.57988,-0.96008055,-0.23510682,-0.114806835
1764510879.993817,-2.70102,0.8392999999999999,1.28184,-0.95971434,-0.23510682,-0.114196485
1764510879.993817,-2.70102,0.8392999999999999,1.28184,-0.95971434,-0.23510682,-0.114196485
1764510879.993817,-2.70102,0.8392999999999999,1.28184,-0.95971434,-0.23510682,-0.114196485
1764510879.993817,-2.70102,0.8392999999999999,1.28184,-0.95971434,-0.23510682,-0.114196485
1764510879.993817,-2.70102,0.8392999999999999,1.28184,-0.95971434,-0.23510682,-0.114196485
1764510879.993817,-2.70102,0.8392999999999999,1.28184,-0.95971434,-0.23510682,-0.114196485
1764510879.993817,-2.70102,0.8392999999999999,1.28184,-0.95971434,-0.23510682,-0.114196485
1764510879.993817,-2.70102,0.8392999999999999,1.28184,-0.95971434,-0.23510682,-0.114196485
1764510879.993817,-2.70102,0.8392999999999999,1.28184,-0.95971434,-0.23510682,-0.114196485
1764510879.993817,-2.70102,0.8392999999999999,1.28184,-0.95971434,-0.23510682,-0.114196485
1764510879.993817,-2.86888,1.43444,0.74774,-0.959409165,-0.2355951,-0.1147458
1764510879.993817,-2.86888,1.43444,0.74774,-0.959409165,-0.2355951,-0.1147458
1764510879.993817,-2.86888,1.43444,0.74774,-0.959409165,-0.2355951,-0.1147458
1764510879.993817,-2.86888,1.43444,0.74774,-0.959409165,-0.2355951,-0.1147458
1764510879.993817,-2.86888,1.43444,0.74774,-0.959409165,-0.2355951,-0.1147458
1764510879.993817,-2.86888,1.43444,0.74774,-0.959409165,-0.2355951,-0.1147458
1764510879.993817,-2.86888,1.43444,0.74774,-0.959409165,-0.2355951,-0.1147458
1764510879.993817,-2.86888,1.43444,0.74774,-0.959409165,-0.2355951,-0.1147458
1764510880.043733,-2.86888,1.43444,0.74774,-0.959409165,-0.2355951,-0.1147458
1764510880.043733,-2.86888,1.43444,0.74774,-0.959409165,-0.2355951,-0.1147458
1764510880.043733,-2.77732,1.4497,1.34288,-0.95873778,-0.236510625,-0.11389131
1764510880.043733,-2.77732,1.4497,1.34288,-0.95873778,-0.236510625,-0.11389131
1764510880.043733,-2.77732,1.4497,1.34288,-0.95873778,-0.236510625,-0.11389131
1764510880.0447698,-2.77732,1.4497,1.34288,-0.95873778,-0.236510625,-0.11389131
1764510880.0447698,-2.77732,1.4497,1.34288,-0.95873778,-0.236510625,-0.11389131
1764510880.0447698,-2.77732,1.4497,1.34288,-0.95873778,-0.236510625,-0.11389131
1764510880.0447698,-2.77732,1.4497,1.34288,-0.95873778,-0.236510625,-0.11389131
1764510880.0447698,-2.77732,1.4497,1.34288,-0.95873778,-0.236510625,-0.11389131
1764510880.0447698,-2.77732,1.4497,1.34288,-0.95873778,-0.236510625,-0.11389131
1764510880.0447698,-2.77732,1.4497,1.34288,-0.95873778,-0.236510625,-0.11389131
1764510880.0447698,-3.26564,0.51884,0.97664,-0.95959227,-0.235411995,-0.11279268
1764510880.0447698,-3.26564,0.51884,0.97664,-0.95959227,-0.235411995,-0.11279268
1764510880.0447698,-3.26564,0.51884,0.97664,-0.95959227,-0.235411995,-0.11279268
1764510880.0447698,-3.26564,0.51884,0.97664,-0.95959227,-0.235411995,-0.11279268
1764510880.0447698,-3.26564,0.51884,0.97664,-0.95959227,-0.235411995,-0.11279268
1764510880.0447698,-3.26564,0.51884,0.97664,-0.95959227,-0.235411995,-0.11279268
1764510880.0447698,-3.26564,0.51884,0.97664,-0.95959227,-0.235411995,-0.11279268
1764510880.0447698,-3.26564,0.51884,0.97664,-0.95959227,-0.235411995,-0.11279268
1764510880.0447698,-3.26564,0.51884,0.97664,-0.95959227,-0.235411995,-0.11279268
1764510880.0447698,-3.26564,0.51884,0.97664,-0.95959227,-0.235411995,-0.11279268
1764510880.0447698,-3.93708,0.74774,0.3815,-0.96008055,-0.23571717,-0.112243365
1764510880.0447698,-3.93708,0.74774,0.3815,-0.96008055,-0.23571717,-0.112243365
1764510880.0900676,-3.93708,0.74774,0.3815,-0.96008055,-0.23571717,-0.112243365
1764510880.0900676,-3.93708,0.74774,0.3815,-0.96008055,-0.23571717,-0.112243365
1764510880.0900676,-3.93708,0.74774,0.3815,-0.96008055,-0.23571717,-0.112243365
1764510880.0900676,-3.93708,0.74774,0.3815,-0.96008055,-0.23571717,-0.112243365
1764510880.0900676,-3.93708,0.74774,0.3815,-0.96008055,-0.23571717,-0.112243365
1764510880.0900676,-3.93708,0.74774,0.3815,-0.96008055,-0.23571717,-0.112243365
1764510880.0900676,-3.93708,0.74774,0.3815,-0.96008055,-0.23571717,-0.112243365
1764510880.0900676,-3.93708,0.74774,0.3815,-0.96008055,-0.23571717,-0.112243365
1764510880.0900676,-4.21176,1.32762,0.763,-0.96032469,-0.235534065,-0.11242647
1764510880.0900676,-4.21176,1.32762,0.763,-0.96032469,-0.235534065,-0.11242647
1764510880.0900676,-4.21176,1.32762,0.763,-0.96032469,-0.235534065,-0.11242647
1764510880.0900676,-4.21176,1.32762,0.763,-0.96032469,-0.235534065,-0.11242647
1764510880.0900676,-4.21176,1.32762,0.763,-0.96032469,-0.235534065,-0.11242647
1764510880.0900676,-4.21176,1.32762,0.763,-0.96032469,-0.235534065,-0.11242647
1764510880.0900676,-4.21176,1.32762,0.763,-0.96032469,-0.235534065,-0.11242647
1764510880.0900676,-4.21176,1.32762,0.763,-0.96032469,-0.235534065,-0.11242647
1764510880.0900676,-4.21176,1.32762,0.763,-0.96032469,-0.235534065,-0.11242647
1764510880.0900676,-4.21176,1.32762,0.763,-0.96032469,-0.235534065,-0.11242647
1764510880.0900676,-4.56274,0.96138,0.2289,-0.960629865,-0.235411995,-0.113341995
1764510880.0900676,-4.56274,0.96138,0.2289,-0.960629865,-0.235411995,-0.113341995
1764510880.0900676,-4.56274,0.96138,0.2289,-0.960629865,-0.235411995,-0.113341995
1764510880.0910673,-4.56274,0.96138,0.2289,-0.960629865,-0.235411995,-0.113341995
1764510880.134067,-4.56274,0.96138,0.2289,-0.960629865,-0.235411995,-0.113341995
1764510880.135081,-4.56274,0.96138,0.2289,-0.960629865,-0.235411995,-0.113341995
1764510880.135081,-4.56274,0.96138,0.2289,-0.960629865,-0.235411995,-0.113341995
1764510880.135081,-4.56274,0.96138,0.2289,-0.960629865,-0.235411995,-0.113341995
1764510880.135081,-4.56274,0.96138,0.2289,-0.960629865,-0.235411995,-0.113341995
1764510880.135081,-4.56274,0.96138,0.2289,-0.960629865,-0.235411995,-0.113341995
1764510880.135081,-4.28806,1.1445,0.77826,-0.960629865,-0.235167855,-0.113219925
1764510880.135081,-4.28806,1.1445,0.77826,-0.960629865,-0.235167855,-0.113219925
1764510880.135081,-4.28806,1.1445,0.77826,-0.960629865,-0.235167855,-0.113219925
1764510880.135081,-4.28806,1.1445,0.77826,-0.960629865,-0.235167855,-0.113219925
1764510880.1371017,-4.28806,1.1445,0.77826,-0.960629865,-0.235167855,-0.113219925
1764510880.1371017,-4.28806,1.1445,0.77826,-0.960629865,-0.235167855,-0.113219925
1764510880.137914,-4.28806,1.1445,0.77826,-0.960629865,-0.235167855,-0.113219925
1764510880.137914,-4.28806,1.1445,0.77826,-0.960629865,-0.235167855,-0.113219925
1764510880.137914,-4.28806,1.1445,0.77826,-0.960629865,-0.235167855,-0.113219925
1764510880.137914,-4.28806,1.1445,0.77826,-0.960629865,-0.235167855,-0.113219925
1764510880.137914,-4.51696,0.6867,0.6714399999999999,-0.96044676,-0.23535096,-0.11376924
1764510880.1389284,-4.51696,0.6867,0.6714399999999999,-0.96044676,-0.23535096,-0.11376924
1764510880.1389284,-4.51696,0.6867,0.6714399999999999,-0.96044676,-0.23535096,-0.11376924
1764510880.1389284,-4.51696,0.6867,0.6714399999999999,-0.96044676,-0.23535096,-0.11376924
1764510880.1389284,-4.51696,0.6867,0.6714399999999999,-0.96044676,-0.23535096,-0.11376924
1764510880.1389284,-4.51696,0.6867,0.6714399999999999,-0.96044676,-0.23535096,-0.11376924
1764510880.1389284,-4.51696,0.6867,0.6714399999999999,-0.96044676,-0.23535096,-0.11376924
1764510880.1389284,-4.51696,0.6867,0.6714399999999999,-0.96044676,-0.23535096,-0.11376924
1764510880.1841438,-4.51696,0.6867,0.6714399999999999,-0.96044676,-0.23535096,-0.11376924
1764510880.1841438,-4.51696,0.6867,0.6714399999999999,-0.96044676,-0.23535096,-0.11376924
1764510880.1851585,-3.70818,0.77826,0.74774,-0.960385725,-0.23522889,-0.11376924
1764510880.1851585,-3.70818,0.77826,0.74774,-0.960385725,-0.23522889,-0.11376924
1764510880.1861763,-3.70818,0.77826,0.74774,-0.960385725,-0.23522889,-0.11376924
1764510880.1865203,-3.70818,0.77826,0.74774,-0.960385725,-0.23522889,-0.11376924
1764510880.1865203,-3.70818,0.77826,0.74774,-0.960385725,-0.23522889,-0.11376924
1764510880.1865203,-3.70818,0.77826,0.74774,-0.960385725,-0.23522889,-0.11376924
1764510880.1871529,-3.70818,0.77826,0.74774,-0.960385725,-0.23522889,-0.11376924
1764510880.1871529,-3.70818,0.77826,0.74774,-0.960385725,-0.23522889,-0.11376924
1764510880.1871529,-3.70818,0.77826,0.74774,-0.960385725,-0.23522889,-0.11376924
1764510880.1871529,-3.70818,0.77826,0.74774,-0.960385725,-0.23522889,-0.11376924
1764510880.1871529,-4.1202,1.08346,1.15976,-0.959287095,-0.23510682,-0.11376924
1764510880.1871529,-4.1202,1.08346,1.15976,-0.959287095,-0.23510682,-0.11376924
1764510880.1871529,-4.1202,1.08346,1.15976,-0.959287095,-0.23510682,-0.11376924
1764510880.1871529,-4.1202,1.08346,1.15976,-0.959287095,-0.23510682,-0.11376924
1764510880.1871529,-4.1202,1.08346,1.15976,-0.959287095,-0.23510682,-0.11376924
1764510880.1871529,-4.1202,1.08346,1.15976,-0.959287095,-0.23510682,-0.11376924
1764510880.1871529,-4.1202,1.08346,1.15976,-0.959287095,-0.23510682,-0.11376924
1764510880.1871529,-4.1202,1.08346,1.15976,-0.959287095,-0.23510682,-0.11376924
1764510880.1871529,-4.1202,1.08346,1.15976,-0.959287095,-0.23510682,-0.11376924
1764510880.1871529,-4.1202,1.08346,1.15976,-0.959287095,-0.23510682,-0.11376924
1764510880.1881745,-5.32574,1.23606,1.35814,-0.95971434,-0.23474061,-0.113830275
1764510880.1881745,-5.32574,1.23606,1.35814,-0.95971434,-0.23474061,-0.113830275
1764510880.1881745,-5.32574,1.23606,1.35814,-0.95971434,-0.23474061,-0.113830275
1764510880.1881745,-5.32574,1.23606,1.35814,-0.95971434,-0.23474061,-0.113830275
1764510880.2285218,-5.32574,1.23606,1.35814,-0.95971434,-0.23474061,-0.113830275
1764510880.2285218,-5.32574,1.23606,1.35814,-0.95971434,-0.23474061,-0.113830275
1764510880.2285218,-5.32574,1.23606,1.35814,-0.95971434,-0.23474061,-0.113830275
1764510880.2285218,-5.32574,1.23606,1.35814,-0.95971434,-0.23474061,-0.113830275
1764510880.2285218,-5.32574,1.23606,1.35814,-0.95971434,-0.23474061,-0.113830275
1764510880.2300546,-5.32574,1.23606,1.35814,-0.95971434,-0.23474061,-0.113830275
1764510880.2300546,-4.8069,1.526,-0.56462,-0.959165025,-0.234435435,-0.11413545
1764510880.2300546,-4.8069,1.526,-0.56462,-0.959165025,-0.234435435,-0.11413545
1764510880.2300546,-4.8069,1.526,-0.56462,-0.959165025,-0.234435435,-0.11413545
1764510880.2300546,-4.8069,1.526,-0.56462,-0.959165025,-0.234435435,-0.11413545
1764510880.2300546,-4.8069,1.526,-0.56462,-0.959165025,-0.234435435,-0.11413545
1764510880.2300546,-4.8069,1.526,-0.56462,-0.959165025,-0.234435435,-0.11413545
1764510880.2300546,-4.8069,1.526,-0.56462,-0.959165025,-0.234435435,-0.11413545
1764510880.2300546,-4.8069,1.526,-0.56462,-0.959165025,-0.234435435,-0.11413545
1764510880.2300546,-4.8069,1.526,-0.56462,-0.959165025,-0.234435435,-0.11413545
1764510880.2300546,-4.8069,1.526,-0.56462,-0.959165025,-0.234435435,-0.11413545
1764510880.2300546,-3.60136,1.19028,-0.36624,-0.961240215,-0.235656135,-0.1147458
1764510880.2300546,-3.60136,1.19028,-0.36624,-0.961240215,-0.235656135,-0.1147458
1764510880.2300546,-3.60136,1.19028,-0.36624,-0.961240215,-0.235656135,-0.1147458
1764510880.2300546,-3.60136,1.19028,-0.36624,-0.961240215,-0.235656135,-0.1147458
1764510880.2757745,-3.60136,1.19028,-0.36624,-0.961240215,-0.235656135,-0.1147458
1764510880.2757745,-3.60136,1.19028,-0.36624,-0.961240215,-0.235656135,-0.1147458
1764510880.2763057,-3.60136,1.19028,-0.36624,-0.961240215,-0.235656135,-0.1147458
1764510880.2763057,-3.60136,1.19028,-0.36624,-0.961240215,-0.235656135,-0.1147458
1764510880.2763057,-3.60136,1.19028,-0.36624,-0.961240215,-0.235656135,-0.1147458
1764510880.2763057,-3.60136,1.19028,-0.36624,-0.961240215,-0.235656135,-0.1147458
1764510880.2763057,-2.53316,1.84646,0.0,-0.959775375,-0.235900275,-0.11450166
1764510880.2763057,-2.53316,1.84646,0.0,-0.959775375,-0.235900275,-0.11450166
1764510880.2763057,-2.53316,1.84646,0.0,-0.959775375,-0.235900275,-0.11450166
1764510880.2763057,-2.53316,1.84646,0.0,-0.959775375,-0.235900275,-0.11450166
1764510880.2763057,-2.53316,1.84646,0.0,-0.959775375,-0.235900275,-0.11450166
1764510880.2763057,-2.53316,1.84646,0.0,-0.959775375,-0.235900275,-0.11450166
1764510880.2763057,-2.53316,1.84646,0.0,-0.959775375,-0.235900275,-0.11450166
1764510880.2763057,-2.53316,1.84646,0.0,-0.959775375,-0.235900275,-0.11450166
1764510880.2763057,-2.53316,1.84646,0.0,-0.959775375,-0.235900275,-0.11450166
1764510880.2763057,-2.53316,1.84646,0.0,-0.959775375,-0.235900275,-0.11450166
1764510880.2763057,-3.02148,1.34288,0.96138,-0.959653305,-0.2355951,-0.112975785
1764510880.2763057,-3.02148,1.34288,0.96138,-0.959653305,-0.2355951,-0.112975785
1764510880.2763057,-3.02148,1.34288,0.96138,-0.959653305,-0.2355951,-0.112975785
1764510880.2763057,-3.02148,1.34288,0.96138,-0.959653305,-0.2355951,-0.112975785
1764510880.2763057,-3.02148,1.34288,0.96138,-0.959653305,-0.2355951,-0.112975785
1764510880.2763057,-3.02148,1.34288,0.96138,-0.959653305,-0.2355951,-0.112975785
1764510880.2763057,-3.02148,1.34288,0.96138,-0.959653305,-0.2355951,-0.112975785
1764510880.2773356,-3.02148,1.34288,0.96138,-0.959653305,-0.2355951,-0.112975785
1764510880.3240492,-3.02148,1.34288,0.96138,-0.959653305,-0.2355951,-0.112975785
1764510880.3240492,-3.02148,1.34288,0.96138,-0.959653305,-0.2355951,-0.112975785
1764510880.3240492,-4.41014,1.0682,0.96138,-0.95971434,-0.23486268,-0.111755085
1764510880.3240492,-4.41014,1.0682,0.96138,-0.95971434,-0.23486268,-0.111755085
1764510880.3250597,-4.41014,1.0682,0.96138,-0.95971434,-0.23486268,-0.111755085
1764510880.3250597,-4.41014,1.0682,0.96138,-0.95971434,-0.23486268,-0.111755085
1764510880.3250597,-4.41014,1.0682,0.96138,-0.95971434,-0.23486268,-0.111755085
1764510880.3250597,-4.41014,1.0682,0.96138,-0.95971434,-0.23486268,-0.111755085
1764510880.3260615,-4.41014,1.0682,0.96138,-0.95971434,-0.23486268,-0.111755085
1764510880.3260615,-4.41014,1.0682,0.96138,-0.95971434,-0.23486268,-0.111755085
1764510880.3260615,-4.41014,1.0682,0.96138,-0.95971434,-0.23486268,-0.111755085
1764510880.327026,-4.41014,1.0682,0.96138,-0.95971434,-0.23486268,-0.111755085
1764510880.327026,-5.5699,0.88508,0.88508,-0.960507795,-0.23449647,-0.11181612
1764510880.327026,-5.5699,0.88508,0.88508,-0.960507795,-0.23449647,-0.11181612
1764510880.327026,-5.5699,0.88508,0.88508,-0.960507795,-0.23449647,-0.11181612
1764510880.327026,-5.5699,0.88508,0.88508,-0.960507795,-0.23449647,-0.11181612
1764510880.327026,-5.5699,0.88508,0.88508,-0.960507795,-0.23449647,-0.11181612
1764510880.3280396,-5.5699,0.88508,0.88508,-0.960507795,-0.23449647,-0.11181612
1764510880.3280396,-5.5699,0.88508,0.88508,-0.960507795,-0.23449647,-0.11181612
1764510880.3280396,-5.5699,0.88508,0.88508,-0.960507795,-0.23449647,-0.11181612
1764510880.3280396,-5.5699,0.88508,0.88508,-0.960507795,-0.23449647,-0.11181612
1764510880.3280396,-5.5699,0.88508,0.88508,-0.960507795,-0.23449647,-0.11181612
1764510880.3280396,-5.340999999999999,1.03768,0.6714399999999999,-0.96020262,-0.235045785,-0.11193819
1764510880.3280396,-5.340999999999999,1.03768,0.6714399999999999,-0.96020262,-0.235045785,-0.11193819
1764510880.3682184,-5.340999999999999,1.03768,0.6714399999999999,-0.96020262,-0.235045785,-0.11193819
1764510880.3682184,-5.340999999999999,1.03768,0.6714399999999999,-0.96020262,-0.235045785,-0.11193819
1764510880.3682184,-5.340999999999999,1.03768,0.6714399999999999,-0.96020262,-0.235045785,-0.11193819
1764510880.3682184,-5.340999999999999,1.03768,0.6714399999999999,-0.96020262,-0.235045785,-0.11193819
1764510880.3682184,-5.340999999999999,1.03768,0.6714399999999999,-0.96020262,-0.235045785,-0.11193819
1764510880.3682184,-5.340999999999999,1.03768,0.6714399999999999,-0.96020262,-0.235045785,-0.11193819
1764510880.3682184,-5.340999999999999,1.03768,0.6714399999999999,-0.96020262,-0.235045785,-0.11193819
1764510880.3682184,-5.340999999999999,1.03768,0.6714399999999999,-0.96020262,-0.235045785,-0.11193819
1764510880.3682184,-4.68482,1.05294,0.9156,-0.960263655,-0.235167855,-0.11303682
1764510880.3682184,-4.68482,1.05294,0.9156,-0.960263655,-0.235167855,-0.11303682
1764510880.3692482,-4.68482,1.05294,0.9156,-0.960263655,-0.235167855,-0.11303682
1764510880.3692482,-4.68482,1.05294,0.9156,-0.960263655,-0.235167855,-0.11303682
1764510880.3692482,-4.68482,1.05294,0.9156,-0.960263655,-0.235167855,-0.11303682
1764510880.3692482,-4.68482,1.05294,0.9156,-0.960263655,-0.235167855,-0.11303682
1764510880.3707695,-4.68482,1.05294,0.9156,-0.960263655,-0.235167855,-0.11303682
1764510880.3707695,-4.68482,1.05294,0.9156,-0.960263655,-0.235167855,-0.11303682
1764510880.3707695,-4.68482,1.05294,0.9156,-0.960263655,-0.235167855,-0.11303682
1764510880.3707695,-4.68482,1.05294,0.9156,-0.960263655,-0.235167855,-0.11303682
1764510880.3707695,-4.53222,1.17502,0.57988,-0.9606909,-0.23510682,-0.11315889
1764510880.3707695,-4.53222,1.17502,0.57988,-0.9606909,-0.23510682,-0.11315889
1764510880.3707695,-4.53222,1.17502,0.57988,-0.9606909,-0.23510682,-0.11315889
1764510880.3707695,-4.53222,1.17502,0.57988,-0.9606909,-0.23510682,-0.11315889
1764510880.3707695,-4.53222,1.17502,0.57988,-0.9606909,-0.23510682,-0.11315889
1764510880.3707695,-4.53222,1.17502,0.57988,-0.9606909,-0.23510682,-0.11315889
1764510880.4160714,-4.53222,1.17502,0.57988,-0.9606909,-0.23510682,-0.11315889
1764510880.4160714,-4.53222,1.17502,0.57988,-0.9606909,-0.23510682,-0.11315889
1764510880.4160714,-4.53222,1.17502,0.57988,-0.9606909,-0.23510682,-0.11315889
1764510880.4160714,-4.53222,1.17502,0.57988,-0.9606909,-0.23510682,-0.11315889
1764510880.4160714,-4.059159999999999,1.58704,-0.06104,-0.96044676,-0.234923715,-0.113464065
1764510880.4160714,-4.059159999999999,1.58704,-0.06104,-0.96044676,-0.234923715,-0.113464065
1764510880.4160714,-4.059159999999999,1.58704,-0.06104,-0.96044676,-0.234923715,-0.113464065
1764510880.4160714,-4.059159999999999,1.58704,-0.06104,-0.96044676,-0.234923715,-0.113464065
1764510880.4160714,-4.059159999999999,1.58704,-0.06104,-0.96044676,-0.234923715,-0.113464065
1764510880.4160714,-4.059159999999999,1.58704,-0.06104,-0.96044676,-0.234923715,-0.113464065
1764510880.4160714,-4.059159999999999,1.58704,-0.06104,-0.96044676,-0.234923715,-0.113464065
1764510880.4160714,-4.059159999999999,1.58704,-0.06104,-0.96044676,-0.234923715,-0.113464065
1764510880.4160714,-4.059159999999999,1.58704,-0.06104,-0.96044676,-0.234923715,-0.113464065
1764510880.4160714,-4.059159999999999,1.58704,-0.06104,-0.96044676,-0.234923715,-0.113464065
1764510880.4160714,-3.99812,1.54126,0.25942,-0.96020262,-0.23535096,-0.11364717
1764510880.4160714,-3.99812,1.54126,0.25942,-0.96020262,-0.23535096,-0.11364717
1764510880.4160714,-3.99812,1.54126,0.25942,-0.96020262,-0.23535096,-0.11364717
1764510880.4160714,-3.99812,1.54126,0.25942,-0.96020262,-0.23535096,-0.11364717
1764510880.417068,-3.99812,1.54126,0.25942,-0.96020262,-0.23535096,-0.11364717
1764510880.417068,-3.99812,1.54126,0.25942,-0.96020262,-0.23535096,-0.11364717
1764510880.417068,-3.99812,1.54126,0.25942,-0.96020262,-0.23535096,-0.11364717
1764510880.417068,-3.99812,1.54126,0.25942,-0.96020262,-0.23535096,-0.11364717
1764510880.461472,-3.99812,1.54126,0.25942,-0.96020262,-0.23535096,-0.11364717
1764510880.461472,-3.99812,1.54126,0.25942,-0.96020262,-0.23535096,-0.11364717
1764510880.4619873,-3.84552,1.09872,0.50358,-0.9594702,-0.234679575,-0.113219925
1764510880.4619873,-3.84552,1.09872,0.50358,-0.9594702,-0.234679575,-0.113219925
1764510880.4619873,-3.84552,1.09872,0.50358,-0.9594702,-0.234679575,-0.113219925
1764510880.4619873,-3.84552,1.09872,0.50358,-0.9594702,-0.234679575,-0.113219925
1764510880.4619873,-3.84552,1.09872,0.50358,-0.9594702,-0.234679575,-0.113219925
1764510880.4619873,-3.84552,1.09872,0.50358,-0.9594702,-0.234679575,-0.113219925
1764510880.4619873,-3.84552,1.09872,0.50358,-0.9594702,-0.234679575,-0.113219925
1764510880.4619873,-3.84552,1.09872,0.50358,-0.9594702,-0.234679575,-0.113219925
1764510880.4619873,-3.84552,1.09872,0.50358,-0.9594702,-0.234679575,-0.113219925
1764510880.4619873,-3.84552,1.09872,0.50358,-0.9594702,-0.234679575,-0.113219925
1764510880.4619873,-4.28806,0.56462,0.8392999999999999,-0.959287095,-0.234191295,-0.112975785
1764510880.4619873,-4.28806,0.56462,0.8392999999999999,-0.959287095,-0.234191295,-0.112975785
1764510880.4640024,-4.28806,0.56462,0.8392999999999999,-0.959287095,-0.234191295,-0.112975785
1764510880.4640024,-4.28806,0.56462,0.8392999999999999,-0.959287095,-0.234191295,-0.112975785
1764510880.4640024,-4.28806,0.56462,0.8392999999999999,-0.959287095,-0.234191295,-0.112975785
1764510880.4640024,-4.28806,0.56462,0.8392999999999999,-0.959287095,-0.234191295,-0.112975785
1764510880.4640024,-4.28806,0.56462,0.8392999999999999,-0.959287095,-0.234191295,-0.112975785
1764510880.4640024,-4.28806,0.56462,0.8392999999999999,-0.959287095,-0.234191295,-0.112975785
1764510880.4640024,-4.28806,0.56462,0.8392999999999999,-0.959287095,-0.234191295,-0.112975785
1764510880.4640024,-4.28806,0.56462,0.8392999999999999,-0.959287095,-0.234191295,-0.112975785
1764510880.4640024,-4.8069,1.41918,0.763,-0.96056883,-0.234191295,-0.113464065
1764510880.4640024,-4.8069,1.41918,0.763,-0.96056883,-0.234191295,-0.113464065
1764510880.5132296,-4.8069,1.41918,0.763,-0.96056883,-0.234191295,-0.113464065
1764510880.5132296,-4.8069,1.41918,0.763,-0.96056883,-0.234191295,-0.113464065
1764510880.5132296,-4.8069,1.41918,0.763,-0.96056883,-0.234191295,-0.113464065
1764510880.5132296,-4.8069,1.41918,0.763,-0.96056883,-0.234191295,-0.113464065
1764510880.5132296,-4.8069,1.41918,0.763,-0.96056883,-0.234191295,-0.113464065
1764510880.5132296,-4.8069,1.41918,0.763,-0.96056883,-0.234191295,-0.113464065
1764510880.5132296,-4.8069,1.41918,0.763,-0.96056883,-0.234191295,-0.113464065
1764510880.5132296,-4.8069,1.41918,0.763,-0.96056883,-0.234191295,-0.113464065
1764510880.5132296,-4.51696,0.88508,0.71722,-0.96044676,-0.23449647,-0.113586135
1764510880.5132296,-4.51696,0.88508,0.71722,-0.96044676,-0.23449647,-0.113586135
1764510880.5132296,-4.51696,0.88508,0.71722,-0.96044676,-0.23449647,-0.113586135
1764510880.5132296,-4.51696,0.88508,0.71722,-0.96044676,-0.23449647,-0.113586135
1764510880.5132296,-4.51696,0.88508,0.71722,-0.96044676,-0.23449647,-0.113586135
1764510880.5132296,-4.51696,0.88508,0.71722,-0.96044676,-0.23449647,-0.113586135
1764510880.5132296,-4.51696,0.88508,0.71722,-0.96044676,-0.23449647,-0.113586135
1764510880.5132296,-4.51696,0.88508,0.71722,-0.96044676,-0.23449647,-0.113586135
1764510880.5132296,-4.51696,0.88508,0.71722,-0.96044676,-0.23449647,-0.113586135
1764510880.5132296,-4.51696,0.88508,0.71722,-0.96044676,-0.23449647,-0.113586135
1764510880.5132296,-3.79974,1.32762,0.6714399999999999,-0.95995848,-0.23535096,-0.11340303
1764510880.5132296,-3.79974,1.32762,0.6714399999999999,-0.95995848,-0.23535096,-0.11340303
1764510880.5132296,-3.79974,1.32762,0.6714399999999999,-0.95995848,-0.23535096,-0.11340303
1764510880.5132296,-3.79974,1.32762,0.6714399999999999,-0.95995848,-0.23535096,-0.11340303
1764510880.5132296,-3.79974,1.32762,0.6714399999999999,-0.95995848,-0.23535096,-0.11340303
1764510880.5142274,-3.79974,1.32762,0.6714399999999999,-0.95995848,-0.23535096,-0.11340303
1764510880.5596142,-3.79974,1.32762,0.6714399999999999,-0.95995848,-0.23535096,-0.11340303
1764510880.5596142,-3.79974,1.32762,0.6714399999999999,-0.95995848,-0.23535096,-0.11340303
1764510880.5596142,-3.79974,1.32762,0.6714399999999999,-0.95995848,-0.23535096,-0.11340303
1764510880.560611,-3.79974,1.32762,0.6714399999999999,-0.95995848,-0.23535096,-0.11340303
1764510880.560611,-3.49454,1.05294,0.39676,-0.96020262,-0.234679575,-0.11315889
1764510880.560611,-3.49454,1.05294,0.39676,-0.96020262,-0.234679575,-0.11315889
1764510880.560611,-3.49454,1.05294,0.39676,-0.96020262,-0.234679575,-0.11315889
1764510880.560611,-3.49454,1.05294,0.39676,-0.96020262,-0.234679575,-0.11315889
1764510880.560611,-3.49454,1.05294,0.39676,-0.96020262,-0.234679575,-0.11315889
1764510880.560611,-3.49454,1.05294,0.39676,-0.96020262,-0.234679575,-0.11315889
1764510880.560611,-3.49454,1.05294,0.39676,-0.96020262,-0.234679575,-0.11315889
1764510880.560611,-3.49454,1.05294,0.39676,-0.96020262,-0.234679575,-0.11315889
1764510880.560611,-3.49454,1.05294,0.39676,-0.96020262,-0.234679575,-0.11315889
1764510880.560611,-3.49454,1.05294,0.39676,-0.96020262,-0.234679575,-0.11315889
1764510880.560611,-3.64714,1.0682,0.62566,-0.95995848,-0.235045785,-0.112609575
1764510880.560611,-3.64714,1.0682,0.62566,-0.95995848,-0.235045785,-0.112609575
1764510880.560611,-3.64714,1.0682,0.62566,-0.95995848,-0.235045785,-0.112609575
1764510880.560611,-3.64714,1.0682,0.62566,-0.95995848,-0.235045785,-0.112609575
1764510880.560611,-3.64714,1.0682,0.62566,-0.95995848,-0.235045785,-0.112609575
1764510880.560611,-3.64714,1.0682,0.62566,-0.95995848,-0.235045785,-0.112609575
1764510880.560611,-3.64714,1.0682,0.62566,-0.95995848,-0.235045785,-0.112609575
1764510880.560611,-3.64714,1.0682,0.62566,-0.95995848,-0.235045785,-0.112609575
1764510880.560611,-3.64714,1.0682,0.62566,-0.95995848,-0.235045785,-0.112609575
1764510880.560611,-3.64714,1.0682,0.62566,-0.95995848,-0.235045785,-0.112609575
1764510880.6045663,-4.33384,1.49548,0.10682,-0.959775375,-0.234313365,-0.113097855
1764510880.6045663,-4.33384,1.49548,0.10682,-0.959775375,-0.234313365,-0.113097855
1764510880.6045663,-4.33384,1.49548,0.10682,-0.959775375,-0.234313365,-0.113097855
1764510880.6045663,-4.33384,1.49548,0.10682,-0.959775375,-0.234313365,-0.113097855
1764510880.6045663,-4.33384,1.49548,0.10682,-0.959775375,-0.234313365,-0.113097855
1764510880.6045663,-4.33384,1.49548,0.10682,-0.959775375,-0.234313365,-0.113097855
1764510880.6045663,-4.33384,1.49548,0.10682,-0.959775375,-0.234313365,-0.113097855
1764510880.6045663,-4.33384,1.49548,0.10682,-0.959775375,-0.234313365,-0.113097855
1764510880.6045663,-4.33384,1.49548,0.10682,-0.959775375,-0.234313365,-0.113097855
1764510880.6045663,-4.33384,1.49548,0.10682,-0.959775375,-0.234313365,-0.113097855
1764510880.6045663,-4.37962,1.63282,-0.03052,-0.95971434,-0.233580945,-0.11340303
1764510880.6045663,-4.37962,1.63282,-0.03052,-0.95971434,-0.233580945,-0.11340303
1764510880.6045663,-4.37962,1.63282,-0.03052,-0.95971434,-0.233580945,-0.11340303
1764510880.605579,-4.37962,1.63282,-0.03052,-0.95971434,-0.233580945,-0.11340303
1764510880.605579,-4.37962,1.63282,-0.03052,-0.95971434,-0.233580945,-0.11340303
1764510880.605579,-4.37962,1.63282,-0.03052,-0.95971434,-0.233580945,-0.11340303
1764510880.605579,-4.37962,1.63282,-0.03052,-0.95971434,-0.233580945,-0.11340303
1764510880.605579,-4.37962,1.63282,-0.03052,-0.95971434,-0.233580945,-0.11340303
1764510880.605579,-4.37962,1.63282,-0.03052,-0.95971434,-0.233580945,-0.11340303
1764510880.605579,-4.37962,1.63282,-0.03052,-0.95971434,-0.233580945,-0.11340303
1764510880.605579,-4.33384,1.05294,0.27468,-0.96056883,-0.23474061,-0.112853715
1764510880.605579,-4.33384,1.05294,0.27468,-0.96056883,-0.23474061,-0.112853715
1764510880.605579,-4.33384,1.05294,0.27468,-0.96056883,-0.23474061,-0.112853715
1764510880.605579,-4.33384,1.05294,0.27468,-0.96056883,-0.23474061,-0.112853715
1764510880.652661,-4.33384,1.05294,0.27468,-0.96056883,-0.23474061,-0.112853715
1764510880.652661,-4.33384,1.05294,0.27468,-0.96056883,-0.23474061,-0.112853715
1764510880.6542,-4.33384,1.05294,0.27468,-0.96056883,-0.23474061,-0.112853715
1764510880.6542,-4.33384,1.05294,0.27468,-0.96056883,-0.23474061,-0.112853715
1764510880.6542,-4.33384,1.05294,0.27468,-0.96056883,-0.23474061,-0.112853715
1764510880.6542,-4.33384,1.05294,0.27468,-0.96056883,-0.23474061,-0.112853715
1764510880.6542,-4.2728,1.08346,0.3357199999999999,-0.96081297,-0.23510682,-0.11340303
1764510880.6552107,-4.2728,1.08346,0.3357199999999999,-0.96081297,-0.23510682,-0.11340303
1764510880.6552107,-4.2728,1.08346,0.3357199999999999,-0.96081297,-0.23510682,-0.11340303
1764510880.6552107,-4.2728,1.08346,0.3357199999999999,-0.96081297,-0.23510682,-0.11340303
1764510880.6560297,-4.2728,1.08346,0.3357199999999999,-0.96081297,-0.23510682,-0.11340303
1764510880.6560297,-4.2728,1.08346,0.3357199999999999,-0.96081297,-0.23510682,-0.11340303
1764510880.6560297,-4.2728,1.08346,0.3357199999999999,-0.96081297,-0.23510682,-0.11340303
1764510880.6560297,-4.2728,1.08346,0.3357199999999999,-0.96081297,-0.23510682,-0.11340303
1764510880.6560297,-4.2728,1.08346,0.3357199999999999,-0.96081297,-0.23510682,-0.11340303
1764510880.6560297,-4.2728,1.08346,0.3357199999999999,-0.96081297,-0.23510682,-0.11340303
1764510880.6570437,-4.822159999999999,1.31236,0.7019599999999999,-0.960507795,-0.235167855,-0.113464065
1764510880.6570437,-4.822159999999999,1.31236,0.7019599999999999,-0.960507795,-0.235167855,-0.113464065
1764510880.6570437,-4.822159999999999,1.31236,0.7019599999999999,-0.960507795,-0.235167855,-0.113464065
1764510880.6570437,-4.822159999999999,1.31236,0.7019599999999999,-0.960507795,-0.235167855,-0.113464065
1764510880.6570437,-4.822159999999999,1.31236,0.7019599999999999,-0.960507795,-0.235167855,-0.113464065
1764510880.6570437,-4.822159999999999,1.31236,0.7019599999999999,-0.960507795,-0.235167855,-0.113464065
1764510880.6989207,-4.822159999999999,1.31236,0.7019599999999999,-0.960507795,-0.235167855,-0.113464065
1764510880.6989207,-4.822159999999999,1.31236,0.7019599999999999,-0.960507795,-0.235167855,-0.113464065
1764510880.6999228,-4.822159999999999,1.31236,0.7019599999999999,-0.960507795,-0.235167855,-0.113464065
1764510880.6999228,-4.822159999999999,1.31236,0.7019599999999999,-0.960507795,-0.235167855,-0.113464065
1764510880.6999228,-4.99002,1.35814,-0.3357199999999999,-0.961362285,-0.23486268,-0.113952345
1764510880.6999228,-4.99002,1.35814,-0.3357199999999999,-0.961362285,-0.23486268,-0.113952345
1764510880.6999228,-4.99002,1.35814,-0.3357199999999999,-0.961362285,-0.23486268,-0.113952345
1764510880.6999228,-4.99002,1.35814,-0.3357199999999999,-0.961362285,-0.23486268,-0.113952345
1764510880.6999228,-4.99002,1.35814,-0.3357199999999999,-0.961362285,-0.23486268,-0.113952345
1764510880.70092,-4.99002,1.35814,-0.3357199999999999,-0.961362285,-0.23486268,-0.113952345
1764510880.70092,-4.99002,1.35814,-0.3357199999999999,-0.961362285,-0.23486268,-0.113952345
1764510880.70092,-4.99002,1.35814,-0.3357199999999999,-0.961362285,-0.23486268,-0.113952345
1764510880.70092,-4.99002,1.35814,-0.3357199999999999,-0.961362285,-0.23486268,-0.113952345
1764510880.70092,-4.99002,1.35814,-0.3357199999999999,-0.961362285,-0.23486268,-0.113952345
1764510880.70092,-4.303319999999999,1.17502,0.3204599999999999,-0.96032469,-0.2355951,-0.11425752
1764510880.70092,-4.303319999999999,1.17502,0.3204599999999999,-0.96032469,-0.2355951,-0.11425752
1764510880.70092,-4.303319999999999,1.17502,0.3204599999999999,-0.96032469,-0.2355951,-0.11425752
1764510880.70092,-4.303319999999999,1.17502,0.3204599999999999,-0.96032469,-0.2355951,-0.11425752
1764510880.70092,-4.303319999999999,1.17502,0.3204599999999999,-0.96032469,-0.2355951,-0.11425752
1764510880.70092,-4.303319999999999,1.17502,0.3204599999999999,-0.96032469,-0.2355951,-0.11425752
1764510880.702427,-4.303319999999999,1.17502,0.3204599999999999,-0.96032469,-0.2355951,-0.11425752
1764510880.702427,-4.303319999999999,1.17502,0.3204599999999999,-0.96032469,-0.2355951,-0.11425752
1764510880.702427,-4.303319999999999,1.17502,0.3204599999999999,-0.96032469,-0.2355951,-0.11425752
1764510880.702427,-4.303319999999999,1.17502,0.3204599999999999,-0.96032469,-0.2355951,-0.11425752
1764510880.7432077,-3.06726,0.79352,1.03768,-0.960019515,-0.23522889,-0.113708205
1764510880.7432077,-3.06726,0.79352,1.03768,-0.960019515,-0.23522889,-0.113708205
1764510880.7442093,-3.06726,0.79352,1.03768,-0.960019515,-0.23522889,-0.113708205
1764510880.7442093,-3.06726,0.79352,1.03768,-0.960019515,-0.23522889,-0.113708205
1764510880.7442093,-3.06726,0.79352,1.03768,-0.960019515,-0.23522889,-0.113708205
1764510880.7442093,-3.06726,0.79352,1.03768,-0.960019515,-0.23522889,-0.113708205
1764510880.7442093,-3.06726,0.79352,1.03768,-0.960019515,-0.23522889,-0.113708205
1764510880.7442093,-3.06726,0.79352,1.03768,-0.960019515,-0.23522889,-0.113708205
1764510880.7442093,-3.06726,0.79352,1.03768,-0.960019515,-0.23522889,-0.113708205
1764510880.7442093,-3.06726,0.79352,1.03768,-0.960019515,-0.23522889,-0.113708205
1764510880.7442093,-3.5098,1.4497,0.6103999999999999,-0.960263655,-0.23522889,-0.11291475
1764510880.7442093,-3.5098,1.4497,0.6103999999999999,-0.960263655,-0.23522889,-0.11291475
1764510880.7442093,-3.5098,1.4497,0.6103999999999999,-0.960263655,-0.23522889,-0.11291475
1764510880.7442093,-3.5098,1.4497,0.6103999999999999,-0.960263655,-0.23522889,-0.11291475
1764510880.7442093,-3.5098,1.4497,0.6103999999999999,-0.960263655,-0.23522889,-0.11291475
1764510880.7442093,-3.5098,1.4497,0.6103999999999999,-0.960263655,-0.23522889,-0.11291475
1764510880.7442093,-3.5098,1.4497,0.6103999999999999,-0.960263655,-0.23522889,-0.11291475
1764510880.7442093,-3.5098,1.4497,0.6103999999999999,-0.960263655,-0.23522889,-0.11291475
1764510880.7455573,-3.5098,1.4497,0.6103999999999999,-0.960263655,-0.23522889,-0.11291475
1764510880.7455573,-3.5098,1.4497,0.6103999999999999,-0.960263655,-0.23522889,-0.11291475
1764510880.7455573,-4.97476,1.43444,0.8392999999999999,-0.959775375,-0.23474061,-0.11157198
1764510880.7455573,-4.97476,1.43444,0.8392999999999999,-0.959775375,-0.23474061,-0.11157198
1764510880.7921038,-4.97476,1.43444,0.8392999999999999,-0.959775375,-0.23474061,-0.11157198
1764510880.7921038,-4.97476,1.43444,0.8392999999999999,-0.959775375,-0.23474061,-0.11157198
1764510880.7921038,-4.97476,1.43444,0.8392999999999999,-0.959775375,-0.23474061,-0.11157198
1764510880.7921038,-4.97476,1.43444,0.8392999999999999,-0.959775375,-0.23474061,-0.11157198
1764510880.7921038,-4.97476,1.43444,0.8392999999999999,-0.959775375,-0.23474061,-0.11157198
1764510880.7921038,-4.97476,1.43444,0.8392999999999999,-0.959775375,-0.23474061,-0.11157198
1764510880.7921038,-4.97476,1.43444,0.8392999999999999,-0.959775375,-0.23474061,-0.11157198
1764510880.7931132,-4.97476,1.43444,0.8392999999999999,-0.959775375,-0.23474061,-0.11157198
1764510880.7931132,-6.57706,0.74774,0.8087799999999999,-0.96044676,-0.23400819,-0.111999225
1764510880.7931132,-6.57706,0.74774,0.8087799999999999,-0.96044676,-0.23400819,-0.111999225
1764510880.7931132,-6.57706,0.74774,0.8087799999999999,-0.96044676,-0.23400819,-0.111999225
1764510880.7931132,-6.57706,0.74774,0.8087799999999999,-0.96044676,-0.23400819,-0.111999225
1764510880.7931132,-6.57706,0.74774,0.8087799999999999,-0.96044676,-0.23400819,-0.111999225
1764510880.7931132,-6.57706,0.74774,0.8087799999999999,-0.96044676,-0.23400819,-0.111999225
1764510880.7931132,-6.57706,0.74774,0.8087799999999999,-0.96044676,-0.23400819,-0.111999225
1764510880.7931132,-6.57706,0.74774,0.8087799999999999,-0.96044676,-0.23400819,-0.111999225
1764510880.7931132,-6.57706,0.74774,0.8087799999999999,-0.96044676,-0.23400819,-0.111999225
1764510880.7931132,-6.57706,0.74774,0.8087799999999999,-0.96044676,-0.23400819,-0.111999225
1764510880.7931132,-5.05106,1.23606,0.19838,-0.960874005,-0.234679575,-0.11389131
1764510880.7931132,-5.05106,1.23606,0.19838,-0.960874005,-0.234679575,-0.11389131
1764510880.7931132,-5.05106,1.23606,0.19838,-0.960874005,-0.234679575,-0.11389131
1764510880.7931132,-5.05106,1.23606,0.19838,-0.960874005,-0.234679575,-0.11389131
1764510880.7931132,-5.05106,1.23606,0.19838,-0.960874005,-0.234679575,-0.11389131
1764510880.7931132,-5.05106,1.23606,0.19838,-0.960874005,-0.234679575,-0.11389131
1764510880.8371704,-5.05106,1.23606,0.19838,-0.960874005,-0.234679575,-0.11389131
1764510880.8377018,-5.05106,1.23606,0.19838,-0.960874005,-0.234679575,-0.11389131
1764510880.8377018,-5.05106,1.23606,0.19838,-0.960874005,-0.234679575,-0.11389131
1764510880.8377018,-5.05106,1.23606,0.19838,-0.960874005,-0.234679575,-0.11389131
1764510880.8377018,-3.44876,1.35814,-0.13734,-0.960629865,-0.23461854,-0.115050975
1764510880.8377018,-3.44876,1.35814,-0.13734,-0.960629865,-0.23461854,-0.115050975
1764510880.8377018,-3.44876,1.35814,-0.13734,-0.960629865,-0.23461854,-0.115050975
1764510880.8377018,-3.44876,1.35814,-0.13734,-0.960629865,-0.23461854,-0.115050975
1764510880.8377018,-3.44876,1.35814,-0.13734,-0.960629865,-0.23461854,-0.115050975
1764510880.8377018,-3.44876,1.35814,-0.13734,-0.960629865,-0.23461854,-0.115050975
1764510880.8377018,-3.44876,1.35814,-0.13734,-0.960629865,-0.23461854,-0.115050975
1764510880.8377018,-3.44876,1.35814,-0.13734,-0.960629865,-0.23461854,-0.115050975
1764510880.8377018,-3.44876,1.35814,-0.13734,-0.960629865,-0.23461854,-0.115050975
1764510880.8377018,-3.44876,1.35814,-0.13734,-0.960629865,-0.23461854,-0.115050975
1764510880.8377018,-3.23512,1.34288,0.27468,-0.95995848,-0.23474061,-0.11511201
1764510880.8382506,-3.23512,1.34288,0.27468,-0.95995848,-0.23474061,-0.11511201
1764510880.8382506,-3.23512,1.34288,0.27468,-0.95995848,-0.23474061,-0.11511201
1764510880.8382506,-3.23512,1.34288,0.27468,-0.95995848,-0.23474061,-0.11511201
1764510880.8382506,-3.23512,1.34288,0.27468,-0.95995848,-0.23474061,-0.11511201
1764510880.8382506,-3.23512,1.34288,0.27468,-0.95995848,-0.23474061,-0.11511201
1764510880.8382506,-3.23512,1.34288,0.27468,-0.95995848,-0.23474061,-0.11511201
1764510880.8382506,-3.23512,1.34288,0.27468,-0.95995848,-0.23474061,-0.11511201
1764510880.8382506,-3.23512,1.34288,0.27468,-0.95995848,-0.23474061,-0.11511201
1764510880.8382506,-3.23512,1.34288,0.27468,-0.95995848,-0.23474061,-0.11511201
1764510880.8821242,-3.44876,1.46496,0.73248,-0.959165025,-0.23486268,-0.113830275
1764510880.8826356,-3.44876,1.46496,0.73248,-0.959165025,-0.23486268,-0.113830275
1764510880.8826356,-3.44876,1.46496,0.73248,-0.959165025,-0.23486268,-0.113830275
1764510880.8826356,-3.44876,1.46496,0.73248,-0.959165025,-0.23486268,-0.113830275
1764510880.8826356,-3.44876,1.46496,0.73248,-0.959165025,-0.23486268,-0.113830275
1764510880.8826356,-3.44876,1.46496,0.73248,-0.959165025,-0.23486268,-0.113830275
1764510880.8826356,-3.44876,1.46496,0.73248,-0.959165025,-0.23486268,-0.113830275
1764510880.8826356,-3.44876,1.46496,0.73248,-0.959165025,-0.23486268,-0.113830275
1764510880.8826356,-3.44876,1.46496,0.73248,-0.959165025,-0.23486268,-0.113830275
1764510880.8826356,-3.44876,1.46496,0.73248,-0.959165025,-0.23486268,-0.113830275
1764510880.8826356,-4.56274,1.02242,0.6867,-0.95885985,-0.234435435,-0.11376924
1764510880.8826356,-4.56274,1.02242,0.6867,-0.95885985,-0.234435435,-0.11376924
1764510880.8826356,-4.56274,1.02242,0.6867,-0.95885985,-0.234435435,-0.11376924
1764510880.8826356,-4.56274,1.02242,0.6867,-0.95885985,-0.234435435,-0.11376924
1764510880.8826356,-4.56274,1.02242,0.6867,-0.95885985,-0.234435435,-0.11376924
1764510880.8826356,-4.56274,1.02242,0.6867,-0.95885985,-0.234435435,-0.11376924
1764510880.8826356,-4.56274,1.02242,0.6867,-0.95885985,-0.234435435,-0.11376924
1764510880.8826356,-4.56274,1.02242,0.6867,-0.95885985,-0.234435435,-0.11376924
1764510880.8826356,-4.56274,1.02242,0.6867,-0.95885985,-0.234435435,-0.11376924
1764510880.8826356,-4.56274,1.02242,0.6867,-0.95885985,-0.234435435,-0.11376924
1764510880.8826356,-4.60852,0.8698199999999999,0.47306,-0.9594702,-0.23425233,-0.112975785
1764510880.8826356,-4.60852,0.8698199999999999,0.47306,-0.9594702,-0.23425233,-0.112975785
1764510880.9320304,-4.60852,0.8698199999999999,0.47306,-0.9594702,-0.23425233,-0.112975785
1764510880.9320304,-4.60852,0.8698199999999999,0.47306,-0.9594702,-0.23425233,-0.112975785
1764510880.9320304,-4.60852,0.8698199999999999,0.47306,-0.9594702,-0.23425233,-0.112975785
1764510880.9320304,-4.60852,0.8698199999999999,0.47306,-0.9594702,-0.23425233,-0.112975785
1764510880.9320304,-4.60852,0.8698199999999999,0.47306,-0.9594702,-0.23425233,-0.112975785
1764510880.9320304,-4.60852,0.8698199999999999,0.47306,-0.9594702,-0.23425233,-0.112975785
1764510880.9320304,-4.60852,0.8698199999999999,0.47306,-0.9594702,-0.23425233,-0.112975785
1764510880.9320304,-4.60852,0.8698199999999999,0.47306,-0.9594702,-0.23425233,-0.112975785
1764510880.9320304,-4.79164,0.9919,0.25942,-0.96008055,-0.234191295,-0.11267061
1764510880.9320304,-4.79164,0.9919,0.25942,-0.96008055,-0.234191295,-0.11267061
1764510880.9320304,-4.79164,0.9919,0.25942,-0.96008055,-0.234191295,-0.11267061
1764510880.9320304,-4.79164,0.9919,0.25942,-0.96008055,-0.234191295,-0.11267061
1764510880.9320304,-4.79164,0.9919,0.25942,-0.96008055,-0.234191295,-0.11267061
1764510880.9320304,-4.79164,0.9919,0.25942,-0.96008055,-0.234191295,-0.11267061
1764510880.9320304,-4.79164,0.9919,0.25942,-0.96008055,-0.234191295,-0.11267061
1764510880.9320304,-4.79164,0.9919,0.25942,-0.96008055,-0.234191295,-0.11267061
1764510880.9320304,-4.79164,0.9919,0.25942,-0.96008055,-0.234191295,-0.11267061
1764510880.9320304,-4.79164,0.9919,0.25942,-0.96008055,-0.234191295,-0.11267061
1764510880.933028,-4.22702,1.35814,0.06104,-0.9606909,-0.235045785,-0.112731645
1764510880.933028,-4.22702,1.35814,0.06104,-0.9606909,-0.235045785,-0.112731645
1764510880.933028,-4.22702,1.35814,0.06104,-0.9606909,-0.235045785,-0.112731645
1764510880.933028,-4.22702,1.35814,0.06104,-0.9606909,-0.235045785,-0.112731645
1764510880.933028,-4.22702,1.35814,0.06104,-0.9606909,-0.235045785,-0.112731645
1764510880.933028,-4.22702,1.35814,0.06104,-0.9606909,-0.235045785,-0.112731645
1764510880.9780262,-4.22702,1.35814,0.06104,-0.9606909,-0.235045785,-0.112731645
1764510880.9780262,-4.22702,1.35814,0.06104,-0.9606909,-0.235045785,-0.112731645
1764510880.9780262,-4.22702,1.35814,0.06104,-0.9606909,-0.235045785,-0.112731645
1764510880.9780262,-4.22702,1.35814,0.06104,-0.9606909,-0.235045785,-0.112731645
1764510880.9780262,-4.07442,1.7549,-0.6409199999999999,-0.960385725,-0.23498475,-0.11303682
1764510880.9780262,-4.07442,1.7549,-0.6409199999999999,-0.960385725,-0.23498475,-0.11303682
1764510880.9780262,-4.07442,1.7549,-0.6409199999999999,-0.960385725,-0.23498475,-0.11303682
1764510880.9780262,-4.07442,1.7549,-0.6409199999999999,-0.960385725,-0.23498475,-0.11303682
1764510880.9780262,-4.07442,1.7549,-0.6409199999999999,-0.960385725,-0.23498475,-0.11303682
1764510880.9780262,-4.07442,1.7549,-0.6409199999999999,-0.960385725,-0.23498475,-0.11303682
1764510880.9780262,-4.07442,1.7549,-0.6409199999999999,-0.960385725,-0.23498475,-0.11303682
1764510880.9780262,-4.07442,1.7549,-0.6409199999999999,-0.960385725,-0.23498475,-0.11303682
1764510880.9780262,-4.07442,1.7549,-0.6409199999999999,-0.960385725,-0.23498475,-0.11303682
1764510880.9780262,-4.07442,1.7549,-0.6409199999999999,-0.960385725,-0.23498475,-0.11303682
1764510880.9780262,-3.78448,1.81594,-0.50358,-0.960141585,-0.23498475,-0.11340303
1764510880.9780262,-3.78448,1.81594,-0.50358,-0.960141585,-0.23498475,-0.11340303
1764510880.9780262,-3.78448,1.81594,-0.50358,-0.960141585,-0.23498475,-0.11340303
1764510880.9780262,-3.78448,1.81594,-0.50358,-0.960141585,-0.23498475,-0.11340303
1764510880.9780262,-3.78448,1.81594,-0.50358,-0.960141585,-0.23498475,-0.11340303
1764510880.9780262,-3.78448,1.81594,-0.50358,-0.960141585,-0.23498475,-0.11340303
1764510880.9780262,-3.78448,1.81594,-0.50358,-0.960141585,-0.23498475,-0.11340303
1764510880.9780262,-3.78448,1.81594,-0.50358,-0.960141585,-0.23498475,-0.11340303
1764510880.9780262,-3.78448,1.81594,-0.50358,-0.960141585,-0.23498475,-0.11340303
1764510880.9780262,-3.78448,1.81594,-0.50358,-0.960141585,-0.23498475,-0.11340303
1764510881.0274932,-3.79974,1.05294,-0.01526,-0.95959227,-0.234435435,-0.113464065
1764510881.0274932,-3.79974,1.05294,-0.01526,-0.95959227,-0.234435435,-0.113464065
1764510881.0274932,-3.79974,1.05294,-0.01526,-0.95959227,-0.234435435,-0.113464065
1764510881.0274932,-3.79974,1.05294,-0.01526,-0.95959227,-0.234435435,-0.113464065
1764510881.0274932,-3.79974,1.05294,-0.01526,-0.95959227,-0.234435435,-0.113464065
1764510881.0274932,-3.79974,1.05294,-0.01526,-0.95959227,-0.234435435,-0.113464065
1764510881.0274932,-3.79974,1.05294,-0.01526,-0.95959227,-0.234435435,-0.113464065
1764510881.0274932,-3.79974,1.05294,-0.01526,-0.95959227,-0.234435435,-0.113464065
1764510881.0274932,-3.79974,1.05294,-0.01526,-0.95959227,-0.234435435,-0.113464065
1764510881.0274932,-3.79974,1.05294,-0.01526,-0.95959227,-0.234435435,-0.113464065
1764510881.0274932,-3.31142,1.48022,-0.56462,-0.959897445,-0.235534065,-0.113219925
1764510881.0274932,-3.31142,1.48022,-0.56462,-0.959897445,-0.235534065,-0.113219925
1764510881.0274932,-3.31142,1.48022,-0.56462,-0.959897445,-0.235534065,-0.113219925
1764510881.0274932,-3.31142,1.48022,-0.56462,-0.959897445,-0.235534065,-0.113219925
1764510881.0274932,-3.31142,1.48022,-0.56462,-0.959897445,-0.235534065,-0.113219925
1764510881.0274932,-3.31142,1.48022,-0.56462,-0.959897445,-0.235534065,-0.113219925
1764510881.0274932,-3.31142,1.48022,-0.56462,-0.959897445,-0.235534065,-0.113219925
1764510881.0274932,-3.31142,1.48022,-0.56462,-0.959897445,-0.235534065,-0.113219925
1764510881.0274932,-3.31142,1.48022,-0.56462,-0.959897445,-0.235534065,-0.113219925
1764510881.0274932,-3.31142,1.48022,-0.56462,-0.959897445,-0.235534065,-0.113219925
1764510881.0274932,-4.77638,0.94612,-0.36624,-0.959531235,-0.235289925,-0.112487505
1764510881.0274932,-4.77638,0.94612,-0.36624,-0.959531235,-0.235289925,-0.112487505
1764510881.0730162,-4.77638,0.94612,-0.36624,-0.959531235,-0.235289925,-0.112487505
1764510881.0730162,-4.77638,0.94612,-0.36624,-0.959531235,-0.235289925,-0.112487505
1764510881.0730162,-4.77638,0.94612,-0.36624,-0.959531235,-0.235289925,-0.112487505
1764510881.0730162,-4.77638,0.94612,-0.36624,-0.959531235,-0.235289925,-0.112487505
1764510881.0730162,-4.77638,0.94612,-0.36624,-0.959531235,-0.235289925,-0.112487505
1764510881.0730162,-4.77638,0.94612,-0.36624,-0.959531235,-0.235289925,-0.112487505
1764510881.0730162,-4.77638,0.94612,-0.36624,-0.959531235,-0.235289925,-0.112487505
1764510881.073999,-4.77638,0.94612,-0.36624,-0.959531235,-0.235289925,-0.112487505
1764510881.073999,-6.2566,1.51074,-0.2289,-0.96044676,-0.23522889,-0.111877155
1764510881.073999,-6.2566,1.51074,-0.2289,-0.96044676,-0.23522889,-0.111877155
1764510881.073999,-6.2566,1.51074,-0.2289,-0.96044676,-0.23522889,-0.111877155
1764510881.073999,-6.2566,1.51074,-0.2289,-0.96044676,-0.23522889,-0.111877155
1764510881.073999,-6.2566,1.51074,-0.2289,-0.96044676,-0.23522889,-0.111877155
1764510881.073999,-6.2566,1.51074,-0.2289,-0.96044676,-0.23522889,-0.111877155
1764510881.073999,-6.2566,1.51074,-0.2289,-0.96044676,-0.23522889,-0.111877155
1764510881.073999,-6.2566,1.51074,-0.2289,-0.96044676,-0.23522889,-0.111877155
1764510881.073999,-6.2566,1.51074,-0.2289,-0.96044676,-0.23522889,-0.111877155
1764510881.073999,-6.2566,1.51074,-0.2289,-0.96044676,-0.23522889,-0.111877155
1764510881.073999,-6.302379999999999,1.12924,-1.09872,-0.95995848,-0.235411995,-0.11267061
1764510881.073999,-6.302379999999999,1.12924,-1.09872,-0.95995848,-0.235411995,-0.11267061
1764510881.073999,-6.302379999999999,1.12924,-1.09872,-0.95995848,-0.235411995,-0.11267061
1764510881.073999,-6.302379999999999,1.12924,-1.09872,-0.95995848,-0.235411995,-0.11267061
1764510881.073999,-6.302379999999999,1.12924,-1.09872,-0.95995848,-0.235411995,-0.11267061
1764510881.074506,-6.302379999999999,1.12924,-1.09872,-0.95995848,-0.235411995,-0.11267061
1764510881.11798,-6.302379999999999,1.12924,-1.09872,-0.95995848,-0.235411995,-0.11267061
1764510881.118628,-6.302379999999999,1.12924,-1.09872,-0.95995848,-0.235411995,-0.11267061
1764510881.118628,-6.302379999999999,1.12924,-1.09872,-0.95995848,-0.235411995,-0.11267061
1764510881.118628,-6.302379999999999,1.12924,-1.09872,-0.95995848,-0.235411995,-0.11267061
1764510881.118628,-4.76112,1.81594,-1.69386,-0.95971434,-0.23620545,-0.114318555
1764510881.118628,-4.76112,1.81594,-1.69386,-0.95971434,-0.23620545,-0.114318555
1764510881.118628,-4.76112,1.81594,-1.69386,-0.95971434,-0.23620545,-0.114318555
1764510881.118628,-4.76112,1.81594,-1.69386,-0.95971434,-0.23620545,-0.114318555
1764510881.119627,-4.76112,1.81594,-1.69386,-0.95971434,-0.23620545,-0.114318555
1764510881.119627,-4.76112,1.81594,-1.69386,-0.95971434,-0.23620545,-0.114318555
1764510881.119627,-4.76112,1.81594,-1.69386,-0.95971434,-0.23620545,-0.114318555
1764510881.119627,-4.76112,1.81594,-1.69386,-0.95971434,-0.23620545,-0.114318555
1764510881.119627,-4.76112,1.81594,-1.69386,-0.95971434,-0.23620545,-0.114318555
1764510881.119627,-4.76112,1.81594,-1.69386,-0.95971434,-0.23620545,-0.114318555
1764510881.119627,-3.87604,2.15166,-1.77016,-0.958798815,-0.236632695,-0.11584443
1764510881.119627,-3.87604,2.15166,-1.77016,-0.958798815,-0.236632695,-0.11584443
1764510881.119627,-3.87604,2.15166,-1.77016,-0.958798815,-0.236632695,-0.11584443
1764510881.119627,-3.87604,2.15166,-1.77016,-0.958798815,-0.236632695,-0.11584443
1764510881.1211343,-3.87604,2.15166,-1.77016,-0.958798815,-0.236632695,-0.11584443
1764510881.1211343,-3.87604,2.15166,-1.77016,-0.958798815,-0.236632695,-0.11584443
1764510881.1211343,-3.87604,2.15166,-1.77016,-0.958798815,-0.236632695,-0.11584443
1764510881.1211343,-3.87604,2.15166,-1.77016,-0.958798815,-0.236632695,-0.11584443
1764510881.1211343,-3.87604,2.15166,-1.77016,-0.958798815,-0.236632695,-0.11584443
1764510881.1211343,-3.87604,2.15166,-1.77016,-0.958798815,-0.236632695,-0.11584443
1764510881.16657,-3.9676,1.92276,-0.74774,-0.9582495,-0.236754765,-0.11511201
1764510881.16657,-3.9676,1.92276,-0.74774,-0.9582495,-0.236754765,-0.11511201
1764510881.16657,-3.9676,1.92276,-0.74774,-0.9582495,-0.236754765,-0.11511201
1764510881.16657,-3.9676,1.92276,-0.74774,-0.9582495,-0.236754765,-0.11511201
1764510881.16657,-3.9676,1.92276,-0.74774,-0.9582495,-0.236754765,-0.11511201
1764510881.16657,-3.9676,1.92276,-0.74774,-0.9582495,-0.236754765,-0.11511201
1764510881.16657,-3.9676,1.92276,-0.74774,-0.9582495,-0.236754765,-0.11511201
1764510881.16657,-3.9676,1.92276,-0.74774,-0.9582495,-0.236754765,-0.11511201
1764510881.16657,-3.9676,1.92276,-0.74774,-0.9582495,-0.236754765,-0.11511201
1764510881.16657,-3.9676,1.92276,-0.74774,-0.9582495,-0.236754765,-0.11511201
1764510881.16657,-5.7988,1.69386,0.12208,-0.95849364,-0.236022345,-0.11315889
1764510881.16657,-5.7988,1.69386,0.12208,-0.95849364,-0.236022345,-0.11315889
1764510881.167565,-5.7988,1.69386,0.12208,-0.95849364,-0.236022345,-0.11315889
1764510881.167565,-5.7988,1.69386,0.12208,-0.95849364,-0.236022345,-0.11315889
1764510881.167565,-5.7988,1.69386,0.12208,-0.95849364,-0.236022345,-0.11315889
1764510881.167565,-5.7988,1.69386,0.12208,-0.95849364,-0.236022345,-0.11315889
1764510881.167565,-5.7988,1.69386,0.12208,-0.95849364,-0.236022345,-0.11315889
1764510881.167565,-5.7988,1.69386,0.12208,-0.95849364,-0.236022345,-0.11315889
1764510881.167565,-5.7988,1.69386,0.12208,-0.95849364,-0.236022345,-0.11315889
1764510881.167565,-5.7988,1.69386,0.12208,-0.95849364,-0.236022345,-0.11315889
1764510881.167565,-6.98908,0.96138,0.09156,-0.95910399,-0.23583924,-0.11254854
1764510881.167565,-6.98908,0.96138,0.09156,-0.95910399,-0.23583924,-0.11254854
1764510881.2101753,-6.98908,0.96138,0.09156,-0.95910399,-0.23583924,-0.11254854
1764510881.2101753,-6.98908,0.96138,0.09156,-0.95910399,-0.23583924,-0.11254854
1764510881.2101753,-6.98908,0.96138,0.09156,-0.95910399,-0.23583924,-0.11254854
1764510881.2101753,-6.98908,0.96138,0.09156,-0.95910399,-0.23583924,-0.11254854
1764510881.211198,-6.98908,0.96138,0.09156,-0.95910399,-0.23583924,-0.11254854
1764510881.211198,-6.98908,0.96138,0.09156,-0.95910399,-0.23583924,-0.11254854
1764510881.211198,-6.98908,0.96138,0.09156,-0.95910399,-0.23583924,-0.11254854
1764510881.211198,-6.98908,0.96138,0.09156,-0.95910399,-0.23583924,-0.11254854
1764510881.211198,-7.08064,0.9003399999999999,0.04578,-0.95910399,-0.236388555,-0.1135251
1764510881.211198,-7.08064,0.9003399999999999,0.04578,-0.95910399,-0.236388555,-0.1135251
1764510881.211198,-7.08064,0.9003399999999999,0.04578,-0.95910399,-0.236388555,-0.1135251
1764510881.211198,-7.08064,0.9003399999999999,0.04578,-0.95910399,-0.236388555,-0.1135251
1764510881.211198,-7.08064,0.9003399999999999,0.04578,-0.95910399,-0.236388555,-0.1135251
1764510881.211198,-7.08064,0.9003399999999999,0.04578,-0.95910399,-0.236388555,-0.1135251
1764510881.211198,-7.08064,0.9003399999999999,0.04578,-0.95910399,-0.236388555,-0.1135251
1764510881.211198,-7.08064,0.9003399999999999,0.04578,-0.95910399,-0.236388555,-0.1135251
1764510881.2127163,-7.08064,0.9003399999999999,0.04578,-0.95910399,-0.236388555,-0.1135251
1764510881.2142308,-7.08064,0.9003399999999999,0.04578,-0.95910399,-0.236388555,-0.1135251
1764510881.2142308,-5.93614,1.12924,-0.01526,-0.959165025,-0.23705994,-0.11450166
1764510881.2142308,-5.93614,1.12924,-0.01526,-0.959165025,-0.23705994,-0.11450166
1764510881.2142308,-5.93614,1.12924,-0.01526,-0.959165025,-0.23705994,-0.11450166
1764510881.2142308,-5.93614,1.12924,-0.01526,-0.959165025,-0.23705994,-0.11450166
1764510881.2142308,-5.93614,1.12924,-0.01526,-0.959165025,-0.23705994,-0.11450166
1764510881.2142308,-5.93614,1.12924,-0.01526,-0.959165025,-0.23705994,-0.11450166
1764510881.2582834,-5.93614,1.12924,-0.01526,-0.959165025,-0.23705994,-0.11450166
1764510881.2588348,-5.93614,1.12924,-0.01526,-0.959165025,-0.23705994,-0.11450166
1764510881.2588348,-5.93614,1.12924,-0.01526,-0.959165025,-0.23705994,-0.11450166
1764510881.2588348,-5.93614,1.12924,-0.01526,-0.959165025,-0.23705994,-0.11450166
1764510881.2588348,-5.76828,1.4497,0.06104,-0.959287095,-0.237120975,-0.114684765
1764510881.2588348,-5.76828,1.4497,0.06104,-0.959287095,-0.237120975,-0.114684765
1764510881.2588348,-5.76828,1.4497,0.06104,-0.959287095,-0.237120975,-0.114684765
1764510881.2588348,-5.76828,1.4497,0.06104,-0.959287095,-0.237120975,-0.114684765
1764510881.2588348,-5.76828,1.4497,0.06104,-0.959287095,-0.237120975,-0.114684765
1764510881.2588348,-5.76828,1.4497,0.06104,-0.959287095,-0.237120975,-0.114684765
1764510881.2588348,-5.76828,1.4497,0.06104,-0.959287095,-0.237120975,-0.114684765
1764510881.2588348,-5.76828,1.4497,0.06104,-0.959287095,-0.237120975,-0.114684765
1764510881.2588348,-5.76828,1.4497,0.06104,-0.959287095,-0.237120975,-0.114684765
1764510881.2588348,-5.76828,1.4497,0.06104,-0.959287095,-0.237120975,-0.114684765
1764510881.2588348,-6.271859999999999,1.4497,-0.12208,-0.9594702,-0.236876835,-0.114928905
1764510881.2588348,-6.271859999999999,1.4497,-0.12208,-0.9594702,-0.236876835,-0.114928905
1764510881.2588348,-6.271859999999999,1.4497,-0.12208,-0.9594702,-0.236876835,-0.114928905
1764510881.2588348,-6.271859999999999,1.4497,-0.12208,-0.9594702,-0.236876835,-0.114928905
1764510881.2588348,-6.271859999999999,1.4497,-0.12208,-0.9594702,-0.236876835,-0.114928905
1764510881.2588348,-6.271859999999999,1.4497,-0.12208,-0.9594702,-0.236876835,-0.114928905
1764510881.2588348,-6.271859999999999,1.4497,-0.12208,-0.9594702,-0.236876835,-0.114928905
1764510881.2588348,-6.271859999999999,1.4497,-0.12208,-0.9594702,-0.236876835,-0.114928905
1764510881.2588348,-6.271859999999999,1.4497,-0.12208,-0.9594702,-0.236876835,-0.114928905
1764510881.2588348,-6.271859999999999,1.4497,-0.12208,-0.9594702,-0.236876835,-0.114928905
1764510881.303408,-6.50076,1.70912,-0.47306,-0.95959227,-0.236876835,-0.11535615
1764510881.303408,-6.50076,1.70912,-0.47306,-0.95959227,-0.236876835,-0.11535615
1764510881.303408,-6.50076,1.70912,-0.47306,-0.95959227,-0.236876835,-0.11535615
1764510881.303408,-6.50076,1.70912,-0.47306,-0.95959227,-0.236876835,-0.11535615
1764510881.303408,-6.50076,1.70912,-0.47306,-0.95959227,-0.236876835,-0.11535615
1764510881.303408,-6.50076,1.70912,-0.47306,-0.95959227,-0.236876835,-0.11535615
1764510881.303408,-6.50076,1.70912,-0.47306,-0.95959227,-0.236876835,-0.11535615
1764510881.303408,-6.50076,1.70912,-0.47306,-0.95959227,-0.236876835,-0.11535615
1764510881.303408,-6.50076,1.70912,-0.47306,-0.95959227,-0.236876835,-0.11535615
1764510881.303408,-6.50076,1.70912,-0.47306,-0.95959227,-0.236876835,-0.11535615
1764510881.303408,-5.508859999999999,1.54126,0.0762999999999999,-0.958798815,-0.23730408,-0.115905465
1764510881.303408,-5.508859999999999,1.54126,0.0762999999999999,-0.958798815,-0.23730408,-0.115905465
1764510881.303408,-5.508859999999999,1.54126,0.0762999999999999,-0.958798815,-0.23730408,-0.115905465
1764510881.3039386,-5.508859999999999,1.54126,0.0762999999999999,-0.958798815,-0.23730408,-0.115905465
1764510881.3039386,-5.508859999999999,1.54126,0.0762999999999999,-0.958798815,-0.23730408,-0.115905465
1764510881.3039386,-5.508859999999999,1.54126,0.0762999999999999,-0.958798815,-0.23730408,-0.115905465
1764510881.3039386,-5.508859999999999,1.54126,0.0762999999999999,-0.958798815,-0.23730408,-0.115905465
1764510881.3039386,-5.508859999999999,1.54126,0.0762999999999999,-0.958798815,-0.23730408,-0.115905465
1764510881.3039386,-5.508859999999999,1.54126,0.0762999999999999,-0.958798815,-0.23730408,-0.115905465
1764510881.3039386,-5.508859999999999,1.54126,0.0762999999999999,-0.958798815,-0.23730408,-0.115905465
1764510881.3039386,-5.2647,1.6022999999999998,0.3204599999999999,-0.95885985,-0.2380365,-0.116759955
1764510881.3039386,-5.2647,1.6022999999999998,0.3204599999999999,-0.95885985,-0.2380365,-0.116759955
1764510881.351941,-5.2647,1.6022999999999998,0.3204599999999999,-0.95885985,-0.2380365,-0.116759955
1764510881.351941,-5.2647,1.6022999999999998,0.3204599999999999,-0.95885985,-0.2380365,-0.116759955
1764510881.351941,-5.2647,1.6022999999999998,0.3204599999999999,-0.95885985,-0.2380365,-0.116759955
1764510881.351941,-5.2647,1.6022999999999998,0.3204599999999999,-0.95885985,-0.2380365,-0.116759955
1764510881.351941,-5.2647,1.6022999999999998,0.3204599999999999,-0.95885985,-0.2380365,-0.116759955
1764510881.351941,-5.2647,1.6022999999999998,0.3204599999999999,-0.95885985,-0.2380365,-0.116759955
1764510881.351941,-5.2647,1.6022999999999998,0.3204599999999999,-0.95885985,-0.2380365,-0.116759955
1764510881.351941,-5.2647,1.6022999999999998,0.3204599999999999,-0.95885985,-0.2380365,-0.116759955
1764510881.351941,-5.17314,1.19028,0.56462,-0.95910399,-0.237487185,-0.11621064
1764510881.351941,-5.17314,1.19028,0.56462,-0.95910399,-0.237487185,-0.11621064
1764510881.351941,-5.17314,1.19028,0.56462,-0.95910399,-0.237487185,-0.11621064
1764510881.351941,-5.17314,1.19028,0.56462,-0.95910399,-0.237487185,-0.11621064
1764510881.351941,-5.17314,1.19028,0.56462,-0.95910399,-0.237487185,-0.11621064
1764510881.351941,-5.17314,1.19028,0.56462,-0.95910399,-0.237487185,-0.11621064
1764510881.351941,-5.17314,1.19028,0.56462,-0.95910399,-0.237487185,-0.11621064
1764510881.351941,-5.17314,1.19028,0.56462,-0.95910399,-0.237487185,-0.11621064
1764510881.351941,-5.17314,1.19028,0.56462,-0.95910399,-0.237487185,-0.11621064
1764510881.3529422,-5.17314,1.19028,0.56462,-0.95910399,-0.237487185,-0.11621064
1764510881.3529422,-5.340999999999999,1.63282,0.3815,-0.95873778,-0.237243045,-0.11547822
1764510881.3529422,-5.340999999999999,1.63282,0.3815,-0.95873778,-0.237243045,-0.11547822
1764510881.3529422,-5.340999999999999,1.63282,0.3815,-0.95873778,-0.237243045,-0.11547822
1764510881.3529422,-5.340999999999999,1.63282,0.3815,-0.95873778,-0.237243045,-0.11547822
1764510881.3529422,-5.340999999999999,1.63282,0.3815,-0.95873778,-0.237243045,-0.11547822
1764510881.3529422,-5.340999999999999,1.63282,0.3815,-0.95873778,-0.237243045,-0.11547822
1764510881.396742,-5.340999999999999,1.63282,0.3815,-0.95873778,-0.237243045,-0.11547822
1764510881.396742,-5.340999999999999,1.63282,0.3815,-0.95873778,-0.237243045,-0.11547822
1764510881.396742,-5.340999999999999,1.63282,0.3815,-0.95873778,-0.237243045,-0.11547822
1764510881.396742,-5.340999999999999,1.63282,0.3815,-0.95873778,-0.237243045,-0.11547822
1764510881.396742,-5.66146,1.77016,0.24416,-0.958798815,-0.237975465,-0.115539255
1764510881.396742,-5.66146,1.77016,0.24416,-0.958798815,-0.237975465,-0.115539255
1764510881.396742,-5.66146,1.77016,0.24416,-0.958798815,-0.237975465,-0.115539255
1764510881.396742,-5.66146,1.77016,0.24416,-0.958798815,-0.237975465,-0.115539255
1764510881.396742,-5.66146,1.77016,0.24416,-0.958798815,-0.237975465,-0.115539255
1764510881.396742,-5.66146,1.77016,0.24416,-0.958798815,-0.237975465,-0.115539255
1764510881.396742,-5.66146,1.77016,0.24416,-0.958798815,-0.237975465,-0.115539255
1764510881.396742,-5.66146,1.77016,0.24416,-0.958798815,-0.237975465,-0.115539255
1764510881.3986936,-5.66146,1.77016,0.24416,-0.958798815,-0.237975465,-0.115539255
1764510881.3986936,-5.66146,1.77016,0.24416,-0.958798815,-0.237975465,-0.115539255
1764510881.3997068,-5.21892,1.64808,0.2289,-0.959409165,-0.23767029,-0.115295115
1764510881.3997068,-5.21892,1.64808,0.2289,-0.959409165,-0.23767029,-0.115295115
1764510881.3997068,-5.21892,1.64808,0.2289,-0.959409165,-0.23767029,-0.115295115
1764510881.3997068,-5.21892,1.64808,0.2289,-0.959409165,-0.23767029,-0.115295115
1764510881.3997068,-5.21892,1.64808,0.2289,-0.959409165,-0.23767029,-0.115295115
1764510881.3997068,-5.21892,1.64808,0.2289,-0.959409165,-0.23767029,-0.115295115
1764510881.3997068,-5.21892,1.64808,0.2289,-0.959409165,-0.23767029,-0.115295115
1764510881.3997068,-5.21892,1.64808,0.2289,-0.959409165,-0.23767029,-0.115295115
1764510881.3997068,-5.21892,1.64808,0.2289,-0.959409165,-0.23767029,-0.115295115
1764510881.3997068,-5.21892,1.64808,0.2289,-0.959409165,-0.23767029,-0.115295115
1764510881.4460006,-5.43256,1.34288,0.06104,-0.95922606,-0.23767029,-0.114806835
1764510881.4460006,-5.43256,1.34288,0.06104,-0.95922606,-0.23767029,-0.114806835
1764510881.4460006,-5.43256,1.34288,0.06104,-0.95922606,-0.23767029,-0.114806835
1764510881.4460006,-5.43256,1.34288,0.06104,-0.95922606,-0.23767029,-0.114806835
1764510881.4460006,-5.43256,1.34288,0.06104,-0.95922606,-0.23767029,-0.114806835
1764510881.4460006,-5.43256,1.34288,0.06104,-0.95922606,-0.23767029,-0.114806835
1764510881.4460006,-5.43256,1.34288,0.06104,-0.95922606,-0.23767029,-0.114806835
1764510881.4460006,-5.43256,1.34288,0.06104,-0.95922606,-0.23767029,-0.114806835
1764510881.4460006,-5.43256,1.34288,0.06104,-0.95922606,-0.23767029,-0.114806835
1764510881.4460006,-5.43256,1.34288,0.06104,-0.95922606,-0.23767029,-0.114806835
1764510881.4460006,-5.82932,1.49548,-0.19838,-0.959287095,-0.237731325,-0.115050975
1764510881.4460006,-5.82932,1.49548,-0.19838,-0.959287095,-0.237731325,-0.115050975
1764510881.4460006,-5.82932,1.49548,-0.19838,-0.959287095,-0.237731325,-0.115050975
1764510881.4460006,-5.82932,1.49548,-0.19838,-0.959287095,-0.237731325,-0.115050975
1764510881.4460006,-5.82932,1.49548,-0.19838,-0.959287095,-0.237731325,-0.115050975
1764510881.4460006,-5.82932,1.49548,-0.19838,-0.959287095,-0.237731325,-0.115050975
1764510881.4460006,-5.82932,1.49548,-0.19838,-0.959287095,-0.237731325,-0.115050975
1764510881.4460006,-5.82932,1.49548,-0.19838,-0.959287095,-0.237731325,-0.115050975
1764510881.4470165,-5.82932,1.49548,-0.19838,-0.959287095,-0.237731325,-0.115050975
1764510881.4470165,-5.82932,1.49548,-0.19838,-0.959287095,-0.237731325,-0.115050975
1764510881.4470165,-6.01244,1.69386,-0.1678599999999999,-0.959653305,-0.23742615,-0.11535615
1764510881.4470165,-6.01244,1.69386,-0.1678599999999999,-0.959653305,-0.23742615,-0.11535615
1764510881.4470165,-6.01244,1.69386,-0.1678599999999999,-0.959653305,-0.23742615,-0.11535615
1764510881.4470165,-6.01244,1.69386,-0.1678599999999999,-0.959653305,-0.23742615,-0.11535615
1764510881.4948766,-6.01244,1.69386,-0.1678599999999999,-0.959653305,-0.23742615,-0.11535615
1764510881.4948766,-6.01244,1.69386,-0.1678599999999999,-0.959653305,-0.23742615,-0.11535615
1764510881.4948766,-6.01244,1.69386,-0.1678599999999999,-0.959653305,-0.23742615,-0.11535615
1764510881.4948766,-6.01244,1.69386,-0.1678599999999999,-0.959653305,-0.23742615,-0.11535615
1764510881.4948766,-6.01244,1.69386,-0.1678599999999999,-0.959653305,-0.23742615,-0.11535615
1764510881.4948766,-6.01244,1.69386,-0.1678599999999999,-0.959653305,-0.23742615,-0.11535615
1764510881.4948766,-6.14978,1.58704,-0.1678599999999999,-0.959653305,-0.236754765,-0.115417185
1764510881.4948766,-6.14978,1.58704,-0.1678599999999999,-0.959653305,-0.236754765,-0.115417185
1764510881.4948766,-6.14978,1.58704,-0.1678599999999999,-0.959653305,-0.236754765,-0.115417185
1764510881.4948766,-6.14978,1.58704,-0.1678599999999999,-0.959653305,-0.236754765,-0.115417185
1764510881.4948766,-6.14978,1.58704,-0.1678599999999999,-0.959653305,-0.236754765,-0.115417185
1764510881.4948766,-6.14978,1.58704,-0.1678599999999999,-0.959653305,-0.236754765,-0.115417185
1764510881.4948766,-6.14978,1.58704,-0.1678599999999999,-0.959653305,-0.236754765,-0.115417185
1764510881.4948766,-6.14978,1.58704,-0.1678599999999999,-0.959653305,-0.236754765,-0.115417185
1764510881.4948766,-6.14978,1.58704,-0.1678599999999999,-0.959653305,-0.236754765,-0.115417185
1764510881.4948766,-6.14978,1.58704,-0.1678599999999999,-0.959653305,-0.236754765,-0.115417185
1764510881.4948766,-5.1121,1.28184,0.36624,-0.95910399,-0.237853395,-0.116149605
1764510881.4948766,-5.1121,1.28184,0.36624,-0.95910399,-0.237853395,-0.116149605
1764510881.4948766,-5.1121,1.28184,0.36624,-0.95910399,-0.237853395,-0.116149605
1764510881.4948766,-5.1121,1.28184,0.36624,-0.95910399,-0.237853395,-0.116149605
1764510881.4948766,-5.1121,1.28184,0.36624,-0.95910399,-0.237853395,-0.116149605
1764510881.4948766,-5.1121,1.28184,0.36624,-0.95910399,-0.237853395,-0.116149605
1764510881.4948766,-5.1121,1.28184,0.36624,-0.95910399,-0.237853395,-0.116149605
1764510881.4948766,-5.1121,1.28184,0.36624,-0.95910399,-0.237853395,-0.116149605
1764510881.5429373,-5.1121,1.28184,0.36624,-0.95910399,-0.237853395,-0.116149605
1764510881.5429373,-5.1121,1.28184,0.36624,-0.95910399,-0.237853395,-0.116149605
1764510881.5429373,-4.8069,1.43444,0.24416,-0.95910399,-0.2368158,-0.116515815
1764510881.5445738,-4.8069,1.43444,0.24416,-0.95910399,-0.2368158,-0.116515815
1764510881.5445738,-4.8069,1.43444,0.24416,-0.95910399,-0.2368158,-0.116515815
1764510881.5445738,-4.8069,1.43444,0.24416,-0.95910399,-0.2368158,-0.116515815
1764510881.5445738,-4.8069,1.43444,0.24416,-0.95910399,-0.2368158,-0.116515815
1764510881.545585,-4.8069,1.43444,0.24416,-0.95910399,-0.2368158,-0.116515815
1764510881.545585,-4.8069,1.43444,0.24416,-0.95910399,-0.2368158,-0.116515815
1764510881.545585,-4.8069,1.43444,0.24416,-0.95910399,-0.2368158,-0.116515815
1764510881.545585,-4.8069,1.43444,0.24416,-0.95910399,-0.2368158,-0.116515815
1764510881.545585,-4.8069,1.43444,0.24416,-0.95910399,-0.2368158,-0.116515815
1764510881.545585,-5.44782,1.55652,-0.6103999999999999,-0.95959227,-0.23730408,-0.116637885
1764510881.545585,-5.44782,1.55652,-0.6103999999999999,-0.95959227,-0.23730408,-0.116637885
1764510881.545585,-5.44782,1.55652,-0.6103999999999999,-0.95959227,-0.23730408,-0.116637885
1764510881.545585,-5.44782,1.55652,-0.6103999999999999,-0.95959227,-0.23730408,-0.116637885
1764510881.545585,-5.44782,1.55652,-0.6103999999999999,-0.95959227,-0.23730408,-0.116637885
1764510881.545585,-5.44782,1.55652,-0.6103999999999999,-0.95959227,-0.23730408,-0.116637885
1764510881.545585,-5.44782,1.55652,-0.6103999999999999,-0.95959227,-0.23730408,-0.116637885
1764510881.545585,-5.44782,1.55652,-0.6103999999999999,-0.95959227,-0.23730408,-0.116637885
1764510881.545585,-5.44782,1.55652,-0.6103999999999999,-0.95959227,-0.23730408,-0.116637885
1764510881.545585,-5.44782,1.55652,-0.6103999999999999,-0.95959227,-0.23730408,-0.116637885
1764510881.545585,-4.91372,1.28184,0.18312,-0.95934813,-0.238097535,-0.117004095
1764510881.545585,-4.91372,1.28184,0.18312,-0.95934813,-0.238097535,-0.117004095
1764510881.5862236,-4.91372,1.28184,0.18312,-0.95934813,-0.238097535,-0.117004095
1764510881.5862236,-4.91372,1.28184,0.18312,-0.95934813,-0.238097535,-0.117004095
1764510881.5862236,-4.91372,1.28184,0.18312,-0.95934813,-0.238097535,-0.117004095
1764510881.5862236,-4.91372,1.28184,0.18312,-0.95934813,-0.238097535,-0.117004095
1764510881.5862236,-4.91372,1.28184,0.18312,-0.95934813,-0.238097535,-0.117004095
1764510881.5862236,-4.91372,1.28184,0.18312,-0.95934813,-0.238097535,-0.117004095
1764510881.5862236,-4.91372,1.28184,0.18312,-0.95934813,-0.238097535,-0.117004095
1764510881.5862236,-4.91372,1.28184,0.18312,-0.95934813,-0.238097535,-0.117004095
1764510881.5862236,-4.10494,1.43444,0.85456,-0.958310535,-0.23876892,-0.1159665
1764510881.5862236,-4.10494,1.43444,0.85456,-0.958310535,-0.23876892,-0.1159665
1764510881.5862236,-4.10494,1.43444,0.85456,-0.958310535,-0.23876892,-0.1159665
1764510881.5878177,-4.10494,1.43444,0.85456,-0.958310535,-0.23876892,-0.1159665
1764510881.5878177,-4.10494,1.43444,0.85456,-0.958310535,-0.23876892,-0.1159665
1764510881.5878177,-4.10494,1.43444,0.85456,-0.958310535,-0.23876892,-0.1159665
1764510881.5878177,-4.10494,1.43444,0.85456,-0.958310535,-0.23876892,-0.1159665
1764510881.5878177,-4.10494,1.43444,0.85456,-0.958310535,-0.23876892,-0.1159665
1764510881.5878177,-4.10494,1.43444,0.85456,-0.958310535,-0.23876892,-0.1159665
1764510881.5878177,-4.10494,1.43444,0.85456,-0.958310535,-0.23876892,-0.1159665
1764510881.5878177,-3.67766,1.4497,0.56462,-0.959165025,-0.238463745,-0.11584443
1764510881.5878177,-3.67766,1.4497,0.56462,-0.959165025,-0.238463745,-0.11584443
1764510881.5878177,-3.67766,1.4497,0.56462,-0.959165025,-0.238463745,-0.11584443
1764510881.5878177,-3.67766,1.4497,0.56462,-0.959165025,-0.238463745,-0.11584443
1764510881.636451,-3.67766,1.4497,0.56462,-0.959165025,-0.238463745,-0.11584443
1764510881.636451,-3.67766,1.4497,0.56462,-0.959165025,-0.238463745,-0.11584443
1764510881.636451,-3.67766,1.4497,0.56462,-0.959165025,-0.238463745,-0.11584443
1764510881.636451,-3.67766,1.4497,0.56462,-0.959165025,-0.238463745,-0.11584443
1764510881.636451,-3.67766,1.4497,0.56462,-0.959165025,-0.238463745,-0.11584443
1764510881.636451,-3.67766,1.4497,0.56462,-0.959165025,-0.238463745,-0.11584443
1764510881.636451,-5.753019999999999,1.46496,0.9156,-0.95934813,-0.237243045,-0.11462373
1764510881.636451,-5.753019999999999,1.46496,0.9156,-0.95934813,-0.237243045,-0.11462373
1764510881.636451,-5.753019999999999,1.46496,0.9156,-0.95934813,-0.237243045,-0.11462373
1764510881.636451,-5.753019999999999,1.46496,0.9156,-0.95934813,-0.237243045,-0.11462373
1764510881.636451,-5.753019999999999,1.46496,0.9156,-0.95934813,-0.237243045,-0.11462373
1764510881.636451,-5.753019999999999,1.46496,0.9156,-0.95934813,-0.237243045,-0.11462373
1764510881.636451,-5.753019999999999,1.46496,0.9156,-0.95934813,-0.237243045,-0.11462373
1764510881.636451,-5.753019999999999,1.46496,0.9156,-0.95934813,-0.237243045,-0.11462373
1764510881.636451,-5.753019999999999,1.46496,0.9156,-0.95934813,-0.237243045,-0.11462373
1764510881.636451,-5.753019999999999,1.46496,0.9156,-0.95934813,-0.237243045,-0.11462373
1764510881.636451,-6.77544,1.12924,0.3509799999999999,-0.95898192,-0.236388555,-0.11425752
1764510881.636451,-6.77544,1.12924,0.3509799999999999,-0.95898192,-0.236388555,-0.11425752
1764510881.637465,-6.77544,1.12924,0.3509799999999999,-0.95898192,-0.236388555,-0.11425752
1764510881.637465,-6.77544,1.12924,0.3509799999999999,-0.95898192,-0.236388555,-0.11425752
1764510881.637465,-6.77544,1.12924,0.3509799999999999,-0.95898192,-0.236388555,-0.11425752
1764510881.637465,-6.77544,1.12924,0.3509799999999999,-0.95898192,-0.236388555,-0.11425752
1764510881.637465,-6.77544,1.12924,0.3509799999999999,-0.95898192,-0.236388555,-0.11425752
1764510881.637465,-6.77544,1.12924,0.3509799999999999,-0.95898192,-0.236388555,-0.11425752
1764510881.6821184,-6.77544,1.12924,0.3509799999999999,-0.95898192,-0.236388555,-0.11425752
1764510881.6821184,-6.77544,1.12924,0.3509799999999999,-0.95898192,-0.236388555,-0.11425752
1764510881.6821184,-5.20366,1.26658,0.19838,-0.959653305,-0.23705994,-0.11645478
1764510881.6821184,-5.20366,1.26658,0.19838,-0.959653305,-0.23705994,-0.11645478
1764510881.6821184,-5.20366,1.26658,0.19838,-0.959653305,-0.23705994,-0.11645478
1764510881.6821184,-5.20366,1.26658,0.19838,-0.959653305,-0.23705994,-0.11645478
1764510881.6821184,-5.20366,1.26658,0.19838,-0.959653305,-0.23705994,-0.11645478
1764510881.6821184,-5.20366,1.26658,0.19838,-0.959653305,-0.23705994,-0.11645478
1764510881.6821184,-5.20366,1.26658,0.19838,-0.959653305,-0.23705994,-0.11645478
1764510881.6821184,-5.20366,1.26658,0.19838,-0.959653305,-0.23705994,-0.11645478
1764510881.6821184,-5.20366,1.26658,0.19838,-0.959653305,-0.23705994,-0.11645478
1764510881.6821184,-5.20366,1.26658,0.19838,-0.959653305,-0.23705994,-0.11645478
1764510881.6821184,-4.51696,1.38866,0.36624,-0.95971434,-0.237487185,-0.11682099
1764510881.6821184,-4.51696,1.38866,0.36624,-0.95971434,-0.237487185,-0.11682099
1764510881.6821184,-4.51696,1.38866,0.36624,-0.95971434,-0.237487185,-0.11682099
1764510881.6821184,-4.51696,1.38866,0.36624,-0.95971434,-0.237487185,-0.11682099
1764510881.6821184,-4.51696,1.38866,0.36624,-0.95971434,-0.237487185,-0.11682099
1764510881.6821184,-4.51696,1.38866,0.36624,-0.95971434,-0.237487185,-0.11682099
1764510881.6821184,-4.51696,1.38866,0.36624,-0.95971434,-0.237487185,-0.11682099
1764510881.6821184,-4.51696,1.38866,0.36624,-0.95971434,-0.237487185,-0.11682099
1764510881.6821184,-4.51696,1.38866,0.36624,-0.95971434,-0.237487185,-0.11682099
1764510881.6821184,-4.51696,1.38866,0.36624,-0.95971434,-0.237487185,-0.11682099
1764510881.7304423,-5.29522,1.17502,0.73248,-0.95934813,-0.237609255,-0.1159665
1764510881.7304423,-5.29522,1.17502,0.73248,-0.95934813,-0.237609255,-0.1159665
1764510881.7304423,-5.29522,1.17502,0.73248,-0.95934813,-0.237609255,-0.1159665
1764510881.7304423,-5.29522,1.17502,0.73248,-0.95934813,-0.237609255,-0.1159665
1764510881.7304423,-5.29522,1.17502,0.73248,-0.95934813,-0.237609255,-0.1159665
1764510881.7304423,-5.29522,1.17502,0.73248,-0.95934813,-0.237609255,-0.1159665
1764510881.7304423,-5.29522,1.17502,0.73248,-0.95934813,-0.237609255,-0.1159665
1764510881.7304423,-5.29522,1.17502,0.73248,-0.95934813,-0.237609255,-0.1159665
1764510881.7304423,-5.29522,1.17502,0.73248,-0.95934813,-0.237609255,-0.1159665
1764510881.7304423,-5.29522,1.17502,0.73248,-0.95934813,-0.237609255,-0.1159665
1764510881.7304423,-5.43256,0.8392999999999999,0.71722,-0.959165025,-0.23730408,-0.116271675
1764510881.7304423,-5.43256,0.8392999999999999,0.71722,-0.959165025,-0.23730408,-0.116271675
1764510881.7304423,-5.43256,0.8392999999999999,0.71722,-0.959165025,-0.23730408,-0.116271675
1764510881.7304423,-5.43256,0.8392999999999999,0.71722,-0.959165025,-0.23730408,-0.116271675
1764510881.7304423,-5.43256,0.8392999999999999,0.71722,-0.959165025,-0.23730408,-0.116271675
1764510881.7304423,-5.43256,0.8392999999999999,0.71722,-0.959165025,-0.23730408,-0.116271675
1764510881.7304423,-5.43256,0.8392999999999999,0.71722,-0.959165025,-0.23730408,-0.116271675
1764510881.7304423,-5.43256,0.8392999999999999,0.71722,-0.959165025,-0.23730408,-0.116271675
1764510881.7304423,-5.43256,0.8392999999999999,0.71722,-0.959165025,-0.23730408,-0.116271675
1764510881.7304423,-5.43256,0.8392999999999999,0.71722,-0.959165025,-0.23730408,-0.116271675
1764510881.7304423,-4.76112,0.79352,1.49548,-0.95934813,-0.23730408,-0.11730927
1764510881.7314537,-4.76112,0.79352,1.49548,-0.95934813,-0.23730408,-0.11730927
1764510881.7314537,-4.76112,0.79352,1.49548,-0.95934813,-0.23730408,-0.11730927
1764510881.7314537,-4.76112,0.79352,1.49548,-0.95934813,-0.23730408,-0.11730927
1764510881.774641,-4.76112,0.79352,1.49548,-0.95934813,-0.23730408,-0.11730927
1764510881.774641,-4.76112,0.79352,1.49548,-0.95934813,-0.23730408,-0.11730927
1764510881.774641,-4.76112,0.79352,1.49548,-0.95934813,-0.23730408,-0.11730927
1764510881.7756605,-4.76112,0.79352,1.49548,-0.95934813,-0.23730408,-0.11730927
1764510881.7756605,-4.76112,0.79352,1.49548,-0.95934813,-0.23730408,-0.11730927
1764510881.7756605,-4.76112,0.79352,1.49548,-0.95934813,-0.23730408,-0.11730927
1764510881.7761755,-4.86794,0.9003399999999999,1.2208,-0.9594702,-0.23669373,-0.117370305
1764510881.7761755,-4.86794,0.9003399999999999,1.2208,-0.9594702,-0.23669373,-0.117370305
1764510881.7761755,-4.86794,0.9003399999999999,1.2208,-0.9594702,-0.23669373,-0.117370305
1764510881.7761755,-4.86794,0.9003399999999999,1.2208,-0.9594702,-0.23669373,-0.117370305
1764510881.777697,-4.86794,0.9003399999999999,1.2208,-0.9594702,-0.23669373,-0.117370305
1764510881.777697,-4.86794,0.9003399999999999,1.2208,-0.9594702,-0.23669373,-0.117370305
1764510881.777697,-4.86794,0.9003399999999999,1.2208,-0.9594702,-0.23669373,-0.117370305
1764510881.777697,-4.86794,0.9003399999999999,1.2208,-0.9594702,-0.23669373,-0.117370305
1764510881.7787166,-4.86794,0.9003399999999999,1.2208,-0.9594702,-0.23669373,-0.117370305
1764510881.7787166,-4.86794,0.9003399999999999,1.2208,-0.9594702,-0.23669373,-0.117370305
1764510881.7787166,-4.48644,0.94612,1.02242,-0.959409165,-0.237243045,-0.116637885
1764510881.7787166,-4.48644,0.94612,1.02242,-0.959409165,-0.237243045,-0.116637885
1764510881.7797143,-4.48644,0.94612,1.02242,-0.959409165,-0.237243045,-0.116637885
1764510881.7797143,-4.48644,0.94612,1.02242,-0.959409165,-0.237243045,-0.116637885
1764510881.7797143,-4.48644,0.94612,1.02242,-0.959409165,-0.237243045,-0.116637885
1764510881.7797143,-4.48644,0.94612,1.02242,-0.959409165,-0.237243045,-0.116637885
1764510881.78171,-4.48644,0.94612,1.02242,-0.959409165,-0.237243045,-0.116637885
1764510881.78171,-4.48644,0.94612,1.02242,-0.959409165,-0.237243045,-0.116637885
1764510881.8232586,-4.48644,0.94612,1.02242,-0.959409165,-0.237243045,-0.116637885
1764510881.8232586,-4.48644,0.94612,1.02242,-0.959409165,-0.237243045,-0.116637885
1764510881.8232586,-4.4254,1.08346,1.23606,-0.958920885,-0.23742615,-0.11608857
1764510881.8232586,-4.4254,1.08346,1.23606,-0.958920885,-0.23742615,-0.11608857
1764510881.8232586,-4.4254,1.08346,1.23606,-0.958920885,-0.23742615,-0.11608857
1764510881.8232586,-4.4254,1.08346,1.23606,-0.958920885,-0.23742615,-0.11608857
1764510881.8232586,-4.4254,1.08346,1.23606,-0.958920885,-0.23742615,-0.11608857
1764510881.8232586,-4.4254,1.08346,1.23606,-0.958920885,-0.23742615,-0.11608857
1764510881.8232586,-4.4254,1.08346,1.23606,-0.958920885,-0.23742615,-0.11608857
1764510881.8232586,-4.4254,1.08346,1.23606,-0.958920885,-0.23742615,-0.11608857
1764510881.8232586,-4.4254,1.08346,1.23606,-0.958920885,-0.23742615,-0.11608857
1764510881.8232586,-4.4254,1.08346,1.23606,-0.958920885,-0.23742615,-0.11608857
1764510881.8232586,-4.16598,0.74774,0.9156,-0.958798815,-0.237243045,-0.11621064
1764510881.8232586,-4.16598,0.74774,0.9156,-0.958798815,-0.237243045,-0.11621064
1764510881.8232586,-4.16598,0.74774,0.9156,-0.958798815,-0.237243045,-0.11621064
1764510881.8232586,-4.16598,0.74774,0.9156,-0.958798815,-0.237243045,-0.11621064
1764510881.8232586,-4.16598,0.74774,0.9156,-0.958798815,-0.237243045,-0.11621064
1764510881.8232586,-4.16598,0.74774,0.9156,-0.958798815,-0.237243045,-0.11621064
1764510881.8232586,-4.16598,0.74774,0.9156,-0.958798815,-0.237243045,-0.11621064
1764510881.8232586,-4.16598,0.74774,0.9156,-0.958798815,-0.237243045,-0.11621064
1764510881.824869,-4.16598,0.74774,0.9156,-0.958798815,-0.237243045,-0.11621064
1764510881.824869,-4.16598,0.74774,0.9156,-0.958798815,-0.237243045,-0.11621064
1764510881.824869,-4.13546,0.3815,1.61756,-0.95934813,-0.236266485,-0.11645478
1764510881.824869,-4.13546,0.3815,1.61756,-0.95934813,-0.236266485,-0.11645478
1764510881.8688612,-4.13546,0.3815,1.61756,-0.95934813,-0.236266485,-0.11645478
1764510881.8688612,-4.13546,0.3815,1.61756,-0.95934813,-0.236266485,-0.11645478
1764510881.8688612,-4.13546,0.3815,1.61756,-0.95934813,-0.236266485,-0.11645478
1764510881.8688612,-4.13546,0.3815,1.61756,-0.95934813,-0.236266485,-0.11645478
1764510881.8688612,-4.13546,0.3815,1.61756,-0.95934813,-0.236266485,-0.11645478
1764510881.8688612,-4.13546,0.3815,1.61756,-0.95934813,-0.236266485,-0.11645478
1764510881.8688612,-4.13546,0.3815,1.61756,-0.95934813,-0.236266485,-0.11645478
1764510881.869392,-4.13546,0.3815,1.61756,-0.95934813,-0.236266485,-0.11645478
1764510881.869392,-3.76922,0.62566,1.69386,-0.959531235,-0.23535096,-0.1159665
1764510881.869392,-3.76922,0.62566,1.69386,-0.959531235,-0.23535096,-0.1159665
1764510881.869392,-3.76922,0.62566,1.69386,-0.959531235,-0.23535096,-0.1159665
1764510881.869392,-3.76922,0.62566,1.69386,-0.959531235,-0.23535096,-0.1159665
1764510881.869392,-3.76922,0.62566,1.69386,-0.959531235,-0.23535096,-0.1159665
1764510881.869392,-3.76922,0.62566,1.69386,-0.959531235,-0.23535096,-0.1159665
1764510881.869392,-3.76922,0.62566,1.69386,-0.959531235,-0.23535096,-0.1159665
1764510881.869392,-3.76922,0.62566,1.69386,-0.959531235,-0.23535096,-0.1159665
1764510881.869392,-3.76922,0.62566,1.69386,-0.959531235,-0.23535096,-0.1159665
1764510881.869392,-3.76922,0.62566,1.69386,-0.959531235,-0.23535096,-0.1159665
1764510881.869392,-3.21986,0.7019599999999999,1.72438,-0.960263655,-0.23596131,-0.116149605
1764510881.869392,-3.21986,0.7019599999999999,1.72438,-0.960263655,-0.23596131,-0.116149605
1764510881.869392,-3.21986,0.7019599999999999,1.72438,-0.960263655,-0.23596131,-0.116149605
1764510881.869392,-3.21986,0.7019599999999999,1.72438,-0.960263655,-0.23596131,-0.116149605
1764510881.918337,-3.21986,0.7019599999999999,1.72438,-0.960263655,-0.23596131,-0.116149605
1764510881.918337,-3.21986,0.7019599999999999,1.72438,-0.960263655,-0.23596131,-0.116149605
1764510881.918337,-3.21986,0.7019599999999999,1.72438,-0.960263655,-0.23596131,-0.116149605
1764510881.918337,-3.21986,0.7019599999999999,1.72438,-0.960263655,-0.23596131,-0.116149605
1764510881.918337,-3.21986,0.7019599999999999,1.72438,-0.960263655,-0.23596131,-0.116149605
1764510881.918337,-3.21986,0.7019599999999999,1.72438,-0.960263655,-0.23596131,-0.116149605
1764510881.918337,-4.02864,0.65618,1.2971,-0.95983641,-0.236266485,-0.115783395
1764510881.918337,-4.02864,0.65618,1.2971,-0.95983641,-0.236266485,-0.115783395
1764510881.918337,-4.02864,0.65618,1.2971,-0.95983641,-0.236266485,-0.115783395
1764510881.918337,-4.02864,0.65618,1.2971,-0.95983641,-0.236266485,-0.115783395
1764510881.918337,-4.02864,0.65618,1.2971,-0.95983641,-0.236266485,-0.115783395
1764510881.918337,-4.02864,0.65618,1.2971,-0.95983641,-0.236266485,-0.115783395
1764510881.918337,-4.02864,0.65618,1.2971,-0.95983641,-0.236266485,-0.115783395
1764510881.918337,-4.02864,0.65618,1.2971,-0.95983641,-0.236266485,-0.115783395
1764510881.918337,-4.02864,0.65618,1.2971,-0.95983641,-0.236266485,-0.115783395
1764510881.918337,-4.02864,0.65618,1.2971,-0.95983641,-0.236266485,-0.115783395
1764510881.918337,-5.52412,0.5341,0.47306,-0.96056883,-0.236388555,-0.115539255
1764510881.918337,-5.52412,0.5341,0.47306,-0.96056883,-0.236388555,-0.115539255
1764510881.918337,-5.52412,0.5341,0.47306,-0.96056883,-0.236388555,-0.115539255
1764510881.919438,-5.52412,0.5341,0.47306,-0.96056883,-0.236388555,-0.115539255
1764510881.919438,-5.52412,0.5341,0.47306,-0.96056883,-0.236388555,-0.115539255
1764510881.919438,-5.52412,0.5341,0.47306,-0.96056883,-0.236388555,-0.115539255
1764510881.919438,-5.52412,0.5341,0.47306,-0.96056883,-0.236388555,-0.115539255
1764510881.919438,-5.52412,0.5341,0.47306,-0.96056883,-0.236388555,-0.115539255
1764510881.9627678,-5.52412,0.5341,0.47306,-0.96056883,-0.236388555,-0.115539255
1764510881.9627678,-5.52412,0.5341,0.47306,-0.96056883,-0.236388555,-0.115539255
1764510881.9627678,-5.096839999999999,1.08346,-0.47306,-0.96081297,-0.236876835,-0.11621064
1764510881.9627678,-5.096839999999999,1.08346,-0.47306,-0.96081297,-0.236876835,-0.11621064
1764510881.9627678,-5.096839999999999,1.08346,-0.47306,-0.96081297,-0.236876835,-0.11621064
1764510881.9627678,-5.096839999999999,1.08346,-0.47306,-0.96081297,-0.236876835,-0.11621064
1764510881.9627678,-5.096839999999999,1.08346,-0.47306,-0.96081297,-0.236876835,-0.11621064
1764510881.9637847,-5.096839999999999,1.08346,-0.47306,-0.96081297,-0.236876835,-0.11621064
1764510881.9637847,-5.096839999999999,1.08346,-0.47306,-0.96081297,-0.236876835,-0.11621064
1764510881.9637847,-5.096839999999999,1.08346,-0.47306,-0.96081297,-0.236876835,-0.11621064
1764510881.9637847,-5.096839999999999,1.08346,-0.47306,-0.96081297,-0.236876835,-0.11621064
1764510881.9637847,-5.096839999999999,1.08346,-0.47306,-0.96081297,-0.236876835,-0.11621064
1764510881.9637847,-3.83026,1.57178,-1.17502,-0.960751935,-0.237243045,-0.11657685
1764510881.9637847,-3.83026,1.57178,-1.17502,-0.960751935,-0.237243045,-0.11657685
1764510881.9637847,-3.83026,1.57178,-1.17502,-0.960751935,-0.237243045,-0.11657685
1764510881.9637847,-3.83026,1.57178,-1.17502,-0.960751935,-0.237243045,-0.11657685
1764510881.9637847,-3.83026,1.57178,-1.17502,-0.960751935,-0.237243045,-0.11657685
1764510881.9637847,-3.83026,1.57178,-1.17502,-0.960751935,-0.237243045,-0.11657685
1764510881.9637847,-3.83026,1.57178,-1.17502,-0.960751935,-0.237243045,-0.11657685
1764510881.9637847,-3.83026,1.57178,-1.17502,-0.960751935,-0.237243045,-0.11657685
1764510881.9637847,-3.83026,1.57178,-1.17502,-0.960751935,-0.237243045,-0.11657685
1764510881.964333,-3.83026,1.57178,-1.17502,-0.960751935,-0.237243045,-0.11657685
1764510881.964333,-3.29616,0.9003399999999999,0.04578,-0.95971434,-0.236998905,-0.116759955
1764510881.964333,-3.29616,0.9003399999999999,0.04578,-0.95971434,-0.236998905,-0.116759955
1764510882.008673,-3.29616,0.9003399999999999,0.04578,-0.95971434,-0.236998905,-0.116759955
1764510882.008673,-3.29616,0.9003399999999999,0.04578,-0.95971434,-0.236998905,-0.116759955
1764510882.008673,-3.29616,0.9003399999999999,0.04578,-0.95971434,-0.236998905,-0.116759955
1764510882.008673,-3.29616,0.9003399999999999,0.04578,-0.95971434,-0.236998905,-0.116759955
1764510882.008673,-3.29616,0.9003399999999999,0.04578,-0.95971434,-0.236998905,-0.116759955
1764510882.0097091,-3.29616,0.9003399999999999,0.04578,-0.95971434,-0.236998905,-0.116759955
1764510882.0097091,-3.29616,0.9003399999999999,0.04578,-0.95971434,-0.236998905,-0.116759955
1764510882.0097091,-3.29616,0.9003399999999999,0.04578,-0.95971434,-0.236998905,-0.116759955
1764510882.0097091,-2.94518,0.59514,0.9919,-0.95861571,-0.236998905,-0.115539255
1764510882.0097091,-2.94518,0.59514,0.9919,-0.95861571,-0.236998905,-0.115539255
1764510882.0097091,-2.94518,0.59514,0.9919,-0.95861571,-0.236998905,-0.115539255
1764510882.0097091,-2.94518,0.59514,0.9919,-0.95861571,-0.236998905,-0.115539255
1764510882.0097091,-2.94518,0.59514,0.9919,-0.95861571,-0.236998905,-0.115539255
1764510882.0097091,-2.94518,0.59514,0.9919,-0.95861571,-0.236998905,-0.115539255
1764510882.0097091,-2.94518,0.59514,0.9919,-0.95861571,-0.236998905,-0.115539255
