Timestamp,GyroX,GyroY,GyroZ,AccX,AccY,AccZ
1764511035.343325,0.24416,4.0439,0.6714399999999999,0.41235246,0.83215119,-0.369444855
1764511035.343325,0.24416,4.0439,0.6714399999999999,0.41235246,0.83215119,-0.369444855
1764511035.343325,-0.5341,3.86078,0.3051999999999999,0.41125383,0.83215119,-0.36913968
1764511035.343325,-0.5341,3.86078,0.3051999999999999,0.41125383,0.83215119,-0.36913968
1764511035.343325,-0.5341,3.86078,0.3051999999999999,0.41125383,0.83215119,-0.36913968
1764511035.3443174,-0.5341,3.86078,0.3051999999999999,0.41125383,0.83215119,-0.36913968
1764511035.3443174,-0.5341,3.86078,0.3051999999999999,0.41125383,0.83215119,-0.36913968
1764511035.3443174,-0.5341,3.86078,0.3051999999999999,0.41125383,0.83215119,-0.36913968
1764511035.3443174,-0.5341,3.86078,0.3051999999999999,0.41125383,0.83215119,-0.36913968
1764511035.3443174,-0.5341,3.86078,0.3051999999999999,0.41125383,0.83215119,-0.36913968
1764511035.3443174,-0.5341,3.86078,0.3051999999999999,0.41125383,0.83215119,-0.36913968
1764511035.3443174,-0.5341,3.86078,0.3051999999999999,0.41125383,0.83215119,-0.36913968
1764511035.3443174,-1.02242,3.95234,0.5341,0.41186418,0.83239533,-0.368590365
1764511035.3443174,-1.02242,3.95234,0.5341,0.41186418,0.83239533,-0.368590365
1764511035.3443174,-1.02242,3.95234,0.5341,0.41186418,0.83239533,-0.368590365
1764511035.3443174,-1.02242,3.95234,0.5341,0.41186418,0.83239533,-0.368590365
1764511035.3443174,-1.02242,3.95234,0.5341,0.41186418,0.83239533,-0.368590365
1764511035.3443174,-1.02242,3.95234,0.5341,0.41186418,0.83239533,-0.368590365
1764511035.3443174,-1.02242,3.95234,0.5341,0.41186418,0.83239533,-0.368590365
1764511035.3443174,-1.02242,3.95234,0.5341,0.41186418,0.83239533,-0.368590365
1764511035.3443174,-1.02242,3.95234,0.5341,0.41186418,0.83239533,-0.368590365
1764511035.3443174,-1.02242,3.95234,0.5341,0.41186418,0.83239533,-0.368590365
1764511035.3443174,-1.1445,3.38772,0.94612,0.41235246,0.831479805,-0.36852933
1764511035.3443174,-1.1445,3.38772,0.94612,0.41235246,0.831479805,-0.36852933
1764511035.3443174,-1.1445,3.38772,0.94612,0.41235246,0.831479805,-0.36852933
1764511035.3443174,-1.1445,3.38772,0.94612,0.41235246,0.831479805,-0.36852933
1764511035.3858268,-1.1445,3.38772,0.94612,0.41235246,0.831479805,-0.36852933
1764511035.3858268,-1.1445,3.38772,0.94612,0.41235246,0.831479805,-0.36852933
1764511035.3858268,-1.1445,3.38772,0.94612,0.41235246,0.831479805,-0.36852933
1764511035.3868265,-1.1445,3.38772,0.94612,0.41235246,0.831479805,-0.36852933
1764511035.3868265,-1.1445,3.38772,0.94612,0.41235246,0.831479805,-0.36852933
1764511035.3868265,-1.1445,3.38772,0.94612,0.41235246,0.831479805,-0.36852933
1764511035.3868265,-0.3815,3.79974,0.8698199999999999,0.41308488,0.83019807,-0.36804105
1764511035.3878293,-0.3815,3.79974,0.8698199999999999,0.41308488,0.83019807,-0.36804105
1764511035.3878293,-0.3815,3.79974,0.8698199999999999,0.41308488,0.83019807,-0.36804105
1764511035.3878293,-0.3815,3.79974,0.8698199999999999,0.41308488,0.83019807,-0.36804105
1764511035.3878293,-0.3815,3.79974,0.8698199999999999,0.41308488,0.83019807,-0.36804105
1764511035.3878293,-0.3815,3.79974,0.8698199999999999,0.41308488,0.83019807,-0.36804105
1764511035.388836,-0.3815,3.79974,0.8698199999999999,0.41308488,0.83019807,-0.36804105
1764511035.388836,-0.3815,3.79974,0.8698199999999999,0.41308488,0.83019807,-0.36804105
1764511035.388836,-0.3815,3.79974,0.8698199999999999,0.41308488,0.83019807,-0.36804105
1764511035.388836,-0.3815,3.79974,0.8698199999999999,0.41308488,0.83019807,-0.36804105
1764511035.388836,0.19838,3.87604,0.6409199999999999,0.413023845,0.829282545,-0.367857945
1764511035.388836,0.19838,3.87604,0.6409199999999999,0.413023845,0.829282545,-0.367857945
1764511035.388836,0.19838,3.87604,0.6409199999999999,0.413023845,0.829282545,-0.367857945
1764511035.388836,0.19838,3.87604,0.6409199999999999,0.413023845,0.829282545,-0.367857945
1764511035.4336452,0.19838,3.87604,0.6409199999999999,0.413023845,0.829282545,-0.367857945
1764511035.434534,0.19838,3.87604,0.6409199999999999,0.413023845,0.829282545,-0.367857945
1764511035.434534,0.19838,3.87604,0.6409199999999999,0.413023845,0.829282545,-0.367857945
1764511035.434534,0.19838,3.87604,0.6409199999999999,0.413023845,0.829282545,-0.367857945
1764511035.434534,0.19838,3.87604,0.6409199999999999,0.413023845,0.829282545,-0.367857945
1764511035.434534,0.19838,3.87604,0.6409199999999999,0.413023845,0.829282545,-0.367857945
1764511035.434534,0.79352,3.6624,0.21364,0.412901775,0.829038405,-0.368468295
1764511035.434534,0.79352,3.6624,0.21364,0.412901775,0.829038405,-0.368468295
1764511035.434534,0.79352,3.6624,0.21364,0.412901775,0.829038405,-0.368468295
1764511035.4356782,0.79352,3.6624,0.21364,0.412901775,0.829038405,-0.368468295
1764511035.4356782,0.79352,3.6624,0.21364,0.412901775,0.829038405,-0.368468295
1764511035.4356782,0.79352,3.6624,0.21364,0.412901775,0.829038405,-0.368468295
1764511035.4356782,0.79352,3.6624,0.21364,0.412901775,0.829038405,-0.368468295
1764511035.4356782,0.79352,3.6624,0.21364,0.412901775,0.829038405,-0.368468295
1764511035.4356782,0.79352,3.6624,0.21364,0.412901775,0.829038405,-0.368468295
1764511035.4356782,0.79352,3.6624,0.21364,0.412901775,0.829038405,-0.368468295
1764511035.4356782,0.1678599999999999,3.90656,0.21364,0.41393937,0.83056428,-0.36975003
1764511035.4356782,0.1678599999999999,3.90656,0.21364,0.41393937,0.83056428,-0.36975003
1764511035.4356782,0.1678599999999999,3.90656,0.21364,0.41393937,0.83056428,-0.36975003
1764511035.4356782,0.1678599999999999,3.90656,0.21364,0.41393937,0.83056428,-0.36975003
1764511035.4356782,0.1678599999999999,3.90656,0.21364,0.41393937,0.83056428,-0.36975003
1764511035.4356782,0.1678599999999999,3.90656,0.21364,0.41393937,0.83056428,-0.36975003
1764511035.4356782,0.1678599999999999,3.90656,0.21364,0.41393937,0.83056428,-0.36975003
1764511035.4356782,0.1678599999999999,3.90656,0.21364,0.41393937,0.83056428,-0.36975003
1764511035.480312,0.1678599999999999,3.90656,0.21364,0.41393937,0.83056428,-0.36975003
1764511035.480312,0.1678599999999999,3.90656,0.21364,0.41393937,0.83056428,-0.36975003
1764511035.480312,-0.06104,3.76922,0.8087799999999999,0.412657635,0.831723945,-0.36962796
1764511035.480312,-0.06104,3.76922,0.8087799999999999,0.412657635,0.831723945,-0.36962796
1764511035.480312,-0.06104,3.76922,0.8087799999999999,0.412657635,0.831723945,-0.36962796
1764511035.480312,-0.06104,3.76922,0.8087799999999999,0.412657635,0.831723945,-0.36962796
1764511035.480312,-0.06104,3.76922,0.8087799999999999,0.412657635,0.831723945,-0.36962796
1764511035.480312,-0.06104,3.76922,0.8087799999999999,0.412657635,0.831723945,-0.36962796
1764511035.480312,-0.06104,3.76922,0.8087799999999999,0.412657635,0.831723945,-0.36962796
1764511035.480312,-0.06104,3.76922,0.8087799999999999,0.412657635,0.831723945,-0.36962796
1764511035.480312,-0.06104,3.76922,0.8087799999999999,0.412657635,0.831723945,-0.36962796
1764511035.480312,-0.06104,3.76922,0.8087799999999999,0.412657635,0.831723945,-0.36962796
1764511035.480312,0.04578,3.1283,0.48832,0.410460375,0.83080842,-0.370299345
1764511035.480312,0.04578,3.1283,0.48832,0.410460375,0.83080842,-0.370299345
1764511035.480312,0.04578,3.1283,0.48832,0.410460375,0.83080842,-0.370299345
1764511035.480312,0.04578,3.1283,0.48832,0.410460375,0.83080842,-0.370299345
1764511035.480312,0.04578,3.1283,0.48832,0.410460375,0.83080842,-0.370299345
1764511035.480312,0.04578,3.1283,0.48832,0.410460375,0.83080842,-0.370299345
1764511035.480312,0.04578,3.1283,0.48832,0.410460375,0.83080842,-0.370299345
1764511035.480312,0.04578,3.1283,0.48832,0.410460375,0.83080842,-0.370299345
1764511035.4813256,0.04578,3.1283,0.48832,0.410460375,0.83080842,-0.370299345
1764511035.4813256,0.04578,3.1283,0.48832,0.410460375,0.83080842,-0.370299345
1764511035.4813256,0.12208,3.86078,0.8698199999999999,0.41149797,0.83166291,-0.370665555
1764511035.4813256,0.12208,3.86078,0.8698199999999999,0.41149797,0.83166291,-0.370665555
1764511035.52922,0.12208,3.86078,0.8698199999999999,0.41149797,0.83166291,-0.370665555
1764511035.52922,0.12208,3.86078,0.8698199999999999,0.41149797,0.83166291,-0.370665555
1764511035.52922,0.12208,3.86078,0.8698199999999999,0.41149797,0.83166291,-0.370665555
1764511035.52922,0.12208,3.86078,0.8698199999999999,0.41149797,0.83166291,-0.370665555
1764511035.52922,0.12208,3.86078,0.8698199999999999,0.41149797,0.83166291,-0.370665555
1764511035.52922,0.12208,3.86078,0.8698199999999999,0.41149797,0.83166291,-0.370665555
1764511035.52922,0.12208,3.86078,0.8698199999999999,0.41149797,0.83166291,-0.370665555
1764511035.52922,0.12208,3.86078,0.8698199999999999,0.41149797,0.83166291,-0.370665555
1764511035.52922,0.0762999999999999,3.8913,0.57988,0.412291425,0.83215119,-0.368834505
1764511035.530727,0.0762999999999999,3.8913,0.57988,0.412291425,0.83215119,-0.368834505
1764511035.530727,0.0762999999999999,3.8913,0.57988,0.412291425,0.83215119,-0.368834505
1764511035.530727,0.0762999999999999,3.8913,0.57988,0.412291425,0.83215119,-0.368834505
1764511035.530727,0.0762999999999999,3.8913,0.57988,0.412291425,0.83215119,-0.368834505
1764511035.530727,0.0762999999999999,3.8913,0.57988,0.412291425,0.83215119,-0.368834505
1764511035.530727,0.0762999999999999,3.8913,0.57988,0.412291425,0.83215119,-0.368834505
1764511035.530727,0.0762999999999999,3.8913,0.57988,0.412291425,0.83215119,-0.368834505
1764511035.530727,0.0762999999999999,3.8913,0.57988,0.412291425,0.83215119,-0.368834505
1764511035.530727,0.0762999999999999,3.8913,0.57988,0.412291425,0.83215119,-0.368834505
1764511035.530727,0.7019599999999999,3.37246,0.19838,0.41198625,0.830625315,-0.36779691
1764511035.530727,0.7019599999999999,3.37246,0.19838,0.41198625,0.830625315,-0.36779691
1764511035.530727,0.7019599999999999,3.37246,0.19838,0.41198625,0.830625315,-0.36779691
1764511035.530727,0.7019599999999999,3.37246,0.19838,0.41198625,0.830625315,-0.36779691
1764511035.530727,0.7019599999999999,3.37246,0.19838,0.41198625,0.830625315,-0.36779691
1764511035.5312407,0.7019599999999999,3.37246,0.19838,0.41198625,0.830625315,-0.36779691
1764511035.5715084,0.7019599999999999,3.37246,0.19838,0.41198625,0.830625315,-0.36779691
1764511035.5715084,0.7019599999999999,3.37246,0.19838,0.41198625,0.830625315,-0.36779691
1764511035.5715084,0.7019599999999999,3.37246,0.19838,0.41198625,0.830625315,-0.36779691
1764511035.5715084,0.7019599999999999,3.37246,0.19838,0.41198625,0.830625315,-0.36779691
1764511035.5715084,1.7549,3.17408,0.6103999999999999,0.41247453,0.829892895,-0.36889554
1764511035.5715084,1.7549,3.17408,0.6103999999999999,0.41247453,0.829892895,-0.36889554
1764511035.5715084,1.7549,3.17408,0.6103999999999999,0.41247453,0.829892895,-0.36889554
1764511035.5715084,1.7549,3.17408,0.6103999999999999,0.41247453,0.829892895,-0.36889554
1764511035.5715084,1.7549,3.17408,0.6103999999999999,0.41247453,0.829892895,-0.36889554
1764511035.5715084,1.7549,3.17408,0.6103999999999999,0.41247453,0.829892895,-0.36889554
1764511035.5715084,1.7549,3.17408,0.6103999999999999,0.41247453,0.829892895,-0.36889554
1764511035.5715084,1.7549,3.17408,0.6103999999999999,0.41247453,0.829892895,-0.36889554
1764511035.5715084,1.7549,3.17408,0.6103999999999999,0.41247453,0.829892895,-0.36889554
1764511035.5715084,1.7549,3.17408,0.6103999999999999,0.41247453,0.829892895,-0.36889554
1764511035.5715084,0.42728,4.16598,0.04578,0.413145915,0.8312967,-0.371153835
1764511035.5715084,0.42728,4.16598,0.04578,0.413145915,0.8312967,-0.371153835
1764511035.57306,0.42728,4.16598,0.04578,0.413145915,0.8312967,-0.371153835
1764511035.57306,0.42728,4.16598,0.04578,0.413145915,0.8312967,-0.371153835
1764511035.57306,0.42728,4.16598,0.04578,0.413145915,0.8312967,-0.371153835
1764511035.57306,0.42728,4.16598,0.04578,0.413145915,0.8312967,-0.371153835
1764511035.57306,0.42728,4.16598,0.04578,0.413145915,0.8312967,-0.371153835
1764511035.57306,0.42728,4.16598,0.04578,0.413145915,0.8312967,-0.371153835
1764511035.57306,0.42728,4.16598,0.04578,0.413145915,0.8312967,-0.371153835
1764511035.57306,0.42728,4.16598,0.04578,0.413145915,0.8312967,-0.371153835
1764511035.6227136,0.28994,3.64714,0.06104,0.412291425,0.83093049,-0.372618675
1764511035.6227136,0.28994,3.64714,0.06104,0.412291425,0.83093049,-0.372618675
1764511035.6227136,0.28994,3.64714,0.06104,0.412291425,0.83093049,-0.372618675
1764511035.6227136,0.28994,3.64714,0.06104,0.412291425,0.83093049,-0.372618675
1764511035.6227136,0.28994,3.64714,0.06104,0.412291425,0.83093049,-0.372618675
1764511035.6227136,0.28994,3.64714,0.06104,0.412291425,0.83093049,-0.372618675
1764511035.6227136,0.28994,3.64714,0.06104,0.412291425,0.83093049,-0.372618675
1764511035.6227136,0.28994,3.64714,0.06104,0.412291425,0.83093049,-0.372618675
1764511035.6227136,0.28994,3.64714,0.06104,0.412291425,0.83093049,-0.372618675
1764511035.6227136,0.28994,3.64714,0.06104,0.412291425,0.83093049,-0.372618675
1764511035.6227136,0.04578,3.052,-0.03052,0.411314865,0.82970979,-0.37206936
1764511035.623714,0.04578,3.052,-0.03052,0.411314865,0.82970979,-0.37206936
1764511035.623714,0.04578,3.052,-0.03052,0.411314865,0.82970979,-0.37206936
1764511035.623714,0.04578,3.052,-0.03052,0.411314865,0.82970979,-0.37206936
1764511035.623714,0.04578,3.052,-0.03052,0.411314865,0.82970979,-0.37206936
1764511035.623714,0.04578,3.052,-0.03052,0.411314865,0.82970979,-0.37206936
1764511035.623714,0.04578,3.052,-0.03052,0.411314865,0.82970979,-0.37206936
1764511035.623714,0.04578,3.052,-0.03052,0.411314865,0.82970979,-0.37206936
1764511035.623714,0.04578,3.052,-0.03052,0.411314865,0.82970979,-0.37206936
1764511035.623714,0.04578,3.052,-0.03052,0.411314865,0.82970979,-0.37206936
1764511035.623714,1.08346,3.41824,0.4578,0.411803145,0.8288553,-0.371397975
1764511035.623714,1.08346,3.41824,0.4578,0.411803145,0.8288553,-0.371397975
1764511035.623714,1.08346,3.41824,0.4578,0.411803145,0.8288553,-0.371397975
1764511035.623714,1.08346,3.41824,0.4578,0.411803145,0.8288553,-0.371397975
1764511035.668774,1.08346,3.41824,0.4578,0.411803145,0.8288553,-0.371397975
1764511035.668774,1.08346,3.41824,0.4578,0.411803145,0.8288553,-0.371397975
1764511035.668774,1.08346,3.41824,0.4578,0.411803145,0.8288553,-0.371397975
1764511035.668774,1.08346,3.41824,0.4578,0.411803145,0.8288553,-0.371397975
1764511035.668774,1.08346,3.41824,0.4578,0.411803145,0.8288553,-0.371397975
1764511035.668774,1.08346,3.41824,0.4578,0.411803145,0.8288553,-0.371397975
1764511035.6702864,2.15166,3.7387,0.01526,0.41284074,0.828428055,-0.37194729
1764511035.6702864,2.15166,3.7387,0.01526,0.41284074,0.828428055,-0.37194729
1764511035.6702864,2.15166,3.7387,0.01526,0.41284074,0.828428055,-0.37194729
1764511035.6707497,2.15166,3.7387,0.01526,0.41284074,0.828428055,-0.37194729
1764511035.6707497,2.15166,3.7387,0.01526,0.41284074,0.828428055,-0.37194729
1764511035.6707497,2.15166,3.7387,0.01526,0.41284074,0.828428055,-0.37194729
1764511035.6712985,2.15166,3.7387,0.01526,0.41284074,0.828428055,-0.37194729
1764511035.6712985,2.15166,3.7387,0.01526,0.41284074,0.828428055,-0.37194729
1764511035.6712985,2.15166,3.7387,0.01526,0.41284074,0.828428055,-0.37194729
1764511035.6712985,2.15166,3.7387,0.01526,0.41284074,0.828428055,-0.37194729
1764511035.6712985,1.6022999999999998,3.70818,-0.28994,0.41284074,0.83080842,-0.37304592
1764511035.6712985,1.6022999999999998,3.70818,-0.28994,0.41284074,0.83080842,-0.37304592
1764511035.6723032,1.6022999999999998,3.70818,-0.28994,0.41284074,0.83080842,-0.37304592
1764511035.6723032,1.6022999999999998,3.70818,-0.28994,0.41284074,0.83080842,-0.37304592
1764511035.7127955,1.6022999999999998,3.70818,-0.28994,0.41284074,0.83080842,-0.37304592
1764511035.7127955,1.6022999999999998,3.70818,-0.28994,0.41284074,0.83080842,-0.37304592
1764511035.7127955,1.6022999999999998,3.70818,-0.28994,0.41284074,0.83080842,-0.37304592
1764511035.7127955,1.6022999999999998,3.70818,-0.28994,0.41284074,0.83080842,-0.37304592
1764511035.7127955,1.6022999999999998,3.70818,-0.28994,0.41284074,0.83080842,-0.37304592
1764511035.7127955,1.6022999999999998,3.70818,-0.28994,0.41284074,0.83080842,-0.37304592
1764511035.7127955,0.9156,3.41824,0.1678599999999999,0.411681075,0.833310855,-0.372984885
1764511035.7127955,0.9156,3.41824,0.1678599999999999,0.411681075,0.833310855,-0.372984885
1764511035.7127955,0.9156,3.41824,0.1678599999999999,0.411681075,0.833310855,-0.372984885
1764511035.7127955,0.9156,3.41824,0.1678599999999999,0.411681075,0.833310855,-0.372984885
1764511035.7127955,0.9156,3.41824,0.1678599999999999,0.411681075,0.833310855,-0.372984885
1764511035.7127955,0.9156,3.41824,0.1678599999999999,0.411681075,0.833310855,-0.372984885
1764511035.7127955,0.9156,3.41824,0.1678599999999999,0.411681075,0.833310855,-0.372984885
1764511035.7127955,0.9156,3.41824,0.1678599999999999,0.411681075,0.833310855,-0.372984885
1764511035.7127955,0.9156,3.41824,0.1678599999999999,0.411681075,0.833310855,-0.372984885
1764511035.7127955,0.9156,3.41824,0.1678599999999999,0.411681075,0.833310855,-0.372984885
1764511035.7127955,0.3204599999999999,3.49454,0.2289,0.41174211,0.833066715,-0.3723135
1764511035.7127955,0.3204599999999999,3.49454,0.2289,0.41174211,0.833066715,-0.3723135
1764511035.7127955,0.3204599999999999,3.49454,0.2289,0.41174211,0.833066715,-0.3723135
1764511035.7127955,0.3204599999999999,3.49454,0.2289,0.41174211,0.833066715,-0.3723135
1764511035.7143323,0.3204599999999999,3.49454,0.2289,0.41174211,0.833066715,-0.3723135
1764511035.7143323,0.3204599999999999,3.49454,0.2289,0.41174211,0.833066715,-0.3723135
1764511035.7143323,0.3204599999999999,3.49454,0.2289,0.41174211,0.833066715,-0.3723135
1764511035.715356,0.3204599999999999,3.49454,0.2289,0.41174211,0.833066715,-0.3723135
1764511035.76406,0.3204599999999999,3.49454,0.2289,0.41174211,0.833066715,-0.3723135
1764511035.76406,0.3204599999999999,3.49454,0.2289,0.41174211,0.833066715,-0.3723135
1764511035.76406,0.4578,3.78448,0.57988,0.411192795,0.831113595,-0.372252465
1764511035.76406,0.4578,3.78448,0.57988,0.411192795,0.831113595,-0.372252465
1764511035.76406,0.4578,3.78448,0.57988,0.411192795,0.831113595,-0.372252465
1764511035.76406,0.4578,3.78448,0.57988,0.411192795,0.831113595,-0.372252465
1764511035.76406,0.4578,3.78448,0.57988,0.411192795,0.831113595,-0.372252465
1764511035.76406,0.4578,3.78448,0.57988,0.411192795,0.831113595,-0.372252465
1764511035.76406,0.4578,3.78448,0.57988,0.411192795,0.831113595,-0.372252465
1764511035.7650728,0.4578,3.78448,0.57988,0.411192795,0.831113595,-0.372252465
1764511035.7650728,0.4578,3.78448,0.57988,0.411192795,0.831113595,-0.372252465
1764511035.7650728,0.4578,3.78448,0.57988,0.411192795,0.831113595,-0.372252465
1764511035.7650728,0.44254,3.1283,0.10682,0.410704515,0.829038405,-0.372252465
1764511035.7650728,0.44254,3.1283,0.10682,0.410704515,0.829038405,-0.372252465
1764511035.7650728,0.44254,3.1283,0.10682,0.410704515,0.829038405,-0.372252465
1764511035.7650728,0.44254,3.1283,0.10682,0.410704515,0.829038405,-0.372252465
1764511035.7650728,0.44254,3.1283,0.10682,0.410704515,0.829038405,-0.372252465
1764511035.7650728,0.44254,3.1283,0.10682,0.410704515,0.829038405,-0.372252465
1764511035.7650728,0.44254,3.1283,0.10682,0.410704515,0.829038405,-0.372252465
1764511035.7650728,0.44254,3.1283,0.10682,0.410704515,0.829038405,-0.372252465
1764511035.7650728,0.44254,3.1283,0.10682,0.410704515,0.829038405,-0.372252465
1764511035.7650728,0.44254,3.1283,0.10682,0.410704515,0.829038405,-0.372252465
1764511035.8105814,0.1678599999999999,3.4335,0.5341,0.41284074,0.829526685,-0.37316799
1764511035.8105814,0.1678599999999999,3.4335,0.5341,0.41284074,0.829526685,-0.37316799
1764511035.8105814,0.1678599999999999,3.4335,0.5341,0.41284074,0.829526685,-0.37316799
1764511035.8105814,0.1678599999999999,3.4335,0.5341,0.41284074,0.829526685,-0.37316799
1764511035.8105814,0.1678599999999999,3.4335,0.5341,0.41284074,0.829526685,-0.37316799
1764511035.8105814,0.1678599999999999,3.4335,0.5341,0.41284074,0.829526685,-0.37316799
1764511035.8105814,0.1678599999999999,3.4335,0.5341,0.41284074,0.829526685,-0.37316799
1764511035.8105814,0.1678599999999999,3.4335,0.5341,0.41284074,0.829526685,-0.37316799
1764511035.811239,0.1678599999999999,3.4335,0.5341,0.41284074,0.829526685,-0.37316799
1764511035.811239,0.1678599999999999,3.4335,0.5341,0.41284074,0.829526685,-0.37316799
1764511035.811239,-0.24416,3.55558,0.59514,0.4125966,0.8299539300000001,-0.37304592
1764511035.811239,-0.24416,3.55558,0.59514,0.4125966,0.8299539300000001,-0.37304592
1764511035.811239,-0.24416,3.55558,0.59514,0.4125966,0.8299539300000001,-0.37304592
1764511035.811239,-0.24416,3.55558,0.59514,0.4125966,0.8299539300000001,-0.37304592
1764511035.811239,-0.24416,3.55558,0.59514,0.4125966,0.8299539300000001,-0.37304592
1764511035.811239,-0.24416,3.55558,0.59514,0.4125966,0.8299539300000001,-0.37304592
1764511035.811239,-0.24416,3.55558,0.59514,0.4125966,0.8299539300000001,-0.37304592
1764511035.811239,-0.24416,3.55558,0.59514,0.4125966,0.8299539300000001,-0.37304592
1764511035.811239,-0.24416,3.55558,0.59514,0.4125966,0.8299539300000001,-0.37304592
1764511035.811239,-0.24416,3.55558,0.59514,0.4125966,0.8299539300000001,-0.37304592
1764511035.812236,0.82404,3.15882,0.48832,0.41223039,0.828550125,-0.37329006
1764511035.812236,0.82404,3.15882,0.48832,0.41223039,0.828550125,-0.37329006
1764511035.812236,0.82404,3.15882,0.48832,0.41223039,0.828550125,-0.37329006
1764511035.812236,0.82404,3.15882,0.48832,0.41223039,0.828550125,-0.37329006
1764511035.8555589,0.82404,3.15882,0.48832,0.41223039,0.828550125,-0.37329006
1764511035.8566086,0.82404,3.15882,0.48832,0.41223039,0.828550125,-0.37329006
1764511035.8566086,0.82404,3.15882,0.48832,0.41223039,0.828550125,-0.37329006
1764511035.8566086,0.82404,3.15882,0.48832,0.41223039,0.828550125,-0.37329006
1764511035.8566086,0.82404,3.15882,0.48832,0.41223039,0.828550125,-0.37329006
1764511035.8566086,0.82404,3.15882,0.48832,0.41223039,0.828550125,-0.37329006
1764511035.8575754,1.58704,3.86078,-0.28994,0.41320695,0.829770825,-0.374449725
1764511035.8575754,1.58704,3.86078,-0.28994,0.41320695,0.829770825,-0.374449725
1764511035.8575754,1.58704,3.86078,-0.28994,0.41320695,0.829770825,-0.374449725
1764511035.8575754,1.58704,3.86078,-0.28994,0.41320695,0.829770825,-0.374449725
1764511035.8575754,1.58704,3.86078,-0.28994,0.41320695,0.829770825,-0.374449725
1764511035.8575754,1.58704,3.86078,-0.28994,0.41320695,0.829770825,-0.374449725
1764511035.8575754,1.58704,3.86078,-0.28994,0.41320695,0.829770825,-0.374449725
1764511035.8575754,1.58704,3.86078,-0.28994,0.41320695,0.829770825,-0.374449725
1764511035.8575754,1.58704,3.86078,-0.28994,0.41320695,0.829770825,-0.374449725
1764511035.8575754,1.58704,3.86078,-0.28994,0.41320695,0.829770825,-0.374449725
1764511035.8575754,0.79352,3.98286,0.04578,0.412535565,0.83215119,-0.37499904
1764511035.8575754,0.79352,3.98286,0.04578,0.412535565,0.83215119,-0.37499904
1764511035.8575754,0.79352,3.98286,0.04578,0.412535565,0.83215119,-0.37499904
1764511035.8575754,0.79352,3.98286,0.04578,0.412535565,0.83215119,-0.37499904
1764511035.8575754,0.79352,3.98286,0.04578,0.412535565,0.83215119,-0.37499904
1764511035.8586004,0.79352,3.98286,0.04578,0.412535565,0.83215119,-0.37499904
1764511035.8586004,0.79352,3.98286,0.04578,0.412535565,0.83215119,-0.37499904
1764511035.8586004,0.79352,3.98286,0.04578,0.412535565,0.83215119,-0.37499904
1764511035.9024804,0.79352,3.98286,0.04578,0.412535565,0.83215119,-0.37499904
1764511035.9024804,0.79352,3.98286,0.04578,0.412535565,0.83215119,-0.37499904
1764511035.9024804,-0.56462,4.2728,0.36624,0.40930071,0.83434845,-0.375060075
1764511035.9024804,-0.56462,4.2728,0.36624,0.40930071,0.83434845,-0.375060075
1764511035.9024804,-0.56462,4.2728,0.36624,0.40930071,0.83434845,-0.375060075
1764511035.9024804,-0.56462,4.2728,0.36624,0.40930071,0.83434845,-0.375060075
1764511035.9024804,-0.56462,4.2728,0.36624,0.40930071,0.83434845,-0.375060075
1764511035.9024804,-0.56462,4.2728,0.36624,0.40930071,0.83434845,-0.375060075
1764511035.9024804,-0.56462,4.2728,0.36624,0.40930071,0.83434845,-0.375060075
1764511035.9024804,-0.56462,4.2728,0.36624,0.40930071,0.83434845,-0.375060075
1764511035.9024804,-0.56462,4.2728,0.36624,0.40930071,0.83434845,-0.375060075
1764511035.9024804,-0.56462,4.2728,0.36624,0.40930071,0.83434845,-0.375060075
1764511035.9024804,-1.55652,3.49454,1.12924,0.40783587,0.83300568,-0.374449725
1764511035.9024804,-1.55652,3.49454,1.12924,0.40783587,0.83300568,-0.374449725
1764511035.9024804,-1.55652,3.49454,1.12924,0.40783587,0.83300568,-0.374449725
1764511035.9024804,-1.55652,3.49454,1.12924,0.40783587,0.83300568,-0.374449725
1764511035.9034915,-1.55652,3.49454,1.12924,0.40783587,0.83300568,-0.374449725
1764511035.9034915,-1.55652,3.49454,1.12924,0.40783587,0.83300568,-0.374449725
1764511035.904497,-1.55652,3.49454,1.12924,0.40783587,0.83300568,-0.374449725
1764511035.904497,-1.55652,3.49454,1.12924,0.40783587,0.83300568,-0.374449725
1764511035.904497,-1.55652,3.49454,1.12924,0.40783587,0.83300568,-0.374449725
1764511035.904497,-1.55652,3.49454,1.12924,0.40783587,0.83300568,-0.374449725
1764511035.904497,-1.0682,3.23512,1.0682,0.40808001,0.8305032450000001,-0.37329006
1764511035.9054942,-1.0682,3.23512,1.0682,0.40808001,0.8305032450000001,-0.37329006
1764511035.9454083,-1.0682,3.23512,1.0682,0.40808001,0.8305032450000001,-0.37329006
1764511035.9454083,-1.0682,3.23512,1.0682,0.40808001,0.8305032450000001,-0.37329006
1764511035.947427,-1.0682,3.23512,1.0682,0.40808001,0.8305032450000001,-0.37329006
1764511035.947427,-1.0682,3.23512,1.0682,0.40808001,0.8305032450000001,-0.37329006
1764511035.947427,-1.0682,3.23512,1.0682,0.40808001,0.8305032450000001,-0.37329006
1764511035.947427,-1.0682,3.23512,1.0682,0.40808001,0.8305032450000001,-0.37329006
1764511035.947427,-1.0682,3.23512,1.0682,0.40808001,0.8305032450000001,-0.37329006
1764511035.947427,-1.0682,3.23512,1.0682,0.40808001,0.8305032450000001,-0.37329006
1764511035.947427,-1.11398,3.47928,0.8087799999999999,0.41088762,0.8299539300000001,-0.37280178
1764511035.947427,-1.11398,3.47928,0.8087799999999999,0.41088762,0.8299539300000001,-0.37280178
1764511035.9484296,-1.11398,3.47928,0.8087799999999999,0.41088762,0.8299539300000001,-0.37280178
1764511035.9484296,-1.11398,3.47928,0.8087799999999999,0.41088762,0.8299539300000001,-0.37280178
1764511035.9484296,-1.11398,3.47928,0.8087799999999999,0.41088762,0.8299539300000001,-0.37280178
1764511035.9489396,-1.11398,3.47928,0.8087799999999999,0.41088762,0.8299539300000001,-0.37280178
1764511035.9489396,-1.11398,3.47928,0.8087799999999999,0.41088762,0.8299539300000001,-0.37280178
1764511035.9489396,-1.11398,3.47928,0.8087799999999999,0.41088762,0.8299539300000001,-0.37280178
1764511035.9489396,-1.11398,3.47928,0.8087799999999999,0.41088762,0.8299539300000001,-0.37280178
1764511035.9489396,-1.11398,3.47928,0.8087799999999999,0.41088762,0.8299539300000001,-0.37280178
1764511035.9489396,-1.17502,3.5098,0.8392999999999999,0.412657635,0.830076,-0.372862815
1764511035.9489396,-1.17502,3.5098,0.8392999999999999,0.412657635,0.830076,-0.372862815
1764511035.9489396,-1.17502,3.5098,0.8392999999999999,0.412657635,0.830076,-0.372862815
1764511035.9489396,-1.17502,3.5098,0.8392999999999999,0.412657635,0.830076,-0.372862815
1764511035.9489396,-1.17502,3.5098,0.8392999999999999,0.412657635,0.830076,-0.372862815
1764511035.9489396,-1.17502,3.5098,0.8392999999999999,0.412657635,0.830076,-0.372862815
1764511035.9949074,-1.17502,3.5098,0.8392999999999999,0.412657635,0.830076,-0.372862815
1764511035.9949074,-1.17502,3.5098,0.8392999999999999,0.412657635,0.830076,-0.372862815
1764511035.9949074,-1.17502,3.5098,0.8392999999999999,0.412657635,0.830076,-0.372862815
1764511035.9949074,-1.17502,3.5098,0.8392999999999999,0.412657635,0.830076,-0.372862815
1764511035.9949074,-0.7019599999999999,7.79786,-0.01526,0.41296281,0.82909944,-0.373595235
1764511035.9949074,-0.7019599999999999,7.79786,-0.01526,0.41296281,0.82909944,-0.373595235
1764511035.9949074,-0.7019599999999999,7.79786,-0.01526,0.41296281,0.82909944,-0.373595235
1764511035.9949074,-0.7019599999999999,7.79786,-0.01526,0.41296281,0.82909944,-0.373595235
1764511035.9949074,-0.7019599999999999,7.79786,-0.01526,0.41296281,0.82909944,-0.373595235
1764511035.9949074,-0.7019599999999999,7.79786,-0.01526,0.41296281,0.82909944,-0.373595235
1764511035.9949074,-0.7019599999999999,7.79786,-0.01526,0.41296281,0.82909944,-0.373595235
1764511035.9949074,-0.7019599999999999,7.79786,-0.01526,0.41296281,0.82909944,-0.373595235
1764511035.9949074,-0.7019599999999999,7.79786,-0.01526,0.41296281,0.82909944,-0.373595235
1764511035.9949074,-0.7019599999999999,7.79786,-0.01526,0.41296281,0.82909944,-0.373595235
1764511035.9949074,-0.6103999999999999,3.57084,0.28994,0.412779705,0.82897737,-0.374449725
1764511035.9949074,-0.6103999999999999,3.57084,0.28994,0.412779705,0.82897737,-0.374449725
1764511035.9949074,-0.6103999999999999,3.57084,0.28994,0.412779705,0.82897737,-0.374449725
1764511035.9949074,-0.6103999999999999,3.57084,0.28994,0.412779705,0.82897737,-0.374449725
1764511035.9949074,-0.6103999999999999,3.57084,0.28994,0.412779705,0.82897737,-0.374449725
1764511035.9949074,-0.6103999999999999,3.57084,0.28994,0.412779705,0.82897737,-0.374449725
1764511035.9949074,-0.6103999999999999,3.57084,0.28994,0.412779705,0.82897737,-0.374449725
1764511035.9949074,-0.6103999999999999,3.57084,0.28994,0.412779705,0.82897737,-0.374449725
1764511036.04023,-0.6103999999999999,3.57084,0.28994,0.412779705,0.82897737,-0.374449725
1764511036.04023,-0.6103999999999999,3.57084,0.28994,0.412779705,0.82897737,-0.374449725
1764511036.04023,-0.36624,3.76922,0.57988,0.41125383,0.82934358,-0.375426285
1764511036.04023,-0.36624,3.76922,0.57988,0.41125383,0.82934358,-0.375426285
1764511036.04023,-0.36624,3.76922,0.57988,0.41125383,0.82934358,-0.375426285
1764511036.04023,-0.36624,3.76922,0.57988,0.41125383,0.82934358,-0.375426285
1764511036.04023,-0.36624,3.76922,0.57988,0.41125383,0.82934358,-0.375426285
1764511036.04023,-0.36624,3.76922,0.57988,0.41125383,0.82934358,-0.375426285
1764511036.04023,-0.36624,3.76922,0.57988,0.41125383,0.82934358,-0.375426285
1764511036.04023,-0.36624,3.76922,0.57988,0.41125383,0.82934358,-0.375426285
1764511036.04023,-0.36624,3.76922,0.57988,0.41125383,0.82934358,-0.375426285
1764511036.04023,-0.36624,3.76922,0.57988,0.41125383,0.82934358,-0.375426285
1764511036.04023,-1.49548,3.47928,0.54936,0.41088762,0.831235665,-0.37548732
1764511036.04023,-1.49548,3.47928,0.54936,0.41088762,0.831235665,-0.37548732
1764511036.04023,-1.49548,3.47928,0.54936,0.41088762,0.831235665,-0.37548732
1764511036.04023,-1.49548,3.47928,0.54936,0.41088762,0.831235665,-0.37548732
1764511036.04023,-1.49548,3.47928,0.54936,0.41088762,0.831235665,-0.37548732
1764511036.04023,-1.49548,3.47928,0.54936,0.41088762,0.831235665,-0.37548732
1764511036.0412495,-1.49548,3.47928,0.54936,0.41088762,0.831235665,-0.37548732
1764511036.0412495,-1.49548,3.47928,0.54936,0.41088762,0.831235665,-0.37548732
1764511036.0412495,-1.49548,3.47928,0.54936,0.41088762,0.831235665,-0.37548732
1764511036.0412495,-1.49548,3.47928,0.54936,0.41088762,0.831235665,-0.37548732
1764511036.0412495,-1.57178,3.79974,0.74774,0.410948655,0.832090155,-0.374449725
1764511036.0412495,-1.57178,3.79974,0.74774,0.410948655,0.832090155,-0.374449725
1764511036.0902247,-1.57178,3.79974,0.74774,0.410948655,0.832090155,-0.374449725
1764511036.0902247,-1.57178,3.79974,0.74774,0.410948655,0.832090155,-0.374449725
1764511036.0902247,-1.57178,3.79974,0.74774,0.410948655,0.832090155,-0.374449725
1764511036.0902247,-1.57178,3.79974,0.74774,0.410948655,0.832090155,-0.374449725
1764511036.0902247,-1.57178,3.79974,0.74774,0.410948655,0.832090155,-0.374449725
1764511036.0902247,-1.57178,3.79974,0.74774,0.410948655,0.832090155,-0.374449725
1764511036.0902247,-1.57178,3.79974,0.74774,0.410948655,0.832090155,-0.374449725
1764511036.0902247,-1.57178,3.79974,0.74774,0.410948655,0.832090155,-0.374449725
1764511036.0902247,-1.96854,3.32668,0.88508,0.41064348,0.83117463,-0.3735342
1764511036.0907476,-1.96854,3.32668,0.88508,0.41064348,0.83117463,-0.3735342
1764511036.0907476,-1.96854,3.32668,0.88508,0.41064348,0.83117463,-0.3735342
1764511036.0907476,-1.96854,3.32668,0.88508,0.41064348,0.83117463,-0.3735342
1764511036.0907476,-1.96854,3.32668,0.88508,0.41064348,0.83117463,-0.3735342
1764511036.0907476,-1.96854,3.32668,0.88508,0.41064348,0.83117463,-0.3735342
1764511036.0907476,-1.96854,3.32668,0.88508,0.41064348,0.83117463,-0.3735342
1764511036.0907476,-1.96854,3.32668,0.88508,0.41064348,0.83117463,-0.3735342
1764511036.0907476,-1.96854,3.32668,0.88508,0.41064348,0.83117463,-0.3735342
1764511036.0907476,-1.96854,3.32668,0.88508,0.41064348,0.83117463,-0.3735342
1764511036.0907476,-1.2971,3.6624,0.71722,0.41052141,0.8299539300000001,-0.37341213
1764511036.0907476,-1.2971,3.6624,0.71722,0.41052141,0.8299539300000001,-0.37341213
1764511036.0907476,-1.2971,3.6624,0.71722,0.41052141,0.8299539300000001,-0.37341213
1764511036.0907476,-1.2971,3.6624,0.71722,0.41052141,0.8299539300000001,-0.37341213
1764511036.1353972,-1.2971,3.6624,0.71722,0.41052141,0.8299539300000001,-0.37341213
1764511036.1353972,-1.2971,3.6624,0.71722,0.41052141,0.8299539300000001,-0.37341213
1764511036.1364,-1.2971,3.6624,0.71722,0.41052141,0.8299539300000001,-0.37341213
1764511036.1364,-1.2971,3.6624,0.71722,0.41052141,0.8299539300000001,-0.37341213
1764511036.1364,-1.2971,3.6624,0.71722,0.41052141,0.8299539300000001,-0.37341213
1764511036.1364,-1.2971,3.6624,0.71722,0.41052141,0.8299539300000001,-0.37341213
1764511036.1364,-0.5341,4.07442,0.7019599999999999,0.41052141,0.828672195,-0.37414455
1764511036.1364,-0.5341,4.07442,0.7019599999999999,0.41052141,0.828672195,-0.37414455
1764511036.1364,-0.5341,4.07442,0.7019599999999999,0.41052141,0.828672195,-0.37414455
1764511036.1364,-0.5341,4.07442,0.7019599999999999,0.41052141,0.828672195,-0.37414455
1764511036.1364,-0.5341,4.07442,0.7019599999999999,0.41052141,0.828672195,-0.37414455
1764511036.1364,-0.5341,4.07442,0.7019599999999999,0.41052141,0.828672195,-0.37414455
1764511036.1364,-0.5341,4.07442,0.7019599999999999,0.41052141,0.828672195,-0.37414455
1764511036.1364,-0.5341,4.07442,0.7019599999999999,0.41052141,0.828672195,-0.37414455
1764511036.1364,-0.5341,4.07442,0.7019599999999999,0.41052141,0.828672195,-0.37414455
1764511036.1364,-0.5341,4.07442,0.7019599999999999,0.41052141,0.828672195,-0.37414455
1764511036.1364,-0.4578,3.64714,0.41202,0.410582445,0.8294046150000001,-0.37438869
1764511036.1364,-0.4578,3.64714,0.41202,0.410582445,0.8294046150000001,-0.37438869
1764511036.1364,-0.4578,3.64714,0.41202,0.410582445,0.8294046150000001,-0.37438869
1764511036.1364,-0.4578,3.64714,0.41202,0.410582445,0.8294046150000001,-0.37438869
1764511036.137917,-0.4578,3.64714,0.41202,0.410582445,0.8294046150000001,-0.37438869
1764511036.137917,-0.4578,3.64714,0.41202,0.410582445,0.8294046150000001,-0.37438869
1764511036.137917,-0.4578,3.64714,0.41202,0.410582445,0.8294046150000001,-0.37438869
1764511036.137917,-0.4578,3.64714,0.41202,0.410582445,0.8294046150000001,-0.37438869
1764511036.178553,-0.4578,3.64714,0.41202,0.410582445,0.8294046150000001,-0.37438869
1764511036.178553,-0.4578,3.64714,0.41202,0.410582445,0.8294046150000001,-0.37438869
1764511036.178553,-1.61756,3.63188,0.41202,0.411070725,0.82958772,-0.37438869
1764511036.179094,-1.61756,3.63188,0.41202,0.411070725,0.82958772,-0.37438869
1764511036.179094,-1.61756,3.63188,0.41202,0.411070725,0.82958772,-0.37438869
1764511036.179094,-1.61756,3.63188,0.41202,0.411070725,0.82958772,-0.37438869
1764511036.179094,-1.61756,3.63188,0.41202,0.411070725,0.82958772,-0.37438869
1764511036.179094,-1.61756,3.63188,0.41202,0.411070725,0.82958772,-0.37438869
1764511036.1813233,-1.61756,3.63188,0.41202,0.411070725,0.82958772,-0.37438869
1764511036.1816788,-1.61756,3.63188,0.41202,0.411070725,0.82958772,-0.37438869
1764511036.1816788,-1.61756,3.63188,0.41202,0.411070725,0.82958772,-0.37438869
1764511036.1816788,-1.61756,3.63188,0.41202,0.411070725,0.82958772,-0.37438869
1764511036.1816788,-1.41918,3.69292,0.6103999999999999,0.411436935,0.83080842,-0.374083515
1764511036.1816788,-1.41918,3.69292,0.6103999999999999,0.411436935,0.83080842,-0.374083515
1764511036.1816788,-1.41918,3.69292,0.6103999999999999,0.411436935,0.83080842,-0.374083515
1764511036.1816788,-1.41918,3.69292,0.6103999999999999,0.411436935,0.83080842,-0.374083515
1764511036.1816788,-1.41918,3.69292,0.6103999999999999,0.411436935,0.83080842,-0.374083515
1764511036.1816788,-1.41918,3.69292,0.6103999999999999,0.411436935,0.83080842,-0.374083515
1764511036.1816788,-1.41918,3.69292,0.6103999999999999,0.411436935,0.83080842,-0.374083515
1764511036.1816788,-1.41918,3.69292,0.6103999999999999,0.411436935,0.83080842,-0.374083515
1764511036.1816788,-1.41918,3.69292,0.6103999999999999,0.411436935,0.83080842,-0.374083515
1764511036.1816788,-1.41918,3.69292,0.6103999999999999,0.411436935,0.83080842,-0.374083515
1764511036.2250755,-1.23606,3.76922,0.42728,0.411314865,0.831235665,-0.37329006
1764511036.2250755,-1.23606,3.76922,0.42728,0.411314865,0.831235665,-0.37329006
1764511036.2250755,-1.23606,3.76922,0.42728,0.411314865,0.831235665,-0.37329006
1764511036.2250755,-1.23606,3.76922,0.42728,0.411314865,0.831235665,-0.37329006
1764511036.2250755,-1.23606,3.76922,0.42728,0.411314865,0.831235665,-0.37329006
1764511036.2250755,-1.23606,3.76922,0.42728,0.411314865,0.831235665,-0.37329006
1764511036.2250755,-1.23606,3.76922,0.42728,0.411314865,0.831235665,-0.37329006
1764511036.2250755,-1.23606,3.76922,0.42728,0.411314865,0.831235665,-0.37329006
1764511036.2250755,-1.23606,3.76922,0.42728,0.411314865,0.831235665,-0.37329006
1764511036.2250755,-1.23606,3.76922,0.42728,0.411314865,0.831235665,-0.37329006
1764511036.2260962,-1.46496,3.64714,0.51884,0.411436935,0.83080842,-0.372740745
1764511036.2260962,-1.46496,3.64714,0.51884,0.411436935,0.83080842,-0.372740745
1764511036.2260962,-1.46496,3.64714,0.51884,0.411436935,0.83080842,-0.372740745
1764511036.2260962,-1.46496,3.64714,0.51884,0.411436935,0.83080842,-0.372740745
1764511036.2260962,-1.46496,3.64714,0.51884,0.411436935,0.83080842,-0.372740745
1764511036.2260962,-1.46496,3.64714,0.51884,0.411436935,0.83080842,-0.372740745
1764511036.2260962,-1.46496,3.64714,0.51884,0.411436935,0.83080842,-0.372740745
1764511036.2260962,-1.46496,3.64714,0.51884,0.411436935,0.83080842,-0.372740745
1764511036.2260962,-1.46496,3.64714,0.51884,0.411436935,0.83080842,-0.372740745
1764511036.2260962,-1.46496,3.64714,0.51884,0.411436935,0.83080842,-0.372740745
1764511036.2260962,-0.9919,3.72344,0.77826,0.4113759,0.83032014,-0.372252465
1764511036.2260962,-0.9919,3.72344,0.77826,0.4113759,0.83032014,-0.372252465
1764511036.2260962,-0.9919,3.72344,0.77826,0.4113759,0.83032014,-0.372252465
1764511036.2260962,-0.9919,3.72344,0.77826,0.4113759,0.83032014,-0.372252465
1764511036.2736504,-0.9919,3.72344,0.77826,0.4113759,0.83032014,-0.372252465
1764511036.2736504,-0.9919,3.72344,0.77826,0.4113759,0.83032014,-0.372252465
1764511036.2736504,-0.9919,3.72344,0.77826,0.4113759,0.83032014,-0.372252465
1764511036.2736504,-0.9919,3.72344,0.77826,0.4113759,0.83032014,-0.372252465
1764511036.2736504,-0.9919,3.72344,0.77826,0.4113759,0.83032014,-0.372252465
1764511036.2736504,-0.9919,3.72344,0.77826,0.4113759,0.83032014,-0.372252465
1764511036.2736504,-0.77826,3.61662,0.7019599999999999,0.41210832,0.83056428,-0.37292385
1764511036.2736504,-0.77826,3.61662,0.7019599999999999,0.41210832,0.83056428,-0.37292385
1764511036.2736504,-0.77826,3.61662,0.7019599999999999,0.41210832,0.83056428,-0.37292385
1764511036.2736504,-0.77826,3.61662,0.7019599999999999,0.41210832,0.83056428,-0.37292385
1764511036.2736504,-0.77826,3.61662,0.7019599999999999,0.41210832,0.83056428,-0.37292385
1764511036.2736504,-0.77826,3.61662,0.7019599999999999,0.41210832,0.83056428,-0.37292385
1764511036.2736504,-0.77826,3.61662,0.7019599999999999,0.41210832,0.83056428,-0.37292385
1764511036.2736504,-0.77826,3.61662,0.7019599999999999,0.41210832,0.83056428,-0.37292385
1764511036.2736504,-0.77826,3.61662,0.7019599999999999,0.41210832,0.83056428,-0.37292385
1764511036.2736504,-0.77826,3.61662,0.7019599999999999,0.41210832,0.83056428,-0.37292385
1764511036.27467,-0.6867,3.46402,1.02242,0.412901775,0.830747385,-0.373595235
1764511036.27467,-0.6867,3.46402,1.02242,0.412901775,0.830747385,-0.373595235
1764511036.27467,-0.6867,3.46402,1.02242,0.412901775,0.830747385,-0.373595235
1764511036.27467,-0.6867,3.46402,1.02242,0.412901775,0.830747385,-0.373595235
1764511036.27467,-0.6867,3.46402,1.02242,0.412901775,0.830747385,-0.373595235
1764511036.27467,-0.6867,3.46402,1.02242,0.412901775,0.830747385,-0.373595235
1764511036.27467,-0.6867,3.46402,1.02242,0.412901775,0.830747385,-0.373595235
1764511036.275667,-0.6867,3.46402,1.02242,0.412901775,0.830747385,-0.373595235
1764511036.3194778,-0.6867,3.46402,1.02242,0.412901775,0.830747385,-0.373595235
1764511036.3194778,-0.6867,3.46402,1.02242,0.412901775,0.830747385,-0.373595235
1764511036.3194778,-1.05294,3.70818,0.65618,0.41125383,0.829526685,-0.373229025
1764511036.3194778,-1.05294,3.70818,0.65618,0.41125383,0.829526685,-0.373229025
1764511036.3194778,-1.05294,3.70818,0.65618,0.41125383,0.829526685,-0.373229025
1764511036.3194778,-1.05294,3.70818,0.65618,0.41125383,0.829526685,-0.373229025
1764511036.3194778,-1.05294,3.70818,0.65618,0.41125383,0.829526685,-0.373229025
1764511036.3194778,-1.05294,3.70818,0.65618,0.41125383,0.829526685,-0.373229025
1764511036.3194778,-1.05294,3.70818,0.65618,0.41125383,0.829526685,-0.373229025
1764511036.3194778,-1.05294,3.70818,0.65618,0.41125383,0.829526685,-0.373229025
1764511036.320506,-1.05294,3.70818,0.65618,0.41125383,0.829526685,-0.373229025
1764511036.320506,-1.05294,3.70818,0.65618,0.41125383,0.829526685,-0.373229025
1764511036.320506,-0.62566,3.83026,0.3357199999999999,0.410338305,0.82958772,-0.375060075
1764511036.320506,-0.62566,3.83026,0.3357199999999999,0.410338305,0.82958772,-0.375060075
1764511036.320506,-0.62566,3.83026,0.3357199999999999,0.410338305,0.82958772,-0.375060075
1764511036.320506,-0.62566,3.83026,0.3357199999999999,0.410338305,0.82958772,-0.375060075
1764511036.320506,-0.62566,3.83026,0.3357199999999999,0.410338305,0.82958772,-0.375060075
1764511036.320506,-0.62566,3.83026,0.3357199999999999,0.410338305,0.82958772,-0.375060075
1764511036.320506,-0.62566,3.83026,0.3357199999999999,0.410338305,0.82958772,-0.375060075
1764511036.320506,-0.62566,3.83026,0.3357199999999999,0.410338305,0.82958772,-0.375060075
1764511036.321035,-0.62566,3.83026,0.3357199999999999,0.410338305,0.82958772,-0.375060075
1764511036.321035,-0.62566,3.83026,0.3357199999999999,0.410338305,0.82958772,-0.375060075
1764511036.3688648,-1.35814,3.55558,0.763,0.41162004,0.832090155,-0.37487697
1764511036.3688648,-1.35814,3.55558,0.763,0.41162004,0.832090155,-0.37487697
1764511036.3688648,-1.35814,3.55558,0.763,0.41162004,0.832090155,-0.37487697
1764511036.3688648,-1.35814,3.55558,0.763,0.41162004,0.832090155,-0.37487697
1764511036.3688648,-1.35814,3.55558,0.763,0.41162004,0.832090155,-0.37487697
1764511036.3688648,-1.35814,3.55558,0.763,0.41162004,0.832090155,-0.37487697
1764511036.3704002,-1.35814,3.55558,0.763,0.41162004,0.832090155,-0.37487697
1764511036.3704002,-1.35814,3.55558,0.763,0.41162004,0.832090155,-0.37487697
1764511036.3704002,-1.35814,3.55558,0.763,0.41162004,0.832090155,-0.37487697
1764511036.3704002,-1.35814,3.55558,0.763,0.41162004,0.832090155,-0.37487697
1764511036.3704002,-1.8312,4.36436,0.85456,0.411436935,0.831479805,-0.37304592
1764511036.3704002,-1.8312,4.36436,0.85456,0.411436935,0.831479805,-0.37304592
1764511036.3704002,-1.8312,4.36436,0.85456,0.411436935,0.831479805,-0.37304592
1764511036.371418,-1.8312,4.36436,0.85456,0.411436935,0.831479805,-0.37304592
1764511036.371418,-1.8312,4.36436,0.85456,0.411436935,0.831479805,-0.37304592
1764511036.371418,-1.8312,4.36436,0.85456,0.411436935,0.831479805,-0.37304592
1764511036.371418,-1.8312,4.36436,0.85456,0.411436935,0.831479805,-0.37304592
1764511036.371418,-1.8312,4.36436,0.85456,0.411436935,0.831479805,-0.37304592
1764511036.3724184,-1.8312,4.36436,0.85456,0.411436935,0.831479805,-0.37304592
1764511036.3724184,-1.8312,4.36436,0.85456,0.411436935,0.831479805,-0.37304592
1764511036.372937,0.09156,3.40298,0.54936,0.410948655,0.828428055,-0.37133694
1764511036.372937,0.09156,3.40298,0.54936,0.410948655,0.828428055,-0.37133694
1764511036.372937,0.09156,3.40298,0.54936,0.410948655,0.828428055,-0.37133694
1764511036.372937,0.09156,3.40298,0.54936,0.410948655,0.828428055,-0.37133694
1764511036.4133074,0.09156,3.40298,0.54936,0.410948655,0.828428055,-0.37133694
1764511036.4133074,0.09156,3.40298,0.54936,0.410948655,0.828428055,-0.37133694
1764511036.4133074,0.09156,3.40298,0.54936,0.410948655,0.828428055,-0.37133694
1764511036.4133074,0.09156,3.40298,0.54936,0.410948655,0.828428055,-0.37133694
1764511036.4133074,0.09156,3.40298,0.54936,0.410948655,0.828428055,-0.37133694
1764511036.4133074,0.09156,3.40298,0.54936,0.410948655,0.828428055,-0.37133694
1764511036.4133074,1.31236,4.1202,0.48832,0.412413495,0.827695635,-0.37280178
1764511036.4133074,1.31236,4.1202,0.48832,0.412413495,0.827695635,-0.37280178
1764511036.4133074,1.31236,4.1202,0.48832,0.412413495,0.827695635,-0.37280178
1764511036.4133074,1.31236,4.1202,0.48832,0.412413495,0.827695635,-0.37280178
1764511036.4133074,1.31236,4.1202,0.48832,0.412413495,0.827695635,-0.37280178
1764511036.4133074,1.31236,4.1202,0.48832,0.412413495,0.827695635,-0.37280178
1764511036.4148495,1.31236,4.1202,0.48832,0.412413495,0.827695635,-0.37280178
1764511036.4148495,1.31236,4.1202,0.48832,0.412413495,0.827695635,-0.37280178
1764511036.4148495,1.31236,4.1202,0.48832,0.412413495,0.827695635,-0.37280178
1764511036.4148495,1.31236,4.1202,0.48832,0.412413495,0.827695635,-0.37280178
1764511036.4148495,-0.10682,4.4254,0.3815,0.412901775,0.8305032450000001,-0.373961445
1764511036.4148495,-0.10682,4.4254,0.3815,0.412901775,0.8305032450000001,-0.373961445
1764511036.4148495,-0.10682,4.4254,0.3815,0.412901775,0.8305032450000001,-0.373961445
1764511036.4148495,-0.10682,4.4254,0.3815,0.412901775,0.8305032450000001,-0.373961445
1764511036.4148495,-0.10682,4.4254,0.3815,0.412901775,0.8305032450000001,-0.373961445
1764511036.4148495,-0.10682,4.4254,0.3815,0.412901775,0.8305032450000001,-0.373961445
1764511036.4148495,-0.10682,4.4254,0.3815,0.412901775,0.8305032450000001,-0.373961445
1764511036.4148495,-0.10682,4.4254,0.3815,0.412901775,0.8305032450000001,-0.373961445
1764511036.4616606,-0.10682,4.4254,0.3815,0.412901775,0.8305032450000001,-0.373961445
1764511036.4616606,-0.10682,4.4254,0.3815,0.412901775,0.8305032450000001,-0.373961445
1764511036.4616606,-1.54126,3.54032,0.57988,0.410826585,0.831968085,-0.374938005
1764511036.4616606,-1.54126,3.54032,0.57988,0.410826585,0.831968085,-0.374938005
1764511036.4616606,-1.54126,3.54032,0.57988,0.410826585,0.831968085,-0.374938005
1764511036.4616606,-1.54126,3.54032,0.57988,0.410826585,0.831968085,-0.374938005
1764511036.4616606,-1.54126,3.54032,0.57988,0.410826585,0.831968085,-0.374938005
1764511036.4616606,-1.54126,3.54032,0.57988,0.410826585,0.831968085,-0.374938005
1764511036.4616606,-1.54126,3.54032,0.57988,0.410826585,0.831968085,-0.374938005
1764511036.4616606,-1.54126,3.54032,0.57988,0.410826585,0.831968085,-0.374938005
1764511036.4616606,-1.54126,3.54032,0.57988,0.410826585,0.831968085,-0.374938005
1764511036.4616606,-1.54126,3.54032,0.57988,0.410826585,0.831968085,-0.374938005
1764511036.4616606,-1.81594,3.21986,0.7019599999999999,0.409972095,0.831601875,-0.374815935
1764511036.4616606,-1.81594,3.21986,0.7019599999999999,0.409972095,0.831601875,-0.374815935
1764511036.4616606,-1.81594,3.21986,0.7019599999999999,0.409972095,0.831601875,-0.374815935
1764511036.4616606,-1.81594,3.21986,0.7019599999999999,0.409972095,0.831601875,-0.374815935
1764511036.4626844,-1.81594,3.21986,0.7019599999999999,0.409972095,0.831601875,-0.374815935
1764511036.4626844,-1.81594,3.21986,0.7019599999999999,0.409972095,0.831601875,-0.374815935
1764511036.4626844,-1.81594,3.21986,0.7019599999999999,0.409972095,0.831601875,-0.374815935
1764511036.4626844,-1.81594,3.21986,0.7019599999999999,0.409972095,0.831601875,-0.374815935
1764511036.4626844,-1.81594,3.21986,0.7019599999999999,0.409972095,0.831601875,-0.374815935
1764511036.4626844,-1.81594,3.21986,0.7019599999999999,0.409972095,0.831601875,-0.374815935
1764511036.4626844,-1.54126,3.61662,0.8698199999999999,0.410826585,0.83068635,-0.37365627
1764511036.4626844,-1.54126,3.61662,0.8698199999999999,0.410826585,0.83068635,-0.37365627
1764511036.511639,-1.54126,3.61662,0.8698199999999999,0.410826585,0.83068635,-0.37365627
1764511036.511639,-1.54126,3.61662,0.8698199999999999,0.410826585,0.83068635,-0.37365627
1764511036.511639,-1.54126,3.61662,0.8698199999999999,0.410826585,0.83068635,-0.37365627
1764511036.511639,-1.54126,3.61662,0.8698199999999999,0.410826585,0.83068635,-0.37365627
1764511036.511639,-1.54126,3.61662,0.8698199999999999,0.410826585,0.83068635,-0.37365627
1764511036.512638,-1.54126,3.61662,0.8698199999999999,0.410826585,0.83068635,-0.37365627
1764511036.512638,-1.54126,3.61662,0.8698199999999999,0.410826585,0.83068635,-0.37365627
1764511036.512638,-1.54126,3.61662,0.8698199999999999,0.410826585,0.83068635,-0.37365627
1764511036.512638,-0.28994,3.7387,0.51884,0.41186418,0.829648755,-0.37365627
1764511036.512638,-0.28994,3.7387,0.51884,0.41186418,0.829648755,-0.37365627
1764511036.512638,-0.28994,3.7387,0.51884,0.41186418,0.829648755,-0.37365627
1764511036.512638,-0.28994,3.7387,0.51884,0.41186418,0.829648755,-0.37365627
1764511036.512638,-0.28994,3.7387,0.51884,0.41186418,0.829648755,-0.37365627
1764511036.512638,-0.28994,3.7387,0.51884,0.41186418,0.829648755,-0.37365627
1764511036.512638,-0.28994,3.7387,0.51884,0.41186418,0.829648755,-0.37365627
1764511036.5141504,-0.28994,3.7387,0.51884,0.41186418,0.829648755,-0.37365627
1764511036.514586,-0.28994,3.7387,0.51884,0.41186418,0.829648755,-0.37365627
1764511036.514586,-0.28994,3.7387,0.51884,0.41186418,0.829648755,-0.37365627
1764511036.514586,-0.36624,4.18124,0.25942,0.412779705,0.83068635,-0.373595235
1764511036.514586,-0.36624,4.18124,0.25942,0.412779705,0.83068635,-0.373595235
1764511036.515161,-0.36624,4.18124,0.25942,0.412779705,0.83068635,-0.373595235
1764511036.515161,-0.36624,4.18124,0.25942,0.412779705,0.83068635,-0.373595235
1764511036.515161,-0.36624,4.18124,0.25942,0.412779705,0.83068635,-0.373595235
1764511036.515161,-0.36624,4.18124,0.25942,0.412779705,0.83068635,-0.373595235
1764511036.5586543,-0.36624,4.18124,0.25942,0.412779705,0.83068635,-0.373595235
1764511036.5586543,-0.36624,4.18124,0.25942,0.412779705,0.83068635,-0.373595235
1764511036.5586543,-0.36624,4.18124,0.25942,0.412779705,0.83068635,-0.373595235
1764511036.5586543,-0.36624,4.18124,0.25942,0.412779705,0.83068635,-0.373595235
1764511036.5586543,-0.6409199999999999,3.4335,0.5341,0.41186418,0.83166291,-0.373595235
1764511036.5586543,-0.6409199999999999,3.4335,0.5341,0.41186418,0.83166291,-0.373595235
1764511036.5586543,-0.6409199999999999,3.4335,0.5341,0.41186418,0.83166291,-0.373595235
1764511036.5586543,-0.6409199999999999,3.4335,0.5341,0.41186418,0.83166291,-0.373595235
1764511036.5586543,-0.6409199999999999,3.4335,0.5341,0.41186418,0.83166291,-0.373595235
1764511036.5586543,-0.6409199999999999,3.4335,0.5341,0.41186418,0.83166291,-0.373595235
1764511036.5586543,-0.6409199999999999,3.4335,0.5341,0.41186418,0.83166291,-0.373595235
1764511036.5586543,-0.6409199999999999,3.4335,0.5341,0.41186418,0.83166291,-0.373595235
1764511036.560177,-0.6409199999999999,3.4335,0.5341,0.41186418,0.83166291,-0.373595235
1764511036.560177,-0.6409199999999999,3.4335,0.5341,0.41186418,0.83166291,-0.373595235
1764511036.560177,-1.12924,4.13546,0.50358,0.411681075,0.8312967,-0.37377834
1764511036.560177,-1.12924,4.13546,0.50358,0.411681075,0.8312967,-0.37377834
1764511036.560177,-1.12924,4.13546,0.50358,0.411681075,0.8312967,-0.37377834
1764511036.560177,-1.12924,4.13546,0.50358,0.411681075,0.8312967,-0.37377834
1764511036.560177,-1.12924,4.13546,0.50358,0.411681075,0.8312967,-0.37377834
1764511036.560177,-1.12924,4.13546,0.50358,0.411681075,0.8312967,-0.37377834
1764511036.560177,-1.12924,4.13546,0.50358,0.411681075,0.8312967,-0.37377834
1764511036.560177,-1.12924,4.13546,0.50358,0.411681075,0.8312967,-0.37377834
1764511036.560177,-1.12924,4.13546,0.50358,0.411681075,0.8312967,-0.37377834
1764511036.560177,-1.12924,4.13546,0.50358,0.411681075,0.8312967,-0.37377834
1764511036.6044734,-0.65618,3.93708,0.57988,0.41125383,0.83056428,-0.37267971
1764511036.6044734,-0.65618,3.93708,0.57988,0.41125383,0.83056428,-0.37267971
1764511036.6044734,-0.65618,3.93708,0.57988,0.41125383,0.83056428,-0.37267971
1764511036.6044734,-0.65618,3.93708,0.57988,0.41125383,0.83056428,-0.37267971
1764511036.6044734,-0.65618,3.93708,0.57988,0.41125383,0.83056428,-0.37267971
1764511036.6054866,-0.65618,3.93708,0.57988,0.41125383,0.83056428,-0.37267971
1764511036.6054866,-0.65618,3.93708,0.57988,0.41125383,0.83056428,-0.37267971
1764511036.6054866,-0.65618,3.93708,0.57988,0.41125383,0.83056428,-0.37267971
1764511036.6054866,-0.65618,3.93708,0.57988,0.41125383,0.83056428,-0.37267971
1764511036.6054866,-0.65618,3.93708,0.57988,0.41125383,0.83056428,-0.37267971
1764511036.6054866,-0.44254,3.54032,0.09156,0.410948655,0.82909944,-0.373473165
1764511036.6054866,-0.44254,3.54032,0.09156,0.410948655,0.82909944,-0.373473165
1764511036.6054866,-0.44254,3.54032,0.09156,0.410948655,0.82909944,-0.373473165
1764511036.6054866,-0.44254,3.54032,0.09156,0.410948655,0.82909944,-0.373473165
1764511036.6054866,-0.44254,3.54032,0.09156,0.410948655,0.82909944,-0.373473165
1764511036.6054866,-0.44254,3.54032,0.09156,0.410948655,0.82909944,-0.373473165
1764511036.6054866,-0.44254,3.54032,0.09156,0.410948655,0.82909944,-0.373473165
1764511036.6054866,-0.44254,3.54032,0.09156,0.410948655,0.82909944,-0.373473165
1764511036.6054866,-0.44254,3.54032,0.09156,0.410948655,0.82909944,-0.373473165
1764511036.6054866,-0.44254,3.54032,0.09156,0.410948655,0.82909944,-0.373473165
1764511036.6054866,-0.9003399999999999,4.303319999999999,0.9156,0.41223039,0.83080842,-0.373595235
1764511036.6054866,-0.9003399999999999,4.303319999999999,0.9156,0.41223039,0.83080842,-0.373595235
1764511036.6494794,-0.9003399999999999,4.303319999999999,0.9156,0.41223039,0.83080842,-0.373595235
1764511036.6494794,-0.9003399999999999,4.303319999999999,0.9156,0.41223039,0.83080842,-0.373595235
1764511036.6494794,-0.9003399999999999,4.303319999999999,0.9156,0.41223039,0.83080842,-0.373595235
1764511036.6494794,-0.9003399999999999,4.303319999999999,0.9156,0.41223039,0.83080842,-0.373595235
1764511036.6494794,-0.9003399999999999,4.303319999999999,0.9156,0.41223039,0.83080842,-0.373595235
1764511036.6494794,-0.9003399999999999,4.303319999999999,0.9156,0.41223039,0.83080842,-0.373595235
1764511036.6494794,-0.9003399999999999,4.303319999999999,0.9156,0.41223039,0.83080842,-0.373595235
1764511036.6494794,-0.9003399999999999,4.303319999999999,0.9156,0.41223039,0.83080842,-0.373595235
1764511036.6494794,-0.94612,3.83026,0.763,0.41186418,0.82958772,-0.37280178
1764511036.6494794,-0.94612,3.83026,0.763,0.41186418,0.82958772,-0.37280178
1764511036.6504705,-0.94612,3.83026,0.763,0.41186418,0.82958772,-0.37280178
1764511036.6504705,-0.94612,3.83026,0.763,0.41186418,0.82958772,-0.37280178
1764511036.6504705,-0.94612,3.83026,0.763,0.41186418,0.82958772,-0.37280178
1764511036.6504705,-0.94612,3.83026,0.763,0.41186418,0.82958772,-0.37280178
1764511036.6504705,-0.94612,3.83026,0.763,0.41186418,0.82958772,-0.37280178
1764511036.6504705,-0.94612,3.83026,0.763,0.41186418,0.82958772,-0.37280178
1764511036.6504705,-0.94612,3.83026,0.763,0.41186418,0.82958772,-0.37280178
1764511036.6504705,-0.94612,3.83026,0.763,0.41186418,0.82958772,-0.37280178
1764511036.6504705,0.27468,3.69292,0.42728,0.41149797,0.82861116,-0.373595235
1764511036.6504705,0.27468,3.69292,0.42728,0.41149797,0.82861116,-0.373595235
1764511036.6504705,0.27468,3.69292,0.42728,0.41149797,0.82861116,-0.373595235
1764511036.6504705,0.27468,3.69292,0.42728,0.41149797,0.82861116,-0.373595235
1764511036.6954486,0.27468,3.69292,0.42728,0.41149797,0.82861116,-0.373595235
1764511036.6954486,0.27468,3.69292,0.42728,0.41149797,0.82861116,-0.373595235
1764511036.6954486,0.27468,3.69292,0.42728,0.41149797,0.82861116,-0.373595235
1764511036.6954486,0.27468,3.69292,0.42728,0.41149797,0.82861116,-0.373595235
1764511036.6954486,0.27468,3.69292,0.42728,0.41149797,0.82861116,-0.373595235
1764511036.6954486,0.27468,3.69292,0.42728,0.41149797,0.82861116,-0.373595235
1764511036.6954486,-0.0762999999999999,4.25754,0.4578,0.41223039,0.831113595,-0.37438869
1764511036.6954486,-0.0762999999999999,4.25754,0.4578,0.41223039,0.831113595,-0.37438869
1764511036.6954486,-0.0762999999999999,4.25754,0.4578,0.41223039,0.831113595,-0.37438869
1764511036.6954486,-0.0762999999999999,4.25754,0.4578,0.41223039,0.831113595,-0.37438869
1764511036.6954486,-0.0762999999999999,4.25754,0.4578,0.41223039,0.831113595,-0.37438869
1764511036.6954486,-0.0762999999999999,4.25754,0.4578,0.41223039,0.831113595,-0.37438869
1764511036.6954486,-0.0762999999999999,4.25754,0.4578,0.41223039,0.831113595,-0.37438869
1764511036.6954486,-0.0762999999999999,4.25754,0.4578,0.41223039,0.831113595,-0.37438869
1764511036.6954486,-0.0762999999999999,4.25754,0.4578,0.41223039,0.831113595,-0.37438869
1764511036.6954486,-0.0762999999999999,4.25754,0.4578,0.41223039,0.831113595,-0.37438869
1764511036.6954486,-0.77826,3.8913,0.44254,0.411314865,0.8336160300000001,-0.374815935
1764511036.6954486,-0.77826,3.8913,0.44254,0.411314865,0.8336160300000001,-0.374815935
1764511036.6954486,-0.77826,3.8913,0.44254,0.411314865,0.8336160300000001,-0.374815935
1764511036.6954486,-0.77826,3.8913,0.44254,0.411314865,0.8336160300000001,-0.374815935
1764511036.6984408,-0.77826,3.8913,0.44254,0.411314865,0.8336160300000001,-0.374815935
1764511036.6984408,-0.77826,3.8913,0.44254,0.411314865,0.8336160300000001,-0.374815935
1764511036.6984408,-0.77826,3.8913,0.44254,0.411314865,0.8336160300000001,-0.374815935
1764511036.6984408,-0.77826,3.8913,0.44254,0.411314865,0.8336160300000001,-0.374815935
1764511036.7420356,-0.77826,3.8913,0.44254,0.411314865,0.8336160300000001,-0.374815935
1764511036.7420356,-0.77826,3.8913,0.44254,0.411314865,0.8336160300000001,-0.374815935
1764511036.7420356,-2.289,4.10494,0.47306,0.410338305,0.833677065,-0.374327655
1764511036.7420356,-2.289,4.10494,0.47306,0.410338305,0.833677065,-0.374327655
1764511036.7450144,-2.289,4.10494,0.47306,0.410338305,0.833677065,-0.374327655
1764511036.7450144,-2.289,4.10494,0.47306,0.410338305,0.833677065,-0.374327655
1764511036.7450144,-2.289,4.10494,0.47306,0.410338305,0.833677065,-0.374327655
1764511036.7450144,-2.289,4.10494,0.47306,0.410338305,0.833677065,-0.374327655
1764511036.7450144,-2.289,4.10494,0.47306,0.410338305,0.833677065,-0.374327655
1764511036.746018,-2.289,4.10494,0.47306,0.410338305,0.833677065,-0.374327655
1764511036.746018,-2.289,4.10494,0.47306,0.410338305,0.833677065,-0.374327655
1764511036.746018,-2.289,4.10494,0.47306,0.410338305,0.833677065,-0.374327655
1764511036.746018,-2.30426,4.13546,1.15976,0.409361745,0.831601875,-0.37365627
1764511036.746018,-2.30426,4.13546,1.15976,0.409361745,0.831601875,-0.37365627
1764511036.746018,-2.30426,4.13546,1.15976,0.409361745,0.831601875,-0.37365627
1764511036.746018,-2.30426,4.13546,1.15976,0.409361745,0.831601875,-0.37365627
1764511036.746018,-2.30426,4.13546,1.15976,0.409361745,0.831601875,-0.37365627
1764511036.746018,-2.30426,4.13546,1.15976,0.409361745,0.831601875,-0.37365627
1764511036.746018,-2.30426,4.13546,1.15976,0.409361745,0.831601875,-0.37365627
1764511036.746018,-2.30426,4.13546,1.15976,0.409361745,0.831601875,-0.37365627
1764511036.746018,-2.30426,4.13546,1.15976,0.409361745,0.831601875,-0.37365627
1764511036.746018,-2.30426,4.13546,1.15976,0.409361745,0.831601875,-0.37365627
1764511036.746018,-1.02242,3.55558,0.9156,0.409605885,0.82909944,-0.372130395
1764511036.746018,-1.02242,3.55558,0.9156,0.409605885,0.82909944,-0.372130395
1764511036.790316,-1.02242,3.55558,0.9156,0.409605885,0.82909944,-0.372130395
1764511036.790316,-1.02242,3.55558,0.9156,0.409605885,0.82909944,-0.372130395
1764511036.790316,-1.02242,3.55558,0.9156,0.409605885,0.82909944,-0.372130395
1764511036.790316,-1.02242,3.55558,0.9156,0.409605885,0.82909944,-0.372130395
1764511036.790316,-1.02242,3.55558,0.9156,0.409605885,0.82909944,-0.372130395
1764511036.791626,-1.02242,3.55558,0.9156,0.409605885,0.82909944,-0.372130395
1764511036.791626,-1.02242,3.55558,0.9156,0.409605885,0.82909944,-0.372130395
1764511036.791626,-1.02242,3.55558,0.9156,0.409605885,0.82909944,-0.372130395
1764511036.791626,-0.59514,3.60136,0.7019599999999999,0.411681075,0.829038405,-0.37182522
1764511036.791626,-0.59514,3.60136,0.7019599999999999,0.411681075,0.829038405,-0.37182522
1764511036.791626,-0.59514,3.60136,0.7019599999999999,0.411681075,0.829038405,-0.37182522
1764511036.791626,-0.59514,3.60136,0.7019599999999999,0.411681075,0.829038405,-0.37182522
1764511036.791626,-0.59514,3.60136,0.7019599999999999,0.411681075,0.829038405,-0.37182522
1764511036.791626,-0.59514,3.60136,0.7019599999999999,0.411681075,0.829038405,-0.37182522
1764511036.791626,-0.59514,3.60136,0.7019599999999999,0.411681075,0.829038405,-0.37182522
1764511036.791626,-0.59514,3.60136,0.7019599999999999,0.411681075,0.829038405,-0.37182522
1764511036.791626,-0.59514,3.60136,0.7019599999999999,0.411681075,0.829038405,-0.37182522
1764511036.792621,-0.59514,3.60136,0.7019599999999999,0.411681075,0.829038405,-0.37182522
1764511036.792621,0.10682,3.49454,0.8698199999999999,0.41271867,0.829892895,-0.37170315
1764511036.792621,0.10682,3.49454,0.8698199999999999,0.41271867,0.829892895,-0.37170315
1764511036.792621,0.10682,3.49454,0.8698199999999999,0.41271867,0.829892895,-0.37170315
1764511036.792621,0.10682,3.49454,0.8698199999999999,0.41271867,0.829892895,-0.37170315
1764511036.792621,0.10682,3.49454,0.8698199999999999,0.41271867,0.829892895,-0.37170315
1764511036.792621,0.10682,3.49454,0.8698199999999999,0.41271867,0.829892895,-0.37170315
1764511036.8389888,0.10682,3.49454,0.8698199999999999,0.41271867,0.829892895,-0.37170315
1764511036.8389888,0.10682,3.49454,0.8698199999999999,0.41271867,0.829892895,-0.37170315
1764511036.8389888,0.10682,3.49454,0.8698199999999999,0.41271867,0.829892895,-0.37170315
1764511036.8389888,0.10682,3.49454,0.8698199999999999,0.41271867,0.829892895,-0.37170315
1764511036.8389888,-0.1678599999999999,3.83026,0.77826,0.412291425,0.82946565,-0.3723135
1764511036.8389888,-0.1678599999999999,3.83026,0.77826,0.412291425,0.82946565,-0.3723135
1764511036.8389888,-0.1678599999999999,3.83026,0.77826,0.412291425,0.82946565,-0.3723135
1764511036.8389888,-0.1678599999999999,3.83026,0.77826,0.412291425,0.82946565,-0.3723135
1764511036.8389888,-0.1678599999999999,3.83026,0.77826,0.412291425,0.82946565,-0.3723135
1764511036.8389888,-0.1678599999999999,3.83026,0.77826,0.412291425,0.82946565,-0.3723135
1764511036.8389888,-0.1678599999999999,3.83026,0.77826,0.412291425,0.82946565,-0.3723135
1764511036.8389888,-0.1678599999999999,3.83026,0.77826,0.412291425,0.82946565,-0.3723135
1764511036.8389888,-0.1678599999999999,3.83026,0.77826,0.412291425,0.82946565,-0.3723135
1764511036.8389888,-0.1678599999999999,3.83026,0.77826,0.412291425,0.82946565,-0.3723135
1764511036.8389888,-0.51884,4.1965,1.03768,0.412291425,0.829770825,-0.373961445
1764511036.8389888,-0.51884,4.1965,1.03768,0.412291425,0.829770825,-0.373961445
1764511036.8389888,-0.51884,4.1965,1.03768,0.412291425,0.829770825,-0.373961445
1764511036.8389888,-0.51884,4.1965,1.03768,0.412291425,0.829770825,-0.373961445
1764511036.8843057,-0.51884,4.1965,1.03768,0.412291425,0.829770825,-0.373961445
1764511036.8852613,-0.51884,4.1965,1.03768,0.412291425,0.829770825,-0.373961445
1764511036.8852613,-0.51884,4.1965,1.03768,0.412291425,0.829770825,-0.373961445
1764511036.8852613,-0.51884,4.1965,1.03768,0.412291425,0.829770825,-0.373961445
1764511036.8852613,-0.51884,4.1965,1.03768,0.412291425,0.829770825,-0.373961445
1764511036.8852613,-0.51884,4.1965,1.03768,0.412291425,0.829770825,-0.373961445
1764511036.8852613,-1.08346,4.1202,0.42728,0.41186418,0.831357735,-0.375304215
1764511036.8852613,-1.08346,4.1202,0.42728,0.41186418,0.831357735,-0.375304215
1764511036.8852613,-1.08346,4.1202,0.42728,0.41186418,0.831357735,-0.375304215
1764511036.8852613,-1.08346,4.1202,0.42728,0.41186418,0.831357735,-0.375304215
1764511036.8852613,-1.08346,4.1202,0.42728,0.41186418,0.831357735,-0.375304215
1764511036.886318,-1.08346,4.1202,0.42728,0.41186418,0.831357735,-0.375304215
1764511036.886318,-1.08346,4.1202,0.42728,0.41186418,0.831357735,-0.375304215
1764511036.886318,-1.08346,4.1202,0.42728,0.41186418,0.831357735,-0.375304215
1764511036.886318,-1.08346,4.1202,0.42728,0.41186418,0.831357735,-0.375304215
1764511036.886318,-1.08346,4.1202,0.42728,0.41186418,0.831357735,-0.375304215
1764511036.886318,-1.8312,3.75396,0.50358,0.41162004,0.831723945,-0.374327655
1764511036.886318,-1.8312,3.75396,0.50358,0.41162004,0.831723945,-0.374327655
1764511036.886318,-1.8312,3.75396,0.50358,0.41162004,0.831723945,-0.374327655
1764511036.886318,-1.8312,3.75396,0.50358,0.41162004,0.831723945,-0.374327655
1764511036.887318,-1.8312,3.75396,0.50358,0.41162004,0.831723945,-0.374327655
1764511036.887318,-1.8312,3.75396,0.50358,0.41162004,0.831723945,-0.374327655
1764511036.887318,-1.8312,3.75396,0.50358,0.41162004,0.831723945,-0.374327655
1764511036.887318,-1.8312,3.75396,0.50358,0.41162004,0.831723945,-0.374327655
1764511036.887318,-1.8312,3.75396,0.50358,0.41162004,0.831723945,-0.374327655
1764511036.887318,-1.8312,3.75396,0.50358,0.41162004,0.831723945,-0.374327655
1764511036.887318,-1.61756,3.7387,1.02242,0.41113176,0.830869455,-0.37341213
1764511036.8883166,-1.61756,3.7387,1.02242,0.41113176,0.830869455,-0.37341213
1764511036.929004,-1.61756,3.7387,1.02242,0.41113176,0.830869455,-0.37341213
1764511036.929004,-1.61756,3.7387,1.02242,0.41113176,0.830869455,-0.37341213
1764511036.929004,-1.61756,3.7387,1.02242,0.41113176,0.830869455,-0.37341213
1764511036.929004,-1.61756,3.7387,1.02242,0.41113176,0.830869455,-0.37341213
1764511036.929004,-1.61756,3.7387,1.02242,0.41113176,0.830869455,-0.37341213
1764511036.929004,-1.61756,3.7387,1.02242,0.41113176,0.830869455,-0.37341213
1764511036.929004,-1.61756,3.7387,1.02242,0.41113176,0.830869455,-0.37341213
1764511036.929004,-1.61756,3.7387,1.02242,0.41113176,0.830869455,-0.37341213
1764511036.929004,-0.73248,3.29616,0.6103999999999999,0.411803145,0.829770825,-0.372496605
1764511036.929004,-0.73248,3.29616,0.6103999999999999,0.411803145,0.829770825,-0.372496605
1764511036.929004,-0.73248,3.29616,0.6103999999999999,0.411803145,0.829770825,-0.372496605
1764511036.929004,-0.73248,3.29616,0.6103999999999999,0.411803145,0.829770825,-0.372496605
1764511036.929004,-0.73248,3.29616,0.6103999999999999,0.411803145,0.829770825,-0.372496605
1764511036.929004,-0.73248,3.29616,0.6103999999999999,0.411803145,0.829770825,-0.372496605
1764511036.929004,-0.73248,3.29616,0.6103999999999999,0.411803145,0.829770825,-0.372496605
1764511036.929004,-0.73248,3.29616,0.6103999999999999,0.411803145,0.829770825,-0.372496605
1764511036.929004,-0.73248,3.29616,0.6103999999999999,0.411803145,0.829770825,-0.372496605
1764511036.929004,-0.73248,3.29616,0.6103999999999999,0.411803145,0.829770825,-0.372496605
1764511036.931527,-0.1678599999999999,4.440659999999999,0.54936,0.41174211,0.829038405,-0.372252465
1764511036.931527,-0.1678599999999999,4.440659999999999,0.54936,0.41174211,0.829038405,-0.372252465
1764511036.931527,-0.1678599999999999,4.440659999999999,0.54936,0.41174211,0.829038405,-0.372252465
1764511036.9325323,-0.1678599999999999,4.440659999999999,0.54936,0.41174211,0.829038405,-0.372252465
1764511036.9768908,-0.1678599999999999,4.440659999999999,0.54936,0.41174211,0.829038405,-0.372252465
1764511036.9768908,-0.1678599999999999,4.440659999999999,0.54936,0.41174211,0.829038405,-0.372252465
1764511036.9768908,-0.1678599999999999,4.440659999999999,0.54936,0.41174211,0.829038405,-0.372252465
1764511036.977889,-0.1678599999999999,4.440659999999999,0.54936,0.41174211,0.829038405,-0.372252465
1764511036.977889,-0.1678599999999999,4.440659999999999,0.54936,0.41174211,0.829038405,-0.372252465
1764511036.977889,-0.1678599999999999,4.440659999999999,0.54936,0.41174211,0.829038405,-0.372252465
1764511036.977889,0.18312,3.70818,0.48832,0.41113176,0.829770825,-0.37280178
1764511036.977889,0.18312,3.70818,0.48832,0.41113176,0.829770825,-0.37280178
1764511036.977889,0.18312,3.70818,0.48832,0.41113176,0.829770825,-0.37280178
1764511036.977889,0.18312,3.70818,0.48832,0.41113176,0.829770825,-0.37280178
1764511036.977889,0.18312,3.70818,0.48832,0.41113176,0.829770825,-0.37280178
1764511036.977889,0.18312,3.70818,0.48832,0.41113176,0.829770825,-0.37280178
1764511036.979403,0.18312,3.70818,0.48832,0.41113176,0.829770825,-0.37280178
1764511036.979403,0.18312,3.70818,0.48832,0.41113176,0.829770825,-0.37280178
1764511036.979403,0.18312,3.70818,0.48832,0.41113176,0.829770825,-0.37280178
1764511036.979403,0.18312,3.70818,0.48832,0.41113176,0.829770825,-0.37280178
1764511036.979403,-0.2289,3.61662,0.85456,0.410826585,0.8305032450000001,-0.37304592
1764511036.979403,-0.2289,3.61662,0.85456,0.410826585,0.8305032450000001,-0.37304592
1764511036.979403,-0.2289,3.61662,0.85456,0.410826585,0.8305032450000001,-0.37304592
1764511036.979403,-0.2289,3.61662,0.85456,0.410826585,0.8305032450000001,-0.37304592
1764511036.9799454,-0.2289,3.61662,0.85456,0.410826585,0.8305032450000001,-0.37304592
1764511036.9799454,-0.2289,3.61662,0.85456,0.410826585,0.8305032450000001,-0.37304592
1764511036.9799454,-0.2289,3.61662,0.85456,0.410826585,0.8305032450000001,-0.37304592
1764511036.9799454,-0.2289,3.61662,0.85456,0.410826585,0.8305032450000001,-0.37304592
1764511037.0196826,-0.2289,3.61662,0.85456,0.410826585,0.8305032450000001,-0.37304592
1764511037.0206983,-0.2289,3.61662,0.85456,0.410826585,0.8305032450000001,-0.37304592
1764511037.0206983,-0.0762999999999999,3.61662,0.54936,0.410704515,0.83068635,-0.372984885
1764511037.0206983,-0.0762999999999999,3.61662,0.54936,0.410704515,0.83068635,-0.372984885
1764511037.0206983,-0.0762999999999999,3.61662,0.54936,0.410704515,0.83068635,-0.372984885
1764511037.0206983,-0.0762999999999999,3.61662,0.54936,0.410704515,0.83068635,-0.372984885
1764511037.0206983,-0.0762999999999999,3.61662,0.54936,0.410704515,0.83068635,-0.372984885
1764511037.0206983,-0.0762999999999999,3.61662,0.54936,0.410704515,0.83068635,-0.372984885
1764511037.0206983,-0.0762999999999999,3.61662,0.54936,0.410704515,0.83068635,-0.372984885
1764511037.0206983,-0.0762999999999999,3.61662,0.54936,0.410704515,0.83068635,-0.372984885
1764511037.0217776,-0.0762999999999999,3.61662,0.54936,0.410704515,0.83068635,-0.372984885
1764511037.0217776,-0.0762999999999999,3.61662,0.54936,0.410704515,0.83068635,-0.372984885
1764511037.0217776,-0.25942,3.31142,0.88508,0.41076555,0.831235665,-0.37316799
1764511037.0217776,-0.25942,3.31142,0.88508,0.41076555,0.831235665,-0.37316799
1764511037.0217776,-0.25942,3.31142,0.88508,0.41076555,0.831235665,-0.37316799
1764511037.0217776,-0.25942,3.31142,0.88508,0.41076555,0.831235665,-0.37316799
1764511037.0217776,-0.25942,3.31142,0.88508,0.41076555,0.831235665,-0.37316799
1764511037.0217776,-0.25942,3.31142,0.88508,0.41076555,0.831235665,-0.37316799
1764511037.0217776,-0.25942,3.31142,0.88508,0.41076555,0.831235665,-0.37316799
1764511037.0217776,-0.25942,3.31142,0.88508,0.41076555,0.831235665,-0.37316799
1764511037.0217776,-0.25942,3.31142,0.88508,0.41076555,0.831235665,-0.37316799
1764511037.0217776,-0.25942,3.31142,0.88508,0.41076555,0.831235665,-0.37316799
1764511037.0217776,-1.0682,3.92182,0.77826,0.410826585,0.83300568,-0.372740745
1764511037.0217776,-1.0682,3.92182,0.77826,0.410826585,0.83300568,-0.372740745
1764511037.0691907,-1.0682,3.92182,0.77826,0.410826585,0.83300568,-0.372740745
1764511037.0691907,-1.0682,3.92182,0.77826,0.410826585,0.83300568,-0.372740745
1764511037.0691907,-1.0682,3.92182,0.77826,0.410826585,0.83300568,-0.372740745
1764511037.0691907,-1.0682,3.92182,0.77826,0.410826585,0.83300568,-0.372740745
1764511037.0691907,-1.0682,3.92182,0.77826,0.410826585,0.83300568,-0.372740745
1764511037.0691907,-1.0682,3.92182,0.77826,0.410826585,0.83300568,-0.372740745
1764511037.0691907,-1.0682,3.92182,0.77826,0.410826585,0.83300568,-0.372740745
1764511037.0691907,-1.0682,3.92182,0.77826,0.410826585,0.83300568,-0.372740745
1764511037.0691907,-1.12924,3.38772,0.6714399999999999,0.411436935,0.832822575,-0.372496605
1764511037.0691907,-1.12924,3.38772,0.6714399999999999,0.411436935,0.832822575,-0.372496605
1764511037.0691907,-1.12924,3.38772,0.6714399999999999,0.411436935,0.832822575,-0.372496605
1764511037.0691907,-1.12924,3.38772,0.6714399999999999,0.411436935,0.832822575,-0.372496605
1764511037.0691907,-1.12924,3.38772,0.6714399999999999,0.411436935,0.832822575,-0.372496605
1764511037.0691907,-1.12924,3.38772,0.6714399999999999,0.411436935,0.832822575,-0.372496605
1764511037.0691907,-1.12924,3.38772,0.6714399999999999,0.411436935,0.832822575,-0.372496605
1764511037.0691907,-1.12924,3.38772,0.6714399999999999,0.411436935,0.832822575,-0.372496605
1764511037.0691907,-1.12924,3.38772,0.6714399999999999,0.411436935,0.832822575,-0.372496605
1764511037.0691907,-1.12924,3.38772,0.6714399999999999,0.411436935,0.832822575,-0.372496605
1764511037.0691907,-1.51074,3.67766,0.6409199999999999,0.413267985,0.83215119,-0.372374535
1764511037.0691907,-1.51074,3.67766,0.6409199999999999,0.413267985,0.83215119,-0.372374535
1764511037.0691907,-1.51074,3.67766,0.6409199999999999,0.413267985,0.83215119,-0.372374535
1764511037.070732,-1.51074,3.67766,0.6409199999999999,0.413267985,0.83215119,-0.372374535
1764511037.070732,-1.51074,3.67766,0.6409199999999999,0.413267985,0.83215119,-0.372374535
1764511037.070732,-1.51074,3.67766,0.6409199999999999,0.413267985,0.83215119,-0.372374535
1764511037.1142137,-1.51074,3.67766,0.6409199999999999,0.413267985,0.83215119,-0.372374535
1764511037.1142137,-1.51074,3.67766,0.6409199999999999,0.413267985,0.83215119,-0.372374535
1764511037.1142137,-1.51074,3.67766,0.6409199999999999,0.413267985,0.83215119,-0.372374535
1764511037.1142137,-1.51074,3.67766,0.6409199999999999,0.413267985,0.83215119,-0.372374535
1764511037.1142137,-0.65618,4.15072,1.23606,0.41332902,0.83068635,-0.37194729
1764511037.1142137,-0.65618,4.15072,1.23606,0.41332902,0.83068635,-0.37194729
1764511037.1142137,-0.65618,4.15072,1.23606,0.41332902,0.83068635,-0.37194729
1764511037.1142137,-0.65618,4.15072,1.23606,0.41332902,0.83068635,-0.37194729
1764511037.1142137,-0.65618,4.15072,1.23606,0.41332902,0.83068635,-0.37194729
1764511037.1142137,-0.65618,4.15072,1.23606,0.41332902,0.83068635,-0.37194729
1764511037.1142137,-0.65618,4.15072,1.23606,0.41332902,0.83068635,-0.37194729
1764511037.1152265,-0.65618,4.15072,1.23606,0.41332902,0.83068635,-0.37194729
1764511037.1152265,-0.65618,4.15072,1.23606,0.41332902,0.83068635,-0.37194729
1764511037.1152265,-0.65618,4.15072,1.23606,0.41332902,0.83068635,-0.37194729
1764511037.1152265,-0.56462,3.70818,0.77826,0.4125966,0.829770825,-0.37255764
1764511037.1152265,-0.56462,3.70818,0.77826,0.4125966,0.829770825,-0.37255764
1764511037.1152265,-0.56462,3.70818,0.77826,0.4125966,0.829770825,-0.37255764
1764511037.1152265,-0.56462,3.70818,0.77826,0.4125966,0.829770825,-0.37255764
1764511037.1152265,-0.56462,3.70818,0.77826,0.4125966,0.829770825,-0.37255764
1764511037.1162343,-0.56462,3.70818,0.77826,0.4125966,0.829770825,-0.37255764
1764511037.117231,-0.56462,3.70818,0.77826,0.4125966,0.829770825,-0.37255764
1764511037.117231,-0.56462,3.70818,0.77826,0.4125966,0.829770825,-0.37255764
1764511037.1608348,-0.56462,3.70818,0.77826,0.4125966,0.829770825,-0.37255764
1764511037.1608348,-0.56462,3.70818,0.77826,0.4125966,0.829770825,-0.37255764
1764511037.1608348,-0.12208,3.76922,0.59514,0.412047285,0.82934358,-0.373351095
1764511037.1608348,-0.12208,3.76922,0.59514,0.412047285,0.82934358,-0.373351095
1764511037.1608348,-0.12208,3.76922,0.59514,0.412047285,0.82934358,-0.373351095
1764511037.1608348,-0.12208,3.76922,0.59514,0.412047285,0.82934358,-0.373351095
1764511037.1608348,-0.12208,3.76922,0.59514,0.412047285,0.82934358,-0.373351095
1764511037.1608348,-0.12208,3.76922,0.59514,0.412047285,0.82934358,-0.373351095
1764511037.1628485,-0.12208,3.76922,0.59514,0.412047285,0.82934358,-0.373351095
1764511037.1628485,-0.12208,3.76922,0.59514,0.412047285,0.82934358,-0.373351095
1764511037.1628485,-0.12208,3.76922,0.59514,0.412047285,0.82934358,-0.373351095
1764511037.1628485,-0.12208,3.76922,0.59514,0.412047285,0.82934358,-0.373351095
1764511037.1628485,-0.4578,3.9676,0.9003399999999999,0.411803145,0.8305032450000001,-0.374571795
1764511037.1628485,-0.4578,3.9676,0.9003399999999999,0.411803145,0.8305032450000001,-0.374571795
1764511037.1628485,-0.4578,3.9676,0.9003399999999999,0.411803145,0.8305032450000001,-0.374571795
1764511037.1628485,-0.4578,3.9676,0.9003399999999999,0.411803145,0.8305032450000001,-0.374571795
1764511037.1628485,-0.4578,3.9676,0.9003399999999999,0.411803145,0.8305032450000001,-0.374571795
1764511037.1628485,-0.4578,3.9676,0.9003399999999999,0.411803145,0.8305032450000001,-0.374571795
1764511037.1628485,-0.4578,3.9676,0.9003399999999999,0.411803145,0.8305032450000001,-0.374571795
1764511037.1628485,-0.4578,3.9676,0.9003399999999999,0.411803145,0.8305032450000001,-0.374571795
1764511037.1648517,-0.4578,3.9676,0.9003399999999999,0.411803145,0.8305032450000001,-0.374571795
1764511037.1648517,-0.4578,3.9676,0.9003399999999999,0.411803145,0.8305032450000001,-0.374571795
1764511037.1648517,-0.9156,3.9676,0.6409199999999999,0.410094165,0.830625315,-0.37377834
1764511037.1648517,-0.9156,3.9676,0.6409199999999999,0.410094165,0.830625315,-0.37377834
1764511037.2075431,-0.9156,3.9676,0.6409199999999999,0.410094165,0.830625315,-0.37377834
1764511037.2080646,-0.9156,3.9676,0.6409199999999999,0.410094165,0.830625315,-0.37377834
1764511037.2080646,-0.9156,3.9676,0.6409199999999999,0.410094165,0.830625315,-0.37377834
1764511037.2080646,-0.9156,3.9676,0.6409199999999999,0.410094165,0.830625315,-0.37377834
1764511037.2080646,-0.9156,3.9676,0.6409199999999999,0.410094165,0.830625315,-0.37377834
1764511037.2080646,-0.9156,3.9676,0.6409199999999999,0.410094165,0.830625315,-0.37377834
1764511037.2080646,-0.9156,3.9676,0.6409199999999999,0.410094165,0.830625315,-0.37377834
1764511037.2080646,-0.9156,3.9676,0.6409199999999999,0.410094165,0.830625315,-0.37377834
1764511037.2080646,-0.97664,3.87604,0.82404,0.40930071,0.83117463,-0.37438869
1764511037.2080646,-0.97664,3.87604,0.82404,0.40930071,0.83117463,-0.37438869
1764511037.2080646,-0.97664,3.87604,0.82404,0.40930071,0.83117463,-0.37438869
1764511037.2080646,-0.97664,3.87604,0.82404,0.40930071,0.83117463,-0.37438869
1764511037.2080646,-0.97664,3.87604,0.82404,0.40930071,0.83117463,-0.37438869
1764511037.2080646,-0.97664,3.87604,0.82404,0.40930071,0.83117463,-0.37438869
1764511037.2080646,-0.97664,3.87604,0.82404,0.40930071,0.83117463,-0.37438869
1764511037.2080646,-0.97664,3.87604,0.82404,0.40930071,0.83117463,-0.37438869
1764511037.2080646,-0.97664,3.87604,0.82404,0.40930071,0.83117463,-0.37438869
1764511037.2080646,-0.97664,3.87604,0.82404,0.40930071,0.83117463,-0.37438869
1764511037.2080646,-1.34288,4.16598,0.51884,0.41149797,0.83300568,-0.37390041
1764511037.2080646,-1.34288,4.16598,0.51884,0.41149797,0.83300568,-0.37390041
1764511037.2080646,-1.34288,4.16598,0.51884,0.41149797,0.83300568,-0.37390041
1764511037.2080646,-1.34288,4.16598,0.51884,0.41149797,0.83300568,-0.37390041
1764511037.2557762,-1.34288,4.16598,0.51884,0.41149797,0.83300568,-0.37390041
1764511037.2557762,-1.34288,4.16598,0.51884,0.41149797,0.83300568,-0.37390041
1764511037.2557762,-1.34288,4.16598,0.51884,0.41149797,0.83300568,-0.37390041
1764511037.2557762,-1.34288,4.16598,0.51884,0.41149797,0.83300568,-0.37390041
1764511037.2557762,-1.34288,4.16598,0.51884,0.41149797,0.83300568,-0.37390041
1764511037.2557762,-1.34288,4.16598,0.51884,0.41149797,0.83300568,-0.37390041
1764511037.2557762,-1.02242,3.7387,0.3509799999999999,0.41125383,0.83141877,-0.37170315
1764511037.2557762,-1.02242,3.7387,0.3509799999999999,0.41125383,0.83141877,-0.37170315
1764511037.2557762,-1.02242,3.7387,0.3509799999999999,0.41125383,0.83141877,-0.37170315
1764511037.256789,-1.02242,3.7387,0.3509799999999999,0.41125383,0.83141877,-0.37170315
1764511037.256789,-1.02242,3.7387,0.3509799999999999,0.41125383,0.83141877,-0.37170315
1764511037.256789,-1.02242,3.7387,0.3509799999999999,0.41125383,0.83141877,-0.37170315
1764511037.256789,-1.02242,3.7387,0.3509799999999999,0.41125383,0.83141877,-0.37170315
1764511037.256789,-1.02242,3.7387,0.3509799999999999,0.41125383,0.83141877,-0.37170315
1764511037.256789,-1.02242,3.7387,0.3509799999999999,0.41125383,0.83141877,-0.37170315
1764511037.256789,-1.02242,3.7387,0.3509799999999999,0.41125383,0.83141877,-0.37170315
1764511037.256789,0.56462,3.55558,0.18312,0.411559005,0.828672195,-0.371764185
1764511037.256789,0.56462,3.55558,0.18312,0.411559005,0.828672195,-0.371764185
1764511037.256789,0.56462,3.55558,0.18312,0.411559005,0.828672195,-0.371764185
1764511037.256789,0.56462,3.55558,0.18312,0.411559005,0.828672195,-0.371764185
1764511037.256789,0.56462,3.55558,0.18312,0.411559005,0.828672195,-0.371764185
1764511037.256789,0.56462,3.55558,0.18312,0.411559005,0.828672195,-0.371764185
1764511037.256789,0.56462,3.55558,0.18312,0.411559005,0.828672195,-0.371764185
1764511037.256789,0.56462,3.55558,0.18312,0.411559005,0.828672195,-0.371764185
1764511037.3006947,0.56462,3.55558,0.18312,0.411559005,0.828672195,-0.371764185
1764511037.3006947,0.56462,3.55558,0.18312,0.411559005,0.828672195,-0.371764185
1764511037.3006947,1.0682,4.33384,0.4578,0.414122475,0.8288553,-0.373106955
1764511037.3006947,1.0682,4.33384,0.4578,0.414122475,0.8288553,-0.373106955
1764511037.3006947,1.0682,4.33384,0.4578,0.414122475,0.8288553,-0.373106955
1764511037.3006947,1.0682,4.33384,0.4578,0.414122475,0.8288553,-0.373106955
1764511037.3006947,1.0682,4.33384,0.4578,0.414122475,0.8288553,-0.373106955
1764511037.3006947,1.0682,4.33384,0.4578,0.414122475,0.8288553,-0.373106955
1764511037.3006947,1.0682,4.33384,0.4578,0.414122475,0.8288553,-0.373106955
1764511037.3006947,1.0682,4.33384,0.4578,0.414122475,0.8288553,-0.373106955
1764511037.3006947,1.0682,4.33384,0.4578,0.414122475,0.8288553,-0.373106955
1764511037.3006947,1.0682,4.33384,0.4578,0.414122475,0.8288553,-0.373106955
1764511037.3006947,-0.3815,4.3491,0.50358,0.41308488,0.8315408400000001,-0.374815935
1764511037.3006947,-0.3815,4.3491,0.50358,0.41308488,0.8315408400000001,-0.374815935
1764511037.3006947,-0.3815,4.3491,0.50358,0.41308488,0.8315408400000001,-0.374815935
1764511037.3006947,-0.3815,4.3491,0.50358,0.41308488,0.8315408400000001,-0.374815935
1764511037.3006947,-0.3815,4.3491,0.50358,0.41308488,0.8315408400000001,-0.374815935
1764511037.3006947,-0.3815,4.3491,0.50358,0.41308488,0.8315408400000001,-0.374815935
1764511037.3006947,-0.3815,4.3491,0.50358,0.41308488,0.8315408400000001,-0.374815935
1764511037.3006947,-0.3815,4.3491,0.50358,0.41308488,0.8315408400000001,-0.374815935
1764511037.3006947,-0.3815,4.3491,0.50358,0.41308488,0.8315408400000001,-0.374815935
1764511037.3006947,-0.3815,4.3491,0.50358,0.41308488,0.8315408400000001,-0.374815935
1764511037.3006947,-2.10588,3.84552,0.42728,0.41039934,0.83276154,-0.375304215
1764511037.3006947,-2.10588,3.84552,0.42728,0.41039934,0.83276154,-0.375304215
1764511037.3505845,-2.10588,3.84552,0.42728,0.41039934,0.83276154,-0.375304215
1764511037.3505845,-2.10588,3.84552,0.42728,0.41039934,0.83276154,-0.375304215
1764511037.3505845,-2.10588,3.84552,0.42728,0.41039934,0.83276154,-0.375304215
1764511037.3505845,-2.10588,3.84552,0.42728,0.41039934,0.83276154,-0.375304215
1764511037.3505845,-2.10588,3.84552,0.42728,0.41039934,0.83276154,-0.375304215
1764511037.3505845,-2.10588,3.84552,0.42728,0.41039934,0.83276154,-0.375304215
1764511037.3505845,-2.10588,3.84552,0.42728,0.41039934,0.83276154,-0.375304215
1764511037.3505845,-2.10588,3.84552,0.42728,0.41039934,0.83276154,-0.375304215
1764511037.3505845,-2.7468,3.70818,0.8087799999999999,0.409361745,0.83215119,-0.374327655
1764511037.3505845,-2.7468,3.70818,0.8087799999999999,0.409361745,0.83215119,-0.374327655
1764511037.3505845,-2.7468,3.70818,0.8087799999999999,0.409361745,0.83215119,-0.374327655
1764511037.3505845,-2.7468,3.70818,0.8087799999999999,0.409361745,0.83215119,-0.374327655
1764511037.3505845,-2.7468,3.70818,0.8087799999999999,0.409361745,0.83215119,-0.374327655
1764511037.3505845,-2.7468,3.70818,0.8087799999999999,0.409361745,0.83215119,-0.374327655
1764511037.3505845,-2.7468,3.70818,0.8087799999999999,0.409361745,0.83215119,-0.374327655
1764511037.3505845,-2.7468,3.70818,0.8087799999999999,0.409361745,0.83215119,-0.374327655
1764511037.3505845,-2.7468,3.70818,0.8087799999999999,0.409361745,0.83215119,-0.374327655
1764511037.3505845,-2.7468,3.70818,0.8087799999999999,0.409361745,0.83215119,-0.374327655
1764511037.3505845,-1.61756,3.7387,1.1445,0.410826585,0.829526685,-0.372984885
1764511037.3505845,-1.61756,3.7387,1.1445,0.410826585,0.829526685,-0.372984885
1764511037.3962016,-1.61756,3.7387,1.1445,0.410826585,0.829526685,-0.372984885
1764511037.3962016,-1.61756,3.7387,1.1445,0.410826585,0.829526685,-0.372984885
1764511037.3962016,-1.61756,3.7387,1.1445,0.410826585,0.829526685,-0.372984885
1764511037.3962016,-1.61756,3.7387,1.1445,0.410826585,0.829526685,-0.372984885
1764511037.3962016,-1.61756,3.7387,1.1445,0.410826585,0.829526685,-0.372984885
1764511037.3962016,-1.61756,3.7387,1.1445,0.410826585,0.829526685,-0.372984885
1764511037.3962016,-1.61756,3.7387,1.1445,0.410826585,0.829526685,-0.372984885
1764511037.3962016,-1.61756,3.7387,1.1445,0.410826585,0.829526685,-0.372984885
1764511037.3962016,0.27468,3.92182,0.54936,0.41271867,0.82775667,-0.372008325
1764511037.3962016,0.27468,3.92182,0.54936,0.41271867,0.82775667,-0.372008325
1764511037.3962016,0.27468,3.92182,0.54936,0.41271867,0.82775667,-0.372008325
1764511037.3962016,0.27468,3.92182,0.54936,0.41271867,0.82775667,-0.372008325
1764511037.3962016,0.27468,3.92182,0.54936,0.41271867,0.82775667,-0.372008325
1764511037.3962016,0.27468,3.92182,0.54936,0.41271867,0.82775667,-0.372008325
1764511037.3962016,0.27468,3.92182,0.54936,0.41271867,0.82775667,-0.372008325
1764511037.3962016,0.27468,3.92182,0.54936,0.41271867,0.82775667,-0.372008325
1764511037.3962016,0.27468,3.92182,0.54936,0.41271867,0.82775667,-0.372008325
1764511037.3962016,0.27468,3.92182,0.54936,0.41271867,0.82775667,-0.372008325
1764511037.3962016,0.28994,3.99812,0.85456,0.412779705,0.82909944,-0.3723135
1764511037.3962016,0.28994,3.99812,0.85456,0.412779705,0.82909944,-0.3723135
1764511037.3962016,0.28994,3.99812,0.85456,0.412779705,0.82909944,-0.3723135
1764511037.3962016,0.28994,3.99812,0.85456,0.412779705,0.82909944,-0.3723135
1764511037.3962016,0.28994,3.99812,0.85456,0.412779705,0.82909944,-0.3723135
1764511037.3962016,0.28994,3.99812,0.85456,0.412779705,0.82909944,-0.3723135
1764511037.3962016,0.28994,3.99812,0.85456,0.412779705,0.82909944,-0.3723135
1764511037.3972197,0.28994,3.99812,0.85456,0.412779705,0.82909944,-0.3723135
1764511037.4406488,0.28994,3.99812,0.85456,0.412779705,0.82909944,-0.3723135
1764511037.4406488,0.28994,3.99812,0.85456,0.412779705,0.82909944,-0.3723135
1764511037.4406488,-0.7019599999999999,3.7387,0.59514,0.411436935,0.83117463,-0.372862815
1764511037.4406488,-0.7019599999999999,3.7387,0.59514,0.411436935,0.83117463,-0.372862815
1764511037.4406488,-0.7019599999999999,3.7387,0.59514,0.411436935,0.83117463,-0.372862815
1764511037.4406488,-0.7019599999999999,3.7387,0.59514,0.411436935,0.83117463,-0.372862815
1764511037.4406488,-0.7019599999999999,3.7387,0.59514,0.411436935,0.83117463,-0.372862815
1764511037.4406488,-0.7019599999999999,3.7387,0.59514,0.411436935,0.83117463,-0.372862815
1764511037.4406488,-0.7019599999999999,3.7387,0.59514,0.411436935,0.83117463,-0.372862815
1764511037.4406488,-0.7019599999999999,3.7387,0.59514,0.411436935,0.83117463,-0.372862815
1764511037.4406488,-0.7019599999999999,3.7387,0.59514,0.411436935,0.83117463,-0.372862815
1764511037.4406488,-0.7019599999999999,3.7387,0.59514,0.411436935,0.83117463,-0.372862815
1764511037.4416718,-1.58704,4.13546,0.8087799999999999,0.410948655,0.832090155,-0.373961445
1764511037.4416718,-1.58704,4.13546,0.8087799999999999,0.410948655,0.832090155,-0.373961445
1764511037.4416718,-1.58704,4.13546,0.8087799999999999,0.410948655,0.832090155,-0.373961445
1764511037.4416718,-1.58704,4.13546,0.8087799999999999,0.410948655,0.832090155,-0.373961445
1764511037.4416718,-1.58704,4.13546,0.8087799999999999,0.410948655,0.832090155,-0.373961445
1764511037.4416718,-1.58704,4.13546,0.8087799999999999,0.410948655,0.832090155,-0.373961445
1764511037.4416718,-1.58704,4.13546,0.8087799999999999,0.410948655,0.832090155,-0.373961445
1764511037.4416718,-1.58704,4.13546,0.8087799999999999,0.410948655,0.832090155,-0.373961445
1764511037.4416718,-1.58704,4.13546,0.8087799999999999,0.410948655,0.832090155,-0.373961445
1764511037.4416718,-1.58704,4.13546,0.8087799999999999,0.410948655,0.832090155,-0.373961445
1764511037.4416718,-1.17502,4.059159999999999,1.25132,0.410338305,0.83141877,-0.37292385
1764511037.4416718,-1.17502,4.059159999999999,1.25132,0.410338305,0.83141877,-0.37292385
1764511037.487631,-1.17502,4.059159999999999,1.25132,0.410338305,0.83141877,-0.37292385
1764511037.487631,-1.17502,4.059159999999999,1.25132,0.410338305,0.83141877,-0.37292385
1764511037.487631,-1.17502,4.059159999999999,1.25132,0.410338305,0.83141877,-0.37292385
1764511037.487631,-1.17502,4.059159999999999,1.25132,0.410338305,0.83141877,-0.37292385
1764511037.487631,-1.17502,4.059159999999999,1.25132,0.410338305,0.83141877,-0.37292385
1764511037.487631,-1.17502,4.059159999999999,1.25132,0.410338305,0.83141877,-0.37292385
1764511037.487631,-1.17502,4.059159999999999,1.25132,0.410338305,0.83141877,-0.37292385
1764511037.487631,-1.17502,4.059159999999999,1.25132,0.410338305,0.83141877,-0.37292385
1764511037.487631,-1.77016,3.61662,0.50358,0.41100969,0.82934358,-0.372374535
1764511037.487631,-1.77016,3.61662,0.50358,0.41100969,0.82934358,-0.372374535
1764511037.487631,-1.77016,3.61662,0.50358,0.41100969,0.82934358,-0.372374535
1764511037.487631,-1.77016,3.61662,0.50358,0.41100969,0.82934358,-0.372374535
1764511037.487631,-1.77016,3.61662,0.50358,0.41100969,0.82934358,-0.372374535
1764511037.487631,-1.77016,3.61662,0.50358,0.41100969,0.82934358,-0.372374535
1764511037.487631,-1.77016,3.61662,0.50358,0.41100969,0.82934358,-0.372374535
1764511037.487631,-1.77016,3.61662,0.50358,0.41100969,0.82934358,-0.372374535
1764511037.487631,-1.77016,3.61662,0.50358,0.41100969,0.82934358,-0.372374535
1764511037.487631,-1.77016,3.61662,0.50358,0.41100969,0.82934358,-0.372374535
1764511037.487631,-0.9156,4.08968,1.17502,0.41284074,0.83032014,-0.37194729
1764511037.487631,-0.9156,4.08968,1.17502,0.41284074,0.83032014,-0.37194729
1764511037.4892044,-0.9156,4.08968,1.17502,0.41284074,0.83032014,-0.37194729
1764511037.4892044,-0.9156,4.08968,1.17502,0.41284074,0.83032014,-0.37194729
1764511037.534745,-0.9156,4.08968,1.17502,0.41284074,0.83032014,-0.37194729
1764511037.534745,-0.9156,4.08968,1.17502,0.41284074,0.83032014,-0.37194729
1764511037.534745,-0.9156,4.08968,1.17502,0.41284074,0.83032014,-0.37194729
1764511037.534745,-0.9156,4.08968,1.17502,0.41284074,0.83032014,-0.37194729
1764511037.534745,-0.9156,4.08968,1.17502,0.41284074,0.83032014,-0.37194729
1764511037.534745,-0.9156,4.08968,1.17502,0.41284074,0.83032014,-0.37194729
1764511037.534745,-0.88508,4.18124,0.8698199999999999,0.41235246,0.828428055,-0.371153835
1764511037.534745,-0.88508,4.18124,0.8698199999999999,0.41235246,0.828428055,-0.371153835
1764511037.5357568,-0.88508,4.18124,0.8698199999999999,0.41235246,0.828428055,-0.371153835
1764511037.5357568,-0.88508,4.18124,0.8698199999999999,0.41235246,0.828428055,-0.371153835
1764511037.5357568,-0.88508,4.18124,0.8698199999999999,0.41235246,0.828428055,-0.371153835
1764511037.5357568,-0.88508,4.18124,0.8698199999999999,0.41235246,0.828428055,-0.371153835
1764511037.5357568,-0.88508,4.18124,0.8698199999999999,0.41235246,0.828428055,-0.371153835
1764511037.5357568,-0.88508,4.18124,0.8698199999999999,0.41235246,0.828428055,-0.371153835
1764511037.5357568,-0.88508,4.18124,0.8698199999999999,0.41235246,0.828428055,-0.371153835
1764511037.5357568,-0.88508,4.18124,0.8698199999999999,0.41235246,0.828428055,-0.371153835
1764511037.5357568,0.44254,3.3572,0.6867,0.41174211,0.828305985,-0.371886255
1764511037.5357568,0.44254,3.3572,0.6867,0.41174211,0.828305985,-0.371886255
1764511037.5357568,0.44254,3.3572,0.6867,0.41174211,0.828305985,-0.371886255
1764511037.5357568,0.44254,3.3572,0.6867,0.41174211,0.828305985,-0.371886255
1764511037.5357568,0.44254,3.3572,0.6867,0.41174211,0.828305985,-0.371886255
1764511037.5357568,0.44254,3.3572,0.6867,0.41174211,0.828305985,-0.371886255
1764511037.5357568,0.44254,3.3572,0.6867,0.41174211,0.828305985,-0.371886255
1764511037.5357568,0.44254,3.3572,0.6867,0.41174211,0.828305985,-0.371886255
1764511037.5798893,0.44254,3.3572,0.6867,0.41174211,0.828305985,-0.371886255
1764511037.5798893,0.44254,3.3572,0.6867,0.41174211,0.828305985,-0.371886255
1764511037.580405,0.0762999999999999,3.98286,0.6867,0.413023845,0.83105256,-0.373473165
1764511037.580405,0.0762999999999999,3.98286,0.6867,0.413023845,0.83105256,-0.373473165
1764511037.580405,0.0762999999999999,3.98286,0.6867,0.413023845,0.83105256,-0.373473165
1764511037.580405,0.0762999999999999,3.98286,0.6867,0.413023845,0.83105256,-0.373473165
1764511037.580405,0.0762999999999999,3.98286,0.6867,0.413023845,0.83105256,-0.373473165
1764511037.580405,0.0762999999999999,3.98286,0.6867,0.413023845,0.83105256,-0.373473165
1764511037.580405,0.0762999999999999,3.98286,0.6867,0.413023845,0.83105256,-0.373473165
1764511037.580405,0.0762999999999999,3.98286,0.6867,0.413023845,0.83105256,-0.373473165
1764511037.580405,0.0762999999999999,3.98286,0.6867,0.413023845,0.83105256,-0.373473165
1764511037.580405,0.0762999999999999,3.98286,0.6867,0.413023845,0.83105256,-0.373473165
1764511037.5819433,-0.88508,4.13546,0.44254,0.4125966,0.8325174,-0.37438869
1764511037.5819433,-0.88508,4.13546,0.44254,0.4125966,0.8325174,-0.37438869
1764511037.5819433,-0.88508,4.13546,0.44254,0.4125966,0.8325174,-0.37438869
1764511037.5819433,-0.88508,4.13546,0.44254,0.4125966,0.8325174,-0.37438869
1764511037.5819433,-0.88508,4.13546,0.44254,0.4125966,0.8325174,-0.37438869
1764511037.5819433,-0.88508,4.13546,0.44254,0.4125966,0.8325174,-0.37438869
1764511037.5819433,-0.88508,4.13546,0.44254,0.4125966,0.8325174,-0.37438869
1764511037.5819433,-0.88508,4.13546,0.44254,0.4125966,0.8325174,-0.37438869
1764511037.5819433,-0.88508,4.13546,0.44254,0.4125966,0.8325174,-0.37438869
1764511037.5819433,-0.88508,4.13546,0.44254,0.4125966,0.8325174,-0.37438869
1764511037.5819433,-1.48022,4.3491,0.54936,0.410704515,0.832334295,-0.37402248
1764511037.5819433,-1.48022,4.3491,0.54936,0.410704515,0.832334295,-0.37402248
1764511037.6305227,-1.48022,4.3491,0.54936,0.410704515,0.832334295,-0.37402248
1764511037.6305227,-1.48022,4.3491,0.54936,0.410704515,0.832334295,-0.37402248
1764511037.6315365,-1.48022,4.3491,0.54936,0.410704515,0.832334295,-0.37402248
1764511037.6315365,-1.48022,4.3491,0.54936,0.410704515,0.832334295,-0.37402248
1764511037.6315365,-1.48022,4.3491,0.54936,0.410704515,0.832334295,-0.37402248
1764511037.6315365,-1.48022,4.3491,0.54936,0.410704515,0.832334295,-0.37402248
1764511037.6315365,-1.48022,4.3491,0.54936,0.410704515,0.832334295,-0.37402248
1764511037.6315365,-1.48022,4.3491,0.54936,0.410704515,0.832334295,-0.37402248
1764511037.6315365,-1.64808,3.90656,1.02242,0.4089345,0.830259105,-0.37304592
1764511037.6315365,-1.64808,3.90656,1.02242,0.4089345,0.830259105,-0.37304592
1764511037.6315365,-1.64808,3.90656,1.02242,0.4089345,0.830259105,-0.37304592
1764511037.6315365,-1.64808,3.90656,1.02242,0.4089345,0.830259105,-0.37304592
1764511037.6315365,-1.64808,3.90656,1.02242,0.4089345,0.830259105,-0.37304592
1764511037.6315365,-1.64808,3.90656,1.02242,0.4089345,0.830259105,-0.37304592
1764511037.6315365,-1.64808,3.90656,1.02242,0.4089345,0.830259105,-0.37304592
1764511037.632542,-1.64808,3.90656,1.02242,0.4089345,0.830259105,-0.37304592
1764511037.632542,-1.64808,3.90656,1.02242,0.4089345,0.830259105,-0.37304592
1764511037.632542,-1.64808,3.90656,1.02242,0.4089345,0.830259105,-0.37304592
1764511037.632542,-0.9919,3.41824,1.09872,0.410216235,0.828672195,-0.37182522
1764511037.632542,-0.9919,3.41824,1.09872,0.410216235,0.828672195,-0.37182522
1764511037.632542,-0.9919,3.41824,1.09872,0.410216235,0.828672195,-0.37182522
1764511037.632542,-0.9919,3.41824,1.09872,0.410216235,0.828672195,-0.37182522
1764511037.6809287,-0.9919,3.41824,1.09872,0.410216235,0.828672195,-0.37182522
1764511037.6809287,-0.9919,3.41824,1.09872,0.410216235,0.828672195,-0.37182522
1764511037.6809287,-0.9919,3.41824,1.09872,0.410216235,0.828672195,-0.37182522
1764511037.6809287,-0.9919,3.41824,1.09872,0.410216235,0.828672195,-0.37182522
1764511037.6809287,-0.9919,3.41824,1.09872,0.410216235,0.828672195,-0.37182522
1764511037.6809287,-0.9919,3.41824,1.09872,0.410216235,0.828672195,-0.37182522
1764511037.6819396,-0.27468,3.29616,1.0682,0.413267985,0.82922151,-0.371275905
1764511037.6819396,-0.27468,3.29616,1.0682,0.413267985,0.82922151,-0.371275905
1764511037.6819396,-0.27468,3.29616,1.0682,0.413267985,0.82922151,-0.371275905
1764511037.6819396,-0.27468,3.29616,1.0682,0.413267985,0.82922151,-0.371275905
1764511037.6819396,-0.27468,3.29616,1.0682,0.413267985,0.82922151,-0.371275905
1764511037.6819396,-0.27468,3.29616,1.0682,0.413267985,0.82922151,-0.371275905
1764511037.6819396,-0.27468,3.29616,1.0682,0.413267985,0.82922151,-0.371275905
1764511037.6819396,-0.27468,3.29616,1.0682,0.413267985,0.82922151,-0.371275905
1764511037.6819396,-0.27468,3.29616,1.0682,0.413267985,0.82922151,-0.371275905
1764511037.6819396,-0.27468,3.29616,1.0682,0.413267985,0.82922151,-0.371275905
1764511037.6819396,-0.3509799999999999,3.72344,0.3357199999999999,0.414488685,0.829892895,-0.37145901
1764511037.6819396,-0.3509799999999999,3.72344,0.3357199999999999,0.414488685,0.829892895,-0.37145901
1764511037.6819396,-0.3509799999999999,3.72344,0.3357199999999999,0.414488685,0.829892895,-0.37145901
1764511037.6819396,-0.3509799999999999,3.72344,0.3357199999999999,0.414488685,0.829892895,-0.37145901
1764511037.6819396,-0.3509799999999999,3.72344,0.3357199999999999,0.414488685,0.829892895,-0.37145901
1764511037.6819396,-0.3509799999999999,3.72344,0.3357199999999999,0.414488685,0.829892895,-0.37145901
1764511037.6819396,-0.3509799999999999,3.72344,0.3357199999999999,0.414488685,0.829892895,-0.37145901
1764511037.6819396,-0.3509799999999999,3.72344,0.3357199999999999,0.414488685,0.829892895,-0.37145901
1764511037.6819396,-0.3509799999999999,3.72344,0.3357199999999999,0.414488685,0.829892895,-0.37145901
1764511037.6819396,-0.3509799999999999,3.72344,0.3357199999999999,0.414488685,0.829892895,-0.37145901
1764511037.7254465,-0.9919,3.92182,0.42728,0.41369523,0.8305032450000001,-0.372252465
1764511037.7254465,-0.9919,3.92182,0.42728,0.41369523,0.8305032450000001,-0.372252465
1764511037.7254465,-0.9919,3.92182,0.42728,0.41369523,0.8305032450000001,-0.372252465
1764511037.7254465,-0.9919,3.92182,0.42728,0.41369523,0.8305032450000001,-0.372252465
1764511037.7254465,-0.9919,3.92182,0.42728,0.41369523,0.8305032450000001,-0.372252465
1764511037.7254465,-0.9919,3.92182,0.42728,0.41369523,0.8305032450000001,-0.372252465
1764511037.7254465,-0.9919,3.92182,0.42728,0.41369523,0.8305032450000001,-0.372252465
1764511037.7254465,-0.9919,3.92182,0.42728,0.41369523,0.8305032450000001,-0.372252465
1764511037.7254465,-0.9919,3.92182,0.42728,0.41369523,0.8305032450000001,-0.372252465
1764511037.7254465,-0.9919,3.92182,0.42728,0.41369523,0.8305032450000001,-0.372252465
1764511037.7254465,-0.42728,4.15072,0.44254,0.4125966,0.8299539300000001,-0.372740745
1764511037.7254465,-0.42728,4.15072,0.44254,0.4125966,0.8299539300000001,-0.372740745
1764511037.7254465,-0.42728,4.15072,0.44254,0.4125966,0.8299539300000001,-0.372740745
1764511037.7254465,-0.42728,4.15072,0.44254,0.4125966,0.8299539300000001,-0.372740745
1764511037.7269728,-0.42728,4.15072,0.44254,0.4125966,0.8299539300000001,-0.372740745
1764511037.7269728,-0.42728,4.15072,0.44254,0.4125966,0.8299539300000001,-0.372740745
1764511037.7269728,-0.42728,4.15072,0.44254,0.4125966,0.8299539300000001,-0.372740745
1764511037.7269728,-0.42728,4.15072,0.44254,0.4125966,0.8299539300000001,-0.372740745
1764511037.7269728,-0.42728,4.15072,0.44254,0.4125966,0.8299539300000001,-0.372740745
1764511037.7269728,-0.42728,4.15072,0.44254,0.4125966,0.8299539300000001,-0.372740745
1764511037.7269728,-0.06104,4.0439,0.57988,0.411925215,0.83068635,-0.37280178
1764511037.7269728,-0.06104,4.0439,0.57988,0.411925215,0.83068635,-0.37280178
1764511037.7269728,-0.06104,4.0439,0.57988,0.411925215,0.83068635,-0.37280178
1764511037.7269728,-0.06104,4.0439,0.57988,0.411925215,0.83068635,-0.37280178
1764511037.7709002,-0.06104,4.0439,0.57988,0.411925215,0.83068635,-0.37280178
1764511037.7709002,-0.06104,4.0439,0.57988,0.411925215,0.83068635,-0.37280178
1764511037.7709002,-0.06104,4.0439,0.57988,0.411925215,0.83068635,-0.37280178
1764511037.7709002,-0.06104,4.0439,0.57988,0.411925215,0.83068635,-0.37280178
1764511037.7709002,-0.06104,4.0439,0.57988,0.411925215,0.83068635,-0.37280178
1764511037.7709002,-0.06104,4.0439,0.57988,0.411925215,0.83068635,-0.37280178
1764511037.7709002,-0.59514,4.25754,0.73248,0.411803145,0.8309915250000001,-0.3735342
1764511037.7709002,-0.59514,4.25754,0.73248,0.411803145,0.8309915250000001,-0.3735342
1764511037.7719164,-0.59514,4.25754,0.73248,0.411803145,0.8309915250000001,-0.3735342
1764511037.7719164,-0.59514,4.25754,0.73248,0.411803145,0.8309915250000001,-0.3735342
1764511037.7719164,-0.59514,4.25754,0.73248,0.411803145,0.8309915250000001,-0.3735342
1764511037.7719164,-0.59514,4.25754,0.73248,0.411803145,0.8309915250000001,-0.3735342
1764511037.7719164,-0.59514,4.25754,0.73248,0.411803145,0.8309915250000001,-0.3735342
1764511037.7729163,-0.59514,4.25754,0.73248,0.411803145,0.8309915250000001,-0.3735342
1764511037.7729163,-0.59514,4.25754,0.73248,0.411803145,0.8309915250000001,-0.3735342
1764511037.7729163,-0.59514,4.25754,0.73248,0.411803145,0.8309915250000001,-0.3735342
1764511037.7729163,-1.12924,3.38772,0.47306,0.41149797,0.83032014,-0.37267971
1764511037.7729163,-1.12924,3.38772,0.47306,0.41149797,0.83032014,-0.37267971
1764511037.7729163,-1.12924,3.38772,0.47306,0.41149797,0.83032014,-0.37267971
1764511037.7729163,-1.12924,3.38772,0.47306,0.41149797,0.83032014,-0.37267971
1764511037.7729163,-1.12924,3.38772,0.47306,0.41149797,0.83032014,-0.37267971
1764511037.7729163,-1.12924,3.38772,0.47306,0.41149797,0.83032014,-0.37267971
1764511037.8174095,-1.12924,3.38772,0.47306,0.41149797,0.83032014,-0.37267971
1764511037.8174095,-1.12924,3.38772,0.47306,0.41149797,0.83032014,-0.37267971
1764511037.8174095,-1.12924,3.38772,0.47306,0.41149797,0.83032014,-0.37267971
1764511037.8174095,-1.12924,3.38772,0.47306,0.41149797,0.83032014,-0.37267971
1764511037.8174095,-0.94612,4.059159999999999,1.00716,0.412047285,0.83056428,-0.37255764
1764511037.8174095,-0.94612,4.059159999999999,1.00716,0.412047285,0.83056428,-0.37255764
1764511037.8174095,-0.94612,4.059159999999999,1.00716,0.412047285,0.83056428,-0.37255764
1764511037.8204231,-0.94612,4.059159999999999,1.00716,0.412047285,0.83056428,-0.37255764
1764511037.8204231,-0.94612,4.059159999999999,1.00716,0.412047285,0.83056428,-0.37255764
1764511037.8204231,-0.94612,4.059159999999999,1.00716,0.412047285,0.83056428,-0.37255764
1764511037.8204231,-0.94612,4.059159999999999,1.00716,0.412047285,0.83056428,-0.37255764
1764511037.8204231,-0.94612,4.059159999999999,1.00716,0.412047285,0.83056428,-0.37255764
1764511037.8204231,-0.94612,4.059159999999999,1.00716,0.412047285,0.83056428,-0.37255764
1764511037.8204231,-0.94612,4.059159999999999,1.00716,0.412047285,0.83056428,-0.37255764
1764511037.8204231,-1.26658,3.5098,0.62566,0.41186418,0.830076,-0.372496605
1764511037.8204231,-1.26658,3.5098,0.62566,0.41186418,0.830076,-0.372496605
1764511037.8204231,-1.26658,3.5098,0.62566,0.41186418,0.830076,-0.372496605
1764511037.8204231,-1.26658,3.5098,0.62566,0.41186418,0.830076,-0.372496605
1764511037.8218367,-1.26658,3.5098,0.62566,0.41186418,0.830076,-0.372496605
1764511037.8218367,-1.26658,3.5098,0.62566,0.41186418,0.830076,-0.372496605
1764511037.8218367,-1.26658,3.5098,0.62566,0.41186418,0.830076,-0.372496605
1764511037.8218367,-1.26658,3.5098,0.62566,0.41186418,0.830076,-0.372496605
1764511037.8218367,-1.26658,3.5098,0.62566,0.41186418,0.830076,-0.372496605
1764511037.8218367,-1.26658,3.5098,0.62566,0.41186418,0.830076,-0.372496605
1764511037.86719,-0.3815,7.76734,0.27468,0.411070725,0.830137035,-0.37267971
1764511037.86719,-0.3815,7.76734,0.27468,0.411070725,0.830137035,-0.37267971
1764511037.86719,-0.3815,7.76734,0.27468,0.411070725,0.830137035,-0.37267971
1764511037.86719,-0.3815,7.76734,0.27468,0.411070725,0.830137035,-0.37267971
1764511037.86719,-0.3815,7.76734,0.27468,0.411070725,0.830137035,-0.37267971
1764511037.86719,-0.3815,7.76734,0.27468,0.411070725,0.830137035,-0.37267971
1764511037.868188,-0.3815,7.76734,0.27468,0.411070725,0.830137035,-0.37267971
1764511037.868188,-0.3815,7.76734,0.27468,0.411070725,0.830137035,-0.37267971
1764511037.868188,-0.3815,7.76734,0.27468,0.411070725,0.830137035,-0.37267971
1764511037.868188,-0.3815,7.76734,0.27468,0.411070725,0.830137035,-0.37267971
1764511037.868188,-0.6409199999999999,4.303319999999999,0.3357199999999999,0.410704515,0.830076,-0.37280178
1764511037.868188,-0.6409199999999999,4.303319999999999,0.3357199999999999,0.410704515,0.830076,-0.37280178
1764511037.868188,-0.6409199999999999,4.303319999999999,0.3357199999999999,0.410704515,0.830076,-0.37280178
1764511037.868188,-0.6409199999999999,4.303319999999999,0.3357199999999999,0.410704515,0.830076,-0.37280178
1764511037.868188,-0.6409199999999999,4.303319999999999,0.3357199999999999,0.410704515,0.830076,-0.37280178
1764511037.868188,-0.6409199999999999,4.303319999999999,0.3357199999999999,0.410704515,0.830076,-0.37280178
1764511037.868188,-0.6409199999999999,4.303319999999999,0.3357199999999999,0.410704515,0.830076,-0.37280178
1764511037.868188,-0.6409199999999999,4.303319999999999,0.3357199999999999,0.410704515,0.830076,-0.37280178
1764511037.868188,-0.6409199999999999,4.303319999999999,0.3357199999999999,0.410704515,0.830076,-0.37280178
1764511037.868188,-0.6409199999999999,4.303319999999999,0.3357199999999999,0.410704515,0.830076,-0.37280178
1764511037.9117534,-0.73248,3.70818,0.3815,0.410948655,0.830014965,-0.372496605
1764511037.9117534,-0.73248,3.70818,0.3815,0.410948655,0.830014965,-0.372496605
1764511037.9117534,-0.73248,3.70818,0.3815,0.410948655,0.830014965,-0.372496605
1764511037.9117534,-0.73248,3.70818,0.3815,0.410948655,0.830014965,-0.372496605
1764511037.9117534,-0.73248,3.70818,0.3815,0.410948655,0.830014965,-0.372496605
1764511037.9117534,-0.73248,3.70818,0.3815,0.410948655,0.830014965,-0.372496605
1764511037.9117534,-0.73248,3.70818,0.3815,0.410948655,0.830014965,-0.372496605
1764511037.9117534,-0.73248,3.70818,0.3815,0.410948655,0.830014965,-0.372496605
1764511037.9117534,-0.73248,3.70818,0.3815,0.410948655,0.830014965,-0.372496605
1764511037.9117534,-0.73248,3.70818,0.3815,0.410948655,0.830014965,-0.372496605
1764511037.9127865,-0.6714399999999999,3.17408,0.44254,0.411314865,0.830137035,-0.37316799
1764511037.9127865,-0.6714399999999999,3.17408,0.44254,0.411314865,0.830137035,-0.37316799
1764511037.9127865,-0.6714399999999999,3.17408,0.44254,0.411314865,0.830137035,-0.37316799
1764511037.9127865,-0.6714399999999999,3.17408,0.44254,0.411314865,0.830137035,-0.37316799
1764511037.9127865,-0.6714399999999999,3.17408,0.44254,0.411314865,0.830137035,-0.37316799
1764511037.9127865,-0.6714399999999999,3.17408,0.44254,0.411314865,0.830137035,-0.37316799
1764511037.9127865,-0.6714399999999999,3.17408,0.44254,0.411314865,0.830137035,-0.37316799
1764511037.9127865,-0.6714399999999999,3.17408,0.44254,0.411314865,0.830137035,-0.37316799
1764511037.9127865,-0.6714399999999999,3.17408,0.44254,0.411314865,0.830137035,-0.37316799
1764511037.9127865,-0.6714399999999999,3.17408,0.44254,0.411314865,0.830137035,-0.37316799
1764511037.9127865,-1.02242,3.5098,0.73248,0.41210832,0.830076,-0.37219143
1764511037.9127865,-1.02242,3.5098,0.73248,0.41210832,0.830076,-0.37219143
1764511037.9127865,-1.02242,3.5098,0.73248,0.41210832,0.830076,-0.37219143
1764511037.9127865,-1.02242,3.5098,0.73248,0.41210832,0.830076,-0.37219143
1764511037.9127865,-1.02242,3.5098,0.73248,0.41210832,0.830076,-0.37219143
1764511037.9127865,-1.02242,3.5098,0.73248,0.41210832,0.830076,-0.37219143
1764511037.9607265,-1.02242,3.5098,0.73248,0.41210832,0.830076,-0.37219143
1764511037.9607265,-1.02242,3.5098,0.73248,0.41210832,0.830076,-0.37219143
1764511037.9607265,-1.02242,3.5098,0.73248,0.41210832,0.830076,-0.37219143
1764511037.9607265,-1.02242,3.5098,0.73248,0.41210832,0.830076,-0.37219143
1764511037.9607265,-0.9919,3.815,0.4578,0.412413495,0.830259105,-0.372130395
1764511037.9607265,-0.9919,3.815,0.4578,0.412413495,0.830259105,-0.372130395
1764511037.9607265,-0.9919,3.815,0.4578,0.412413495,0.830259105,-0.372130395
1764511037.9607265,-0.9919,3.815,0.4578,0.412413495,0.830259105,-0.372130395
1764511037.9607265,-0.9919,3.815,0.4578,0.412413495,0.830259105,-0.372130395
1764511037.9607265,-0.9919,3.815,0.4578,0.412413495,0.830259105,-0.372130395
1764511037.9607265,-0.9919,3.815,0.4578,0.412413495,0.830259105,-0.372130395
1764511037.9607265,-0.9919,3.815,0.4578,0.412413495,0.830259105,-0.372130395
1764511037.9617476,-0.9919,3.815,0.4578,0.412413495,0.830259105,-0.372130395
1764511037.9617476,-0.9919,3.815,0.4578,0.412413495,0.830259105,-0.372130395
1764511037.9617476,-0.44254,4.01338,0.88508,0.41284074,0.82983186,-0.372496605
1764511037.9617476,-0.44254,4.01338,0.88508,0.41284074,0.82983186,-0.372496605
1764511037.9617476,-0.44254,4.01338,0.88508,0.41284074,0.82983186,-0.372496605
1764511037.9617476,-0.44254,4.01338,0.88508,0.41284074,0.82983186,-0.372496605
1764511037.9617476,-0.44254,4.01338,0.88508,0.41284074,0.82983186,-0.372496605
1764511037.9617476,-0.44254,4.01338,0.88508,0.41284074,0.82983186,-0.372496605
1764511037.9617476,-0.44254,4.01338,0.88508,0.41284074,0.82983186,-0.372496605
1764511037.9617476,-0.44254,4.01338,0.88508,0.41284074,0.82983186,-0.372496605
1764511038.0060024,-0.44254,4.01338,0.88508,0.41284074,0.82983186,-0.372496605
1764511038.0065298,-0.44254,4.01338,0.88508,0.41284074,0.82983186,-0.372496605
1764511038.0065298,-0.47306,3.84552,1.08346,0.41271867,0.8299539300000001,-0.37182522
1764511038.0065298,-0.47306,3.84552,1.08346,0.41271867,0.8299539300000001,-0.37182522
1764511038.0065298,-0.47306,3.84552,1.08346,0.41271867,0.8299539300000001,-0.37182522
1764511038.0065298,-0.47306,3.84552,1.08346,0.41271867,0.8299539300000001,-0.37182522
1764511038.0065298,-0.47306,3.84552,1.08346,0.41271867,0.8299539300000001,-0.37182522
1764511038.0065298,-0.47306,3.84552,1.08346,0.41271867,0.8299539300000001,-0.37182522
1764511038.0065298,-0.47306,3.84552,1.08346,0.41271867,0.8299539300000001,-0.37182522
1764511038.0065298,-0.47306,3.84552,1.08346,0.41271867,0.8299539300000001,-0.37182522
1764511038.0065298,-0.47306,3.84552,1.08346,0.41271867,0.8299539300000001,-0.37182522
1764511038.0065298,-0.47306,3.84552,1.08346,0.41271867,0.8299539300000001,-0.37182522
1764511038.0065298,-0.24416,3.67766,0.36624,0.41198625,0.830076,-0.37206936
1764511038.0065298,-0.24416,3.67766,0.36624,0.41198625,0.830076,-0.37206936
1764511038.0065298,-0.24416,3.67766,0.36624,0.41198625,0.830076,-0.37206936
1764511038.0065298,-0.24416,3.67766,0.36624,0.41198625,0.830076,-0.37206936
1764511038.0065298,-0.24416,3.67766,0.36624,0.41198625,0.830076,-0.37206936
1764511038.0065298,-0.24416,3.67766,0.36624,0.41198625,0.830076,-0.37206936
1764511038.0065298,-0.24416,3.67766,0.36624,0.41198625,0.830076,-0.37206936
1764511038.0065298,-0.24416,3.67766,0.36624,0.41198625,0.830076,-0.37206936
1764511038.0065298,-0.24416,3.67766,0.36624,0.41198625,0.830076,-0.37206936
1764511038.0065298,-0.24416,3.67766,0.36624,0.41198625,0.830076,-0.37206936
1764511038.0065298,-0.50358,3.67766,0.77826,0.412413495,0.83044221,-0.373106955
1764511038.0065298,-0.50358,3.67766,0.77826,0.412413495,0.83044221,-0.373106955
1764511038.0556672,-0.50358,3.67766,0.77826,0.412413495,0.83044221,-0.373106955
1764511038.0556672,-0.50358,3.67766,0.77826,0.412413495,0.83044221,-0.373106955
1764511038.0556672,-0.50358,3.67766,0.77826,0.412413495,0.83044221,-0.373106955
1764511038.0556672,-0.50358,3.67766,0.77826,0.412413495,0.83044221,-0.373106955
1764511038.0556672,-0.50358,3.67766,0.77826,0.412413495,0.83044221,-0.373106955
1764511038.0556672,-0.50358,3.67766,0.77826,0.412413495,0.83044221,-0.373106955
1764511038.0556672,-0.50358,3.67766,0.77826,0.412413495,0.83044221,-0.373106955
1764511038.0556672,-0.50358,3.67766,0.77826,0.412413495,0.83044221,-0.373106955
1764511038.0556672,-0.4578,3.99812,0.8698199999999999,0.4125966,0.830014965,-0.37365627
1764511038.0556672,-0.4578,3.99812,0.8698199999999999,0.4125966,0.830014965,-0.37365627
1764511038.0556672,-0.4578,3.99812,0.8698199999999999,0.4125966,0.830014965,-0.37365627
1764511038.0556672,-0.4578,3.99812,0.8698199999999999,0.4125966,0.830014965,-0.37365627
1764511038.0556672,-0.4578,3.99812,0.8698199999999999,0.4125966,0.830014965,-0.37365627
1764511038.0556672,-0.4578,3.99812,0.8698199999999999,0.4125966,0.830014965,-0.37365627
1764511038.0556672,-0.4578,3.99812,0.8698199999999999,0.4125966,0.830014965,-0.37365627
1764511038.0556672,-0.4578,3.99812,0.8698199999999999,0.4125966,0.830014965,-0.37365627
1764511038.0556672,-0.4578,3.99812,0.8698199999999999,0.4125966,0.830014965,-0.37365627
1764511038.0556672,-0.4578,3.99812,0.8698199999999999,0.4125966,0.830014965,-0.37365627
1764511038.0556672,-0.88508,3.69292,0.57988,0.411070725,0.82922151,-0.37341213
1764511038.0556672,-0.88508,3.69292,0.57988,0.411070725,0.82922151,-0.37341213
1764511038.0556672,-0.88508,3.69292,0.57988,0.411070725,0.82922151,-0.37341213
1764511038.0556672,-0.88508,3.69292,0.57988,0.411070725,0.82922151,-0.37341213
1764511038.0556672,-0.88508,3.69292,0.57988,0.411070725,0.82922151,-0.37341213
1764511038.0556672,-0.88508,3.69292,0.57988,0.411070725,0.82922151,-0.37341213
1764511038.1003852,-0.88508,3.69292,0.57988,0.411070725,0.82922151,-0.37341213
1764511038.1003852,-0.88508,3.69292,0.57988,0.411070725,0.82922151,-0.37341213
1764511038.1003852,-0.88508,3.69292,0.57988,0.411070725,0.82922151,-0.37341213
1764511038.1003852,-0.88508,3.69292,0.57988,0.411070725,0.82922151,-0.37341213
1764511038.1003852,-0.96138,3.60136,0.65618,0.41162004,0.83019807,-0.373595235
1764511038.1003852,-0.96138,3.60136,0.65618,0.41162004,0.83019807,-0.373595235
1764511038.1003852,-0.96138,3.60136,0.65618,0.41162004,0.83019807,-0.373595235
1764511038.1003852,-0.96138,3.60136,0.65618,0.41162004,0.83019807,-0.373595235
1764511038.1003852,-0.96138,3.60136,0.65618,0.41162004,0.83019807,-0.373595235
1764511038.1003852,-0.96138,3.60136,0.65618,0.41162004,0.83019807,-0.373595235
1764511038.1003852,-0.96138,3.60136,0.65618,0.41162004,0.83019807,-0.373595235
1764511038.1003852,-0.96138,3.60136,0.65618,0.41162004,0.83019807,-0.373595235
1764511038.1003852,-0.96138,3.60136,0.65618,0.41162004,0.83019807,-0.373595235
1764511038.1003852,-0.96138,3.60136,0.65618,0.41162004,0.83019807,-0.373595235
1764511038.1003852,-1.15976,3.72344,0.79352,0.412413495,0.8305032450000001,-0.37255764
1764511038.1003852,-1.15976,3.72344,0.79352,0.412413495,0.8305032450000001,-0.37255764
1764511038.1003852,-1.15976,3.72344,0.79352,0.412413495,0.8305032450000001,-0.37255764
1764511038.1003852,-1.15976,3.72344,0.79352,0.412413495,0.8305032450000001,-0.37255764
1764511038.1003852,-1.15976,3.72344,0.79352,0.412413495,0.8305032450000001,-0.37255764
1764511038.1003852,-1.15976,3.72344,0.79352,0.412413495,0.8305032450000001,-0.37255764
1764511038.1479397,-1.15976,3.72344,0.79352,0.412413495,0.8305032450000001,-0.37255764
1764511038.1479397,-1.15976,3.72344,0.79352,0.412413495,0.8305032450000001,-0.37255764
1764511038.1479397,-1.15976,3.72344,0.79352,0.412413495,0.8305032450000001,-0.37255764
1764511038.1479397,-1.15976,3.72344,0.79352,0.412413495,0.8305032450000001,-0.37255764
1764511038.1489403,-0.19838,3.2046,0.4578,0.41210832,0.829038405,-0.370665555
1764511038.1489403,-0.19838,3.2046,0.4578,0.41210832,0.829038405,-0.370665555
1764511038.1489403,-0.19838,3.2046,0.4578,0.41210832,0.829038405,-0.370665555
1764511038.1489403,-0.19838,3.2046,0.4578,0.41210832,0.829038405,-0.370665555
1764511038.1489403,-0.19838,3.2046,0.4578,0.41210832,0.829038405,-0.370665555
1764511038.1489403,-0.19838,3.2046,0.4578,0.41210832,0.829038405,-0.370665555
1764511038.1504548,-0.19838,3.2046,0.4578,0.41210832,0.829038405,-0.370665555
1764511038.1504548,-0.19838,3.2046,0.4578,0.41210832,0.829038405,-0.370665555
1764511038.1504548,-0.19838,3.2046,0.4578,0.41210832,0.829038405,-0.370665555
1764511038.1504548,-0.19838,3.2046,0.4578,0.41210832,0.829038405,-0.370665555
1764511038.1504548,0.71722,3.61662,0.24416,0.41320695,0.827939775,-0.371520045
1764511038.1504548,0.71722,3.61662,0.24416,0.41320695,0.827939775,-0.371520045
1764511038.1504548,0.71722,3.61662,0.24416,0.41320695,0.827939775,-0.371520045
1764511038.151485,0.71722,3.61662,0.24416,0.41320695,0.827939775,-0.371520045
1764511038.151485,0.71722,3.61662,0.24416,0.41320695,0.827939775,-0.371520045
1764511038.151485,0.71722,3.61662,0.24416,0.41320695,0.827939775,-0.371520045
1764511038.151485,0.71722,3.61662,0.24416,0.41320695,0.827939775,-0.371520045
1764511038.151485,0.71722,3.61662,0.24416,0.41320695,0.827939775,-0.371520045
1764511038.1524742,0.71722,3.61662,0.24416,0.41320695,0.827939775,-0.371520045
1764511038.1524742,0.71722,3.61662,0.24416,0.41320695,0.827939775,-0.371520045
1764511038.1524742,0.0762999999999999,3.84552,0.59514,0.41357316,0.828672195,-0.37377834
1764511038.1524742,0.0762999999999999,3.84552,0.59514,0.41357316,0.828672195,-0.37377834
1764511038.19266,0.0762999999999999,3.84552,0.59514,0.41357316,0.828672195,-0.37377834
1764511038.19266,0.0762999999999999,3.84552,0.59514,0.41357316,0.828672195,-0.37377834
1764511038.19266,0.0762999999999999,3.84552,0.59514,0.41357316,0.828672195,-0.37377834
1764511038.19266,0.0762999999999999,3.84552,0.59514,0.41357316,0.828672195,-0.37377834
1764511038.19266,0.0762999999999999,3.84552,0.59514,0.41357316,0.828672195,-0.37377834
1764511038.19266,0.0762999999999999,3.84552,0.59514,0.41357316,0.828672195,-0.37377834
1764511038.19266,0.0762999999999999,3.84552,0.59514,0.41357316,0.828672195,-0.37377834
1764511038.1936865,0.0762999999999999,3.84552,0.59514,0.41357316,0.828672195,-0.37377834
1764511038.1936865,-1.26658,3.67766,0.48832,0.41162004,0.829160475,-0.37402248
1764511038.1936865,-1.26658,3.67766,0.48832,0.41162004,0.829160475,-0.37402248
1764511038.1936865,-1.26658,3.67766,0.48832,0.41162004,0.829160475,-0.37402248
1764511038.1936865,-1.26658,3.67766,0.48832,0.41162004,0.829160475,-0.37402248
1764511038.1936865,-1.26658,3.67766,0.48832,0.41162004,0.829160475,-0.37402248
1764511038.1936865,-1.26658,3.67766,0.48832,0.41162004,0.829160475,-0.37402248
1764511038.1936865,-1.26658,3.67766,0.48832,0.41162004,0.829160475,-0.37402248
1764511038.1936865,-1.26658,3.67766,0.48832,0.41162004,0.829160475,-0.37402248
1764511038.1936865,-1.26658,3.67766,0.48832,0.41162004,0.829160475,-0.37402248
1764511038.1936865,-1.26658,3.67766,0.48832,0.41162004,0.829160475,-0.37402248
1764511038.1936865,-1.54126,3.31142,0.27468,0.409972095,0.829770825,-0.37390041
1764511038.1936865,-1.54126,3.31142,0.27468,0.409972095,0.829770825,-0.37390041
1764511038.1936865,-1.54126,3.31142,0.27468,0.409972095,0.829770825,-0.37390041
